timestamp,acclX,acclY,acclZ,gyroX,gyroY,gyroZ
0,4.7596488,1.5586174,8.6909075,0.7786260,-7.8473282,10.2748089
10,4.7045822,1.6065011,8.6789370,0.0992366,-4.9465647,13.4045801
20,5.7532372,1.7357874,9.3900108,0.5648855,-1.3206106,24.5954189
30,6.1841912,1.6807210,9.5911226,2.1755726,-2.0916030,24.7633591
40,6.6893654,1.8626794,9.7299862,4.3664122,-3.4809160,22.9083977
50,7.3262196,2.0613971,9.7946291,6.8396945,-4.4503818,18.1145039
60,7.7116842,2.1858950,9.8329363,9.5801525,-3.1755726,12.6641226
70,7.8481531,2.1427996,9.8305416,13.3435116,-1.2671756,6.1832061
80,7.7547798,2.2122312,9.7036495,16.3358784,-0.9389313,0.8396947
90,7.7212610,2.3750360,8.9614515,21.5190830,-5.6488547,-13.1984730
100,7.5680327,2.4037662,8.7579451,22.4274807,-6.3664122,-18.3282452
110,7.3118544,2.4085546,8.4874020,23.0916023,-5.6106873,-22.4274807
120,6.9934273,2.3702476,8.2599535,23.0000000,-3.4198472,-25.3893127
130,6.7180958,2.3870070,8.1617918,22.9541988,-2.4274809,-27.1603050
140,6.4068508,2.2984219,7.9487090,23.1068707,-1.3740458,-28.8396950
150,6.1578555,2.2577207,7.7284436,22.8015270,-1.3129771,-30.0763359
160,5.9304070,2.1811066,7.3884687,20.7786255,-1.0839695,-30.3664131
170,5.4898763,2.2409613,7.4626884,18.8167934,-4.9923663,-29.7328243
180,5.5473371,2.4708035,7.2927012,17.0229015,-5.4045801,-26.6412220
190,5.8537931,2.4301023,7.2280579,13.2900763,-6.5572519,-24.9770985
200,6.5385313,2.6814921,7.6638002,-0.3129771,-9.9694653,-27.8778629
210,6.9072366,2.7557120,8.0636301,-4.3282442,-10.3740454,-30.0458012
220,7.1179252,2.9352763,8.7579451,-7.5496182,-9.8167934,-32.4961815
230,7.1538382,3.0166788,9.4283180,-7.6946564,-12.0916033,-35.5114517
240,7.2136927,3.0908985,10.1729107,-6.0839696,-16.4274807,-38.5801544
250,7.3022780,3.1148405,10.9079275,-2.4732823,-22.1832066,-41.3969460
260,7.4435349,3.3375001,11.4873209,2.2061069,-28.0992374,-43.3129768
270,7.7859039,3.3398943,11.9470053,6.8931298,-34.7099228,-45.9236641
280,8.4562769,3.4643922,12.6101961,11.7557249,-38.7938919,-50.2061081
290,9.3253679,3.5841017,13.3356352,18.4198475,-39.1908379,-56.0687027
300,10.1872759,3.6726866,14.1592360,27.8931293,-35.3969460,-63.9236641
310,10.6828737,3.8474624,14.7553892,41.5267181,-27.2824421,-74.8091583
320,10.8911676,3.8857694,15.0450869,59.1145020,-18.8854961,-87.6030502
330,10.7954006,4.0054789,14.8032732,78.5954208,-10.5801525,-100.9236679
340,10.2854376,3.8115497,13.7929258,97.2061081,-4.8167939,-113.9007645
350,9.6940727,3.6846576,12.2271252,108.7175598,-8.8931293,-125.4580154
360,9.4953556,3.8067613,11.0587606,114.7175598,-16.0305347,-136.7175598
370,9.6437950,4.0006905,10.4243011,118.4427490,-27.9847336,-151.2748108
380,9.7754755,3.9887197,10.1130562,122.3358765,-44.3969460,-170.0534363
390,9.6725254,3.7325413,9.6892843,126.7022934,-60.5419846,-190.6641235
400,9.4690189,3.4332676,9.4211359,131.0305328,-74.3206100,-209.4427490
410,9.2272062,3.2944047,9.0883436,133.4122162,-84.1603088,-227.4427490
420,9.0332766,3.1723011,8.6047173,134.2519073,-88.0305328,-244.4732819
430,8.5831690,2.7533178,7.9965930,132.6335907,-83.2595444,-250.1374054
440,8.2144642,2.3750360,7.3764977,128.5343475,-76.8931274,-250.1374054
450,7.9319496,2.2984219,7.1538382,123.3740463,-69.9618301,-250.1374054
460,7.7619624,2.2553265,7.2017217,120.5648880,-60.1603050,-250.1374054
470,8.0181408,2.1380112,7.0389171,120.7328262,-46.2824440,-250.1374054
480,7.7116842,2.0446377,6.4260044,120.6488571,-34.5954208,-250.1374054
490,6.7611909,1.7740943,5.6981707,119.7328262,-25.4580154,-250.1374054
500,5.2983413,1.4389079,4.9559722,118.0916061,-20.9770985,-250.1374054
510,3.5577655,1.2784972,4.3693957,115.6641235,-23.4961834,-250.1374054
520,1.7022687,1.1875180,4.1347651,112.8931274,-30.6793900,-250.1374054
530,-0.0957676,1.0007712,3.9408360,112.0610657,-39.7099228,-250.1374054
540,-1.5394639,1.0486550,4.0006905,114.0000000,-52.0534363,-250.1374054
550,-2.7030399,1.2090657,3.6487448,117.1526718,-63.8091621,-250.1374054
560,-3.6367738,1.3072275,2.9999194,118.2442780,-73.5725174,-250.1374054
570,-4.6351509,1.2952565,2.4205256,115.2977066,-81.3358765,-250.1374054
580,-5.7412663,1.2114599,2.0159075,109.2290039,-85.5114517,-250.1374054
590,-6.7659793,0.9888002,1.8794388,100.9618301,-83.7022934,-250.1374054
600,-7.6781654,0.8092360,1.8195840,92.4732819,-75.1755753,-250.1374054
610,-8.6645718,0.4453192,1.5011568,82.9923630,-64.2290039,-250.1374054
620,-9.9095497,0.1747758,1.1276633,72.3664093,-52.6641235,-250.1374054
630,-11.5040808,-0.2466015,0.9026094,60.7251892,-47.1603050,-243.1984711
640,-12.6461086,-0.2873027,0.9337339,49.0687027,-44.2977104,-218.5648804
650,-13.4721041,-0.4333483,1.2737088,39.3206100,-41.5572510,-190.4809113
660,-14.0251617,-0.6033357,1.6831152,32.0381660,-36.9083977,-159.3282471
670,-13.9868546,-0.4884146,1.8100072,24.9389305,-29.2671757,-128.0992432
680,-13.7258883,-0.6607963,1.7980363,16.6259537,-14.9847326,-97.2977066
690,-13.3643656,-0.8547257,1.5227045,5.4961834,4.6183205,-68.0000000
700,-13.0315733,-1.0534433,1.4652439,-6.4122138,24.2671757,-39.3129768
710,-12.8041248,-1.3048333,1.6998745,-17.6793900,41.0458031,-11.3282442
720,-12.5311880,-1.5203103,1.9345051,-25.3893127,54.3206100,16.4045811
730,-12.3899307,-2.1308286,1.9608412,-31.1908398,63.8778610,44.3664131
740,-12.3444405,-2.7293761,2.1451938,-34.8778610,69.7480927,74.8778610
750,-12.4138727,-3.3351059,2.2529323,-36.8167953,67.6946564,105.0229034
760,-12.4258432,-3.9935081,2.4779861,-37.6641235,60.6259537,137.6793823
770,-12.4904861,-4.8195033,2.7102225,-35.5648842,52.9083977,173.7022858
780,-12.8208847,-5.8394279,2.8371146,-31.2290077,42.2519073,213.9770966
790,-13.4290085,-7.0676475,2.9089401,-24.0610695,25.6335869,250.1297760
800,-13.4864693,-8.1857338,3.2010312,-14.1145039,11.3740454,250.1297760
810,-13.5151997,-9.8903971,3.0908985,-2.3129771,5.3511453,250.1297760
820,-13.9796724,-11.8632088,2.3295465,9.0152674,-5.4732823,250.1297760
830,-13.6516685,-14.3340120,1.2377959,14.8167934,-20.0687027,250.1297760
840,-12.5934362,-17.8606529,0.7038917,15.7099237,-26.3664131,250.1297760
850,-11.4729557,-19.6131992,0.7805058,10.6030531,-13.0534353,250.1297760
860,-9.2200232,-19.6131992,1.6831152,-0.9312977,20.0381680,250.1297760
870,-2.5809362,-19.6131992,2.9328821,-17.4656487,72.1984711,250.1297760
880,9.1745338,-19.6131992,4.1180058,-40.9083977,170.5801544,250.1297760
890,19.6126022,-19.6131992,4.2640514,-89.5038147,250.1297760,250.1297760
900,19.6126022,-19.6131992,4.6806402,-181.1526642,250.1297760,250.1297760
910,19.6126022,-19.6131992,11.8177195,-250.1374054,250.1297760,250.1297760
920,19.6126022,-19.6131992,19.6126022,-250.1374054,250.1297760,250.1297760
930,19.6126022,-17.3243542,19.6126022,-250.1374054,250.1297760,250.1297760
940,19.6126022,-12.8376436,19.6126022,-109.6641235,149.4427490,250.1297760
950,19.6126022,-5.6311336,19.6126022,40.3969460,-218.1450348,250.1297760
960,19.6126022,-2.0613971,13.0172081,109.0229034,-250.1374054,203.5725250
970,19.6126022,0.1101327,5.9735026,103.6335907,-250.1374054,141.3587799
980,19.6126022,3.6918402,5.0541339,54.4809151,-250.1374054,115.6870193
990,19.6126022,6.4762826,5.9423780,-19.7022896,-109.9236679,78.6030502
1000,19.6126022,6.2153158,8.3868456,-82.9236679,140.4045868,30.2824421
1010,19.6126022,4.1539187,10.8241301,-101.4274826,250.1297760,6.3893127
1020,18.7034073,2.8251436,11.1545286,-84.6641235,250.1297760,8.1526718
1030,15.6101151,2.6886747,10.1800938,-54.8931313,202.2977142,13.6030531
1040,15.6675758,3.5864959,9.1817169,-26.4045811,112.6946564,8.4274807
1050,17.3075962,4.5992379,7.8026633,-10.3129768,45.3206100,-9.2900763
1060,18.1886578,5.0517397,6.8809004,-6.6488547,20.0305347,-33.5877876
1070,17.4823723,4.7285242,6.2105274,-10.0839691,25.7099228,-57.2213745
1080,15.4784346,4.1108232,5.6909885,-17.0381680,37.2748108,-76.2595444
1090,13.0124197,3.4141142,5.4156566,-23.7557259,41.9160309,-88.0763321
1100,11.0324249,2.7293761,5.7987270,-25.6641216,38.8625946,-91.6717529
1110,9.4546537,2.0709739,6.0453281,-22.8549614,27.7862587,-89.1450348
1120,8.7292147,1.7333932,6.2368636,-18.6412220,16.0076332,-83.8854980
1130,8.2384062,1.5849534,6.3326311,-15.4274807,8.2977095,-78.0152664
1140,8.1593981,1.3646880,6.3422079,-13.8549614,6.4274807,-69.8702316
1150,8.4036045,1.2066715,6.2967181,-11.6259546,6.8549619,-64.1832047
1160,9.1960821,1.1994889,6.2991123,-10.2977095,8.6335878,-61.7022896
1170,10.8193426,1.4963684,6.1961622,-11.6717558,16.1832066,-64.6870193
1180,12.0260134,1.6567791,5.6359220,-16.6870232,32.2290077,-73.3282471
1190,12.4976692,1.5250987,5.1594782,-25.3587780,48.9847336,-85.5877838
1200,12.4282379,1.5203103,5.1139889,-36.7862587,53.7786255,-99.1984711
1210,12.1744537,1.4772149,5.5976148,-45.5572510,43.0687027,-114.0839691
1220,12.2797976,1.7477583,6.5074067,-50.2137413,16.8473282,-131.8320618
1230,12.9932661,1.7788827,7.4267755,-51.1908379,-10.1297712,-150.9313049
1240,14.4106264,2.1308286,8.3676920,-50.1450386,-23.6946564,-171.5343475
1250,15.4760408,2.5569944,8.9973640,-50.0228996,-20.7480907,-194.5801544
1260,15.8399572,2.6312141,9.5121145,-50.1832047,-12.4427481,-220.1984711
1270,15.4927998,2.4109488,10.0364418,-50.2900772,-2.8549619,-246.9694672
1280,14.1783895,2.3151813,10.6014709,-48.6870232,2.2290077,-250.1374054
1290,12.8974981,2.0685797,11.3293047,-43.2442741,2.5801528,-250.1374054
1300,11.6740675,1.8363433,12.1265697,-32.5419846,-7.3816795,-250.1374054
1310,10.9629936,1.7094513,13.0148134,-17.5954189,-26.4732819,-250.1374054
1320,10.8744087,1.6879035,13.7522240,0.4351145,-46.9236641,-250.1374054
1330,11.0348196,1.6543850,14.2406387,17.7786255,-59.6183205,-250.1374054
1340,10.3907824,1.6112895,14.3603487,33.9083977,-63.0763359,-250.1374054
1350,9.3828287,1.2928623,14.0514975,47.3740463,-62.1755714,-250.1374054
1360,8.0372944,1.1396341,13.6899757,60.1068687,-58.9618340,-250.1374054
1370,6.6151457,0.8978211,13.2494440,71.1526718,-54.5343513,-250.1374054
1380,5.3318601,1.0055596,12.6485033,81.3740463,-53.4427490,-250.1374054
1390,4.2281384,1.3790531,11.7722292,89.2595444,-53.6335869,-250.1374054
1400,3.4572096,1.4460905,11.0755205,96.2366409,-53.4274826,-250.1374054
1410,2.6862805,1.4293311,10.1968527,101.3664093,-50.8625946,-250.1374054
1420,2.1332228,1.3072275,9.0644016,100.9923630,-46.1068687,-250.1374054
1430,1.6926919,1.4006008,8.4490948,100.5343475,-43.2061081,-250.1374054
1440,1.2401901,1.3814473,7.8242111,96.6030502,-38.6259537,-250.1374054
1450,0.8451489,1.1324517,7.2041159,92.8549652,-27.5114498,-250.1374054
1460,0.3208214,0.8212070,6.7492199,88.1068726,-13.7862597,-250.1374054
1470,-0.1723816,0.5171449,6.2823529,84.0152664,1.6412214,-250.1374054
1480,-1.0725969,-0.1173153,5.8777351,79.8244247,18.8931293,-250.1374054
1490,-2.2361729,-0.7517755,5.5545197,76.1374054,33.9083977,-250.1374054
1500,-3.4428444,-1.4293311,5.4348102,73.9160309,46.3893127,-250.1374054
1510,-5.1499014,-2.2289903,5.6502872,75.1145020,59.9083977,-250.1374054
1520,-6.9814563,-2.7988074,5.6598639,79.8854980,70.5648880,-250.1374054
1530,-8.8177996,-3.2800395,5.3917146,86.8778610,75.4656525,-250.1374054
1540,-10.2160063,-3.3662305,4.6734576,93.6106873,71.7938919,-243.1755676
1550,-10.8887739,-3.4212968,3.8666160,97.4580154,63.7938919,-214.5648804
1560,-10.5392218,-3.4883339,3.0382264,100.5801544,60.2748108,-185.5114441
1570,-9.7491398,-3.4476328,2.0422437,96.5648880,62.0381660,-158.3740387
1580,-9.2487535,-3.3422885,1.1779412,88.0610657,71.0076370,-135.1526642
1590,-9.2224178,-3.5817075,0.8930327,76.9465637,82.8396912,-111.7633591
1600,-9.5767574,-3.9599893,1.0199248,67.7786255,96.2061081,-83.9007645
1610,-10.3357162,-4.3789725,1.0749911,61.9083977,112.1068726,-49.2519073
1620,-12.1816359,-5.0732875,0.8810617,57.4274826,127.6183243,-6.5648856
1630,-15.6532106,-5.7412663,0.3782819,53.4885483,130.5419922,52.0381660
1640,-18.4807491,-6.1458845,-0.0814024,49.5114517,120.9083939,130.0000000
1650,-19.6131992,-6.3446021,-1.0510491,39.8702278,115.8931274,229.5267181
1660,-19.6131992,-7.8026633,-2.5785420,21.5267181,112.1832047,250.1297760
1670,-19.6131992,-10.8839855,-4.3478479,-8.0229006,104.9770966,250.1297760
1680,-18.6986198,-15.0187502,-4.9009056,-49.4503822,96.3587799,250.1297760
1690,-15.8567171,-19.6131992,-2.8562679,-94.5038147,85.4656525,250.1297760
1700,-12.0954447,-19.6131992,1.2593436,-125.5572510,75.7022934,250.1297760
1710,-3.5984666,-19.6131992,5.6000090,-132.2213745,59.0839691,250.1297760
1720,9.8975792,-19.6131992,9.6605549,-106.1068726,38.7480927,250.1297760
1730,19.6126022,-19.6131992,13.0626974,-53.8167953,54.7938919,250.1297760
1740,19.6126022,-19.6131992,14.0467091,7.5877862,125.3358765,250.1297760
1750,19.6126022,-19.6131992,10.8528605,36.6641235,214.9541931,250.1297760
1760,19.6126022,-13.2398672,7.5440907,21.7480907,250.1297760,250.1297760
1770,19.6126022,-7.8361821,6.1889796,-3.4809160,250.1297760,250.1297760
1780,19.6126022,-3.4476328,6.5050125,-1.1145039,192.3511505,250.1297760
1790,19.6126022,0.1340746,4.0749106,4.9541984,108.9847336,250.1297760
1800,19.6126022,2.4755919,1.7286048,-12.8015270,72.5801544,250.1297760
1810,19.6126022,4.3693957,2.0398495,-44.8778610,69.1221390,214.7251892
1820,19.6126022,5.4467812,3.7157819,-73.0076370,103.5267181,173.0000000
1830,19.6126022,6.0740585,5.2720051,-93.1221390,158.9465637,138.8702240
1840,19.6126022,6.3493905,6.2153158,-107.9236679,209.6106873,108.6641235
1850,19.6126022,5.6790175,6.4020624,-118.1679382,236.1984711,81.3358765
1860,19.6126022,4.9966736,6.5624733,-121.4351120,216.7709961,52.9007645
1870,19.5605278,4.4484038,7.2160869,-119.2595444,154.9770966,20.9541988
1880,18.4544125,3.9719603,8.1857338,-112.0076370,85.8320618,-12.1145039
1890,17.2237988,3.4572096,9.0404596,-99.4045792,26.9465656,-41.0152664
1900,15.6795464,3.2944047,9.7946291,-87.8167953,-12.1832066,-60.9236641
1910,14.1305065,3.1387823,10.1274214,-76.9618301,-34.3282433,-72.4809189
1920,12.2414904,3.0286496,10.4123297,-66.3282471,-41.6183205,-73.8396912
1930,10.9031391,3.0047078,10.6014709,-54.7709923,-38.6412201,-64.2900772
1940,10.4123297,2.9424589,10.3931761,-44.5038185,-25.9007626,-49.0839691
1950,10.7977943,2.9807658,10.0460186,-37.7022896,-10.0916033,-32.2442741
1960,12.5048513,3.1842721,10.0436249,-35.8396950,11.2290077,-18.4351139
1970,14.6284971,3.4931223,10.4793673,-33.3435097,33.7099228,-14.7404585
1980,16.2924595,3.7876077,10.7858238,-30.3435116,52.3129768,-21.3893127
1990,17.5278606,4.0294209,11.3101511,-24.6412220,58.6412201,-36.6030540
2000,18.2173882,4.0126615,11.8225079,-15.7022905,46.5648842,-59.4198456
2010,18.6435528,3.8570392,12.0906563,-4.1679387,21.9389305,-87.8167953
2020,19.6126022,3.6080434,12.3228931,7.9312978,-5.3664122,-117.9160309
2030,19.6126022,3.4189026,12.5718889,18.4198475,-18.4885502,-148.6564941
2040,19.6126022,3.2704628,12.7179346,26.9847336,-14.6946564,-180.3358765
2050,19.6126022,2.8347204,12.3899307,33.9771004,-2.3587787,-215.3282471
2060,19.6126022,2.4708035,12.0715036,39.2061081,6.3664122,-250.1374054
2070,19.6126022,1.8435259,11.6070309,44.5877876,15.9465647,-250.1374054
2080,19.6126022,0.6775556,11.0946741,49.9618340,15.1068707,-250.1374054
2090,18.8925495,-0.2537841,11.0539722,58.3129768,3.3740458,-250.1374054
2100,16.6372223,-1.3838415,11.1186161,69.4580154,-12.5114508,-250.1374054
2110,15.1671906,-2.3008161,10.9175043,82.9923630,-28.7175579,-250.1374054
2120,13.4792862,-3.1699069,10.4434547,96.1374054,-39.7099228,-250.1374054
2130,11.4657736,-3.8402798,9.8640604,108.5419846,-46.8549614,-250.1374054
2140,9.1074963,-4.1706781,9.1218615,119.1221390,-54.8702278,-250.1374054
2150,7.1275020,-4.4819226,8.1282730,127.6412201,-59.2671738,-250.1374054
2160,5.5353661,-4.6566987,6.9359670,131.4580078,-61.1832047,-250.1374054
2170,4.0581512,-4.4124913,6.1267309,129.9084015,-57.5572510,-250.1374054
2180,2.7437410,-4.1946201,5.6598639,124.8396912,-52.0763359,-250.1374054
2190,1.4317253,-3.8690102,5.3151007,120.0916061,-45.2977104,-250.1374054
2200,0.1508339,-3.6583214,5.1475072,117.6717529,-40.2290077,-250.1374054
2210,-1.1300575,-3.5577655,5.3414369,117.5496216,-37.9389305,-250.1374054
2220,-2.6144550,-3.2441268,5.5617023,122.2442780,-42.6488533,-250.1374054
2230,-3.5817075,-2.7102225,5.2672167,127.6870193,-50.3282433,-250.1374054
2240,-4.4388270,-2.1835008,4.9032998,131.5114441,-56.7633591,-250.1374054
2250,-5.1355362,-1.9273225,4.1251884,132.2824402,-66.7022934,-250.1374054
2260,-5.5880380,-1.8818330,3.6631098,128.4503784,-81.1603088,-250.1374054
2270,-6.1003947,-1.7621235,3.3207407,122.1679382,-88.0305328,-250.1374054
2280,-6.9024482,-1.7094513,2.8299320,112.6641235,-84.4503784,-250.1374054
2290,-8.1426382,-1.8219782,2.6551561,99.1221390,-75.1145020,-250.1374054
2300,-9.3660688,-1.7262106,2.7557120,87.4122162,-65.3969498,-238.4732819
2310,-10.5464048,-1.5921360,3.1794837,75.0534363,-57.4580154,-211.9084015
2320,-11.6261835,-1.4939742,3.7349355,65.6870193,-48.1832047,-183.4045868
2330,-12.9166517,-1.4820032,4.3789725,59.6488533,-39.9771004,-151.5572510
2340,-13.8072910,-1.4532729,4.7692256,56.8473282,-29.2671757,-116.3206100
2350,-14.4752693,-1.4772149,4.8003497,55.2900772,-13.4503813,-77.8931274
2360,-14.5039997,-1.6950861,4.5992379,52.3969460,1.5343511,-37.0763359
2370,-14.2933111,-2.0206959,4.5705075,50.3893127,13.9083967,3.7709923
2380,-13.9677010,-2.4636209,4.1611013,48.9007645,25.3282452,45.0916023
2390,-13.8240499,-2.9472473,3.7253587,47.7175560,32.9618340,87.1526718
2400,-13.4625273,-3.2417326,3.2465210,45.8625946,36.7251892,129.1526642
2410,-12.8208847,-3.8881636,3.0765336,46.1603050,32.1221390,168.6564941
2420,-12.8280668,-4.8625989,2.4636209,49.3435097,19.0000000,208.0076294
2430,-13.7737722,-6.1722202,1.3168042,53.2671738,-2.5419848,250.1297760
2440,-15.5095596,-7.7284436,-0.3782819,53.4503822,-31.2061062,250.1297760
2450,-17.4488525,-9.7156210,-2.2912393,46.8549614,-52.6870232,250.1297760
2460,-19.6131992,-13.3284531,-4.4196739,27.7709923,-62.6641235,250.1297760
2470,-19.6131992,-19.6131992,-4.7117648,2.3587787,-59.7099228,250.1297760
2480,-19.6131992,-19.6131992,-1.9943599,-29.7786255,-10.1068707,250.1297760
2490,-13.9557304,-19.6131992,3.2584918,-60.0534363,85.9083939,250.1297760
2500,-2.8682389,-19.6131992,9.2367830,-69.3053436,196.6793823,250.1297760
2510,13.8216553,-19.6131992,13.5223818,-64.7633591,250.1297760,250.1297760
2520,19.6126022,-19.6131992,15.9261484,-73.7633591,250.1297760,250.1297760
2530,19.6126022,-19.6131992,17.4560356,-107.7480927,250.1297760,250.1297760
2540,19.6126022,-19.6131992,19.6126022,-129.0839691,250.1297760,250.1297760
2550,19.6126022,-14.7984848,19.6126022,-87.2213745,250.1297760,250.1297760
2560,19.6126022,-5.9687142,15.5406837,2.3587787,72.9160309,250.1297760
2570,19.6126022,-0.6991033,5.7628140,54.2824440,-250.1374054,198.5114441
2580,19.6126022,0.7469871,-0.0335187,29.9847336,-250.1374054,100.0916061
2590,19.6126022,1.0989330,2.5785420,-27.8244267,-250.1374054,73.7938919
2600,19.6126022,0.8068419,8.3461447,-72.9465637,-164.8702240,85.3129807
2610,19.6126022,1.0079538,12.8113079,-86.7938919,70.0152664,118.0152664
2620,19.6126022,2.1236460,13.5391417,-74.5572510,209.6641235,151.4961853
2630,19.6126022,2.8347204,11.7937775,-54.8625946,245.7480927,160.6641235
2640,19.6126022,4.3502421,9.2200232,-40.3206100,226.5572510,147.6717529
2650,19.6126022,5.7939386,7.5297260,-34.1908379,164.2519073,104.5114517
2660,19.6126022,6.7540083,6.4667058,-30.7404575,89.8473282,43.5267181
2670,19.6126022,6.4691000,6.1434903,-32.3282433,29.1297703,-10.5190840
2680,19.6126022,5.1403246,6.6055689,-41.9847336,34.5648842,-40.7557259
2690,19.6126022,5.3366485,9.3325500,-52.8320618,43.8549614,-67.8396912
2700,15.4832230,3.4787574,9.5791521,-46.8320618,54.9083977,-83.9847336
2710,10.7594872,2.5617826,9.2679071,-35.2748108,49.4732819,-77.1755753
2720,7.9127960,2.0374553,8.4658537,-24.8702297,29.8320618,-59.3587799
2730,7.0077925,2.0470319,8.1306677,-14.3587790,6.9236641,-40.9236641
2740,7.9870162,2.3271523,8.0061693,-5.8549619,-2.5725191,-26.9160309
2750,10.3740225,2.8706331,8.3269911,0.8396947,-5.1145039,-22.5725193
2760,12.1624823,2.9640064,8.4251528,9.1908398,-2.0534351,-30.5801525
2770,12.6939926,3.2465210,8.0732069,15.6641226,9.8473282,-41.8244286
2780,12.6461086,3.5074875,7.4411407,17.4045811,18.6564884,-54.1908379
2790,12.2007895,3.3638363,6.7540083,16.8778629,25.9923668,-66.2442780
2800,11.7889891,3.3303175,6.2488346,13.9160309,28.0229015,-75.1450348
2810,11.4921093,3.2584918,6.0118098,9.8167934,22.7328243,-81.8549652
2820,12.5934362,3.5721307,6.7540083,3.2977099,-5.9160304,-96.0534363
2830,14.0850163,3.9480183,7.4531116,2.3587787,-17.5801525,-107.9923630
2840,15.2174683,4.3622131,7.8218169,2.7938931,-19.9236641,-125.8244247
2850,15.6987000,4.3263001,8.1546097,3.7328243,-18.2137413,-146.2900696
2860,15.9165716,4.1898317,8.4059992,4.4274807,-16.9465656,-167.2900696
2870,16.2062683,4.1730723,8.6454182,5.8473282,-18.4961834,-190.3816833
2880,15.4113979,3.9839313,9.0404596,9.5038166,-24.0992374,-213.9160309
2890,14.5375185,3.6631098,9.2248116,15.5648851,-37.4274826,-234.8625946
2900,14.2238798,3.4524212,9.5576038,24.8931293,-57.2290077,-250.1374054
2910,14.4202032,3.3901722,9.7850523,35.7862587,-75.0839691,-250.1374054
2920,14.6596222,3.5338237,9.7491398,47.2442741,-87.8091583,-250.1374054
2930,14.1329002,3.4476328,9.2439651,55.4198456,-94.8854980,-250.1374054
2940,13.2925396,3.3734128,8.5520449,58.0000000,-95.8320618,-250.1374054
2950,12.7418766,3.3997490,8.0612354,57.1221390,-85.3587799,-250.1374054
2960,12.0667152,3.4093258,7.4459291,53.6870232,-64.5954208,-250.1374054
2970,10.8480721,3.1172347,6.7994981,49.3206100,-44.3129768,-250.1374054
2980,8.8944139,2.6910689,6.4978304,45.4961815,-29.8625946,-250.1374054
2990,6.9551206,2.6096666,6.3230543,43.7328262,-22.5801525,-250.1374054
3000,5.5186067,2.3295465,6.3733325,44.5038185,-23.0305347,-250.1374054
3010,4.6159973,2.2696917,6.5457139,47.4427490,-28.1297703,-250.1374054
3020,4.0485744,2.4516499,6.5552907,51.8473282,-35.3435097,-250.1374054
3030,3.3758070,2.1930776,6.4379754,56.2595406,-40.3740463,-250.1374054
3040,2.4731977,1.7214222,6.2871413,60.5419846,-43.1068687,-250.1374054
3050,1.6759326,1.3958124,6.1578555,64.4580154,-45.6870232,-250.1374054
3060,0.7757174,1.2138541,5.8681583,67.4656525,-46.8396950,-250.1374054
3070,-0.1963235,0.7589580,5.5521255,69.7480927,-44.3893127,-250.1374054
3080,-1.4029950,0.4908088,5.2672167,70.9618301,-44.5801544,-250.1374054
3090,-2.2649033,0.1939293,4.8961172,71.2900772,-44.5954208,-250.1374054
3100,-3.3614421,-0.2322364,4.7309184,70.7480927,-44.5954208,-250.1374054
3110,-4.6830344,-0.6560079,4.4795284,69.8854980,-45.2137413,-250.1374054
3120,-5.9591374,-0.9744351,4.3957319,67.9923630,-44.3511467,-250.1374054
3130,-7.5991573,-1.3838415,4.2784166,65.5267181,-41.2900772,-238.5038147
3140,-9.3780403,-1.6041069,4.3263001,62.7480927,-35.6793900,-213.6335907
3150,-10.7690639,-1.6879035,4.4148855,60.7862587,-26.9770985,-182.3129730
3160,-11.7075863,-1.6615674,4.1922259,60.1450386,-17.6717548,-147.4885559
3170,-12.2319136,-1.7788827,3.6846576,59.1679382,-6.5648856,-110.4274826
3180,-12.1936073,-2.0685797,3.1579359,55.5877876,6.6412215,-73.5572510
3190,-11.8081427,-2.4348907,2.4540441,48.7633591,22.4503822,-37.7709923
3200,-11.5902710,-2.9376705,1.9799947,38.7633591,40.7557259,-2.4503818
3210,-11.7434988,-3.5505829,1.5442522,28.3206100,58.9389305,33.5114517
3220,-12.4904861,-4.2855992,1.1611819,20.0610695,64.4732819,70.9160309
3230,-13.6205435,-5.1786318,0.5793939,15.2061071,51.3969460,112.5114517
3240,-14.3771076,-6.2248926,0.1843526,12.9312973,21.4122143,159.1526642
3250,-13.8623571,-7.1897511,-0.1675933,13.0534353,-10.4198475,209.3358765
3260,-12.7945480,-8.1330614,-0.5362985,12.6946564,-29.3053436,250.1297760
3270,-11.5160513,-8.9399033,-1.0342898,6.2137403,-21.7175579,250.1297760
3280,-11.1712875,-9.8137827,-1.9368993,-10.5572519,14.2671757,250.1297760
3290,-12.0595322,-11.7842007,-2.7724714,-38.9771004,69.6793900,250.1297760
3300,-14.2310619,-14.3842907,-3.4691806,-77.7251892,128.9694672,250.1297760
3310,-15.0331154,-17.5661678,-2.5713594,-127.3129807,183.0305328,250.1297760
3320,-12.9693241,-19.6131992,-0.3615226,-173.2900696,221.6564941,250.1297760
3330,-9.6150646,-19.6131992,2.4803803,-211.7099304,233.3358765,250.1297760
3340,-4.5106530,-19.6131992,6.4906478,-233.5954132,222.7557220,250.1297760
3350,7.9199786,-19.6131992,10.7786407,-239.9236603,232.9847260,250.1297760
3360,19.6126022,-19.6131992,14.3771076,-245.4045868,250.1297760,250.1297760
3370,19.6126022,-19.6131992,19.6126022,-250.1374054,250.1297760,250.1297760
3380,19.6126022,-19.6131992,19.6126022,-215.8320618,250.1297760,250.1297760
3390,19.6126022,-7.1179252,19.6126022,-126.8015289,250.1297760,250.1297760
3400,19.6126022,0.8212070,19.6126022,-22.0152664,121.0839691,232.7709961
3410,19.6126022,2.1404054,19.6126022,59.8702278,-91.1297684,34.7175560
3420,19.6126022,1.5274929,12.0906563,77.8625946,-250.1374054,-66.6946564
3430,19.6126022,2.3103929,8.8321648,56.5343513,-250.1374054,-80.6564865
3440,17.1926746,3.0669568,9.5504217,30.5190830,-250.1374054,-44.0152664
3450,17.2022514,3.9791429,10.2662840,13.3206110,-160.8320618,3.9312978
3460,16.1200771,5.0541339,7.8122401,-19.8015270,121.0152664,66.3664093
3470,15.5765963,4.9823084,7.7068958,-25.5954189,171.2061005,78.5343475
3480,15.7106714,4.7333126,7.0724359,-21.5038166,174.7175598,75.9694672
3490,16.2900658,4.6112089,6.1434903,-14.7557249,139.4122162,59.0839691
3500,16.6875000,4.7093706,5.7197185,-7.1374044,74.0992355,29.6183205
3510,16.9005833,5.0900469,5.9615316,1.4045801,7.5267177,-5.8625956
3520,15.7465839,4.1826491,5.8897061,10.2290077,-39.9541969,-40.1145020
3530,13.3236647,3.5481887,5.2073622,13.9465647,-72.5496216,-60.8549614
3540,11.7674408,2.9400647,4.8769641,11.9312973,-87.1603088,-70.3969498
3550,10.7331514,2.5522060,4.8721757,5.0839696,-79.6717529,-71.2366409
3560,9.8544836,2.2672975,5.2911587,-2.2748091,-61.6183205,-65.7328262
3570,9.2367830,1.7860653,5.7221127,-6.6412215,-40.8854980,-55.9465637
3580,8.8608952,1.5179161,6.0716643,-7.1755724,-19.7175579,-43.7480927
3590,8.8968077,1.6256547,6.3685441,-5.3053436,-3.7633588,-31.4809170
3600,11.2479019,2.2744799,6.1291251,-2.4198472,16.7480907,-18.4045811
3610,12.9669304,2.9687948,5.6550756,-4.8320613,26.9465656,-21.3053436
3620,14.4728756,3.2800395,5.4898763,-11.1374044,41.3053436,-28.5877857
3630,16.1081066,3.6918402,5.5401545,-20.4274807,55.6106873,-40.0000000
3640,17.7720680,4.0725164,5.8226686,-30.0534344,65.2061081,-58.2900772
3650,19.1391506,4.5393834,6.7468257,-37.9389305,59.9160309,-88.0534363
3660,19.5102501,4.6614871,8.0540533,-38.7633591,40.0458031,-124.8320618
3670,19.4456062,4.5657191,9.4833841,-32.2900772,12.9770994,-161.0992432
3680,19.4312420,4.3215117,10.4506369,-21.5648861,-14.8396950,-193.9618378
3690,19.6126022,4.5274124,11.4226780,-10.2061071,-34.5572510,-225.4427490
3700,19.6126022,4.3047528,11.6668854,1.2824427,-42.1679382,-250.1374054
3710,19.6126022,3.7540891,11.5639353,10.8854961,-45.8015251,-250.1374054
3720,18.4855366,2.9855542,11.1976242,18.7251911,-45.2137413,-250.1374054
3730,17.3937855,2.2074428,10.8672256,26.8396950,-43.6259537,-250.1374054
3740,15.7106714,1.5250987,10.3333216,34.5343513,-40.2137413,-250.1374054
3750,13.7546186,0.7852941,9.8377247,41.5877876,-39.3435097,-250.1374054
3760,11.7027979,0.1173153,9.2631187,45.9618340,-43.6259537,-250.1374054
3770,10.5057030,-0.2394189,8.9877872,50.0992355,-47.4274826,-250.1374054
3780,9.3493099,-0.6272776,8.5616217,54.0228996,-47.0610695,-250.1374054
3790,8.4299412,-0.7589580,8.4299412,57.9389305,-50.5419846,-250.1374054
3800,8.4059992,-0.7254394,8.2144642,61.7022896,-49.4045792,-250.1374054
3810,7.8385763,-0.9840119,7.5608501,64.1297684,-38.5343513,-250.1374054
3820,6.3062949,-1.2330076,6.9742737,63.2290077,-28.2671757,-250.1374054
3830,4.2377152,-1.6807210,6.6510582,61.9465637,-24.1068707,-250.1374054
3840,2.1068866,-1.9033806,6.9168134,64.0381699,-26.5648861,-250.1374054
3850,0.2992737,-1.9847831,7.4435349,71.6412201,-39.4122124,-250.1374054
3860,-1.0414724,-1.9799947,7.6805596,82.7786255,-58.6564903,-250.1374054
3870,-1.9704180,-2.0159075,7.3286138,94.6183243,-74.8396912,-250.1374054
3880,-2.6838863,-1.9967541,6.6941538,101.5801544,-85.7175598,-250.1374054
3890,-3.2153964,-1.9799947,6.0477223,103.4580154,-88.7175598,-250.1374054
3900,-3.4643922,-2.1739240,5.4515696,100.5190811,-83.0916061,-250.1374054
3910,-3.9911139,-2.6407909,4.8961172,98.5343475,-68.7709961,-250.1374054
3920,-5.1522956,-2.9711890,4.5513539,90.2061081,-49.8625946,-250.1374054
3930,-6.8952656,-3.4763632,4.2999644,81.1145020,-27.1068707,-250.1374054
3940,-8.8561068,-3.9456241,4.2401094,72.6870193,-9.6335878,-250.1374054
3950,-11.3197279,-4.2640514,4.1850433,66.5954208,3.3282442,-250.1374054
3960,-13.4433737,-4.4196739,4.0366035,62.1908379,10.6564884,-223.5267181
3970,-15.0474806,-4.3047528,3.8666160,59.0305328,13.4809160,-180.8167877
3980,-15.8208036,-4.3622131,3.6080434,57.7709923,15.4274807,-134.1603088
3990,-16.1152897,-4.4555864,3.2249732,55.7786255,18.3435116,-85.1450348
4000,-15.7058830,-4.6064205,2.7437410,51.4656487,21.6488552,-37.1603050
4010,-15.2294388,-4.9440012,2.3223639,45.8320618,26.8778629,10.6870232
4020,-14.9134064,-5.6239510,2.0709739,39.3893127,35.6870232,59.1984749
4030,-14.6261034,-6.3853035,1.7740943,31.4809170,44.2213745,109.4427490
4040,-14.0586805,-7.0796180,1.5514348,24.6717548,49.7557259,159.4656525
4050,-14.2310619,-8.1953106,1.3335636,19.4351139,50.6946564,211.6564941
4060,-14.8176384,-9.6629486,1.3191984,15.8854961,44.8625946,250.1297760
4070,-15.2102852,-11.3029680,1.3527170,16.0992374,38.6793900,250.1297760
4080,-14.9493189,-12.2989511,1.1947005,17.3664131,34.4122124,250.1297760
4090,-15.4401274,-14.5710373,0.5003856,16.0610695,37.7328262,250.1297760
4100,-16.1679611,-17.0562057,-0.4908088,3.7786260,53.8320618,250.1297760
4110,-16.1057129,-19.6131992,-1.6041069,-24.1908398,84.0381699,250.1297760
4120,-14.1544485,-19.6131992,-1.3551112,-66.3664093,127.0687027,250.1297760
4130,-9.9287033,-19.6131992,0.6895266,-109.9312973,159.7862549,250.1297760
4140,-1.6759326,-19.6131992,3.8761928,-143.7786255,169.0458069,250.1297760
4150,16.9819851,-19.6131992,9.1338329,-156.3206177,226.0686951,250.1297760
4160,19.6126022,-19.6131992,14.3603487,-174.4580078,250.1297760,250.1297760
4170,19.6126022,-19.6131992,19.6126022,-211.4122162,250.1297760,250.1297760
4180,19.6126022,-13.3404236,19.6126022,-227.1603088,250.1297760,250.1297760
4190,19.6126022,-1.5610116,19.6126022,-177.2900696,250.1297760,250.1297760
4200,19.6126022,3.3710186,19.6126022,-72.1221390,250.1297760,232.4427490
4210,19.6126022,4.9440012,16.9628315,8.2137403,-10.4045801,48.8244286
4220,19.6126022,5.6071916,10.7283630,28.0687027,-250.1374054,-62.5572510
4230,19.6126022,5.7388721,10.8025827,15.6106873,-250.1374054,-106.2442780
4240,19.6126022,4.9416070,12.2774038,-0.5954198,-250.1374054,-108.7022934
4250,19.6126022,4.1180058,12.0379848,-17.2213745,-164.0763397,-83.3816757
4260,14.9756546,4.0366035,10.3692341,-39.2595406,-18.4045811,-45.4045792
4270,11.6285782,3.8139439,8.6597834,-62.5114517,84.1603088,-6.8854961
4280,10.1010857,3.6894460,8.2072811,-79.5496216,130.3129730,23.2061062
4290,10.2686787,3.2058196,9.0739784,-79.0305328,133.6488495,38.9389305
4300,11.1305866,3.4787574,9.4187412,-69.1221390,111.1755753,38.5496178
4310,11.6046362,3.8043671,9.8760319,-56.7175560,74.8091583,26.3282452
4320,10.9390516,3.5290353,10.0723553,-43.0839691,48.8396950,11.5190840
4330,7.3334022,1.8818330,8.3485384,-1.3587786,-16.5190830,24.8854961
4340,12.1337519,2.2409613,8.0372944,0.6488550,3.9007633,33.1221390
4350,13.5199881,2.7293761,7.9367380,-4.9312978,31.0381680,23.3664131
4360,14.2861280,2.8155668,7.6350703,-12.6717558,54.6870232,8.8625956
4370,14.2933111,2.8059900,7.6781654,-18.7709923,68.1374054,-6.2137403
4380,14.3603487,2.7724714,8.1186962,-19.9312973,67.0381699,-22.4961834
4390,14.5016060,2.7461352,8.4107876,-16.1755733,53.1221390,-40.7251892
4400,15.1121235,2.7509236,8.1833391,-12.3053436,32.9312973,-62.8778610
4410,15.9189653,2.7988074,8.0109577,-11.2671757,14.4732828,-88.1297684
4420,16.4097748,2.9256995,8.3174143,-13.5877867,0.2366412,-116.9770966
4430,16.5821552,2.7317703,9.0213060,-15.7938929,-7.3664122,-146.5190887
4440,15.9883976,2.3654592,9.9119444,-15.5572519,-15.4961834,-175.6641235
4450,15.3826675,2.0374553,10.9103212,-11.0152674,-27.0763359,-201.7251892
4460,15.4042149,1.6735384,11.6549139,-2.6183207,-34.9083977,-225.3282471
4470,15.7896795,1.3910241,11.8153248,7.0687022,-35.8702278,-248.9465637
4480,15.6364517,1.2569494,11.7147694,13.6946564,-33.8549614,-250.1374054
4490,14.6715927,0.8044477,11.6573086,18.4503822,-32.6335869,-250.1374054
4500,13.7570124,0.2681492,11.6668854,23.4885502,-35.5725174,-250.1374054
4510,13.1297350,-0.0670373,11.8991213,30.3893127,-40.9847336,-250.1374054
4520,11.7698355,-0.4333483,12.0523500,39.1221390,-45.9847336,-250.1374054
4530,10.4506369,-0.9720409,12.2079716,49.5190849,-48.9847336,-250.1374054
4540,9.7036495,-1.2330076,12.0427732,60.0534363,-46.2366409,-250.1374054
4550,9.2200232,-1.4436963,11.4250717,70.0381699,-36.2748108,-250.1374054
4560,7.7787213,-1.3862357,10.8456783,77.2977066,-24.4427490,-250.1374054
4570,6.0620875,-1.5370697,10.1896706,83.1755753,-16.9389305,-250.1374054
4580,4.6088147,-1.4915800,9.7730818,88.4732819,-11.0076332,-250.1374054
4590,3.5266411,-1.3431402,9.0787668,94.1755753,-3.4809160,-250.1374054
4600,3.2896163,-0.9600700,8.3892403,97.4656525,0.7022901,-250.1374054
4610,2.4923513,-0.7086801,7.8529415,101.3740463,2.7022901,-250.1374054
4620,1.5705882,-0.4572902,7.6494355,101.6564865,3.5877862,-250.1374054
4630,0.4094064,-0.3399749,7.2759418,107.5343475,1.7404580,-250.1374054
4640,-0.5626345,-0.3471575,6.8282285,113.4503784,0.8015267,-250.1374054
4650,-1.6591733,-0.2609667,6.3829093,118.9770966,-1.2519084,-250.1374054
4660,-2.7461352,-0.3423691,5.6742291,123.0457993,-2.7404580,-250.1374054
4670,-3.5314295,-0.3519458,5.1379304,125.4961853,-2.7022901,-250.1374054
4680,-4.2018023,-0.3663110,4.4555864,125.8549652,-3.3129771,-250.1374054
4690,-4.7572546,-0.3088504,3.9288650,124.4274826,-2.4961832,-250.1374054
4700,-5.3510137,-0.4141948,3.3805954,121.7099228,-0.4198473,-250.1374054
4710,-5.8011212,-0.4860204,2.9352763,117.9847336,0.5801527,-248.1221313
4720,-6.1650376,-0.5793939,2.7652888,113.5190811,2.2061069,-237.8244324
4730,-6.6031747,-0.8355721,2.3439114,108.8625946,7.6488547,-228.3740387
4740,-7.6111283,-1.0749911,2.0135133,101.6335907,15.5877867,-218.6488495
4750,-9.0236998,-1.4341195,1.6328372,95.2977066,20.7786255,-204.2213745
4760,-10.5104914,-1.7238164,1.3934183,87.8473282,21.1450386,-185.4809113
4770,-11.8871508,-2.1116750,1.3958124,80.8625946,18.3511448,-161.3664093
4780,-13.1057930,-2.5019281,1.4700323,76.0000000,11.7404585,-132.6641235
4790,-14.1161413,-2.8993635,1.4149660,72.4122162,5.1221375,-98.2595444
4800,-15.3874559,-3.3303175,1.2856797,68.3053436,0.3740458,-57.8320618
4810,-17.0633888,-4.0006905,0.6847382,61.5877876,-0.7022901,-8.8854961
4820,-19.2732258,-5.0900469,-0.1747758,51.6183205,2.5496182,52.2442741
4830,-19.6131992,-5.6000090,-1.4748207,32.5343513,19.9083977,129.7938995
4840,-19.6131992,-7.0006099,-3.2752512,0.9770992,59.2977104,220.5038147
4850,-19.6131992,-8.7076674,-4.0916696,-38.6946564,99.1221390,250.1297760
4860,-19.6131992,-11.7865944,-4.5729017,-77.2748108,119.4580154,250.1297760
4870,-19.6131992,-15.8351688,-4.9176650,-115.4809189,111.0839691,250.1297760
4880,-19.6131992,-19.6131992,-4.5729017,-150.7862549,79.3816757,250.1297760
4890,-19.6131992,-19.6131992,-3.4284792,-178.2519073,42.0992355,250.1297760
4900,-16.1416245,-19.6131992,-0.4740495,-194.5648804,8.8015270,250.1297760
4910,-7.3022780,-19.6131992,3.4811516,-185.8091583,-16.8091602,250.1297760
4920,10.0555954,-19.6131992,6.6534524,-158.7862549,36.6641235,250.1297760
4930,19.6126022,-19.6131992,9.0907373,-149.3664093,213.3664093,250.1297760
4940,19.6126022,-19.6131992,11.0156660,-189.0686951,250.1297760,250.1297760
4950,19.6126022,-18.9643745,14.1999378,-250.1374054,250.1297760,250.1297760
4960,19.6126022,-10.9558105,19.6126022,-250.1374054,250.1297760,250.1297760
4970,19.6126022,-7.7571740,19.6126022,-243.8244324,250.1297760,250.1297760
4980,19.6126022,-2.9496415,19.6126022,-100.8549652,-64.8320618,150.7404633
4990,19.6126022,-0.2130829,19.6126022,7.4885497,-250.1374054,-16.8854961
5000,19.6126022,0.6560079,16.1320477,41.0839691,-250.1374054,-101.2900772
5010,19.6126022,1.2737088,15.1312771,34.8167953,-250.1374054,-98.6717529
5020,15.8638992,1.5131277,14.3124647,18.4809170,-250.1374054,-41.0458031
5030,12.4641504,2.1332228,12.9812956,4.6183205,-76.0916061,41.6946564
5040,12.6652622,3.2608860,11.5256281,-6.3206105,81.2290039,115.3435135
5050,15.5742025,4.8554163,10.0651722,-15.9923668,166.0305328,153.2366486
5060,19.1583042,5.5257893,8.6142941,-26.3435116,209.5114441,158.7022858
5070,19.6126022,6.1099715,7.9487090,-35.4503822,222.4198456,132.4809113
5080,19.6126022,6.6510582,8.6765423,-36.7786255,193.9847260,84.3969498
5090,19.6126022,6.4714942,9.3708572,-26.5572510,129.2977142,30.0381680
5100,19.1463337,6.0237808,9.5959110,-12.7709923,52.8549614,-18.6488552
5110,17.2764702,5.4228392,9.5049324,-2.0992367,-11.4045801,-55.4351158
5120,16.0482521,4.7404952,9.9215212,4.5114503,-48.9923668,-78.3206100
5130,15.2821112,4.7189474,10.4793673,10.7938929,-63.1068687,-91.0687027
5140,14.8343983,4.4484038,11.0204544,18.8320618,-59.0839691,-97.6335907
5150,14.4178085,4.3526363,10.9558105,26.8549614,-45.1832047,-101.1221390
5160,14.3507719,4.4484038,10.4602137,31.8015270,-26.1526718,-104.3053436
5170,14.2358503,4.4460096,9.9047613,33.6106873,-6.3587785,-109.2748108
5180,14.0443153,4.5393834,9.5576038,33.4274826,10.3053436,-114.9160309
5190,13.9820662,4.4436154,9.3157911,33.6183205,23.8091602,-122.0916061
5200,14.2861280,4.2999644,8.9518747,34.6488533,29.8167934,-133.4351196
5210,14.5255470,4.1180058,8.7842808,36.3053436,22.6412220,-151.2595367
5220,15.2557755,3.8474624,8.9758167,40.4885483,1.5114504,-176.6870270
5230,15.5215302,3.5362179,9.2032642,46.0458031,-28.4427490,-207.4656525
5240,15.5215302,3.2225790,9.3900108,52.3969460,-59.9694672,-240.0686951
5250,15.5167418,2.7557120,9.7443514,59.1526718,-85.0457993,-250.1374054
5260,14.7673607,2.2337787,9.9358864,66.2519073,-96.9847336,-250.1374054
5270,13.6420918,1.7142396,9.7132263,72.2366409,-94.0839691,-250.1374054
5280,12.3348637,1.0175306,9.1793222,76.9694672,-84.1297684,-250.1374054
5290,11.0420017,0.6631905,8.6095057,80.6717529,-74.1984711,-250.1374054
5300,9.8520899,0.5315101,8.1115141,82.9618301,-67.5343475,-250.1374054
5310,8.5568333,0.3471575,7.5632443,85.0229034,-61.9236641,-250.1374054
5320,7.1586266,0.2274480,7.0604649,86.9007645,-58.5725174,-250.1374054
5330,5.6024032,0.2633608,6.6989422,88.5572510,-54.5343513,-250.1374054
5340,4.0868812,0.3471575,6.2081332,90.1450348,-49.5419846,-250.1374054
5350,2.7102225,0.5841822,5.7939386,91.6488571,-46.2213745,-250.1374054
5360,1.8578910,0.8547257,5.3558016,93.3740463,-41.8778610,-250.1374054
5370,0.9672526,1.0486550,4.6447277,94.1221390,-39.8473282,-250.1374054
5380,0.2466015,1.3455344,3.8642218,92.5801544,-41.4274826,-250.1374054
5390,-0.1244979,1.6256547,3.2369442,89.1221390,-45.4961815,-250.1374054
5400,-0.5746055,1.9704180,2.8083842,83.8396912,-49.3282433,-250.1374054
5410,-1.0271072,2.3558824,2.2864509,77.4198456,-53.0916023,-250.1374054
5420,-1.3958124,2.5881188,1.9799947,70.4885483,-59.0152664,-250.1374054
5430,-1.7764885,2.7628946,1.9201399,64.1068726,-64.8931274,-250.1374054
5440,-2.0949159,2.9233053,2.0685797,58.6717567,-68.9465637,-250.1374054
5450,-2.5330524,2.8873925,2.0733681,53.6488533,-70.8320618,-250.1374054
5460,-3.2034254,2.8035958,2.1092808,48.1832047,-71.6946564,-249.5267181
5470,-3.7947903,2.6383967,2.2361729,42.6335869,-71.8549652,-240.0915985
5480,-4.4938936,2.5282640,2.4516499,36.7251892,-67.7862625,-229.1755676
5490,-5.0972295,2.3894010,2.6240315,32.0992355,-62.8167953,-216.9694672
5500,-5.6311336,2.3032103,2.6096666,27.2671757,-56.6259537,-204.5343475
5510,-6.1985564,2.3486998,2.7078283,21.2290077,-50.2290077,-191.4503784
5520,-6.9168134,2.2313845,3.0741394,16.0458012,-41.6488533,-176.3435059
5530,-7.3310080,2.1499822,3.3279233,12.2671757,-30.8091602,-159.6564941
5540,-7.6015515,1.9943599,3.4380560,9.0916033,-19.6717548,-142.1603088
5550,-7.9247670,1.8483143,3.5434003,7.2900763,-9.7022905,-125.0229034
5560,-7.9702568,1.5729824,3.5984666,5.9770994,-2.4122138,-109.1374054
5570,-7.9415264,-0.1891410,3.7397239,4.3358779,13.6183205,-52.1145020
5580,-8.0133524,-0.4884146,3.7349355,5.8244276,21.2290077,-39.1221390
5590,-8.2096758,-0.9959828,3.4141142,7.0763359,30.4427490,-25.4809170
5600,-8.6454182,-1.6711442,3.0621684,6.9923663,38.5343513,-9.8015270
5610,-10.3859940,-3.0023136,2.8059900,4.6564884,47.9465637,32.9160309
5620,-12.0762920,-3.8761928,2.9328821,5.5419846,48.7938919,65.0916061
5630,-14.1352949,-4.5729017,3.0645626,7.6946564,49.5343513,109.7862625
5640,-15.9788208,-5.4324160,2.8107784,10.9312973,52.1145020,166.6030579
5650,-17.5063133,-6.1961622,1.8602852,8.9083967,62.8473282,236.0610657
5660,-19.1894283,-7.4866304,0.1771700,-2.6946564,79.3358765,250.1297760
5670,-19.6131992,-8.9542685,-1.9321109,-30.3587780,102.9847336,250.1297760
5680,-19.6131992,-11.8751793,-4.6231799,-73.2366409,125.4427490,250.1297760
5690,-19.6131992,-16.0123386,-7.3741035,-135.3129730,128.1145020,250.1297760
5700,-16.0650120,-19.6131992,-8.8776541,-214.3358765,117.3129807,250.1297760
5710,-9.1577749,-19.6131992,-8.4155760,-250.1374054,99.8549652,250.1297760
5720,-1.5681942,-19.6131992,-4.9272418,-250.1374054,78.4045792,250.1297760
5730,5.1570840,-19.6131992,1.7381816,-250.1374054,36.0305328,250.1297760
5740,17.8031921,-19.6131992,10.2950144,-250.1374054,10.3587790,250.1297760
5750,19.6126022,-19.6131992,19.6126022,-250.1374054,175.0458069,250.1297760
5760,19.6126022,-19.6131992,19.6126022,-250.1374054,250.1297760,250.1297760
5770,19.6126022,-7.8625183,19.6126022,-250.1374054,250.1297760,250.1297760
5780,19.6126022,-4.0796990,19.6126022,-250.1374054,250.1297760,250.1297760
5790,19.6126022,-2.5809362,19.6126022,-198.1374054,250.1297760,175.9313049
5800,19.6126022,-0.5889706,19.6126022,-8.8396950,-103.8244247,19.9618320
5810,19.6126022,1.4867916,19.6126022,102.8167953,-250.1374054,-85.8091583
5820,19.6126022,2.9089401,19.6126022,120.3129807,-250.1374054,-118.1374054
5830,18.3538570,3.9743545,16.2900658,84.9236679,-250.1374054,-97.5114517
5840,13.1800127,4.8027439,13.7665892,42.0305328,-89.1832047,-46.5038185
5850,10.2543135,6.7971039,10.2088242,-18.7175579,86.5801544,49.4885483
5860,11.7530756,6.8354111,10.2160063,-32.8244286,95.5877838,65.6793900
5870,12.9669304,6.9790621,11.1234045,-31.8320618,77.7251892,62.5877876
5880,13.4912577,6.6558466,11.9924946,-21.6106873,47.1603050,46.0458031
5890,13.2398672,6.1075773,12.9501705,-2.7480917,9.4274807,24.7175579
5900,13.0650921,5.4228392,13.1656475,23.3206100,-24.9312973,3.5190840
5910,12.6892042,4.7452836,12.3133163,48.3816795,-43.8778610,-14.6946564
5920,12.0140429,4.3885493,10.8768024,66.1297684,-54.6564903,-29.8167934
5930,11.7363167,3.9839313,9.5192976,75.1450348,-56.8473282,-40.0992355
5940,11.3891592,3.7133877,8.2336178,74.3816757,-53.7175560,-47.2595406
5950,11.4226780,3.5984666,7.5129666,65.9083939,-41.7099228,-51.7022896
5960,11.1162214,3.4739690,7.1083484,53.2671738,-24.1832066,-54.0992355
5970,10.8935623,3.3111639,7.0317345,38.5725174,-4.7862597,-54.8549614
5980,10.6996326,3.3805954,7.5440907,26.1145039,13.5801525,-57.0610695
5990,10.8815908,3.2800395,7.9606800,19.8549614,25.1526718,-62.2137413
6000,11.3316984,3.1459649,8.2503767,17.9312973,28.3893127,-71.3816757
6010,12.2558556,3.1435707,8.4658537,17.6412220,25.2519093,-84.1068726
6020,13.4146433,3.1818779,8.7100611,17.7938938,20.7480907,-101.9770966
6030,14.0754395,3.4500270,9.2894554,19.2900772,13.7862597,-126.4427490
6040,14.0371332,3.2513094,9.9789820,24.2290077,1.7786260,-154.9770966
6050,14.0395269,2.8634505,10.4171181,33.1068687,-14.5954199,-183.7862549
6060,13.5989962,2.5210814,10.5775290,42.7862587,-32.1068687,-209.7633514
6070,13.1081877,2.3726418,10.7379398,51.7404594,-47.5267181,-233.2061005
6080,12.8544035,2.3534882,10.8241301,59.7175560,-56.1068687,-250.1374054
6090,12.7658186,2.4109488,10.8600435,66.9770966,-57.9618340,-250.1374054
6100,12.5048513,2.3199697,10.5895004,73.0992355,-53.6641235,-250.1374054
6110,11.6453371,2.0278785,10.0723553,76.8473282,-48.3893127,-250.1374054
6120,10.5942879,1.8554969,9.7515335,80.4122162,-48.2900772,-250.1374054
6130,9.3014259,1.5586174,9.4929609,84.6106873,-53.2824440,-250.1374054
6140,8.1402445,1.4843974,9.4211359,88.6335907,-60.6259537,-250.1374054
6150,7.4435349,1.3527170,8.9829988,92.8015289,-63.4809151,-250.1374054
6160,6.6247220,1.3431402,8.4490948,94.2366409,-63.8015251,-250.1374054
6170,5.6862001,1.1659702,8.1139078,95.0916061,-65.4427490,-250.1374054
6180,4.6016321,1.0390782,8.0708122,95.6717529,-68.9694672,-250.1374054
6190,3.5841017,0.7996593,7.9965930,98.1145020,-69.6335907,-250.1374054
6200,2.3870070,0.5602403,7.5871863,101.4122162,-69.3053436,-250.1374054
6210,1.6424140,0.3423691,7.2783360,104.6412201,-69.2900772,-250.1374054
6220,0.7589580,0.0957676,6.8401995,106.4732819,-70.5267181,-250.1374054
6230,0.0071826,-0.0407012,6.3015065,106.9770966,-73.0152664,-250.1374054
6240,-0.9073978,-0.2154770,6.0525107,106.3358765,-75.0992355,-250.1374054
6250,-1.8363433,-0.5147507,5.7843618,104.0229034,-73.2977066,-250.1374054
6260,-2.7940190,-0.8738791,5.4348102,101.2977066,-68.5648880,-250.1374054
6270,-3.4835455,-1.2090657,4.9823084,100.5877838,-61.2442741,-250.1374054
6280,-4.0725164,-1.5705882,4.6399393,95.5648880,-50.3587799,-250.1374054
6290,-4.9487896,-2.1260402,4.6543045,91.0000000,-36.5190849,-250.1374054
6300,-6.3493905,-2.6695213,4.6734576,87.2366409,-22.3664131,-250.1374054
6310,-7.9941988,-3.3782012,4.6686692,84.0610657,-8.4656487,-250.1374054
6320,-10.0005293,-3.7636659,4.5082588,82.2442780,3.7328243,-250.1374054
6330,-11.7530756,-3.9121056,4.3430595,80.8625946,10.2671757,-235.9389343
6340,-13.1991663,-4.0174499,4.2712340,80.0839691,11.6717558,-203.4274750
6350,-14.5734310,-4.1634955,4.1706781,80.6030502,10.5038166,-165.7251892
6360,-15.5933561,-4.1371593,3.7516949,80.1832047,7.5801525,-123.1145020
6370,-16.1081066,-4.0174499,3.4308734,78.6106873,4.8244276,-75.3358765
6380,-15.9405136,-3.9743545,2.9352763,75.1297684,6.5801525,-26.8931293
6390,-15.3850613,-4.0078731,2.4133430,68.0687027,13.5648851,21.2824421
6400,-14.7865143,-4.2353210,1.9776005,58.2595406,25.1374054,69.5496216
6410,-14.0491037,-4.5729017,1.9249283,47.3893127,42.4809151,116.7633591
6420,-13.4697094,-5.0900469,2.0063307,37.1374054,65.7786255,166.3587799
6430,-13.0507269,-5.7197185,2.0254843,27.5877857,90.1603088,217.3129730
6440,-12.8448267,-6.2967181,1.8483143,17.7404575,113.3282471,250.1297760
6450,-12.8113079,-7.5632443,1.7429699,9.1832066,128.8931274,250.1297760
6460,-13.2063494,-9.1194677,1.6998745,1.1832061,139.3587799,250.1297760
6470,-14.1879663,-10.6517487,1.0749911,-7.8473282,150.3893127,250.1297760
6480,-14.9229832,-11.8081427,-0.0981618,-25.2442741,155.1832123,250.1297760
6490,-14.3747139,-14.5039997,-0.4764437,-52.1068687,156.5954132,250.1297760
6500,-13.0818510,-18.1527443,-1.2904681,-86.3740463,158.4274750,250.1297760
6510,-11.6884327,-19.6131992,-0.7254394,-123.3053436,162.1221313,250.1297760
6520,-5.6957769,-19.6131992,1.1994889,-154.1297760,145.5648804,250.1297760
6530,5.9926562,-19.6131992,3.4284792,-169.4351196,124.7786255,250.1297760
6540,18.3275204,-19.6131992,5.4515696,-170.1755676,113.4961853,250.1297760
6550,19.6126022,-19.6131992,9.6150646,-159.6335907,116.9694672,250.1297760
6560,19.6126022,-19.6131992,14.9301653,-139.6717529,185.3816833,250.1297760
6570,19.6126022,-15.8327751,19.6126022,-121.2366409,250.1297760,250.1297760
6580,19.6126022,-2.7964132,19.6126022,-82.7786255,250.1297760,250.1297760
6590,19.6126022,3.5721307,19.6126022,-9.8549614,250.1297760,250.1297760
6600,19.6126022,2.0925217,13.4074612,42.2061081,138.3740387,105.1603088
6610,19.6126022,0.4477134,5.3438311,46.3969460,-50.9236641,9.9694653
6620,19.6126022,0.9983770,3.6056492,20.7862587,-196.1908417,-12.8320608
6630,19.4671535,2.1763182,6.4260044,-3.7480917,-237.5038147,3.8778627
6640,19.6126022,3.7157819,9.6174593,-14.7328243,-163.3740387,28.5038166
6650,19.6126022,5.2504573,10.0101061,-19.3282452,-13.2671757,42.9618340
6660,19.6126022,5.8585815,8.2934723,-28.5419846,123.2290039,45.4656487
6670,19.6126022,6.1985564,6.5983863,-38.8778610,193.0229034,40.9236641
6680,19.4527893,6.0405402,5.5664907,-47.7251892,210.5954132,24.7328243
6690,18.8302994,5.8011212,5.2289100,-47.9694672,181.5648804,-1.5496184
6700,17.8582592,5.6431046,5.6718349,-39.0228996,106.4656525,-35.2061081
6710,16.8742466,5.4874821,6.1650376,-25.5496178,21.3969460,-70.1145020
6720,15.4425220,4.9032998,6.7204900,-11.5954199,-42.8778610,-99.0152664
6730,13.6827927,4.5489597,7.0149751,0.1450382,-80.7480927,-115.0839691
6740,12.3228931,4.2161674,6.7827387,7.1984735,-92.3206100,-120.1068726
6750,11.0132713,3.8259149,6.4092450,8.1297712,-83.4580154,-115.6946564
6760,10.1298151,3.5553713,6.2081332,5.4503818,-65.2061081,-104.6641235
6770,9.6102762,3.5290353,6.1770086,1.5190840,-44.2977104,-91.3816757
6780,9.4642305,3.5936785,6.2296810,-0.7328244,-26.2061062,-79.9083939
6790,9.5336628,3.4356618,6.4595232,-1.4809160,-14.9618320,-70.6183243
6800,12.3468351,3.9528067,6.6534524,5.4885497,15.0916033,-67.2824402
6810,13.5008345,4.1251884,6.3039007,4.1374044,23.4885502,-75.9847336
6820,14.3052816,4.1060348,5.9519548,-0.4503817,32.3282433,-88.5419846
6830,14.8008795,4.1419477,6.0309634,-7.0000000,37.0381660,-103.4732819
6840,15.5742025,4.1515245,6.1530671,-12.9541988,37.8702278,-121.3740463
6850,16.3355541,4.3957319,6.6582408,-16.0076332,34.0916023,-145.8091583
6860,16.8503056,4.1730723,7.2663651,-16.0229015,19.8854961,-175.5954132
6870,17.1232433,3.7756367,7.8266053,-13.4732828,4.2595420,-206.9923706
6880,17.1567612,3.5769191,8.5065556,-9.1603050,-12.5954199,-238.1832123
6890,17.4129391,3.3303175,8.9446917,-3.2748091,-25.0687027,-250.1374054
6900,16.6875000,2.7533178,8.9207497,3.0763359,-28.2671757,-250.1374054
6910,15.1839495,2.0853391,8.8752604,8.9923668,-31.9160309,-250.1374054
6920,14.7745428,1.5897418,8.8920193,15.6641226,-35.8625946,-250.1374054
6930,14.2358503,1.2665262,8.3509331,21.6946564,-28.7709923,-250.1374054
6940,12.5383701,0.5051740,7.5704269,23.3053436,-15.8778629,-250.1374054
6950,10.4913378,-0.3495516,7.3932571,24.4732819,-8.1832066,-250.1374054
6960,8.1091194,-1.0199248,7.7116842,29.0152664,-7.8549619,-250.1374054
6970,6.0309634,-1.4293311,7.8768835,37.7557259,-9.8549614,-250.1374054
6980,3.9192882,-1.5681942,7.5488791,48.3511467,-17.9770985,-250.1374054
6990,2.1571648,-1.4173602,7.3549500,57.2900772,-30.8015270,-250.1374054
7000,0.8619082,-1.1970947,7.1562324,65.0916061,-42.6183205,-250.1374054
7010,-0.2873027,-1.0534433,7.1083484,72.1221390,-48.5114517,-250.1374054
7020,-1.3670821,-0.8619082,6.7875271,78.2824402,-49.7938919,-250.1374054
7030,-2.3008161,-0.7134684,6.3134775,82.1297684,-49.3282433,-250.1374054
7040,-3.1004753,-0.5698171,5.9112539,84.4427490,-50.9007645,-250.1374054
7050,-3.9599893,-0.4261657,5.7340837,86.0152664,-50.2900772,-250.1374054
7060,-4.6566987,-0.4668669,5.4802995,87.0534363,-48.6717567,-250.1374054
7070,-5.3534074,-0.5362985,5.1618724,86.5877838,-44.8854980,-250.1374054
7080,-5.7149301,-0.6488253,4.7835903,84.5954208,-36.5114517,-250.1374054
7090,-6.0860295,-0.7876883,4.5944495,81.8320618,-22.7557259,-250.1374054
7100,-6.8018923,-0.9888002,4.2496862,78.5648880,-6.6641221,-250.1374054
7110,-7.8625183,-1.2713146,4.0629396,74.7709961,8.7328243,-247.3282471
7120,-9.2008705,-1.4628497,3.8067613,71.0381699,21.5954189,-229.1297760
7130,-10.6302013,-1.6041069,3.6990228,67.5114517,28.2977104,-206.2671814
7140,-11.9589767,-1.7190280,3.7780309,65.7938919,29.4198475,-179.2137451
7150,-13.1177645,-1.8147956,3.7660601,66.1755753,28.0000000,-147.4122162
7160,-14.0778341,-1.8147956,3.6750808,67.2366409,24.9465656,-111.3129807
7170,-14.7697544,-1.9632354,3.5434003,68.7404556,19.5038166,-72.8167953
7180,-15.2414103,-2.0637913,3.3494711,69.5114517,15.4961834,-30.2824421
7190,-15.5765963,-2.2816625,3.1315999,70.3511429,12.9236641,15.0152674
7200,-15.5215302,-2.5737536,2.6886747,70.7251892,8.2748089,63.6564903
7210,-14.9684725,-2.9209111,2.1835008,70.5954208,3.9083970,111.4122162
7220,-14.4369621,-3.4428444,1.2856797,68.4580154,3.6183207,159.6335907
7230,-13.7761660,-4.1204000,0.5027798,61.7175560,7.3129773,210.8473358
7240,-12.8998928,-4.8649931,0.0263361,50.9618340,17.6564884,250.1297760
7250,-12.1193867,-5.8226686,-0.6967092,36.7786255,36.6030540,250.1297760
7260,-11.8344784,-7.1298962,-1.4843974,16.6030540,59.4503822,250.1297760
7270,-12.0355902,-8.5807753,-1.7836711,-6.0687022,76.2748108,250.1297760
7280,-11.0252428,-10.3309278,-1.4173602,-27.4961834,79.8320618,250.1297760
7290,-8.9782104,-12.1864243,-0.7781116,-44.6106873,84.4656525,250.1297760
7300,-7.4291697,-14.1161413,0.5961532,-55.3893127,91.1450348,250.1297760
7310,-5.8370337,-15.7274303,1.9225341,-58.2900772,92.5725174,250.1297760
7320,-2.9999194,-17.8726234,2.6312141,-51.9618340,82.9236679,250.1297760
7330,1.3814473,-19.6131992,2.9137285,-40.5725174,77.8167953,250.1297760
7340,11.1856527,-19.6131992,3.2465210,-30.0534344,111.6717529,250.1297760
7350,19.6126022,-19.6131992,2.1667414,-38.7633591,212.0686951,250.1297760
7360,19.6126022,-15.3419657,1.0510491,-86.4885483,250.1297760,250.1297760
7370,19.6126022,-8.7770987,1.7980363,-161.3511505,250.1297760,250.1297760
7380,19.6126022,-3.7469065,7.0772243,-218.6946564,250.1297760,250.1297760
7390,19.6126022,0.5746055,15.5119534,-204.6335907,249.8625946,250.1297760
7400,19.6126022,2.1954718,19.6126022,-121.5114517,26.5725193,185.9160309
7410,19.6126022,2.4875629,19.6126022,-17.3664131,-185.2595367,67.5801544
7420,19.6126022,2.4229198,15.4329453,50.0763359,-250.1374054,11.7099237
7430,19.1870346,2.8419030,11.0755205,72.5267181,-250.1374054,5.9694657
7440,16.2110577,3.4428444,8.3102312,70.2748108,-250.1374054,29.0152664
7450,13.8360205,4.0389977,5.3653784,54.1908379,-146.1679382,67.6564865
7460,12.7706070,4.0940638,3.4739690,28.6030540,-47.2595406,109.6412201
7470,13.1560707,4.2808108,2.5953014,-1.6030535,25.2061062,142.1374054
7480,15.1695843,4.4100971,3.6128318,-20.3740463,68.1603088,159.4274750
7490,18.7895985,5.1379304,4.3837609,-26.6641216,97.5190811,156.7709961
7500,19.6126022,6.0956063,4.5824785,-28.0152664,110.0610657,130.6870270
7510,19.6126022,6.9646969,4.5968437,-87.7633591,181.6030579,142.5114441
7520,19.6126022,8.1881275,7.4219875,-56.5038185,181.4656525,25.1526718
7530,19.6126022,7.1155310,5.8873119,-31.4122143,158.3664093,-67.1984711
7540,13.8479919,4.9535780,4.6016321,-18.8625946,99.5954208,-95.9618301
7550,7.5009956,4.1108232,4.1204000,-10.6106873,26.1068707,-81.0687027
7560,6.1147599,3.0980811,4.0126615,-1.3129771,-42.3740463,-56.7633591
7570,7.8553357,3.5529771,4.3646073,5.0229006,-76.7633591,-36.4122124
7580,11.6166077,4.6207857,5.0469513,7.7404580,-76.6259537,-28.7480907
7590,14.0227680,4.8075323,5.2456689,7.2366414,-51.8244286,-38.0152664
7600,14.3842907,4.7572546,4.7740140,2.1145039,-16.0763359,-47.8702278
7610,14.2190914,4.5250182,4.4148855,-8.1297712,17.5877857,-54.3129768
7620,14.1783895,4.1275826,4.5010762,-19.7251911,39.6870232,-60.0305328
7630,14.4178085,3.9575951,5.0541339,-26.9160309,51.5801544,-66.2748108
7640,14.8846760,3.8761928,5.7795734,-28.5801525,47.3664131,-75.6488571
7650,15.6508169,3.8953462,6.6031747,-25.5496178,33.6946564,-91.5725174
7660,16.5773678,4.0413918,7.1801744,-18.8473282,20.2061062,-110.8931274
7670,17.6403885,4.0413918,7.0532823,-12.3511448,10.3282442,-134.0458069
7680,18.6148224,4.1443419,6.4882536,-10.4503813,2.6335878,-161.2519073
7690,19.3330803,4.1634955,6.1123657,-13.6793890,-2.5419848,-193.5572510
7700,19.6126022,3.8426740,6.1434903,-18.5343513,-4.9770994,-228.3969421
7710,19.6126022,3.3255291,6.3302369,-23.1374054,-3.4732823,-250.1374054
7720,19.6126022,2.6767037,6.5409255,-27.1832066,2.4732823,-250.1374054
7730,19.3067436,1.7836711,6.7899213,-30.2824421,9.9083967,-250.1374054
7740,17.6954536,1.0773853,7.1658092,-29.2671757,18.2290077,-250.1374054
7750,16.2756996,0.1029501,7.5081782,-24.2748089,22.8244267,-250.1374054
7760,15.0905762,-0.4285599,7.6781654,-16.1297703,22.1984730,-250.1374054
7770,13.2446556,-1.0342898,7.4890246,-7.1526718,19.7633591,-250.1374054
7780,11.1401634,-1.4436963,7.7978749,2.1984732,9.6793890,-250.1374054
7790,9.0213060,-1.7932479,8.1210909,14.5496187,-3.2748091,-250.1374054
7800,6.9479380,-2.1523764,8.2192526,28.4885502,-14.2366409,-250.1374054
7810,5.3605900,-2.2672975,8.2647419,42.2137413,-24.4503822,-250.1374054
7820,4.4531922,-1.9799947,7.9343438,55.0839691,-28.8320618,-250.1374054
7830,2.8155668,-2.0949159,6.9862447,63.5496178,-30.3664131,-250.1374054
7840,0.7613522,-1.9081690,6.6127515,67.7786255,-39.3282433,-250.1374054
7850,-0.7613522,-1.5227045,6.5409255,72.1755753,-50.6717567,-250.1374054
7860,-1.5969244,-1.1348459,6.4691000,77.4885483,-57.7709923,-250.1374054
7870,-2.2361729,-0.7900825,6.1075773,81.8473282,-60.0076332,-250.1374054
7880,-2.7317703,-0.4884146,5.4587522,82.9083939,-55.7480927,-250.1374054
7890,-3.4165084,-0.4884146,4.8913293,80.7862625,-50.2977104,-250.1374054
7900,-3.9432299,-0.6272776,4.6399393,77.0381699,-43.9618340,-250.1374054
7910,-4.6830344,-0.9217629,4.2377152,72.6183243,-31.9083977,-250.1374054
7920,-5.5162125,-1.1252691,4.1371593,67.0839691,-19.2137413,-250.1374054
7930,-6.4499464,-1.2689204,4.1060348,60.8396950,-5.7557254,-250.1374054
7940,-7.3812861,-1.5921360,4.0796990,55.0763359,8.0992365,-250.1374054
7950,-8.1234846,-2.0063307,4.2616572,51.8091621,20.2748089,-250.1374054
7960,-8.8513184,-2.2912393,4.3550305,51.1603050,28.1679382,-239.4503784
7970,-9.8640604,-2.6240315,4.2616572,52.9312973,30.8396950,-220.8931274
7980,-10.5655584,-2.9448531,3.9336534,54.2442741,30.7557259,-199.1832123
7990,-11.2191715,-3.0549858,3.4883339,53.5267181,32.1832047,-176.3282471
8000,-11.9206696,-3.2010312,3.1770895,51.0687027,33.0228996,-150.8091583
8010,-12.7179346,-3.2680686,2.9855542,46.6564903,37.0228996,-122.0992355
8020,-13.6253319,-3.3494711,2.8442972,41.3816795,45.9312973,-87.9847336
8030,-14.5710373,-3.4691806,2.8586621,36.2137413,53.9312973,-48.3282433
8040,-15.3299952,-3.6200144,2.9855542,33.2061081,59.5496178,-7.0229006
8050,-16.4097748,-3.9480183,3.2513094,33.2290077,59.7557259,38.2671738
8060,-17.6906662,-4.3837609,3.3853838,35.9694672,57.7328262,91.1984711
8070,-18.4711723,-5.0254035,2.8251436,38.6870232,56.8244286,153.4885559
8080,-18.7824154,-5.8681583,1.6831152,36.1984749,62.5954208,222.4045868
8090,-19.6131992,-7.1466556,0.2513899,26.2900772,73.7251892,250.1297760
8100,-19.6131992,-8.5927458,-0.5698171,8.5190840,85.3358765,250.1297760
8110,-19.5317974,-10.4027529,-1.3168042,-16.1984730,97.9923630,250.1297760
8120,-17.8079815,-13.6181498,-1.6304430,-46.0839691,105.7938919,250.1297760
8130,-14.5758257,-17.4368820,-1.2569494,-75.6717529,109.3129807,250.1297760
8140,-11.1449518,-19.6131992,-0.7805058,-100.0457993,107.8625946,250.1297760
8150,-7.4531116,-19.6131992,-0.0454896,-122.8625946,96.8167953,250.1297760
8160,-2.8682389,-19.6131992,2.0446377,-137.2824402,84.6793900,250.1297760
8170,8.2024927,-19.6131992,4.2377152,-140.2442780,95.1297684,250.1297760
8180,19.6126022,-19.6131992,4.5489597,-145.9770966,197.6259613,250.1297760
8190,19.6126022,-19.6131992,1.8746504,-194.0076294,250.1297760,250.1297760
8200,19.6126022,-19.0864792,1.3383518,-250.1374054,250.1297760,250.1297760
8210,19.6126022,-15.0786057,10.0244713,-250.1374054,250.1297760,250.1297760
8220,19.6126022,-12.1529055,19.6126022,-250.1374054,250.1297760,250.1297760
8230,19.6126022,-8.5640154,19.6126022,-250.1374054,250.1297760,250.1297760
8240,19.6126022,-4.6351509,19.6126022,-151.0915985,88.2671738,250.1297760
8250,19.6126022,-1.9033806,19.6126022,31.0305347,-170.4580078,179.1603088
8260,19.6126022,-0.3280039,19.6126022,147.6488495,-250.1374054,81.5267181
8270,19.6126022,0.7278336,12.1912127,186.3740387,-250.1374054,28.6259537
8280,18.5429974,1.9656296,7.1370788,171.6870270,-250.1374054,23.0229015
8290,19.6126022,3.6774750,3.8833754,124.6793900,-250.1374054,43.8473282
8300,19.6126022,5.5784616,1.1468167,50.8091621,-88.6641235,66.7404556
8310,19.6126022,6.2201042,0.3902529,-32.8320618,118.5954208,82.6106873
8320,18.3993454,6.0094156,2.5737536,-95.1679382,234.6564941,91.1450348
8330,16.5701847,4.7835903,5.9543490,-118.4427490,250.1297760,95.6183243
8340,16.6013088,4.9032998,8.7603388,-113.5190811,250.1297760,90.1526718
8350,18.1096497,5.3893204,10.6302013,-91.9770966,206.7862549,71.0916061
8360,19.4025116,5.4419928,11.3747940,-63.5267181,154.8244324,36.9694672
8370,19.6126022,5.4922705,10.8025827,-37.1526718,113.0763321,-1.2900764
8380,18.9619808,5.0086441,9.5121145,-18.8549614,84.7022934,-36.3053436
8390,17.8031921,4.5609307,8.2264347,-9.5419846,55.7938919,-67.0076370
8400,17.0250816,4.1970143,7.5129666,-7.1450381,28.3969460,-92.1832047
8410,16.5701847,4.0749106,7.2089043,-11.9465647,7.4274807,-113.0000000
8420,16.1607780,4.0342093,7.5033898,-19.1526718,-5.2977099,-132.2519073
8430,15.7370071,3.5194585,8.4371233,-24.1603050,-13.5648851,-150.9770966
8440,15.6508169,3.2393384,9.5552101,-24.0152664,-21.7786255,-167.8473358
8450,16.2804890,2.9568241,10.4530315,-17.9694653,-27.3664131,-186.1068726
8460,17.1376076,2.5402350,11.0467901,-9.2595415,-32.7328262,-208.7404633
8470,17.4488525,2.2864509,11.4681673,0.2519084,-44.1145020,-236.9084015
8480,17.8055878,2.1356170,11.8727856,11.0992365,-58.5038185,-250.1374054
8490,18.2125988,1.7525467,11.9781294,23.8625946,-68.0687027,-250.1374054
8500,17.9803619,1.2330076,11.7842007,35.0458031,-75.2290039,-250.1374054
8510,16.2828827,0.4740495,11.2359314,41.5648842,-77.2748108,-250.1374054
8520,14.4680872,-0.1221037,11.1210098,45.9847336,-77.6717529,-250.1374054
8530,12.5144281,-0.6967092,10.9558105,52.4045792,-76.4198456,-250.1374054
8540,11.2000179,-0.8116302,10.7283630,59.2824440,-75.0992355,-250.1374054
8550,10.8480721,-0.7014975,10.1920643,65.8244247,-68.8320618,-250.1374054
8560,9.9526453,-0.4596844,9.2703018,69.2366409,-56.7786255,-250.1374054
8570,8.9542685,-0.3375807,8.4706421,68.9160309,-44.5572510,-250.1374054
8580,8.5616217,-0.0454896,8.0588417,67.4274826,-31.1908398,-250.1374054
8590,7.8050575,-0.1125269,7.5225434,65.3206100,-17.0076332,-250.1374054
8600,7.1370788,-0.1125269,7.4339581,63.8396950,-10.1450386,-250.1374054
8610,6.3326311,-0.2681492,7.2783360,65.0534363,-4.7404580,-250.1374054
8620,5.0493455,-0.4668669,7.2950954,68.0229034,0.0916031,-250.1374054
8630,3.5888901,-0.6775556,7.2543941,73.6259537,-0.6412213,-250.1374054
8640,2.1308286,-0.9696468,7.0700417,81.2977066,-6.8931298,-250.1374054
8650,0.7685348,-1.2497669,6.9838505,90.3206100,-16.6717548,-250.1374054
8660,-0.5865764,-1.4843974,6.7061248,98.8320618,-27.1908398,-250.1374054
8670,-1.6448082,-1.7094513,6.2560172,106.4427490,-36.6412201,-250.1374054
8680,-2.4492557,-1.8219782,5.8035154,111.7175598,-43.3816795,-250.1374054
8690,-3.6056492,-1.9536586,5.3270717,113.5496216,-47.1908379,-250.1374054
8700,-4.5178356,-2.1978660,5.0110383,112.3358765,-44.1221390,-250.1374054
8710,-5.2049680,-2.6455793,4.6399393,110.0305328,-32.5954208,-250.1374054
8720,-6.2201042,-3.1675127,4.1227942,105.7938919,-16.3969460,-250.1374054
8730,-7.7092900,-3.4548154,3.3973548,100.1068726,-3.0916030,-250.1374054
8740,-9.6844959,-3.7373297,2.9879484,92.9847336,4.3435116,-250.1374054
8750,-11.5328102,-4.0006905,2.5426292,84.1679382,4.6030536,-250.1374054
8760,-13.1249466,-4.0820932,2.4468615,74.9923630,1.7175573,-237.8702240
8770,-14.3411951,-4.0437860,2.2601149,66.1450348,-0.7328244,-201.3587799
8780,-15.1001530,-3.8761928,2.3415172,57.2137413,1.2213740,-160.5648804
8790,-15.3587255,-3.8330972,2.2457497,48.0610695,9.5190840,-117.8931274
8800,-15.3802729,-3.7373297,2.0685797,38.3358765,22.5190830,-74.3969498
8810,-15.2821112,-3.9025288,2.0350611,27.6259537,37.4045792,-30.7099228
8820,-15.2390156,-4.1634955,1.8794388,16.7557259,51.3816795,12.6335878
8830,-15.2414103,-4.6447277,2.0829449,7.6412215,62.5267181,57.8167953
8840,-15.1288834,-5.1522956,2.3319404,3.6717558,65.7480927,103.4122162
8850,-15.3778791,-5.9902620,2.4755919,5.8244276,58.1526718,153.1832123
8860,-15.4209747,-6.8018923,2.2672975,12.1221371,37.4351158,205.0458069
8870,-14.7194767,-7.6638002,1.7573351,18.7557259,16.0916023,250.1297760
8880,-13.6971579,-8.7507620,1.0941446,22.4885502,9.1832066,250.1297760
8890,-12.8400383,-10.1250277,0.4453192,19.1374054,22.9923668,250.1297760
8900,-12.7897596,-11.5615406,-0.3639168,8.4351149,53.5038185,250.1297760
8910,-13.4122496,-13.3835192,-1.3263810,-11.5496187,94.8473282,250.1297760
8920,-13.7881374,-15.7705259,-2.0183017,-36.8625946,125.3282471,250.1297760
8930,-12.7897596,-19.2780132,-2.8179610,-68.0534363,134.8167877,250.1297760
8940,-10.6732969,-19.6131992,-2.9831600,-107.1297684,137.8473358,250.1297760
8950,-7.8816719,-19.6131992,-1.2090657,-147.8244324,140.5343475,250.1297760
8960,-3.2153964,-19.6131992,1.8722562,-182.2442780,151.4351196,250.1297760
8970,5.6239510,-19.6131992,5.4372044,-209.6641235,190.6488495,250.1297760
8980,14.9948082,-19.6131992,9.4307127,-230.4885559,250.1297760,250.1297760
8990,19.6126022,-19.6131992,14.2310619,-250.1374054,250.1297760,250.1297760
9000,19.6126022,-19.6131992,19.6126022,-250.1374054,250.1297760,250.1297760
9010,19.6126022,-17.9612083,19.6126022,-199.4503784,250.1297760,250.1297760
9020,19.6126022,-12.9166517,19.6126022,-68.8015289,250.1297760,250.1297760
9030,19.6126022,-3.6726866,19.6126022,56.9312973,249.0686951,250.1297760
9040,19.6126022,-0.0191535,13.1033993,101.5114517,92.8320618,204.9541931
9050,19.6126022,0.7086801,1.9512644,60.6335869,-81.1755753,87.2213745
9060,19.6126022,1.0007712,-0.6584021,-24.8396950,-202.9923706,38.8091621
9070,19.6126022,-0.0287303,4.9104824,-98.4351120,-250.1374054,41.0381660
9080,19.6126022,0.0119709,12.8783455,-123.4274826,-196.4809113,56.4503822
9090,19.6126022,1.4820032,18.4520187,-109.8015289,-65.1984711,68.1221390
9100,19.6126022,2.2816625,19.6126022,-75.5343475,72.7480927,74.6564865
9110,19.6126022,2.3008161,18.1599274,-40.8167953,170.8396912,79.0305328
9120,19.6126022,2.9783716,14.4944229,-21.7557259,206.7557220,71.9389343
9130,19.6126022,3.5793133,12.4258432,-13.8473282,201.7099304,48.5801544
9140,19.6126022,4.1994085,11.3819771,-6.2290077,151.8854980,12.5114508
9150,19.6126022,4.8410511,10.2950144,-0.1297710,76.9694672,-34.3511467
9160,19.6126022,4.7907729,9.8496952,4.1908398,10.0229006,-78.8625946
9170,17.9252968,4.3215117,9.7491398,8.9007635,-33.5801544,-112.2595444
9180,15.8040447,3.6655040,9.4187412,13.4656487,-61.0534363,-131.6412201
9190,14.4728756,2.8826041,9.2176294,17.3053436,-72.7480927,-140.1603088
9200,13.5295649,2.6072724,9.1290445,19.5114498,-70.1068726,-141.0229034
9210,13.1081877,2.6527619,9.0907373,21.0000000,-56.8091621,-138.0839691
9220,13.0962162,2.7557120,9.1074963,23.1450386,-38.5496178,-136.2671814
9230,13.3069048,2.8012016,8.6621771,25.1679382,-18.9465656,-137.2595367
9240,13.5750542,3.0597742,8.3174143,24.8396950,-2.8702290,-142.4732819
9250,13.9796724,3.1651185,7.9606800,22.7557259,12.3740454,-153.1450348
9260,14.5542774,3.0861101,7.9582858,19.7786255,20.1221371,-167.5190887
9270,15.4066095,2.9999194,7.7667508,17.8931293,24.0381680,-186.5343475
9280,15.9165716,2.8371146,7.5800037,16.1526718,20.3740463,-211.5801544
9290,16.3906212,2.5929072,7.8170285,15.2061071,1.0000000,-243.6870270
9300,16.3858318,2.2098370,8.3844519,16.7862587,-27.8702297,-250.1374054
9310,15.8471403,1.5250987,9.0284882,21.2595425,-62.2366409,-250.1374054
9320,14.7697544,1.0438666,9.6916790,27.8854961,-92.1450348,-250.1374054
9330,14.3124647,0.5434810,10.4003592,38.0152664,-110.0381699,-250.1374054
9340,13.6205435,0.0790083,10.2471304,47.4503822,-112.4351120,-250.1374054
9350,12.5862541,-0.1819584,9.8233595,53.4885483,-106.8854980,-250.1374054
9360,10.9605989,-0.4764437,9.4929609,56.2137413,-98.4656525,-250.1374054
9370,9.7706871,-0.7421987,9.4115591,59.6793900,-83.7328262,-250.1374054
9380,8.5376797,-0.9624642,8.8704720,64.5114517,-69.2137375,-250.1374054
9390,6.5983863,-1.1372399,8.4538832,69.6946564,-58.3664131,-250.1374054
9400,4.6566987,-1.2330076,8.1258793,76.1603088,-54.0992355,-250.1374054
9410,3.3782012,-1.0702027,7.9247670,84.4885483,-54.7251892,-250.1374054
9420,2.5450234,-0.9073978,7.4004397,92.5801544,-56.7480927,-250.1374054
9430,1.3958124,-0.9313397,6.7013364,100.6641235,-59.7786255,-250.1374054
9440,0.0311245,-0.8044477,6.0884237,101.2061081,-67.3664093,-250.1374054
9450,-1.0630201,-0.8427547,5.6694407,102.0839691,-77.3664093,-250.1374054
9460,-1.9656296,-0.7805058,5.3558016,101.6488571,-85.5343475,-250.1374054
9470,-2.9065459,-0.8906385,5.1427188,100.5343475,-90.4503784,-250.1374054
9480,-3.8354914,-1.0965388,4.9918852,100.3969498,-89.1755753,-250.1374054
9490,-4.6566987,-1.2880739,4.8266859,96.3969498,-81.6564865,-250.1374054
9500,-5.4395986,-1.5634058,4.4077029,90.2671738,-70.6183243,-250.1374054
9510,-6.2368636,-1.7884595,3.6702924,81.6335907,-56.6564903,-250.1374054
9520,-7.0293403,-1.9656296,3.3997490,70.4351120,-42.4122124,-250.1374054
9530,-8.0492649,-2.3391230,3.5122759,58.4809151,-25.5343513,-250.1374054
9540,-9.2272062,-2.4971397,3.6391680,48.9465637,-7.8396945,-250.1374054
9550,-10.2399483,-2.7557120,3.7421181,41.6183205,10.3664122,-250.1374054
9560,-11.0922794,-2.8802099,3.7660601,36.1374054,25.3282452,-220.3511505
9570,-11.9230633,-2.7748656,3.7971845,32.4656487,39.2595406,-187.4045868
9580,-12.7227230,-2.7102225,3.6535332,29.8244267,51.2366409,-153.0229034
9590,-13.4864693,-2.8610563,3.6200144,27.3740463,58.8320618,-115.4045792
9600,-14.0179796,-3.0286496,3.5649481,25.7709923,65.5954208,-74.1374054
9610,-14.5470953,-3.2177906,3.5577655,24.3282452,72.0152664,-30.0458012
9620,-15.0043850,-3.6535332,3.5553713,24.5954189,78.7633591,18.5419846
9630,-15.4544926,-4.0868812,3.5242469,26.2977104,84.3206100,71.3664093
9640,-15.9117832,-4.7357068,3.1723011,28.9770985,86.8931274,126.4274826
9650,-16.9580441,-5.9351954,2.6886747,32.1145020,83.2213745,188.2977142
9660,-17.9564209,-7.3310080,2.0302727,36.9847336,65.8091583,250.1297760
9670,-18.5166607,-9.1434097,1.1013272,42.8702278,39.3511467,250.1297760
9680,-17.7960110,-10.6756907,-0.0670373,43.2366409,12.7022905,250.1297760
9690,-16.0410690,-12.9717188,-1.2665262,34.4122124,10.2824430,250.1297760
9700,-13.2997227,-15.5861731,-2.4348907,10.3587790,44.0381660,250.1297760
9710,-11.1066446,-18.9571915,-3.5577655,-31.0000000,99.2442780,250.1297760
9720,-9.2391768,-19.6131992,-3.1890604,-80.3893127,142.1297760,250.1297760
9730,-6.0525107,-19.6131992,-1.8363433,-127.4122162,155.7175598,250.1297760
9740,-1.8722562,-19.6131992,0.9720409,-157.3129730,136.9923706,250.1297760
9750,7.6614060,-19.6131992,4.2401094,-164.9007568,129.8549652,250.1297760
9760,19.6126022,-19.6131992,6.7013364,-166.4732819,192.5801544,250.1297760
9770,19.6126022,-19.6131992,9.3325500,-177.4961853,250.1297760,250.1297760
9780,19.6126022,-19.6131992,14.2262735,-194.1297760,250.1297760,250.1297760
9790,19.6126022,-15.8758707,19.6126022,-192.0000000,250.1297760,250.1297760
9800,19.6126022,-3.6726866,19.6126022,-153.3969421,250.1297760,250.1297760
9810,19.6126022,3.6056492,19.6126022,-78.1068726,250.1297760,250.1297760
9820,19.6126022,4.4172797,19.6126022,11.6183205,210.5725250,73.7786255
9830,19.6126022,3.2920105,17.3530846,73.1908417,-0.1450382,-47.7099228
9840,19.2875900,3.0047078,11.9326401,96.2824402,-171.3740387,-94.3511429
9850,13.0339670,3.8354914,9.2272062,95.1450348,-250.1374054,-84.9312973
9860,11.7626524,4.8673873,7.3669209,81.2442780,-245.3206177,-49.8854980
9870,12.1481171,5.7987270,5.1139889,54.6870232,-160.6717529,-10.3435116
9880,12.8831339,6.2368636,3.4907281,13.2442751,-41.9618340,23.8625946
9890,13.4481621,6.6175399,2.7293761,-35.9236641,68.9083939,44.1908379
9900,12.7011747,5.8226686,4.3693957,-70.8778610,144.1984711,52.6183205
9910,11.7650471,4.9583664,6.1985564,-82.8931274,179.3587799,56.2290077
9920,10.6637201,4.4077029,7.4674768,-79.7328262,174.2671814,57.1526718
9930,9.9837704,3.6894460,8.2384062,-65.0687027,143.2671814,56.0610695
9940,9.6318245,3.1387823,8.4275465,-44.4961815,104.4198456,53.9771004
9950,9.4402885,2.8682389,8.0444765,-25.5877857,68.5419846,51.6793900
9960,9.6198530,2.6671271,7.4555058,-10.7022905,39.6030540,49.0687027
9970,9.8496952,2.4803803,6.2320752,5.1908398,13.4045801,42.6793900
9980,12.8711624,2.7533178,5.2025738,-2.6183207,28.0534344,33.2290077
9990,14.3220415,3.2058196,4.9368186,-14.1832066,52.0610695,22.1603050
