timestamp,acclX,acclY,acclZ,gyroX,gyroY,gyroZ
0,6.5050125,5.1762376,6.3757267,6.2671757,-6.5648856,10.0076332
10,6.4475522,5.0972295,6.0429344,6.0076337,-7.2824426,7.1603055
20,6.4403696,5.1522956,6.0022330,5.1603055,-8.8702288,5.2442746
30,6.3374195,5.1163831,5.9112539,3.7175572,-10.1908398,2.8244274
40,6.3733325,5.0637107,5.9088597,2.5572519,-10.4503813,1.5725191
50,6.3900914,5.0421629,5.8729467,1.0839695,-9.8625956,0.6870229
60,6.5121951,4.9775200,5.9950504,0.2213740,-8.8931293,0.0458015
70,5.7867560,4.8386569,6.3517847,-8.7480917,-0.3740458,7.3587785
80,5.3127065,4.6590929,6.1578555,-11.4503813,-8.5343513,19.9312973
90,4.9511838,4.5274124,5.9064655,-14.4580154,-13.4351149,26.8931293
100,4.1778607,4.3406653,5.2552457,-24.3893127,-9.1832066,40.0305328
110,4.0749106,4.5178356,5.1044121,-37.1603050,-7.1068702,56.4045792
120,3.8594334,4.1874375,4.9918852,-50.3511467,-10.8854961,74.2748108
130,4.4627690,4.1922259,5.0996237,-62.1984749,-15.5343513,94.8625946
140,5.8011212,4.2760224,5.5784616,-73.4885483,-28.5267181,113.0000000
150,9.8425131,4.9559722,6.3781209,-86.8167953,-39.5954208,125.5496216
160,15.6939116,5.9615316,8.2671366,-102.0305328,-44.6641235,121.0381699
170,19.6126022,6.4571290,11.3867655,-108.3206100,-45.4809151,90.4580154
180,19.6126022,6.6797886,15.1959200,-98.8625946,-44.4427490,38.5496178
190,19.6126022,6.1147599,17.8702297,-67.1603088,-46.9160309,-22.0916023
200,19.6126022,5.2049680,18.7273502,-23.8625946,-54.7633591,-79.0457993
210,19.6126022,4.5609307,18.1431675,15.3206110,-81.2137375,-128.1374054
220,19.6126022,3.9408360,17.0394459,48.7633591,-102.0992355,-169.8167877
230,19.6126022,3.4356618,15.4760408,76.1374054,-113.3740463,-206.9007568
240,19.6126022,3.1052637,13.4433737,95.8549652,-118.6717529,-242.0229034
250,17.8774128,2.9304879,11.3436699,107.3816757,-119.4427490,-250.1374054
260,15.5981445,2.6910689,9.1888990,110.6183243,-119.2671738,-250.1374054
270,13.0914278,2.0781565,7.6374645,108.0457993,-126.6183243,-250.1374054
280,10.8337069,1.3718705,6.8425937,104.1374054,-140.4122162,-250.1374054
290,8.9997578,0.7038917,6.3422079,101.7557220,-156.8549652,-250.1374054
300,7.2663651,-0.0502780,6.1626434,102.7557220,-171.5343475,-250.1374054
310,5.8418221,-0.6991033,5.8418221,105.5114517,-183.1450348,-250.1374054
320,4.3885493,-1.4556671,5.3534074,107.3358765,-194.7786255,-250.1374054
330,3.3901722,-2.0877333,5.2073622,110.9160309,-205.9694672,-250.1374054
340,1.7357874,-3.2297616,4.9128766,112.6335907,-228.1526642,-250.1374054
350,-0.3040621,-4.9248476,4.5633249,107.8473282,-244.6641235,-250.1374054
360,-3.9216824,-7.7499914,4.7955613,89.2442780,-249.7480927,-250.1374054
370,-9.9358864,-10.6493549,6.7779503,63.7251892,-245.0458069,-250.1374054
380,-18.5166607,-12.6437149,9.4355011,47.3129768,-227.2824402,-250.1374054
390,-19.6131992,-13.5056229,13.1919842,52.6488533,-194.2519073,-250.1374054
400,-19.6131992,-13.4337969,15.9476957,76.4732819,-143.5267181,-160.8167877
410,-19.6131992,-13.8168669,16.7689037,106.8167953,-92.1679382,-6.6946564
420,-19.6131992,-14.5423069,15.3994265,132.9618378,-36.0916023,141.4656525
430,-19.6131992,-15.1552191,13.0411501,147.6870270,45.0305328,250.1297760
440,-19.6131992,-16.3762550,10.3165627,146.1068726,154.9770966,250.1297760
450,-15.8950233,-17.8582592,7.4291697,125.3358765,250.1297760,250.1297760
460,-14.3603487,-19.0433826,5.1618724,88.8702316,250.1297760,250.1297760
470,-13.6492739,-19.6131992,3.5673423,48.6412201,250.1297760,250.1297760
480,-13.6061783,-19.6131992,2.5857246,12.7709923,250.1297760,250.1297760
490,-10.0891142,-19.6131992,4.1611013,-19.5267181,250.1297760,250.1297760
500,-0.1628049,-19.6131992,7.5871863,-34.6030540,250.1297760,250.1297760
510,19.6126022,-19.6131992,10.4266949,-27.1679382,250.1297760,250.1297760
520,19.6126022,-19.6131992,14.4321737,4.6488547,250.1297760,250.1297760
530,19.6126022,-18.0258522,19.3402615,44.5954208,250.1297760,250.1297760
540,19.6126022,1.7070571,7.7595682,95.4656525,250.1297760,250.1297760
550,19.6126022,12.1313581,11.2502966,122.1908417,198.7022858,85.3816757
560,19.6126022,8.3652983,2.4899571,91.0992355,-35.0000000,-176.4885559
570,19.6126022,3.6990228,-1.1516051,18.8244267,-180.7633514,-250.1374054
580,19.6126022,4.5322008,3.7971845,-36.6641235,-207.5496216,-222.5267181
590,19.6126022,6.3469963,8.9925756,-36.8549614,-120.1221390,-182.0610657
600,19.6126022,7.7882981,9.1003141,-3.8702290,-15.6488552,-180.4656525
610,19.6126022,7.9965930,4.2688398,15.1297712,46.2519073,-219.6946564
620,19.6126022,7.5464849,-0.9480990,14.6717558,38.8473282,-250.1374054
630,19.6126022,5.7412663,-4.1611013,-0.8473282,-36.5267181,-250.1374054
640,19.6126022,2.6000898,-4.5800843,-26.3129768,-140.1068726,-250.1374054
650,19.6126022,-1.5346755,-2.1332228,-49.3282433,-220.4122162,-250.1374054
660,15.5813847,-5.5952206,1.3598996,-57.6793900,-250.1374054,-250.1374054
670,10.5033092,-8.6166878,4.1323709,-50.6030540,-250.1374054,-250.1374054
680,5.7221127,-11.0420017,5.4395986,-35.8473282,-250.1374054,-250.1374054
690,0.6799498,-13.6540623,5.7077475,-23.6641216,-208.3740387,-250.1374054
700,-5.8873119,-14.9277716,6.4834652,-18.5190830,-161.0839691,-250.1374054
710,-13.1584654,-15.6172981,7.9415264,-16.7328243,-114.8778610,-250.1374054
720,-19.6131992,-16.4456882,9.1170731,-7.5419846,-84.7251892,-250.1374054
730,-19.6131992,-16.5653973,8.5281029,6.9618320,-80.2748108,-250.1374054
740,-19.6131992,-16.0027618,9.0596132,25.5419846,-95.0610657,-194.3206177
750,-19.6131992,-14.8128500,9.8065996,46.5343513,-109.5572510,-24.0687027
760,-19.6131992,-14.3028879,8.9422979,61.2442741,-65.5725174,148.1526642
770,-19.6131992,-14.3148584,6.7157016,59.1984749,46.8778610,250.1297760
780,-19.6131992,-15.5718079,4.5465660,40.4045792,178.0839691,250.1297760
790,-19.6131992,-16.9005833,2.7772598,10.5419846,250.1297760,250.1297760
800,-19.4288483,-18.2054157,1.7764885,-28.5267181,250.1297760,250.1297760
810,-15.4473104,-19.6131992,1.8626794,-71.6793900,250.1297760,250.1297760
820,-2.7197993,-19.6131992,5.2289100,-98.1984711,212.5648804,250.1297760
830,19.6126022,-19.6131992,11.1641054,-83.1297684,141.1450348,250.1297760
840,19.6126022,-19.6131992,19.6126022,-17.3816795,88.7862625,250.1297760
850,19.6126022,-2.6671271,19.6126022,84.6183243,88.2977066,250.1297760
860,19.6126022,16.1703548,18.5884876,174.4274750,12.5267172,190.7099304
870,19.6126022,11.7530756,3.4260850,180.4885559,-134.4732819,-164.1221313
880,19.6126022,5.7436604,-5.1115947,103.4885483,-250.1374054,-250.1374054
890,19.6126022,5.0373745,-1.2138541,23.3358784,-250.1374054,-250.1374054
900,19.6126022,6.4403696,4.9248476,3.0076337,-250.1374054,-246.2671814
910,19.6126022,9.4522600,5.3486195,17.6030540,-166.5572510,-206.9694672
920,19.6126022,10.4578199,0.5913648,20.1221371,-34.5343513,-202.8167877
930,19.6126022,9.6677370,-3.9671719,0.7709923,36.9847336,-224.0305328
940,19.4480019,7.7284436,-6.5433197,-26.2137413,47.8244286,-250.1374054
950,16.4959660,5.9591374,-6.5983863,-50.7633591,2.5725191,-250.1374054
960,13.8743277,4.1132174,-4.8075323,-66.7557220,-69.6259537,-250.1374054
970,11.3915539,2.2529323,-2.4516499,-73.7557220,-133.5572510,-250.1374054
980,8.8896255,0.5195391,-0.2298422,-74.7709961,-171.3740387,-250.1374054
990,6.4667058,-0.8020535,1.6208663,-71.4503784,-181.1221313,-250.1374054
1000,3.5841017,-1.7166338,2.7652888,-65.4045792,-171.5343475,-250.1374054
1010,1.2186425,-2.0087249,3.2177906,-57.6030540,-150.7099304,-250.1374054
1020,-0.7709290,-2.2218077,3.0454090,-52.2748108,-123.8854980,-250.1374054
1030,-2.3606708,-2.5091105,2.6719155,-51.0534363,-95.7175598,-250.1374054
1040,-3.5721307,-2.5617826,2.4301023,-54.3740463,-65.1145020,-250.1374054
1050,-4.4100971,-2.7700772,2.4851687,-59.7328262,-31.3664131,-250.1374054
1060,-5.4683285,-3.3446827,2.4636209,-65.9618301,-0.1374046,-250.1374054
1070,-7.4698710,-4.1251884,2.4324965,-73.6946564,26.9618320,-250.1374054
1080,-10.7283630,-4.5992379,3.3039815,-81.3206100,39.1679382,-232.7328186
1090,-14.2933111,-4.8697815,5.1570840,-81.4122162,35.4580154,-187.1450348
1100,-17.3866043,-4.8338685,7.4291697,-64.6717529,18.3587780,-126.6106873
1110,-19.6131992,-4.7117648,9.0644016,-33.5114517,0.0152672,-50.7022896
1120,-19.6131992,-4.6136031,9.1745338,0.5725191,-13.6030531,41.3893127
1130,-19.6131992,-4.4077029,8.1210909,26.0916023,-6.8549619,140.7938995
1140,-19.6131992,-5.5521255,7.0844064,37.3587799,26.2290077,249.2748108
1150,-19.5509510,-7.3956513,6.2344694,41.4885483,79.8015289,250.1297760
1160,-16.8910065,-9.3804340,5.5880380,37.8625946,132.4122162,250.1297760
1170,-13.4553452,-11.3700056,5.3174949,28.6641216,170.8625946,250.1297760
1180,-9.8568783,-12.9142580,6.0189924,19.8778629,182.1145020,250.1297760
1190,-5.1738434,-16.4768124,7.6446471,22.1526718,166.6488495,250.1297760
1200,2.4013720,-19.6131992,9.3110027,39.9007645,158.2748108,250.1297760
1210,15.7657375,-19.6131992,10.6541433,65.9236679,186.8931274,250.1297760
1220,19.6126022,-19.6131992,11.2359314,81.3053436,250.1297760,250.1297760
1230,19.6126022,-16.0985298,13.2997227,67.3435135,250.1297760,250.1297760
1240,19.6126022,-2.2218077,16.0506458,56.5954208,250.1297760,250.1297760
1250,19.6126022,8.0995426,14.4632988,69.2290039,250.1297760,250.1297760
1260,19.6126022,8.7842808,7.3932571,84.6412201,250.1297760,13.2824430
1270,19.6126022,5.6047974,1.8602852,61.8854980,-84.7633591,-199.6870270
1280,19.6126022,3.8881636,5.2241216,30.0305347,-250.1374054,-250.1374054
1290,19.6126022,4.3406653,11.0611553,39.3740463,-250.1374054,-250.1374054
1300,19.6126022,6.2584114,11.7937775,74.7328262,-250.1374054,-250.1374054
1310,19.6126022,7.3262196,7.4411407,94.4198456,-250.1374054,-250.1374054
1320,19.6126022,6.9958215,1.3168042,77.6793900,-138.6717529,-250.1374054
1330,17.9851513,6.0740585,-3.2345500,37.6946564,-20.6488552,-250.1374054
1340,13.1680422,4.5800843,-5.2720051,-6.0992365,36.7251892,-250.1374054
1350,9.6964674,3.1842721,-5.5090299,-42.1679382,41.3053436,-250.1374054
1360,7.4171991,1.8961980,-4.2329268,-67.4198456,7.3129773,-250.1374054
1370,6.0094156,0.7206510,-1.8698620,-77.5725174,-45.6412201,-250.1374054
1380,4.9104824,-0.3112446,0.6512195,-73.6793900,-102.2977066,-250.1374054
1390,3.8953462,-1.1635761,2.5785420,-61.5038185,-147.3969421,-250.1374054
1400,2.9711890,-1.9776005,3.7636659,-45.8244286,-177.6335907,-250.1374054
1410,2.1020982,-2.7437410,4.1227942,-31.9160309,-185.4122162,-250.1374054
1420,1.1707586,-3.3997490,4.0246325,-23.3053436,-174.1679382,-250.1374054
1430,-0.1268920,-4.1515245,4.0557570,-19.9160309,-146.9541931,-250.1374054
1440,-2.4396791,-5.0182209,4.0964580,-19.8625946,-110.9236679,-250.1374054
1450,-6.0788469,-6.4882536,4.1491303,-21.8244267,-76.3587799,-250.1374054
1460,-12.0236197,-7.3573442,4.1084290,-23.2290077,-45.1374054,-250.1374054
1470,-18.9093075,-6.6726060,4.3071470,-19.9083977,-17.0381680,-222.5114441
1480,-19.6131992,-5.6215568,4.4891052,-12.4580154,4.5419846,-127.2290039
1490,-19.6131992,-4.9966736,4.1539187,-6.4656487,25.2213745,11.3435116
1500,-19.6131992,-5.8537931,3.2489152,-0.8625954,44.9923668,181.2061005
1510,-19.6131992,-7.4890246,2.2242019,-5.7099237,80.0152664,250.1297760
1520,-19.6131992,-10.0460186,2.3295465,-27.1145039,148.0992432,250.1297760
1530,-19.3785686,-13.4266148,3.3925664,-60.2061081,228.5496216,250.1297760
1540,-12.5910425,-17.7744617,5.9256191,-89.2671738,250.1297760,250.1297760
1550,-5.5377603,-19.6131992,9.6414013,-99.0229034,238.8320618,250.1297760
1560,5.8466105,-19.6131992,14.2765512,-74.0457993,174.6183167,250.1297760
1570,19.6126022,-19.6131992,19.6126022,-8.8167934,85.3435135,250.1297760
1580,19.6126022,-19.6131992,19.6126022,95.6106873,19.6030540,250.1297760
1590,19.6126022,-4.5369892,19.6126022,179.0686951,-13.1603050,250.1297760
1600,19.6126022,11.4370432,13.4673157,240.3282471,52.2366409,132.0229034
1610,19.6126022,9.4857788,-1.2497669,222.2442780,-43.5725174,-207.5267181
1620,19.6126022,3.8809812,-8.3222027,112.7480927,-194.5496216,-250.1374054
1630,19.6126022,2.5809362,-4.1275826,6.9770994,-250.1374054,-250.1374054
1640,17.7122135,1.9560528,2.3103929,-30.0534344,-250.1374054,-250.1374054
1650,17.3626614,3.9144998,3.9360476,-14.3511448,-157.0763397,-250.1374054
1660,18.0976772,6.0956063,1.3287752,5.1068702,-50.2824440,-231.1145020
1670,17.7098198,6.8497758,-2.4708035,0.2900763,24.4580154,-234.0305328
1680,15.4951944,6.3374195,-5.1044121,-24.4656487,52.5572510,-250.1374054
1690,12.4426022,4.8817525,-5.7436604,-51.6030540,40.1526718,-250.1374054
1700,9.6246414,2.6503677,-4.7500720,-70.5725174,0.7251908,-250.1374054
1710,6.8952656,0.4860204,-2.8658447,-77.5496216,-49.2977104,-250.1374054
1720,4.3574247,-0.9145803,-0.8595140,-74.9236679,-98.7633591,-250.1374054
1730,2.6934631,-2.2912393,0.5578461,-66.9236679,-138.1755676,-250.1374054
1740,0.7637464,-3.1124463,1.9368993,-55.8244286,-161.3129730,-250.1374054
1750,-0.8403605,-3.4045374,2.7126167,-45.0610695,-165.6946564,-250.1374054
1760,-2.1547706,-3.5242469,3.1387823,-37.8854980,-152.3129730,-250.1374054
1770,-3.3805954,-3.8187323,3.2560976,-34.6870232,-125.8702316,-250.1374054
1780,-4.6519103,-3.7828193,2.9735832,-34.9236641,-83.9923630,-250.1374054
1790,-6.8473821,-3.7947903,2.5426292,-39.0839691,-31.6870232,-250.1374054
1800,-9.9550400,-3.8354914,1.9656296,-47.3511467,19.6335869,-230.2824402
1810,-14.4249916,-3.3542595,1.7717001,-57.2290077,72.3816757,-168.3587799
1820,-19.3043499,-2.6527619,1.2521610,-67.6564865,124.2671738,-77.8396912
1830,-19.6131992,-1.9943599,0.7924767,-78.9618301,165.9465637,38.0076332
1840,-19.6131992,-1.8243724,1.2234308,-89.2900772,170.6488495,168.2137451
1850,-19.6131992,-2.7605004,2.4109488,-95.3969498,140.1908417,250.1297760
1860,-19.6131992,-4.8075323,3.7636659,-98.2519073,107.8473282,250.1297760
1870,-17.6715126,-8.3461447,5.4683285,-99.1832047,97.4961853,250.1297760
1880,-12.9789009,-13.3619709,8.1354561,-94.9007645,96.6870193,250.1297760
1890,-5.8035154,-19.6131992,11.7147694,-78.8473282,80.8778610,250.1297760
1900,7.5632443,-19.6131992,14.8942528,-41.3053436,91.3587799,250.1297760
1910,19.6126022,-19.6131992,17.7361546,3.1068702,183.1679382,250.1297760
1920,19.6126022,-14.9421368,19.6126022,11.3053436,250.1297760,250.1297760
1930,19.6126022,5.0780759,19.6126022,-3.4427481,250.1297760,250.1297760
1940,19.6126022,10.1753054,19.6126022,1.8854961,250.1297760,238.9160309
1950,19.6126022,3.1387823,16.7880573,45.6946564,250.1297760,-20.6106873
1960,19.6126022,1.2808913,9.8281479,72.1679382,87.5801544,-196.0992432
1970,19.0409889,1.5490406,12.2295198,96.3587799,-250.1374054,-250.1374054
1980,19.6126022,3.2249732,16.0099449,145.1832123,-250.1374054,-250.1374054
1990,19.6126022,5.4276276,13.8958759,184.8702240,-250.1374054,-250.1374054
2000,19.6126022,6.7899213,7.5009956,178.0305328,-250.1374054,-250.1374054
2010,19.6126022,5.9854736,1.5346755,131.7786255,-250.1374054,-250.1374054
2020,19.6126022,3.6894460,-2.4229198,70.6946564,-250.1374054,-250.1374054
2030,13.4840746,1.7836711,-4.8099265,9.1526718,-214.3053436,-250.1374054
2040,8.4945841,0.0143651,-4.8362627,-44.8244286,-143.7251892,-250.1374054
2050,4.8961172,-1.0582317,-2.9927368,-77.6335907,-103.3893127,-250.1374054
2060,2.4492557,-1.3191984,-0.8427547,-88.0534363,-89.3816757,-250.1374054
2070,1.2497669,-1.1755470,0.6105183,-84.3969498,-96.9007645,-250.1374054
2080,0.8738791,-0.7517755,1.4365137,-75.5572510,-116.5343475,-250.1374054
2090,0.4908088,-0.5123565,1.8578910,-67.7633591,-136.4274750,-250.1374054
2100,0.0023942,-0.5051740,2.2457497,-62.4809151,-148.4580078,-250.1374054
2110,-0.6392486,-0.7852941,2.4899571,-60.5648842,-148.5572510,-250.1374054
2120,-1.3862357,-0.9409165,2.8849983,-61.4961815,-141.0152740,-250.1374054
2130,-1.9009864,-1.0247130,3.4979107,-63.4961815,-124.3053436,-250.1374054
2140,-2.3223639,-1.5059452,4.0150557,-65.0610657,-100.7404556,-250.1374054
2150,-2.8849983,-1.8842272,4.4220681,-65.8549652,-74.9160309,-250.1374054
2160,-3.9001346,-2.3151813,4.9583664,-64.9236679,-48.7862587,-250.1374054
2170,-5.0349803,-2.9209111,5.3390427,-60.3969460,-21.8015270,-244.3587799
2180,-6.5145893,-3.1028695,5.5162125,-53.9923668,1.1603054,-223.7709961
2190,-8.1019373,-3.1459649,5.7173243,-47.4580154,21.6030540,-195.7251892
2200,-10.3381100,-3.0190730,5.9184365,-39.0610695,44.7099228,-156.8167877
2210,-12.9094696,-2.4492557,6.0501165,-29.7328243,65.6183243,-105.8549652
2220,-15.8375635,-1.6208663,5.8633699,-21.0305347,79.8320618,-39.9389305
2230,-19.5748920,-0.5769997,6.1434903,-13.1374044,94.0381699,44.9923668
2240,-19.6131992,-0.6057299,5.8418221,-6.0763359,110.9160309,157.4351196
2250,-19.6131992,-1.2473727,5.1068063,-4.3664122,123.7480927,250.1297760
2260,-19.6131992,-4.0988522,4.1682839,-14.3511448,133.9847260,250.1297760
2270,-19.6131992,-9.4785957,3.6750808,-38.7175560,144.3511505,250.1297760
2280,-18.4113178,-18.1862640,6.1961622,-60.9312973,144.0686951,250.1297760
2290,-8.0708122,-19.6131992,10.5320396,-54.4885483,133.2290039,250.1297760
2300,6.6606350,-19.6131992,14.1783895,-15.8244276,143.6793823,250.1297760
2310,19.6126022,-19.6131992,17.2692890,38.4732819,212.2900696,250.1297760
2320,19.6126022,-19.6131992,19.6126022,73.7404556,250.1297760,250.1297760
2330,19.6126022,-19.6131992,19.6126022,106.1374054,250.1297760,250.1297760
2340,19.6126022,2.1332228,19.6126022,169.9618378,250.1297760,250.1297760
2350,19.6126022,11.2981796,9.3517036,209.7862549,250.1297760,250.1297760
2360,19.6126022,13.3835192,-8.6334467,150.5038147,250.1297760,-28.3206100
2370,19.6126022,9.5264797,-11.9158812,31.4351139,-78.3893127,-179.1450348
2380,18.9236736,5.2432747,0.3639168,-41.6259537,-250.1374054,-215.2213745
2390,19.6126022,7.9151902,12.3204985,-26.3129768,-250.1374054,-192.0534363
2400,19.6126022,8.0851774,14.8296099,18.5496178,-250.1374054,-205.6030579
2410,19.6126022,8.8752604,13.2302914,52.3664131,-250.1374054,-250.1374054
2420,19.6126022,6.9192076,7.5728211,59.8473282,-173.1450348,-250.1374054
2430,19.6126022,5.3510137,1.8339491,45.8854980,-57.8244286,-250.1374054
2440,16.5366669,4.6471219,-1.5681942,16.4274807,0.7786260,-250.1374054
2450,13.7067347,4.8003497,-3.0645626,-23.0000000,0.9618320,-250.1374054
2460,13.4601336,5.0158267,-1.9728121,-57.0916023,-38.0763359,-250.1374054
2470,13.9844608,4.5968437,0.7374104,-72.5725174,-90.9389343,-250.1374054
2480,14.2023315,3.6487448,2.6934631,-73.1068726,-132.6488495,-250.1374054
2490,12.8879223,2.5546002,3.8522508,-70.9312973,-153.4045868,-250.1374054
2500,10.5535870,0.9600700,4.8721757,-70.9770966,-162.3282471,-250.1374054
2510,8.1737623,-0.3734936,5.5736732,-69.7709961,-161.0305328,-250.1374054
2520,5.8274570,-0.9528874,6.3374195,-62.9694672,-150.2748108,-250.1374054
2530,3.2944047,-0.9792235,6.8761120,-49.7938919,-138.4198456,-250.1374054
2540,1.1779412,-0.6081241,7.4339581,-31.1068707,-131.5038147,-250.1374054
2550,-0.6129125,-0.1556223,7.5393028,-8.9541988,-128.5801544,-250.1374054
2560,-1.8459201,-0.0071826,7.0030041,11.3740454,-129.1755676,-250.1374054
2570,-2.6383967,0.1484398,5.9974446,24.0916023,-126.8396912,-250.1374054
2580,-3.2441268,0.4740495,5.0397687,26.3129768,-123.3816757,-250.1374054
2590,-3.6391680,0.4812321,4.3430595,22.1603050,-126.7175598,-250.1374054
2600,-4.8171091,0.0526722,4.5465660,18.1450386,-128.3969421,-250.1374054
2610,-6.5768385,-0.8810617,5.2169390,14.3053436,-117.2977066,-250.1374054
2620,-8.3868456,-1.6663558,5.7197185,13.3435116,-102.9542007,-250.1374054
2630,-9.8042059,-2.3870070,6.2488346,15.8473282,-85.9389343,-225.2824402
2640,-11.5112629,-3.1842721,6.8378053,23.4274807,-65.8320618,-183.6717529
2650,-13.0626974,-3.7133877,7.2759418,35.1755714,-52.2213745,-133.2061005
2660,-13.6947641,-4.0677280,7.2927012,50.2900772,-44.9389305,-79.4809189
2670,-13.4122496,-4.4220681,6.7707677,64.5572510,-37.0916023,-25.1526718
2680,-12.7586355,-4.8937230,5.9854736,74.2977066,-21.8015270,29.7480907
2690,-12.0236197,-5.8298512,5.3270717,78.4580154,5.6564884,87.5725174
2700,-11.5902710,-7.0197635,4.8602047,79.3893127,48.6488533,147.6641235
2710,-11.7722292,-8.2312231,4.4675574,78.0229034,103.8549652,212.9694672
2720,-13.2087431,-9.5887289,3.2991931,76.0763321,143.5801544,250.1297760
2730,-14.2190914,-10.8600435,2.4779861,65.3053436,174.4045868,250.1297760
2740,-14.0610743,-12.8615856,2.9185169,48.0534363,208.3129730,250.1297760
2750,-13.1153698,-15.9500904,3.2010312,30.3129768,250.1297760,250.1297760
2760,-12.1098099,-19.0361996,2.4660151,4.0229006,250.1297760,250.1297760
2770,-7.7068958,-19.6131992,1.9752063,-31.6106873,250.1297760,250.1297760
2780,1.8938038,-19.6131992,3.1938488,-77.7709961,250.1297760,250.1297760
2790,15.6987000,-19.6131992,5.1044121,-136.6259613,250.1297760,250.1297760
2800,19.6126022,-17.2644997,9.5839405,-214.6717529,250.1297760,250.1297760
2810,19.6126022,-10.0915089,17.5996876,-250.1374054,250.1297760,250.1297760
2820,19.6126022,-5.7292953,19.6126022,-250.1374054,250.1297760,250.1297760
2830,19.6126022,-4.0389977,19.6126022,-214.1221313,250.1297760,250.1297760
2840,19.6126022,1.0893562,19.6126022,-98.4503784,250.1297760,250.1297760
2850,19.6126022,7.1729918,19.6126022,-12.8854961,-151.0839691,45.4045792
2860,19.6126022,9.1410151,19.6126022,33.2748108,-250.1374054,-94.8396912
2870,19.6126022,11.3652172,19.6126022,53.4732819,-250.1374054,-150.4732819
2880,19.6126022,12.2295198,19.6126022,56.6106873,-225.8625946,-171.7480927
2890,19.6126022,11.3700056,19.3689919,47.9312973,-51.6564903,-185.0000000
2900,19.6126022,10.3740225,16.2158451,38.6259537,53.4045792,-206.5877838
2910,19.6126022,8.9925756,14.4154148,39.7786255,59.9923668,-245.7709961
2920,19.6126022,7.3764977,13.9533358,51.0839691,-13.1297712,-250.1374054
2930,19.6126022,5.1044121,14.2813396,71.9618301,-124.0457993,-250.1374054
2940,19.6126022,1.4796091,14.1400833,95.0152664,-222.1832123,-250.1374054
2950,19.6126022,-2.4301023,12.9932661,109.6106873,-250.1374054,-250.1374054
2960,19.0146523,-5.9399838,11.5232334,110.1984711,-250.1374054,-250.1374054
2970,13.8408089,-9.4235296,10.6852674,103.8702316,-239.8167877,-250.1374054
2980,8.5616217,-11.9422169,10.4841557,104.4580154,-184.5496216,-250.1374054
2990,3.1339941,-13.7067347,10.1082678,115.1374054,-131.8702240,-250.1374054
3000,-1.2354017,-14.2071199,8.9087791,130.3053436,-102.3816757,-250.1374054
3010,-3.8235207,-14.1664190,6.8306227,144.0381622,-98.5725174,-250.1374054
3020,-6.5002246,-14.3842907,5.4276276,150.5648804,-119.5343475,-250.1374054
3030,-8.8824425,-15.1049414,4.4412212,151.9541931,-145.7633514,-250.1374054
3040,-11.6261835,-16.6084919,3.0765336,148.4198456,-166.2977142,-250.1374054
3050,-17.0514164,-18.0785236,1.5298871,134.8167877,-173.7175598,-250.1374054
3060,-19.6131992,-18.2532997,0.7158626,107.1221390,-174.5877838,-250.1374054
3070,-19.6131992,-18.4184990,2.1116750,75.9542007,-169.3129730,-250.1374054
3080,-19.6131992,-18.4831429,5.1810260,62.9007645,-151.9236603,-150.4045868
3090,-19.6131992,-18.2628765,7.2065101,67.6717529,-124.8931274,-21.8549614
3100,-19.6131992,-17.9085369,7.5297260,77.5114517,-84.6030502,102.5725174
3110,-19.6131992,-18.1814747,6.1458845,80.4580154,-21.6335869,218.1068726
3120,-19.6131992,-19.1535149,4.1299767,73.3740463,60.3740463,250.1297760
3130,-19.6131992,-19.6131992,2.3271523,61.4961815,124.1679382,250.1297760
3140,-19.6131992,-19.6131992,0.8786675,47.0076332,154.2442780,250.1297760
3150,-17.8582592,-19.6131992,0.4836263,33.0992355,164.4351196,250.1297760
3160,-14.8056679,-19.6131992,1.3790531,23.6412220,158.8854980,250.1297760
3170,-9.0715837,-19.6131992,2.3870070,20.1297703,151.8320618,250.1297760
3180,-1.7932479,-19.6131992,2.9328821,12.1221371,158.8625946,250.1297760
3190,7.5776095,-19.6131992,5.5042415,3.1450381,193.4045868,250.1297760
3200,19.4791260,-19.6131992,8.5759869,3.8167939,250.1297760,250.1297760
3210,19.6126022,-19.6131992,11.4561968,0.2366412,250.1297760,250.1297760
3220,19.6126022,-18.2030220,14.4752693,-21.2671757,250.1297760,250.1297760
3230,19.6126022,-6.5313487,17.7457314,-42.9083977,250.1297760,250.1297760
3240,19.6126022,1.6735384,19.6126022,-31.7709923,250.1297760,250.1297760
3250,19.6126022,4.7428894,19.0026817,9.9389315,81.0305328,247.9007568
3260,19.6126022,6.3709383,14.8846760,38.3435097,-117.4122162,123.8625946
3270,19.6126022,9.0069408,13.2590208,39.9541969,-214.4503784,59.0916023
3280,19.6126022,11.4849272,15.0594521,48.9160309,-194.2213745,13.8778629
3290,19.6126022,13.9293938,14.3842907,71.7557220,-82.1450348,-44.2137413
3300,19.6126022,14.3483772,9.1865053,82.3587799,42.0839691,-107.4045792
3310,19.6126022,12.5503407,3.1292057,68.6030502,122.9542007,-175.1679382
3320,19.6126022,10.1992474,-0.0383070,45.9236641,133.3511505,-241.7404633
3330,19.6126022,7.9965930,-1.1635761,27.2442741,74.2977066,-250.1374054
3340,19.6126022,5.3055239,-0.1197095,16.5801525,-29.9465656,-250.1374054
3350,19.6126022,1.8363433,1.6687500,12.6412210,-125.6946564,-250.1374054
3360,19.6126022,-1.5993185,3.1986370,11.4885492,-181.3435059,-250.1374054
3370,18.0952835,-4.8602047,4.6303625,10.2748089,-195.8702240,-250.1374054
3380,13.7977142,-7.2136927,5.5880380,13.5343513,-184.0076294,-250.1374054
3390,9.3900108,-8.8992023,5.7867560,19.2366409,-157.0839691,-250.1374054
3400,5.1714492,-10.2806492,5.7388721,25.2977104,-131.1145020,-250.1374054
3410,1.4077834,-11.5328102,5.8585815,32.1450386,-105.0457993,-250.1374054
3420,-1.6615674,-12.2774038,6.1123657,42.3664131,-90.0305328,-250.1374054
3430,-4.7644372,-13.1656475,6.3182659,58.8854980,-84.0992355,-250.1374054
3440,-8.3868456,-14.5758257,6.3685441,80.7099228,-87.1145020,-250.1374054
3450,-12.5647058,-15.6723642,5.8585815,103.4580154,-97.3664093,-250.1374054
3460,-19.2492828,-16.3762550,4.5178356,120.3053436,-121.4427490,-250.1374054
3470,-19.6131992,-16.1464138,2.0422437,125.8702316,-167.2442780,-250.1374054
3480,-19.6131992,-15.3252068,0.0694315,115.7709961,-214.3511505,-188.0381622
3490,-19.6131992,-14.6644106,0.0239419,96.9770966,-232.1832123,-83.5954208
3500,-19.6131992,-14.1568422,1.6639616,80.4427490,-210.5572510,8.7251911
3510,-19.6131992,-13.8168669,3.3662305,71.5038147,-157.1755676,85.8396912
3520,-18.2173882,-13.2781744,4.7931671,68.0610657,-86.6106873,152.8854980
3530,-16.3642845,-12.8544035,5.1953912,68.7480927,-13.3435116,206.9694672
3540,-16.1655674,-12.6915979,4.3239059,69.1526718,42.8778610,250.1297760
3550,-17.0585995,-13.4816809,2.8371146,67.3893127,82.2061081,250.1297760
3560,-17.0825424,-14.8607340,1.2162483,60.9389305,102.3282471,250.1297760
3570,-15.1288834,-16.2756996,0.2849085,50.2213745,110.5877838,250.1297760
3580,-11.0252428,-17.0394459,0.1819584,34.4045792,128.9541931,250.1297760
3590,-7.1370788,-18.2365417,0.4979914,10.5038166,165.3129730,250.1297760
3600,-2.2553265,-19.0529594,2.4372849,-19.3816795,214.8015289,250.1297760
3610,3.7062054,-19.5198269,5.9351954,-44.0228996,250.1297760,250.1297760
3620,12.7873659,-19.6131992,10.5224628,-56.3129768,250.1297760,250.1297760
3630,19.6126022,-18.4352589,15.0091734,-60.1450386,250.1297760,250.1297760
3640,19.6126022,-15.7896795,18.6291885,-63.2213745,250.1297760,250.1297760
3650,19.6126022,-10.5200682,19.6126022,-69.5419846,250.1297760,250.1297760
3660,19.6126022,-0.0550664,19.6126022,-73.2977066,250.1297760,250.1297760
3670,19.6126022,7.2950954,19.6126022,-54.4427490,250.1297760,250.1297760
3680,19.6126022,8.3413563,19.6126022,-21.2366409,157.8625946,82.4732819
3690,19.6126022,7.5297260,19.6126022,2.9083970,-58.2748108,-34.0687027
3700,19.6126022,8.3126259,19.6126022,50.3969460,-176.3664093,-82.8015289
3710,19.6126022,10.7858238,19.6126022,111.4580154,-157.1450348,-118.8396912
3720,19.6126022,11.2191715,14.0898046,150.2824402,-49.5419846,-162.3282471
3730,19.6126022,10.6804790,5.4324160,149.5801544,47.7480927,-220.6793823
3740,19.6126022,9.1242561,-0.6943150,116.7557220,91.1832047,-250.1374054
3750,19.6126022,5.7484488,-3.5936785,74.6870193,66.6488571,-250.1374054
3760,19.6126022,2.4157372,-4.2137733,38.3740463,-0.3206107,-250.1374054
3770,19.6126022,-1.3910241,-2.7485294,14.2442751,-95.1832047,-250.1374054
3780,19.6126022,-5.4132624,-0.0837966,1.5343511,-190.2213745,-250.1374054
3790,19.0888729,-9.1386213,2.7581062,-0.2213740,-250.1374054,-250.1374054
3800,14.3555603,-12.2486734,5.3988972,8.3511448,-250.1374054,-250.1374054
3810,9.5791521,-14.2980995,6.5528965,23.8091602,-250.1374054,-250.1374054
3820,5.8178802,-15.8040447,5.7412663,39.6641235,-238.6259613,-250.1374054
3830,2.2744799,-16.8646698,4.4986820,46.5343513,-215.1526642,-250.1374054
3840,-2.1044924,-17.9276905,4.5848727,44.5114517,-206.9618378,-250.1374054
3850,-6.9263902,-19.6131992,6.3062949,47.5725174,-210.0381622,-250.1374054
3860,-13.1560707,-19.6131992,7.4100165,65.0457993,-232.9770966,-250.1374054
3870,-19.6131992,-19.5126438,7.8074517,80.8244247,-250.1374054,-250.1374054
3880,-19.6131992,-17.2668934,8.7387915,85.2900772,-250.1374054,-250.1374054
3890,-19.6131992,-15.6101151,9.7970228,83.5954208,-250.1374054,-250.1374054
3900,-19.6131992,-14.5662489,11.0467901,77.5267181,-250.1374054,-210.1832123
3910,-19.6131992,-13.9270000,11.6046362,66.0610657,-250.1374054,-106.9770966
3920,-19.6131992,-14.1783895,12.0834742,51.0305328,-122.3740463,-4.3129773
3930,-19.6131992,-14.5183649,11.8823624,41.3053436,11.1526718,93.0916061
3940,-19.6131992,-14.9995966,11.0443964,38.8167953,105.4580154,179.6564941
3950,-18.3083668,-15.4856176,10.1034794,46.0687027,146.6335907,250.1297760
3960,-16.5725803,-16.3164005,9.1074963,62.8091621,160.3282471,250.1297760
3970,-15.3276005,-17.0873299,7.1322904,80.4198456,166.0229034,250.1297760
3980,-14.2597923,-18.4496231,5.2217274,91.1068726,162.4656525,250.1297760
3990,-13.7809544,-19.6131992,3.7229645,99.7099228,156.2671814,250.1297760
4000,-12.4090843,-19.6131992,2.5258698,103.8015289,162.4122162,250.1297760
4010,-11.5783005,-19.6131992,1.2018831,96.9618301,169.4580078,250.1297760
4020,-7.6757712,-19.6131992,2.2050486,82.7557220,166.8015289,250.1297760
4030,5.3510137,-19.6131992,3.8139439,81.3435135,202.2290039,250.1297760
4040,19.6126022,-19.6131992,1.7884595,66.9847336,250.1297760,250.1297760
4050,19.6126022,-19.6131992,-0.5386927,-10.4351149,250.1297760,250.1297760
4060,19.6126022,-19.6131992,2.2242019,-131.5114441,250.1297760,250.1297760
4070,19.6126022,-2.4492557,11.3029680,-227.5725250,250.1297760,250.1297760
4080,19.6126022,6.6319046,19.6126022,-210.4045868,250.1297760,250.1297760
4090,19.6126022,4.9368186,19.6126022,-85.4503784,93.7251892,32.2137413
4100,19.6126022,4.8721757,19.6126022,33.5801544,-159.0992432,-87.3053436
4110,19.6126022,8.1953106,15.7753143,72.1526718,-250.1374054,-90.3053436
4120,19.6126022,12.1481171,9.4498653,59.1832047,-183.6641235,-58.7862587
4130,19.6126022,15.0402985,5.2624283,16.4503822,-6.3664122,-53.0228996
4140,19.6126022,17.5134964,3.1148405,-42.2290077,154.5343475,-86.4503784
4150,19.6126022,16.8886127,3.3853838,-93.9236679,232.6183167,-154.8702240
4160,19.6126022,13.9916430,6.7971039,-111.8396912,204.7938995,-242.5038147
4170,19.6126022,10.1633339,10.4386663,-90.5038147,92.7862625,-250.1374054
4180,19.6126022,6.8641410,12.8089132,-45.9007645,-46.4045792,-250.1374054
4190,19.6126022,3.4380560,13.5894194,-2.4198472,-154.1145020,-250.1374054
4200,19.6126022,0.7637464,12.6341381,28.8091602,-202.2900696,-250.1374054
4210,17.4656124,-1.4628497,10.9270811,43.5725174,-188.8473358,-250.1374054
4220,13.3930960,-2.9735832,8.5975342,42.6870232,-133.3893127,-250.1374054
4230,8.8297710,-4.3526363,6.8473821,31.5725193,-69.2290039,-250.1374054
4240,4.4292507,-5.3079181,6.4092450,21.7251911,-20.8549614,-250.1374054
4250,1.0366840,-6.0549049,6.7133074,23.4961834,3.0916030,-250.1374054
4260,-1.2306134,-6.3062949,7.0125809,35.3740463,6.5877862,-250.1374054
4270,-2.1284344,-6.3302369,6.8425937,53.2595406,-11.2442751,-250.1374054
4280,-2.7557120,-6.6630292,6.6534524,70.5343475,-39.7175560,-250.1374054
4290,-4.3909435,-7.5800037,6.6821828,83.2900772,-68.7709961,-250.1374054
4300,-6.9814563,-9.4139528,6.9359670,94.1908417,-90.3816757,-250.1374054
4310,-11.5519638,-11.3843708,7.4267755,108.3587799,-98.3206100,-250.1374054
4320,-17.3171730,-11.4561968,7.2543941,125.0381699,-109.6793900,-250.1374054
4330,-19.6131992,-10.3452930,6.4810710,134.8396912,-124.8320618,-250.1374054
4340,-19.6131992,-9.3517036,5.5329719,136.2671814,-137.1679382,-250.1374054
4350,-19.6131992,-9.4474716,4.5178356,133.3664093,-136.5648804,-198.1297760
4360,-19.6131992,-9.9789820,2.6814921,121.6335907,-118.8244247,-104.0229034
4370,-19.6131992,-10.8097658,0.9145803,96.1450348,-77.5038147,-6.8244276
4380,-19.6131992,-12.2965574,-0.0814024,60.5114517,-8.8091602,89.0000000
4390,-19.6131992,-14.3388004,0.1244979,21.5725193,72.0076370,185.6106873
4400,-18.5142670,-16.2493629,1.5322813,-10.0534353,139.8702240,250.1297760
4410,-16.5366669,-18.3993454,3.6583214,-25.2213745,183.6564941,250.1297760
4420,-14.5087881,-19.6131992,4.8171091,-21.3969460,191.4427490,250.1297760
4430,-12.0308018,-19.6131992,5.5162125,-5.4503818,177.6870270,250.1297760
4440,-10.4266949,-19.6131992,5.2241216,18.5877857,160.6183167,250.1297760
4450,-9.0189114,-19.6131992,3.4332676,42.7862587,136.5419922,250.1297760
4460,-6.8832946,-19.6131992,1.2401901,56.2061081,111.8702316,250.1297760
4470,-2.4803803,-19.6131992,-0.4477134,60.7633591,107.4809189,250.1297760
4480,5.3318601,-19.6131992,-1.6831152,48.1755714,133.4274750,250.1297760
4490,17.2597122,-19.6131992,-0.4740495,22.5343513,197.4732819,250.1297760
4500,19.6126022,-19.6131992,2.1092808,-11.6412210,250.1297760,250.1297760
4510,19.6126022,-19.6131992,8.7938576,-36.8396950,250.1297760,250.1297760
4520,19.6126022,-17.9372673,16.3954086,-33.4656487,250.1297760,250.1297760
4530,19.6126022,-2.7365584,19.6126022,-8.3969469,250.1297760,250.1297760
4540,19.6126022,2.9640064,19.6126022,37.1450386,233.0915985,250.1297760
4550,19.6126022,4.8482337,13.8240499,72.1755753,160.8931274,194.5190887
4560,19.6126022,8.5376797,9.1960821,71.9083939,85.6335907,165.9541931
4570,19.6126022,13.0076313,9.3133974,52.7557259,53.4656487,149.2061005
4580,19.6126022,17.4033623,11.7027979,40.1526718,70.9007645,92.8091583
4590,19.6126022,19.4264526,11.3795824,37.3206100,102.0076370,-15.6564884
4600,19.6126022,18.5310268,8.7340031,30.8396950,101.7480927,-149.0534363
4610,19.6126022,14.8032732,6.7348547,14.6717558,50.8015251,-250.1374054
4620,19.6126022,9.7754755,6.2799587,-3.7557251,-25.8854961,-250.1374054
4630,19.6126022,5.7699966,7.8433647,-13.8702288,-107.3893127,-250.1374054
4640,19.6126022,2.4085546,9.4881725,-9.2137403,-165.9236603,-250.1374054
4650,19.6126022,-0.7733232,10.0962973,1.7786260,-193.0076294,-250.1374054
4660,19.6126022,-4.0581512,9.4355011,10.7404585,-189.3358765,-250.1374054
4670,18.7704449,-7.7475972,8.2743187,15.1145039,-166.2595367,-250.1374054
4680,13.4792862,-11.0946741,7.4052281,18.2442741,-145.8015289,-250.1374054
4690,9.2439651,-13.7091284,6.9551206,23.0000000,-137.2442780,-250.1374054
4700,5.2241216,-15.9476957,7.0700417,27.6412220,-126.3969498,-250.1374054
4710,1.2162483,-17.7864342,7.4171991,34.6641235,-108.4122162,-250.1374054
4720,-2.3223639,-18.7225609,7.8433647,48.5725174,-102.4198456,-250.1374054
4730,-5.9016771,-19.3426571,8.4083929,66.0763321,-119.5801544,-250.1374054
4740,-10.1561518,-19.4743366,8.6095057,83.9389343,-148.9236603,-250.1374054
4750,-15.8495340,-18.8111458,8.1115141,94.6946564,-190.5648804,-250.1374054
4760,-19.6131992,-17.9851513,8.3126259,101.5801544,-227.4961853,-250.1374054
4770,-19.6131992,-16.4552650,8.5855637,111.1221390,-241.1832123,-250.1374054
4780,-19.6131992,-15.0642405,8.2384062,117.9465637,-233.4045868,-250.1374054
4790,-19.6131992,-13.7833490,7.1873569,114.0381699,-209.0076294,-250.1374054
4800,-19.6131992,-12.8711624,6.6295104,101.8167953,-168.1068726,-194.2900696
4810,-19.6131992,-12.3468351,5.9663200,90.3435135,-114.6793900,-114.5496216
4820,-19.0122585,-11.9110928,4.9655490,72.4809189,-50.4656487,-34.9541969
4830,-17.8295288,-11.9541883,4.1347651,51.8931313,20.7328243,42.8167953
4840,-17.2525291,-12.3899307,3.8115497,34.0534363,88.4656525,124.4809189
4850,-17.5733509,-13.0866394,3.6535332,24.0687027,147.2366486,210.1603088
4860,-18.6579189,-14.3076763,3.3805954,20.5801525,178.6106873,250.1297760
4870,-18.5956688,-16.0243092,3.4189026,25.1374054,181.3206177,250.1297760
4880,-17.7313671,-18.5813046,2.3654592,36.2595406,165.2748108,250.1297760
4890,-15.7872849,-19.6131992,1.2737088,44.1679382,143.8396912,250.1297760
4900,-13.4816809,-19.6131992,0.2346306,46.5038185,130.8473358,250.1297760
4910,-11.1832590,-19.6131992,-0.3088504,44.4961815,124.0457993,250.1297760
4920,-0.1388630,-19.6131992,-1.7190280,36.2213745,145.3893127,250.1297760
4930,16.7090473,-19.6131992,-4.2041965,7.2213740,250.1297760,250.1297760
4940,19.6126022,-19.6131992,-7.3860745,-73.6488571,250.1297760,250.1297760
4950,19.6126022,-19.6131992,-5.7652082,-222.4198456,250.1297760,250.1297760
4960,19.6126022,-19.6131992,9.9071560,-250.1374054,250.1297760,250.1297760
4970,19.6126022,-12.0882626,19.6126022,-250.1374054,250.1297760,250.1297760
4980,19.6126022,-2.9472473,19.6126022,-95.1221390,60.0687027,250.1297760
4990,19.6126022,3.0454090,19.6126022,116.5496216,-151.0534363,112.6183243
5000,19.6126022,6.4906478,13.0124197,198.0381622,-250.1374054,31.8167934
5010,19.6126022,11.2143831,-0.4429250,173.4198456,-245.2366486,41.7099228
5020,19.6126022,14.6045561,-6.9455438,92.7099228,-120.1984711,78.0000000
5030,19.6126022,18.2628765,-9.3995876,-13.9923668,51.1297722,88.1984711
5040,19.6126022,19.6126022,-6.2512288,-116.4274826,170.8473358,54.9007645
5050,19.6126022,19.6126022,0.9073978,-179.7633514,209.1068726,-17.4885502
5060,19.6126022,19.3450508,8.2048874,-188.8091583,170.3587799,-113.8931274
5070,19.6126022,16.8431225,12.9238348,-159.2671814,87.5496216,-220.0686951
5080,19.6126022,12.9597473,14.8391867,-113.2366409,-0.7938932,-250.1374054
5090,19.6126022,9.4450769,14.3771076,-72.3206100,-75.9160309,-250.1374054
5100,19.6126022,6.1123657,13.0626974,-45.8854980,-109.7404556,-250.1374054
5110,19.6126022,3.3231349,11.6477318,-30.2977104,-104.5496216,-250.1374054
5120,16.3331604,0.8834559,10.6038647,-22.1755733,-79.8625946,-250.1374054
5130,11.8991213,-1.4700323,9.8592720,-15.8931293,-53.4885483,-250.1374054
5140,8.0157461,-3.4476328,9.5097208,-6.0916033,-34.4274826,-250.1374054
5150,4.9655490,-4.8506279,9.0524302,8.4809160,-27.5877857,-250.1374054
5160,2.3630650,-5.7819676,8.4083929,23.6183205,-30.4045811,-250.1374054
5170,0.6296718,-6.3685441,7.6781654,36.0152664,-41.9465637,-250.1374054
5180,-0.8355721,-6.5409255,7.1610208,45.7328262,-64.0916061,-250.1374054
5190,-2.1380112,-6.7468257,7.0245519,53.3206100,-86.0229034,-250.1374054
5200,-3.5242469,-7.2472115,6.7516141,59.3282433,-101.7175598,-250.1374054
5210,-5.4683285,-7.7667508,6.4954362,61.7099228,-112.6564865,-250.1374054
5220,-7.5967631,-8.0779953,6.6031747,61.8167953,-117.8702316,-250.1374054
5230,-10.0819321,-8.5472565,7.0053983,63.8320618,-115.3282471,-250.1374054
5240,-12.2726154,-8.4179697,7.3597383,69.5267181,-107.6793900,-250.1374054
5250,-13.3883076,-7.7691450,7.5871863,79.5725174,-105.6870193,-250.1374054
5260,-13.2829628,-7.4219875,7.3908629,89.7175598,-102.9160309,-250.1374054
5270,-13.4194317,-7.4650826,6.9575148,94.9160309,-91.4656525,-202.7251892
5280,-13.4457684,-7.3501616,6.5552907,96.0457993,-65.8091583,-152.0915985
5290,-13.8910875,-7.4219875,6.2057390,96.0076370,-25.8702297,-98.6641235
5300,-15.6675758,-8.0037756,5.3534074,96.5114517,11.6030531,-35.9541969
5310,-17.1160603,-8.6430235,4.4723458,97.0687027,39.8625946,39.6183205
5320,-18.1838684,-9.5983057,3.9336534,99.7022934,62.9083977,125.3664093
5330,-17.4392757,-10.3788109,3.6271970,109.1679382,69.1068726,212.9694672
5340,-15.8375635,-12.1193867,2.6910689,122.3129807,69.6259537,250.1297760
5350,-14.4776640,-14.1209297,1.3048333,131.8854980,78.6717529,250.1297760
5360,-12.5718889,-15.8279867,0.0239419,129.8015289,102.6412201,250.1297760
5370,-11.5687237,-18.1431675,-0.6871324,121.8549652,126.8091583,250.1297760
5380,-7.0077925,-19.6131992,-1.0390782,114.2900772,146.9541931,250.1297760
5390,0.1484398,-19.6131992,-1.7740943,108.9542007,178.3587799,250.1297760
5400,14.3890781,-19.6131992,-3.2417326,90.4809189,250.1297760,250.1297760
5410,19.6126022,-19.6131992,-6.1554613,32.1908379,250.1297760,250.1297760
5420,19.6126022,-18.4711723,-8.1593981,-91.7557220,250.1297760,250.1297760
5430,19.6126022,-12.5551291,-1.6424140,-235.8167877,250.1297760,250.1297760
5440,19.6126022,-7.3549500,10.5871058,-250.1374054,250.1297760,250.1297760
5450,19.6126022,-2.6431851,19.6126022,-250.1374054,250.1297760,250.1297760
5460,19.6126022,2.1092808,19.6126022,-139.3435059,250.1297760,250.1297760
5470,19.6126022,5.6143742,19.6126022,-8.7709923,20.5038166,174.3740387
5480,19.6126022,7.0891948,11.6333666,36.6793900,-120.4122162,122.7175598
5490,19.6126022,8.3652983,7.1969333,16.9770985,-129.6030579,109.4198456
5500,19.6126022,9.4402885,6.6654234,-29.4427490,-44.3740463,97.6641235
5510,19.6126022,10.9629936,9.1984758,-74.3206100,59.9847336,69.2366409
5520,19.6126022,11.6644907,12.5431585,-94.6412201,130.8778687,21.0305347
5530,19.6126022,11.5711174,14.8966465,-82.8473282,125.0763321,-42.9923668
5540,19.6126022,10.8025827,15.1624022,-48.7557259,52.9541969,-120.9618301
5550,19.6126022,9.6006994,13.7091284,-14.5038166,-42.9618340,-196.6412201
5560,19.6126022,8.5520449,11.9063044,7.6946564,-128.4427490,-250.1374054
5570,19.6126022,7.5273318,10.4051476,15.3358774,-189.0458069,-250.1374054
5580,17.8726234,6.0884237,9.2535419,11.9465647,-212.5954132,-250.1374054
5590,14.5087881,4.4819226,8.6693602,4.3969464,-197.9313049,-250.1374054
5600,10.6230183,2.6862805,8.2599535,-4.1679387,-163.8778687,-250.1374054
5610,7.0077925,1.1061156,8.0013809,-9.9312973,-122.9160309,-250.1374054
5620,4.1778607,0.1604107,7.6494355,-11.5267172,-87.0610657,-250.1374054
5630,2.2840567,-0.6105183,7.3166428,-8.0076332,-59.0916023,-250.1374054
5640,0.7134684,-1.0127422,6.9455438,-1.4503816,-43.5267181,-250.1374054
5650,-0.7637464,-1.1970947,6.9575148,6.5419846,-41.5038185,-250.1374054
5660,-2.2074428,-1.1947005,7.3453732,17.5190830,-52.1526718,-250.1374054
5670,-3.1986370,-1.2138541,7.6805596,33.3511467,-69.0763321,-250.1374054
5680,-3.8642218,-1.0869620,7.5991573,52.3358765,-83.0916061,-250.1374054
5690,-4.6662750,-0.5865764,6.9120250,67.1526718,-89.8931274,-250.1374054
5700,-5.0014620,0.0814024,5.6287394,73.0000000,-87.6106873,-249.0305328
5710,-4.8290801,1.0055596,4.5896611,70.6259537,-77.1832047,-221.8931274
5720,-4.9487896,1.8052188,3.6631098,62.2595406,-54.8244286,-193.0076294
5730,-5.0661049,2.4516499,2.7533178,50.2977104,-29.5038166,-160.6717529
5740,-4.4292507,3.3398943,1.8554969,36.9007645,-6.3816795,-128.5419922
5750,-3.3973548,4.1754665,1.1061156,21.4656487,9.2748089,-100.1221390
5760,-2.5546002,5.0254035,0.9888002,5.9389315,16.6793900,-78.6564865
5770,-1.8076130,5.7173243,1.3383518,-7.2900763,9.5114508,-63.3282433
5780,-1.1085097,5.8059096,2.1906834,-14.9847326,1.6106870,-53.8778610
5790,-1.0199248,5.9351954,2.8802099,-16.7633591,0.8778626,-45.7633591
5800,-1.2689204,5.9375896,3.6655040,-14.8854961,2.1984732,-36.4045792
5810,-1.4221486,5.8729467,4.6016321,-7.4580154,3.7786260,-26.4580154
5820,-1.7645177,5.8873119,4.7955613,20.7633591,-0.5419847,-9.1908398
5830,-2.0326669,5.8154860,4.3598189,38.3664131,-10.1068707,-2.1679389
5840,-2.0829449,5.7005649,3.7205703,54.6946564,-22.9312973,3.3206108
5850,-2.0733681,5.5066357,2.8514795,69.2213745,-38.8854980,6.4580154
5860,-2.0973101,5.2672167,1.7740943,79.6793900,-55.2824440,8.8931293
5870,-2.4061604,4.8817525,1.0318956,85.4427490,-70.2213745,11.9312973
5880,-2.8658447,4.5729017,0.4620786,87.1526718,-79.2671738,19.3816795
5890,-3.3087699,3.9911139,-0.0861908,84.9465637,-77.6183243,33.3740463
5900,-4.2736282,3.5960727,-0.5315101,77.9007645,-63.7480927,55.8473282
5910,-5.4204450,3.0549858,-0.9672526,65.5343475,-36.5648842,91.6793900
5920,-6.5361371,2.2625091,-1.1396341,47.8015251,3.8549619,140.3816833
5930,-7.9894104,0.9169745,-0.7014975,27.2595425,50.3282433,206.3511505
5940,-9.9215212,-0.5315101,-0.0287303,7.8931298,95.7022934,250.1297760
5950,-11.0348196,-2.5019281,1.1085097,-10.3664122,135.4885559,250.1297760
5960,-10.9701757,-4.7189474,3.1579359,-22.8549614,163.8167877,250.1297760
5970,-7.8337879,-7.4435349,5.6191626,-25.6488552,178.5877838,250.1297760
5980,-2.5138988,-12.1337519,6.1602492,-18.9007626,175.9236603,250.1297760
5990,9.8664551,-13.8288383,5.1762376,-0.1450382,170.5267181,250.1297760
6000,19.6126022,-12.2079716,3.5553713,9.2595415,204.8854980,250.1297760
6010,19.6126022,-7.4195933,1.7333932,-5.0152674,209.7404633,250.1297760
6020,19.6126022,-0.5410868,1.4772149,-32.3129768,176.7786255,250.1297760
6030,19.6126022,5.2360926,4.1611013,-49.9541969,74.5496216,250.1297760
6040,19.6126022,7.4459291,8.4945841,-30.3587780,-72.0381699,156.3664093
6050,19.6126022,5.7963328,10.5344334,23.0763359,-193.2290039,25.6183205
6060,19.6126022,4.4436154,8.8225880,76.1832047,-250.1374054,-38.5343513
6070,19.2516766,4.1156116,5.7604198,108.8244247,-250.1374054,-47.3816795
6080,15.7226419,4.0820932,2.4564383,118.3969498,-215.3358765,-23.9618320
6090,14.2214851,5.0684991,-0.7086801,106.7709961,-137.0000000,12.4809160
6100,14.3747139,5.8921003,-3.1363883,78.0000000,-49.4274826,46.0000000
6110,14.9277716,6.4643116,-4.0844874,39.8473282,22.4961834,69.4580154
6120,15.5215302,6.5361371,-3.1675127,8.2366409,62.2213745,76.3587799
6130,16.5701847,6.1722202,-1.5203103,-10.5877867,71.2671738,71.4045792
6140,18.7967815,6.3206601,0.1221037,-15.4503813,59.6183205,55.3816795
6150,19.6126022,6.4906478,1.0821736,-11.9618320,47.6641235,26.7404575
6160,19.6126022,6.5959921,1.3048333,-8.4732828,41.9465637,-9.7557249
6170,19.6126022,6.4906478,1.1779412,-8.3435116,41.7404594,-43.6717567
6180,19.6012287,6.0908179,0.9073978,-12.2213745,43.4427490,-69.1374054
6190,17.8678360,5.1762376,0.6416427,-17.4274807,42.7633591,-86.0992355
6200,16.7377777,4.7045822,0.6895266,-24.2061062,29.8015270,-98.2900772
6210,16.5414543,4.9272418,1.4341195,-29.2442741,8.1526718,-110.1450348
6220,17.0178986,4.9751258,2.2146254,-30.3587780,-12.0305347,-126.6106873
6230,17.2908363,5.0349803,2.7748656,-28.9160309,-23.3053436,-146.7786255
6240,16.8550930,5.0349803,3.0382264,-26.6793900,-27.2213745,-167.3664093
6250,16.1057129,4.6662750,3.2130022,-24.9770985,-26.8167934,-185.6106873
6260,15.1552191,4.6303625,3.2824337,-23.7862587,-23.7786255,-201.9694672
6270,14.3124647,4.2353210,3.3135581,-22.2824421,-22.4809170,-216.2366486
6280,13.5439301,4.0820932,3.2513094,-20.7022896,-25.1068707,-228.5343475
6290,12.7466650,4.0677280,3.2153964,-18.7786255,-33.7099228,-241.3282471
6300,11.9015160,3.8666160,3.2537034,-16.7709923,-41.2137413,-250.1374054
6310,10.5966825,3.6846576,3.1028695,-15.5648851,-45.8702278,-250.1374054
6320,9.2463598,3.4883339,2.9975252,-14.4274807,-50.0992355,-250.1374054
6330,8.1881275,3.2058196,3.0358322,-12.1526718,-52.3740463,-250.1374054
6340,7.1753860,3.2130022,2.9017577,-10.3511448,-51.6030540,-250.1374054
6350,6.0956063,3.1315999,2.6431851,-9.3129768,-51.0381660,-250.1374054
6360,5.2360926,3.1842721,2.7533178,-9.2671757,-50.3282433,-250.1374054
6370,4.5345950,3.1842721,2.6647329,-8.4122133,-47.6335869,-250.1374054
6380,3.6822634,3.2728570,2.6048782,-7.6030536,-44.6641235,-250.1374054
6390,2.9640064,3.2944047,2.5043221,-7.1984735,-41.3664131,-250.1374054
6400,2.2146254,3.3758070,2.4612267,-6.8702292,-37.2213745,-243.0381622
6410,1.6041069,3.5960727,2.4301023,-7.0152674,-32.9771004,-235.8320618
6420,1.0175306,3.8809812,2.2194135,-7.3664122,-31.4122143,-229.3206177
6430,0.4070122,4.0413918,2.2337787,-7.9160304,-33.5877876,-223.9694672
6440,-0.0670373,3.9408360,2.2074428,-7.8854961,-34.0305328,-216.7251892
6450,-0.5267217,3.8737986,1.9608412,-7.3969464,-31.5343513,-207.1297760
6460,-0.9313397,3.9025288,1.9153515,-7.7480917,-27.2442741,-196.7633514
6470,-1.3622938,4.0437860,1.8698620,-9.1221371,-22.4656487,-185.1145020
6480,-1.7836711,4.1515245,1.7932479,-10.7251911,-16.9541988,-174.0076294
6490,-2.1451938,4.2568688,1.9201399,-12.6335878,-11.7938929,-163.3969421
6500,-2.5426292,4.4484038,1.9177457,-14.0763359,-6.5267177,-152.2290039
6510,-2.9951310,4.5202298,2.1691356,-15.0916033,-3.0305343,-139.9313049
6520,-3.2656744,4.5154414,2.4444675,-13.7480917,-1.1908396,-127.1374054
6530,-3.3925664,4.5417776,2.5929072,-10.5496187,-1.7251909,-114.8244247
6540,-3.4691806,4.7189474,2.5091105,-6.3129773,-2.6488550,-103.7022934
6550,-3.5529771,4.6495161,2.5450234,-2.5801528,-3.6183207,-93.3740463
6560,-3.6918402,4.6423335,2.4324965,1.2900764,-3.7709923,-84.0305328
6570,-3.8139439,4.5393834,2.3822186,5.0381680,-4.0763359,-74.4274826
6580,-3.9671719,4.3693957,2.1715298,8.4122133,-5.5419846,-64.9007645
6590,-4.0389977,4.1730723,2.0901275,11.9541988,-6.8549619,-55.7786255
6600,-4.1826491,3.9863255,1.9943599,15.2213745,-7.1755724,-46.7862587
6610,-4.2305326,3.7301471,1.8578910,18.2977104,-9.8091602,-37.5572510
6620,-4.1802549,3.3327117,2.0829449,22.3511448,-14.4580154,-28.7328243
6630,-4.4220681,3.1244173,2.0949159,28.2748089,-12.2519083,-18.6717548
6640,-5.3534074,2.6623387,1.7501525,35.0076332,-5.1679387,-3.4198472
6650,-6.5098009,2.2792683,1.0342898,40.0458031,-2.4122138,18.7022896
6660,-6.8138633,2.7221935,0.3998296,42.4656487,-5.3206105,43.4427490
6670,-7.1945391,1.9512644,-0.4764437,38.6412201,-4.5877862,68.7709961
6680,-7.3884687,1.4867916,-0.6799498,28.9236641,1.5648855,98.7022934
6690,-6.8713236,1.2330076,-0.7445929,15.2366409,19.6259537,130.4961853
6700,-6.0596933,0.7062859,-0.8068419,-3.0992367,53.4961815,158.4427490
6710,-5.8059096,0.0191535,-0.5889706,-23.7099228,90.8931274,185.0152740
6720,-5.7364779,-0.8331779,-0.0694315,-42.8778610,126.8625946,212.5648804
6730,-6.0094156,-1.9752063,0.4740495,-57.9312973,157.8015289,242.1068726
6740,-6.3565731,-2.9807658,0.8331779,-70.3435135,178.1755676,250.1297760
6750,-6.7611909,-4.2065907,1.2904681,-79.8625946,185.8244324,250.1297760
6760,-7.3262196,-5.3605900,1.8746504,-85.0229034,184.8396912,250.1297760
6770,-7.8266053,-7.0628591,2.5019281,-84.9236679,168.3358765,250.1297760
6780,-6.2799587,-9.1697454,3.3973548,-81.3053436,144.1526642,250.1297760
6790,-2.1715298,-11.4777441,4.2999644,-73.9770966,123.3206100,250.1297760
6800,5.2696109,-14.0323448,4.5992379,-64.6030502,116.2137375,250.1297760
6810,16.1727505,-14.2526102,4.2281384,-61.4656487,141.1297760,250.1297760
6820,19.6126022,-10.5895004,3.0190730,-79.6793900,202.3435059,250.1297760
6830,19.6126022,-4.0126615,1.5035510,-138.0076294,250.1297760,250.1297760
6840,19.6126022,1.3575054,4.6734576,-213.3816833,243.3893127,250.1297760
6850,19.6126022,3.8881636,12.9693241,-241.5954132,161.3816833,250.1297760
6860,19.6126022,3.8019729,19.6126022,-203.8091583,49.6412201,190.5267181
6870,19.6126022,2.6264257,19.6126022,-117.8167953,-37.4274826,111.3587799
6880,19.6126022,2.2098370,19.6126022,-20.6946564,-87.2595444,73.1679382
6890,18.2221756,2.5641768,18.3227310,53.2519073,-112.9923630,72.4198456
6900,15.0666342,2.8682389,12.9597473,92.2137375,-113.8167953,93.1603088
6910,15.2246504,3.6104376,8.4778252,103.0610657,-84.7938919,122.2137375
6920,17.7864342,4.6255741,5.5736732,96.9847336,-38.4656487,138.8625946
6930,19.6126022,5.6574697,3.5362179,76.0610657,5.5954199,138.2900696
6940,19.6126022,6.2631998,2.4564383,48.3435097,40.6564903,123.3435135
6950,19.6126022,6.4595232,2.7413468,21.5648861,63.8854980,96.9312973
6960,19.6126022,7.1418672,4.0725164,-4.8320613,52.1679382,18.7709923
6970,19.6126022,7.8936424,4.5393834,-6.6183205,23.8015270,-29.4045811
6980,19.6126022,7.8457589,4.8099265,-5.5419846,-6.2671757,-79.1755753
6990,19.6126022,7.4267755,4.9535780,-4.0610685,-34.0381660,-120.6259537
7000,19.6126022,6.7444315,4.9032998,-3.1984732,-55.8396950,-152.7633514
7010,19.6126022,6.2895355,5.0014620,-2.4809160,-65.9083939,-179.0076294
7020,19.6126022,6.2009506,4.8937230,-2.6717558,-61.4732819,-202.5801544
7030,19.6126022,5.7963328,4.6854286,-5.6106873,-51.5496178,-224.7633514
7040,18.9428272,5.5545197,4.5992379,-11.6793890,-44.4122124,-244.5114441
7050,18.2341461,5.2313042,4.6973996,-19.2671757,-42.9618340,-250.1374054
7060,17.6930599,4.8673873,4.8027439,-25.6183205,-46.5343513,-250.1374054
7070,17.5063133,4.3239059,4.9535780,-29.4274807,-56.8167953,-250.1374054
7080,17.1280308,3.9575951,5.7269011,-31.1603050,-73.3435135,-250.1374054
7090,16.4600525,3.5146701,6.4307928,-29.2671757,-86.9770966,-250.1374054
7100,15.3180237,2.8538737,7.0389171,-24.3664131,-95.9160309,-250.1374054
7110,13.8719339,2.0925217,7.3693151,-16.2061062,-98.6106873,-250.1374054
7120,12.1409349,1.1994889,7.1370788,-7.2213740,-94.2900772,-250.1374054
7130,10.3644457,0.7134684,6.7923155,0.2519084,-83.4503784,-250.1374054
7140,8.5879574,0.2466015,6.2488346,4.9465647,-71.2671738,-250.1374054
7150,6.4451580,-0.1556223,6.0884237,7.5496182,-60.3969460,-250.1374054
7160,4.5465660,-0.2178712,6.0070214,9.9236641,-52.3129768,-250.1374054
7170,2.9927368,-0.2370248,5.9519548,13.5725193,-46.7251892,-250.1374054
7180,1.7836711,-0.4285599,6.0596933,19.4427490,-46.0000000,-250.1374054
7190,0.7469871,-0.5554519,5.9902620,26.9694653,-51.2671738,-250.1374054
7200,-0.1244979,-0.4668669,5.8585815,34.6259537,-60.2900772,-250.1374054
7210,-0.8355721,-0.4788379,5.7149301,40.6335869,-68.0229034,-250.1374054
7220,-1.5610116,-0.7445929,5.4491754,44.4656487,-71.1603088,-250.1374054
7230,-2.5330524,-1.0510491,5.2217274,46.2671738,-66.4809189,-250.1374054
7240,-4.2879934,-1.2689204,4.8913293,47.9465637,-58.9618340,-250.1374054
7250,-6.1051831,-1.7046629,4.7476778,49.1221390,-51.9312973,-250.1374054
7260,-8.3485384,-2.1260402,4.5681133,50.0610695,-48.8473282,-250.1374054
7270,-10.5607700,-2.3199697,4.6471219,53.8473282,-52.7328262,-250.1374054
7280,-12.5862541,-2.1212518,4.6878228,59.9389305,-64.7862625,-250.1374054
7290,-13.7450418,-1.7645177,4.5657191,64.8549652,-80.3816757,-220.4198456
7300,-14.1759958,-1.5993185,4.1036406,66.7557220,-89.2671738,-178.6946564
7310,-13.9724894,-1.2952565,3.7540891,64.6183243,-87.1908417,-137.3587799
7320,-13.5056229,-1.0797794,3.3973548,58.8015251,-73.6335907,-96.8931274
7330,-13.1488886,-0.7924767,3.3829896,50.7328262,-52.3587799,-57.4885483
7340,-12.5120344,-0.7948709,3.5912843,42.9389305,-25.7633591,-18.8167934
7350,-11.7363167,-1.1061156,3.6104376,37.4732819,5.3206105,19.2213745
7360,-11.1042509,-1.4269369,3.3135581,32.0228996,36.8702278,55.5725174
7370,-10.2614956,-1.9297167,3.0286496,24.9312973,65.5343475,90.4580154
7380,-9.5504217,-2.2960277,2.9616125,18.4122143,88.4809189,120.8015289
7390,-8.9734221,-2.9089401,3.1387823,14.9465647,102.3206100,149.3129730
7400,-8.6717539,-3.8785870,3.4955165,17.6335869,110.2824402,177.9770966
7410,-8.8369532,-4.8482337,3.5338237,26.2213745,111.5496216,210.9618378
7420,-9.2176294,-5.6718349,3.2632802,38.0763359,101.3969498,248.3053436
7430,-8.9303265,-6.4092450,2.9999194,51.5496178,84.7633591,250.1297760
7440,-8.6693602,-7.1610208,2.5043221,65.6564865,67.5877838,250.1297760
7450,-8.7076674,-8.4778252,2.0901275,78.4427490,54.7633591,250.1297760
7460,-8.8034344,-9.9095497,1.7333932,89.4274826,47.8549614,250.1297760
7470,-8.0348997,-11.6668854,1.1683644,96.0687027,48.2519073,250.1297760
7480,-8.2120695,-13.8479919,1.4556671,99.7709961,60.0152664,250.1297760
7490,-7.5704269,-16.0410690,1.6591733,103.6259537,84.8778610,250.1297760
7500,-5.5569139,-19.3235035,1.1348459,104.2213745,118.6335907,250.1297760
7510,-0.4812321,-19.6131992,0.3423691,99.3435135,144.5648804,250.1297760
7520,11.5136566,-19.6131992,0.1149211,91.3282471,189.0534363,250.1297760
7530,19.6126022,-19.6131992,-1.3191984,73.3129807,250.1297760,250.1297760
7540,19.6126022,-17.5541973,-1.1563935,40.5954208,250.1297760,250.1297760
7550,19.6126022,-10.1178446,1.0893562,29.1984730,179.0229034,250.1297760
7560,19.6126022,-3.9671719,2.5019281,46.4427490,64.0457993,250.1297760
7570,19.6126022,-0.2274480,1.8698620,65.2213745,-32.7328262,250.1297760
7580,19.6126022,1.4101776,0.1699875,60.4274826,-72.3206100,235.4045868
7590,19.6126022,1.6879035,-0.7637464,36.9923668,-62.8091621,170.2519073
7600,19.6126022,1.5179161,-0.1939293,5.9465647,-8.9160309,136.0763397
7610,19.6126022,1.6543850,1.2162483,-18.3587780,61.7404594,124.5419846
7620,19.6126022,2.4827745,2.7221935,-28.4885502,124.3587799,122.7862625
7630,19.6126022,3.3686244,3.4380560,-25.3740463,165.2748108,117.8091583
7640,19.6126022,4.1204000,3.6655040,-15.0534353,181.1832123,109.5648880
7650,19.6126022,4.8195033,2.6982515,1.0992366,174.1450348,101.2824402
7660,19.6126022,5.4755111,0.9313397,11.7099237,141.0152740,85.2824402
7670,19.6126022,5.8777351,-0.9337339,13.6030531,90.1526718,61.1679382
7680,19.6126022,6.0620875,-2.1571648,5.4274807,43.2824440,36.5801544
7690,19.6126022,6.3015065,-2.6647329,-10.6641226,11.9007635,13.1603050
7700,19.6126022,6.1434903,-2.2505381,-29.5877857,-1.2977099,-10.3435116
7710,18.7895985,5.4707227,-1.0773853,-45.3206100,-2.7786260,-30.2061062
7720,17.0226879,4.3693957,0.3327923,-54.7938919,-3.4351146,-42.3740463
7730,15.3994265,3.5074875,1.8818330,-55.7099228,-3.4732823,-46.1984749
7740,14.3052816,3.0094962,2.8059900,-49.4427490,0.6793893,-44.2671738
7750,13.7570124,2.7365584,3.1220231,-39.2442741,5.0763359,-41.0152664
7760,13.4385853,2.8012016,3.0382264,-28.2900772,8.9083967,-37.5648842
7770,13.7450418,3.1220231,2.6072724,-20.2366409,13.5954199,-34.9923668
7780,14.4609041,3.7085996,2.2409613,-16.5038166,18.6030540,-35.3511467
7790,15.5335016,4.4029145,1.6879035,-16.4122143,22.7175579,-41.2213745
7800,16.4624462,4.7572546,1.2258250,-20.3664131,20.5419846,-53.2671738
7810,17.2836533,5.1355362,1.1468167,-27.0458012,11.2824430,-69.8167953
7820,18.1527443,5.5090299,1.0654143,-36.0381660,0.3740458,-90.3893127
7830,18.9715576,5.6814117,1.2689204,-45.4656487,-13.1068707,-113.1908417
7840,19.6126022,5.8513989,1.8554969,-54.6030540,-28.4732819,-139.9389343
7850,19.6126022,6.1578555,2.6072724,-63.4885483,-40.6259537,-171.3511505
7860,19.6126022,6.1865854,3.2728570,-70.9847336,-46.7938919,-206.0458069
7870,19.6126022,5.8346395,3.9001346,-76.3969498,-46.0305328,-242.4656525
7880,19.6126022,4.9248476,4.5537481,-79.8702316,-37.9083977,-250.1374054
7890,19.6126022,3.3255291,4.8554163,-81.7862625,-30.1221371,-250.1374054
7900,19.2756195,1.6639616,5.2145448,-81.3206100,-32.0305328,-250.1374054
7910,17.1950684,0.6943150,5.6742291,-74.8320618,-38.7175560,-250.1374054
7920,16.5366669,0.8786675,5.9471664,-61.9389305,-42.2442741,-250.1374054
7930,16.1128960,1.6591733,5.7676024,-47.8091621,-43.8091621,-250.1374054
7940,15.4592810,1.8387375,4.9870968,-38.8702278,-45.0687027,-250.1374054
7950,13.6109667,1.4652439,4.3334827,-34.8167953,-48.1145020,-250.1374054
7960,11.7243462,0.5865764,4.0150557,-32.9923668,-55.1603050,-250.1374054
7970,9.7922344,-0.2274480,4.1587071,-31.1526718,-65.5877838,-250.1374054
7980,7.7595682,-1.0534433,4.2927818,-28.0992374,-76.1908417,-250.1374054
7990,5.6718349,-1.8171898,4.7021880,-24.3816795,-87.7633591,-250.1374054
8000,3.8833754,-2.0733681,5.0900469,-19.8702297,-98.0000000,-250.1374054
8010,2.2002602,-2.3486998,5.5281835,-13.2290077,-104.5114517,-250.1374054
8020,0.2849085,-2.4971397,5.7532372,-7.1145039,-109.8854980,-250.1374054
8030,-1.5705882,-2.4947455,6.1315193,-2.0000000,-113.5267181,-250.1374054
8040,-3.0142846,-2.2601149,6.5696559,4.2442746,-114.7175598,-250.1374054
8050,-3.9025288,-2.0805507,6.9958215,13.0610685,-108.2366409,-250.1374054
8060,-5.0996237,-2.2026544,6.7755561,22.3358784,-98.6030502,-250.1374054
8070,-6.7875271,-2.4037662,6.3254485,28.6946564,-89.2748108,-250.1374054
8080,-8.8106174,-2.6790979,5.6191626,30.6030540,-80.1068726,-250.1374054
8090,-11.0228481,-2.7868366,5.1953912,28.4045811,-71.4503784,-250.1374054
8100,-12.6197729,-2.6120608,5.0301919,25.4885502,-63.7938919,-250.1374054
8110,-13.6684275,-2.5306582,5.1355362,23.7404575,-55.6870232,-228.3511505
8120,-14.0155849,-2.3750360,5.3917146,24.6564884,-45.2519073,-183.8778687
8130,-13.9533358,-2.3008161,5.4204450,27.8244267,-27.5038166,-137.4580078
8140,-13.9485474,-2.1715298,5.1427188,30.4274807,-7.3282442,-92.4198456
8150,-13.7761660,-2.1451938,4.7524662,30.4503822,10.3740454,-48.8549614
8160,-13.2398672,-2.3917952,4.5657191,29.3816795,27.8778629,-7.2671757
8170,-12.7777891,-2.8179610,4.4819226,29.3206100,46.0305328,34.0916023
8180,-12.6987810,-3.4332676,4.4292507,31.4045811,63.1221390,76.3969498
8190,-12.4497852,-3.9791429,4.4412212,35.4274826,72.0992355,120.0152664
8200,-11.8943329,-4.6112089,4.4795284,41.7862587,77.4198456,162.7786255
8210,-11.3101511,-5.3174949,4.3430595,49.0687027,82.5038147,205.4122162
8220,-11.1018562,-6.1698260,4.0102673,56.3893127,87.1526718,249.6183167
8230,-10.9558105,-7.4914188,3.5625539,63.0534363,91.5038147,250.1297760
8240,-10.4171181,-8.6310530,3.3877780,67.6335907,101.9770966,250.1297760
8250,-9.1936874,-9.8281479,3.4117200,67.2137375,127.6717529,250.1297760
8260,-8.5281029,-11.2790270,3.5505829,63.6717567,158.5648804,250.1297760
8270,-7.7068958,-13.2183199,3.9504125,57.8396950,180.2977142,250.1297760
8280,-6.2679882,-15.5358953,4.6064205,55.5496178,187.8396912,250.1297760
8290,-4.6614871,-18.7393208,4.9320302,58.3740463,183.3282471,250.1297760
8300,-0.5386927,-19.6131992,5.1115947,67.3969498,158.6183167,250.1297760
8310,8.9734221,-19.6131992,5.7532372,85.8931274,147.9389343,250.1297760
8320,19.6126022,-19.6131992,5.3222833,107.7633591,203.3129730,250.1297760
8330,19.6126022,-19.6131992,3.8953462,109.2290039,250.1297760,250.1297760
8340,19.6126022,-12.7179346,2.6623387,75.9007645,250.1297760,250.1297760
8350,19.6126022,-6.9335728,2.5450234,25.1374054,250.1297760,250.1297760
8360,19.6126022,-1.6160779,4.2065907,-9.0152674,250.1297760,250.1297760
8370,19.6126022,0.7182568,5.9591374,-0.3893130,195.1984711,250.1297760
8380,19.6126022,1.0941446,4.4747400,29.7328243,13.0305347,201.1221313
8390,19.6126022,1.7405758,1.1683644,40.5877876,-115.0229034,135.9770966
8400,19.6126022,2.9113343,-0.2681492,25.5572510,-173.3358765,106.7251892
8410,19.6126022,3.9168940,0.2801202,-1.2671756,-154.0381622,91.4732819
8420,19.6126022,4.3765783,1.9273225,-23.6259537,-74.6030502,81.8244247
8430,19.6126022,4.8171091,2.9448531,-37.8702278,31.0076332,75.8625946
8440,19.6126022,4.6614871,3.4524212,-45.0839691,118.8931274,70.2519073
8450,19.6126022,4.4938936,3.8953462,-39.3893127,164.3511505,70.0534363
8460,19.5701046,4.7524662,3.3303175,-30.6412220,169.4656525,68.2748108
8470,19.6126022,5.0948353,2.6551561,-22.9847336,149.5343475,57.5190849
8480,19.6126022,5.5066357,2.2265961,-17.5114498,118.6106873,37.6717567
8490,19.6126022,5.8083038,1.4652439,-16.6717548,84.2137375,12.6030531
8500,19.1056328,5.8513989,0.9576758,-21.3740463,52.5267181,-13.2442751
8510,17.5637741,5.4324160,1.0917504,-28.2519093,23.4198475,-35.9083977
8520,16.0937424,4.9056940,1.4532729,-34.6793900,-2.0916030,-52.0763359
8530,14.7314482,4.3454537,2.2649033,-38.5725174,-22.9618320,-61.4122124
8540,13.9293938,3.7900019,3.0932927,-38.2748108,-35.5419846,-63.9541969
8550,13.7857428,3.5673423,3.8163381,-34.7786255,-38.7328262,-62.6793900
8560,14.0395269,3.7205703,4.3454537,-29.1450386,-35.0305328,-61.1984749
8570,14.5183649,3.9839313,4.4938936,-22.4045811,-28.9083977,-62.1297722
8580,15.5119534,4.2353210,4.2927818,-17.3282452,-21.6488552,-66.3587799
8590,16.7162304,4.7524662,4.0342093,-15.7404585,-15.6106873,-74.3435135
8600,17.9540272,5.0900469,3.7780309,-17.6488552,-13.4809160,-88.7404556
8610,19.1606979,5.3893204,3.5529771,-21.8015270,-21.1068707,-108.9312973
8620,19.6126022,5.8083038,3.5290353,-26.6335869,-30.4503822,-134.6870270
8630,19.6126022,5.9232249,3.6559272,-32.9618340,-40.0916023,-167.7328186
8640,19.6126022,5.9950504,3.8905578,-39.4198456,-49.7328262,-203.5725250
8650,19.6126022,5.7676024,4.3334827,-43.8473282,-57.8625946,-238.9694672
8660,19.6126022,5.1810260,4.5752959,-45.8015251,-61.1679382,-250.1374054
8670,19.6126022,4.5034704,4.2472920,-47.7938919,-57.8167953,-250.1374054
8680,19.6126022,3.5601597,3.9240766,-52.3206100,-51.9083977,-250.1374054
8690,18.4376526,2.7365584,3.9480183,-57.3587799,-48.8091621,-250.1374054
8700,17.1136665,2.1835008,4.3358769,-58.9541969,-52.8091621,-250.1374054
8710,15.8231983,1.6088953,4.9176650,-56.4122124,-59.8473282,-250.1374054
8720,14.3220415,0.9935886,5.4467812,-50.2824440,-65.8931274,-250.1374054
8730,12.0715036,0.3375807,5.8011212,-41.9541969,-67.2442780,-250.1374054
8740,9.7251978,-0.2322364,5.9926562,-30.9770985,-65.3129807,-250.1374054
8750,7.4052281,-0.5817881,5.8921003,-18.0381680,-59.3206100,-250.1374054
8760,5.1666608,-0.7302278,5.3869262,-4.6641221,-54.0152664,-250.1374054
8770,3.2513094,-0.6584021,4.5968437,6.6564884,-50.8854980,-250.1374054
8780,1.8459201,-0.5458752,3.6200144,13.6183205,-51.4732819,-250.1374054
8790,0.6272776,-0.5171449,2.9185169,14.1755724,-57.5877876,-250.1374054
8800,-0.1628049,-0.4572902,2.7054341,10.8015270,-68.4656525,-250.1374054
8810,-0.6488253,-0.5243275,2.9664006,5.8091602,-81.4732819,-250.1374054
8820,-1.1085097,-0.7398046,3.3805954,2.6870229,-91.5572510,-250.1374054
8830,-1.7238164,-1.1109039,3.9719603,0.3664122,-96.7251892,-250.1374054
8840,-2.6072724,-1.5538290,4.5705075,-1.1145039,-98.0305328,-250.1374054
8850,-3.6367738,-2.0446377,5.0804701,-1.1374046,-93.6183243,-250.1374054
8860,-4.9224534,-2.2649033,5.7340837,-1.1526718,-85.7175598,-250.1374054
8870,-6.3589673,-2.3343346,6.1889796,0.2824427,-75.2671738,-250.1374054
8880,-8.2384062,-2.4492557,6.5002246,3.5648854,-60.0839691,-250.1374054
8890,-10.5751352,-2.3702476,7.1155310,9.6717558,-47.2748108,-240.5496216
8900,-12.6868095,-2.1691356,7.5919747,19.4427490,-38.4198456,-200.8396912
8910,-14.0706511,-1.9440818,7.9367380,33.7251892,-30.6488552,-153.4198456
8920,-14.7170830,-1.7717001,7.9558916,50.9541969,-21.6793900,-102.2671738
8930,-14.6883526,-1.6088953,7.3812861,68.3740463,-9.2366409,-48.2977104
8940,-13.8168669,-1.7381816,6.2344694,80.8244247,5.8931298,3.1450381
8950,-12.3564119,-1.6759326,4.7692256,86.7480927,20.7175579,51.0076332
8960,-10.6541433,-1.7980363,3.6966286,86.7633591,36.6259537,92.0916061
8970,-9.1362267,-2.0302727,2.8035958,83.3969498,53.5419846,127.6030502
8980,-8.0827837,-2.3343346,2.2960277,78.9007645,70.8320618,159.0458069
8990,-7.8984308,-2.7892308,1.8387375,75.4427490,78.2977066,189.3129730
9000,-8.4059992,-3.5170643,1.7262106,74.4427490,77.3435135,221.2519073
9010,-9.3517036,-4.7859845,1.7453641,76.9847336,67.0992355,250.1297760
9020,-10.1130562,-6.1554613,1.9177457,82.7862625,53.8167953,250.1297760
9030,-10.0627785,-7.6518297,2.1140692,91.7709961,42.1526718,250.1297760
9040,-8.9135675,-8.8680773,2.2672975,100.2061081,37.2366409,250.1297760
9050,-7.2400289,-10.2519188,2.2888451,103.9236679,40.3816795,250.1297760
9060,-5.9208307,-11.8991213,2.2433555,105.5801544,47.0152664,250.1297760
9070,-5.4036856,-14.1999378,2.1188576,110.3282471,49.6030540,250.1297760
9080,-4.1227942,-17.1304264,2.2146254,119.8396912,52.8167953,250.1297760
9090,-1.6184721,-19.6131992,1.9033806,136.2137451,40.6870232,250.1297760
9100,2.5354466,-19.6131992,1.2569494,160.2213745,6.9541984,250.1297760
9110,12.1624823,-19.6131992,1.4365137,192.5954132,-17.6412220,250.1297760
9120,19.6126022,-19.6131992,1.7477583,228.5954132,20.7175579,250.1297760
9130,19.6126022,-14.9014349,1.8028246,249.1603088,131.7709961,250.1297760
9140,19.6126022,-5.0972295,-0.0359128,250.1297760,250.1297760,250.1297760
9150,19.6126022,2.7221935,-4.4388270,225.9923706,250.1297760,250.1297760
9160,19.6126022,4.3286943,-9.1984758,174.7099304,250.1297760,239.2671814
9170,19.6126022,3.0621684,-12.8280668,101.8320618,250.1297760,144.9618378
9180,19.6126022,1.8052188,-13.9317884,18.4656487,249.9236603,103.0916061
9190,19.6126022,0.9265513,-11.0132713,-58.3129768,167.4198456,90.7175598
9200,19.6126022,0.6440369,-4.7716198,-102.0229034,67.9542007,91.3358765
9210,19.6126022,1.9273225,0.9696468,-105.2442780,1.2671756,87.3206100
9220,19.6126022,3.1914546,4.2113791,-84.3206100,-9.4503813,73.4351120
9230,19.6126022,4.3406653,5.3270717,-56.8778610,20.2519093,49.4427490
9240,19.6126022,4.8290801,4.8530221,-33.2595406,66.3435135,28.2061062
9250,19.6126022,4.6519103,3.1746953,-18.5572510,100.7099228,10.7938929
9260,19.6126022,4.6351509,1.6591733,-15.8320608,107.5877838,-6.2977099
9270,18.9978924,4.4699516,0.8978211,-16.6488552,98.2061081,-21.0458012
9280,17.1040897,4.4388270,0.6392486,-16.5114498,79.5801544,-33.9771004
9290,15.5287132,4.3837609,0.3663110,-16.5343513,53.3282433,-45.3893127
9300,14.0993814,4.2975702,0.2968795,-18.2442741,26.5419846,-54.9465637
9310,12.8184900,4.0509686,0.4908088,-20.4961834,4.9923663,-62.1145020
9320,11.7482872,3.6248028,0.9217629,-21.7862587,-10.3664122,-66.0610657
9330,10.8384953,3.3183465,1.5011568,-21.2824421,-18.7557259,-66.8702316
9340,10.0316534,3.0908985,1.9608412,-18.8320618,-22.7938938,-65.3282471
9350,9.3253679,2.8945751,2.3295465,-14.6412210,-22.8167934,-61.7557259
9360,8.6166878,2.6144550,2.3415172,-9.9847326,-21.4656487,-56.7328262
9370,8.2503767,2.3486998,2.4372849,-5.2977099,-19.2900772,-49.4198456
9380,8.1450329,2.2457497,2.4731977,-0.1145038,-14.5419846,-39.3206100
9390,8.6645718,2.4061604,2.2146254,11.5267172,-5.8854961,-17.7328243
9400,12.9836893,3.8426740,0.8379663,9.8702288,9.1450386,-3.9923663
9410,18.7560806,5.5401545,0.3974355,-9.7251911,24.9160309,-24.4427490
9420,19.6126022,6.6414814,0.0646431,-22.1984730,39.0076332,-50.5419846
9430,19.6126022,7.2735476,-0.5386927,-37.8244286,51.9007645,-89.0381699
9440,19.6126022,7.3310080,-0.7733232,-57.5877876,49.4045792,-135.7022858
9450,19.6126022,7.1658092,-0.6871324,-78.0610657,31.6106873,-184.0229034
9460,19.6126022,6.4834652,0.2489957,-93.2442780,6.6106873,-228.9923706
9470,19.6126022,5.5856438,1.6017127,-100.3969498,-20.3893127,-250.1374054
9480,19.6126022,4.7788019,3.1172347,-98.6946564,-47.7709923,-250.1374054
9490,18.7872047,4.2161674,4.4244623,-88.7633591,-67.6335907,-250.1374054
9500,16.4193516,4.0222383,5.3438311,-70.4885483,-78.5267181,-250.1374054
9510,14.1209297,4.1970143,5.5569139,-46.7328262,-83.7709961,-250.1374054
9520,12.2797976,4.3119354,5.0637107,-21.5725193,-90.1526718,-250.1374054
9530,10.7618818,4.1922259,3.8714044,-1.5725191,-100.0992355,-250.1374054
9540,9.4522600,3.7181761,2.3941894,7.1374044,-113.1603088,-250.1374054
9550,8.0085640,3.2537034,1.3503228,4.0687022,-128.1755676,-250.1374054
9560,7.1155310,2.6431851,0.8355721,-7.9007635,-141.3435059,-250.1374054
9570,6.2751703,2.0637913,1.1516051,-23.4885502,-149.5572510,-250.1374054
9580,5.5952206,1.6136837,1.8052188,-39.5267181,-151.4503784,-250.1374054
9590,4.9655490,1.0558375,2.7940190,-52.6335869,-146.7328186,-250.1374054
9600,4.3933377,0.6847382,3.7085996,-61.4885483,-140.7480927,-250.1374054
9610,3.8450682,0.6751614,4.7404952,-66.5954208,-133.6717529,-250.1374054
9620,3.0525916,0.6177009,5.8394279,-69.0305328,-121.8473282,-250.1374054
9630,2.1835008,0.5626345,6.4427638,-67.5496216,-102.7557220,-250.1374054
9640,1.1563935,0.6488253,7.0652533,-63.0534363,-81.3893127,-250.1374054
9650,0.3016679,0.6919208,7.1131368,-56.9389305,-61.1832047,-250.1374054
9660,-0.5291159,0.6655847,7.1849627,-50.5114517,-44.1145020,-250.1374054
9670,-1.4413021,0.6009415,7.2759418,-43.4045792,-30.5648861,-243.4198456
9680,-2.2984219,0.4668669,7.2448173,-34.4809151,-18.5419846,-227.3664093
9690,-2.8730273,0.6248835,7.1897511,-24.6488552,-11.0229006,-210.1908417
9700,-3.4380560,0.7038917,7.0724359,-13.4503813,-5.5801525,-193.1984711
9710,-3.9121056,0.8738791,6.9144192,-2.9694657,-3.1450381,-176.1068726
9720,-4.3023586,0.9409165,6.7013364,6.0305343,1.0839695,-159.0458069
9730,-4.6902170,0.9911944,6.5361371,14.4427481,8.4961834,-141.8931274
9740,-5.0541339,0.9744351,6.2967181,22.4961834,20.2671757,-124.1908417
9750,-5.4755111,0.9050036,6.0668759,29.1526718,33.7938919,-106.1755753
9760,-6.0932121,0.7781116,5.8442163,35.1984749,48.9694672,-86.6564865
9770,-6.8497758,0.4405309,5.7005649,40.9694672,65.2900772,-65.4198456
9780,-7.7045016,0.0646431,5.4635406,47.9083977,78.5801544,-40.6641235
9790,-8.8010406,-0.4548960,5.2911587,56.2519073,88.0381699,-10.9923668
9800,-10.1729107,-1.0582317,4.9703374,66.2977066,92.6183243,25.9160309
9810,-11.3771887,-1.6639616,4.5872669,77.1832047,94.6946564,69.5038147
9820,-12.7825775,-2.3103929,3.7516949,88.2595444,93.9236679,121.0839691
9830,-13.8336267,-2.8466914,2.4971397,96.7862625,87.7251892,179.6564941
9840,-13.1369171,-3.1818779,1.0055596,95.8854980,87.4503784,237.1374054
9850,-13.0650921,-4.5920553,0.4118006,90.5648880,82.7404556,250.1297760
9860,-10.8025827,-5.0373745,0.1460456,83.2748108,102.3282471,250.1297760
9870,-9.1984758,-6.3086891,-0.3256098,69.4122162,144.6030579,250.1297760
9880,-8.7818871,-8.0444765,-0.7996593,47.8167953,188.9084015,250.1297760
9890,-7.5536675,-10.0436249,-0.5578461,18.9236641,229.0763397,250.1297760
9900,-6.1147599,-12.0954447,0.6991033,-10.3816795,250.1297760,250.1297760
9910,-4.9224534,-14.1951494,2.5234756,-30.4809170,250.1297760,250.1297760
9920,-1.1013272,-17.2405586,4.4579806,-38.5801544,250.1297760,250.1297760
9930,8.4514885,-19.6131992,6.8042865,-32.4580154,250.1297760,250.1297760
9940,19.6126022,-19.4480019,9.0165176,-14.1832066,250.1297760,250.1297760
9950,19.6126022,-14.9445305,10.3764172,4.1908398,250.1297760,250.1297760
9960,19.6126022,-9.2679071,11.3460636,21.6259537,250.1297760,250.1297760
9970,19.6126022,-2.9999194,12.2295198,41.7099228,250.1297760,250.1297760
9980,19.6126022,2.0015423,11.3460636,65.9083939,250.1297760,250.1297760
9990,19.6126022,3.5362179,7.8864598,84.8473282,243.9541931,241.3358765
