timestamp,acclX,acclY,acclZ,gyroX,gyroY,gyroZ
0,5.9902620,3.8091555,6.7468257,-4.1603055,6.7862597,13.6183205
10,5.8801293,3.6942344,6.8282285,-11.4656487,14.3816795,11.5725193
20,5.8921003,3.7397239,6.9120250,-12.7328243,14.9160309,10.4274807
30,5.5210009,3.3925664,8.5855637,-4.8931298,9.3053436,1.4427481
40,5.5569139,3.3782012,8.5879574,0.6717557,2.4503818,-0.1679389
50,5.4779053,3.4332676,8.4083929,5.0076337,-2.7022901,-1.9389313
60,5.3869262,3.3303175,8.1929159,6.9236641,-6.5954199,-1.5038168
70,5.3510137,3.3422885,8.0492649,7.5267177,-6.7480917,-0.2061069
80,5.3893204,3.3925664,7.9678626,6.9618320,-4.8549619,0.8167939
90,5.5593081,3.3782012,7.9487090,5.9847326,-1.7862595,1.2137405
100,5.6933827,3.4524212,7.9415264,5.0152674,-0.0992366,1.1603054
110,5.8370337,3.4619980,7.8912482,4.0000000,2.7709923,0.6641222
120,5.9926562,3.4141142,8.0205345,3.3969467,5.7786260,-0.0992366
130,6.3182659,3.3877780,8.1234846,2.7633588,7.8549619,-1.3893130
140,6.5145893,3.3566537,8.1258793,2.0534351,8.0534353,-3.8320611
150,6.6438756,3.4093258,8.3557215,0.9160305,4.9770994,-7.0763359
160,6.9287844,3.3063757,9.0667953,4.1221375,-10.5648851,-14.8091602
170,7.2903070,3.2153964,9.2463598,6.7099237,-16.8167934,-18.4427490
180,7.5201492,3.2225790,9.4570484,8.6259546,-20.9541988,-22.4809170
190,7.9295554,3.1387823,9.9023676,11.9007635,-26.3053436,-27.6641216
200,8.5376797,3.2776453,10.0340481,15.7938929,-30.7480907,-33.9236641
210,9.8903971,3.2225790,10.0795374,13.0534353,-27.5725193,-39.3664131
220,10.7116032,3.4069316,10.6325951,11.6183205,-18.7633591,-51.9771004
230,10.9534168,3.3303175,11.3556404,13.6106873,-12.2290077,-67.1450348
240,10.6278067,3.3183465,11.8584204,18.1450386,-10.0992365,-78.3816757
250,10.4099360,3.5386121,12.1529055,24.5954189,-5.9923663,-85.3816757
260,10.1848822,3.6176202,12.3755655,31.4961834,0.1679389,-91.8625946
270,9.5959110,3.9959023,12.7658186,42.3129768,0.4961832,-97.2671738
280,10.1154509,4.5561423,12.8089132,54.3435097,-5.0916033,-101.1832047
290,11.2622671,5.4036856,12.9214401,66.1297684,-11.5267172,-110.6183243
300,12.6485033,6.0525107,12.7873659,76.1603088,-21.6259537,-127.0229034
310,13.5175934,6.6199336,12.7897596,81.8549652,-29.4198475,-147.9770966
320,13.5295649,7.1993275,13.1345234,87.9083939,-33.4885483,-168.8320618
330,13.6349087,7.3645267,13.2590208,94.2137375,-32.4274826,-190.2900696
340,13.4026728,7.4842362,13.4122496,101.1068726,-25.7862587,-210.2061005
350,12.2127600,7.4650826,14.0850163,109.3511429,-17.8931293,-228.9694672
360,10.3764172,7.2160869,14.7338419,126.5190811,-18.8473282,-244.3206177
370,8.9518747,6.7923155,14.9493189,152.3511505,-30.0992374,-250.1374054
380,8.0396881,6.3637557,13.7330704,178.7328186,-44.6564903,-250.1374054
390,7.2998838,6.3398137,12.1481171,199.8778687,-62.0458031,-250.1374054
400,6.7085190,5.9591374,10.5344334,216.3435059,-75.0916061,-250.1374054
410,5.8274570,5.5664907,8.6717539,226.2519073,-78.8473282,-250.1374054
420,4.8554163,5.3031297,6.9958215,229.1526642,-75.1145020,-250.1374054
430,4.1084290,4.8434453,5.3294659,228.0000000,-64.5801544,-250.1374054
440,2.9664006,4.7117648,3.9432299,224.5114441,-57.3587799,-250.1374054
450,1.8985922,4.6495161,2.4612267,218.7557220,-58.7251892,-250.1374054
460,0.5674229,4.3310885,1.1563935,208.8320618,-64.7633591,-250.1374054
470,-0.9576758,4.1084290,0.2968795,195.4656525,-71.1145020,-250.1374054
480,-2.6886747,4.4388270,0.0670373,180.7251892,-83.0534363,-250.1374054
490,-4.4340386,4.7189474,0.0407012,166.1755676,-97.3816757,-250.1374054
500,-5.9136481,4.7452836,-0.0909792,151.0381622,-109.6335907,-250.1374054
510,-6.5672617,4.6734576,-0.2944853,134.7786255,-115.2366409,-250.1374054
520,-6.4954362,4.0653338,-0.3112446,118.8167953,-112.2900772,-246.2366486
530,-6.2344694,3.7445123,-0.7398046,101.4503784,-96.6793900,-231.5419922
540,-6.1722202,3.7205703,-1.1707586,83.1984711,-74.2442780,-220.4656525
550,-6.1817970,3.3973548,-1.2234308,61.2366409,-49.4045792,-212.3206177
560,-6.9431496,2.8921809,-0.9864060,39.0916023,-23.5954189,-204.8167877
570,-8.3389616,2.1858950,-0.2801202,20.0839691,-0.2977099,-194.3053436
580,-9.7347746,1.4365137,0.6727672,7.5725193,17.3358784,-178.5877838
590,-11.2024126,0.6919208,1.8195840,3.8931298,26.0458012,-157.6259613
600,-12.0643206,0.0885850,2.6575503,7.2519083,26.6488552,-132.5725250
610,-12.5120344,-0.5075682,3.0645626,14.5419846,22.1068707,-106.6641235
620,-12.5694942,-1.0965388,3.3303175,23.3511448,13.3587790,-80.3435135
630,-12.3755655,-1.7190280,3.5362179,33.0610695,3.7862597,-55.5496178
640,-12.1936073,-2.5138988,3.2584918,43.0687027,-3.4427481,-32.1755714
650,-12.3300753,-3.3207407,2.6479735,49.8702278,-10.4427481,-8.9160309
660,-12.2726154,-4.4148855,1.8435259,49.8320618,-15.7938929,14.3206110
670,-12.1217813,-5.4372044,1.5394639,44.0000000,-10.5648851,38.7022896
680,-12.5383701,-6.4140334,1.5107336,36.7786255,1.1679389,65.1679382
690,-13.3523941,-7.6374645,1.4436963,29.8167934,13.9236641,98.1374054
700,-13.6756105,-8.5759869,1.2761030,22.9236641,21.9312973,133.4045868
710,-13.7115231,-9.2655134,0.9073978,17.0458012,18.7404575,169.4274750
720,-13.3835192,-10.2160063,0.0909792,12.1297712,5.1755724,203.7786255
730,-12.8137016,-11.2239599,-0.9888002,6.3282442,-18.0916023,235.3435059
740,-12.2367020,-12.6221666,-2.2385671,-1.1221374,-47.2061081,250.1297760
750,-12.2869806,-14.7266598,-3.2273674,-8.8854961,-77.2977066,250.1297760
760,-12.4593620,-16.9724083,-2.7820482,-15.0229006,-104.5801544,250.1297760
770,-12.3899307,-19.5629215,-0.8643024,-10.9847326,-119.4122162,250.1297760
780,-11.8057480,-19.6131992,0.8499373,6.7099237,-118.1526718,250.1297760
790,-9.5025377,-19.6131992,1.7525467,28.2366409,-100.9160309,250.1297760
800,-7.5321202,-19.6131992,1.4796091,41.5572510,-50.8625946,250.1297760
810,-5.5281835,-19.6131992,1.1156923,38.4580154,39.5419846,250.1297760
820,-3.3877780,-19.6131992,0.4501076,12.3587790,158.9541931,250.1297760
830,1.7166338,-19.6131992,2.8299320,-24.5954189,250.1297760,250.1297760
840,12.8615856,-19.6131992,5.8705525,-49.4580154,250.1297760,250.1297760
850,19.6126022,-19.6131992,9.3636751,-62.1603050,250.1297760,250.1297760
860,19.6126022,-19.6131992,14.0203733,-47.7480927,250.1297760,250.1297760
870,19.6126022,-19.6131992,17.8486824,28.5114498,117.1450348,250.1297760
880,19.6126022,-11.8488436,13.7594070,125.5267181,-36.0916023,250.1297760
890,19.6126022,-3.9049230,4.3310885,164.5496216,-99.7251892,250.1297760
900,19.6126022,-0.9097920,-2.4181314,127.5038147,-100.3129807,250.1297760
910,19.6126022,0.3567342,-4.3286943,43.2977104,-46.0687027,177.7786255
920,19.6126022,0.6943150,-0.8595140,-33.3206100,46.8702278,151.6717529
930,19.6126022,1.2497669,4.3023586,-72.6106873,147.8015289,150.7251892
940,19.6126022,2.2744799,7.9271612,-73.1068726,218.0534363,138.3206177
950,19.6126022,3.5721307,9.5073261,-44.0763359,243.5496216,117.4274826
960,19.6126022,4.0246325,6.8569584,-15.6717558,234.9923706,96.7099228
970,19.6126022,4.7620430,3.1100521,-8.1145039,195.5038147,69.2366409
980,19.6126022,5.2839761,1.1707586,-19.6488552,137.5419922,35.6030540
990,19.4623661,4.8338685,1.3910241,-37.3129768,89.7404556,3.5954199
1000,16.9293137,4.0078731,3.2130022,-50.3816795,54.7175560,-20.0763359
1010,14.9134064,3.1387823,5.2049680,-54.2748108,33.0839691,-34.6412201
1020,12.7897596,2.3606708,6.8354111,-49.8167953,24.7862587,-42.1603050
1030,12.4689388,1.3934183,7.6230993,-41.5877876,31.4809170,-38.5190849
1040,13.4577389,2.5929072,9.1218615,-36.4503822,45.5725174,-33.6412201
1050,11.7099810,1.4149660,8.9782104,-17.4732819,49.5496178,-31.9847336
1060,10.1417866,1.5825592,7.9295554,1.8244275,44.9694672,-21.6030540
1070,9.2894554,2.2720859,6.0812411,18.4732819,24.3893127,3.6335878
1080,9.7850523,2.7676830,5.7771792,22.8244267,17.9847336,7.6488547
1090,11.1497402,3.7397239,3.8977404,21.4809170,25.4198475,-2.6106870
1100,10.7355452,3.7109938,3.2752512,12.2290077,33.4122124,-13.6183205
1110,8.5783806,3.0238612,3.0071020,-7.6030536,36.0458031,-29.8854961
1120,7.5871863,2.4923513,3.4260850,-14.8473282,31.7175579,-30.2977104
1130,7.1897511,2.1739240,3.9767487,-18.3053436,25.0687027,-26.8015270
1140,7.0053983,1.8124014,4.4747400,-17.4503822,17.2519093,-23.9694653
1150,6.8952656,1.5969244,4.7955613,-14.1679392,12.1297712,-19.0687027
1160,6.9623032,1.2856797,5.2791877,-5.0610685,9.6488552,-3.1221373
1170,7.4124107,1.3694763,5.0349803,-0.2900763,11.1297712,3.1603053
1180,8.3461447,1.5562232,4.6351509,1.7251909,16.7480907,6.1297708
1190,9.0548248,1.7477583,4.2377152,-0.4045801,26.9694653,5.4961834
1200,9.1721401,1.9249283,4.0126615,-5.0992365,37.5572510,1.9618320
1210,8.8249826,1.7956421,3.7780309,-10.9007635,44.2366409,-0.7480916
1220,8.6071110,1.5897418,3.7397239,-16.7862587,45.7175560,-1.6870229
1230,8.6765423,1.3814473,3.9216824,-22.6259537,42.7480927,-1.5801526
1240,9.1865053,1.2282192,4.4100971,-27.2519093,35.4122124,-1.8549619
1250,9.9191265,1.2545552,4.8985114,-30.2748089,25.7938938,-3.6564887
1260,10.9510221,1.2737088,5.2839761,-30.9541988,18.3740463,-8.1603050
1270,13.1393118,1.2377959,5.7005649,-31.1450386,18.6183205,-17.1679382
1280,15.3611193,1.3431402,6.1985564,-32.5877876,27.6717548,-30.3893127
1290,18.0928898,1.6998745,6.9623032,-35.5267181,41.8244286,-48.1755714
1300,19.6126022,1.6591733,7.8194227,-39.1908379,52.1984749,-73.7404556
1310,19.6126022,1.7357874,9.0931320,-41.5648842,51.2519073,-104.6946564
1320,19.6126022,1.8100072,10.6780853,-37.9923668,41.2213745,-137.6870270
1330,19.6126022,1.9847831,12.4330254,-25.7022896,25.9007626,-168.2366486
1340,19.6126022,2.5522060,13.9317884,-5.5725193,9.0305347,-202.2213745
1350,19.6126022,3.0382264,14.5518837,18.0000000,-11.1679392,-241.4045868
1360,19.6126022,3.5170643,14.5063934,39.7480927,-38.0763359,-250.1374054
1370,19.6126022,4.2281384,14.7194767,58.6183205,-68.4351120,-250.1374054
1380,19.6126022,4.5585365,14.8152447,76.4580154,-89.1755753,-250.1374054
1390,19.6126022,3.8929520,14.2454271,90.1374054,-95.5496216,-250.1374054
1400,19.6126022,3.0094962,13.6684275,98.8320618,-94.5572510,-250.1374054
1410,19.6126022,1.8722562,13.0507269,108.7328262,-86.7480927,-250.1374054
1420,19.3881454,0.5578461,12.4186611,119.7709961,-81.4427490,-250.1374054
1430,15.9500904,-0.4716553,11.8201132,132.1145020,-79.1755753,-250.1374054
1440,12.4066896,-1.7501525,10.9031391,145.2671814,-80.1755753,-250.1374054
1450,9.5983057,-2.6527619,9.8903971,156.8396912,-83.3511429,-250.1374054
1460,7.2591825,-3.0885043,8.9111729,165.1450348,-90.4122162,-250.1374054
1470,5.1786318,-3.6846576,7.8146343,169.0458069,-95.8931274,-250.1374054
1480,3.5050933,-4.5178356,7.5249376,171.2900696,-105.2213745,-250.1374054
1490,3.3925664,-4.8147149,7.3812861,176.6412201,-108.3893127,-250.1374054
1500,2.9256995,-4.9344244,7.0939832,181.9465637,-104.0534363,-250.1374054
1510,1.4891858,-5.3462253,6.2847471,184.5419922,-98.6030502,-250.1374054
1520,-0.6033357,-5.2384863,5.6622581,182.2977142,-94.6488571,-250.1374054
1530,-2.9185169,-5.0972295,5.8370337,180.1526642,-99.3740463,-250.1374054
1540,-6.0213866,-4.9176650,6.6007805,189.3282471,-123.9465637,-250.1374054
1550,-8.7699156,-5.4108682,6.4906478,208.5038147,-162.5038147,-250.1374054
1560,-11.8009596,-5.8394279,4.7740140,227.3587799,-203.8702240,-250.1374054
1570,-14.3124647,-5.7891502,2.5138988,233.3816833,-250.1374054,-250.1374054
1580,-15.2509871,-5.1690550,0.7829000,221.6946564,-250.1374054,-250.1374054
1590,-14.8056679,-4.6638808,-0.4333483,191.3129730,-250.1374054,-250.1374054
1600,-13.9724894,-4.3909435,-0.9624642,142.0076294,-250.1374054,-210.7633514
1610,-12.8400383,-4.5154414,-1.1539993,78.6488571,-216.6870270,-163.1603088
1620,-11.8249016,-4.8147149,-0.3303981,8.4045801,-113.5877838,-117.1984711
1630,-11.3724003,-5.6862001,2.0829449,-50.0687027,-5.9389315,-76.1450348
1640,-12.2007895,-7.1322904,4.6806402,-86.1755753,86.2061081,-37.7633591
1650,-14.0778341,-8.6214762,6.5983863,-100.1603088,144.6717529,2.1450381
1660,-15.8926296,-10.0843258,8.1641865,-97.6183243,179.9465637,47.1526718
1670,-17.3171730,-10.9151096,9.5336628,-78.7328262,183.7786255,96.0076370
1680,-18.2125988,-11.6285782,10.3141680,-46.2824440,162.7099304,147.7328186
1690,-18.3083668,-12.3037395,10.1824875,-8.2519083,129.6641235,202.1984711
1700,-17.3770275,-13.1273403,9.3947992,28.0687027,101.3816757,250.1297760
1710,-15.2294388,-13.8719339,8.0229292,56.8396950,88.9160309,250.1297760
1720,-12.5144281,-14.3124647,6.2847471,73.4045792,94.0381699,250.1297760
1730,-10.0005293,-14.4561157,4.5489597,77.4045792,110.5572510,250.1297760
1740,-8.1330614,-14.7458124,2.4372849,66.3740463,136.1679382,250.1297760
1750,-6.7803445,-15.4927998,0.9720409,39.5496178,174.6030579,250.1297760
1760,-6.6821828,-16.7665081,0.8307837,4.9236641,222.4198456,250.1297760
1770,-7.1873569,-17.9899387,1.2066715,-29.0763359,250.1297760,250.1297760
1780,-7.6494355,-19.6131992,1.5586174,-57.5038185,250.1297760,250.1297760
1790,-6.1985564,-19.6131992,3.0286496,-82.5877838,250.1297760,250.1297760
1800,-4.2544746,-19.6131992,4.7021880,-102.5038147,250.1297760,250.1297760
1810,0.0718257,-19.6131992,7.1418672,-116.8320618,250.1297760,250.1297760
1820,4.9894910,-19.6131992,9.7275915,-116.5572510,250.1297760,250.1297760
1830,11.2526903,-19.6131992,11.3747940,-106.8015289,250.1297760,250.1297760
1840,19.6126022,-19.6131992,14.3938665,-86.6335907,250.1297760,250.1297760
1850,19.6126022,-19.6131992,17.4608231,-45.4809151,250.1297760,250.1297760
1860,19.6126022,-19.6131992,19.0433826,12.8778629,220.5648804,250.1297760
1870,19.6126022,-13.0914278,15.7920732,75.0610657,176.7404633,250.1297760
1880,19.6126022,-6.6726060,7.6877422,104.3969498,113.0839691,250.1297760
1890,19.6126022,-1.6136837,-0.0143651,75.3206100,61.3435097,250.1297760
1900,19.6126022,1.1492109,-2.7006457,3.8091602,41.9236641,246.3511505
1910,19.6126022,1.8052188,-0.1292862,-65.9694672,35.9541969,174.0915985
1920,19.6126022,2.5569944,5.4515696,-106.9007645,42.7022896,114.5648880
1930,19.6126022,3.3853838,9.6749191,-108.6870193,62.6412201,65.6412201
1940,19.6126022,3.4236910,10.9605989,-92.8549652,92.5267181,33.2213745
1950,19.6126022,3.0454090,10.5583754,-69.3893127,121.0763321,22.6183205
1960,19.6126022,3.0549858,9.2607250,-48.2748108,135.8625946,21.9312973
1970,17.2573185,3.1794837,7.7930865,-34.3587799,130.8625946,24.4732819
1980,16.1009235,3.7876077,6.5289545,-25.8320618,108.0381699,24.4503822
1990,16.0626163,4.4507980,5.6670465,-23.0076332,77.0152664,16.3511448
2000,15.8974180,4.6159973,5.0541339,-24.3206100,48.7175560,2.8244274
2010,15.0977583,4.5417776,4.8410511,-28.3511448,25.6564884,-11.5038166
2020,14.2119083,4.3143296,5.1307478,-31.7328243,4.9923663,-25.5343513
2030,13.1800127,3.9504125,5.5042415,-32.5954208,-10.9618320,-36.9541969
2040,12.0308018,3.5218527,5.9184365,-30.1603050,-19.6793900,-44.7709923
2050,10.7906122,3.0142846,6.1506729,-24.4961834,-24.1755733,-47.7022896
2060,9.5863342,2.5091105,6.2081332,-16.2977104,-24.0687027,-45.9923668
2070,8.3629036,2.1595588,6.0812411,-5.7328243,-21.0305347,-39.1832047
2080,7.5680327,1.9608412,5.5976148,5.1297708,-14.4427481,-27.1374054
2090,7.3669209,2.0877333,4.9727316,14.1145039,-5.7557254,-13.0000000
2100,7.5800037,2.2122312,4.2520804,19.5190830,4.5572519,-1.3587786
2110,7.9894104,2.5019281,3.5529771,20.7022896,13.6564884,6.5877862
2120,8.7699156,2.8658447,2.9879484,17.7786255,21.3969460,9.2061071
2130,9.1841106,3.1842721,2.5450234,11.8244276,26.5496178,6.8091602
2140,9.4019823,3.1483591,2.4564383,4.0000000,31.0610695,1.8854961
2150,8.8992023,2.7245877,2.6910689,-10.6335878,27.0381680,-6.7557254
2160,8.6454182,2.5330524,2.8275378,-15.1450386,19.5419846,-10.0305347
2170,8.4490948,2.2481439,3.0334380,-19.4274807,13.4427481,-11.4427481
2180,8.2719250,2.0135133,3.1914546,-23.1221371,7.6641221,-12.0534353
2190,8.2503767,1.8171898,3.7109938,-25.7786255,2.3664122,-11.4045801
2200,8.4059992,1.7262106,3.9552009,-27.2519093,-1.6030535,-10.1832066
2210,8.7411861,1.5729824,4.2209558,-28.0458012,-2.5496182,-9.1832066
2220,9.1577749,1.5610116,4.5465660,-28.4885502,-0.2213740,-8.4122133
2230,10.4386663,1.5179161,4.6734576,-30.8167934,11.5419846,-11.3435116
2240,10.9222927,1.4987626,4.8865409,-33.5419846,19.7786255,-16.0839691
2250,11.0467901,1.4197544,4.9990678,-35.9312973,27.3664131,-21.6335869
2260,11.0827026,1.3120158,5.0589223,-37.0534363,31.3129768,-27.5267181
2270,10.9510221,1.1923064,5.0876527,-38.2213745,31.9312973,-33.7175560
2280,10.6685085,1.0965388,5.0301919,-38.5190849,30.3435116,-39.2824440
2290,10.3788109,1.0151364,5.1115947,-37.9465637,28.4885502,-43.1984749
2300,10.1944590,0.9983770,5.0900469,-37.3206100,26.3969460,-46.2595406
2310,9.9670105,1.1109039,5.2839761,-36.7328262,25.3740463,-48.5419846
2320,9.9263096,1.2497669,5.4300218,-35.3969460,24.5419846,-50.5496178
2330,10.0771437,1.3287752,5.5353661,-34.5190849,25.1679382,-53.2061081
2340,10.4195127,1.5921360,5.5305777,-34.4503822,28.0305347,-56.6793900
2350,10.5607700,1.6591733,5.5856438,-34.2061081,32.3969460,-59.8167953
2360,10.8169479,1.6519908,5.7723908,-33.9465637,37.2290077,-62.6106873
2370,11.1952295,1.7645177,6.1267309,-32.6564903,41.6641235,-65.4274826
2380,11.2742386,1.9512644,6.3254485,-30.1908398,44.7251892,-68.7938919
2390,11.4202833,2.0901275,6.4762826,-27.1450386,44.0000000,-72.6946564
2400,11.9206696,2.2864509,6.5624733,-23.7251911,38.8320618,-77.0763321
2410,12.7251167,2.5761478,6.7492199,-20.9770985,29.0152664,-83.2900772
2420,14.2214851,3.0286496,7.1155310,-18.9694653,18.3893127,-92.2671738
2430,15.7274303,3.4165084,7.4219875,-17.8625946,8.3587790,-106.4961853
2440,16.7449608,3.8450682,8.0564480,-18.5801525,-8.3969469,-127.6564865
2450,17.0394459,4.3574247,8.8848372,-20.2595425,-28.4274807,-153.4656525
2460,16.8526993,4.4962878,9.8544836,-19.2061062,-41.0610695,-178.1755676
2470,16.3116131,4.5058646,10.9222927,-13.0076332,-44.7557259,-196.9541931
2480,15.7322187,4.5920553,11.7698355,-1.8473282,-43.2213745,-207.2519073
2490,16.0147324,4.9152708,12.1576939,13.8244276,-35.0916023,-212.8320618
2500,16.2397861,5.5042415,12.3372583,30.7557259,-28.7175579,-220.3969421
2510,16.9987450,5.9447722,11.8368731,50.1221390,-18.9770985,-231.7480927
2520,17.4225159,6.2967181,11.4202833,67.9847336,-18.3664131,-247.0686951
2530,18.1718979,6.5792327,10.8504667,82.0992355,-21.3893127,-250.1374054
2540,18.9835281,6.7683735,10.3835993,92.8396912,-22.2442741,-250.1374054
2550,19.1367569,6.2919297,9.7922344,99.0916061,-20.6564884,-250.1374054
2560,17.8199520,5.3821378,9.1051025,100.9847336,-21.0610695,-250.1374054
2570,15.4616756,4.1491303,8.6741486,100.0000000,-26.3816795,-250.1374054
2580,13.1680422,3.1172347,9.1074963,102.1908417,-32.2442741,-250.1374054
2590,11.0898857,2.2026544,9.3995876,114.4580154,-37.2366409,-250.1374054
2600,9.3588867,1.4843974,9.0620070,130.3740387,-40.4580154,-250.1374054
2610,7.2112985,0.9935886,8.2479830,145.3740387,-41.3664131,-250.1374054
2620,5.4132624,0.8355721,7.2256637,155.0534363,-39.4961815,-250.1374054
2630,3.9384418,1.0007712,6.1123657,160.1984711,-34.0916023,-250.1374054
2640,2.6024840,1.3790531,5.2887645,162.8320618,-24.2671757,-250.1374054
2650,1.6759326,1.4796091,4.4891052,164.5648804,-11.5572519,-250.1374054
2660,1.0821736,1.3718705,4.2137733,166.9770966,-2.3893130,-250.1374054
2670,0.8379663,0.8786675,3.5362179,168.2900696,-0.0916031,-250.1374054
2680,0.4668669,0.2705434,2.8682389,167.1068726,-0.8473282,-250.1374054
2690,-0.0933734,-0.5722113,2.1164634,162.5419922,2.1297710,-250.1374054
2700,-1.7621235,-1.1827296,1.1132981,156.0076294,12.9618320,-250.1374054
2710,-4.9607606,-1.6998745,0.2466015,146.8473358,20.5801525,-250.1374054
2720,-8.2647419,-2.1930776,-0.5626345,136.9084015,12.2137403,-250.1374054
2730,-11.6764622,-2.7293761,-1.0917504,127.2977066,-9.1603050,-250.1374054
2740,-14.4632988,-2.6527619,-1.7357874,117.7557220,-43.8854980,-250.1374054
2750,-15.6005383,-2.2625091,-2.1739240,101.9083939,-75.2824402,-243.0229034
2760,-16.6132812,-2.5043221,-1.5131277,84.5877838,-98.3740463,-205.6870270
2770,-16.5486374,-2.5186872,-0.9744351,67.9465637,-103.9694672,-166.5877838
2780,-16.4049854,-2.8682389,-0.4501076,48.5648842,-83.9312973,-126.6488571
2790,-16.2637291,-3.1148405,0.4548960,32.4122124,-53.5801544,-84.4427490
2800,-15.7872849,-3.5194585,0.8116302,22.3435116,-21.6412220,-43.1221390
2810,-15.3395720,-4.0940638,0.7086801,16.3587780,7.6793895,-1.8854961
2820,-14.6093445,-4.6734576,0.3303981,12.7099237,28.6106873,37.7022896
2830,-13.7258883,-5.2624283,0.0263361,8.5648851,40.8931313,75.3740463
2840,-12.8591919,-6.0213866,-0.7565638,3.3664122,46.9465637,110.3053436
2850,-12.0403786,-6.8306227,-1.6376256,-7.7938933,46.9541969,142.1984711
2860,-11.1617117,-7.6590118,-2.0470319,-23.5114498,45.9389305,170.7938995
2870,-10.5655584,-8.6430235,-1.7980363,-40.8549614,43.2442741,198.3740387
2880,-10.0196829,-9.5815458,-1.0917504,-55.3358765,41.8778610,226.5954132
2890,-9.3780403,-10.3596573,0.0359128,-66.5190811,41.2519073,250.1297760
2900,-9.0620070,-11.2311430,1.2689204,-72.0305328,43.5114517,250.1297760
2910,-9.0835552,-12.1720591,2.1164634,-71.8320618,45.9694672,250.1297760
2920,-9.4785957,-13.2781744,2.5474176,-64.7938919,44.1145020,250.1297760
2930,-9.9406748,-14.5111818,2.1499822,-53.9923668,41.7099228,250.1297760
2940,-9.8903971,-15.7417955,1.3838415,-48.3129768,45.8244286,250.1297760
2950,-9.4163475,-17.4895535,0.0047884,-55.3282433,68.3511429,250.1297760
2960,-8.8106174,-19.6131992,-1.0797794,-76.3740463,106.1068726,250.1297760
2970,-7.7021074,-19.6131992,-1.3575054,-106.9236679,151.0000000,250.1297760
2980,-6.2201042,-19.6131992,-0.7134684,-143.0763397,183.5038147,250.1297760
2990,-4.0773048,-19.6131992,1.5179161,-178.2442780,201.0915985,250.1297760
3000,-1.3263810,-19.6131992,4.7883787,-200.0915985,202.4198456,250.1297760
3010,7.3381906,-19.6131992,9.2391768,-201.8091583,187.4351196,250.1297760
3020,19.6126022,-19.6131992,14.6715927,-186.6335907,206.5038147,250.1297760
3030,19.6126022,-19.6131992,19.6126022,-154.1679382,228.1068726,250.1297760
3040,19.6126022,-17.2692890,19.6126022,-90.5190811,177.9847260,250.1297760
3050,19.6126022,-9.8520899,19.6126022,-5.8167939,65.2824402,250.1297760
3060,19.6126022,-4.4962878,16.7832680,53.7099228,-11.9923668,250.1297760
3070,19.6126022,-0.8427547,8.7435799,47.4961815,-14.4580154,250.1297760
3080,19.6126022,1.7429699,5.0565281,-13.6259546,12.9465647,214.5648804
3090,19.6126022,2.3175755,7.5201492,-77.5877838,62.2061081,169.1221313
3100,19.6126022,3.1794837,10.6804790,-114.3969498,123.6564865,131.2671814
3110,19.6126022,3.5218527,13.5966015,-115.1679382,178.8091583,95.4885483
3120,19.6126022,4.2305326,14.5806141,-88.4885483,194.6030579,65.5877838
3130,19.6126022,4.3502421,12.8855276,-54.2519073,164.8320618,37.9389305
3140,19.6126022,4.7740140,10.2926207,-28.6717548,104.9923630,8.4427481
3150,19.4456062,5.2025738,7.8697009,-17.5877857,42.7786255,-16.7404575
3160,17.3602676,5.1953912,6.1506729,-20.3435116,2.5877862,-35.3053436
3170,15.4377337,4.7404952,5.4874821,-30.2824421,-16.6259537,-49.7022896
3180,13.5295649,4.1611013,5.6526814,-40.5572510,-21.2137413,-57.9847336
3190,11.6740675,3.1890604,6.4595232,-47.0152664,-21.1603050,-59.9847336
3200,9.9933472,2.1236460,7.1634150,-45.5419846,-18.4503822,-55.8244286
3210,8.6310530,1.4724265,7.8170285,-37.0381660,-16.5190830,-45.8778610
3220,7.8098459,1.0869620,8.1378498,-23.8244267,-16.8931293,-33.3282433
3230,7.4387465,0.9816177,7.9965930,-7.4274807,-18.3664131,-20.5343513
3240,6.8234401,1.1779412,5.7867560,26.3282452,-24.2366409,12.8396950
3250,7.2112985,1.2377959,5.2720051,29.2213745,-21.4732819,21.5190830
3260,7.8529415,1.4676381,4.5681133,28.5419846,-14.8015270,26.6106873
3270,8.7627335,1.7381816,3.7445123,12.7175570,1.9923664,26.1679382
3280,9.0284882,1.6112895,3.8019729,3.7557251,5.6793895,22.1908398
3290,9.3038206,1.5155219,4.2353210,-3.1755726,7.4427481,17.2671757
3300,10.6637201,1.4987626,5.2696109,-9.7404585,6.7938933,6.8778625
3310,10.6038647,1.3742647,5.6598639,-7.8396945,4.8167939,0.1755725
3320,10.2327662,1.4365137,5.5114241,0.7938932,4.4656487,-6.6717558
3330,10.0795374,1.5801650,5.2959471,2.2442749,7.0000000,-7.8244276
3340,9.9957409,1.5634058,4.9607606,2.1832061,10.7099237,-9.6030531
3350,9.3804340,1.5777708,4.4172797,-0.0458015,13.2519083,-13.3282442
3360,9.1266499,1.4556671,4.2089849,-2.4351146,13.1679392,-14.4961834
3370,8.7747040,1.1707586,4.1563129,-5.7175574,12.2977095,-13.9694653
3380,8.9351149,1.0438666,4.3550305,-12.7175570,2.3358779,-13.7709923
3390,9.2296000,0.9600700,4.9176650,-13.7557249,-3.2824428,-14.8473282
3400,9.5169029,0.9217629,5.1499014,-12.7938929,-5.9694657,-17.4122143
3410,9.6174593,0.9145803,5.1379304,-11.9847326,-9.5496187,-19.8091602
3420,9.7563219,0.8810617,5.2241216,-10.9236641,-10.0305347,-22.7022896
3430,9.9670105,0.8427547,5.2672167,-9.0916033,-12.2061071,-25.8473282
3440,10.0843258,0.7685348,5.3581958,-6.2900763,-11.5267172,-28.6183205
3450,10.0771437,0.7781116,4.9487896,-3.9236641,-9.9312973,-30.1679382
3460,10.2423429,0.6177009,4.7524662,-2.6488550,-7.2061067,-31.3740463
3470,10.5128860,0.5027798,4.5010762,-2.6717558,-4.9694657,-32.6259537
3480,11.1138277,0.5315101,4.4819226,-3.8702290,-1.4732825,-33.9465637
3490,12.0308018,0.5099624,4.4316444,-7.6717558,-5.0992365,-35.7786255
3500,13.6253319,0.6679789,4.4771342,-9.8244276,1.8473282,-41.9236641
3510,14.5854025,0.6416427,4.6758518,-10.9541988,9.0076332,-49.7251892
3520,15.8208036,0.8882443,4.7213416,-12.9160309,14.9541988,-58.7175560
3530,17.0873299,1.0678085,4.7572546,-14.7862597,21.7175579,-70.0534363
3540,18.6004581,1.3886299,4.7309184,-17.5877857,29.8396950,-84.0305328
3550,19.6126022,1.8602852,4.7524662,-20.4961834,42.5572510,-104.4580154
3560,19.6126022,2.2816625,4.7548604,-24.2824421,54.0534363,-132.3129730
3570,19.6126022,2.4253139,4.5034704,-31.1374054,56.8396950,-167.6106873
3580,19.6126022,2.1284344,4.3502421,-44.9694672,40.1755714,-207.5954132
3590,19.6126022,2.3486998,5.1259594,-64.7404556,4.6106873,-246.6106873
3600,19.6126022,2.5522060,7.0772243,-82.5038147,-35.8473282,-250.1374054
3610,19.6126022,2.3582766,9.8712435,-89.8473282,-67.8015289,-250.1374054
3620,19.6126022,2.2098370,12.7442703,-85.0916061,-86.7404556,-250.1374054
3630,19.6126022,2.5881188,15.0355101,-69.9007645,-86.2977066,-250.1374054
3640,19.6126022,2.9664006,16.5582142,-46.7862587,-66.0457993,-250.1374054
3650,19.6126022,2.5713594,16.6252518,-19.3969460,-28.1145039,-250.1374054
3660,19.0385952,1.6424140,15.7130651,8.6183205,1.9541985,-250.1374054
3670,15.4377337,0.4405309,14.2957048,34.6946564,17.2366409,-250.1374054
3680,12.0403786,-0.5386927,13.0243902,59.8091621,20.7709923,-250.1374054
3690,9.4187412,-1.1587877,11.7602587,82.5496216,15.5419846,-250.1374054
3700,7.5009956,-1.7429699,10.3524752,101.4732819,4.5267177,-250.1374054
3710,5.9136481,-2.2337787,9.1529865,118.3816757,-10.7480917,-250.1374054
3720,4.2999644,-2.7245877,8.1330614,130.1755676,-29.9465656,-250.1374054
3730,3.1531475,-3.5649481,7.0197635,136.2748108,-47.8702278,-250.1374054
3740,1.8483143,-4.0006905,6.2129216,136.3587799,-60.9312973,-250.1374054
3750,0.6224893,-4.4124913,5.4874821,131.0305328,-68.2824402,-250.1374054
3760,-0.7733232,-4.9631548,5.0732875,119.6564865,-66.9694672,-250.1374054
3770,-2.5115047,-5.4563580,5.3988972,106.2519073,-60.7862587,-250.1374054
3780,-3.7780309,-5.6431046,5.9495606,97.5343475,-51.0381660,-250.1374054
3790,-5.2720051,-6.0812411,6.1003947,96.9618301,-42.6106873,-250.1374054
3800,-7.3908629,-6.6271162,5.7173243,97.9923630,-41.1297722,-250.1374054
3810,-9.9622221,-6.9766679,5.2648225,94.7404556,-47.0839691,-250.1374054
3820,-12.3516235,-6.7109132,5.0541339,87.5648880,-53.1908379,-250.1374054
3830,-14.0898046,-6.1099715,5.3055239,80.4732819,-54.3740463,-250.1374054
3840,-15.1719790,-5.9495606,5.3629842,74.7328262,-50.2977104,-250.1374054
3850,-15.7753143,-5.4779053,5.4300218,68.1221390,-41.9160309,-234.3740387
3860,-15.6699696,-5.2241216,5.4515696,60.5343513,-28.2977104,-188.5648804
3870,-15.3874559,-5.0373745,5.7747850,53.8320618,-6.9007635,-145.7786255
3880,-14.9660778,-5.0828643,5.9351954,49.5114517,19.9694653,-105.8931274
3890,-14.3388004,-5.1235652,6.2009506,48.5343513,50.8931313,-68.2671738
3900,-13.6181498,-5.3845320,5.9304070,51.0000000,81.4732819,-34.3969460
3910,-12.8496151,-6.0357518,5.6383162,56.2900772,106.8320618,-4.3358779
3920,-12.4473906,-6.7611909,4.8985114,62.2824440,126.2061081,23.4961834
3930,-12.5431585,-7.7380204,4.1299767,67.8854980,133.9847260,52.1755714
3940,-13.2925396,-8.9351149,3.2584918,75.6870193,130.8702240,86.4961853
3950,-13.8096848,-9.6725254,2.5498118,85.4656525,108.9770966,127.0457993
3960,-13.1848011,-10.5080976,1.7022687,96.4809189,79.3282471,169.8320618
3970,-12.1600885,-11.2072010,0.7709290,106.9618301,47.4198456,211.2213745
3980,-10.5033092,-11.9422169,-0.0598547,113.7709961,21.4122143,250.1297760
3990,-8.7124557,-12.3540173,-0.8666966,115.5343475,11.4351149,250.1297760
4000,-7.1777802,-13.1656475,-1.6017127,110.0916061,14.4045801,250.1297760
4010,-6.5050125,-14.2550039,-2.0949159,97.5572510,27.2977104,250.1297760
4020,-6.4260044,-15.5765963,-2.2385671,78.9236679,50.7633591,250.1297760
4030,-6.9694853,-17.4847660,-2.1930776,56.0458031,81.7786255,250.1297760
4040,-8.6382351,-19.6131992,-2.1619530,33.0152664,115.7175598,250.1297760
4050,-9.5216913,-19.6131992,-2.5426292,1.3664122,159.3969421,250.1297760
4060,-9.3780403,-19.6131992,-2.2002602,-49.4351158,204.2366486,250.1297760
4070,-7.0700417,-19.6131992,1.3598996,-108.4351120,226.8396912,250.1297760
4080,-3.2944047,-19.6131992,6.8904772,-139.5114441,198.6488495,250.1297760
4090,9.4235296,-19.6131992,11.6908274,-125.3206100,155.8931274,250.1297760
4100,19.6126022,-19.6131992,16.9939575,-77.8549652,212.3816833,250.1297760
4110,19.6126022,-19.6131992,19.0026817,-49.7633591,250.1297760,250.1297760
4120,19.6126022,-12.5000629,19.6126022,-72.2595444,250.1297760,250.1297760
4130,19.6126022,-0.5219333,19.6126022,-91.0229034,250.1297760,250.1297760
4140,19.6126022,0.8643024,19.6126022,-56.1450386,250.1297760,250.1297760
4150,19.6126022,-1.1300575,12.9932661,6.2366414,127.7480927,162.2824402
4160,19.0026817,-1.4580613,4.7452836,33.1679382,-129.7557220,135.2595367
4170,16.8072090,-0.0454896,2.8203552,20.6564884,-250.1374054,168.3664093
4180,19.6126022,0.7900825,7.3142486,13.2595415,-250.1374054,203.2977142
4190,19.6126022,2.6431851,9.7802639,23.7404575,-164.7099304,211.1297760
4200,19.6126022,3.5841017,9.3636751,32.1832047,14.7862597,207.8778687
4210,19.6126022,3.5170643,6.9790621,34.4961815,134.0534363,210.2671814
4220,19.6126022,3.6990228,4.7381010,34.1908379,193.9313049,209.3053436
4230,19.6126022,12.3755655,4.8242917,7.0152674,240.6793823,191.8396912
4240,19.6126022,19.1630917,8.3126259,-18.5496178,250.1297760,-153.8015289
4250,19.6126022,1.6615674,-3.0430148,31.1450386,123.9694672,-250.1374054
4260,-1.1085097,3.8977404,-5.7484488,8.0916033,-7.1068702,-188.9084015
4270,1.7381816,2.8562679,-4.9224534,-48.5954208,-12.2137403,-100.8778610
4280,4.0916696,2.5881188,-0.4070122,-66.1068726,-35.4809151,-48.3435097
4290,9.1481981,5.0661049,2.7533178,-62.9923668,-55.9847336,-31.5343513
4300,13.3140879,5.9687142,4.9990678,-57.1832047,-54.5954208,-40.9083977
4310,14.6500454,5.3007355,6.0860295,-46.4198456,-21.4122143,-66.3435135
4320,12.2486734,4.3622131,6.0118098,-34.8702278,12.6641226,-88.3511429
4330,9.4738073,3.5793133,5.2456689,-25.4351139,27.2366409,-96.0992355
4340,7.4914188,2.6551561,4.3765783,-20.3587780,30.2977104,-97.7480927
4350,5.6574697,2.0590029,3.9192882,-17.5954189,23.6488552,-93.9694672
4360,4.2640514,1.8147956,3.8474624,-14.5496187,8.2213745,-82.8778610
4370,3.7852135,1.7669119,4.1299767,-9.1832066,-10.1603050,-68.1984711
4380,3.4691806,1.9201399,4.1108232,-1.6793894,-22.4122143,-51.8167953
4390,3.3925664,2.1380112,3.9168940,4.5419846,-28.8931293,-35.6412201
4400,3.6678982,2.2265961,3.6487448,6.0839696,-30.7404575,-18.9312973
4410,6.2536230,2.6312141,4.4124913,-5.0152674,6.8854961,15.0992365
4420,7.3022780,2.7365584,5.1906028,0.3893130,47.5419846,18.1145039
4430,7.0197635,2.6024840,4.7524662,3.9541984,47.0381660,17.1068707
4440,6.7994981,2.5809362,4.4196739,6.2824426,41.9541969,16.9236641
4450,6.6486640,2.4779861,4.0222383,8.3129768,30.6946564,17.5954189
4460,6.8880830,2.4564383,3.6080434,8.8931293,19.4198475,19.0076332
4470,7.4004397,2.4708035,3.3135581,5.9312978,13.4351149,20.6946564
4480,8.1713686,2.5617826,3.2967989,1.3740458,13.1374044,21.3816795
4490,9.1386213,2.4708035,3.9144998,-11.2671757,27.6259537,17.3893127
4500,9.0524302,2.2984219,4.0006905,-13.7938929,31.0076332,16.6030540
4510,9.1577749,2.1260402,3.7947903,-16.6106873,35.7938919,17.8625946
4520,9.6126709,2.0781565,3.8474624,-19.9770985,44.5496178,20.2748089
4530,9.7539282,2.0757623,3.6822634,-23.5496178,52.2366409,22.5114498
4540,9.8353300,1.9871773,3.4476328,-26.6641216,55.7404594,25.6106873
4550,10.3572636,1.9009864,3.1842721,-29.3358784,54.4809151,28.9770985
4560,11.8129311,2.0494261,3.0262554,-33.0763359,46.7633591,31.6106873
4570,14.2358503,2.5378408,3.1100521,-36.8931313,45.8091621,31.0000000
4580,17.4656124,3.3279233,3.4476328,-37.9007645,48.8854980,24.0229015
4590,19.6126022,4.6973996,3.1746953,-42.3893127,70.9694672,4.2519083
4600,19.6126022,5.3031297,2.9759774,-53.1068687,100.6259537,-30.8625946
4610,19.6126022,5.6550756,2.5785420,-67.0992355,116.4885483,-76.4656525
4620,19.6126022,5.2265158,2.9711890,-86.2137375,113.8625946,-127.6717529
4630,19.6126022,4.2832050,4.5944495,-105.8396912,87.9236679,-178.9923706
4640,19.6126022,3.7109938,7.5249376,-118.0763321,46.1297722,-225.7709961
4650,19.6126022,2.8969693,10.7068148,-118.2671738,-5.5419846,-250.1374054
4660,19.6126022,1.9991482,13.8910875,-108.2748108,-52.3816795,-250.1374054
4670,19.6126022,1.8961980,16.5677910,-90.4885483,-80.3816757,-250.1374054
4680,19.6126022,1.4891858,18.7273502,-66.7786255,-84.0000000,-250.1374054
4690,19.6126022,0.2729376,19.6126022,-39.5725174,-72.6717529,-250.1374054
4700,19.6126022,-1.1300575,19.6126022,-8.1908398,-53.5572510,-250.1374054
4710,19.6126022,-2.8802099,19.6126022,25.0229015,-29.1221371,-250.1374054
4720,19.6126022,-4.7692256,18.4496231,52.6793900,-17.9312973,-250.1374054
4730,18.9667683,-6.5050125,17.3674507,77.1679382,-23.2595425,-250.1374054
4740,15.8662939,-8.1115141,16.8407288,104.0992355,-41.3206100,-250.1374054
4750,12.8567972,-9.3756456,16.2158451,131.0458069,-61.3435097,-250.1374054
4760,10.3165627,-10.0460186,15.0043850,157.5190887,-71.2213745,-250.1374054
4770,8.0444765,-10.4506369,13.1488886,177.7709961,-68.7480927,-250.1374054
4780,5.6574697,-10.6493549,10.8887739,191.4809113,-58.1526718,-250.1374054
4790,3.6702924,-11.0587606,8.9662399,198.4045868,-53.4503822,-250.1374054
4800,2.1906834,-11.2790270,7.3764977,199.5954132,-54.8625946,-250.1374054
4810,1.1635761,-11.2790270,6.2967181,197.0763397,-58.4198456,-250.1374054
4820,0.0933734,-11.6980095,5.5377603,193.4732819,-58.1984749,-250.1374054
4830,-1.4891858,-12.2031832,4.8410511,189.0839691,-57.0763359,-250.1374054
4840,-3.8642218,-12.4737272,4.2041965,182.0763397,-57.3129768,-250.1374054
4850,-6.4212160,-13.3763361,3.6798692,173.8320618,-60.8396950,-250.1374054
4860,-10.5751352,-14.4465389,2.5809362,161.6488495,-61.9923668,-250.1374054
4870,-17.9037495,-14.7649660,1.3551112,144.7175598,-77.9465637,-250.1374054
4880,-19.6131992,-13.7809544,0.9840119,121.6717529,-120.1755753,-250.1374054
4890,-19.6131992,-12.5718889,1.8698620,98.0076370,-167.8549652,-250.1374054
4900,-19.6131992,-10.9534168,3.1890604,77.2442780,-199.3664093,-209.4809113
4910,-19.6131992,-9.2559366,4.4316444,53.4198456,-193.5572510,-116.2748108
4920,-19.6131992,-8.8321648,5.7053533,28.0305347,-138.0458069,-38.7175560
4930,-19.6131992,-9.0811605,6.9982157,5.4809160,-42.5267181,31.7557259
4940,-18.3873749,-9.5336628,7.4339581,-12.2442751,66.9465637,95.5190811
4950,-17.3961811,-10.3596573,7.3764977,-25.0305347,157.2977142,153.0686951
4960,-16.9867744,-11.4945040,7.2208753,-29.7557259,203.0152740,205.8091583
4970,-16.0578289,-12.2917690,7.2256637,-25.1679382,208.9770966,250.1297760
4980,-14.0826225,-13.0124197,7.1346846,-14.5114508,187.6412201,250.1297760
4990,-12.1361465,-13.9533358,7.2400289,2.1755726,160.6793823,250.1297760
5000,-10.9462337,-14.8176384,6.8306227,23.6412220,129.8015289,250.1297760
5010,-10.0699606,-15.5287132,6.0381460,48.4122124,88.5267181,250.1297760
5020,-8.8345594,-16.5127239,5.2313042,72.7251892,51.3740463,250.1297760
5030,-8.0492649,-17.6858768,4.4460096,95.2061081,30.0381680,250.1297760
5040,-7.3764977,-18.7560806,3.3758070,111.9694672,27.0076332,250.1297760
5050,-6.7827387,-19.6131992,1.7429699,116.0457993,55.8549614,250.1297760
5060,-5.9016771,-19.6131992,-0.4692611,90.9465637,142.8702240,250.1297760
5070,-6.0884237,-19.6131992,-1.3598996,31.2977104,250.1297760,250.1297760
5080,-6.5409255,-19.6131992,-0.4692611,-45.6717567,250.1297760,250.1297760
5090,-6.8665352,-19.6131992,3.0382264,-111.8320618,250.1297760,250.1297760
5100,1.0917504,-19.6131992,8.2623482,-132.2137451,250.1297760,250.1297760
5110,18.0019112,-19.6131992,13.7761660,-93.1832047,238.5572510,250.1297760
5120,19.6126022,-19.6131992,17.8127689,-7.8931298,131.9084015,250.1297760
5130,19.6126022,-19.6131992,17.0562057,85.1374054,102.2748108,250.1297760
5140,19.6126022,-11.8943329,9.3277617,128.1450348,155.1450348,250.1297760
5150,19.6126022,-4.6902170,2.0901275,87.9465637,186.8549652,250.1297760
5160,19.6126022,-0.4309541,0.2035061,12.4961834,152.0686951,250.1297760
5170,19.6126022,-0.1628049,3.7493007,-35.5801544,71.1450348,250.1297760
5180,19.6126022,-0.4932030,7.4602942,-48.8167953,-2.9618320,212.3206177
5190,19.6126022,0.1316804,11.3221216,-36.3435097,-22.0000000,187.3511505
5200,19.6126022,1.8985922,12.4114780,-7.0839696,12.8931293,160.2748108
5210,19.6126022,2.7868366,10.2974091,18.2442741,62.8320618,137.5267181
5220,19.6126022,3.5817075,6.5241661,30.0763359,98.2366409,118.8931274
5230,19.6126022,3.9911139,4.2736282,33.5801544,100.2671738,103.0381699
5240,19.5246143,4.7548604,1.5705882,27.0763359,85.3587799,93.3206100
5250,18.0234585,4.9320302,0.6368544,14.5877867,72.5954208,81.6717529
5260,15.8375635,4.4316444,1.5155219,-1.4580153,39.4961815,56.7633591
5270,15.9357252,4.2784166,2.2313845,-2.8931298,19.5954189,42.1679382
5280,13.6636391,2.9735832,2.5186872,-5.1297708,0.8244275,3.6183207
5290,12.2869806,2.5186872,2.4708035,-6.4732823,0.6412213,0.6564885
5300,11.4250717,2.2529323,2.5785420,-6.5801525,2.5801528,2.4351146
5310,10.9677820,2.3582766,2.7365584,-6.2748094,5.0687022,5.3969464
5320,10.9725704,2.3870070,2.8945751,-5.7175574,8.7022905,7.2595420
5330,11.2359314,2.2194135,2.6431851,-12.1526718,20.8091602,3.3358779
5340,11.2909975,2.2170193,2.8730273,-16.0381680,15.9694653,-2.9847329
5350,10.8696203,1.9847831,3.1818779,-17.9847336,10.5725193,-8.8702288
5360,10.1848822,1.8124014,3.2106080,-19.0152664,4.3282442,-11.6564884
5370,9.7467451,1.6855093,3.4787574,-19.8625946,-0.8091603,-11.3740454
5380,9.6916790,1.7333932,3.9121056,-19.6183205,-3.8549619,-10.3053436
5390,9.5887289,1.7070571,4.2808108,-17.1221371,-2.5114503,-8.5496187
5400,9.5408449,1.9321109,3.8498566,-13.2748089,12.4885492,-3.3282442
5410,9.7012558,1.8291607,3.9312592,-12.8625956,16.6870232,-3.7404580
5420,9.7180147,1.8578910,3.6511390,-12.0076332,19.5725193,-4.0000000
5430,10.0029240,1.9105632,3.3542595,-13.6488552,22.6106873,-5.1755724
5440,10.1992474,1.9416877,3.1220231,-18.4045811,25.2671757,-8.4045801
5450,10.1322098,1.9632354,3.4404502,-23.1755733,25.4961834,-11.8931293
5460,10.0579901,1.9440818,3.7229645,-25.6564884,21.8702297,-15.3358774
5470,10.1513634,1.9416877,4.0126615,-26.7404575,19.4580154,-19.0305347
5480,10.1585455,1.9512644,4.1132174,-27.1297703,17.6412220,-22.3969460
5490,10.1393919,1.7717001,4.3598189,-27.2442741,17.2900772,-25.4427490
5500,10.2016411,1.5969244,4.5178356,-26.9083977,17.6030540,-27.8625946
5510,10.2782555,1.5658000,4.5752959,-25.8854961,19.9847336,-29.3435116
5520,10.1010857,1.5610116,4.5010762,-25.0152664,22.8091602,-31.0534344
5530,9.9095497,1.3455344,4.4795284,-23.9465656,24.3435116,-31.9083977
5540,9.6940727,1.1851238,4.4053087,-22.6030540,25.4885502,-31.7557259
5550,9.5408449,1.1300575,4.3646073,-21.7251911,25.9312973,-30.9389305
5560,9.6174593,1.1563935,4.3167233,-21.3129768,26.7404575,-30.4045811
5570,9.6773138,1.1109039,4.3334827,-20.5572510,27.4961834,-31.7557259
5580,9.7682934,1.1061156,4.1347651,-20.8091602,27.1984730,-33.7328262
5590,9.7515335,1.0725969,4.0126615,-22.5496178,29.5877857,-35.6183205
5600,9.7204094,1.0486550,4.0605454,-23.5038166,32.5038185,-36.6183205
5610,9.8018112,1.0366840,4.0174499,-22.1526718,35.2137413,-37.2671738
5620,10.1944590,0.9816177,3.8235207,-20.4580154,38.9465637,-38.2519073
5630,10.6110477,0.9935886,3.6008608,-20.0076332,44.7480927,-39.2213745
5640,11.1521349,1.1420283,3.4715748,-20.6717548,51.5038185,-40.0000000
5650,11.3987360,1.3263810,3.4021432,-22.6030540,54.7862587,-39.7938919
5660,12.2702208,1.5586174,3.4021432,-26.3664131,54.9771004,-39.6259537
5670,13.7187052,2.0350611,3.5457945,-31.4732819,52.5190849,-42.4961815
5680,15.8136215,2.3606708,3.6726866,-38.2671738,49.1450386,-49.8091621
5690,18.0138817,3.0406206,4.5992379,-46.1145020,42.0916023,-63.6030540
5700,19.6126022,3.1986370,5.3079181,-52.2824440,36.2442741,-87.4503784
5710,19.6126022,3.5410061,6.6630292,-55.0534363,25.0458012,-122.3816757
5720,19.6126022,4.2305326,8.1929159,-54.8167953,7.8015265,-157.5572510
5730,19.6126022,4.5417776,10.2088242,-47.0610695,-9.0763359,-184.6183167
5740,19.6126022,5.0158267,12.2486734,-28.5954189,-25.1068707,-205.1450348
5750,19.6126022,5.3581958,13.2685976,-1.7480916,-36.4732819,-226.4580078
5760,19.6126022,5.6047974,13.1584654,23.6488552,-46.6259537,-245.1068726
5770,19.6126022,5.8849177,12.4880924,39.3587799,-57.3206100,-250.1374054
5780,19.6126022,6.0620875,12.0355902,42.5572510,-67.0000000,-250.1374054
5790,19.6126022,5.8944945,12.1217813,37.7328262,-77.4732819,-250.1374054
5800,19.6126022,5.3366485,12.9836893,33.1450386,-85.1450348,-250.1374054
5810,19.6126022,3.9192882,14.3244352,36.2290077,-87.9694672,-250.1374054
5820,19.6126022,2.2481439,15.5550489,49.2824440,-89.2671738,-250.1374054
5830,18.3586445,0.8355721,16.1583843,72.8549652,-91.1374054,-250.1374054
5840,15.8184099,-0.4213773,15.4305506,101.6335907,-89.7786255,-250.1374054
5850,14.0275564,-1.1468167,13.2566271,122.6412201,-85.9618301,-250.1374054
5860,12.3396521,-1.6855093,10.8720140,127.7175598,-80.1221390,-250.1374054
5870,10.1705170,-2.4324965,9.6318245,123.1755753,-70.7099228,-250.1374054
5880,8.0444765,-3.0525916,9.3421268,119.1908417,-64.8549652,-250.1374054
5890,6.1554613,-3.6726866,9.4522600,123.4809189,-58.3206100,-250.1374054
5900,4.7883787,-4.3957319,9.2607250,135.9541931,-58.0458031,-250.1374054
5910,3.7229645,-5.0134325,8.2240410,150.1450348,-62.0763359,-250.1374054
5920,2.7509236,-5.5664907,6.9958215,161.0686951,-71.1297684,-250.1374054
5930,1.6687500,-6.0884237,5.7029591,165.8702240,-81.6183243,-250.1374054
5940,0.4453192,-6.6079631,4.6231799,163.7786255,-88.4351120,-250.1374054
5950,-0.8930327,-7.3262196,3.6583214,155.6870270,-87.9007645,-250.1374054
5960,-2.1380112,-7.9367380,2.8347204,143.4961853,-77.8320618,-250.1374054
5970,-3.8187323,-8.5209198,2.1906834,128.5114441,-61.8549614,-250.1374054
5980,-6.6630292,-9.3469152,1.8578910,112.5648880,-40.0839691,-250.1374054
5990,-10.3333216,-9.4953556,1.7405758,98.1526718,-22.8473282,-250.1374054
6000,-14.0251617,-9.3780403,1.8100072,83.4503784,-11.2366409,-250.1374054
6010,-17.7840385,-9.3205795,1.8171898,71.2977066,-5.4885497,-250.1374054
6020,-19.6131992,-8.9039907,1.6543850,62.2977104,-4.2213740,-250.1374054
6030,-19.6131992,-8.0851774,1.3431402,54.0228996,-11.6335878,-192.5954132
6040,-19.6131992,-7.2855186,0.7445929,44.0610695,-20.2442741,-114.3587799
6050,-19.2732258,-6.5624733,0.5171449,29.7022896,-19.9847336,-50.7633591
6060,-15.6484222,-6.1865854,0.7805058,14.4198475,-6.3816795,-5.4961834
6070,-12.7035694,-6.0740585,1.2234308,0.7022901,18.4580154,24.2061062
6080,-10.5440102,-6.3230543,1.7214222,-10.3664122,47.7557259,42.4122124
6090,-9.8544836,-6.7085190,1.7549409,-18.0534344,75.2977066,53.6259537
6100,-10.1992474,-6.8809004,2.1523764,-21.7633591,87.3587799,62.2824440
6110,-11.3077564,-7.5536675,2.9256995,-19.0687027,84.1068726,72.8702316
6120,-13.4122496,-8.5664101,3.5026991,-5.8625956,69.9618301,92.5648880
6130,-15.1025467,-9.5671806,3.8977404,13.4732828,44.8167953,125.9618301
6140,-15.8136215,-10.5392218,3.6008608,34.2519073,16.5725193,169.3435059
6150,-15.4712524,-11.4059181,3.0430148,52.7480927,-6.6259542,217.3282471
6160,-15.2078915,-12.5479469,2.3271523,66.7251892,-20.1374054,250.1297760
6170,-13.9509420,-13.5463238,1.4724265,74.2290039,-20.1832066,250.1297760
6180,-11.9781294,-14.5566721,0.4453192,71.0381699,5.3816795,250.1297760
6190,-10.0795374,-15.7848911,-0.5793939,54.3129768,53.2061081,250.1297760
6200,-8.5688038,-17.4105453,-0.9002152,27.1603050,112.4122162,250.1297760
6210,-7.6853480,-19.6131992,-0.3663110,-5.6030536,177.3129730,250.1297760
6220,-6.7444315,-19.6131992,0.8331779,-39.3435097,236.2595367,250.1297760
6230,-5.3629842,-19.6131992,2.1595588,-72.2137375,250.1297760,250.1297760
6240,-3.4763632,-19.6131992,4.2329268,-99.4274826,250.1297760,250.1297760
6250,-1.2425843,-19.6131992,6.0261750,-116.8396912,237.9007568,250.1297760
6260,4.2305326,-19.6131992,8.3126259,-120.6717529,190.1526642,250.1297760
6270,15.1408539,-19.6131992,11.8320847,-100.5496216,169.7175598,250.1297760
6280,19.6126022,-19.6131992,14.0275564,-62.9236641,202.5038147,250.1297760
6290,19.6126022,-19.6131992,14.7553892,-31.9541988,250.1297760,250.1297760
6300,19.6126022,-19.6131992,15.3563309,-14.1526718,250.1297760,250.1297760
6310,19.6126022,-7.5512733,15.4520988,-2.6717558,250.1297760,250.1297760
6320,19.6126022,1.4317253,13.1464939,16.3129768,231.9923706,250.1297760
6330,19.6126022,2.6383967,8.5807753,26.0152664,88.3664093,162.7633514
6340,19.6126022,0.6033357,4.7644372,20.4580154,-18.1832066,98.3664093
6350,19.6126022,1.0199248,2.3223639,6.7404580,-68.3587799,107.7557220
6360,19.6126022,2.4492557,1.4748207,-17.1068707,-64.4427490,142.4274750
6370,19.6126022,3.8737986,2.5689652,-44.5801544,-10.0152674,164.8854980
6380,19.6126022,4.5944495,5.1427188,-60.0763359,71.3129807,160.7328186
6390,19.6126022,5.0948353,6.6079631,-61.1755714,146.2671814,146.6793823
6400,19.6126022,4.8817525,6.6821828,-51.5648842,190.1984711,124.2290039
6410,19.6126022,4.6566987,5.4084740,-45.0610695,194.5648804,108.0000000
6420,19.6126022,4.5489597,4.6495161,-42.2442741,169.7328186,93.8091583
6430,19.6126022,5.2696109,4.0964580,-40.7709923,120.1984711,68.4732819
6440,19.6126022,5.7723908,4.0078731,-44.1374054,60.9618340,41.3664131
6450,18.8925495,5.6862001,4.4029145,-51.0916023,11.7633591,16.3969460
6460,17.7170029,5.2600341,5.2384863,-56.1297722,-21.1603050,-4.1068702
6470,15.9883976,4.4867110,6.1291251,-56.7175560,-36.7633591,-13.6030531
6480,15.0881815,3.9552009,7.1251078,-50.1450386,-37.0458031,-14.6717558
6490,14.4944229,3.6391680,7.6566176,-36.2595406,-24.0687027,-12.5343513
6500,13.4146433,3.5170643,7.3166428,-19.1908398,-4.8473282,-6.6183205
6510,12.0738974,3.9336534,5.0876527,8.8015270,31.9541988,9.9236641
6520,12.1600885,4.4124913,3.8498566,13.8625956,39.0839691,12.3053436
6530,10.8337069,4.7165532,1.7309990,-1.5725191,28.8778629,-18.0687027
6540,9.9191265,4.4507980,1.8650736,-9.2213745,24.6564884,-25.8549614
6550,8.9662399,3.7780309,2.1188576,-16.3053436,19.3893127,-30.7709923
6560,7.8577299,3.3494711,2.4755919,-21.6106873,11.5496187,-31.4885502
6570,7.3645267,2.8897867,2.8802099,-25.2061062,3.4732823,-28.5038166
6580,7.1298962,2.5689652,3.3446827,-26.8702297,-1.9312977,-23.8320618
6590,7.0413113,2.3678534,3.7660601,-26.7251911,-3.5801528,-17.3129768
6600,7.0437055,2.2696917,4.0749106,-24.4427490,-2.0229008,-9.8931293
6610,7.8936424,2.1643472,3.9575951,-20.6335869,7.1450381,6.0305343
6620,8.7938576,2.5402350,4.1539187,-21.0152664,11.1832066,10.6717558
6630,9.6246414,2.7533178,4.2879934,-22.0305347,14.9312973,10.8320608
6640,10.3428984,2.8203552,4.5657191,-22.5267181,15.6641226,9.0687027
6650,11.4921093,2.7868366,4.8266859,-23.2824421,13.6717558,6.2824426
6660,12.8855276,2.8945751,5.1451130,-24.2061062,11.8549614,1.4427481
6670,14.2190914,2.9496415,5.6838059,-24.0229015,9.8091602,-5.8625956
6680,15.6053267,3.0310438,6.4092450,-21.0687027,2.7862597,-15.1221371
6690,16.7928448,3.3446827,6.9024482,-15.6946564,-7.7862597,-27.1755733
6700,18.6866493,3.4356618,7.0293403,-9.2900763,-18.3740463,-42.4045792
6710,19.6126022,4.0030847,7.2352405,-4.1068702,-24.1832066,-62.4274826
6720,19.6126022,4.4627690,7.3932571,-0.9618320,-25.2595425,-92.0152664
6730,19.6126022,4.5561423,7.4938130,-0.0687023,-29.6488552,-130.2290039
6740,19.6126022,4.6686692,7.7068958,0.3816794,-37.5343513,-170.7557220
6750,19.6126022,4.4843168,7.7691450,4.5801525,-41.7099228,-207.6412201
6760,19.6126022,3.8833754,7.4770536,10.9236641,-46.8549614,-240.3587799
6770,19.6126022,3.2800395,7.0149751,16.9770985,-54.3587799,-250.1374054
6780,19.6126022,2.7054341,6.3326311,20.2824421,-62.5190849,-250.1374054
6790,18.0857067,2.0254843,5.9687142,22.4732819,-71.5877838,-250.1374054
6800,15.9213600,1.3575054,5.6143742,25.5496178,-79.5572510,-250.1374054
6810,13.5415354,0.6967092,5.4467812,29.4503822,-84.0305328,-250.1374054
6820,11.2000179,0.1364688,5.0349803,33.6717567,-86.2061081,-250.1374054
6830,9.3205795,-0.3519458,4.6710634,36.5725174,-84.7786255,-250.1374054
6840,7.1658092,-0.8595140,4.3191175,37.8854980,-80.2061081,-250.1374054
6850,4.7500720,-1.2808913,3.9384418,37.2824440,-76.5648880,-250.1374054
6860,2.6527619,-1.5849534,3.9144998,35.6870232,-74.7862625,-250.1374054
6870,0.6009415,-1.9632354,4.3574247,35.1297722,-78.4274826,-250.1374054
6880,-1.1037214,-2.1068866,4.8362627,37.9541969,-82.4503784,-250.1374054
6890,-2.4372849,-2.2122312,5.2408805,45.3587799,-86.9389343,-250.1374054
6900,-3.4691806,-2.1044924,5.4348102,55.2977104,-92.0687027,-250.1374054
6910,-4.5202298,-1.7812769,5.1642666,64.6335907,-94.3587799,-250.1374054
6920,-5.2097564,-1.4820032,4.8290801,71.3282471,-92.5648880,-242.5801544
6930,-5.6718349,-1.1707586,4.4507980,75.1603088,-85.4198456,-220.5419922
6940,-5.9232249,-0.7900825,3.9743545,76.5572510,-74.0381699,-199.5877838
6950,-5.2696109,-0.4094064,3.1387823,75.2519073,-55.5267181,-181.0686951
6960,-4.7021880,-0.0215477,2.1739240,68.1755753,-27.6183205,-166.1603088
6970,-5.2121506,0.0000000,1.1252691,55.7099228,3.9847329,-152.0229034
6980,-6.7731619,0.0861908,0.3998296,39.6106873,27.0305347,-132.8549652
6990,-8.6262646,0.1244979,-0.0095768,23.8549614,36.0763359,-104.5038147
7000,-10.1441803,0.2059003,0.0143651,11.6106873,29.0458012,-67.5801544
7010,-11.0372133,0.3782819,0.4309541,4.5877862,12.2442751,-25.6564884
7020,-11.6812506,0.3950413,0.9145803,2.6183207,-10.0229006,19.9618320
7030,-11.5735121,0.4261657,1.1276633,4.1908398,-31.5114498,66.8167953
7040,-10.6373835,0.6105183,1.3048333,5.9618320,-40.8396950,114.6717529
7050,-9.8065996,0.3806761,1.3000449,4.8854961,-32.5343513,160.5801544
7060,-9.5408449,-0.3399749,1.1132981,2.0305343,-10.3664122,209.2595367
7070,-9.9239149,-1.3982066,1.0414724,-1.8091604,12.7099237,250.1297760
7080,-9.7204094,-2.3774302,1.2234308,-8.3740454,34.2519073,250.1297760
7090,-9.1625633,-3.6008608,1.4820032,-15.3664122,59.1450386,250.1297760
7100,-8.4419117,-5.0996237,2.5378408,-21.5725193,84.4198456,250.1297760
7110,-7.1514440,-8.0229292,3.6798692,-24.6717548,110.2671738,250.1297760
7120,-2.7772598,-11.0132713,5.1810260,-22.7480907,125.5877838,250.1297760
7130,6.5433197,-12.4785156,5.9447722,-17.8091602,159.5725250,250.1297760
7140,19.6126022,-11.6357603,5.9423780,-14.7022905,234.6717529,250.1297760
7150,19.6126022,-6.7180958,5.0349803,-25.4427490,250.1297760,250.1297760
7160,19.6126022,0.2035061,2.7652888,-62.0916023,250.1297760,250.1297760
7170,19.6126022,5.1403246,4.2233500,-93.6870193,250.1297760,250.1297760
7180,19.6126022,8.5616217,8.9782104,-75.3740463,99.0076370,194.9389343
7190,19.6126022,8.2910776,11.9182749,-14.5954199,-154.1068726,33.0152664
7200,19.6126022,6.2919297,10.2423429,38.5954208,-250.1374054,-71.4580154
7210,19.6126022,5.5090299,7.5800037,53.1221390,-250.1374054,-113.3511429
7220,17.9851513,4.9320302,6.0812411,40.6106873,-250.1374054,-111.6870193
7230,12.9453821,4.5058646,5.6071916,27.5572510,-135.5267181,-81.6259537
7240,9.1817169,4.6471219,4.2113791,20.8549614,-23.2824421,-34.1221390
7250,8.3437500,5.5210009,0.7613522,0.3587786,90.2442780,48.9923668
7260,10.9677820,6.3086891,0.4860204,-14.3053436,81.7480927,66.3664093
7270,11.8368731,6.1602492,0.5099624,-16.1908398,64.9542007,57.1832047
7280,12.3635941,6.1003947,0.7278336,-15.6106873,39.9160309,41.0916023
7290,12.1122046,5.9064655,0.9385223,-12.5954199,11.3740454,21.9541988
7300,11.1234045,5.5281835,0.9528874,-9.9007635,-11.5725193,6.3282442
7310,10.2184010,5.1020179,0.8140244,-11.0229006,-23.8473282,-1.8091604
7320,9.3732519,4.5896611,1.0630201,-14.4885492,-27.6335869,-2.5343511
7330,9.0308828,4.2951760,1.4652439,-18.0229015,-23.6488552,1.6641221
7340,8.9470863,4.0940638,2.0135133,-20.2595425,-16.6946564,7.5190840
7350,8.9446917,3.9336534,2.4372849,-20.7328243,-8.4122133,13.7557249
7360,9.2104464,3.8546450,2.6647329,-19.9083977,-1.1068702,19.1603050
7370,10.1010857,3.7397239,2.9759774,-14.0534353,-0.8931298,23.8931293
7380,10.6038647,3.8091555,3.0214672,-12.4503813,-7.6183205,19.7404575
7390,11.0635490,3.8283088,2.9831600,-10.1297712,-13.8320608,13.7251911
7400,11.1976242,3.7421181,2.9496415,-8.1526718,-17.4198475,6.7862597
7410,11.2574787,3.5769191,2.9951310,-7.9923663,-20.7557259,0.7404580
7420,11.1712875,3.4907281,3.0238612,-8.5114508,-19.8244267,-3.9465649
7430,10.9486284,3.4524212,3.1675127,-8.4656487,-16.0839691,-7.2213740
7440,10.4961262,3.2991931,3.3662305,-7.1679387,-10.2595415,-7.3282442
7450,10.3524752,3.2058196,3.3422885,-4.9923663,-2.4580152,-6.0076337
7460,10.5775290,3.4189026,3.1076579,-2.7175572,16.0992374,-3.8625953
7470,10.5918941,3.3949606,2.8275378,-3.0152671,24.6641216,-3.2748091
7480,10.7283630,3.4500270,2.7030399,-3.8320611,30.1908398,-3.5496182
7490,10.9318695,3.4835455,2.4277081,-4.6946564,31.2671757,-5.0152674
7500,11.0515785,3.5194585,2.4588325,-5.1755724,24.4961834,-8.0076332
7510,11.3819771,3.6463506,2.3534882,-4.6641221,13.3664122,-13.0763359
7520,11.6357603,3.8139439,2.3343346,-4.5343513,1.2061069,-19.4580154
7530,11.9901009,3.9144998,2.3989778,-4.3282442,-7.6488547,-26.5114498
7540,12.1744537,4.0150557,2.3798244,-4.6488547,-12.2824430,-33.7557259
7550,12.2486734,4.0485744,2.3989778,-6.6564884,-12.5877867,-40.1068687
7560,12.2247314,4.1395535,2.4708035,-8.6335878,-7.9236641,-44.7480927
7570,12.1289635,4.1299767,2.5450234,-10.6412210,-2.2137403,-47.9312973
7580,12.1313581,4.1946201,2.7700772,-12.1374044,1.2748091,-49.1068687
7590,12.4617558,4.4555864,3.0166788,-13.0534353,7.0610685,-49.7862587
7600,13.0363617,4.7189474,3.2608860,-13.0839691,14.0610685,-51.4198456
7610,13.7785606,5.0684991,3.3015873,-12.8167934,19.9541988,-55.6259537
7620,14.6811695,5.2552457,3.4332676,-13.4961834,20.7251911,-62.0534363
7630,15.8112268,5.8394279,3.6295912,-14.5725193,17.5801525,-71.6183243
7640,17.0226879,6.3541789,4.1634955,-14.9083967,13.9083967,-86.4732819
7650,17.6667233,6.6654234,4.4675574,-13.2137403,11.4961834,-107.0152664
7660,17.3650570,6.6965480,4.7811961,-10.2595415,5.9236641,-130.3435059
7670,16.5486374,6.3900914,4.9104824,-6.7404580,-1.4274809,-151.7862549
7680,15.3347836,6.1770086,5.0277977,-1.4961832,-8.3358774,-169.0610657
7690,14.3555603,6.0429344,5.1738434,5.4503818,-14.6870232,-183.4885559
7700,13.5295649,5.7029591,4.8003497,12.6183205,-19.5877857,-194.9541931
7710,12.9932661,5.5617023,4.3670015,17.5190830,-21.7480907,-204.2366486
7720,12.6341381,5.5257893,3.9049230,19.4503822,-20.5190830,-213.4503784
7730,11.9709473,5.3414369,3.4356618,18.6488552,-17.9007626,-223.9389343
7740,11.0108776,4.8721757,3.2082138,15.6412210,-16.7480907,-234.3511505
7750,9.9765873,4.5082588,3.2010312,12.0916033,-16.5572510,-242.5496216
7760,9.0428534,4.2281384,3.2584918,9.9618320,-16.3664131,-248.5496216
7770,7.9918046,3.8474624,3.3949606,10.2442751,-14.9465647,-250.1374054
7780,6.9551206,3.4500270,3.5434003,11.9007635,-14.7480917,-250.1374054
7790,5.7269011,3.0525916,3.5841017,14.4809160,-15.3206110,-250.1374054
7800,4.4891052,2.7078283,3.4811516,17.1603050,-15.7938929,-250.1374054
7810,3.2417326,2.4109488,3.4979107,19.7786255,-16.6946564,-250.1374054
7820,2.0805507,2.1739240,3.6056492,23.4732819,-18.5648861,-250.1374054
7830,1.0127422,2.0398495,3.5553713,27.9083977,-21.2900772,-243.6946564
7840,0.2082945,2.0542145,3.5984666,33.1908379,-23.7251911,-235.0381622
7850,-0.4501076,1.9416877,3.4117200,38.4809151,-26.0687027,-225.6412201
7860,-1.0103480,1.9656296,3.1124463,43.3969460,-28.8854961,-216.8015289
7870,-1.4772149,2.0661855,2.7389526,46.9771004,-30.3740463,-208.9923706
7880,-2.0422437,2.1858950,2.4588325,48.2137413,-29.4274807,-202.0076294
7890,-2.3941894,2.1044924,2.3343346,48.2061081,-29.6259537,-195.6488495
7900,-2.4803803,2.0685797,2.2050486,47.8625946,-29.0687027,-191.3358765
7910,-2.7652888,1.8435259,1.9560528,48.3511467,-25.1526718,-188.4732819
7920,-3.1531475,1.5538290,1.5298871,48.1145020,-22.0381680,-185.3893127
7930,-3.7325413,1.1923064,0.8786675,45.9007645,-21.1068707,-180.6946564
7940,-4.5106530,0.9816177,0.0694315,40.2366409,-22.2290077,-173.3206177
7950,-5.2241216,0.7661406,-0.4812321,30.8396950,-29.5267181,-163.2519073
7960,-5.7867560,0.6823440,-0.6536137,20.0229015,-43.7633591,-150.6030579
7970,-6.1195483,0.5554519,-0.1053443,10.8778629,-60.3816795,-135.7099304
7980,-6.4068508,0.3567342,-0.2154770,4.5801525,-59.8549614,-121.1297684
7990,-6.7635851,0.4070122,-0.0454896,-3.4732823,-47.7022896,-104.3511429
8000,-7.9702568,0.4788379,0.2298422,-15.0610685,-32.6335869,-80.2137375
8010,-9.3636751,0.2729376,0.3902529,-27.6106873,-13.5496187,-48.0763359
8020,-11.0922794,0.1101327,0.5339043,-39.4274826,4.1908398,-8.2977095
8030,-12.8352499,0.0742199,0.7565638,-51.5877876,16.0992374,41.7862587
8040,-14.1113529,-0.2011119,1.1947005,-61.6641235,23.3206100,100.5572510
8050,-14.8511572,-0.3974355,1.8339491,-69.3435135,29.3893127,169.4961853
8060,-14.8583393,-0.9409165,2.6479735,-73.2824402,33.8167953,242.7022858
8070,-14.7194767,-1.6041069,3.1579359,-72.4732819,38.0458031,250.1297760
8080,-13.5582952,-2.7772598,4.2353210,-68.1068726,38.0228996,250.1297760
8090,-11.7075863,-4.1802549,5.2001796,-57.8778610,38.9236641,250.1297760
8100,-9.2798786,-6.4930420,5.8035154,-41.8854980,42.2900772,250.1297760
8110,-6.7444315,-9.5360565,5.8298512,-21.7862587,45.6641235,250.1297760
8120,-2.3151813,-12.9334116,5.6263452,-0.6183206,34.3969460,250.1297760
8130,5.3534074,-16.2397861,4.2927818,26.1450386,5.4198475,250.1297760
8140,18.8757896,-16.8287582,1.2138541,47.2824440,-15.6488552,250.1297760
8150,19.6126022,-12.9621420,-1.9105632,53.5725174,33.9541969,250.1297760
8160,19.6126022,-3.9935081,-4.2855992,17.4122143,97.2977066,250.1297760
8170,19.6126022,4.6758518,-4.6279683,-52.7633591,137.4656525,250.1297760
8180,19.6126022,9.5480280,1.9105632,-112.9465637,132.0305328,234.9465637
8190,19.6126022,8.3964224,10.7044210,-117.7786255,63.4961815,90.9083939
8200,19.6126022,5.6502872,13.1057930,-73.9923630,-27.6564884,9.4656487
8210,19.6126022,4.5130472,12.0667152,-10.1755724,-79.3282471,-23.3206100
8220,17.4680061,5.3462253,10.1106625,44.7633591,-118.8778610,-20.4656487
8230,15.1025467,6.6055689,6.8378053,78.4809189,-133.6030579,-1.7480916
8240,14.9565020,7.5632443,3.4428444,86.9007645,-110.5725174,15.3053436
8250,15.0857878,8.2072811,0.8379663,73.3587799,-63.3587799,24.8702297
8260,14.5135765,8.4419117,-0.7445929,46.3358765,-13.7709923,26.7251911
8270,13.5487185,8.1067257,-1.3766589,15.4122133,25.1145039,24.4580154
8280,12.3588057,7.3908629,-0.5602403,-8.0229006,42.8778610,20.5572510
8290,11.4154949,6.6223278,0.5985473,-18.3740463,43.0610695,14.5190840
8300,10.5631638,6.0285692,1.4077834,-19.0000000,33.0381660,7.4885497
8310,8.8417416,4.9679432,2.5186872,-3.5343511,-12.4656487,-9.8931293
8320,6.6869712,3.9240766,2.1212518,4.8167939,-4.6259542,5.0076337
8330,6.2631998,3.7684543,1.9081690,3.7709923,3.0076337,18.0763359
8340,6.3086891,3.6319854,1.8746504,1.1679389,13.1526718,34.0305328
8350,11.6070309,3.7588775,2.5019281,-12.4656487,85.1374054,89.9618301
8360,13.7306767,4.1898317,2.5976956,-19.4427490,110.5114517,95.8931274
8370,16.2086620,4.7165532,2.9424589,-26.9007626,127.4885483,91.8396912
8380,18.7536869,5.1810260,3.4739690,-32.3893127,127.6946564,75.5419846
8390,19.6126022,5.4348102,4.4555864,-34.5572510,106.1374054,47.4580154
8400,19.6126022,5.7340837,5.3366485,-30.8702297,66.9694672,9.0916033
8410,19.6126022,6.1339135,6.3469963,-20.3664131,25.4427490,-35.4274826
8420,19.6126022,6.1099715,6.6869712,-4.7404580,-8.6870232,-82.6183243
8430,19.6126022,5.6862001,6.3637557,10.7557249,-26.0229015,-124.2213745
8440,19.6126022,5.4922705,5.5186067,21.9694653,-30.5801525,-155.7328186
8450,18.2293587,5.1882086,4.8482337,27.2290077,-30.1068707,-177.0763397
8460,16.6228580,4.6590929,4.0078731,28.5114498,-28.9618320,-191.4580078
8470,15.7370071,3.9504125,3.2967989,26.9236641,-26.0381680,-199.7633514
8480,15.5287132,3.8426740,3.1292057,23.3893127,-18.5572510,-205.6641235
8490,16.5606079,4.1371593,3.3422885,19.2595425,-5.0152674,-215.9236603
8500,17.1016960,3.7469065,3.8307030,15.3740454,13.7328243,-237.0610657
8510,16.0386753,2.9807658,4.5561423,13.0305347,27.5954189,-250.1374054
8520,13.8958759,1.9752063,5.0469513,15.4732828,30.8396950,-250.1374054
8530,11.6525202,1.0151364,5.3270717,21.8320618,24.3816795,-250.1374054
8540,9.8856087,0.4525018,5.0948353,30.4198475,19.2366409,-250.1374054
8550,7.8984308,-0.0143651,4.5106530,37.8244286,15.4274807,-250.1374054
8560,5.8825235,-0.1364688,3.8450682,40.7022896,3.6488550,-250.1374054
8570,3.9384418,0.1556223,3.4596038,39.8931313,-11.9541988,-250.1374054
8580,2.5976956,0.6799498,3.2967989,36.8320618,-30.2900772,-250.1374054
8590,2.0135133,1.1947005,3.3087699,33.1679382,-49.2977104,-250.1374054
8600,1.8890154,1.7142396,3.6511390,30.9541988,-63.5190849,-250.1374054
8610,2.1595588,1.8770446,4.2113791,31.6183205,-75.7480927,-250.1374054
8620,2.3271523,1.8267666,4.7716198,35.6335869,-86.0152664,-250.1374054
8630,1.7908537,1.5514348,5.0301919,42.8778610,-91.8778610,-250.1374054
8640,0.9792235,1.2713146,4.9727316,50.7328262,-96.9465637,-250.1374054
8650,0.0502780,0.8930327,4.8841467,57.7938919,-105.2748108,-250.1374054
8660,-0.5386927,0.2130829,5.0684991,64.5877838,-112.3969498,-250.1374054
8670,-0.7014975,-0.9313397,5.0421629,71.8549652,-116.0457993,-250.1374054
8680,-0.5003856,-2.6527619,4.6614871,79.5038147,-113.7709961,-250.1374054
8690,-0.8930327,-5.3294659,3.7205703,84.3358765,-101.4351120,-250.1374054
8700,-3.4189026,-8.0779953,2.5569944,83.5343475,-83.5877838,-250.1374054
8710,-9.4977493,-9.7658987,1.0031654,69.4961853,-70.4122162,-250.1374054
8720,-18.0378227,-9.9502516,1.1994889,48.3129768,-75.9007645,-250.1374054
8730,-19.6131992,-10.1010857,2.8012016,37.3358765,-97.8320618,-177.3282471
8740,-19.6131992,-10.2255831,4.9416070,45.4580154,-107.0687027,-55.5038185
8750,-19.6131992,-9.0476418,4.9894910,57.5114517,-75.0152664,69.6106873
8760,-19.6131992,-9.0883436,2.5881188,50.8396950,14.0534353,197.9389343
8770,-19.6131992,-9.6102762,-1.8267666,9.6030531,149.8702240,250.1297760
8780,-19.6131992,-11.7602587,-3.7756367,-56.1145020,250.1297760,250.1297760
8790,-19.6131992,-15.8423519,-4.3167233,-122.4809189,250.1297760,250.1297760
8800,-19.6131992,-19.6131992,-3.8450682,-179.6183167,250.1297760,250.1297760
8810,-14.7051115,-19.6131992,-1.9201399,-225.0229034,218.0305328,250.1297760
8820,-9.6030941,-19.6131992,3.0861101,-250.1374054,137.6870270,250.1297760
8830,-0.7445929,-19.6131992,10.5200682,-245.7786255,100.7938919,250.1297760
8840,19.6126022,-19.6131992,18.5046902,-201.7022858,129.4580078,250.1297760
8850,19.6126022,-19.6131992,19.6126022,-151.9770966,250.1297760,250.1297760
8860,19.6126022,-14.7793312,19.6126022,-161.6335907,250.1297760,250.1297760
8870,19.6126022,3.4141142,19.6126022,-159.1068726,250.1297760,250.1297760
8880,19.6126022,7.6135225,19.6126022,-75.5419846,250.1297760,218.9160309
8890,19.6126022,4.8673873,19.6126022,16.4427490,250.1297760,-10.8549614
8900,19.6126022,3.4835455,15.6819410,61.1832047,-80.0152664,-122.5572510
8910,15.9500904,3.1531475,14.4513273,83.2442780,-250.1374054,-128.3893127
8920,19.6126022,6.6175399,16.3020363,100.1297684,-250.1374054,-98.2671738
8930,19.6126022,10.0005293,16.3523140,108.9542007,-250.1374054,-100.3893127
8940,19.6126022,11.6549139,13.2278967,100.7328262,-228.1679382,-137.1450348
8950,19.6126022,9.9263096,7.9415264,80.3206100,-31.7862587,-184.9847260
8960,19.6126022,7.2208753,3.7540891,52.8167953,58.0000000,-217.2442780
8970,19.6126022,5.4180508,1.6807210,27.7709923,62.5572510,-236.0305328
8980,19.5174332,4.5633249,2.3534882,13.2519083,8.4885492,-250.1374054
8990,18.9452209,3.7876077,4.3478479,12.0305347,-74.3129807,-250.1374054
9000,18.4999027,2.7030399,6.7707677,21.5419846,-153.5038147,-250.1374054
9010,17.2477417,1.4197544,8.2982607,37.0152664,-200.0152740,-250.1374054
9020,15.2126799,0.0861908,8.2240410,52.7328262,-206.0152740,-250.1374054
9030,12.7514534,-0.9145803,6.9072366,62.6946564,-181.6335907,-250.1374054
9040,10.2638903,-1.3455344,4.8027439,65.1297684,-146.5419922,-250.1374054
9050,7.5632443,-1.6807210,2.9472473,58.7175560,-118.4809189,-250.1374054
9060,4.8506279,-1.7166338,1.8794388,48.2824440,-105.4427490,-250.1374054
9070,2.6048782,-1.9823889,1.5729824,40.0610695,-104.6641235,-250.1374054
9080,0.9624642,-2.3032103,1.9273225,36.2519073,-113.0534363,-250.1374054
9090,-0.3040621,-2.2936335,2.4277081,36.6412201,-125.8396912,-250.1374054
9100,-1.3551112,-2.4899571,2.7796540,39.4961815,-139.3206177,-250.1374054
9110,-2.4564383,-2.9759774,3.3662305,43.0458031,-150.6412201,-250.1374054
9120,-3.7469065,-3.6655040,4.0366035,47.4961815,-155.6259613,-250.1374054
9130,-5.5090299,-4.4986820,4.7189474,53.2137413,-150.0992432,-250.1374054
9140,-8.2384062,-5.5401545,4.8865409,59.4503822,-147.3358765,-250.1374054
9150,-11.6668854,-6.2727766,5.0301919,64.0229034,-154.5419922,-250.1374054
9160,-14.8248215,-6.9000540,5.4348102,67.5419846,-165.2671814,-250.1374054
9170,-17.3219604,-7.0317345,5.7053533,70.3587799,-170.0000000,-217.4656525
9180,-19.2157650,-7.1035600,5.9040713,71.7022934,-157.4656525,-144.1374054
9190,-19.6131992,-7.1107426,5.5162125,68.4732819,-135.3893127,-60.5267181
9200,-19.5653172,-7.1011658,5.1929970,59.0763359,-101.6259537,25.2061062
9210,-19.4384251,-7.1107426,5.3581958,46.1221390,-52.6641235,111.4045792
9220,-18.9643745,-7.7332320,5.8633699,35.1984749,7.8625956,202.3053436
9230,-18.9835281,-9.1769285,6.1770086,29.0763359,80.3358765,250.1297760
9240,-19.2492828,-11.7554703,6.5313487,24.2290077,160.5572510,250.1297760
9250,-19.6131992,-13.1752243,6.8066807,15.5496187,238.1832123,250.1297760
9260,-19.6131992,-17.0849361,7.5967631,-2.2290077,250.1297760,250.1297760
9270,-19.6131992,-19.6131992,9.8808203,-18.7709923,250.1297760,250.1297760
9280,-14.9038296,-19.6131992,10.6732969,-32.9465637,250.1297760,250.1297760
9290,0.6679789,-19.6131992,10.9965124,-44.6488533,250.1297760,250.1297760
9300,19.6126022,-19.6131992,11.8727856,-55.7862587,250.1297760,250.1297760
9310,19.6126022,-19.6131992,12.1169930,-88.4580154,250.1297760,250.1297760
9320,19.6126022,-8.9470863,19.6126022,-111.8473282,250.1297760,250.1297760
9330,19.6126022,3.6295912,19.6126022,7.5496182,123.1908417,250.1297760
9340,19.6126022,6.3422079,19.6126022,182.7099304,-77.0381699,131.8473358
9350,19.6126022,7.3908629,0.8259954,205.4656525,-223.5114441,-23.8931293
9360,19.6126022,6.3398137,-6.8809004,117.9007645,-247.9541931,-43.5725174
9370,19.6126022,5.1475072,-3.1531475,35.8931313,-139.8167877,8.9007635
9380,19.6126022,8.9949694,5.0397687,-21.7633591,122.6412201,72.3282471
9390,19.6126022,10.4243011,6.2296810,-12.6335878,169.0686951,34.8091621
9400,19.6126022,10.4841557,5.1977854,14.6641226,143.0076294,-30.1374054
9410,19.6126022,9.5599985,2.2625091,37.1374054,62.2977104,-100.8778610
9420,19.6126022,8.5233145,0.3854645,42.5801544,-34.9847336,-164.0992432
9430,19.6126022,6.5983863,-0.0933734,33.9007645,-103.3129807,-212.6259613
9440,19.6126022,5.0349803,1.1611819,21.3053436,-131.2061005,-241.1145020
9450,18.8422718,3.7636659,2.3056045,12.6030531,-122.9007645,-250.1374054
9460,17.3770275,3.1028695,2.7724714,7.1679387,-93.0305328,-250.1374054
9470,16.5127239,2.8012016,2.7174051,3.1221373,-56.6335869,-250.1374054
9480,16.9724083,2.7245877,2.0374553,-2.3969467,-17.0534344,-250.1374054
9490,16.7234135,2.5067163,1.0127422,-14.1450386,19.2519093,-250.1374054
9500,15.2605639,2.1140692,0.7589580,-27.4198475,35.3969460,-250.1374054
9510,13.8432035,1.3144100,0.9864060,-37.2366409,29.7557259,-250.1374054
9520,12.1026278,0.4644727,1.8052188,-41.0992355,9.7633591,-250.1374054
9530,10.1944590,-0.4237715,2.6790979,-36.3740463,-12.3816795,-250.1374054
9540,7.8481531,-1.3886299,3.3422885,-27.2442741,-37.5725174,-250.1374054
9550,5.4348102,-2.1619530,4.0413918,-15.4885492,-61.1526718,-250.1374054
9560,3.3398943,-2.6383967,4.4124913,-2.3740458,-80.1526718,-250.1374054
9570,1.3024391,-2.9137285,4.6902170,11.9389315,-96.4427490,-250.1374054
9580,-0.5075682,-3.0406206,4.7764082,25.9007626,-109.5496216,-250.1374054
9590,-1.9392935,-3.1483591,5.0158267,38.7175560,-118.7251892,-250.1374054
9600,-3.0980811,-3.2704628,4.9966736,50.1374054,-123.1068726,-250.1374054
9610,-3.7923961,-3.3662305,4.6997938,60.6030540,-128.4809113,-250.1374054
9620,-4.5585365,-3.4955165,4.4627690,69.3358765,-132.3969421,-250.1374054
9630,-5.5760674,-3.7445123,4.5489597,76.8396912,-132.3511505,-250.1374054
9640,-6.6103573,-4.2185616,4.0820932,82.2671738,-128.7099304,-250.1374054
9650,-7.8912482,-4.4651632,3.5673423,83.7022934,-121.7022934,-250.1374054
9660,-9.3062143,-4.6016321,3.0454090,79.8091583,-108.5572510,-250.1374054
9670,-10.7738523,-4.3454537,2.5785420,71.3664093,-89.9770966,-225.1068726
9680,-12.4354200,-4.0054789,2.5043221,61.0458031,-74.9389343,-183.7480927
9690,-14.4178085,-3.8785870,2.8131726,53.7099228,-60.9923668,-131.7938995
9700,-15.9046001,-3.5386121,3.0334380,49.9694672,-44.2290077,-70.5267181
9710,-16.8048153,-3.2704628,2.7389526,46.3740463,-22.7557259,-1.1526718
9720,-17.3866043,-3.0645626,1.5729824,37.7175560,9.1755724,73.6870193
9730,-17.9683914,-3.3566537,0.0502780,18.5114498,47.7022896,156.9084015
9740,-18.7297440,-3.9575951,-0.6655847,-10.1145039,84.5496216,247.1908417
9750,-19.6131992,-5.0277977,-0.7038917,-42.6030540,118.6488571,250.1297760
9760,-19.6131992,-7.7499914,0.0646431,-74.7022934,150.2519073,250.1297760
9770,-19.6131992,-10.5344334,1.3838415,-104.8167953,167.9007568,250.1297760
9780,-18.9643745,-15.0570574,3.9192882,-128.1297760,171.6412201,250.1297760
9790,-15.8423519,-19.6131992,7.5728211,-141.1145020,186.1068726,250.1297760
9800,-7.2280579,-19.6131992,10.1058741,-140.8396912,209.3740387,250.1297760
9810,9.8760319,-19.6131992,11.1928358,-134.6412201,239.6106873,250.1297760
9820,19.6126022,-19.6131992,11.0036945,-129.2290039,250.1297760,250.1297760
9830,19.6126022,-19.6131992,10.6685085,-163.1145020,250.1297760,250.1297760
9840,19.6126022,-0.2250538,18.0881004,-212.9236603,250.1297760,250.1297760
9850,19.6126022,11.3245163,19.6126022,-178.5114441,250.1297760,250.1297760
9860,19.6126022,9.7467451,19.6126022,-32.0992355,38.9312973,-3.7786260
9870,19.6126022,5.7269011,19.6126022,123.7938919,-184.4656525,-186.5572510
9880,19.6126022,4.7548604,17.1400032,195.2442780,-250.1374054,-237.1755676
9890,15.6484222,6.7109132,8.8752604,200.8473358,-250.1374054,-202.6946564
9900,14.4249916,8.9399033,3.2225790,171.1603088,-250.1374054,-138.2900696
9910,16.1128960,10.3859940,-0.7038917,122.5267181,-123.6946564,-82.6793900
9920,17.8247414,11.4801388,-4.0820932,58.3206100,4.2748094,-57.6030540
9930,18.2676659,11.2981796,-3.8833754,-2.9236641,74.8396912,-58.0000000
9940,18.1311970,10.1250277,-1.3287752,-40.6870232,90.8244247,-75.8702316
9950,18.0450058,8.4610653,1.6902977,-50.7709923,60.0534363,-104.7938919
9960,18.3251266,7.4411407,4.1587071,-40.4274826,-0.3893130,-140.7938995
9970,18.7225609,6.8832946,5.7316895,-18.0229015,-65.6946564,-183.4351196
9980,17.9707851,5.9758968,6.0908179,6.8854961,-109.2137375,-224.5877838
9990,16.4049854,4.9870968,5.3677726,28.3511448,-128.8091583,-250.1374054
