timestamp,acclX,acclY,acclZ,gyroX,gyroY,gyroZ
0,3.0525916,2.9951310,9.6366129,-9.1068707,4.9083967,-2.8549619
10,3.1459649,2.6527619,9.6270361,-0.5572519,-1.8625954,-11.0916033
20,2.6527619,2.6144550,9.7611103,11.6030531,-8.5038166,-10.4885492
30,2.6455793,2.7078283,9.6629486,14.1297712,-10.3893127,-9.0076332
40,2.6910689,2.7796540,9.5504217,16.6564884,-12.0458012,-7.7175574
50,2.7820482,2.8275378,9.4642305,18.4732819,-12.5267172,-6.9083967
60,2.7509236,2.9256995,9.1936874,19.4580154,-13.1297712,-5.8091602
70,2.7413468,2.9568241,9.0955257,19.4961834,-14.7404585,-4.8702292
80,2.7389526,3.0501974,8.9566631,19.1450386,-15.5954199,-4.1832061
90,2.8706331,3.1627243,8.8513184,17.8015270,-15.5648851,-3.6030533
100,2.9711890,3.1794837,8.8082228,16.3816795,-14.8625956,-3.5267177
110,3.0166788,3.2441268,8.7435799,14.5801525,-13.4045801,-3.4274809
120,3.0693510,3.3111639,8.6693602,12.6870232,-12.6106873,-2.8167939
130,3.0837159,3.2465210,8.7100611,11.2290077,-11.8396950,-2.8091602
140,3.2034254,3.4165084,8.6310530,8.3129768,-9.2213745,-2.1374047
150,3.2608860,3.2991931,8.7794924,7.2213740,-8.2290077,-3.1374047
160,3.1124463,3.4308734,8.7986460,6.9083967,-9.2671757,-3.1145039
170,3.2369442,3.3710186,8.8321648,5.4427481,-8.0763359,-2.9236641
180,3.1196289,3.3566537,8.7579451,4.1908398,-6.7633586,-2.5801528
190,3.0262554,3.3087699,8.7770987,2.9618320,-5.0458016,-0.7786260
200,3.0214672,3.2465210,8.6573887,1.6870229,-4.3358779,0.7709923
210,2.9759774,3.2967989,8.6118994,0.5419847,-4.8549619,1.6259542
220,3.1052637,3.3207407,8.7316093,-1.0458015,-5.3816795,2.4580152
230,3.1531475,3.2608860,8.8321648,-2.0381680,-5.2137403,2.6564887
240,3.1579359,3.2537034,8.8441362,-2.8167939,-6.6946564,2.5954199
250,3.1962428,3.2177906,8.8968077,-3.6259542,-8.1145039,2.8625953
260,3.2273674,3.1675127,8.9135675,-5.1526718,-9.4427481,3.0763359
270,3.5098817,3.1100521,9.2511482,-7.7251906,-25.3893127,-0.8396947
280,3.6152260,3.0238612,9.3014259,-7.4122138,-35.5648842,-4.0687022
290,3.4236910,2.9304879,9.1865053,-8.1221371,-46.9465637,-7.7786260
300,2.9640064,2.8610563,9.1697454,-9.1679392,-61.0610695,-9.8244276
310,2.9927368,2.6982515,9.1601686,-10.0610685,-80.1068726,-10.1068707
320,3.3063757,2.4660151,9.1673517,-10.9236641,-98.3206100,-7.6946564
330,3.5912843,2.3654592,8.8513184,-12.7709923,-118.4351120,-4.4885497
340,3.8067613,2.2218077,8.2024927,-16.2824421,-141.8473358,-0.4427481
350,4.3310885,2.3463056,8.0708122,-23.3969460,-162.7251892,4.7175574
360,4.9416070,2.3582766,8.0157461,-30.6641216,-177.1832123,10.5496187
370,6.6750002,2.5402350,8.2910776,-41.2137413,-172.1832123,15.5267172
380,8.6118994,2.2577207,8.9734221,-53.4809151,-138.9313049,16.1908398
390,10.0412302,2.1571648,9.6892843,-68.0000000,-87.4580154,14.5572519
400,10.7499104,2.2625091,10.7259684,-81.4885483,-25.5877857,9.3435116
410,10.4530315,1.7262106,12.1409349,-88.8549652,31.1526718,3.7404580
420,9.4857788,1.1037214,13.4505568,-82.6030502,76.8015289,0.4885496
430,7.9870162,1.1420283,13.6540623,-65.8549652,102.8625946,-1.5572519
440,6.4379754,0.8690908,13.2614155,-44.0458031,112.3206100,-1.9312977
450,5.1690550,0.8954269,12.3109226,-20.3664131,106.9847336,-0.1068702
460,4.5824785,1.2234308,11.2024126,1.0916030,91.4656525,1.6793894
470,4.5369892,1.5801650,10.1322098,19.4885502,68.6488571,-0.8396947
480,3.9432299,2.3630650,8.0660238,43.5496178,21.9389305,-13.8931293
490,3.0837159,3.0454090,6.5816269,52.7938919,-13.2595415,-25.8015270
500,2.3056045,3.0430148,6.1841912,53.5343513,-21.4809170,-28.3511448
510,1.6855093,3.2082138,5.7556314,51.7557259,-26.0000000,-27.2366409
520,0.9672526,3.3398943,5.3581958,48.7404594,-29.0534344,-23.3053436
530,0.2896969,3.3279233,5.1092005,43.4656487,-31.7862587,-15.7022905
540,-0.1364688,3.3566537,4.8171091,37.7557259,-34.6259537,-5.1526718
550,-0.2250538,3.4643922,4.7764082,31.0610695,-36.2290077,7.4656487
560,0.0335187,3.6487448,4.7428894,25.1221371,-37.3435097,19.5343513
570,0.3543400,3.6080434,4.8673873,18.8015270,-35.3893127,29.9923668
580,0.9935886,3.7229645,4.9440012,13.3664122,-31.3282452,39.2290077
590,2.8371146,3.7852135,4.9655490,-0.9465649,-15.1526718,47.1297722
600,4.9942794,3.6918402,5.8274570,-37.5725174,10.9541988,25.8702297
610,5.4156566,2.8442972,7.2448173,-53.4656487,-2.4885497,19.4961834
620,5.8490047,2.6144550,8.1546097,-57.7328262,-8.7404585,16.0458012
630,5.8633699,2.5450234,9.2272062,-57.2977104,-13.8320608,13.6717558
640,6.1003947,2.4755919,9.8664551,-53.5801544,-16.5877857,12.5877867
650,6.7731619,2.3079987,10.1920643,-49.6564903,-16.1526718,11.6488552
660,7.4435349,2.4324965,10.2854376,-47.4122124,-11.0381680,8.9160309
670,11.2119894,2.6240315,9.9358864,-69.0839691,25.6717548,-5.9923663
680,12.0858688,2.6264257,10.5966825,-83.2671738,39.2137413,-19.7709923
690,12.2893744,2.7006457,12.3252869,-92.5648880,37.2290077,-37.2900772
700,12.6461086,2.7988074,14.8774929,-89.4274826,19.6106873,-58.6183205
710,13.7043400,2.6838863,17.4153347,-71.7175598,-3.2366412,-82.9465637
720,15.2438040,2.5713594,19.5844688,-40.4732819,-25.1603050,-113.8625946
730,16.4313221,2.5546002,19.6126022,-2.8015268,-41.0610695,-150.3206177
740,17.2357693,2.4684093,19.6126022,37.0763359,-50.4809151,-187.6641235
750,17.3889980,2.5330524,19.6126022,70.1526718,-54.6641235,-222.6412201
760,16.5845509,2.7557120,19.6126022,95.8167953,-52.6259537,-250.1374054
770,15.4353390,2.9448531,19.6126022,116.5114517,-43.5114517,-250.1374054
780,14.4178085,2.9783716,19.6126022,130.8931274,-28.1374054,-250.1374054
790,13.7043400,2.7940190,19.0098648,141.4274750,-3.7557251,-250.1374054
800,12.5503407,2.3319404,17.9779682,150.7633514,21.2671757,-250.1374054
810,11.7842007,1.7740943,16.7066536,160.4885559,47.1526718,-250.1374054
820,11.0922794,1.2473727,15.4640694,172.4961853,67.7099228,-250.1374054
830,10.0148945,0.7900825,13.7857428,186.6335907,82.7709961,-250.1374054
840,8.7579451,0.3136388,12.2965574,199.4427490,88.0305328,-250.1374054
850,7.3429790,0.1197095,10.7523050,210.0839691,83.6641235,-250.1374054
860,6.1339135,-0.0957676,9.3612804,218.5877838,76.7786255,-250.1374054
870,5.1259594,-0.6512195,7.8864598,223.5954132,71.6946564,-250.1374054
880,4.1802549,-1.0486550,6.4044566,224.2137451,69.3435135,-250.1374054
890,3.0980811,-1.3862357,5.3390427,221.9160309,69.9618301,-250.1374054
900,2.1212518,-1.5610116,4.5489597,217.0610657,72.5343475,-250.1374054
910,0.6943150,-1.8459201,3.7253587,209.6488495,76.6488571,-250.1374054
920,-0.6919208,-2.2912393,3.6248028,203.1832123,76.9312973,-250.1374054
930,-1.7501525,-2.9041519,3.6271970,201.8625946,75.2519073,-250.1374054
940,-3.2106080,-3.6559272,3.5410061,205.1755676,71.1068726,-250.1374054
950,-5.6000090,-4.4005203,3.4835455,212.7328186,62.3587799,-250.1374054
960,-8.2072811,-5.1834202,3.1866663,223.6717529,41.7328262,-250.1374054
970,-10.8648319,-5.9758968,2.5067163,233.7633514,11.8778629,-250.1374054
980,-13.3883076,-6.2224984,1.3191984,238.6335907,-22.3282452,-250.1374054
990,-15.0929699,-5.9088597,-0.2082945,231.4732819,-56.9389305,-244.2519073
1000,-16.0602226,-5.2887645,-1.5227045,211.0229034,-84.5419846,-207.6717529
1010,-16.5653973,-4.7740140,-2.1906834,179.2671814,-96.3358765,-165.7404633
1020,-16.1631737,-4.3263001,-2.2625091,142.1068726,-89.9770966,-120.4809189
1030,-15.2366219,-4.2329268,-2.0374553,101.8015289,-64.4732819,-74.2137375
1040,-14.3986549,-4.2568688,-1.5346755,64.8091583,-23.8702297,-29.5419846
1050,-13.8599625,-4.4100971,-0.9864060,28.8931293,26.4122143,14.4656487
1060,-13.3188763,-4.7740140,-0.7206510,-2.3893130,73.6870193,55.8931313
1070,-12.9501705,-5.3605900,-0.4812321,-28.1755733,112.9007645,95.7022934
1080,-12.5766773,-6.1171541,0.0071826,-47.6870232,139.0229034,131.7786255
1090,-12.2534618,-6.9766679,0.4716553,-58.8549614,150.8625946,167.3969421
1100,-12.0595322,-7.9463148,0.5746055,-61.4351158,146.8854980,201.2442780
1110,-11.7650471,-8.6621771,0.3926471,-58.9236641,125.4885483,234.1068726
1120,-11.2215662,-9.6030941,-0.1221037,-52.3816795,90.6717529,250.1297760
1130,-10.3117743,-10.3979645,-0.9720409,-46.1603050,51.8320618,250.1297760
1140,-9.8018112,-11.2957859,-1.3790531,-39.3587799,18.8473282,250.1297760
1150,-8.6142941,-11.9015160,-1.9345051,-34.9312973,-7.2061067,250.1297760
1160,-7.3429790,-12.6939926,-2.6695213,-34.5801544,-20.4351139,250.1297760
1170,-6.9048424,-13.6971579,-3.5050933,-40.7786255,-16.4274807,250.1297760
1180,-6.8066807,-15.0546637,-5.1738434,-56.8931313,-1.4503816,250.1297760
1190,-6.5648675,-16.9364967,-6.8162575,-88.8625946,20.8320618,250.1297760
1200,-6.2296810,-19.6131992,-7.5345144,-135.8625946,43.2213745,250.1297760
1210,-5.1163831,-19.6131992,-6.6486640,-187.4885559,57.8244286,250.1297760
1220,-2.9879484,-19.6131992,-4.3765783,-234.8549652,50.1374054,250.1297760
1230,1.3263810,-19.6131992,-1.0318956,-250.1374054,35.7404594,250.1297760
1240,10.6421719,-19.6131992,3.9695661,-250.1374054,50.7938919,250.1297760
1250,19.6126022,-19.6131992,9.6054878,-250.1374054,113.0152664,250.1297760
1260,19.6126022,-19.6131992,15.3467541,-250.1374054,181.1603088,250.1297760
1270,19.6126022,-19.6131992,19.6126022,-250.1374054,221.8854980,250.1297760
1280,19.6126022,-19.6131992,19.6126022,-250.1374054,185.4580078,250.1297760
1290,19.6126022,-16.3211899,19.6126022,-169.1832123,119.1450348,250.1297760
1300,19.6126022,-8.4826136,19.6126022,-60.5648842,40.0228996,250.1297760
1310,19.6126022,-3.3973548,19.6126022,3.5801528,-74.1068726,208.0381622
1320,19.6126022,-2.7054341,15.6819410,17.7480907,-172.8854980,107.9847336
1330,19.6126022,-1.7956421,13.5032282,7.5801525,-199.9389343,69.3740463
1340,19.6126022,-0.9002152,13.9988260,-8.0305347,-150.9007568,66.9694672
1350,19.6126022,-0.6751614,14.3459835,-18.0610695,-46.5725174,84.9465637
1360,17.2597122,-0.8140244,13.7498302,-16.0458012,45.9007645,111.2442780
1370,15.7082767,-0.6344602,11.5447817,-10.1984730,93.4274826,133.3053436
1380,15.8878412,-0.0622489,9.7132263,-7.8091602,104.8854980,141.1374054
1390,16.9652271,0.3710994,8.8872309,-4.9465647,92.2900772,134.5343475
1400,18.6698895,0.8690908,8.3772688,-0.6946565,67.0229034,114.9007645
1410,19.6126022,3.2848279,12.7227230,-12.5038166,116.2442780,88.7709961
1420,19.6126022,3.5793133,17.1184540,7.9236641,143.0458069,-0.8167939
1430,19.6126022,1.7309990,10.9198980,41.4580154,57.1908379,-68.1984711
1440,11.1688938,0.0622489,3.3973548,32.7557259,7.2900763,-71.2137375
1450,9.3062143,1.0965388,5.4324160,-4.9160304,-24.1450386,-53.4122124
1460,10.1537571,1.1156923,6.5026188,-5.5572519,-13.1374044,-49.6030540
1470,10.7211800,1.1420283,7.7691450,-6.4656487,8.3358774,-49.3129768
1480,10.1705170,0.9002152,7.8361821,-3.9541984,27.3587780,-54.6488533
1490,8.8010406,0.2657550,7.4507174,-0.3129771,34.2595406,-55.4198456
1500,8.2288294,-0.0957676,7.1610208,1.8396946,33.6259537,-50.7862587
1510,8.5592270,-0.1316804,7.1322904,4.8549619,29.1450386,-45.9465637
1520,9.4163475,-0.0861908,7.0987716,7.7328243,25.5801525,-45.1297722
1530,10.5080976,-0.0502780,7.2232695,8.3206110,23.3664131,-48.0992355
1540,11.6836443,0.2346306,7.4195933,7.2290077,22.8396950,-55.1984749
1550,12.7466650,0.3758878,7.8768835,6.5343513,23.5114498,-65.9160309
1560,13.8623571,0.7230452,8.1019373,6.7480917,27.0000000,-79.8549652
1570,14.7410240,0.7805058,8.3892403,7.0534353,31.0687027,-97.0610657
1580,15.3084478,0.7326220,8.4993725,6.6259542,32.9847336,-117.8015289
1590,15.5239248,0.5937590,8.7866755,5.3664122,24.9618320,-141.5648804
1600,15.8878412,0.7685348,9.9263096,6.3816795,12.5801525,-166.4656525
1610,16.7042599,1.0079538,11.0204544,13.0152674,1.4503816,-192.7786255
1620,16.7641144,1.0965388,11.7794123,23.5267181,-14.0076332,-221.9007568
1630,16.7018661,0.7948709,12.2726154,34.4198456,-34.4122124,-250.1374054
1640,17.2190113,0.9600700,12.9262285,43.2366409,-50.3969460,-250.1374054
1650,17.2357693,1.4508789,13.7426472,51.1908379,-60.9389305,-250.1374054
1660,16.7736912,1.3239868,14.2310619,59.7175560,-68.5038147,-250.1374054
1670,16.6898956,1.0462608,14.7936964,68.9694672,-71.8854980,-250.1374054
1680,16.3235836,0.8619082,15.0881815,80.5343475,-67.1297684,-250.1374054
1690,15.8016500,0.4668669,15.1935263,93.7328262,-66.4427490,-250.1374054
1700,14.6524391,0.0239419,15.1480370,109.3587799,-66.0763321,-250.1374054
1710,13.4074612,-0.5458752,14.6500454,125.5954208,-64.4198456,-250.1374054
1720,12.2438850,-1.0366840,13.7785606,140.7862549,-59.8549614,-250.1374054
1730,10.8528605,-1.4484847,12.6844158,152.0229034,-47.6717567,-250.1374054
1740,9.8065996,-1.6567791,11.6477318,161.3664093,-28.7633591,-250.1374054
1750,8.6023226,-1.9153515,10.4745789,170.1297760,-4.1145039,-250.1374054
1760,6.7899213,-2.4348907,9.0524302,179.1450348,18.1068707,-250.1374054
1770,5.0254035,-2.9520357,7.6374645,188.2977142,30.3129768,-250.1374054
1780,3.2776453,-3.3303175,6.1865854,196.3435059,29.3282452,-250.1374054
1790,1.8531027,-3.6487448,4.7620430,200.7404633,21.7404575,-250.1374054
1800,0.6799498,-4.0677280,3.5673423,201.7175598,12.6335878,-250.1374054
1810,-0.6248835,-4.4100971,2.7772598,201.6183167,1.9770992,-250.1374054
1820,-1.9776005,-5.3079181,2.3534882,199.9923706,-11.9160309,-250.1374054
1830,-3.2058196,-6.0309634,2.1715298,199.4580078,-30.9007626,-250.1374054
1840,-4.5465660,-6.9886389,2.2912393,201.0000000,-53.0992355,-250.1374054
1850,-6.4068508,-8.2743187,2.4564383,203.6106873,-76.3435135,-250.1374054
1860,-8.5257082,-9.3636751,2.0278785,203.7099304,-92.3358765,-250.1374054
1870,-11.6860390,-9.7012558,0.5889706,192.3893127,-96.3740463,-250.1374054
1880,-14.7027178,-9.5240860,-0.7445929,168.2213745,-81.2442780,-250.1374054
1890,-17.5613804,-9.0811605,-1.7501525,134.3740387,-57.3206100,-250.1374054
1900,-19.3665981,-7.9965930,-2.3486998,96.3816757,-31.9618320,-250.1374054
1910,-19.6131992,-7.1849627,-1.8411317,61.4580154,-10.4045801,-195.3816833
1920,-19.6131992,-6.7971039,-1.2593436,31.3969460,2.3587787,-125.2595444
1930,-19.6131992,-7.2879128,-0.5841822,7.1526718,9.8702288,-50.2519073
1940,-19.6131992,-7.7595682,-0.0454896,-12.5267172,21.4274807,22.7480907
1950,-18.6794662,-8.5041609,0.2370248,-30.5954189,40.8702278,90.5038147
1960,-16.5510311,-9.3133974,0.1819584,-50.3206100,68.9160309,149.0076294
1970,-14.8535509,-10.3644457,0.5769997,-68.7862625,95.0229034,200.8091583
1980,-13.6325150,-11.3939476,0.8643024,-83.1221390,115.2213745,247.3893127
1990,-12.9980545,-12.3707771,0.8738791,-89.6717529,116.5267181,250.1297760
2000,-12.1936073,-13.3930960,1.0342898,-89.6793900,101.0763321,250.1297760
2010,-11.5735121,-14.5518837,1.0582317,-81.9312973,78.4045792,250.1297760
2020,-11.4849272,-16.0075512,-0.2585725,-71.5038147,49.1450386,250.1297760
2030,-10.9103212,-17.4129391,-1.6448082,-67.2366409,22.3053436,250.1297760
2040,-9.5456333,-19.1487274,-3.3135581,-75.2671738,17.0229015,250.1297760
2050,-8.4682484,-19.6131992,-4.1706781,-99.5343475,42.5343513,250.1297760
2060,-7.0844064,-19.6131992,-4.1587071,-132.5648804,77.4961853,250.1297760
2070,-4.8961172,-19.6131992,-3.4356618,-170.0305328,104.5648880,250.1297760
2080,-1.1228749,-19.6131992,-2.6599445,-210.6259613,125.0839691,250.1297760
2090,5.6047974,-19.6131992,-0.7326220,-250.1374054,149.4045868,250.1297760
2100,15.4832230,-19.6131992,2.4277081,-250.1374054,188.0915985,250.1297760
2110,19.6126022,-19.6131992,5.5425487,-250.1374054,224.2366486,250.1297760
2120,19.6126022,-19.6131992,12.5982246,-250.1374054,250.1297760,250.1297760
2130,19.6126022,-19.6131992,19.6126022,-250.1374054,250.1297760,250.1297760
2140,19.6126022,-15.7944679,19.6126022,-250.1374054,238.5496216,250.1297760
2150,19.6126022,-3.4332676,19.6126022,-199.2061005,113.8625946,250.1297760
2160,19.6126022,1.6974803,19.6126022,-56.0458031,16.6335869,119.7938919
2170,19.6126022,1.7764885,19.6126022,47.7404594,-68.4503784,-35.6335869
2180,19.6126022,2.2864509,18.8638191,79.6030502,-103.8091583,-96.7633591
2190,19.6126022,3.0597742,12.3923244,58.6335869,-58.6793900,-83.0610657
2200,15.5335016,3.6798692,8.1713686,10.9007635,50.4961815,-34.9923668
2210,12.4090843,4.0102673,6.5744443,-48.9160309,160.7786255,18.1221371
2220,11.6429434,4.1419477,7.7164726,-94.0229034,220.5267181,50.6564903
2230,11.5136566,4.2544746,10.3883877,-112.9694672,231.9541931,55.3587799
2240,11.3867655,3.8953462,12.7706070,-104.0305328,211.4427490,39.7633591
2250,10.6325951,3.3710186,13.6684275,-75.7938919,160.3816833,11.8854961
2260,9.1003141,2.9544299,13.3476067,-39.7099228,83.3282471,-21.8778629
2270,7.0245519,2.0590029,11.9398232,-8.3587790,4.8549619,-48.0381660
2280,5.0230093,1.3048333,10.3955708,11.5267172,-59.9007645,-59.7099228
2290,3.8426740,0.8930327,9.1386213,17.6717548,-102.2748108,-53.7557259
2300,3.8139439,0.5434810,8.7747040,18.1221371,-119.7557220,-35.9083977
2310,4.6566987,0.3758878,8.9111729,15.2442751,-114.8015289,-11.1679392
2320,11.9134865,1.5059452,8.9566631,-5.7328243,-27.0305347,21.1526718
2330,13.8695393,2.5737536,9.7012558,-21.5572510,21.5343513,14.6717558
2340,14.2789459,3.0358322,11.0755205,-30.5343513,49.0610695,-0.2366412
2350,14.1496601,2.9304879,12.5790710,-26.4122143,49.4274826,-17.4885502
2360,14.1520538,2.9568241,13.7905312,-11.6641226,22.7557259,-37.5496178
2370,14.6261034,3.1507533,14.7458124,8.5419846,-16.0916023,-59.7175560
2380,15.7417955,3.3782012,15.6077213,29.9007626,-53.3358765,-84.4122162
2390,16.8670654,3.6990228,16.1033192,49.9083977,-80.8244247,-111.3664093
2400,18.4591999,4.0006905,16.1128960,66.5114517,-93.2137375,-141.5648804
2410,19.5246143,4.2760224,15.7394018,78.8854980,-88.2442780,-174.1526642
2420,19.6126022,3.8857694,15.3323889,86.3435135,-76.1068726,-208.6106873
2430,19.6126022,3.2201848,15.0043850,92.1526718,-67.8473282,-245.1755676
2440,18.4879303,2.2170193,15.0211449,102.4198456,-71.1603088,-250.1374054
2450,16.5294838,1.2018831,14.9852314,116.7709961,-80.7862625,-250.1374054
2460,14.5758257,0.2657550,14.6404686,137.5648804,-93.6106873,-250.1374054
2470,13.1800127,-0.2920911,13.7354650,160.1526642,-99.8091583,-250.1374054
2480,11.9805241,-0.4932030,12.1337519,178.3893127,-97.2900772,-250.1374054
2490,11.2838144,-0.6775556,9.9334917,188.1984711,-89.3816757,-250.1374054
2500,10.3788109,-0.7302278,8.2024927,190.8473358,-82.7557220,-250.1374054
2510,8.9470863,-1.0079538,6.6414814,187.9160309,-73.4045792,-250.1374054
2520,7.5249376,-1.1923064,5.5233951,181.6793823,-62.3587799,-250.1374054
2530,6.0405402,-1.3335636,4.7309184,176.3664093,-50.1374054,-250.1374054
2540,4.7213416,-1.2425843,3.7660601,170.2595367,-37.5648842,-250.1374054
2550,3.4643922,-0.9768293,2.7892308,162.7328186,-25.4656487,-250.1374054
2560,2.3367288,-0.7541697,2.0087249,154.4885559,-15.2671757,-250.1374054
2570,1.4149660,-0.6033357,1.5298871,145.0763397,-8.5801525,-250.1374054
2580,0.4596844,-0.4572902,1.0630201,136.5267181,-5.9236641,-250.1374054
2590,-0.4668669,-0.2920911,1.0989330,132.1832123,-11.5190840,-250.1374054
2600,-1.0893562,-0.0263361,1.3120158,132.7786255,-19.7480907,-250.1374054
2610,-1.4101776,0.0383070,1.0342898,135.8244324,-31.2748089,-250.1374054
2620,-1.8459201,0.0023942,0.5602403,138.0305328,-46.4198456,-250.1374054
2630,-2.6910689,-0.3830703,0.2633608,137.0305328,-60.2366409,-250.1374054
2640,-3.6918402,-0.5841822,0.1125269,133.5267181,-70.0305328,-250.1374054
2650,-4.5705075,-0.8762733,0.0933734,128.1984711,-75.5877838,-250.1374054
2660,-6.0357518,-1.4006008,0.5243275,122.1908417,-79.6946564,-250.1374054
2670,-7.9391322,-2.0206959,1.1228749,117.8320618,-81.9465637,-250.1374054
2680,-9.6677370,-2.4755919,1.1635761,114.0305328,-82.0381699,-250.1374054
2690,-10.8576488,-2.7030399,1.2018831,109.4885483,-78.4427490,-219.2748108
2700,-11.6573086,-2.6910689,1.0510491,104.5496216,-74.1450348,-182.4656525
2710,-12.0427732,-2.7557120,0.6057299,99.4580154,-64.5954208,-143.1908417
2720,-12.2247314,-3.0430148,-0.0526722,85.4885483,-49.6793900,-101.3053436
2730,-12.2654324,-3.2106080,-0.4237715,67.1297684,-32.4809151,-59.4427490
2740,-11.9709473,-3.7493007,-0.5219333,45.6488533,-14.1832066,-16.3664131
2750,-11.3197279,-4.3789725,-0.0335187,27.8167934,4.5877862,25.2977104
2760,-10.8528605,-5.0038562,0.8283895,17.1526718,20.0305347,66.5725174
2770,-10.0771437,-5.3941088,1.2425843,14.0763359,29.4580154,103.8625946
2780,-9.4690189,-6.0285692,1.1132981,15.9465647,31.8244267,137.8702240
2790,-9.7347746,-6.8234401,0.0909792,21.7786255,18.4961834,170.0305328
2800,-9.9430685,-7.8313937,-0.6488253,26.4503822,-12.7480917,203.8778687
2810,-9.9358864,-8.6430235,-0.7038917,29.3587780,-39.2900772,240.6259613
2820,-10.3261395,-10.0819321,-0.5793939,31.9694653,-49.9312973,250.1297760
2830,-10.7977943,-10.8408899,-0.2346306,32.0228996,-37.5572510,250.1297760
2840,-11.8560257,-11.9733410,-0.5602403,24.6183205,13.3969469,250.1297760
2850,-13.8910875,-14.0730457,-0.9744351,8.0381680,86.1068726,250.1297760
2860,-15.3012648,-17.1352139,-1.4604555,-13.0839691,138.7557220,250.1297760
2870,-14.0371332,-19.6131992,-1.1132981,-33.5190849,155.9923706,250.1297760
2880,-11.3843708,-19.6131992,-0.6871324,-41.7328262,151.4580078,250.1297760
2890,-2.7940190,-19.6131992,-1.3263810,-51.2366409,161.9847260,250.1297760
2900,12.5910425,-19.6131992,-2.5378408,-75.4656525,229.4503784,250.1297760
2910,19.6126022,-19.6131992,-1.0486550,-123.8625946,250.1297760,250.1297760
2920,19.6126022,-19.6131992,1.8339491,-212.0915985,250.1297760,250.1297760
2930,19.6126022,-8.6549950,12.7083578,-250.1374054,250.1297760,250.1297760
2940,19.6126022,-0.9409165,19.6126022,-250.1374054,250.1297760,250.1297760
2950,19.6126022,0.3232156,19.6126022,-154.8931274,245.0534363,249.5648804
2960,19.6126022,0.8236012,19.6126022,-59.0916023,27.9160309,95.1984711
2970,19.6126022,1.0366840,19.6126022,-3.9465649,-127.6259537,30.0076332
2980,19.6126022,2.1787124,17.4919491,19.8625946,-134.5114441,29.3358784
2990,19.6126022,3.8737986,14.1257181,21.4580154,-29.4122143,55.2748108
3000,19.6126022,4.6566987,10.1346035,8.1374044,86.3129807,86.6793900
3010,18.3155499,5.3438311,7.7045016,-7.0992365,141.8244324,108.1755753
3020,17.9157200,6.2368636,6.8162575,-11.7709923,144.5648804,110.7633591
3030,18.5382080,6.5289545,6.3469963,-7.0152674,131.1145020,98.2442780
3040,18.2820301,6.6726060,5.1522956,-3.5114503,123.9923630,76.6259537
3050,16.8694592,6.5361371,3.7684543,-5.4961834,117.1450348,54.0076332
3060,15.3156300,5.9447722,2.6958573,-10.2977095,100.1603088,32.9236641
3070,14.0227680,5.6670465,2.2289903,-16.8931293,75.4427490,12.9007635
3080,12.8711624,5.3079181,2.0111191,-24.7786255,55.8625946,-5.0992365
3090,11.6908274,4.6710634,2.2242019,-33.1679382,43.3816795,-18.7862587
3100,10.7427282,4.1347651,2.8969693,-39.5801544,34.4656487,-28.7480907
3110,9.6485834,3.5793133,3.5577655,-42.0305328,29.6946564,-35.4580154
3120,8.5568333,3.1411765,4.0270267,-41.8015251,24.3435116,-38.7557259
3130,7.5177550,2.7269819,4.3598189,-40.4427490,18.7786255,-37.8396950
3140,6.7133074,2.4420733,4.4364328,-37.7175560,13.8549614,-33.0076332
3150,6.5002246,2.3822186,4.3310885,-35.4045792,8.0000000,-26.2213745
3160,6.7683735,2.3486998,4.1587071,-35.6412201,4.0305343,-20.0916023
3170,7.1825686,2.3367288,4.2496862,-37.2748108,3.0229008,-15.8396950
3180,7.5680327,2.2242019,4.3526363,-38.8015251,4.4274807,-13.1145039
3190,8.0396881,2.2696917,4.3837609,-40.8854980,8.0610685,-12.6717558
3200,8.5640154,1.9608412,4.2377152,-45.4274826,13.8549614,-14.0229006
3210,8.8968077,1.9536586,4.6279683,-51.7404594,18.0229015,-17.0305347
3220,9.1841106,1.8554969,5.1522956,-56.6412201,20.3740463,-21.0305347
3230,9.2032642,1.5777708,5.9016771,-59.1832047,21.7786255,-24.7099228
3240,9.3181858,1.2832855,6.5528965,-60.5038185,23.3282452,-26.5496178
3250,9.6509781,1.1468167,7.2615767,-60.3816795,28.0534344,-25.8244267
3260,10.0364418,1.1587877,8.3102312,-56.9694672,32.4427490,-24.1297703
3270,10.7427282,1.2066715,8.8201942,-51.9083977,38.6870232,-21.8167934
3280,11.8177195,1.4006008,9.2822723,-45.7633591,45.5877876,-19.0229015
3290,13.2422619,1.8483143,9.9526453,-39.6183205,50.6106873,-18.5419846
3300,15.2414103,2.2433555,10.5152798,-33.1145020,56.3358765,-23.7938938
3310,17.3722382,2.5929072,11.0396080,-26.6412220,60.8244286,-37.3435097
3320,19.6126022,3.1938488,11.7530756,-19.2519093,66.8778610,-62.1603050
3330,19.6126022,3.2944047,12.1289635,-10.6564884,71.1221390,-94.8854980
3340,19.6126022,3.2489152,13.0339670,1.3587786,53.8778610,-129.0381622
3350,19.6126022,3.3901722,13.9820662,19.1832066,28.6793900,-163.2519073
3360,19.6126022,3.2608860,14.6452570,39.6030540,-3.7480917,-200.2748108
3370,19.6126022,3.0334380,15.0139618,56.4274826,-41.8473282,-239.9465637
3380,19.6126022,2.9328821,15.8758707,73.4961853,-75.9770966,-250.1374054
3390,19.6126022,2.4612267,16.2661228,92.2748108,-95.6641235,-250.1374054
3400,19.6126022,1.7070571,16.0721931,109.0000000,-97.4274826,-250.1374054
3410,19.6126022,0.9002152,15.2677460,124.8931274,-85.1374054,-250.1374054
3420,19.6126022,-0.3471575,14.5087881,139.1526642,-70.4427490,-250.1374054
3430,19.0098648,-1.2689204,13.1704359,150.2671814,-58.2671738,-250.1374054
3440,17.0514164,-2.3319404,11.8081427,158.1145020,-44.9083977,-250.1374054
3450,14.5063934,-3.5721307,10.2782555,163.3053436,-32.9618340,-250.1374054
3460,11.6285782,-4.8099265,8.8201942,165.1603088,-32.9923668,-250.1374054
3470,9.2846670,-5.5760674,8.0109577,165.7938995,-43.7404594,-250.1374054
3480,7.3693151,-5.8298512,7.5177550,167.7862549,-54.1832047,-250.1374054
3490,5.5042415,-6.4738884,6.9790621,171.0686951,-60.8549614,-250.1374054
3500,3.8785870,-6.8545642,6.2799587,175.4732819,-66.4351120,-250.1374054
3510,2.2768741,-7.0844064,5.4372044,180.4885559,-69.2213745,-250.1374054
3520,1.0103480,-7.5943689,4.1658897,184.8931274,-69.0687027,-250.1374054
3530,-0.4932030,-8.2838955,2.7437410,183.6335907,-67.8320618,-250.1374054
3540,-3.0478032,-8.6406298,2.1619530,178.5496216,-68.3206100,-250.1374054
3550,-5.8801293,-9.1697454,2.1787124,173.7633514,-75.5648880,-250.1374054
3560,-9.7946291,-10.3548698,2.3343346,173.1068726,-88.8931274,-250.1374054
3570,-14.4010496,-11.1066446,2.5258698,176.5114441,-111.0763321,-250.1374054
3580,-19.2732258,-10.3476868,1.8387375,180.2137451,-137.7404633,-250.1374054
3590,-19.6131992,-8.9063845,0.2513899,171.5038147,-181.1984711,-250.1374054
3600,-19.6131992,-7.9319496,-0.2537841,147.9084015,-218.1450348,-242.7404633
3610,-19.6131992,-7.1873569,0.0454896,119.6717529,-221.9847260,-160.5267181
3620,-19.6131992,-6.5169835,-0.0430954,85.0839691,-191.6335907,-78.4809189
3630,-19.6131992,-6.1698260,0.0814024,40.5572510,-124.8778610,-0.7251908
3640,-19.6131992,-6.2871413,1.3120158,-4.1297708,-34.7480927,68.3206100
3650,-18.6507359,-6.6031747,2.8993635,-39.5114517,61.5877876,130.0381622
3660,-17.4129391,-7.3286138,4.3143296,-61.2748108,141.9313049,183.5343475
3670,-16.3403435,-8.2048874,5.3151007,-69.2595444,193.2290039,230.4961853
3680,-15.1935263,-9.1481981,5.9112539,-66.2977066,218.2290039,250.1297760
3690,-13.7618008,-10.4841557,6.0429344,-55.1603050,221.6030579,250.1297760
3700,-12.3707771,-12.0092545,5.3222833,-41.2061081,208.7251892,250.1297760
3710,-10.7116032,-13.4002781,4.1156116,-31.4198475,181.6946564,250.1297760
3720,-9.6078825,-14.8128500,3.0645626,-26.5114498,151.0534363,250.1297760
3730,-9.2463598,-15.8447456,2.4564383,-23.6946564,117.5114517,250.1297760
3740,-9.0260944,-17.2716827,2.1284344,-17.2824421,79.3740463,250.1297760
3750,-8.7004843,-18.7105904,1.6352314,-6.1374044,43.3969460,250.1297760
3760,-8.5328913,-19.6131992,0.5123565,1.4351145,29.3969460,250.1297760
3770,-8.3557215,-19.6131992,-1.5155219,-4.8549619,37.8549614,250.1297760
3780,-6.5098009,-19.6131992,-3.4332676,-33.9312973,66.6030502,250.1297760
3790,-3.1651185,-19.6131992,-3.3039815,-77.9465637,102.3282471,250.1297760
3800,1.8004304,-19.6131992,-0.7350162,-119.1679382,122.2977066,250.1297760
3810,12.1361465,-19.6131992,3.6152260,-142.6030579,128.2442780,250.1297760
3820,19.6126022,-19.6131992,8.2671366,-147.4503784,173.2671814,250.1297760
3830,19.6126022,-19.6131992,12.9908724,-145.0992432,239.6641235,250.1297760
3840,19.6126022,-18.4568062,17.8127689,-136.8015289,250.1297760,250.1297760
3850,19.6126022,-7.5752153,19.6126022,-118.5877838,250.1297760,250.1297760
3860,19.6126022,-1.2761030,18.9978924,-102.6488571,209.8625946,250.1297760
3870,19.6126022,1.2090657,16.0458584,-76.8396912,121.2213745,192.8931274
3880,19.6126022,1.1803354,12.6101961,-71.5648880,47.2900772,104.5572510
3890,19.6126022,1.7333932,11.9182749,-79.0610657,9.1603050,72.5343475
3900,19.6126022,2.6024840,13.1033993,-86.3053436,25.5954189,70.6793900
3910,19.6126022,3.6080434,14.0275564,-82.6793900,79.2442780,72.5801544
3920,19.6126022,4.3502421,13.6660337,-70.2519073,127.2442780,69.9007645
3930,19.6126022,4.7045822,12.1169930,-58.7786255,153.0000000,62.6106873
3940,18.8877602,4.9942794,10.4362717,-52.0916023,157.2671814,49.2748108
3950,17.3267498,4.6399393,9.3062143,-46.4961815,136.4961853,32.7022896
3960,16.0458584,4.4292507,8.6861191,-38.1297722,97.6641235,12.6488552
3970,14.6763811,4.0773048,8.3652983,-27.8091602,51.9847336,-7.8244276
3980,13.4505568,3.8139439,8.1258793,-19.7404575,15.2900763,-23.7251911
3990,12.3133163,3.4141142,7.9487090,-13.1068707,-5.2061067,-33.8015251
4000,10.9558105,3.1268115,7.5943689,-9.0687027,-12.2824430,-37.5114517
4010,9.7587166,2.9065459,7.2903070,-5.9541984,-8.9923668,-35.1755714
4020,8.5711985,2.6958573,6.8904772,-3.4809160,-2.3511450,-28.9694653
4030,6.6702118,2.2433555,6.1051831,1.6870229,1.0305344,-11.0076332
4040,6.3230543,2.1236460,5.9232249,3.5419848,0.2671756,-1.3206106
4050,6.2272868,1.9991482,5.8585815,4.9694657,0.0839695,6.7557254
4060,6.2320752,1.5993185,5.5018473,6.1450381,-2.3893130,13.3740454
4070,6.5409255,1.5011568,4.9703374,5.4503818,-9.3206110,18.2213745
4080,7.7260494,1.5945302,5.1882086,-1.1450381,-15.2519083,17.9465656
4090,7.9918046,1.4317253,5.4252334,-2.4961832,-14.0458012,15.7099237
4100,8.0492649,1.4341195,5.5281835,-2.9847329,-12.7709923,14.2290077
4110,9.6725254,0.9480990,5.3701668,-15.2366409,13.7938929,14.5343513
4120,10.5871058,0.7924767,5.4467812,-21.3435116,26.0152664,13.4809160
4130,11.8727856,0.5985473,5.5305777,-29.6183205,41.1832047,10.9618320
4140,13.2183199,0.6751614,6.1243367,-36.7175560,57.3969460,7.8244276
4150,15.1169119,0.7709290,6.9623032,-41.3740463,73.2290039,1.1603054
4160,16.7473545,1.0965388,7.9104018,-43.2977104,83.9312973,-12.2519083
4170,17.7577038,1.0558375,8.7794924,-42.3740463,86.0534363,-31.3358784
4180,18.2389355,0.8666966,9.4163475,-38.8167953,79.1221390,-52.1145020
4190,19.3929348,0.8283895,10.2088242,-31.8167934,68.4732819,-71.7022934
4200,19.6126022,1.1923064,11.0779142,-21.8396950,59.5114517,-93.0381699
4210,19.6126022,1.9680238,11.7746239,-11.8320608,47.0687027,-120.9465637
4220,19.6126022,2.7413468,12.5240049,-4.4427481,29.0916023,-155.6793823
4230,19.6126022,3.4835455,13.5846310,1.9770992,7.9541984,-193.4045868
4240,19.6126022,3.6822634,14.7865143,11.1908398,-13.4656487,-228.8091583
4250,19.6126022,3.6918402,16.3666782,25.6793900,-33.7099228,-250.1374054
4260,19.6126022,3.4596038,17.5733509,47.1984749,-48.7328262,-250.1374054
4270,19.6126022,2.8610563,18.2149925,70.8167953,-53.2442741,-250.1374054
4280,19.6126022,1.8722562,18.1814747,95.4045792,-49.3358765,-250.1374054
4290,19.6126022,0.5434810,17.4416695,118.4961853,-42.7862587,-250.1374054
4300,19.6126022,-1.3383518,16.6228580,140.9694672,-43.7862587,-250.1374054
4310,18.0976772,-3.1052637,15.5981445,161.9923706,-41.3053436,-250.1374054
4320,14.7936964,-4.7620430,13.8072910,180.1068726,-35.3053436,-250.1374054
4330,11.5639353,-6.0118098,11.6501255,192.1679382,-28.4809170,-250.1374054
4340,8.4610653,-6.7133074,9.8927908,196.7633514,-21.9465656,-250.1374054
4350,5.6766233,-6.9814563,8.3461447,197.6870270,-16.8015270,-250.1374054
4360,3.3590479,-7.2017217,7.1059542,198.4045868,-14.1145039,-250.1374054
4370,1.7022687,-7.2879128,6.2392578,199.4885559,-17.9312973,-250.1374054
4380,0.8212070,-7.4962072,5.1929970,200.5343475,-29.5419846,-250.1374054
4390,-0.4740495,-7.7763271,4.3119354,198.4351196,-43.4427490,-250.1374054
4400,-1.6400198,-8.0516596,3.5386121,193.1221313,-54.2213745,-250.1374054
4410,-3.0765336,-8.5041609,3.2896163,187.8854980,-62.8702278,-250.1374054
4420,-4.6136031,-8.9207497,2.7940190,183.8778687,-74.1908417,-250.1374054
4430,-6.9311786,-9.4642305,2.2696917,181.0305328,-102.8167953,-250.1374054
4440,-10.4051476,-9.7228031,2.0398495,175.8244324,-152.6335907,-250.1374054
4450,-13.9198179,-9.8880024,2.4181314,167.7862549,-201.4045868,-250.1374054
4460,-16.2996426,-9.5911226,2.8347204,156.0992432,-229.9618378,-250.1374054
4470,-17.9755745,-9.3349447,3.5003049,142.0229034,-230.7709961,-250.1374054
4480,-18.4520187,-8.7962523,3.7349355,125.9312973,-199.8167877,-226.1679382
4490,-18.0090923,-8.6980906,3.5362179,107.4885483,-146.8931274,-154.8091583
4500,-17.1184540,-9.1793222,3.0406206,86.1526718,-78.4656525,-83.9083939
4510,-15.9620609,-9.9454632,2.0159075,60.1832047,8.0458012,-16.7633591
4520,-15.4449158,-11.0707321,1.0414724,28.5801525,92.0534363,43.2900772
4530,-15.7848911,-12.3851423,0.4165890,-6.6335878,167.1984711,96.2366409
4540,-17.7026367,-13.9317884,0.3734936,-37.4427490,216.6946564,151.5496216
4550,-19.6131992,-15.7657375,0.3974355,-59.9007645,227.1755676,212.1526642
4560,-19.6131992,-17.4680061,1.5442522,-74.1984711,202.6030579,250.1297760
4570,-19.6131992,-19.6131992,2.8323262,-70.5954208,166.6793823,250.1297760
4580,-19.6131992,-19.6131992,3.2824337,-53.6564903,124.4885483,250.1297760
4590,-19.6131992,-19.6131992,2.6503677,-32.6030540,83.6946564,250.1297760
4600,-17.8031921,-19.6131992,0.8954269,-16.6717548,66.5496216,250.1297760
4610,-14.1688128,-19.6131992,-1.3958124,-16.4656487,79.0916061,250.1297760
4620,-10.2902260,-19.6131992,-3.6918402,-36.7938919,102.6488571,250.1297760
4630,-6.5864153,-19.6131992,-5.4802995,-76.5648880,123.2900772,250.1297760
4640,-2.5689652,-19.6131992,-4.5896611,-123.3969498,126.9694672,250.1297760
4650,6.3924856,-19.6131992,-0.8355721,-165.6183167,114.8549652,250.1297760
4660,19.6126022,-19.6131992,5.3581958,-184.3435059,137.7480927,250.1297760
4670,19.6126022,-19.6131992,13.5606890,-184.7175598,231.1832123,250.1297760
4680,19.6126022,-19.6131992,19.6126022,-179.8854980,250.1297760,250.1297760
4690,19.6126022,-6.7707677,19.6126022,-149.0381622,250.1297760,250.1297760
4700,19.6126022,-2.9113343,19.6126022,-61.4351158,169.8931274,250.1297760
4710,19.6126022,-3.8378856,19.6126022,41.5572510,-42.5648842,148.4809113
4720,19.6126022,-1.2689204,12.0451670,85.1221390,-222.6946564,88.9618301
4730,19.6126022,2.3846128,7.5776095,73.6259537,-250.1374054,87.8473282
4740,19.6126022,4.3454537,7.8481531,46.6412201,-235.5267181,105.9847336
4750,19.6126022,6.1075773,8.7531567,27.1984730,-89.1908417,117.7099228
4760,19.6126022,5.7556314,9.1936874,21.6183205,44.8167953,129.0305328
4770,19.6126022,5.3366485,7.6973190,23.2137413,123.2824402,135.6412201
4780,19.6126022,4.6088147,6.1674318,28.9465656,141.2977142,134.6564941
4790,19.6126022,4.4436154,4.2640514,37.1908379,125.5801544,124.2137375
4800,19.6126022,5.0301919,2.0901275,39.9007645,92.3053436,98.5343475
4810,19.2899837,5.5066357,0.3998296,32.7099228,48.9618340,59.3740463
4820,17.8055878,5.5377603,-0.3136388,18.9847336,12.4580154,20.2824421
4830,15.8447456,4.9918852,-0.2753318,3.3664122,-12.6183205,-11.5572519
4840,13.5128050,4.1970143,0.4381367,-11.4580154,-24.5877857,-31.8396950
4850,11.1976242,3.1603301,1.5634058,-21.1145039,-27.6564884,-40.4122124
4860,9.1697454,2.2457497,2.7916248,-23.2900772,-25.4198475,-37.5648842
4870,7.8529415,1.6543850,3.5218527,-18.7862587,-18.3893127,-25.5419846
4880,7.2615767,1.4963684,3.6607156,-10.9923668,-8.6717558,-8.4885492
4890,7.3645267,1.4700323,3.3925664,-5.4427481,3.6946564,8.3358774
4900,10.3333216,1.5322813,2.1523764,-16.1526718,46.6412201,32.1068687
4910,10.5918941,1.2689204,2.2050486,-23.6259537,46.8549614,28.9923668
4920,11.1593170,1.1875180,3.0071020,-30.4427490,44.6030540,23.8778629
4930,13.0339670,1.4963684,4.0749106,-35.6870232,50.6564903,17.7022896
4940,14.1137466,1.2545552,5.3246775,-37.1526718,52.2290077,1.7022901
4950,13.6277266,1.1731528,5.2959471,-33.4885483,49.6946564,-10.9007635
4960,12.9382000,0.8978211,5.2624283,-30.6106873,41.0458031,-19.2442741
4970,12.3372583,0.6655847,5.0277977,-26.9923668,30.6870232,-24.6335869
4980,12.3659887,0.7350162,4.9703374,-24.0229015,21.4885502,-27.0992374
4990,13.6277266,0.8475431,4.9487896,-21.9389305,20.4503822,-30.1068707
5000,15.4401274,1.1228749,5.1690550,-22.3511448,27.2824421,-37.9465637
5010,17.2501354,1.0941446,5.2073622,-23.8320618,35.6183205,-53.1755714
5020,18.4975071,0.7278336,5.1379304,-26.5267181,43.5419846,-72.0305328
5030,19.6126022,0.9217629,5.4707227,-30.2442741,46.3282433,-93.5343475
5040,19.6126022,1.2138541,5.8370337,-32.8091621,50.0381660,-121.6564865
5050,19.6126022,1.1587877,5.9160423,-34.9236641,47.6259537,-156.0610657
5060,19.6126022,1.3958124,6.2655940,-37.1450386,39.4351158,-194.0915985
5070,19.6126022,1.6232605,6.5768385,-38.9007645,25.1297703,-235.8320618
5080,19.6126022,1.1611819,7.0820122,-39.2671738,4.2061067,-250.1374054
5090,19.6126022,0.6248835,7.6374645,-36.7862587,-19.2137413,-250.1374054
5100,19.6126022,0.3974355,8.4083929,-30.4656487,-38.4885483,-250.1374054
5110,19.6126022,0.7709290,8.9614515,-23.1145039,-46.1450386,-250.1374054
5120,19.6126022,1.2689204,9.5528164,-16.4045811,-44.7557259,-250.1374054
5130,19.6126022,1.0965388,10.1034794,-11.0839691,-48.8015251,-250.1374054
5140,18.0881004,0.7924767,11.1425581,-3.1374047,-52.3053436,-250.1374054
5150,16.7856617,0.5961532,12.0044661,12.0076332,-39.7251892,-250.1374054
5160,15.7968616,0.5722113,12.3085279,31.9083977,-15.6412210,-250.1374054
5170,13.2087431,-0.1125269,11.1976242,49.7938919,7.2900763,-250.1374054
5180,9.7515335,-0.8643024,10.0795374,64.4885483,17.6030540,-250.1374054
5190,6.6917596,-1.1851238,9.4953556,78.4122162,13.4503813,-250.1374054
5200,4.6973996,-1.0917504,9.1529865,94.7480927,0.0839695,-250.1374054
5210,3.2608860,-0.7302278,8.3868456,110.3587799,-11.9694653,-250.1374054
5220,2.2026544,-0.6200951,7.3286138,121.8778610,-23.4580154,-250.1374054
5230,1.2569494,-0.5865764,6.1147599,127.0076370,-29.4351139,-250.1374054
5240,0.4884146,-0.7948709,5.2815819,127.1526718,-30.4198475,-250.1374054
5250,-0.7685348,-0.8762733,4.8314743,124.8702316,-28.1984730,-250.1374054
5260,-2.6192431,-1.4245427,5.0014620,123.5648880,-26.8396950,-250.1374054
5270,-4.8625989,-1.8794388,5.5018473,124.0687027,-28.7251911,-250.1374054
5280,-7.0508881,-2.2649033,6.3062949,130.2137451,-37.4809151,-250.1374054
5290,-9.7994175,-2.0278785,7.7356262,141.9389343,-52.7633591,-250.1374054
5300,-11.8679972,-2.2337787,8.3389616,157.9007568,-78.5267181,-250.1374054
5310,-12.2295198,-2.8658447,8.1785507,171.6488495,-101.9694672,-250.1374054
5320,-12.9310169,-3.2752512,6.9287844,175.6488495,-101.4732819,-250.1374054
5330,-13.8839045,-3.5864959,4.8242917,162.2671814,-77.0076370,-247.4045868
5340,-14.8894644,-3.5912843,2.8849983,131.7404633,-36.2977104,-214.6030579
5350,-16.3930149,-3.7038112,1.8219782,92.9542007,15.0763359,-174.9313049
5360,-18.4041348,-4.1850433,1.6304430,54.8015251,63.2213745,-124.9389343
5370,-19.6131992,-4.9583664,1.9488702,24.3358784,100.2442780,-68.2366409
5380,-19.6131992,-6.7875271,1.9153515,3.6564887,119.5648880,-4.8396945
5390,-19.6131992,-8.8369532,0.7805058,-11.6488552,120.4961853,63.6488533
5400,-19.6131992,-11.0156660,-0.2561783,-30.9770985,108.1297684,129.1297760
5410,-19.6131992,-13.1584654,-0.0383070,-48.0610695,92.9694672,192.0076294
5420,-18.1934452,-15.1264887,0.9576758,-54.0763359,74.3435135,248.0458069
5430,-15.6723642,-17.0011387,1.7860653,-50.5877876,71.4045792,250.1297760
5440,-14.5423069,-18.3562508,0.8834559,-41.7709923,75.9312973,250.1297760
5450,-13.2997227,-19.5006733,-0.3471575,-38.4274826,75.3358765,250.1297760
5460,-11.8129311,-19.6131992,-1.1013272,-35.0610695,65.0305328,250.1297760
5470,-10.5559816,-19.6131992,-1.9656296,-30.7480907,50.4580154,250.1297760
5480,-9.4283180,-19.6131992,-3.9575951,-33.8091621,44.7862587,250.1297760
5490,-7.7212610,-19.6131992,-5.5066357,-49.6183205,47.3282433,250.1297760
5500,-4.8602047,-19.6131992,-5.9950504,-76.0534363,52.0458031,250.1297760
5510,0.2346306,-19.6131992,-5.5425487,-112.2595444,69.8244247,250.1297760
5520,7.0868006,-19.6131992,-2.9831600,-150.5190887,99.9236679,250.1297760
5530,19.5102501,-19.6131992,2.5689652,-176.1374054,156.3664093,250.1297760
5540,19.6126022,-19.6131992,9.3828287,-192.4122162,250.1297760,250.1297760
5550,19.6126022,-19.6131992,18.4208927,-196.0381622,250.1297760,250.1297760
5560,19.6126022,-14.8439751,19.6126022,-173.2519073,250.1297760,250.1297760
5570,19.6126022,-8.6142941,19.6126022,-123.9542007,250.1297760,250.1297760
5580,19.6126022,-5.8681583,19.6126022,-67.7938919,250.1297760,250.1297760
5590,19.6126022,-3.1818779,19.6126022,-31.1679382,123.1297684,218.5572510
5600,19.6126022,-0.3375807,17.9755745,0.3587786,-90.0763321,139.0992432
5610,19.6126022,1.6998745,17.3866043,24.0763359,-217.9618378,95.8778610
5620,19.6126022,3.5290353,17.3363266,50.2900772,-239.6412201,84.4885483
5630,19.6126022,4.3813667,14.9277716,63.6106873,-162.6564941,88.8244247
5640,19.6126022,5.1738434,11.2526903,54.2061081,-26.8091602,101.6717529
5650,19.6126022,5.5186067,8.3605099,31.8854961,96.8625946,112.2824402
5660,19.6126022,5.0924411,6.8713236,10.7099237,165.6488495,119.7251892
5670,18.9308567,4.9631548,6.1650376,-2.5725191,188.3206177,114.6641235
5680,17.8271351,4.8458395,5.8035154,-8.5572519,171.0992432,98.5343475
5690,16.6683464,4.7883787,5.7795734,-6.7557254,128.3129730,73.8167953
5700,15.5406837,4.6758518,5.3486195,-0.6106870,76.3206100,44.5801544
5710,12.4378138,3.8043671,3.9504125,3.0763359,-14.8473282,-3.1755726
5720,11.1832590,3.1842721,3.7445123,-3.3129771,-39.4656487,-17.5572510
5730,10.0699606,2.2960277,3.9671719,-11.3358774,-49.2824440,-24.6870232
5740,8.8968077,1.7717001,4.7931671,-18.2900772,-49.7175560,-23.3129768
5750,8.3269911,1.4125718,5.7604198,-19.9465656,-43.0000000,-16.6030540
5760,8.0732069,1.2354017,6.4212160,-16.9236641,-32.0687027,-8.0534353
5770,7.8792777,1.0510491,6.3398137,-11.2748089,-20.0076332,1.6259542
5780,9.1146793,0.8643024,5.8178802,-5.1145039,5.3206105,28.9236641
5790,10.4626083,1.1420283,5.6095858,-3.5419848,11.7786255,29.9160309
5800,11.8392668,1.4484847,5.2624283,-3.9312978,20.9312973,23.7862587
5810,12.4856977,2.0015423,4.5034704,-8.2061071,26.8320618,13.4961834
5820,12.8280668,2.1715298,3.9887197,-17.2977104,29.0000000,-0.0687023
5830,12.7658186,2.1356170,3.7421181,-29.0534344,27.0992374,-15.7328243
5840,12.4904861,1.6065011,4.0868812,-38.8396950,18.9618320,-29.6793900
5850,12.2199430,1.0630201,4.5585365,-44.9465637,3.7862597,-39.9694672
5860,12.3899307,0.6823440,5.2217274,-46.1297722,-16.3129768,-47.0534363
5870,13.0387554,0.4836263,5.6885943,-43.8778610,-35.8549614,-53.5877876
5880,14.3699255,0.6081241,5.9471664,-40.3740463,-49.8549614,-60.5954208
5890,16.2062683,0.8355721,6.0956063,-37.8396950,-57.3053436,-70.8778610
5900,18.2317524,1.4963684,6.3613615,-36.0992355,-53.6564903,-86.5725174
5910,19.6126022,2.0254843,6.2847471,-36.4351158,-39.6793900,-108.3740463
5920,19.6126022,2.1164634,6.0860295,-40.7328262,-24.1755733,-134.6259613
5930,19.4719429,1.9895715,6.0644817,-45.7633591,-14.3587790,-159.7175598
5940,18.8374825,1.6280488,6.3350253,-49.6793900,-9.2595415,-181.9923706
5950,18.0019112,1.1492109,6.6079631,-51.9694672,-11.5572519,-200.5648804
5960,17.7385502,0.8666966,7.1442614,-52.7404594,-25.8167934,-218.1603088
5970,18.2940025,0.8451489,7.8744893,-50.7938919,-49.3358765,-238.3358765
5980,18.8877602,1.2449785,9.0763721,-45.2061081,-76.8167953,-250.1374054
5990,19.5294037,1.2689204,10.2255831,-36.0000000,-97.0381699,-250.1374054
6000,19.6126022,0.7350162,10.8193426,-26.3511448,-108.8167953,-250.1374054
6010,19.3857517,0.6296718,11.1976242,-17.1526718,-111.4809189,-250.1374054
6020,18.6746769,0.5554519,11.5399933,-8.2748089,-104.3206100,-250.1374054
6030,17.2764702,0.4261657,11.5735121,2.0610688,-90.1679382,-250.1374054
6040,15.4425220,0.0430954,11.3795824,13.7251911,-78.5114517,-250.1374054
6050,13.4625273,-0.1843526,11.0348196,25.6793900,-68.7022934,-250.1374054
6060,11.7578640,-0.1771700,10.6565371,39.0839691,-54.5725174,-250.1374054
6070,10.7523050,-0.2609667,9.9119444,52.8625946,-36.0992355,-250.1374054
6080,10.6517487,-0.4596844,9.1936874,65.2671738,-7.7022901,-250.1374054
6090,9.5456333,-0.4812321,8.3269911,74.1603088,25.5267181,-250.1374054
6100,8.3772688,-0.5219333,7.2903070,79.9236679,58.6793900,-250.1374054
6110,7.3405848,-0.5769997,6.6390872,84.8015289,88.5190811,-250.1374054
6120,5.8322453,-0.6320660,5.7652082,90.4122162,113.2366409,-250.1374054
6130,3.9216824,-0.8547257,5.0780759,96.6564865,129.5496216,-250.1374054
6140,1.8100072,-0.9409165,4.6399393,104.2671738,134.1221313,-250.1374054
6150,0.0167593,-0.9624642,4.3670015,118.1679382,125.8778610,-250.1374054
6160,-1.6950861,-1.0342898,4.1156116,133.7709961,102.8244247,-250.1374054
6170,-3.2800395,-1.2114599,3.6008608,149.5190887,73.1755753,-250.1374054
6180,-4.7788019,-1.2784972,2.9017577,162.5267181,37.6259537,-250.1374054
6190,-6.3853035,-1.3598996,1.7812769,169.3587799,-0.0534351,-250.1374054
6200,-7.7978749,-1.2282192,0.8212070,168.5419922,-30.3206100,-250.1374054
6210,-8.7555504,-1.1731528,0.2801202,162.3129730,-53.3129768,-250.1374054
6220,-9.3229742,-1.1324517,-0.3088504,150.4580078,-69.4045792,-250.1374054
6230,-10.0077124,-1.1348459,-0.8714849,132.8702240,-73.8015289,-250.1374054
6240,-10.9510221,-1.5466464,-1.2832855,108.7938919,-70.0763321,-250.1374054
6250,-11.7602587,-1.8339491,-1.3168042,83.0687027,-59.7099228,-250.1374054
6260,-12.4665442,-2.2840567,-1.0247130,57.5190849,-42.3206100,-232.5648804
6270,-13.6133614,-2.8586621,-0.5865764,34.2748108,-20.7480907,-204.0534363
6280,-15.3730907,-3.4356618,0.1699875,14.8473282,-0.1755725,-168.7557220
6290,-16.6659527,-4.1060348,0.9026094,1.5038168,17.4656487,-126.1984711
6300,-17.4225159,-4.8913293,1.4365137,-5.6412215,32.9618340,-79.3893127
6310,-18.2461185,-5.7867560,1.5131277,-11.1679392,48.8015251,-31.4427490
6320,-18.7010136,-7.0868006,1.3191984,-19.3664131,63.5190849,20.9083977
6330,-18.6507359,-8.4826136,1.1803354,-28.6335869,73.3282471,75.8320618
6340,-18.2820301,-10.0316534,1.0606259,-38.9923668,81.3206100,133.4961853
6350,-17.7050304,-11.6118193,1.3239868,-47.8778610,85.9312973,191.9847260
6360,-17.1328201,-13.3069048,1.2018831,-50.4427490,77.2977066,250.1297760
6370,-16.0386753,-15.2246504,1.0079538,-48.4809151,57.7022896,250.1297760
6380,-15.1312771,-17.1663380,0.4884146,-42.0228996,26.9007626,250.1297760
6390,-13.2518387,-18.9380379,0.3471575,-31.1908398,-10.4732828,250.1297760
6400,-10.6661139,-19.6131992,0.4405309,-17.0152664,-37.3740463,250.1297760
6410,-8.3102312,-19.6131992,-0.1268920,-3.6412213,-47.9541969,250.1297760
6420,-6.6678176,-19.6131992,-1.1204807,5.4274807,-43.9771004,250.1297760
6430,-5.6933827,-19.6131992,-2.4899571,6.3129773,-29.1679382,250.1297760
6440,-5.2001796,-19.6131992,-3.3159523,-6.2442746,-13.0534353,250.1297760
6450,-3.7469065,-19.6131992,-1.8578910,-32.9541969,2.4732823,250.1297760
6460,1.9536586,-19.6131992,2.0757623,-49.9541969,18.7862587,250.1297760
6470,19.3857517,-19.6131992,6.0692701,-58.0381660,67.5648880,250.1297760
6480,19.6126022,-19.6131992,9.9694052,-79.5267181,201.4427490,250.1297760
6490,19.6126022,-19.6131992,17.3913918,-109.5190811,250.1297760,250.1297760
6500,19.6126022,-16.7928448,19.6126022,-79.4274826,250.1297760,250.1297760
6510,19.6126022,-9.7539282,19.6126022,20.7862587,250.1297760,250.1297760
6520,19.6126022,-5.4850879,14.2621870,103.6564865,155.4198456,250.1297760
6530,19.6126022,-1.2258250,1.6112895,108.1908417,-31.3587780,250.1297760
6540,19.6126022,2.5306582,-4.4938936,52.8931313,-149.7786255,192.0458069
6550,19.6126022,3.1244173,-1.7022687,-15.1603050,-161.2595367,171.8091583
6560,19.6126022,3.4811516,4.5920553,-51.1145020,-79.2061081,165.9007568
6570,19.6126022,3.6655040,9.0763721,-56.1450386,29.5496178,162.9389343
6580,19.6126022,2.8658447,10.8169479,-40.0305328,109.4427490,165.2290039
6590,19.6126022,2.1260402,10.1346035,-12.6335878,140.3358765,167.8167877
6600,19.6126022,2.0302727,7.8649125,9.4961834,139.8396912,168.7022858
6610,19.6126022,2.9759774,5.2576399,19.6335869,117.0916061,145.1832123
6620,19.6126022,4.1850433,3.4955165,17.5801525,78.5267181,100.1832047
6630,19.6126022,4.3143296,2.4181314,10.3664122,40.3664131,48.9083977
6640,19.6126022,4.1634955,1.7669119,0.1374046,8.0381680,3.2748091
6650,19.6126022,3.5266411,2.1212518,-12.3435116,-14.4580154,-31.9694653
6660,17.0035343,2.8035958,2.6455793,-19.2595425,-28.6946564,-54.1450386
6670,14.6955347,2.1308286,3.2249732,-23.2061062,-33.9847336,-65.5572510
6680,12.8639803,1.5466464,3.8163381,-23.4503822,-30.3587780,-67.4809189
6690,11.5375986,1.0366840,4.2209558,-20.2748089,-22.2061062,-62.8931313
6700,10.1920643,0.5554519,4.3526363,-15.3664122,-14.1679392,-53.8931313
6710,9.4833841,0.5075682,4.5752959,-10.5496187,-4.8549619,-42.0228996
6720,8.6693602,0.7086801,3.4452386,9.2519083,32.1068687,-7.0076337
6730,8.4179697,0.7469871,3.0430148,7.8625956,39.6183205,-1.6946565
6740,8.4227581,0.7374104,2.7557120,5.1374044,44.2061081,2.8244274
6750,8.6286592,0.9433106,2.4301023,-0.1145038,47.9847336,5.6335878
6760,8.8944139,1.0127422,2.3678534,-5.8931298,52.1679382,6.7709923
6770,9.5432396,1.0558375,3.4572096,-15.0534353,50.3435097,-0.6793893
6780,9.7658987,0.9911944,3.7397239,-15.4351149,47.0992355,-5.1374044
6790,9.9334917,1.0390782,3.9480183,-15.4732828,44.5496178,-9.9083967
6800,10.0484133,1.0630201,3.9360476,-15.6412210,43.3206100,-14.2137403
6810,10.4075413,1.0055596,4.1419477,-15.9618320,43.7022896,-18.1297703
6820,10.7092094,1.0845678,4.2616572,-17.3893127,47.6183205,-21.8167934
6830,10.8911676,1.0845678,4.4077029,-18.7480907,53.3664131,-25.2900772
6840,10.8624372,1.1755470,4.4962878,-20.7480907,57.7251892,-27.5801525
6850,11.0827026,1.1492109,4.8314743,-22.0687027,59.6488533,-28.6717548
6860,11.5615406,1.2928623,5.1187773,-22.1526718,59.2442741,-30.4351139
6870,12.2031832,1.4748207,5.3510137,-20.9160309,56.2213745,-34.5572510
6880,12.8927097,1.6759326,5.6646523,-19.5267181,52.4274826,-40.9389305
6890,13.5774488,1.8267666,5.7532372,-17.8015270,48.3053436,-49.6793900
6900,14.5830078,2.1212518,5.9232249,-16.2748089,45.6183205,-60.0687027
6910,15.6436338,2.4684093,5.8777351,-15.1908398,45.6717567,-72.6030502
6920,16.9341011,2.9328821,5.8561873,-15.3435116,48.8854980,-87.9465637
6930,18.2078114,3.5290353,6.0094156,-17.6335869,51.6106873,-107.3969498
6940,18.6674957,3.6415622,6.5002246,-20.9694653,46.0305328,-129.0534363
6950,18.8255119,3.6224086,7.0508881,-22.4885502,31.8091602,-151.4809113
6960,18.3969517,3.6271970,7.8673067,-21.2519093,11.4351149,-172.2519073
6970,17.6284161,3.9887197,9.0979195,-15.4961834,-14.4580154,-190.0610657
6980,17.5015240,3.9671719,10.6541433,-1.3282443,-54.2137413,-205.2671814
6990,18.6459484,4.2808108,10.0939026,18.2137413,-62.4351158,-220.5419922
7000,19.5748920,4.5920553,9.6198530,26.4580154,-68.5725174,-238.8778687
7010,19.6126022,4.8266859,9.8784256,25.5877857,-76.7022934,-250.1374054
7020,19.6126022,4.2377152,9.8113880,24.6259537,-78.5419846,-250.1374054
7030,19.6126022,3.5338237,9.7850523,22.6183205,-70.9083939,-250.1374054
7040,18.9332504,2.8826041,10.1393919,22.7022896,-60.1374054,-250.1374054
7050,17.3339310,1.8171898,10.4075413,26.8931293,-52.4732819,-250.1374054
7060,15.6795464,1.0366840,10.3596573,34.5725174,-45.3511467,-250.1374054
7070,13.8072910,0.2178712,9.9454632,43.8549614,-35.3664131,-250.1374054
7080,12.2103662,-0.5626345,9.0189114,52.9236641,-28.5419846,-250.1374054
7090,10.3859940,-1.2449785,8.3724804,59.5267181,-27.2442741,-250.1374054
7100,8.1330614,-1.8554969,7.8984308,65.6030502,-30.0152664,-250.1374054
7110,6.1482787,-2.1763182,7.7859039,71.8091583,-39.5801544,-250.1374054
7120,4.2760224,-2.3798244,8.1641865,80.6870193,-53.3511467,-250.1374054
7130,2.7652888,-2.7317703,8.2575598,92.4503784,-63.4198456,-250.1374054
7140,1.5418580,-2.9711890,8.1665802,106.4503784,-71.3893127,-250.1374054
7150,0.6200951,-3.2704628,7.6781654,121.1145020,-78.3129807,-250.1374054
7160,-0.2059003,-3.2752512,6.9527264,133.2519073,-86.2671738,-250.1374054
7170,-0.8523315,-3.3542595,6.1315193,140.5496216,-91.1068726,-250.1374054
7180,-1.3551112,-3.8881636,5.4324160,142.7175598,-89.0000000,-250.1374054
7190,-1.9488702,-5.0110383,4.9368186,144.0076294,-82.0457993,-250.1374054
7200,-2.8371146,-6.0022330,4.0988522,143.2519073,-73.7404556,-250.1374054
7210,-4.1251884,-7.0844064,3.2177906,136.2290039,-63.1450386,-250.1374054
7220,-5.8394279,-8.0684185,2.6144550,124.0916061,-54.6564903,-250.1374054
7230,-8.3796635,-9.0979195,2.6527619,111.7709961,-57.7251892,-250.1374054
7240,-10.9629936,-9.7898407,3.5960727,102.6335907,-82.2213745,-250.1374054
7250,-12.8256731,-10.5703468,3.9863255,100.8854980,-113.9770966,-250.1374054
7260,-14.8343983,-10.9318695,4.4891052,100.5954208,-141.5648804,-250.1374054
7270,-16.3762550,-11.0084829,4.9009056,95.8091583,-154.0076294,-250.1374054
7280,-17.4320927,-10.7810354,5.2791877,90.5954208,-134.5954132,-195.9541931
7290,-17.9061432,-10.3596573,5.0565281,83.3358765,-86.7480927,-111.4732819
7300,-17.4129391,-9.9717989,4.2999644,72.1603088,-22.2442741,-22.0076332
7310,-16.0793762,-9.8018112,3.1315999,57.2748108,36.5343513,59.8778610
7320,-14.5183649,-9.8999729,1.7453641,41.7557259,70.6259537,131.6488495
7330,-13.3069048,-10.4434547,0.6488253,30.0992374,73.0457993,193.0839691
7340,-12.4713326,-10.9294748,-0.3854645,21.0000000,58.7938919,250.1297760
7350,-11.8416615,-11.6333666,-1.1348459,9.8778629,44.7404594,250.1297760
7360,-11.6549139,-12.6700506,-1.4173602,-6.7862597,54.1221390,250.1297760
7370,-12.0331964,-13.8240499,-1.7669119,-30.4885502,83.8015289,250.1297760
7380,-12.4856977,-15.6843348,-1.7094513,-61.7404594,127.6488571,250.1297760
7390,-13.3308468,-17.9588146,-0.8188128,-98.4503784,179.5343475,250.1297760
7400,-14.1041698,-19.6131992,0.0885850,-131.4656525,200.1068726,250.1297760
7410,-9.7635050,-19.6131992,-0.0933734,-151.5496216,151.5419922,250.1297760
7420,-0.6440369,-19.6131992,-0.2059003,-150.9923706,71.7786255,250.1297760
7430,15.1671906,-19.6131992,-2.7485294,-141.9084015,32.3129768,250.1297760
7440,19.6126022,-19.6131992,-5.6359220,-156.1984711,118.9007645,250.1297760
7450,19.6126022,-19.6131992,-5.5952206,-230.3816833,250.1297760,250.1297760
7460,19.6126022,-18.3011837,1.1755470,-250.1374054,250.1297760,250.1297760
7470,19.6126022,-13.3356352,19.6126022,-250.1374054,250.1297760,250.1297760
7480,19.6126022,-8.0468712,19.6126022,-250.1374054,172.5801544,250.1297760
7490,19.6126022,-6.0357518,19.6126022,-106.6946564,20.6335869,250.1297760
7500,19.6126022,-3.1004753,19.6126022,111.5267181,-179.2595367,161.8549652
7510,19.6126022,0.4477134,17.7026367,233.3969421,-250.1374054,77.2671738
7520,19.6126022,4.3526363,7.8673067,250.1297760,-250.1374054,40.1450386
7530,19.6126022,7.0460997,1.7477583,235.4656525,-250.1374054,45.9389305
7540,19.6126022,8.8800488,-2.6096666,169.1679382,-121.5190811,75.0687027
7550,19.6126022,9.9550400,-6.0046272,81.2900772,59.5419846,98.8549652
7560,17.9923344,9.7802639,-6.0860295,-6.7404580,160.4503784,111.6793900
7570,16.7617207,9.1314383,-2.7245877,-64.6870193,195.6717529,110.9083939
7580,16.5725803,8.3892403,0.7757174,-86.0076370,181.1984711,98.7022934
7590,17.2764702,7.7499914,3.7062054,-81.8244247,139.7557220,74.9694672
7600,19.2205524,7.6709828,6.0333576,-63.2900772,95.7480927,40.9694672
7610,19.6126022,7.3286138,8.1977043,-37.8396950,50.2824440,-7.2900763
7620,17.1471844,6.2296810,7.1753860,-12.7557249,27.3511448,-46.0152664
7630,13.2925396,5.0421629,5.8609757,0.8473282,12.7022905,-63.9465637
7640,8.1139078,3.7684543,4.2137733,-4.4885497,26.7557259,-39.9160309
7650,7.8242111,3.7109938,4.4531922,-9.5038166,43.8091621,-31.0152664
7660,6.8378053,3.5218527,4.3550305,-11.9312973,59.3740463,-21.8091602
7670,6.2296810,3.4787574,4.4843168,-13.7175570,65.7786255,-11.3206110
7680,5.8729467,3.4787574,4.2353210,-14.0687027,66.4732819,-2.5114503
7690,6.0405402,3.4667864,4.1754665,-13.1374044,46.8778610,10.2595415
7700,6.4858594,3.5362179,4.4603748,-10.7328243,30.5725193,11.6030531
7710,7.1873569,3.4619980,4.8793583,-1.0534351,1.2824427,10.9389315
7720,7.8098459,3.3327117,4.9727316,3.7633588,-8.0610685,10.3206110
7730,9.4642305,3.0334380,4.7237358,7.5343513,-6.1221375,15.8778629
7740,10.1896706,3.0861101,4.7021880,3.9007633,6.4809160,19.5572510
7750,10.7499104,3.3303175,4.8482337,-0.2519084,22.6412220,24.0610695
7760,11.2383251,3.2800395,4.9727316,-4.6564884,41.0687027,28.6564884
7770,11.9230633,3.3590479,5.2863703,-9.4427481,58.8244286,35.3129768
7780,13.2183199,3.5410061,5.6383162,-13.0534353,74.0992355,41.4274826
7790,14.8727045,3.6655040,6.0165982,-16.5801525,84.5572510,42.2519073
7800,16.7521439,3.8977404,6.7468257,-20.2900772,89.3435135,35.3358765
7810,18.8781834,4.0653338,7.9558916,-21.1832066,86.2671738,21.3740463
7820,19.6126022,4.3981261,9.2272062,-16.7175579,76.2824402,-1.4580153
7830,19.6126022,4.7069764,10.5751352,-8.1984730,59.7557259,-34.5877876
7840,19.6126022,5.0972295,11.8009596,4.8625956,36.0305328,-75.5267181
7850,19.6126022,4.9870968,12.5934362,21.4122143,9.1145039,-119.1755753
7860,19.6126022,4.5561423,12.9621420,40.2137413,-12.5190840,-160.8549652
7870,19.6126022,3.9432299,12.7562418,57.1068687,-25.3511448,-199.8854980
7880,19.6126022,3.4069316,12.1433287,69.7328262,-35.3435097,-238.3206177
7890,19.6126022,2.7197993,11.3939476,78.5114517,-44.1526718,-250.1374054
7900,19.6126022,2.0039365,10.8815908,85.2442780,-52.8778610,-250.1374054
7910,19.6126022,1.0630201,10.5152798,92.8167953,-62.8091621,-250.1374054
7920,19.0888729,0.4189832,10.0891142,101.8320618,-70.1755753,-250.1374054
7930,17.5709572,-0.4453192,9.4426832,108.7786255,-70.7862625,-250.1374054
7940,15.4544926,-1.6663558,8.5975342,115.6946564,-70.1374054,-250.1374054
7950,12.7490587,-2.4827745,7.5393028,120.5190811,-67.7633591,-250.1374054
7960,10.4673967,-3.0741394,6.4834652,122.1374054,-63.6259537,-250.1374054
7970,8.5592270,-3.7253587,5.5425487,120.8167953,-58.4961815,-250.1374054
7980,6.3398137,-4.2377152,4.6854286,118.0076370,-55.3282433,-250.1374054
7990,4.3861551,-4.5752959,3.9575951,112.8167953,-53.0381660,-250.1374054
8000,2.7197993,-4.7835903,3.5864959,107.8320618,-53.8931313,-250.1374054
8010,1.0917504,-4.8482337,3.5577655,103.1145020,-63.4045792,-250.1374054
8020,-0.3136388,-5.0661049,3.9863255,100.9007645,-78.7786255,-250.1374054
8030,-1.3838415,-5.3342543,4.5345950,101.3358765,-96.9465637,-250.1374054
8040,-2.1835008,-5.7005649,5.0876527,107.4732819,-108.7709961,-250.1374054
8050,-3.0573800,-6.1817970,5.4084740,115.4198456,-111.4274826,-250.1374054
8060,-4.3358769,-6.6845770,5.2384863,123.8778610,-109.4961853,-250.1374054
8070,-6.0118098,-7.0820122,4.6902170,127.8167953,-105.6335907,-250.1374054
8080,-7.3860745,-7.2017217,3.8642218,126.1603088,-99.7099228,-250.1374054
8090,-8.5759869,-6.9192076,3.1292057,118.3816757,-88.0687027,-250.1374054
8100,-9.9813757,-6.5792327,2.5833304,103.3129807,-70.8015289,-250.1374054
8110,-11.2095947,-6.2536230,2.1332228,85.0610657,-46.9007645,-250.1374054
8120,-12.2079716,-5.8897061,1.8052188,64.8091583,-16.0229015,-250.1374054
8130,-12.8567972,-5.4300218,1.4939742,44.0839691,19.0610695,-233.7099304
8140,-13.2135315,-4.9942794,0.9911944,22.2366409,55.2519073,-188.6717529
8150,-13.6133614,-4.9128766,0.6105183,1.8167939,86.0534363,-145.2824402
8160,-13.7426472,-4.8506279,0.3064562,-16.3664131,107.9847336,-101.8473282
8170,-13.9270000,-4.9296360,-0.0383070,-31.4580154,117.9389343,-60.2977104
8180,-14.0419216,-4.9056940,-0.1699875,-43.6488533,115.0305328,-18.9007626
8190,-14.1496601,-5.0756817,-0.3543400,-53.3740463,102.4885483,22.1297703
8200,-14.1113529,-5.1977854,-0.2729376,-61.6488533,81.2748108,65.0916061
8210,-13.6947641,-5.5210009,-0.1723816,-68.7938919,56.4732819,108.6717529
8220,-13.1010046,-5.8968887,0.1197095,-74.2213745,34.6412201,153.0076294
8230,-12.3995075,-6.3613615,0.6105183,-78.4198456,22.1374054,198.6717529
8240,-11.5112629,-6.7803445,0.8906385,-81.7099228,19.8244267,244.8167877
8250,-10.8815908,-7.3693151,1.0486550,-85.5419846,24.3740463,250.1297760
8260,-10.1896706,-7.9750452,0.8571198,-91.2366409,35.9312973,250.1297760
8270,-10.1298151,-8.6573887,-0.1364688,-103.3053436,56.1068687,250.1297760
8280,-11.6118193,-9.9670105,-0.3950413,-119.1297684,70.3053436,250.1297760
8290,-12.8448267,-11.7051926,0.5171449,-128.7022858,60.9923668,250.1297760
8300,-13.2255030,-14.9158001,0.7876883,-125.7328262,28.7557259,250.1297760
8310,-11.2072010,-19.3594151,0.7709290,-117.0992355,-4.5114503,250.1297760
8320,-6.9287844,-19.6131992,0.4740495,-125.4732819,16.7099228,250.1297760
8330,-1.4197544,-19.6131992,0.1005560,-158.4198456,94.0000000,250.1297760
8340,10.1585455,-19.6131992,0.8666966,-222.7557220,189.4885559,250.1297760
8350,19.6126022,-19.6131992,4.4196739,-250.1374054,250.1297760,250.1297760
8360,19.6126022,-19.6131992,9.1074963,-250.1374054,250.1297760,250.1297760
8370,19.6126022,-12.8424320,17.0035343,-250.1374054,250.1297760,250.1297760
8380,19.6126022,3.1866663,19.6126022,-250.1374054,250.1297760,250.1297760
8390,19.6126022,0.9888002,19.6126022,-250.1374054,250.1297760,142.9618378
8400,19.6126022,-2.2816625,19.6126022,-76.3129807,42.6641235,-39.4045792
8410,18.5166607,-2.6838863,19.6126022,124.6793900,-199.1984711,-90.4503784
8420,9.6437950,0.3710994,19.6126022,219.9694672,-250.1374054,-57.7175560
8430,10.9845409,4.4292507,10.7475166,214.5267181,-250.1374054,4.7557254
8440,15.6149035,7.0820122,3.4548154,143.5801544,-208.2061005,58.2595406
8450,18.5693340,8.1977043,0.0550664,43.9541969,-8.1603050,85.1984711
8460,17.7170029,8.7651272,0.0981618,-46.3587799,143.2748108,86.2442780
8470,14.7865143,7.8888540,3.7253587,-97.4809189,195.9541931,72.7862625
8480,11.9948893,6.4427638,7.4267755,-105.0152664,167.7709961,55.1221390
8490,10.2040358,5.3486195,10.0795374,-80.5877838,94.4580154,38.2748108
8500,9.1362267,4.3574247,11.3652172,-40.2671738,14.8091602,25.0992374
8510,8.3222027,3.5050933,10.9246864,0.9312977,-47.1526718,16.5954189
8520,7.6685886,3.3063757,9.3421268,30.6183205,-84.8320618,13.6488552
8530,7.1275020,2.8945751,7.5105724,46.2290077,-101.2824402,16.2290077
8540,7.0652533,2.6336083,5.8513989,49.1221390,-99.7328262,23.6412220
8550,7.2735476,2.4684093,4.7811961,41.8320618,-87.1297684,33.5648842
8560,7.8984308,2.3750360,4.4699516,30.1526718,-67.3435135,43.3129768
8570,8.5304966,2.3750360,4.4364328,18.9465656,-45.6106873,49.4809151
8580,9.2487535,2.2792683,4.7404952,10.3816795,-27.0763359,52.3206100
8590,10.3428984,2.5354466,5.4252334,13.2366409,-1.9541985,34.8702278
8600,10.4051476,2.7796540,5.1451130,17.4732819,-5.0152674,28.8167934
8610,10.5727406,3.0478032,4.7428894,18.6488552,-7.9847326,24.0458012
8620,10.7451220,3.2537034,4.2879934,16.6946564,-11.6641226,20.5572510
8630,11.4825325,3.5026991,4.1204000,12.8625956,-14.8396950,17.1297703
8640,12.2989511,3.7756367,4.0030847,7.0076337,-15.0534353,13.0763359
8650,13.1824074,3.8857694,4.1204000,-0.0916031,-14.0534353,7.7557254
8660,14.0060081,4.0054789,4.6040263,-6.8015265,-14.4961834,1.5572519
8670,14.5854025,4.2185616,5.0756817,-10.8702288,-15.1679392,-5.7786260
8680,15.5574427,4.3741841,5.4922705,-12.8549614,-16.3129768,-14.2595415
8690,16.6348286,4.7620430,6.0165982,-14.6030531,-16.5572510,-26.0076332
8700,17.6547527,4.9248476,6.3422079,-15.2442751,-15.5038166,-42.5496178
8710,18.3299141,4.8410511,6.5361371,-16.2595425,-15.1068707,-63.1679382
8720,18.5334206,4.7524662,6.7994981,-16.5725193,-16.6335869,-86.0763321
8730,18.5046902,4.6686692,7.3597383,-15.3816795,-21.7938938,-110.6259537
8740,18.5310268,4.4699516,7.6614060,-11.7404585,-27.3282452,-136.5801544
8750,18.1958389,4.1227942,7.8505473,-7.1526718,-33.4961815,-162.0000000
8760,17.8079815,3.9432299,7.7260494,-3.2900763,-40.5419846,-185.8167877
8770,17.6667233,3.7301471,7.5632443,-1.1603054,-47.8778610,-209.1755676
8780,18.0809193,3.7157819,7.3286138,-1.4961832,-53.3816795,-235.1221313
8790,18.4927197,3.4524212,7.2998838,-3.6793892,-57.9541969,-250.1374054
8800,18.1623211,3.0573800,7.0245519,-7.3664122,-64.4045792,-250.1374054
8810,17.2501354,2.4037662,7.3956513,-10.0687027,-77.5648880,-250.1374054
8820,15.6579990,1.7118455,8.1091194,-7.9541984,-94.1450348,-250.1374054
8830,13.8910875,0.9552816,8.6262646,-0.3435115,-108.3587799,-250.1374054
8840,12.2199430,0.2489957,8.6693602,8.8625956,-118.6946564,-250.1374054
8850,11.0228481,-0.0095768,8.4921904,17.8473282,-123.1526718,-250.1374054
8860,10.2543135,0.1149211,7.8337879,23.0152664,-119.1068726,-250.1374054
8870,9.1865053,0.1747758,7.0508881,23.0763359,-105.8854980,-250.1374054
8880,7.7332320,0.0191535,6.5098009,20.9389305,-86.6793900,-250.1374054
8890,6.2655940,-0.1867468,6.1123657,18.8625946,-68.4503784,-250.1374054
8900,4.6471219,-0.3998296,5.7819676,19.0458012,-54.9618340,-250.1374054
8910,3.3997490,-0.4596844,5.4707227,20.8854961,-50.3511467,-250.1374054
8920,2.2840567,-0.4357425,5.1858144,23.1450386,-49.3053436,-250.1374054
8930,1.2761030,-0.3495516,4.9056940,25.0076332,-51.2442741,-250.1374054
8940,0.4764437,-0.3543400,4.7261300,25.3282452,-54.1603050,-250.1374054
8950,-0.3064562,-0.6440369,4.5705075,24.0305347,-53.6183205,-250.1374054
8960,-0.9073978,-0.8236012,4.4484038,21.6870232,-49.6335869,-250.1374054
8970,-1.5634058,-1.1635761,4.8266859,19.9923668,-41.3129768,-250.1374054
8980,-2.1595588,-1.6472024,4.9440012,20.4809170,-29.1297703,-250.1374054
8990,-3.0430148,-2.2529323,4.8290801,21.7786255,-12.2366409,-250.1374054
9000,-4.2041965,-2.9807658,4.5729017,23.1068707,5.3282442,-250.1374054
9010,-5.5305777,-3.4452386,4.1682839,23.4580154,21.4809170,-250.1374054
9020,-7.0341287,-3.9240766,3.9049230,22.8778629,34.4885483,-250.1374054
9030,-8.5472565,-4.2161674,3.7133877,22.1374054,45.6183205,-250.1374054
9040,-10.1609402,-4.1347651,3.6846576,22.5267181,53.5343513,-250.1374054
9050,-11.7674408,-3.7995787,2.7916248,20.5190830,66.8854980,-236.5343475
9060,-13.1441002,-3.5242469,1.0223188,10.8244276,86.6412201,-193.3206177
9070,-14.0514975,-3.3470769,-0.7589580,-10.0763359,106.0687027,-144.4274750
9080,-14.7793312,-3.2920105,-1.6256547,-37.2671738,121.0763321,-91.9312973
9090,-14.9660778,-3.2800395,-2.0446377,-64.3816757,123.2366409,-37.2366409
9100,-14.5758257,-3.4691806,-1.7884595,-85.6030502,108.5877838,14.3282442
9110,-13.9461536,-3.8474624,-0.8810617,-99.5572510,85.3129807,64.0610657
9120,-13.2901459,-4.5226240,0.0622489,-106.3740463,62.1297722,112.4885483
9130,-12.5766773,-5.2552457,0.8331779,-107.9007645,45.2595406,159.5190887
9140,-11.7889891,-5.7699966,1.4173602,-106.5114517,34.5801544,206.7633514
9150,-10.9653873,-6.3110833,1.7357874,-103.0152664,33.9923668,250.1297760
9160,-10.6996326,-7.0820122,1.4867916,-100.7862625,39.6946564,250.1297760
9170,-10.7666702,-7.9846220,1.2689204,-100.9312973,49.9771004,250.1297760
9180,-11.4370432,-9.2152348,1.2234308,-102.0457993,60.2442741,250.1297760
9190,-11.9685535,-10.9414454,0.7852941,-105.6564865,66.0381699,250.1297760
9200,-13.6708221,-13.2350798,1.2186425,-107.6870193,61.4580154,250.1297760
9210,-14.3723192,-15.8399572,1.9752063,-103.0381699,33.7480927,250.1297760
9220,-12.9549589,-19.6131992,2.9400647,-91.7938919,-6.9618320,250.1297760
9230,-7.2160869,-19.6131992,4.4364328,-69.4809189,-36.5725174,250.1297760
9240,7.8146343,-19.6131992,3.6535332,-51.7099228,3.9618320,250.1297760
9250,19.6126022,-19.6131992,1.6687500,-63.8396950,145.0152740,250.1297760
9260,19.6126022,-19.6131992,-3.9049230,-152.5648804,250.1297760,250.1297760
9270,19.6126022,-19.6131992,-0.8714849,-250.1374054,238.6488495,250.1297760
9280,19.6126022,-14.8918581,13.3452120,-250.1374054,182.0992432,250.1297760
9290,19.6126022,-2.7054341,19.6126022,-250.1374054,151.3816833,250.1297760
9300,19.6126022,2.3558824,19.6126022,-156.1450348,103.3664093,168.1679382
9310,19.6126022,0.1843526,19.6126022,-6.5267177,44.6946564,-1.4732825
9320,19.6126022,-1.2018831,19.6126022,90.3435135,-57.1526718,-49.9007645
9330,13.1417055,0.5123565,13.0291786,126.6564865,-140.8625946,-23.0152664
9340,12.6006193,4.3334827,6.5888095,111.8396912,-153.5801544,30.4885502
9350,16.0027618,7.1394730,2.5282640,60.7480927,-86.9465637,69.9312973
9360,18.8279057,8.9255381,0.9959828,-7.2137403,22.4198475,83.8320618
9370,19.1008434,8.8920193,1.8674678,-68.4580154,120.5038147,77.0152664
9380,17.7361546,8.1378498,4.2377152,-108.6870193,176.7633514,58.4122124
9390,15.7346134,6.8785062,6.8617468,-121.2061081,183.5114441,36.1679382
9400,13.7498302,5.6862001,8.8561068,-112.6183243,153.0229034,12.5419846
9410,12.0499554,4.6566987,10.6709023,-86.4732819,98.7480927,-9.6717558
9420,10.5918941,3.8426740,11.2838144,-51.4198456,36.3129768,-26.8320618
9430,9.4283180,3.3327117,10.6086531,-18.7557259,-15.5190840,-38.0228996
9440,8.3054428,3.1435707,9.3756456,2.3206108,-47.3511467,-43.1450386
9450,7.5512733,3.0023136,8.3222027,13.4045801,-61.5267181,-43.3740463
9460,6.6366930,2.7006457,7.3142486,17.5038166,-62.8167953,-38.7022896
9470,5.8059096,2.5354466,6.6151457,16.2900772,-58.3893127,-30.3129768
9480,5.1786318,2.3391230,6.2751703,12.8702288,-52.3358765,-19.3969460
9490,4.7141590,2.1116750,6.1817970,10.1221371,-47.3893127,-7.2442746
9500,4.4077029,1.7764885,6.3685441,8.9770994,-44.9771004,5.9770994
9510,4.6159973,1.4077834,6.4499464,11.0305347,-45.0152664,30.5038166
9520,5.0780759,1.0773853,6.3589673,12.3206110,-48.9083977,40.7557259
9530,6.1650376,1.0989330,6.4523406,12.8244276,-51.0839691,50.2137413
9540,7.6087341,1.3144100,6.6223278,13.2824430,-47.8473282,56.6793900
9550,8.9542685,1.5897418,6.7061248,13.6030531,-41.7557259,57.8854980
9560,10.4889441,1.9560528,6.6271162,12.8931293,-32.5877876,53.7022896
9570,11.8153248,2.4731977,6.5337429,11.1908398,-16.9083977,45.3129768
9580,12.5575237,2.7269819,6.4044566,8.2977095,1.3893130,34.1679382
9590,12.4928808,2.8107784,5.8083038,0.0305344,22.9694653,8.1679392
9600,12.2103662,2.7365584,5.8657641,-3.4580152,21.0000000,-1.8473282
9610,12.2031832,2.4731977,5.9328012,-5.0381680,12.3435116,-8.5496187
9620,12.4282379,2.3846128,6.1626434,-5.2519083,-0.1145038,-14.0229006
9630,12.9765072,2.6790979,6.4044566,-4.3816795,-13.6870232,-20.3206100
9640,13.6301203,2.9185169,6.6079631,-2.4351146,-24.7709923,-29.4961834
9650,14.3388004,3.0597742,6.5983863,-0.7099237,-30.7862587,-41.3740463
9660,14.9900198,3.2465210,6.3805151,-0.6183206,-33.2671738,-55.0687027
9670,15.3706961,3.5410061,6.3278427,-3.8167939,-33.9007645,-69.3816757
9680,15.4592810,3.9001346,6.6965480,-8.1984730,-35.5343513,-83.8396912
9690,15.6005383,4.2257442,7.2400289,-11.5267172,-39.9236641,-99.9694672
9700,15.5909615,4.3646073,7.9151902,-11.5572519,-47.5343513,-116.4503784
9710,15.7010946,4.4053087,8.7435799,-7.9160304,-58.7328262,-131.9923706
9720,16.2349987,4.5010762,9.2367830,0.0534351,-70.7099228,-145.9160309
9730,17.3243542,4.6159973,9.3708572,9.5877867,-78.5496216,-162.0839691
9740,18.2676659,4.7357068,9.1170731,16.5877857,-79.1374054,-182.4809113
9750,18.7848110,4.9679432,8.7579451,18.3053436,-75.1526718,-205.7862549
9760,19.0553532,4.9942794,8.2982607,15.4427481,-68.1603088,-231.4961853
9770,18.7369270,4.8362627,8.2982607,10.9694653,-58.1145020,-250.1374054
9780,17.9324799,4.3909435,8.0971489,6.7709923,-51.3206100,-250.1374054
9790,16.9317074,3.5026991,8.6190825,5.5419846,-54.9389305,-250.1374054
9800,15.9596672,2.6886747,8.8561068,9.2137403,-66.1679382,-250.1374054
9810,14.9684725,1.9656296,8.9399033,16.4503822,-79.0992355,-250.1374054
9820,14.1113529,1.5274929,8.8177996,25.5648861,-86.2519073,-250.1374054
9830,12.5838594,0.9720409,8.2384062,32.9083977,-85.1221390,-250.1374054
9840,11.0539722,0.5147507,7.7643566,38.6259537,-76.3129807,-250.1374054
9850,9.1888990,0.0526722,7.1490498,42.6793900,-66.8320618,-250.1374054
9860,7.3645267,-0.2729376,6.4499464,45.1832047,-55.8473282,-250.1374054
9870,5.8322453,-0.7086801,5.8083038,45.5343513,-46.4580154,-250.1374054
9880,4.4436154,-0.9888002,5.3462253,44.0152664,-39.8091621,-250.1374054
9890,3.2584918,-1.2808913,4.8554163,40.6259537,-32.9694672,-250.1374054
9900,2.0949159,-1.5442522,4.4771342,35.7633591,-25.3893127,-250.1374054
9910,1.0031654,-1.6807210,4.3741841,29.9389305,-18.3435116,-250.1374054
9920,0.1125269,-1.8578910,4.6183915,24.6259537,-10.3129768,-250.1374054
9930,-0.5913648,-2.1715298,4.9080882,22.7938938,0.4809160,-250.1374054
9940,-1.4748207,-2.8730273,5.1451130,24.7938938,14.0381680,-250.1374054
9950,-2.7820482,-3.6271970,4.8961172,28.9847336,24.7709923,-250.1374054
9960,-4.1515245,-4.3861551,4.7189474,34.3282433,31.5572510,-250.1374054
9970,-6.1051831,-5.0828643,4.6782460,39.8015251,33.4427490,-250.1374054
9980,-8.3317795,-5.5186067,4.5513539,46.0763359,31.3206100,-250.1374054
9990,-10.7738523,-5.8346395,4.6758518,53.9389305,22.8549614,-250.1374054
