timestamp,acclX,acclY,acclZ,gyroX,gyroY,gyroZ
0,8.9303265,1.9536586,5.1762376,11.8549614,2.3206108,12.8931293
10,9.2415714,2.0566087,5.0421629,10.7862597,-2.0381680,9.9694653
20,9.4163475,2.1811066,4.9272418,9.3816795,-8.2900763,4.9847326
30,9.4594421,2.2385671,4.7213416,2.7709923,-13.0229006,-10.9694653
40,9.8329363,1.6855093,5.5233951,22.0916023,42.6335869,-28.9923668
50,8.8130112,1.9488702,5.8083038,33.6259537,60.7022896,-31.3435116
60,8.0875721,1.9728121,5.8777351,39.8167953,58.4961815,-26.6641216
70,7.7978749,2.1380112,5.3414369,38.5419846,44.2290077,-19.5038166
80,7.5201492,2.1404054,5.0876527,31.3587780,24.2671757,-11.4045801
90,7.5057840,2.2361729,5.2384863,22.7175579,2.9312978,-5.5419846
100,7.5752153,2.4971397,5.1618724,11.6717558,-26.7938938,-0.6793893
110,7.9391322,2.5019281,5.0517397,0.7404580,-49.9389305,3.5190840
120,8.1617918,1.4508789,5.4802995,-7.2366414,-58.4656487,10.1755724
130,8.9351149,2.5450234,5.0469513,-9.5877867,-70.2595444,14.5648851
140,9.3277617,3.2800395,5.1594782,-12.9541988,-75.4809189,14.8015270
150,9.3947992,3.1052637,5.0924411,-15.3587790,-76.3206100,13.1526718
160,9.7443514,2.8586621,5.0397687,-16.8625946,-79.1603088,10.2748089
170,9.8568783,2.9161227,5.1906028,-18.2977104,-82.3358765,7.3740458
180,10.1154509,2.7916248,5.6502872,-19.4045811,-88.0610657,4.0381680
190,10.2327662,2.7700772,5.9782910,-17.9160309,-99.1221390,0.9160305
200,10.4147243,2.8849983,6.0477223,-14.0000000,-114.7099228,-0.8167939
210,10.9701757,2.8586621,5.8921003,-9.2137403,-124.3893127,-2.6717558
220,11.6453371,2.7126167,5.6933827,-4.8244276,-131.5572510,-5.4961834
230,12.5647058,2.6743097,5.5473371,-2.1221373,-140.0839691,-10.0000000
240,13.5056229,2.6431851,5.5664907,1.8091604,-146.7099304,-17.0229015
250,14.4513273,2.8945751,5.4994531,5.9618320,-151.4427490,-26.5038166
260,15.3084478,3.1411765,4.8961172,9.7557249,-152.4580078,-38.9923668
270,16.7569313,3.5170643,4.1204000,12.4885492,-137.7175598,-55.2977104
280,17.7337608,3.7780309,2.9400647,11.5038166,-110.0381699,-74.2519073
290,18.1575336,3.9408360,2.0039365,7.3969464,-74.5725174,-94.4961853
300,18.3634338,4.1634955,1.3886299,-0.7022901,-39.7862587,-115.3435135
310,18.3897686,4.4172797,0.8451489,-11.5877867,-12.4809160,-136.5648804
320,17.6786957,4.2401094,0.2418131,-24.0763359,0.7480916,-160.3129730
330,16.6300392,3.7684543,0.0814024,-36.2977104,-2.6564887,-186.1679382
340,15.3874559,3.3111639,0.0837966,-47.1832047,-20.4732819,-211.5572510
350,14.4369621,3.0214672,0.2202654,-56.0381660,-48.2595406,-234.8091583
360,13.7641954,3.0478032,0.6919208,-61.8702278,-77.4961853,-250.1374054
370,13.1129761,2.9089401,0.9073978,-66.2595444,-101.0839691,-250.1374054
380,12.7634239,2.6264257,1.1803354,-72.3664093,-111.9312973,-250.1374054
390,12.1481171,2.1835008,1.4460905,-78.5114517,-107.7709961,-250.1374054
400,11.5687237,1.8459201,1.8267666,-84.1603088,-95.5954208,-250.1374054
410,10.1633339,1.4724265,2.1092808,-87.7709961,-81.3664093,-250.1374054
420,8.2503767,0.8571198,2.4396791,-90.4503784,-68.1832047,-250.1374054
430,6.2847471,0.5003856,3.0382264,-90.5190811,-57.3740463,-250.1374054
440,4.4507980,0.3806761,3.6870518,-86.6564865,-49.5496178,-250.1374054
450,3.0621684,0.3758878,3.9791429,-79.1679382,-46.7862587,-250.1374054
460,1.8602852,0.6296718,4.1275826,-70.5496216,-50.3969460,-250.1374054
470,0.8978211,1.0725969,4.4412212,-61.7786255,-60.2824440,-250.1374054
480,0.2849085,1.3670821,4.6902170,-52.7022896,-70.9312973,-250.1374054
490,-0.3591284,1.4413021,4.8147149,-43.8549614,-79.5801544,-250.1374054
500,-1.0271072,1.3694763,4.7572546,-36.4122124,-83.1297684,-250.1374054
510,-1.6376256,1.3072275,4.5800843,-31.5572510,-77.8854980,-239.9236603
520,-2.3630650,1.1300575,4.3047528,-28.4503822,-65.0152664,-228.0305328
530,-2.7581062,0.4979914,4.0749106,-28.3282452,-51.9541969,-216.1450348
540,-3.3853838,-0.1005560,4.0725164,-29.5343513,-34.0916023,-202.4656525
550,-4.1682839,-0.7733232,4.5322008,-29.8091602,-14.6717558,-186.9236603
560,-5.0684991,-1.1803354,5.3318601,-27.9160309,5.4656487,-170.3129730
570,-6.6199336,-1.5801650,6.1985564,-21.4198475,29.0458012,-149.0763397
580,-9.2080526,-1.8507085,6.4523406,-11.8015270,66.0534363,-113.5419846
590,-13.0698805,-2.1380112,5.3198891,-3.9465649,115.7709961,-56.2977104
600,-17.3195667,-2.8921809,3.8570392,-3.3740458,166.5572510,25.3664131
610,-19.6131992,-2.8466914,3.7253587,-8.2900763,183.5648804,123.6183243
620,-19.6131992,-3.5098817,3.5721307,-11.4427481,156.6793823,248.8244324
630,-19.6131992,-6.1530671,3.9695661,-8.3969469,111.2824402,250.1297760
640,-19.6131992,-10.1800938,4.4675574,-3.4503818,70.1603088,250.1297760
650,-16.1344433,-14.1999378,5.0325861,-0.0152672,60.1297722,250.1297760
660,-10.5320396,-18.7824154,6.0980005,3.0229008,70.0763321,250.1297760
670,-5.1331420,-19.6131992,7.0317345,15.1221371,62.9007645,250.1297760
680,6.1770086,-19.6131992,7.5584559,40.3129768,43.4427490,250.1297760
690,19.6126022,-19.6131992,7.3932571,70.0687027,114.3893127,250.1297760
700,19.6126022,-19.6131992,6.4714942,72.2061081,250.1297760,250.1297760
710,19.6126022,-17.2357693,7.1442614,31.7022896,250.1297760,250.1297760
720,19.6126022,-1.9680238,11.4394369,-10.2595415,250.1297760,250.1297760
730,19.6126022,5.8106980,14.6955347,-6.7862597,250.1297760,250.1297760
740,19.6126022,3.3446827,11.5830889,20.4961834,250.1297760,92.0916061
750,19.6126022,1.1635761,6.9216018,37.1145020,0.5801527,-45.5877876
760,17.9779682,0.1101327,6.2679882,44.7099228,-250.1374054,-106.8778610
770,14.3340120,0.5602403,8.5352850,57.5419846,-250.1374054,-104.5725174
780,16.9963512,2.5426292,10.2447367,79.9770966,-250.1374054,-76.2595444
790,19.6126022,4.4867110,9.5432396,93.2213745,-250.1374054,-42.3816795
800,19.6126022,5.4826937,7.4411407,96.1908417,-170.4656525,-31.9923668
810,17.0298691,4.6112089,2.9065459,87.6030502,-59.9160309,-7.9541984
820,15.2078915,4.3382711,0.6009415,65.6030502,27.1374054,28.0458012
830,18.1192265,5.0206151,-0.1101327,39.3740463,73.8778610,51.2671738
840,19.6126022,5.5880380,-0.0646431,18.2900772,103.4351120,42.8473282
850,19.6126022,6.0740585,-0.1532281,1.1603054,116.8091583,3.7862597
860,19.6126022,6.5026188,0.7948709,-13.0076332,84.4351120,-61.0610695
870,19.6126022,6.0357518,2.3630650,-19.2671757,16.9236641,-135.7175598
880,19.6126022,4.8530221,3.1699069,-16.9465656,-51.9694672,-202.5801544
890,19.1199970,3.5314295,3.4643922,-13.2137403,-102.5267181,-250.1374054
900,16.7329903,2.5641768,3.4859397,-12.6564884,-134.3358765,-250.1374054
910,14.6691990,1.8650736,3.1483591,-15.8549614,-142.8549652,-250.1374054
920,12.9190464,1.3862357,2.6599445,-22.7633591,-133.5419922,-250.1374054
930,11.3747940,1.1037214,2.2601149,-31.4961834,-118.4885483,-250.1374054
940,9.6485834,0.8355721,1.7836711,-42.0000000,-105.0916061,-250.1374054
950,7.7499914,0.4189832,1.6807210,-52.2977104,-91.1908417,-250.1374054
960,5.8370337,-0.1340746,2.0302727,-60.8931313,-77.9312973,-250.1374054
970,4.0940638,-0.5913648,2.4899571,-65.2290039,-70.3053436,-250.1374054
980,2.4516499,-1.0247130,2.9520357,-65.7938919,-71.4503784,-250.1374054
990,0.9696468,-1.2354017,3.5194585,-63.5114517,-77.5419846,-250.1374054
1000,-0.0478838,-1.2617378,4.0749106,-59.5267181,-89.5725174,-250.1374054
1010,-0.6440369,-1.0510491,4.6519103,-53.8091621,-99.3129807,-250.1374054
1020,-1.1037214,-1.0247130,5.0134325,-46.1984749,-101.0916061,-250.1374054
1030,-1.5705882,-1.1252691,4.8913293,-39.3664131,-104.3816757,-250.1374054
1040,-2.0661855,-1.3742647,4.8314743,-34.6259537,-107.7938919,-250.1374054
1050,-2.7964132,-1.6759326,5.0900469,-30.3282452,-105.3435135,-250.1374054
1060,-3.4500270,-1.8985922,5.2121506,-25.1679382,-99.8625946,-244.4122162
1070,-4.3885493,-2.0087249,5.4419928,-19.2671757,-90.5954208,-227.0458069
1080,-5.5832496,-1.9632354,5.7005649,-11.6106873,-79.4427490,-202.3587799
1090,-6.9910331,-1.4772149,5.6478930,-4.0992365,-64.7938919,-166.1450348
1100,-8.4371233,-0.8810617,5.3845320,1.5343511,-37.7862587,-118.4351120
1110,-9.7563219,-0.1268920,5.0804701,3.4961832,0.8549618,-58.4961815
1120,-11.0946741,0.9026094,4.2688398,-0.1755725,96.8931274,82.1832047
1130,-11.5375986,0.9385223,3.1435707,-11.5496187,158.3435059,157.6946564
1140,-12.9812956,0.6919208,1.6831152,-34.6717567,224.9541931,243.7786255
1150,-16.2038746,-1.0103480,0.6344602,-71.1297684,250.1297760,250.1297760
1160,-19.6131992,-3.8307030,1.5370697,-115.8320618,250.1297760,250.1297760
1170,-19.6131992,-9.3421268,4.8602047,-149.4122162,250.1297760,250.1297760
1180,-17.4871597,-17.6954536,8.9590569,-153.1450348,201.9541931,250.1297760
1190,-3.1938488,-19.6131992,11.5352049,-123.6183243,85.8244247,250.1297760
1200,19.6126022,-19.6131992,12.4713326,-67.9236679,46.6183205,250.1297760
1210,19.6126022,-19.6131992,11.2311430,-25.3969460,150.5038147,250.1297760
1220,19.6126022,-16.8838234,11.7099810,-42.4427490,250.1297760,250.1297760
1230,19.6126022,2.8035958,18.7704449,-114.3893127,250.1297760,250.1297760
1240,19.6126022,7.2472115,19.6126022,-92.5648880,250.1297760,228.1297760
1250,19.6126022,1.5322813,19.6126022,31.9541988,186.9847260,-8.8854961
1260,19.6126022,-2.1595588,16.9173431,133.9618378,-17.2595425,-129.8625946
1270,11.4442253,-1.6376256,10.3788109,188.6717529,-243.1221313,-180.5572510
1280,4.3430595,0.6153067,6.2416520,209.1297760,-250.1374054,-173.8015289
1290,3.8354914,2.1068866,3.7181761,203.9694672,-250.1374054,-133.6793823
1300,5.4491754,2.9017577,2.1835008,182.2442780,-250.1374054,-82.5877838
1310,6.4954362,3.6655040,1.0558375,153.0763397,-250.1374054,-31.0152664
1320,6.8665352,3.2944047,-0.2394189,115.0457993,-166.5038147,13.2519083
1330,6.3637557,2.7916248,-0.8762733,77.0916061,-47.0076332,53.4427490
1340,6.4738884,2.1547706,-0.6416427,46.9007645,30.1297703,88.7938919
1350,8.0564480,1.9057748,-0.2346306,27.6030540,74.3511429,112.9007645
1360,10.8839855,2.5115047,0.0622489,12.9618320,105.4351120,122.7557220
1370,13.0770626,3.4236910,0.1364688,0.2137405,130.2366486,115.0610657
1380,14.2190914,3.5481887,0.3878587,-12.5343513,149.1679382,93.0839691
1390,13.8432035,3.2537034,0.9073978,-23.3740463,152.9923706,63.6488533
1400,12.8807392,2.8012016,1.7836711,-30.2748089,134.3740387,38.8625946
1410,11.9565821,2.0805507,2.3750360,-33.1603050,99.9694672,20.0305347
1420,11.5256281,1.5155219,2.8203552,-32.9618340,51.4351158,6.1374044
1430,11.7937775,1.3958124,3.6295912,-30.6717548,-3.3969467,-5.0687022
1440,12.8639803,1.4939742,4.3215117,-26.6793900,-58.7099228,-16.3740463
1450,15.4018211,1.9201399,4.9966736,-21.0229015,-105.3206100,-31.5114498
1460,18.8997307,2.8873925,5.4372044,-15.3740454,-131.0076294,-53.0228996
1470,19.6126022,4.0533628,5.4228392,-15.3893127,-136.1908417,-80.5648880
1480,19.6126022,5.1283536,4.6303625,-18.5572510,-109.5419846,-106.1832047
1490,19.6126022,4.9248476,4.1970143,-22.6183205,-55.4351158,-128.4122162
1500,19.6126022,3.6439564,4.5489597,-26.6412220,-0.4809160,-149.5343475
1510,19.6126022,2.6407909,5.3390427,-29.3740463,37.1832047,-168.4732819
1520,19.6126022,2.0949159,6.4762826,-29.1145039,47.3206100,-184.2213745
1530,19.1247845,2.0206959,7.8529415,-24.1526718,36.0305328,-198.7480927
1540,19.1032372,2.3271523,8.9782104,-14.6412210,13.0992365,-214.6106873
1550,19.4168758,2.3894010,9.0644016,-3.5343511,-9.7022905,-234.9541931
1560,19.6126022,1.9225341,8.4179697,5.3435116,-25.2137413,-250.1374054
1570,19.6126022,1.5490406,7.7882981,9.9465647,-39.7633591,-250.1374054
1580,19.5988350,0.8762733,7.0844064,11.3282442,-49.2824440,-250.1374054
1590,17.9109306,-0.4860204,6.6319046,6.7862597,-63.4885483,-250.1374054
1600,15.3419657,-1.7884595,6.3757267,-2.2366412,-82.4732819,-250.1374054
1610,12.8615856,-2.7820482,6.7013364,-9.6946564,-95.9312973,-250.1374054
1620,10.4386663,-3.7660601,7.0652533,-12.0763359,-95.7862625,-250.1374054
1630,7.9463148,-4.2879934,7.1993275,-9.8549614,-87.4503784,-250.1374054
1640,6.0788469,-4.5561423,7.2591825,-4.9923663,-73.5801544,-250.1374054
1650,3.9192882,-4.5633249,7.2615767,2.0534351,-62.9541969,-250.1374054
1660,2.3079987,-4.3885493,7.0628591,10.5954199,-56.0610695,-250.1374054
1670,0.9672526,-4.1491303,6.9718795,20.9465656,-58.4885483,-250.1374054
1680,-0.0119709,-3.7157819,6.8018923,33.2213745,-62.3206100,-250.1374054
1690,-0.9696468,-3.2848279,6.3350253,44.5114517,-65.7175598,-250.1374054
1700,-1.9847831,-3.0118904,5.9016771,52.9160309,-70.4045792,-250.1374054
1710,-3.0023136,-2.8275378,5.7676024,59.8396950,-74.3740463,-250.1374054
1720,-3.8785870,-2.6790979,5.7747850,67.4274826,-71.9007645,-250.1374054
1730,-4.7524662,-2.7054341,5.7269011,77.6030502,-62.1679382,-250.1374054
1740,-6.1506729,-3.0908985,5.4300218,89.3358765,-49.9236641,-250.1374054
1750,-8.2503767,-3.6152260,5.3055239,102.5190811,-40.6259537,-250.1374054
1760,-11.2574787,-3.8330972,4.9200592,111.9160309,-41.7099228,-250.1374054
1770,-13.9533358,-3.6990228,4.3789725,122.8854980,-50.5343513,-250.1374054
1780,-15.3922443,-3.3997490,3.3949606,131.7251892,-62.1908379,-236.8778687
1790,-16.0889530,-2.9256995,2.2122312,135.2519073,-71.5038147,-189.9770966
1800,-16.1559906,-2.2026544,1.0151364,129.7557220,-75.5343475,-142.0076294
1810,-15.7705259,-1.8028246,0.1843526,116.0305328,-71.6030502,-94.4122162
1820,-15.1169119,-1.4987626,-0.5243275,95.9465637,-58.5114517,-46.5343513
1830,-14.0227680,-1.5490406,-0.7733232,69.2900772,-35.3816795,0.4809160
1840,-13.1512823,-1.8483143,-0.8882443,41.3587799,-5.6030536,44.8625946
1850,-12.4306316,-2.5569944,-0.5841822,12.7862597,29.4427490,90.9847336
1860,-12.3204985,-3.5410061,0.0359128,-13.0381680,68.8473282,141.0763397
1870,-12.5216112,-4.5537481,1.0007712,-35.7099228,106.2519073,196.8549652
1880,-12.7825775,-5.5808558,1.7597293,-55.3358765,142.6183167,250.1297760
1890,-14.6835642,-8.0708122,2.5450234,-67.5877838,173.0839691,250.1297760
1900,-17.6164455,-11.0443964,3.7923961,-75.5038147,191.6870270,250.1297760
1910,-18.8686066,-14.1903610,5.3773494,-75.1297684,183.2977142,250.1297760
1920,-18.3323078,-19.4551830,6.7516141,-66.7099228,163.8015289,250.1297760
1930,-16.4744167,-19.6131992,7.9511032,-56.4045792,137.9694672,250.1297760
1940,-10.0340481,-19.6131992,9.3971939,-38.4274826,98.3206100,250.1297760
1950,10.3117743,-19.6131992,9.8664551,-6.5572519,79.8854980,250.1297760
1960,19.6126022,-19.6131992,9.2463598,27.2366409,194.3129730,250.1297760
1970,19.6126022,-19.6131992,7.8337879,9.0076332,250.1297760,250.1297760
1980,19.6126022,-19.6131992,12.7442703,-62.7709923,250.1297760,250.1297760
1990,19.6126022,-19.6131992,19.6126022,-63.5648842,250.1297760,250.1297760
2000,19.6126022,-9.2535419,19.6126022,61.4656487,250.1297760,250.1297760
2010,19.6126022,-1.5538290,19.6126022,179.3053436,250.1297760,250.1297760
2020,19.6126022,0.3136388,7.1155310,197.0152740,119.2137375,148.9541931
2030,19.6126022,1.2449785,-3.1555417,145.1984711,-20.4885502,84.4351120
2040,15.3252068,1.4556671,-5.8202744,68.7862625,-99.1908417,96.1068726
2050,15.5502605,2.3894010,-3.0238612,3.6106870,-101.5801544,128.1984711
2060,19.6126022,3.2776453,2.5522060,-35.9465637,-55.0381660,143.1297760
2070,19.6126022,3.5625539,8.2623482,-39.5877876,0.6641222,137.8167877
2080,19.6126022,3.4332676,11.2359314,-18.5648861,48.0916023,128.3816833
2090,19.6126022,3.1459649,11.2862091,15.3282442,76.3129807,114.7938919
2100,19.6126022,3.2441268,8.9782104,46.4961815,85.7633591,100.4656525
2110,19.6126022,3.6774750,6.3541789,64.3053436,81.7175598,82.8015289
2120,19.6126022,4.5920553,3.5386121,65.2366409,68.9923630,58.3969460
2130,19.6126022,4.9823084,1.8626794,52.8625946,52.9236641,30.5038166
2140,19.6126022,4.8362627,1.5131277,10.5648851,25.8778629,-26.6488552
2150,19.6126022,4.3789725,2.3558824,-6.1755724,11.1832066,-53.5343513
2160,18.7824154,3.5601597,3.2680686,-16.5648861,-6.0229006,-76.1984711
2170,17.9300842,2.6383967,4.1443419,-22.1755733,-26.4427490,-96.5725174
2180,16.8407288,2.0230901,4.7309184,-23.0763359,-53.0763359,-112.5343475
2190,16.4983597,1.3575054,5.2672167,-23.4656487,-81.5572510,-124.1450348
2200,17.1567612,1.4029950,5.7628140,-23.5190830,-104.4045792,-136.2977142
2210,18.3083668,1.6974803,6.4403696,-21.9923668,-117.8091583,-152.3206177
2220,19.5820751,2.1068866,6.7037306,-17.0534344,-119.2442780,-173.4809113
2230,19.6126022,2.1595588,6.1219425,-11.6488552,-113.2137375,-199.3358765
2240,19.5365868,1.9297167,5.4755111,-11.3282442,-106.0381699,-225.7709961
2250,18.6052456,1.6041069,4.9727316,-16.0687027,-99.0610657,-250.1374054
2260,17.8079815,1.4245427,4.7021880,-24.1068707,-91.6335907,-250.1374054
2270,17.4632187,1.0678085,4.6159973,-32.3435097,-80.7251892,-250.1374054
2280,17.1974621,0.5913648,4.7572546,-40.6641235,-71.3053436,-250.1374054
2290,16.5941277,-0.2585725,4.9918852,-48.5267181,-69.8778610,-250.1374054
2300,15.7753143,-1.1611819,5.2528515,-54.9847336,-77.2442780,-250.1374054
2310,15.7896795,-2.1212518,5.7939386,-60.2290077,-86.8320618,-250.1374054
2320,15.0546637,-3.3997490,6.6247220,-64.5267181,-102.3893127,-250.1374054
2330,13.1632538,-4.8817525,8.0947542,-65.8473282,-134.2290039,-250.1374054
2340,11.4035244,-6.0716643,10.0412302,-56.6412201,-167.0076294,-250.1374054
2350,10.3428984,-6.2655940,11.3939476,-34.2213745,-178.5572510,-250.1374054
2360,8.5520449,-5.9998388,11.3316984,-4.1145039,-172.7022858,-250.1374054
2370,6.4858594,-5.3294659,9.8903971,19.9465656,-155.2671814,-250.1374054
2380,4.4220681,-4.5034704,8.1570034,33.9083977,-125.6946564,-250.1374054
2390,2.1092808,-3.2896163,6.8401995,40.8778610,-90.7633591,-250.1374054
2400,0.0239419,-1.9895715,5.7747850,43.7480927,-60.1755714,-250.1374054
2410,-1.4676381,-1.0965388,4.8769641,46.7251892,-38.7251892,-250.1374054
2420,-2.5258698,-0.1723816,3.8450682,49.2442741,-25.6717548,-250.1374054
2430,-3.3901722,0.7326220,2.8227494,50.3053436,-26.4122143,-250.1374054
2440,-3.9336534,1.1947005,2.0805507,48.7404594,-35.9618340,-250.1374054
2450,-4.2305326,1.3479286,1.7693061,45.7022896,-51.5267181,-250.1374054
2460,-4.4938936,0.9696468,2.0757623,42.9847336,-70.6259537,-250.1374054
2470,-5.1139889,0.1795642,2.5641768,42.4809151,-84.7557220,-250.1374054
2480,-6.2512288,-0.8427547,3.2201848,44.9923668,-93.4732819,-250.1374054
2490,-7.6997132,-1.6256547,3.6798692,48.3282433,-92.8320618,-250.1374054
2500,-9.2846670,-2.2122312,4.0102673,50.3435097,-86.3740463,-250.1374054
2510,-10.7954006,-2.4899571,4.2018023,50.2061081,-75.2977066,-250.1374054
2520,-12.0691090,-2.7102225,4.2879934,48.9389305,-54.3664131,-250.1374054
2530,-13.1273403,-2.9113343,4.0270267,46.7480927,-23.8625946,-250.1374054
2540,-14.4537220,-3.1244173,3.5170643,43.2900772,10.5801525,-210.0305328
2550,-16.2828827,-3.1986370,2.4731977,36.1297722,42.5725174,-161.0229034
2560,-18.6531296,-3.4332676,1.1468167,23.3816795,59.5725174,-104.3435135
2570,-19.6131992,-3.8450682,0.3974355,3.5648854,54.6259537,-36.2213745
2580,-19.6131992,-4.5417776,0.9145803,-16.4351139,33.6793900,41.9771004
2590,-19.6131992,-5.6215568,2.4971397,-29.1297703,5.1679387,128.6030579
2600,-19.6131992,-6.9072366,4.1204000,-32.8931313,-10.2824430,213.4732819
2610,-18.2006283,-9.0356712,5.2576399,-29.7709923,6.8778625,250.1297760
2620,-15.7154598,-11.5519638,5.8490047,-22.7786255,41.6030540,250.1297760
2630,-13.4098549,-13.5606890,6.0118098,-12.4427481,77.1679382,250.1297760
2640,-11.4873209,-15.9476957,5.7364779,2.9694657,107.3893127,250.1297760
2650,-9.8832140,-18.0473995,4.6351509,16.3969460,126.7099228,250.1297760
2660,-7.8697009,-19.6131992,3.4452386,20.6717548,141.6870270,250.1297760
2670,-5.9256191,-19.6131992,2.2457497,15.8244276,148.4503784,250.1297760
2680,-3.4763632,-19.6131992,1.2497669,3.4351146,137.3511505,250.1297760
2690,-0.5458752,-19.6131992,1.2330076,-5.9389315,126.4809189,250.1297760
2700,3.7708483,-19.6131992,2.0853391,-14.8702288,128.8778687,250.1297760
2710,11.6381550,-19.6131992,3.3255291,-22.4351139,154.8473358,250.1297760
2720,19.6126022,-19.6131992,5.0110383,-38.8091621,225.4122162,250.1297760
2730,19.6126022,-19.6131992,9.3038206,-69.6183243,250.1297760,250.1297760
2740,19.6126022,-19.6131992,17.0131111,-97.1679382,250.1297760,250.1297760
2750,19.6126022,-17.6906662,19.6126022,-96.3129807,250.1297760,250.1297760
2760,19.6126022,-10.0603838,19.6126022,-8.6030531,250.1297760,250.1297760
2770,19.6126022,-5.7077475,19.6126022,124.7404556,250.1297760,250.1297760
2780,19.6126022,-6.8809004,15.9261484,187.0839691,250.1297760,248.8015289
2790,19.6126022,-4.3933377,5.6478930,167.8091583,250.1297760,177.4351196
2800,19.6126022,-1.6543850,0.9696468,93.0457993,231.6106873,142.6717529
2810,16.0267048,-0.1460456,0.7876883,2.7480917,177.3435059,138.0152740
2820,16.0003681,0.4309541,5.0780759,-62.0610695,143.5725250,136.8854980
2830,16.3116131,0.7302278,10.2495251,-84.7862625,125.2137375,130.1068726
2840,16.6635590,1.2018831,13.5080166,-77.7175598,114.4198456,120.3053436
2850,17.5637741,1.2617378,14.8607340,-55.0839691,106.2213745,106.7022934
2860,17.7529144,1.7836711,14.8152447,-26.3511448,95.9160309,85.2137375
2870,17.2549229,2.0159075,13.3978844,-3.5801528,81.9007645,65.2442780
2880,16.7282009,1.9273225,11.5543585,8.2519083,69.8320618,44.8015251
2890,13.5367470,1.8914096,9.3157911,-7.0687022,36.6106873,-0.5114504
2900,12.9166517,1.5370697,9.4833841,-7.5343513,25.7633591,-5.4122138
2910,12.7825775,1.3168042,9.4091644,-5.9007635,15.3969469,-8.8625956
2920,12.9525652,1.2976507,9.3947992,-4.1297708,3.1374047,-12.5801525
2930,13.4864693,1.4796091,9.4714136,0.3282443,-9.6793890,-18.2900772
2940,14.3196468,1.6472024,9.1194677,4.8320613,-21.6870232,-27.5725193
2950,15.3587255,2.1547706,8.7842808,6.5725193,-31.8091602,-40.8244286
2960,16.4265347,2.6910689,8.3078375,3.8625953,-40.4045792,-59.2137413
2970,17.3123837,3.0861101,8.0277176,-1.9465649,-46.0610695,-82.0839691
2980,17.7984047,3.2249732,8.0253229,-9.7251911,-50.1908379,-107.8625946
2990,18.1311970,3.0693510,7.8697009,-19.2519093,-56.4885483,-134.5648804
3000,17.7648849,2.5378408,8.0779953,-30.2900772,-71.8396912,-161.8320618
3010,18.0713425,2.3056045,8.8441362,-38.7251892,-90.0992355,-187.1221313
3020,19.3809643,2.3534882,9.8568783,-42.0305328,-101.8549652,-212.8015289
3030,19.6126022,2.4875629,10.8073711,-40.3358765,-114.3511429,-242.9694672
3040,19.6126022,2.3630650,11.6142130,-36.2900772,-132.4809113,-250.1374054
3050,19.6126022,1.6112895,12.3683825,-30.1374054,-154.3282471,-250.1374054
3060,19.6126022,1.0007712,13.1536770,-22.0381680,-175.7099304,-250.1374054
3070,19.6126022,0.1029501,13.9341822,-11.3435116,-184.4809113,-250.1374054
3080,19.6126022,-1.0558375,14.0802279,-0.1603053,-181.7557220,-250.1374054
3090,19.6126022,-2.5953014,14.1329002,9.7786255,-168.1145020,-250.1374054
3100,18.3442802,-4.1347651,14.0347385,20.6106873,-153.0229034,-250.1374054
3110,15.6795464,-5.1786318,13.7857428,35.3435097,-130.5496216,-250.1374054
3120,12.8903160,-6.1961622,12.9429884,52.3053436,-106.7404556,-250.1374054
3130,10.5631638,-6.7396431,11.8823624,67.9312973,-86.5419846,-250.1374054
3140,7.7787213,-7.0580707,11.0563669,79.6717529,-78.4885483,-250.1374054
3150,5.0493455,-6.9216018,10.6613255,89.9465637,-78.4580154,-250.1374054
3160,2.5354466,-6.5337429,10.5751352,100.9389343,-86.0992355,-250.1374054
3170,0.8595140,-5.8513989,10.6014709,112.5419846,-95.7099228,-250.1374054
3180,-0.1628049,-5.1690550,10.3165627,125.9542007,-100.2137375,-250.1374054
3190,-0.5626345,-4.5058646,9.5791521,139.3511505,-98.5801544,-250.1374054
3200,-0.4548960,-3.8857694,8.3772688,148.7557220,-89.3435135,-250.1374054
3210,-0.8930327,-3.6056492,6.8856888,152.2977142,-74.1832047,-250.1374054
3220,-1.7333932,-3.6655040,5.0254035,148.6946564,-59.5267181,-250.1374054
3230,-2.8395088,-3.9288650,3.6439564,138.5190887,-49.4427490,-250.1374054
3240,-4.2784166,-4.3382711,2.5522060,123.7557220,-43.8549614,-250.1374054
3250,-6.0908179,-4.7692256,2.1739240,106.6335907,-39.8702278,-250.1374054
3260,-7.8960366,-5.1403246,2.6288199,93.4809189,-36.2290077,-250.1374054
3270,-9.6557665,-5.5928264,3.0717452,85.8931274,-31.8320618,-250.1374054
3280,-11.4968977,-5.6047974,3.4260850,83.0229034,-27.5419846,-250.1374054
3290,-12.7322998,-5.6071916,3.5721307,81.7404556,-20.6717548,-250.1374054
3300,-13.7761660,-5.4395986,3.3351059,80.6793900,-7.8778625,-250.1374054
3310,-14.7769375,-5.1690550,2.8299320,77.6183243,12.0458012,-223.7557220
3320,-16.2326050,-4.9655490,1.9967541,70.5114517,34.8625946,-173.4732819
3330,-17.9420567,-4.8075323,1.0055596,59.2595406,51.0916023,-116.9923630
3340,-19.3594151,-4.9870968,-0.0742199,43.7862587,54.7938919,-51.1221390
3350,-19.6131992,-5.5952206,-0.9457048,25.1145039,46.4427490,23.1832066
3360,-19.6131992,-6.3302369,-1.2306134,4.2290077,29.9007626,103.5343475
3370,-18.0282459,-7.5728211,-1.0773853,-17.6183205,17.2213745,181.8702240
3380,-15.6651812,-8.9159613,-0.3447633,-39.2671738,19.7175579,250.1297760
3390,-13.9030581,-10.8384953,0.7852941,-54.4198456,33.1832047,250.1297760
3400,-12.8208847,-13.1752243,2.1451938,-59.2671738,53.9083977,250.1297760
3410,-12.1409349,-15.4113979,3.2704628,-55.4427490,78.9312973,250.1297760
3420,-11.6740675,-17.4153347,3.4715748,-46.3053436,98.2595444,250.1297760
3430,-10.5847120,-19.6131992,3.4308734,-33.5419846,90.0916061,250.1297760
3440,-10.0986910,-19.6131992,3.0525916,-20.5038166,68.9083939,250.1297760
3450,-9.6701307,-19.6131992,2.7245877,-5.9770994,36.6946564,250.1297760
3460,-5.9375896,-19.6131992,2.8706331,1.2671756,23.2290077,250.1297760
3470,4.6447277,-19.6131992,3.3566537,-1.3435115,75.5114517,250.1297760
3480,18.5741215,-19.6131992,3.4117200,-27.0458012,232.4122162,250.1297760
3490,19.6126022,-19.6131992,4.1730723,-98.8473282,250.1297760,250.1297760
3500,19.6126022,-19.6131992,10.6397781,-193.2290039,250.1297760,250.1297760
3510,19.6126022,-19.6131992,19.6126022,-213.7709961,250.1297760,250.1297760
3520,19.6126022,-16.3307667,19.6126022,-89.4961853,250.1297760,250.1297760
3530,19.6126022,-9.8688488,19.6126022,91.2519073,76.4122162,250.1297760
3540,19.6126022,-4.8362627,15.0307217,189.2671814,-87.8549652,250.1297760
3550,19.6126022,-1.9943599,1.7190280,176.2748108,-141.7022858,248.4351196
3560,19.6126022,-2.2720859,-1.7429699,106.5038147,-76.0305328,247.0305328
3570,19.6126022,-1.4389079,2.4372849,42.2748108,28.9923668,250.1297760
3580,19.6126022,-0.3184272,7.3573442,-0.7862595,126.4656525,250.1297760
3590,19.6126022,0.8355721,11.2838144,-7.6717558,193.0000000,229.3664093
3600,19.6126022,1.5131277,12.8376436,19.5038166,209.3358765,180.8396912
3610,19.6126022,2.4971397,10.6086531,54.4580154,184.1145020,131.5267181
3620,19.6126022,3.0956869,6.0788469,69.1526718,128.1145020,84.4961853
3630,19.6126022,3.7109938,2.4444675,57.8625946,69.6335907,46.8396950
3640,19.3235035,3.8402798,1.2665262,33.3893127,29.7099228,21.6564884
3650,17.4703999,3.7181761,1.4843974,7.3664122,3.9847329,3.4885497
3660,16.4097748,3.5050933,2.7557120,-12.6564884,-16.7633591,-12.8091602
3670,15.3228121,3.2632802,4.4029145,-20.2519093,-31.1068707,-30.0458012
3680,13.8312321,2.8921809,5.4395986,-18.1832066,-39.1297722,-43.1297722
3690,12.1624823,2.3965836,5.6526814,-10.5648851,-43.3206100,-50.0152664
3700,10.4841557,1.9368993,5.1475072,-4.5267177,-42.6183205,-48.7938919
3710,9.5216913,1.5346755,4.3741841,-0.3282443,-42.4045792,-41.4503822
3720,9.4642305,1.3191984,3.8714044,0.1832061,-47.4198456,-32.4580154
3730,10.4123297,1.6112895,3.8330972,-0.9160305,-54.7328262,-27.1679382
3740,11.9470053,1.8866212,3.7971845,-1.9465649,-61.0763359,-28.1297703
3750,13.5104113,2.3965836,3.7852135,-2.2137403,-63.7633591,-35.5801544
3760,14.9636841,2.9233053,3.6224086,-3.2977099,-62.3129768,-48.3129768
3770,15.8064384,3.0789278,3.5505829,-7.4961834,-57.8854980,-64.9007645
3780,16.2804890,3.0501974,3.5098817,-13.9770994,-54.2366409,-81.4885483
3790,16.9963512,3.0478032,3.4500270,-22.5267181,-54.0381660,-98.9312973
3800,18.1599274,3.0430148,3.7109938,-31.3206100,-55.9923668,-118.5648880
3810,19.5150375,3.1100521,4.1419477,-39.7633591,-55.6870232,-142.2748108
3820,19.6126022,3.2345500,4.5298066,-45.8854980,-50.7251892,-168.3740387
3830,19.6126022,3.3231349,4.8841467,-48.0916023,-42.6183205,-197.6793823
3840,19.6126022,3.3901722,4.9966736,-48.7328262,-40.3511467,-230.2213745
3850,19.6126022,3.2872221,4.8003497,-50.0610695,-43.9618340,-250.1374054
3860,19.6126022,3.2225790,4.4723458,-52.7404594,-46.4580154,-250.1374054
3870,19.6126022,2.5474176,4.3670015,-55.7709923,-54.8167953,-250.1374054
3880,19.6126022,1.6448082,4.5010762,-59.1068687,-70.1374054,-250.1374054
3890,19.6126022,0.8643024,4.7213416,-61.6106873,-87.3511429,-250.1374054
3900,19.5653172,0.3758878,5.3534074,-61.0305328,-101.6412201,-250.1374054
3910,19.2181587,-0.4596844,5.6502872,-57.0381660,-109.4274826,-250.1374054
3920,18.7081966,-1.3958124,5.9351954,-52.8167953,-111.6870193,-250.1374054
3930,17.1519737,-2.6216373,5.9208307,-49.7022896,-116.5801544,-250.1374054
3940,14.6715927,-4.1132174,5.8585815,-49.2213745,-118.4274826,-250.1374054
3950,11.8129311,-5.2073622,5.9830794,-48.8244286,-120.4885483,-250.1374054
3960,9.0859489,-5.8825235,6.6893654,-45.6259537,-126.1603088,-250.1374054
3970,6.9287844,-6.2823529,7.5105724,-38.0228996,-131.7633514,-250.1374054
3980,5.1427188,-6.4858594,8.0205345,-26.7251911,-130.8625946,-250.1374054
3990,3.6056492,-6.2775645,8.1665802,-14.5114508,-130.2290039,-250.1374054
4000,2.1906834,-5.8609757,8.0995426,-4.2290077,-132.8167877,-250.1374054
4010,1.0199248,-5.4276276,7.6925306,2.4580152,-133.0610657,-250.1374054
4020,-0.4381367,-5.3366485,7.3142486,4.2519083,-125.7938919,-250.1374054
4030,-1.9392935,-5.1451130,7.0772243,3.9389312,-108.9618301,-250.1374054
4040,-3.9815371,-4.7500720,7.1729918,5.9694657,-83.4122162,-250.1374054
4050,-6.1267309,-4.1539187,7.0125809,11.9389315,-57.8091621,-250.1374054
4060,-8.4826136,-3.9791429,6.7037306,19.6335869,-45.3587799,-250.1374054
4070,-10.3979645,-3.3782012,5.8777351,23.1679382,-42.5954208,-250.1374054
4080,-11.9398232,-2.6790979,5.4324160,20.0076332,-43.2977104,-250.1374054
4090,-13.0890341,-2.1308286,5.4635406,12.7251911,-36.1221390,-250.1374054
4100,-14.6715927,-1.9632354,6.1123657,5.8244276,-20.4809170,-250.1374054
4110,-16.2996426,-2.0997043,6.6199336,2.3740458,-1.0916030,-199.8015289
4120,-17.1615505,-2.4923513,7.0149751,2.7175572,18.2061062,-144.1221313
4130,-17.2980194,-2.7317703,7.5369086,9.0152674,35.0687027,-87.3587799
4140,-17.1471844,-2.9975252,7.8409705,19.3969460,49.9312973,-30.9847336
4150,-16.5103302,-3.3087699,7.7547798,30.1908398,65.2595444,22.2900772
4160,-16.0099449,-3.7181761,7.4267755,39.7328262,83.7251892,71.9083939
4170,-15.8112268,-4.3263001,7.0197635,46.1755714,101.1755753,121.5419846
4180,-15.4018211,-4.9440012,6.5840211,50.5267181,120.1755753,169.6335907
4190,-15.4592810,-6.0644817,5.8873119,55.5801544,126.3969498,217.6488495
4200,-15.4209747,-7.2950954,5.2265158,62.4351158,113.4045792,250.1297760
4210,-15.9716377,-9.2272062,4.6327567,72.5496216,85.7709961,250.1297760
4220,-15.9883976,-11.1066446,3.8091555,85.8091583,49.5190849,250.1297760
4230,-14.1855726,-13.3643656,2.4731977,94.3282471,24.5190830,250.1297760
4240,-12.0020714,-15.6172981,1.5921360,95.0305328,29.1755733,250.1297760
4250,-9.7371683,-18.4448357,1.1420283,85.5954208,70.7633591,250.1297760
4260,-8.5855637,-19.6131992,1.1563935,65.7786255,131.2290039,250.1297760
4270,-7.7356262,-19.6131992,1.9081690,44.0534363,178.0610657,250.1297760
4280,-5.8705525,-19.6131992,2.6671271,30.5496178,191.4351196,250.1297760
4290,1.3886299,-19.6131992,3.1938488,23.6030540,176.6488495,250.1297760
4300,15.3204184,-19.6131992,3.6128318,15.1526718,208.9770966,250.1297760
4310,19.6126022,-19.6131992,5.0182209,0.7633588,250.1297760,250.1297760
4320,19.6126022,-19.6131992,5.3821378,-57.8396950,250.1297760,250.1297760
4330,19.6126022,-19.6131992,10.5703468,-136.4274750,250.1297760,250.1297760
4340,19.6126022,-15.2749290,19.6126022,-145.7938995,250.1297760,250.1297760
4350,19.6126022,-9.2822723,19.6126022,-46.7633591,244.2900696,250.1297760
4360,19.6126022,-5.9304070,19.6126022,89.4503784,-81.3206100,250.1297760
4370,19.6126022,-4.5058646,9.2511482,157.7175598,-250.1374054,160.0458069
4380,18.0138817,-3.1555417,0.1604107,144.3740387,-250.1374054,138.4351196
4390,16.7497501,-3.1196289,-1.8147956,87.8473282,-250.1374054,169.5038147
4400,19.6126022,-2.5641768,0.8690908,30.6564884,-142.5648804,214.6106873
4410,19.6126022,-1.3862357,5.0541339,-4.4580154,55.0992355,240.9618378
4420,19.6126022,0.0000000,8.5448618,-10.2977095,196.1374054,240.6946564
4430,19.6126022,2.0063307,9.6557665,6.3358779,250.1297760,212.9160309
4440,19.6126022,3.9121056,7.9439206,24.1526718,250.1297760,164.1068726
4450,19.6126022,5.0062504,5.4946647,29.9541988,250.1297760,96.9694672
4460,19.6126022,5.1235652,3.1531475,23.7022896,235.1984711,38.6183205
4470,19.6126022,4.4436154,0.9433106,2.8015268,183.6564941,-5.5343513
4480,18.7632618,3.7636659,0.3327923,-25.9083977,128.7251892,-34.6183205
4490,16.5079365,3.0286496,1.8578910,-50.6488533,77.4580154,-51.2213745
4500,15.4975882,2.6024840,3.9073172,-62.9618340,36.7557259,-61.9847336
4510,14.8272152,2.2409613,5.8633699,-62.7251892,10.4122133,-68.0457993
4520,14.2166967,1.9680238,7.0844064,-55.2290077,-0.0152672,-70.9542007
4530,13.8072910,1.9153515,7.6566176,-44.0687027,3.0458016,-71.3282471
4540,13.3069048,1.8794388,7.7308378,-32.9771004,14.8931293,-70.7786255
4550,12.5407648,1.8195840,7.4890246,-21.1145039,27.3282452,-69.9847336
4560,11.9685535,1.8483143,6.9359670,-11.0839691,37.4122124,-67.9847336
4570,11.2909975,1.7309990,6.3086891,-4.1526718,41.6183205,-65.8854980
4580,10.4937325,1.6615674,5.7676024,0.7862595,41.8167953,-63.3587799
4590,10.4314833,2.2074428,5.0134325,3.5190840,14.8167934,-52.5267181
4600,13.1321287,3.2369442,5.5233951,-2.4198472,-4.5190840,-65.4503784
4610,14.3651371,3.3231349,5.7484488,-6.8625956,-11.7404585,-81.2977066
4620,15.3395720,3.2537034,6.2464404,-12.5496187,-21.4885502,-99.9542007
4630,16.2302094,3.2776453,7.0748301,-17.3816795,-30.5190830,-119.7786255
4640,17.0011387,3.2680686,7.8146343,-18.0381680,-37.5419846,-139.4885559
4650,17.8702297,3.0669568,8.3748751,-15.1526718,-43.4885483,-159.5648804
4660,19.0625362,2.9735832,8.9087791,-9.0687027,-47.8320618,-179.8931274
4670,19.6126022,3.2944047,9.1601686,-2.0534351,-48.4122124,-202.1908417
4680,19.6126022,3.5218527,9.0476418,4.7557254,-45.4351158,-228.9923706
4690,19.6126022,3.3303175,8.5616217,9.0534353,-43.6030540,-250.1374054
4700,19.6126022,3.0382264,8.0756006,8.4656487,-49.3969460,-250.1374054
4710,19.6126022,2.6288199,8.2288294,5.9007635,-67.4656525,-250.1374054
4720,19.6126022,1.4413021,8.6334467,5.8854961,-90.2213745,-250.1374054
4730,19.6126022,0.0598547,9.2750902,9.8854961,-115.2595444,-250.1374054
4740,19.6126022,-0.9744351,10.1657286,18.8778629,-141.0305328,-250.1374054
4750,18.0713425,-1.8052188,10.6349897,35.2061081,-155.4809113,-250.1374054
4760,16.7497501,-2.0542145,10.3907824,54.8320618,-152.8931274,-250.1374054
4770,15.9141769,-2.3127871,9.1074963,72.1908417,-131.0915985,-250.1374054
4780,14.3196468,-2.7126167,7.0125809,81.5114517,-99.2748108,-250.1374054
4790,11.9422169,-3.5170643,4.9320302,79.7786255,-70.8167953,-250.1374054
4800,9.3995876,-4.0868812,3.7349355,70.0916061,-52.9771004,-250.1374054
4810,6.3853035,-4.5537481,3.6583214,56.8702278,-50.8854980,-250.1374054
4820,4.0366035,-4.9775200,4.4651632,47.9847336,-61.1221390,-250.1374054
4830,2.2696917,-5.5066357,5.4994531,47.7633591,-78.8320618,-250.1374054
4840,1.0630201,-5.9854736,6.3853035,55.5725174,-100.2213745,-250.1374054
4850,-0.0957676,-6.3637557,7.3980455,68.9007645,-125.9007645,-250.1374054
4860,-1.1947005,-7.0532823,8.0779953,86.6793900,-147.3053436,-250.1374054
4870,-2.5833304,-7.9511032,7.7619624,103.2442780,-157.7938995,-250.1374054
4880,-4.3693957,-8.9111729,6.6055689,108.8167953,-161.0381622,-250.1374054
4890,-6.2631998,-9.2655134,5.3965030,100.4961853,-157.2900696,-250.1374054
4900,-8.5281029,-9.5192976,4.6543045,82.9160309,-137.4809113,-250.1374054
4910,-12.5192165,-9.5360565,4.6183915,55.9465637,-109.7786255,-250.1374054
4920,-16.9149494,-9.3397331,5.7436604,31.2519093,-83.3587799,-250.1374054
4930,-19.6131992,-9.4139528,7.5464849,18.9770985,-58.0228996,-250.1374054
4940,-19.6131992,-9.1888990,8.5903521,20.1068707,-32.4961815,-190.7938995
4950,-19.6131992,-9.5552101,8.6071110,26.3587780,-8.0687027,-100.4961853
4960,-19.6131992,-10.4889441,7.9391322,29.7175579,12.9847326,-17.0076332
4970,-18.8255119,-11.2862091,7.2352405,28.0305347,29.7022896,57.9236641
4980,-15.7681322,-12.0164366,7.0604649,25.5038166,43.4427490,119.2671738
4990,-13.1249466,-12.8256731,7.5321202,28.1145039,56.5267181,169.4656525
5000,-11.4011297,-13.5104113,7.6278877,42.7404594,63.1984749,212.2519073
5010,-9.6318245,-13.8168669,7.0341287,65.9542007,53.9312973,247.4656525
5020,-8.2815018,-13.9940376,6.1171541,92.4656525,33.9160309,250.1297760
5030,-7.7978749,-14.6261034,4.5537481,119.7480927,11.1755724,250.1297760
5040,-8.4012108,-15.7034883,2.5617826,143.2290039,-12.2748089,250.1297760
5050,-9.2559366,-16.7425671,1.0654143,161.0000000,-26.4580154,250.1297760
5060,-10.3835993,-18.1695042,-0.3710994,169.0152740,-8.0839691,250.1297760
5070,-11.1760759,-19.6131992,-2.4779861,151.9770966,58.2671738,250.1297760
5080,-12.4378138,-19.6131992,-4.8697815,98.7557220,149.0381622,250.1297760
5090,-14.2980995,-19.6131992,-3.3279233,28.5648861,227.1755676,250.1297760
5100,-9.5192976,-19.6131992,-0.0694315,-27.6335869,250.1297760,250.1297760
5110,6.5696559,-19.6131992,1.5322813,-63.1679382,250.1297760,250.1297760
5120,19.6126022,-19.6131992,2.5641768,-102.0381699,250.1297760,250.1297760
5130,19.6126022,-19.6131992,5.7269011,-185.1832123,250.1297760,250.1297760
5140,19.6126022,-16.2206345,19.6126022,-250.1374054,250.1297760,250.1297760
5150,19.6126022,-5.6478930,19.6126022,-228.0915985,250.1297760,250.1297760
5160,19.6126022,-1.4221486,19.6126022,-40.9541969,190.6335907,250.1297760
5170,19.6126022,-0.3519458,19.6126022,164.5419922,-113.1832047,146.8091583
5180,19.6126022,1.5634058,10.6493549,246.1297760,-250.1374054,70.4122162
5190,19.6126022,3.6607156,-2.1547706,205.5572510,-250.1374054,79.9923630
5200,19.6126022,4.5681133,-4.4891052,120.1832047,-245.0305328,130.8167877
5210,19.6126022,5.4324160,-2.5857246,44.3587799,-51.4656487,174.3435059
5220,19.6126022,5.8274570,0.9792235,-0.7938932,84.2824402,190.6335907
5230,19.6126022,5.3510137,4.0964580,-3.2977099,112.2900772,184.9313049
5240,19.6126022,5.2648225,4.1730723,16.7175579,84.4961853,163.4580078
5250,19.6126022,6.0189924,2.2577207,37.3358765,44.2366409,126.9160309
5260,19.6126022,8.4706421,-0.7038917,38.4732819,19.2061062,80.0229034
5270,19.6126022,8.1522150,-1.9464760,17.1679382,23.8778629,8.8854961
5280,19.6126022,6.5289545,-2.9568241,-13.9541988,51.8778610,-40.0458031
5290,15.6077213,4.3286943,-1.9919657,-47.0076332,74.2061081,-55.9083977
5300,10.9462337,2.6024840,0.2585725,-67.0229034,79.7862625,-49.7862587
5310,8.4203644,1.6687500,3.0238612,-68.6793900,72.7251892,-35.0687027
5320,7.9319496,1.3886299,4.7955613,-57.1374054,59.5572510,-18.7175579
5330,9.0236998,1.4820032,5.7269011,-40.7404594,44.6335869,-8.8473282
5340,9.8832140,1.3215926,5.8777351,-25.1755733,33.5648842,-6.0229006
5350,10.1274214,1.5346755,5.4395986,-14.3358774,28.2290077,-4.6946564
5360,10.6852674,1.7022687,5.0756817,-8.5648851,26.9694653,-4.5725193
5370,11.1449518,1.5897418,4.7548604,-7.4351144,26.8244267,-8.1908398
5380,11.6716738,1.4245427,4.6710634,-8.6259546,28.6488552,-13.2213745
5390,11.7411051,1.3814473,4.6375451,-12.5648851,28.1526718,-19.0610695
5400,11.9302464,1.4269369,4.9679432,-16.4503822,22.9847336,-26.5954189
5410,12.1672707,1.3359578,5.2552457,-19.4885502,16.0305347,-35.1755714
5420,13.1153698,1.2689204,5.4731169,-21.3664131,9.6412210,-42.6564903
5430,14.8942528,1.6663558,5.8226686,-23.0229015,4.0305343,-51.5419846
5440,17.5541973,2.1356170,6.4092450,-23.0916023,9.3511448,-65.0763321
5450,19.0170460,2.5330524,6.8186517,-20.3587780,20.9541988,-84.7557220
5460,19.5724983,2.9424589,7.2472115,-15.3282442,34.0458031,-107.5648880
5470,19.6126022,3.4045374,7.4028339,-7.0610685,48.3969460,-131.1145020
5480,19.6126022,3.5146701,7.1059542,2.3358779,59.0763359,-154.4732819
5490,19.6126022,3.6655040,6.5864153,9.3129768,60.2290077,-176.1603088
5500,19.6126022,3.7397239,5.9735026,14.0610685,50.5801544,-197.1526642
5510,19.5533447,3.7828193,5.3390427,16.9847336,31.9389305,-220.5419922
5520,19.5940456,3.7852135,5.2528515,18.6412220,3.7862597,-248.2213745
5530,19.2875900,3.6535332,5.4659348,22.4198475,-34.4885483,-250.1374054
5540,19.1630917,3.2153964,5.5162125,27.1526718,-75.6488571,-250.1374054
5550,18.5789108,2.8299320,5.4587522,30.5267181,-111.2595444,-250.1374054
5560,18.0569763,2.1284344,5.1115947,31.1221371,-133.6412201,-250.1374054
5570,17.1687317,1.5203103,4.6088147,27.6870232,-139.6564941,-250.1374054
5580,15.7657375,0.7326220,3.9887197,19.4961834,-132.2977142,-250.1374054
5590,13.6780043,0.1508339,3.7516949,9.3206110,-120.1832047,-250.1374054
5600,11.3532467,-0.3591284,3.8402798,0.0687023,-110.7099228,-250.1374054
5610,9.0644016,-0.9624642,4.0461802,-6.0458016,-103.8396912,-250.1374054
5620,7.3836803,-1.3982066,4.4220681,-6.3129773,-99.6412201,-250.1374054
5630,6.1865854,-1.2234308,4.3095412,-3.4732823,-94.8702316,-250.1374054
5640,5.1906028,-1.4293311,4.2472920,0.6717557,-88.8091583,-250.1374054
5650,3.8378856,-1.2042773,3.6607156,2.8854961,-85.6106873,-250.1374054
5660,2.6383967,-1.0917504,3.3159523,-0.6717557,-89.4503784,-250.1374054
5670,1.7381816,-1.3311694,3.2177906,-6.3206105,-97.7404556,-250.1374054
5680,0.9121862,-1.5418580,3.5170643,-12.7251911,-103.6030502,-250.1374054
5690,-0.1412572,-1.5729824,3.8714044,-18.3511448,-103.5648880,-250.1374054
5700,-1.3479286,-1.7980363,4.4124913,-24.3511448,-97.4122162,-250.1374054
5710,-2.6671271,-2.1475880,5.1499014,-29.5572510,-91.5725174,-250.1374054
5720,-3.9216824,-2.7293761,5.9735026,-31.9847336,-89.5114517,-250.1374054
5730,-5.5640965,-3.4548154,7.2927012,-30.8167934,-97.6412201,-250.1374054
5740,-7.6518297,-4.1778607,8.9231443,-23.9618320,-113.4809189,-250.1374054
5750,-9.4642305,-5.1475072,10.3668404,-9.7175570,-126.0000000,-250.1374054
5760,-12.1864243,-6.0836353,11.9757357,12.4809160,-126.7633591,-250.1374054
5770,-15.9357252,-5.8130918,13.5295649,41.2442741,-125.0457993,-250.1374054
5780,-18.5382080,-5.7867560,14.1496601,73.8320618,-126.4122162,-238.8473358
5790,-19.6131992,-5.2863703,14.0562859,104.6106873,-123.3358765,-175.6641235
5800,-19.0745068,-4.7213416,13.0100250,128.4885559,-109.5496216,-109.2900772
5810,-17.4488525,-4.2233500,11.0587606,140.8473358,-85.6641235,-48.1755714
5820,-14.6596222,-4.8290801,8.5041609,137.0915985,-55.3282433,3.2213740
5830,-12.1912127,-4.8195033,7.0317345,126.8091583,-15.2442751,42.9083977
5840,-10.2902260,-5.1858144,6.0237808,111.0305328,28.1526718,77.8015289
5850,-8.8441362,-6.1051831,5.6167684,93.8473282,69.3053436,106.2213745
5860,-7.8936424,-7.1322904,5.6526814,77.9694672,100.1450348,131.3816833
5870,-7.3405848,-8.1713686,6.2368636,67.8702316,118.0687027,154.4427490
5880,-7.0484939,-9.3469152,6.8785062,69.2900772,129.7251892,178.4580078
5890,-6.8617468,-10.4578199,7.3334022,81.8931274,134.0305328,206.6106873
5900,-7.1921453,-11.9206696,7.1275020,103.1450348,131.2366486,242.4732819
5910,-7.7404146,-13.3763361,6.7707677,137.2977142,118.3587799,250.1297760
5920,-8.1139078,-14.7027178,5.7125359,173.9923706,108.8091583,250.1297760
5930,-8.8393478,-16.2685165,3.3015873,200.6488495,123.0839691,250.1297760
5940,-11.1569233,-17.9779682,0.6057299,202.4045868,161.3358765,250.1297760
5950,-12.3899307,-19.6131992,-2.0230901,174.4351196,209.8396912,250.1297760
5960,-10.6972389,-19.6131992,-3.1914546,126.3816757,250.1297760,250.1297760
5970,-6.2416520,-19.6131992,-2.2457497,79.1068726,250.1297760,250.1297760
5980,4.6399393,-19.6131992,-0.9888002,43.5419846,250.1297760,250.1297760
5990,19.6126022,-19.6131992,1.3958124,15.0152674,250.1297760,250.1297760
6000,19.6126022,-19.6131992,4.1850433,-13.9541988,250.1297760,250.1297760
6010,19.6126022,-19.6131992,7.6278877,-57.1679382,250.1297760,250.1297760
6020,19.6126022,-10.5033092,14.8798876,-84.9007645,250.1297760,250.1297760
6030,19.6126022,-3.1770895,18.4975071,-47.8854980,250.1297760,250.1297760
6040,19.6126022,-2.4109488,14.4992113,30.3587780,86.6412201,250.1297760
6050,19.6126022,-0.9433106,7.3381906,98.1603088,-217.2442780,138.3740387
6060,19.6126022,0.1795642,0.6344602,106.6946564,-250.1374054,69.4656525
6070,19.6126022,0.7733232,0.3351865,79.8244247,-250.1374054,59.2671738
6080,19.6126022,1.5993185,2.7652888,58.1908379,-250.1374054,72.9770966
6090,19.6126022,2.6096666,4.4555864,52.2900772,-184.8625946,90.5725174
6100,19.6126022,4.1371593,2.9185169,49.3511467,15.1679392,108.2977066
6110,19.6126022,5.3773494,-0.2729376,31.4427490,183.8396912,111.3816757
6120,19.6126022,6.0501165,-2.2840567,-0.6488550,250.1297760,91.8473282
6130,19.6126022,5.4755111,-2.7126167,-29.3969460,250.1297760,63.2290077
6140,18.8015690,4.8051381,-1.5394639,-42.5801544,250.1297760,38.0839691
6150,17.1376076,4.5298066,-0.6488253,-42.7022896,192.1450348,11.2671757
6160,15.3491488,4.1563129,-0.4405309,-39.4122124,121.6183243,-15.3816795
6170,13.9341822,3.7852135,-0.3998296,-39.5267181,55.8167953,-38.3664131
6180,12.8424320,3.5577655,0.1771700,-41.8473282,4.5190840,-54.7786255
6190,11.9278517,3.2465210,1.0342898,-43.3587799,-26.3969460,-65.3969498
6200,11.1736822,2.7485294,1.4963684,-45.3053436,-35.1068687,-67.0992355
6210,10.4314833,2.4277081,2.2481439,-46.0763359,-28.2213745,-62.0763359
6220,9.5695753,2.2481439,2.6096666,-42.9312973,-15.4351149,-53.6412201
6230,8.9327211,1.9440818,2.8035958,-38.2442741,-5.7786260,-41.8702278
6240,8.9470863,1.8985922,3.0286496,-33.4656487,-3.4580152,-28.6030540
6250,9.6868906,2.2888451,3.5481887,-26.6183205,-5.1755724,-17.3129768
6260,11.0970678,2.5019281,3.7109938,-18.3358784,-5.3740458,-11.4503813
6270,12.3635941,2.7700772,3.9097114,-10.9847326,-2.4503818,-9.5419846
6280,13.7163115,3.2273674,3.7301471,-6.0839696,2.6641221,-11.8167934
6290,15.1576138,3.5386121,3.7205703,-3.5725191,12.9694653,-18.0305347
6300,16.3020363,3.7516949,3.5362179,-4.8396945,25.6717548,-28.0381680
6310,16.7282009,3.9791429,3.5242469,-9.2442751,36.2137413,-40.4351158
6320,16.9556503,3.8043671,3.6200144,-13.4732828,38.9160309,-52.9236641
6330,17.4919491,3.8953462,4.0629396,-15.1603050,32.5877876,-66.4503784
6340,18.4352589,4.0820932,4.2999644,-14.7633591,23.6030540,-82.0457993
6350,19.4527893,4.6112089,4.6351509,-12.7557249,15.3969469,-100.8702316
6360,19.6126022,4.7404952,4.4436154,-10.1297712,10.3969469,-124.1297684
6370,19.6126022,4.7572546,4.1922259,-8.4656487,2.7938931,-150.0763397
6380,19.6126022,4.9990678,3.8378856,-9.5572519,-9.4274807,-178.1908417
6390,19.6126022,4.9487896,3.0837159,-16.2748089,-26.2366409,-209.4656525
6400,19.6126022,4.4771342,2.5522060,-22.2213745,-28.9083977,-241.3206177
6410,19.6126022,3.8570392,2.6048782,-27.6412220,-28.4580154,-250.1374054
6420,19.6126022,3.1387823,2.4324965,-33.1145020,-31.9160309,-250.1374054
6430,18.0761299,2.4061604,2.5905130,-39.5114517,-40.9771004,-250.1374054
6440,16.0937424,1.6112895,2.8131726,-43.9236641,-50.0687027,-250.1374054
6450,14.2214851,0.8427547,2.6479735,-46.8702278,-59.2442741,-250.1374054
6460,12.4066896,0.2896969,2.5569944,-49.2061081,-69.5114517,-250.1374054
6470,10.8241301,-0.1125269,2.6934631,-51.0839691,-79.3816757,-250.1374054
6480,9.8640604,-0.4022238,2.8921809,-51.0228996,-86.9160309,-250.1374054
6490,9.2128410,-0.4932030,3.1028695,-49.9541969,-86.8549652,-250.1374054
6500,8.8010406,-0.3136388,2.9759774,-48.9083977,-79.3053436,-250.1374054
6510,7.9582858,-0.5674229,3.2345500,-50.3664131,-66.0152664,-250.1374054
6520,6.4283986,-1.0390782,3.6200144,-51.8778610,-49.9465637,-250.1374054
6530,4.7165532,-1.3335636,4.5274124,-51.2671738,-42.6870232,-250.1374054
6540,3.6655040,-1.4628497,5.5760674,-46.2519073,-40.4961815,-250.1374054
6550,2.8802099,-1.8028246,5.9663200,-34.9541969,-30.7709923,-250.1374054
6560,1.8890154,-2.3582766,6.0189924,-20.5343513,-21.3282452,-250.1374054
6570,0.7062859,-2.7724714,5.7053533,-7.1145039,-15.0229006,-250.1374054
6580,-0.3639168,-3.2106080,5.2241216,2.7709923,-14.6106873,-250.1374054
6590,-1.3407460,-3.5960727,4.8649931,8.4732828,-15.9083967,-250.1374054
6600,-2.4564383,-3.9552009,4.4531922,10.8702288,-13.6564884,-250.1374054
6610,-3.6918402,-4.2736282,4.2879934,11.1374044,-8.7099237,-250.1374054
6620,-5.2887645,-4.4100971,4.2329268,8.5648851,-2.7633588,-250.1374054
6630,-7.4004397,-4.4747400,4.3957319,4.7251906,1.0381680,-250.1374054
6640,-9.5647869,-4.4962878,5.1139889,3.0916030,1.0076336,-250.1374054
6650,-11.4705620,-4.4484038,5.9543490,7.5877862,0.6564885,-250.1374054
6660,-12.8974981,-4.0437860,6.6319046,18.2137413,3.4580152,-237.6564941
6670,-14.0658627,-3.6535332,6.9479380,32.4198456,7.7480917,-187.7862549
6680,-14.8894644,-3.1866663,6.6438756,47.0992355,9.9770994,-135.1755676
6690,-15.1049414,-2.9089401,6.2799587,59.3969460,9.2213745,-81.7557220
6700,-14.7960911,-2.7054341,5.7771792,70.5343475,10.7328243,-27.6793900
6710,-13.9820662,-2.7724714,5.0493455,79.9465637,15.2671757,24.0229015
6720,-12.9214401,-2.7796540,4.2472920,87.0839691,21.7633591,74.5343475
6730,-12.2582502,-3.0813217,3.3303175,92.0000000,29.1755733,121.7328262
6740,-12.0523500,-3.8187323,2.4731977,95.2213745,35.5648842,171.0763397
6750,-12.7873659,-4.8410511,1.8626794,94.6335907,39.5877876,225.8320618
6760,-13.8934813,-6.3326311,1.6424140,93.5725174,35.1068687,250.1297760
6770,-15.0067797,-8.4299412,2.1164634,95.2442780,31.9389305,250.1297760
6780,-16.2038746,-10.8073711,3.4260850,102.1297684,36.9083977,250.1297760
6790,-17.2597122,-14.2478218,4.9463954,111.1984711,57.5954208,250.1297760
6800,-18.1096497,-19.6131992,6.4044566,120.8778610,90.6641235,250.1297760
6810,-15.3683023,-19.6131992,6.9527264,136.0534363,101.4045792,250.1297760
6820,-5.2959471,-19.6131992,6.6079631,156.9084015,97.6183243,250.1297760
6830,9.2990322,-19.6131992,3.5314295,178.7328186,113.9465637,250.1297760
6840,19.6126022,-19.6131992,-1.3215926,169.7786255,213.5114441,250.1297760
6850,19.6126022,-19.6131992,-7.0365229,92.8320618,250.1297760,250.1297760
6860,19.6126022,-17.2477417,-6.9790621,-29.1526718,250.1297760,250.1297760
6870,19.6126022,-14.4393568,2.1380112,-114.3206100,250.1297760,250.1297760
6880,19.6126022,-11.9063044,14.0443153,-83.8854980,215.2442780,250.1297760
6890,19.6126022,-7.9487090,19.4767303,47.7251892,-87.6030502,250.1297760
6900,19.6126022,-3.3949606,12.7131462,181.0686951,-250.1374054,250.1297760
6910,19.6126022,0.3950413,1.8794388,221.2595367,-250.1374054,192.5801544
6920,19.6126022,2.6695213,-6.0788469,169.9313049,-174.5801544,127.2061081
6930,19.6126022,3.6032550,-8.8752604,75.9160309,1.8778626,93.2442780
6940,19.6126022,3.6942344,-6.9431496,-8.0916033,158.6030579,82.4503784
6950,19.6126022,3.7995787,-2.8993635,-50.3740463,226.5114441,78.1755753
6960,19.5701046,3.7133877,0.1843526,-53.6870232,214.6717529,71.0839691
6970,17.7768574,3.8426740,1.5873476,-34.1908379,155.6564941,61.3587799
6980,18.1934452,4.3167233,1.0893562,-12.0534353,88.9465637,47.1908379
6990,18.9547977,5.1546898,-0.3495516,-0.7175573,40.2748108,25.7862587
7000,19.0481720,5.4036856,-1.3694763,-3.7251909,17.4274807,2.8931298
7010,18.4999027,5.2624283,-1.8243724,-15.0076332,14.7938929,-17.9618320
7020,17.1854916,4.9416070,-1.3886299,-27.6259537,20.4503822,-33.3511467
7030,15.4616756,4.3717899,-0.7110743,-36.4503822,26.8167934,-41.7938919
7040,13.5032282,3.8211265,-0.0861908,-39.6488533,28.2061062,-43.8931313
7050,12.2319136,3.3662305,0.4070122,-39.7709923,24.6564884,-42.4885483
7060,11.4274664,2.7557120,0.7014975,-39.0916023,14.9083967,-39.1755714
7070,11.0228481,2.6240315,1.3024391,-37.8625946,2.9389312,-34.8549614
7080,11.1760759,2.7006457,1.9273225,-34.4809151,-6.5038166,-30.9083977
7090,11.4657736,2.5306582,2.4277081,-29.2671757,-14.1374044,-29.2824421
7100,11.8727856,2.6048782,2.6767037,-23.5496178,-20.1297703,-29.0381680
7110,12.7658186,2.8490853,2.7126167,-18.8778629,-21.6183205,-30.2748089
7120,13.9389706,3.0094962,2.5689652,-16.4885502,-16.6030540,-35.0000000
7130,14.6787758,3.2369442,2.6120608,-17.3206100,-8.8396950,-43.3129768
7140,15.0259333,3.2800395,2.6144550,-18.7022896,-2.6335878,-52.6946564
7150,15.5406837,3.2728570,2.5402350,-20.0916023,4.4427481,-62.0763359
7160,15.9931860,3.5457945,2.6096666,-21.5038166,10.7709923,-71.5190811
7170,16.4097748,3.6343796,2.6695213,-22.3969460,13.2442751,-82.7328262
7180,16.7305965,4.0294209,2.5761478,-23.2061062,8.1984730,-96.0916061
7190,17.2692890,4.3717899,2.5378408,-25.1526718,2.2977099,-111.5648880
7200,17.7074261,4.7117648,2.5378408,-28.1679382,-2.0458016,-128.9618378
7210,18.5956688,5.2696109,2.3367288,-31.5572510,-8.1908398,-151.2366486
7220,19.1702747,5.4491754,2.1547706,-36.8396950,-15.9541988,-179.6870270
7230,19.5916519,5.4970589,2.0853391,-44.0839691,-24.6335869,-210.8396912
7240,19.6126022,5.6024032,2.4013720,-50.5038185,-30.1297703,-246.6488495
7250,19.6126022,5.1331420,2.6024840,-55.5954208,-37.3129768,-250.1374054
7260,19.6126022,4.2377152,3.1579359,-60.4809151,-51.8854980,-250.1374054
7270,18.4903259,2.8131726,3.4045374,-63.4427490,-64.5419846,-250.1374054
7280,16.8048153,1.5466464,3.7900019,-63.0610695,-79.4503784,-250.1374054
7290,14.8750992,0.3495516,4.0102673,-61.4580154,-94.9160309,-250.1374054
7300,12.4928808,-0.6296718,3.8522508,-60.9312973,-106.8778610,-250.1374054
7310,9.8544836,-1.4413021,4.1323709,-62.5114517,-118.5572510,-250.1374054
7320,7.4148049,-2.0278785,4.8458395,-63.0839691,-129.5648804,-250.1374054
7330,5.7963328,-1.9512644,5.7197185,-59.6183205,-140.3740387,-250.1374054
7340,4.4699516,-1.9560528,6.4188218,-51.6335869,-144.0458069,-250.1374054
7350,2.9520357,-2.0183017,6.6247220,-41.4809151,-139.5954132,-250.1374054
7360,1.5203103,-2.1140692,6.1602492,-34.4045792,-129.8625946,-250.1374054
7370,0.1556223,-2.2936335,5.9854736,-30.8244267,-117.7709961,-250.1374054
7380,-1.0007712,-2.3702476,5.9926562,-28.9389305,-106.8244247,-250.1374054
7390,-2.3750360,-2.5091105,6.1937680,-26.2748089,-95.3282471,-250.1374054
7400,-3.6104376,-2.1787124,6.1554613,-23.1526718,-83.5877838,-250.1374054
7410,-4.8458395,-1.7214222,5.9711084,-19.7633591,-72.6564865,-250.1374054
7420,-6.1051831,-1.3168042,5.9112539,-17.5267181,-59.9389305,-250.1374054
7430,-7.0556765,-0.8116302,5.7676024,-14.8778629,-55.0000000,-250.1374054
7440,-7.3262196,-0.4812321,5.5186067,-10.5496187,-60.6717567,-250.1374054
7450,-7.1514440,-0.1963235,5.2336984,-4.4656487,-77.0000000,-237.2213745
7460,-6.0764527,0.0550664,4.5322008,1.2595420,-99.0076370,-216.8320618
7470,-5.3653784,0.0861908,3.9719603,3.7251909,-116.0839691,-198.4503784
7480,-5.1475072,0.0742199,3.6870518,2.4274809,-120.2366409,-178.7709961
7490,-5.6311336,-0.3112446,3.9456241,-2.6183207,-107.9465637,-154.0534363
7500,-6.1937680,-0.7110743,4.7620430,-6.2824426,-85.8244247,-125.7099228
7510,-6.5121951,-1.1444225,5.9016771,-3.5419848,-55.9771004,-96.5954208
7520,-7.6254935,-1.5466464,7.1275020,7.9007635,-23.9923668,-68.2061081
7530,-9.1003141,-2.2696917,7.9295554,28.4503822,-3.0839694,-35.6793900
7540,-10.5487986,-2.9400647,8.2886839,56.9541969,5.0992365,3.8091602
7550,-11.4154949,-3.5003049,7.9678626,89.7251892,6.0916033,47.2061081
7560,-12.1505117,-4.1395535,7.3405848,121.3893127,5.2977099,97.1679382
7570,-12.9190464,-4.5034704,6.2584114,148.8931274,14.2671757,158.1984711
7580,-13.9509420,-4.8793583,4.4436154,167.9007568,32.6106873,229.5267181
7590,-15.4927998,-5.6646523,2.6407909,179.7938995,53.6946564,250.1297760
7600,-16.2349987,-6.7276726,0.9002152,184.9541931,80.6259537,250.1297760
7610,-15.2414103,-8.9446917,-0.5913648,180.8320618,114.1450348,250.1297760
7620,-13.1441002,-12.1409349,0.0263361,171.4809113,149.3206177,250.1297760
7630,-9.3612804,-17.0178986,1.9536586,169.1755676,171.8244324,250.1297760
7640,-2.9304879,-19.6131992,1.6519908,179.3969421,171.1145020,250.1297760
7650,12.0738974,-19.6131992,-3.1244173,194.8091583,170.3587799,250.1297760
7660,19.6126022,-19.6131992,-8.1402445,178.8320618,249.5038147,250.1297760
7670,19.6126022,-15.7489786,-9.3780403,106.8778610,250.1297760,250.1297760
7680,19.6126022,-6.7659793,-5.0062504,12.7251911,250.1297760,250.1297760
7690,19.6126022,-0.6177009,2.9687948,-42.5343513,250.1297760,250.1297760
7700,19.6126022,2.2122312,9.7036495,-11.0992365,243.3282471,250.1297760
7710,19.6126022,3.1962428,8.8728657,86.0381699,15.4122133,199.8625946
7720,19.6126022,3.6655040,2.7389526,166.3893127,-227.5725250,61.2595406
7730,19.6126022,3.7325413,-2.7221935,191.4732819,-250.1374054,-20.3664131
7740,19.1487274,4.5944495,-4.4603748,173.3587799,-250.1374054,-47.2061081
7750,17.0418396,5.5593081,-4.4292507,143.3435059,-250.1374054,-39.1908379
7760,15.2821112,6.0429344,-4.6806402,111.1374054,-161.0076294,-8.1374044
7770,13.8839045,6.1937680,-5.2241216,77.3358765,-7.0458016,32.1755714
7780,12.6820211,6.3182659,-5.9495606,41.4198456,117.6106873,70.6335907
7790,11.7842007,6.0668759,-5.2360926,12.8778629,188.9007568,98.5725174
7800,11.5663290,5.6071916,-4.2065907,-2.0076337,219.2595367,117.8931274
7810,11.9302464,5.2624283,-3.3470769,-4.6259542,213.1374054,127.4427490
7820,13.0698805,5.3270717,-2.8371146,0.5954198,177.4274750,125.8854980
7830,14.5494890,5.7987270,-2.5689652,9.0000000,120.9618301,109.7404556
7840,15.7034883,5.9687142,-2.4181314,15.9847326,62.8015251,82.6488571
7850,16.0195217,6.2081332,-2.3678534,18.7786255,14.2824430,51.0763359
7860,15.5263186,6.0549049,-2.1954718,16.7328243,-15.0992365,22.5038166
7870,14.4728756,5.4755111,-1.9680238,11.9389315,-24.3358784,1.9083970
7880,13.1273403,4.7428894,-1.7405758,4.8854961,-20.0610695,-7.9236641
7890,11.9278517,4.3071470,-1.5250987,-2.9389312,-6.3740458,-6.6335878
7900,11.2215662,3.9384418,-1.2377959,-9.4122133,12.6488552,1.1450381
7910,10.8169479,3.7540891,-0.8978211,-14.5725193,33.5725174,12.6030531
7920,10.9582052,3.7780309,-0.5051740,-17.4122143,53.9541969,24.6106873
7930,11.4538021,4.0916696,-0.1077385,-17.7633591,76.6564865,34.7480927
7940,11.9374285,4.1874375,-0.1149211,-17.2977104,98.8702316,40.4427490
7950,12.4162664,4.2472920,-0.3758878,-18.3358784,108.1832047,42.1221390
7960,12.9358053,4.4507980,-0.4453192,-21.5190830,110.5267181,40.8931313
7970,13.9653072,4.6710634,-0.1292862,-24.6030540,104.2519073,35.6106873
7980,15.2390156,4.8985114,0.2513899,-25.2137413,96.3740463,25.2671757
7990,16.4025917,5.1283536,0.4860204,-24.3587780,85.0305328,10.2748089
8000,17.5446205,5.4060798,0.6344602,-21.5648861,69.0763321,-9.5038166
8010,18.5932751,5.7460546,0.5482694,-18.7480907,49.7404594,-33.6412201
8020,19.3977222,6.0429344,0.2657550,-16.8167934,29.0534344,-62.6641235
8030,19.6126022,6.0501165,-0.1675933,-18.5725193,11.9083967,-92.3969498
8040,19.6126022,6.0549049,-0.4932030,-23.8549614,-1.3969465,-120.5343475
8050,19.6126022,5.9471664,-0.4596844,-30.5038166,-6.6793895,-146.3587799
8060,19.1942177,5.5664907,-0.3375807,-38.2366409,-4.9694657,-171.1679382
8070,18.5573616,5.1259594,-0.2130829,-46.4274826,-2.6412213,-193.6793823
8080,18.1072540,4.9056940,0.1771700,-53.0076332,0.0916031,-214.3358765
8090,17.6858768,4.3765783,0.4070122,-57.4198456,4.3435116,-235.2900696
8100,17.5446205,3.9599893,0.9959828,-60.1603050,6.8778625,-250.1374054
8110,17.3435078,3.5050933,1.2641320,-61.5725174,13.2442751,-250.1374054
8120,16.9101601,2.8706331,1.6232605,-61.4045792,23.2213745,-250.1374054
8130,15.7513723,2.1523764,1.6400198,-61.1068687,34.2290077,-250.1374054
8140,13.9054527,1.2282192,1.4796091,-61.8167953,44.5725174,-250.1374054
8150,11.4561968,0.4046180,1.1611819,-63.9694672,51.4885483,-250.1374054
8160,9.4283180,-0.3734936,0.8475431,-68.2061081,50.1679382,-250.1374054
8170,7.6183109,-0.9337339,1.2258250,-72.1374054,44.0534363,-250.1374054
8180,5.9351954,-1.2401901,1.9488702,-74.8091583,30.4274807,-250.1374054
8190,4.5489597,-1.4173602,3.0501974,-74.1832047,12.1450386,-250.1374054
8200,3.3159523,-1.6328372,4.5848727,-67.6335907,-6.9389315,-250.1374054
8210,2.0781565,-1.6112895,5.6454988,-55.7862587,-25.1297703,-250.1374054
8220,1.1013272,-1.4987626,6.3254485,-40.1755714,-38.7938919,-250.1374054
8230,0.1364688,-1.3646880,6.4355812,-25.0687027,-49.2366409,-250.1374054
8240,-0.7972651,-1.0773853,6.3685441,-11.6259546,-53.2061081,-250.1374054
8250,-1.5131277,-0.9433106,6.4236102,0.3435115,-51.0381660,-250.1374054
8260,-2.2265961,-0.8020535,6.0070214,11.2900763,-49.0458031,-250.1374054
8270,-2.9065459,-0.6919208,5.6263452,20.5267181,-45.6564903,-250.1374054
8280,-3.7325413,-0.6296718,5.1355362,28.4351139,-41.9312973,-250.1374054
8290,-4.4029145,-0.7230452,4.6590929,34.3511467,-39.9083977,-250.1374054
8300,-5.2480631,-0.9840119,4.3765783,39.3816795,-36.0305328,-250.1374054
8310,-6.0261750,-0.9816177,4.1563129,43.1450386,-31.2595425,-250.1374054
8320,-6.8090749,-0.9528874,3.8737986,45.5496178,-27.7175579,-250.1374054
8330,-7.7691450,-0.9361281,3.6415622,46.0076332,-23.4427490,-247.7633514
8340,-8.7699156,-0.7924767,3.6271970,45.9771004,-22.2595425,-225.0534363
8350,-9.2008705,-0.4429250,3.7564833,45.0534363,-18.6641216,-198.5267181
8360,-9.6270361,-0.1197095,3.1292057,43.4656487,-8.8702288,-169.7251892
8370,-10.3692341,0.2705434,2.5546002,37.5954208,4.9236641,-137.6106873
8380,-11.2862091,0.6488253,2.6551561,29.0916023,14.1984730,-99.7099228
8390,-11.6836443,0.7757174,2.9496415,23.4351139,27.8778629,-54.8015251
8400,-12.1098099,0.7948709,3.0861101,20.4274807,47.5954208,-6.9312978
8410,-12.7921543,0.8355721,3.1220231,18.0610695,66.1526718,45.2900772
8420,-13.2278967,0.8020535,3.4260850,19.1450386,76.2213745,99.0839691
8430,-13.4218264,0.5003856,3.7014170,23.8473282,83.7328262,156.9541931
8440,-13.7091284,-0.2226596,3.6295912,29.5725193,91.9465637,217.4656525
8450,-13.6827927,-0.9313397,3.4236910,33.4656487,99.2137375,250.1297760
8460,-13.5128050,-1.7597293,3.0525916,31.6259537,109.6641235,250.1297760
8470,-13.5151997,-3.6798692,3.6152260,27.1068707,122.2442780,250.1297760
8480,-13.6851873,-6.0572991,4.4531922,22.3969460,128.9084015,250.1297760
8490,-11.6860390,-9.2272062,4.0318151,21.4885502,106.6488571,250.1297760
8500,-8.3269911,-13.4218264,3.7684543,24.4885502,64.0076370,250.1297760
8510,-2.1954718,-18.4448357,3.8618276,43.7404594,11.8015270,250.1297760
8520,6.5624733,-19.6131992,3.0262554,73.4122162,-4.8702292,250.1297760
8530,16.1559906,-19.6131992,0.9792235,100.2290039,11.5190840,250.1297760
8540,19.6126022,-19.6131992,-1.8554969,108.8015289,71.5954208,250.1297760
8550,19.6126022,-18.8805771,-5.1762376,84.1832047,221.3511505,250.1297760
8560,19.6126022,-5.8753409,-7.1514440,-8.8549614,250.1297760,250.1297760
8570,19.6126022,2.9496415,-3.1363883,-147.5877838,250.1297760,250.1297760
8580,19.6126022,3.5314295,7.5536675,-223.2290039,250.1297760,250.1297760
8590,19.6126022,3.3207407,19.6126022,-182.0152740,250.1297760,209.7404633
8600,19.6126022,2.2122312,19.6126022,-61.3893127,147.6870270,73.0000000
8610,19.6126022,1.1061156,17.8630466,59.7404594,-36.0076332,-23.6412220
8620,17.7577038,1.3766589,11.1257982,133.1908417,-198.5038147,-64.0381699
8630,13.4625273,2.6048782,5.3677726,159.3893127,-250.1374054,-68.3053436
8640,12.0044661,3.7636659,1.6974803,153.8396912,-250.1374054,-50.0992355
8650,11.6309719,4.6782460,-1.0510491,125.6564865,-206.1068726,-19.7099228
8660,11.4538021,4.9248476,-2.4827745,86.2442780,-104.7480927,11.3816795
8670,11.1569233,4.8745699,-2.7461352,40.2519073,-4.5343513,39.9618340
8680,11.2311430,4.5250182,-1.9584470,2.3893130,71.6870193,63.1755714
8690,11.9206696,4.2592630,-0.7709290,-20.9618320,114.7175598,75.9007645
8700,12.6700506,4.2855992,0.2274480,-31.9847336,128.8091583,76.6717529
8710,13.3428183,4.2784166,1.0845678,-34.5954208,122.2824402,66.6412201
8720,13.5128050,3.9599893,1.7118455,-32.0458031,104.3740463,49.5114517
8730,13.2063494,3.5122759,2.0374553,-27.3358784,84.8015289,32.8167953
8740,12.7945480,3.2369442,2.1858950,-22.9160309,67.3435135,19.3740463
8750,12.5000629,2.9687948,2.2313845,-20.4427490,54.0839691,9.7404585
8760,12.2367020,2.7389526,2.2792683,-20.0381680,43.8473282,3.0534351
8770,12.3252869,2.5929072,2.3917952,-20.9694653,36.3282433,-1.7328244
8780,12.6652622,2.6695213,2.7461352,-22.2748089,28.9923668,-5.9618320
8790,13.0196018,2.8586621,3.1818779,-23.3129768,22.4503822,-10.9770994
8800,13.7833490,3.0837159,3.5170643,-22.1832066,18.8320618,-16.8015270
8810,14.5207586,3.3446827,3.6367738,-19.8854961,18.3282452,-23.4351139
8820,15.5670195,3.7181761,3.4021432,-17.6870232,22.6412220,-31.2137413
8830,16.6659527,4.1347651,3.1100521,-17.6717548,31.3282452,-40.0610695
8840,17.3411140,4.7021880,2.9256995,-19.8167934,43.0992355,-49.5114517
8850,17.9755745,5.0708933,2.7533178,-24.4274807,52.8167953,-61.2671738
8860,18.7417145,5.3462253,2.8826041,-32.1908379,55.9389305,-77.0992355
8870,19.4144821,5.6431046,3.1818779,-40.3206100,54.7022896,-98.1145020
8880,19.6126022,5.2983413,3.7828193,-46.1755714,50.5038185,-123.1526718
8890,19.6126022,5.0541339,4.4005203,-48.1679382,41.5648842,-151.7938995
8900,19.6126022,4.5992379,4.7668314,-46.2519073,29.5038166,-181.5419922
8910,19.3929348,3.9001346,4.9942794,-42.9771004,18.6030540,-212.6030579
8920,18.4639893,3.2608860,5.0062504,-40.1374054,7.4732823,-241.2977142
8930,17.1184540,2.6240315,5.2193332,-37.7633591,-5.6106873,-250.1374054
8940,15.9620609,1.9943599,5.2767935,-34.3053436,-20.5648861,-250.1374054
8950,15.4233685,1.4029950,5.1211715,-30.7862587,-35.1908379,-250.1374054
8960,14.2310619,0.6919208,4.8386569,-28.5725193,-48.9007645,-250.1374054
8970,12.9573536,0.0407012,4.6327567,-28.6030540,-61.2977104,-250.1374054
8980,11.3843708,-0.4764437,4.5776901,-31.1450386,-73.9465637,-250.1374054
8990,9.7922344,-1.0175306,4.8769641,-33.9312973,-83.4351120,-250.1374054
9000,8.3293848,-1.5993185,5.2193332,-35.7862587,-89.3969498,-250.1374054
9010,6.6893654,-2.0350611,5.7364779,-35.0916023,-92.2748108,-250.1374054
9020,5.0206151,-2.3343346,5.9711084,-32.3511467,-94.6030502,-250.1374054
9030,3.4835455,-2.4755919,6.2823529,-28.9847336,-96.5877838,-250.1374054
9040,2.1835008,-2.2864509,6.4499464,-24.3740463,-96.2748108,-250.1374054
9050,1.2114599,-2.2146254,6.5912037,-20.2519093,-94.8091583,-250.1374054
9060,0.1556223,-1.9823889,6.7348547,-16.2977104,-90.9694672,-250.1374054
9070,-0.6584021,-1.7764885,6.6534524,-10.9160309,-82.4809189,-250.1374054
9080,-1.3766589,-1.4245427,6.4164276,-5.7251906,-70.3129807,-250.1374054
9090,-2.3750360,-1.3407460,6.1027889,-1.0610687,-57.6793900,-250.1374054
9100,-3.2058196,-1.2689204,5.8035154,2.2900763,-46.8091621,-250.1374054
9110,-4.1994085,-1.2761030,5.4755111,4.2824426,-34.4885483,-250.1374054
9120,-5.2791877,-1.3646880,4.9727316,4.6946564,-18.0916023,-250.1374054
9130,-6.3230543,-1.3622938,4.3215117,2.0381680,-0.9770992,-250.1374054
9140,-7.3214312,-1.3168042,3.8498566,-3.2824428,13.7938929,-250.1374054
9150,-8.2815018,-1.1396341,3.4763632,-9.1145039,22.7786255,-250.1374054
9160,-8.9662399,-0.8068419,2.9472473,-15.4961834,26.4732819,-226.2671814
9170,-8.8489246,-0.5027798,2.0781565,-25.3740463,22.6564884,-198.7709961
9180,-8.4131813,-0.4237715,1.2665262,-38.8015251,10.0458012,-175.4274750
9190,-8.1713686,-0.2777260,1.7046629,-51.2977104,-13.4961834,-153.3282471
9200,-7.6853480,-0.2298422,2.6096666,-57.8931313,-40.8320618,-132.3282471
9210,-7.3501616,-0.4525018,3.3614421,-60.1755714,-60.7404594,-110.5114517
9220,-7.2232695,-0.9241571,4.1180058,-60.0763359,-70.9542007,-87.0839691
9230,-7.4124107,-1.5801650,4.7333126,-59.4809151,-69.2366409,-60.1450386
9240,-7.8385763,-1.9823889,5.4946647,-58.2977104,-63.9618340,-31.0916023
9250,-8.4155760,-2.2888451,6.8018923,-52.2977104,-52.5496178,1.6030535
9260,-9.6485834,-2.8754215,8.2838955,-37.7099228,-34.9312973,40.7862587
9270,-10.9366570,-3.0717452,9.3181858,-14.3893127,-14.2977095,89.3129807
9280,-12.1074162,-3.2560976,9.3157911,10.3587790,5.3740458,145.9007568
9290,-13.5487185,-3.3614421,8.5568333,32.1984749,22.5954189,211.2748108
9300,-14.7362356,-3.8474624,7.3884687,49.7404594,31.8396950,250.1297760
9310,-15.8375635,-5.6287394,6.6342988,58.5801544,47.0381660,250.1297760
9320,-16.0578289,-6.8761120,6.3278427,59.3587799,73.1068726,250.1297760
9330,-15.7561607,-8.7555504,5.7676024,46.7786255,106.2900772,250.1297760
9340,-14.3795023,-12.7825775,6.5959921,29.5496178,131.8320618,250.1297760
9350,-11.2957859,-18.8063583,7.7140784,23.0534344,141.9923706,250.1297760
9360,-3.4189026,-19.6131992,8.3844519,27.4045811,153.4274750,250.1297760
9370,7.8481531,-19.6131992,6.4810710,23.6412220,186.3511505,250.1297760
9380,19.6126022,-19.6131992,3.7181761,-3.7175572,212.6946564,250.1297760
9390,19.6126022,-19.6131992,0.7445929,-59.9465637,230.5190887,250.1297760
9400,19.6126022,-19.6131992,1.7046629,-130.1603088,218.0076294,250.1297760
9410,19.6126022,-6.7659793,11.0204544,-172.6793823,177.2213745,250.1297760
9420,19.6126022,4.6327567,19.6126022,-153.3435059,123.0763321,250.1297760
9430,19.6126022,6.9048424,19.6126022,-77.7633591,35.1526718,127.6564865
9440,19.6126022,3.6607156,19.6126022,29.2595425,-40.2366409,-37.7099228
9450,19.6126022,0.6679789,18.8159351,114.8320618,-119.3587799,-102.3129807
9460,10.7139978,-0.0790083,11.3125448,160.3053436,-185.6564941,-91.5954208
9470,5.7316895,1.3527170,5.3438311,169.1603088,-209.1221313,-36.8702278
9480,6.2153158,3.1435707,0.6895266,142.0763397,-170.1221313,27.4503822
9490,8.9470863,4.3550305,-2.1954718,87.8015289,-85.6183243,81.8167953
9500,11.6190014,5.0110383,-1.9895715,24.9694653,9.5877867,113.2671738
9510,12.7706070,4.9463954,0.5817881,-20.6259537,79.6030502,125.1526718
9520,12.9932661,4.3119354,3.6678982,-36.4656487,104.0534363,122.9236679
9530,13.3978844,3.9288650,5.4060798,-31.1679382,94.9312973,111.3893127
9540,13.8336267,4.0126615,6.2943239,-13.3587790,66.8473282,91.6412201
9550,11.9829178,3.4428444,4.9176650,23.6564884,21.5419846,47.7557259
9560,10.6182299,3.2393384,3.6295912,29.1603050,10.1374044,38.0839691
9570,9.8592720,2.9879484,2.5665710,25.1526718,5.0305343,33.7786255
9580,9.3253679,2.6838863,2.1691356,14.6793890,2.8625953,32.3893127
9590,8.8848372,2.4205256,2.4085546,2.4580152,0.3358779,33.9007645
9600,9.1194677,1.9225341,4.3598189,-8.7404585,-10.0000000,41.1374054
9610,9.6725254,1.8890154,5.2241216,-4.4274807,-17.1984730,42.6030540
9620,10.9294748,1.9033806,5.6143742,3.7786260,-21.5648861,42.1297722
9630,12.3228931,2.2672975,5.4372044,11.1450386,-17.2290077,38.9771004
9640,13.5056229,2.7652888,5.1379304,13.1145039,-7.9618320,31.4274807
9650,15.3060532,3.2082138,4.6519103,3.4732823,12.9923668,5.4351144
9660,15.8375635,3.3662305,4.7955613,-4.3587785,20.0381680,-8.7251911
9670,16.3762550,3.3255291,4.9870968,-12.8854961,19.9160309,-22.8244267
9680,17.2644997,3.2489152,5.4132624,-19.9618320,13.1984730,-37.2900772
9690,18.3921642,3.4811516,6.2464404,-23.8625946,1.3664122,-53.5725174
9700,19.6126022,3.9384418,7.0437055,-23.4809170,-13.8778629,-74.8473282
9710,19.6126022,4.2113791,7.6207051,-19.9770985,-32.2824440,-103.9847336
9720,19.6126022,4.3406653,7.9702568,-14.4351149,-52.9541969,-142.2213745
9730,19.6126022,4.3263001,8.2000990,-9.8625956,-75.9770966,-186.5572510
9740,19.6126022,4.0270267,7.9750452,-7.2595420,-91.2824402,-232.3664093
9750,19.6126022,3.5505829,7.5632443,-9.2290077,-95.0763321,-250.1374054
9760,19.6126022,2.8969693,6.9359670,-17.3282452,-91.7862625,-250.1374054
9770,19.6126022,1.8985922,6.7204900,-27.6946564,-79.9770966,-250.1374054
9780,18.8231182,0.5650287,6.7276726,-37.4351158,-60.1603050,-250.1374054
9790,16.6276455,-0.8595140,6.5457139,-43.9771004,-39.7328262,-250.1374054
9800,14.2765512,-2.0518203,6.5361371,-46.6793900,-27.2900772,-250.1374054
9810,11.9901009,-2.9879484,6.8593526,-45.8778610,-28.9160309,-250.1374054
9820,10.1537571,-3.7109938,7.4267755,-40.2366409,-38.3816795,-250.1374054
9830,8.4706421,-4.3693957,7.7954807,-30.5190830,-48.1908379,-250.1374054
9840,6.7994981,-4.7381010,7.9511032,-18.7709923,-57.6488533,-250.1374054
9850,5.0900469,-4.9535780,8.0205345,-6.9389315,-62.2748108,-250.1374054
9860,3.3398943,-5.1259594,7.8218169,5.1374044,-63.2366409,-250.1374054
9870,1.7860653,-5.1211715,7.4770536,16.2671757,-60.1603050,-250.1374054
9880,0.3806761,-4.9655490,6.9982157,26.5343513,-56.1450386,-250.1374054
9890,-0.8379663,-4.7524662,6.5792327,36.3129768,-52.6106873,-250.1374054
9900,-2.0685797,-4.3885493,6.3158717,44.8854980,-51.9847336,-250.1374054
9910,-3.1890604,-3.8546450,6.0213866,53.0839691,-55.1068687,-250.1374054
9920,-4.0270267,-3.4189026,5.6957769,60.9007645,-57.1908379,-250.1374054
9930,-4.9775200,-3.1196289,5.3174949,66.3282471,-57.1221390,-250.1374054
9940,-6.1458845,-2.6599445,4.9296360,70.1297684,-56.5267181,-250.1374054
9950,-6.8569584,-2.1906834,4.8889351,73.5343475,-55.0992355,-250.1374054
9960,-7.5249376,-1.8124014,4.7093706,75.4503784,-49.8702278,-250.1374054
9970,-7.9199786,-1.2066715,4.3334827,75.7328262,-41.4656487,-240.9465637
9980,-8.2527714,-0.7613522,4.1467361,74.3816757,-30.9160309,-208.7404633
9990,-8.6861191,-0.4908088,4.0006905,73.0000000,-16.9007626,-175.8396912
