timestamp,acclX,acclY,acclZ,gyroX,gyroY,gyroZ
0,-3.5434003,3.6846576,8.8920193,82.6030502,-79.7175598,-25.3129768
10,-3.2345500,3.8259149,9.4187412,81.7099228,-90.8320618,-29.7862587
20,-3.1914546,3.8594334,9.6366129,80.4045792,-91.1755753,-35.0381660
30,-3.2632802,3.4356618,9.9023676,74.6793900,-86.2748108,-39.8244286
40,-2.9065459,2.9280937,9.3349447,63.4427490,-71.5801544,-50.3358765
50,-2.1260402,2.9041519,8.1091194,43.9236641,-67.2595444,-64.7175598
60,-2.2553265,2.8395088,7.6398587,22.6564884,-59.8854980,-77.5343475
70,-3.4835455,2.6743097,7.0365229,4.7480917,-62.3969460,-82.2824402
80,-5.3366485,3.0789278,7.7021074,-2.8015268,-70.9160309,-76.3053436
90,-6.5217719,3.7564833,8.6549950,1.5419847,-91.2900772,-61.8549614
100,-6.4858594,4.0078731,9.4666252,11.4961834,-126.5114517,-47.1450386
110,-5.0277977,3.6439564,8.6502066,20.5419846,-162.5648804,-37.2213745
120,-4.0437860,3.2513094,8.0995426,23.9083977,-186.3664093,-33.0152664
130,-2.4971397,2.9424589,7.5057840,22.9389305,-174.0229034,-31.4351139
140,-1.4197544,2.7341642,7.3429790,17.3664131,-135.5038147,-29.8167934
150,-0.2394189,2.6503677,7.0580707,6.0534353,-88.2595444,-29.8473282
160,-0.5410868,3.2393384,8.3820572,-2.3129771,-59.8778610,-32.2519073
170,-1.0965388,3.4069316,9.6509781,-2.3129771,-48.8854980,-36.6946564
180,-1.2880739,2.9999194,11.0108776,5.8702292,-47.8091621,-41.0152664
190,-1.3670821,2.5450234,11.5280218,16.9312973,-71.3893127,-45.5648842
200,-3.9623835,2.1739240,13.3907013,32.9618340,-122.4656525,-50.8167953
210,-3.0382264,2.5833304,14.3842907,61.8931313,-170.5267181,-49.1832047
220,-2.8634505,2.5330524,14.0179796,89.8931274,-205.8320618,-41.4732819
230,-2.1356170,2.8514795,14.6548338,106.7328262,-224.3740387,-37.1755714
240,-1.2832855,3.1100521,14.7673607,118.5190811,-240.5572510,-32.5419846
250,-0.1771700,3.4093258,15.2390156,130.2595367,-235.2977142,-29.9770985
260,-0.2370248,3.7445123,15.1288834,140.3435059,-233.0534363,-11.9694653
270,1.6567791,4.6950054,14.8894644,147.7557220,-219.1755676,-10.0992365
280,2.8179610,6.3661499,13.8886929,146.2671814,-204.3816833,-27.2061062
290,3.6559272,7.3525558,14.2861280,141.8854980,-188.3740387,-48.2671738
300,4.0892754,7.4674768,14.5997677,141.0992432,-166.5954132,-62.4732819
310,4.1563129,7.5728211,14.9205885,148.7938995,-142.6717529,-71.9160309
320,4.4699516,7.4387465,14.2238798,158.7404633,-126.3969498,-79.4045792
330,3.9192882,7.3405848,13.7570124,169.2213745,-112.5725174,-83.3816757
340,3.9384418,7.0891948,12.5263996,178.7862549,-97.5725174,-93.9083939
350,3.4165084,6.9958215,11.3484583,187.3129730,-101.5801544,-104.9312973
360,3.7876077,6.8641410,10.2710724,193.2061005,-114.6870193,-117.1603088
370,4.0796990,6.7827387,8.9806042,195.0000000,-132.6106873,-131.8931274
380,4.3526363,6.5481081,8.0779953,193.2519073,-141.4656525,-145.5648804
390,4.5585365,6.3565731,7.6877422,191.6030579,-144.1068726,-156.9160309
400,4.0916696,5.8178802,7.5919747,191.6641235,-136.8320618,-168.2748108
410,3.0908985,5.2001796,7.0389171,192.0610657,-127.6030502,-175.2366486
420,1.7190280,4.4100971,6.6821828,196.0839691,-104.8320618,-175.7862549
430,0.2418131,4.4795284,6.0357518,199.8167877,-88.8778610,-171.7022858
440,0.5386927,4.5274124,5.1235652,204.8015289,-79.0839691,-167.8320618
450,0.2992737,4.9368186,3.8546450,205.3053436,-91.5954208,-168.3358765
460,0.4620786,5.0589223,2.6695213,199.0839691,-109.9389343,-174.6030579
470,-0.2466015,4.8410511,1.4939742,186.3816833,-127.5496216,-182.6106873
480,-0.5530578,5.6526814,1.1539993,169.9618378,-128.3587799,-181.6488495
490,-0.3758878,6.0070214,1.9033806,156.3893127,-128.5572510,-183.5114441
500,-0.7996593,6.1099715,0.9888002,140.7938995,-116.1832047,-186.4961853
510,-1.7190280,5.9639258,0.5650287,126.5038147,-113.4045792,-185.1603088
520,-3.0358322,6.2655940,0.5362985,108.4045792,-102.3893127,-177.8549652
530,-3.4883339,6.4140334,0.2035061,87.8091583,-84.5496216,-166.5725250
540,-3.3877780,6.8856888,0.7709290,70.1068726,-76.7557220,-153.8931274
550,-2.3247581,7.4746594,1.4508789,61.8931313,-76.5877838,-146.4961853
560,-2.3654592,7.6685886,2.0590029,58.7175560,-71.8931274,-143.4198456
570,-1.9512644,7.5057840,1.8363433,55.6259537,-65.0916061,-140.5038147
580,-1.4604555,7.5919747,1.5586174,50.9923668,-62.3893127,-137.1221313
590,-1.1587877,7.5895805,1.4341195,42.7022896,-48.3740463,-134.3893127
600,-1.4724265,7.5584559,2.0470319,36.7480927,-37.9923668,-133.8473358
610,-1.2210367,7.2424231,2.1882892,33.4580154,-37.3358765,-135.5419922
620,-1.5969244,6.7396431,2.8323262,33.9007645,-37.4656487,-137.6793823
630,-2.0566087,6.1578555,3.2417326,33.3740463,-27.4580154,-135.8778687
640,-2.5713594,5.5832496,3.1411765,37.0610695,-23.2137413,-132.0915985
650,-3.3351059,5.2600341,3.0956869,40.0534363,-18.9770985,-127.7786255
660,-4.0796990,4.6806402,3.1100521,42.4427490,-19.0076332,-124.1984711
670,-5.0086441,3.9839313,2.8921809,46.5190849,-21.9007626,-119.7175598
680,-6.2033448,3.3446827,2.5713594,51.7404594,-30.1984730,-112.6488571
690,-7.0748301,2.7150109,2.3151813,56.1068687,-37.2213745,-102.0381699
700,-8.1019373,2.4803803,2.1451938,60.1297722,-37.6412201,-86.3511429
710,-8.9183559,1.9991482,2.1499822,64.6946564,-39.0000000,-71.5648880
720,-11.1257982,0.9720409,2.1475880,69.7557220,-44.4885483,-50.7938919
730,-12.9932661,0.1508339,2.3343346,73.5648880,-50.4732819,-19.3511448
740,-14.8008795,-0.6488253,2.1978660,75.9312973,-52.1297722,19.3740463
750,-14.2789459,-0.9457048,0.9433106,70.8167953,-45.5954208,63.4274826
760,-17.3099899,-1.4652439,1.3000449,61.4274826,-27.5496178,118.8778610
770,-17.4273052,-2.8059900,0.1005560,45.0381660,0.5038168,187.1908417
780,-14.2837343,-4.1108232,-1.1994889,15.0534353,42.4732819,245.7557220
790,-12.5982246,-4.7788019,-1.1013272,-22.1374054,91.1297684,250.1297760
800,-10.4961262,-6.2272868,-0.7110743,-58.2824440,136.1603088,250.1297760
810,-8.8585014,-7.4363523,-0.1987177,-92.1908417,168.5801544,250.1297760
820,-7.8649125,-8.6765423,0.7685348,-119.7557220,187.3435059,250.1297760
830,-7.5177550,-10.0484133,1.5298871,-137.4198456,189.5419922,250.1297760
840,-6.9072366,-11.3364868,2.2816625,-148.0686951,180.2442780,250.1297760
850,-6.3709383,-12.6437149,2.8849983,-153.1984711,164.6870270,250.1297760
860,-5.4324160,-13.8575687,3.2920105,-155.6793823,147.1450348,250.1297760
870,-4.7620430,-15.4161863,3.5697365,-159.5954132,129.7633514,250.1297760
880,-3.6463506,-17.5613804,3.2991931,-169.5801544,114.0305328,250.1297760
890,-1.0965388,-19.6131992,5.0613165,-179.3664093,111.9389343,250.1297760
900,4.4148855,-19.6131992,7.1466556,-193.8091583,140.6030579,250.1297760
910,13.3476067,-19.6131992,8.8800488,-221.5419922,208.5954132,250.1297760
920,19.6126022,-19.0266228,11.2766323,-250.1374054,250.1297760,250.1297760
930,19.6126022,-15.6364517,13.6971579,-250.1374054,250.1297760,250.1297760
940,19.6126022,-12.4880924,18.1838684,-250.1374054,250.1297760,250.1297760
950,19.6126022,-11.1066446,19.6126022,-250.1374054,250.1297760,250.1297760
960,19.6126022,-10.9701757,19.6126022,-250.1374054,250.1297760,250.1297760
970,19.6126022,-9.9933472,19.6126022,-250.1374054,250.1297760,250.1297760
980,19.6126022,-6.8018923,19.6126022,-250.1374054,250.1297760,250.1297760
990,19.6126022,-4.2209558,19.6126022,-213.4656525,183.9770966,206.4198456
1000,19.6126022,-2.6623387,19.6126022,-138.5954132,97.2748108,125.1221390
1010,19.6126022,-1.6232605,19.6126022,-64.2366409,39.5801544,56.8625946
1020,19.6126022,-0.5386927,19.6126022,-5.9312978,10.8778629,2.8854961
1030,19.6126022,0.4764437,19.6126022,32.9236641,-2.4961832,-33.9923668
1040,17.2429523,0.7661406,19.6126022,54.9694672,-5.4503818,-54.8091621
1050,15.3276005,1.1061156,16.7904510,61.4809151,-0.6030535,-68.3587799
1060,14.0514975,1.1899122,14.2597923,60.8778610,4.8473282,-80.4503784
1070,13.0650921,1.0917504,13.0028429,56.5725174,10.6946564,-93.9083939
1080,11.5998478,1.1947005,12.3803539,53.0992355,11.0687027,-107.0152664
1090,10.4003592,1.0797794,12.1864243,52.2595406,2.3358779,-120.3282471
1100,9.3540983,0.6536137,12.0619268,54.6946564,-11.0076332,-133.2366486
1110,8.4778252,0.2633608,12.0858688,60.1755714,-24.2900772,-146.1908417
1120,7.4243813,-0.2130829,11.8344784,67.7328262,-37.8702278,-157.2519073
1130,6.4403696,-0.4716553,11.3484583,73.1374054,-54.6106873,-165.2519073
1140,6.0142040,-0.6009415,11.0850973,77.1145020,-67.4580154,-172.8091583
1150,5.8801293,-0.8116302,11.3963413,83.6870193,-68.9312973,-184.6946564
1160,6.5959921,-0.2035061,12.0595322,95.7251892,-53.5038185,-196.7404633
1170,5.7101417,-0.3208214,12.8615856,112.1679382,-38.1068687,-203.9541931
1180,4.8865409,-0.2130829,12.0667152,123.0381699,-43.3511467,-198.7709961
1190,5.1499014,0.7062859,11.6884327,127.5419846,-44.5038185,-188.8396912
1200,4.9296360,1.6998745,10.9677820,127.5648880,-46.3435097,-175.9770966
1210,4.6183915,2.6886747,10.4482431,121.6488571,-64.0534363,-164.3969421
1220,5.1211715,3.5146701,10.5847120,114.0381699,-88.1450348,-164.0381622
1230,5.8178802,4.0294209,10.6158361,110.6946564,-104.8167953,-172.4045868
1240,6.7300668,4.5513539,11.0084829,111.3206100,-109.5343475,-184.7557220
1250,7.2903070,5.3534074,11.2933912,113.3206100,-105.4122162,-198.3282471
1260,7.6374645,6.1817970,11.4753504,113.5267181,-96.8931274,-213.7175598
1270,6.7420373,6.0620875,11.9063044,115.8549652,-83.6412201,-228.5496216
1280,5.5976148,5.3773494,12.0403786,121.8549652,-77.9847336,-236.7786255
1290,5.1163831,5.1331420,12.1505117,131.4656525,-71.7404556,-240.4885559
1300,4.7668314,4.9823084,11.8895445,142.7557220,-71.0916061,-244.6106873
1310,4.4124913,4.6950054,11.2862091,153.7633514,-80.4427490,-250.1374054
1320,3.9432299,4.2712340,10.9941177,166.5190887,-91.6030502,-250.1374054
1330,3.1268115,3.9049230,10.5296450,181.0229034,-104.5954208,-250.1374054
1340,2.4731977,3.5098817,9.2128410,192.9084015,-121.4580154,-250.1374054
1350,2.2122312,3.3782012,7.8266053,197.6946564,-136.1526642,-250.1374054
1360,1.7836711,3.2225790,6.7899213,195.6259613,-142.6030579,-250.1374054
1370,0.9050036,2.9759774,6.4116392,190.2290039,-139.8854980,-250.1374054
1380,0.0861908,2.5713594,6.0429344,184.7251892,-133.1297760,-250.1374054
1390,-1.0295014,2.0925217,5.7245069,178.9389343,-116.3206100,-250.1374054
1400,-2.7126167,1.2761030,5.1522956,171.7633514,-82.1679382,-250.1374054
1410,-3.4739690,1.7549409,4.7309184,162.1068726,-45.7709923,-249.1526642
1420,-4.3885493,2.2960277,4.6471219,157.1679382,-18.0076332,-235.8167877
1430,-5.4084740,1.9943599,4.3310885,158.9694672,6.3282442,-227.1526642
1440,-7.5369086,1.0917504,3.5410061,163.0839691,15.8244276,-216.4656525
1450,-9.9406748,0.4572902,1.9823889,167.3053436,5.0687022,-195.5954132
1460,-11.1234045,0.2609667,0.6488253,169.7862549,-14.6870232,-170.6870270
1470,-12.4641504,-0.0407012,-0.7278336,170.4809113,-39.6106873,-144.5725250
1480,-13.6420918,-0.0215477,-1.5155219,164.3816833,-84.0076370,-115.8167953
1490,-13.9629126,0.4955972,-1.8147956,154.3435059,-132.8015289,-87.0000000
1500,-13.5343533,0.7900825,-1.3646880,143.2671814,-164.4961853,-60.0152664
1510,-12.8208847,0.4309541,-0.9433106,129.7709961,-166.9694672,-32.0534363
1520,-12.1744537,0.1675933,-0.8571198,110.4732819,-137.3358765,-1.4580153
1530,-11.8512383,-0.0933734,-1.1085097,82.5572510,-81.2290039,32.9083977
1540,-11.5998478,-0.5554519,-1.5897418,47.5419846,-10.2671757,70.8320618
1550,-11.6429434,-1.5562232,-2.0446377,6.7099237,65.3358765,114.3435135
1560,-11.7387114,-2.5641768,-2.3534882,-33.9847336,128.5725250,160.4274750
1570,-11.4083128,-3.5098817,-2.2194135,-71.1832047,169.1908417,207.1603088
1580,-10.8217363,-4.6183915,-1.6735384,-100.4885483,184.1679382,250.1297760
1590,-10.0436249,-6.0596933,-0.9840119,-121.8473282,180.6641235,250.1297760
1600,-8.8465300,-7.3764977,-0.2178712,-135.9694672,166.1374054,250.1297760
1610,-7.4195933,-8.8441362,0.7589580,-143.4809113,148.6030579,250.1297760
1620,-6.7947097,-10.1872759,1.6783268,-145.9313049,133.8091583,250.1297760
1630,-6.2919297,-11.9110928,2.0422437,-145.5038147,123.3664093,250.1297760
1640,-6.5792327,-14.3603487,2.0398495,-144.5114441,119.5038147,250.1297760
1650,-6.2368636,-16.9388905,1.8554969,-145.5725250,106.7480927,250.1297760
1660,-3.3494711,-19.0649300,2.6886747,-145.2290039,88.1374054,250.1297760
1670,3.7397239,-19.6131992,4.3334827,-146.6793823,85.6488571,250.1297760
1680,13.8815107,-19.4527893,6.5816269,-154.3129730,130.3740387,250.1297760
1690,19.6126022,-17.1495800,8.8417416,-178.8473358,233.0610657,250.1297760
1700,19.6126022,-14.3459835,11.3795824,-219.2366486,250.1297760,250.1297760
1710,19.6126022,-11.4394369,14.6859579,-250.1374054,250.1297760,250.1297760
1720,19.6126022,-8.3174143,18.2963963,-250.1374054,250.1297760,250.1297760
1730,19.6126022,-5.6670465,19.6126022,-235.1755676,250.1297760,250.1297760
1740,19.6126022,-2.5665710,19.6126022,-183.4503784,224.2366486,250.1297760
1750,19.6126022,0.1316804,19.6126022,-107.1221390,49.1068687,146.1374054
1760,19.6126022,1.0941446,19.6126022,-32.1221390,-101.8015289,49.9083977
1770,19.6126022,1.2473727,19.6126022,15.8015270,-180.4580078,-8.7328243
1780,19.6126022,2.3582766,16.9580441,47.1603050,-203.1832123,-43.1908379
1790,19.6126022,3.1890604,11.8991213,45.9771004,-180.1526642,-51.7786255
1800,17.0969067,3.3183465,8.6909075,22.6335869,-107.3435135,-44.4961815
1810,14.9086180,3.0789278,7.0891948,-7.2519083,-27.0381680,-30.2137413
1820,13.6133614,2.9089401,6.7564025,-34.6183205,40.0076332,-14.3282442
1830,13.1441002,2.7317703,7.8792777,-50.1755714,75.2748108,-4.5801525
1840,13.2326851,2.7341642,9.0859489,-53.3587799,84.3511429,-3.1603053
1850,13.3236647,2.7174051,10.2351599,-45.0992355,78.9083939,-7.9541984
1860,13.4888630,2.6455793,10.2854376,-32.0534363,62.5190849,-18.3358784
1870,13.2709923,2.8131726,9.9598284,-19.6717548,47.6870232,-31.6946564
1880,13.4361916,2.7221935,8.6693602,-12.2748089,35.5343513,-47.4274826
1890,12.6197729,2.8993635,7.8529415,-8.8473282,33.2442741,-62.7633591
1900,12.4833040,2.5689652,6.8138633,-14.2061071,32.7862587,-77.9694672
1910,11.0420017,2.0949159,6.7731619,-21.0534344,38.9771004,-88.1832047
1920,10.6972389,2.3151813,7.2639709,-28.0687027,43.5419846,-88.0687027
1930,10.9294748,2.6767037,8.3269911,-31.8091602,38.5954208,-86.9465637
1940,10.7283630,3.2800395,9.5049324,-28.2748089,23.5725193,-89.3053436
1950,11.3197279,3.1004753,9.9765873,-17.9465656,11.5496187,-94.6564865
1960,12.7514534,3.0813217,10.2854376,-5.8015265,6.1068702,-109.8015289
1970,13.1584654,3.3375001,10.0460186,2.3511450,9.0763359,-128.0534363
1980,13.0267849,3.5386121,9.9885588,4.0610685,-3.6488550,-145.3740387
1990,12.9453821,3.8474624,9.8856087,1.1374046,-26.9007626,-162.4961853
2000,12.6030130,4.0006905,8.9901810,-5.1679387,-54.9007645,-179.8015289
2010,12.3037395,3.7540891,8.4323349,-13.2824430,-85.5725174,-197.8778687
2020,12.1337519,3.5577655,8.6597834,-18.6106873,-107.8549652,-219.1297760
2030,12.1864243,3.2656744,9.3660688,-16.1221371,-119.2519073,-242.5343475
2040,12.1888189,2.8203552,10.6134415,-2.3053436,-125.5496216,-250.1374054
2050,11.7339230,2.1284344,10.8504667,18.8931293,-120.1526718,-250.1374054
2060,10.5224628,1.6088953,11.3652172,45.1908379,-109.4122162,-250.1374054
2070,9.4977493,1.0965388,10.7331514,71.1221390,-94.6335907,-250.1374054
2080,7.5249376,0.7062859,10.3692341,89.0687027,-105.3740463,-250.1374054
2090,6.5816269,0.8810617,9.2774839,95.5190811,-119.3969498,-250.1374054
2100,5.6526814,1.0318956,8.5137377,96.7480927,-127.8778610,-250.1374054
2110,5.9758968,1.5370697,7.6542239,91.9160309,-105.9465637,-250.1374054
2120,5.9663200,1.4604555,6.8880830,85.6641235,-74.5572510,-250.1374054
2130,4.9823084,2.3271523,6.1937680,76.5801544,-44.8396950,-250.1374054
2140,4.4962878,2.5498118,5.8801293,67.0763321,-18.3664131,-250.1374054
2150,4.0198441,2.3989778,5.3749552,58.0992355,8.8167934,-250.1374054
2160,2.7772598,2.5115047,5.1522956,50.3816795,32.3282433,-250.1374054
2170,1.9345051,2.7030399,5.2217274,44.1450386,42.8473282,-250.1374054
2180,1.3311694,2.8203552,5.7939386,41.9389305,47.5801544,-250.1374054
2190,0.9313397,2.6671271,6.2943239,46.5725174,49.4351158,-250.1374054
2200,0.2801202,2.7030399,6.3829093,55.3206100,48.8320618,-250.1374054
2210,-0.3758878,2.7964132,6.0860295,65.2748108,47.2366409,-250.1374054
2220,-1.1420283,2.8778157,5.5114241,74.0381699,43.3740463,-250.1374054
2230,-1.8219782,2.7221935,5.1858144,81.8473282,38.5038185,-250.1374054
2240,-2.9544299,2.6024840,4.9128766,90.5954208,35.7175560,-250.1374054
2250,-3.8618276,2.0039365,4.3526363,98.2213745,31.5572510,-250.1374054
2260,-5.9160423,1.4365137,4.1491303,106.8015289,26.4045811,-250.1374054
2270,-8.4203644,0.8259954,3.8905578,115.5648880,13.1984730,-250.1374054
2280,-10.6373835,0.4644727,3.7157819,125.2137375,-11.4656487,-250.1374054
2290,-12.2510672,0.1843526,3.5601597,134.8625946,-36.4732819,-228.1221313
2300,-13.4146433,-0.0718257,3.0454090,141.8625946,-62.1297722,-199.3511505
2310,-14.1041698,-0.1580165,2.5402350,145.5190887,-85.8167953,-168.2900696
2320,-14.5806141,-0.3351865,2.1404054,146.2213745,-101.3664093,-134.7022858
2330,-14.8056679,-0.3782819,1.5466464,142.4580078,-106.8931274,-99.1832047
2340,-14.9253769,-0.6105183,0.5147507,132.5419922,-96.5267181,-59.9389305
2350,-14.8774929,-0.8978211,-0.3878587,114.1526718,-73.9847336,-16.9694653
2360,-14.9110117,-1.4508789,-1.1300575,89.7480927,-39.5954208,29.4274807
2370,-15.3539371,-2.3534882,-1.8147956,61.1908379,-3.9236641,80.4809189
2380,-15.8136215,-3.7540891,-2.4444675,29.5801525,26.4580154,136.3129730
2390,-16.2134514,-5.7460546,-2.5354466,-4.8091602,49.3358765,197.7251892
2400,-16.1272602,-8.2958660,-2.0063307,-37.6183205,68.1145020,250.1297760
2410,-15.8686876,-10.9390516,-1.3479286,-68.1068726,81.4274826,250.1297760
2420,-14.7960911,-13.8455973,0.2370248,-94.1908417,99.5343475,250.1297760
2430,-13.6133614,-16.7617207,1.8363433,-113.7251892,133.9770966,250.1297760
2440,-12.6604738,-19.6131992,2.6407909,-128.3893127,175.9313049,250.1297760
2450,-11.4346485,-19.6131992,3.4045374,-141.4122162,212.4351196,250.1297760
2460,-9.6916790,-19.6131992,3.6798692,-151.5877838,233.4732819,250.1297760
2470,-5.7292953,-19.6131992,2.6838863,-164.2900696,217.6106873,250.1297760
2480,0.4022238,-19.6131992,2.4181314,-182.5725250,182.7862549,250.1297760
2490,10.5559816,-19.6131992,3.8929520,-200.9389343,158.6641235,250.1297760
2500,19.6126022,-19.6131992,6.7803445,-214.9313049,171.3893127,250.1297760
2510,19.6126022,-19.6131992,10.8121595,-224.5343475,191.7099304,250.1297760
2520,19.6126022,-19.6131992,16.4863892,-214.4885559,175.5190887,250.1297760
2530,19.6126022,-14.0754395,19.6126022,-166.8931274,63.3511467,250.1297760
2540,19.6126022,-8.9590569,19.6126022,-71.3893127,-78.2366409,250.1297760
2550,19.6126022,-6.7731619,19.6126022,30.0763359,-167.8473358,250.1297760
2560,19.6126022,-4.1706781,18.4855366,84.0534363,-176.3053436,206.0610657
2570,19.6126022,-1.1827296,12.6125898,90.3435135,-110.3129807,191.3435059
2580,19.6126022,1.7381816,8.2216463,66.3664093,-12.1984730,192.8167877
2590,19.6126022,3.5266411,5.8681583,30.5267181,75.2290039,192.6793823
2600,19.6126022,4.5896611,5.0972295,1.0763359,129.1526642,180.0534363
2610,19.6126022,6.0237808,5.8705525,-11.1221371,131.8244324,160.0229034
2620,19.6126022,6.0237808,5.4467812,-22.2977104,117.3587799,136.7022858
2630,19.6126022,5.7532372,5.1570840,-34.0763359,112.1374054,110.8167953
2640,19.4096947,5.1714492,5.5832496,-42.7786255,100.1679382,81.2977066
2650,18.2054157,4.9080882,6.6534524,-44.0916023,74.6717529,51.5877876
2660,17.0921192,4.2832050,7.6973190,-36.9083977,47.1679382,28.6183205
2670,16.1727505,3.6702924,8.2910776,-24.0763359,24.3206100,11.4885492
2680,14.3866844,3.3446827,7.1059542,-2.7328243,9.9312973,-16.0458012
2690,13.6660337,3.1268115,6.6223278,-3.1374047,17.6335869,-22.3969460
2700,12.9980545,2.8012016,6.4188218,-6.2442746,26.1221371,-25.8244267
2710,12.4904861,2.6192431,6.3039007,-11.0305347,36.9007645,-26.8167934
2720,12.0140429,2.1188576,6.1147599,-17.3893127,50.9007645,-26.5419846
2730,11.7865944,1.8052188,6.2368636,-25.2748089,63.9847336,-26.6793900
2740,11.5016861,1.7022687,6.7180958,-31.3358784,73.6717529,-27.6870232
2750,11.5783005,1.3838415,6.9766679,-34.1603050,73.0457993,-32.6412201
2760,12.0140429,1.2210367,7.5057840,-34.1221390,62.6335869,-42.5267181
2770,12.5910425,1.1420283,8.0181408,-31.0992374,48.0992355,-56.0381660
2780,13.2207146,1.0103480,8.4467001,-26.2213745,34.0458031,-72.6259537
2790,13.8671455,0.8786675,8.7914639,-21.8549614,24.0610695,-90.6641235
2800,14.7003231,0.7158626,9.1817169,-17.0687027,22.4427490,-111.3816757
2810,14.8104563,1.0438666,9.6366129,-11.4732828,29.8854961,-132.8702240
2820,15.3156300,1.2186425,10.3692341,-4.1526718,25.4885502,-152.6335907
2830,15.8806591,0.8116302,10.2998028,5.0610685,23.8854961,-179.0534363
2840,15.2868996,0.5650287,10.2423429,14.3816795,19.5725193,-205.1068726
2850,15.3180237,0.6823440,10.2231894,23.4656487,9.9923668,-228.8549652
2860,15.6268749,0.5817881,10.4458485,33.7022896,-6.2595420,-250.1374054
2870,15.8543224,0.5650287,10.6278067,44.0381660,-28.6488552,-250.1374054
2880,15.7106714,0.4094064,10.9175043,54.4045792,-47.6641235,-250.1374054
2890,14.8272152,-0.0837966,11.1281929,64.7480927,-62.0916023,-250.1374054
2900,13.8647509,-0.3663110,11.5567522,76.6488571,-74.8702316,-250.1374054
2910,12.6437149,-0.8499373,11.2502966,91.4580154,-75.5648880,-250.1374054
2920,11.2191715,-1.1228749,10.7187862,102.2519073,-68.9618301,-250.1374054
2930,10.1441803,-1.1563935,9.7060442,110.8091583,-58.4351158,-250.1374054
2940,9.3181858,-1.0127422,8.8441362,114.9007645,-49.1832047,-250.1374054
2950,7.9199786,-0.7876883,7.8720951,117.1984711,-39.9160309,-250.1374054
2960,6.0620875,-0.7661406,7.2783360,119.7862625,-37.8167953,-250.1374054
2970,4.4723458,-0.4979914,6.8569584,120.8778610,-45.1755714,-250.1374054
2980,3.4236910,-0.0814024,6.3900914,119.4274826,-49.4274826,-250.1374054
2990,2.4995339,0.3519458,6.1051831,116.4351120,-48.3206100,-250.1374054
3000,1.6543850,0.5362985,5.7771792,113.0763321,-40.1755714,-250.1374054
3010,0.6967092,0.5602403,5.4228392,111.0305328,-31.3816795,-250.1374054
3020,-0.3830703,0.7134684,4.8937230,108.4885483,-25.0305347,-250.1374054
3030,-1.2449785,1.0438666,4.2640514,105.0229034,-18.4122143,-250.1374054
3040,-1.9847831,1.0630201,3.8953462,100.0763321,-11.7022905,-250.1374054
3050,-2.8395088,1.1204807,3.6224086,94.6870193,-6.0839696,-250.1374054
3060,-3.6607156,1.2210367,3.5625539,91.9236679,-2.3282442,-250.1374054
3070,-4.3550305,1.2713146,3.3398943,91.8778610,4.6106873,-250.1374054
3080,-5.0565281,0.8834559,2.9089401,93.2213745,12.4503813,-250.1374054
3090,-6.5313487,0.5722113,2.3008161,94.5419846,16.1908398,-250.1374054
3100,-8.2599535,0.1412572,1.7812769,94.2748108,12.0305347,-250.1374054
3110,-10.3237448,-0.4525018,1.5418580,94.8473282,-0.0076336,-237.0839691
3120,-12.7514534,-0.7661406,1.1468167,95.8244247,-17.9618320,-211.4351196
3130,-14.7003231,-0.7685348,0.7398046,94.0381699,-37.0839691,-178.1984711
3140,-16.2876701,-0.7541697,0.3519458,89.1832047,-57.6259537,-137.7328186
3150,-17.1064835,-0.7350162,0.1125269,81.1221390,-67.2748108,-90.6030502
3160,-17.3794212,-0.5913648,-0.4932030,68.0839691,-60.6259537,-39.0381660
3170,-17.0131111,-0.6081241,-1.0342898,49.2366409,-42.2900772,16.0000000
3180,-15.8710823,-0.8236012,-1.8076130,22.7175579,-13.1374044,67.9083939
3190,-14.9660778,-1.3048333,-2.0781565,-6.4351144,17.3816795,118.6946564
3200,-13.7761660,-1.9632354,-2.2218077,-37.2213745,44.5038185,166.0305328
3210,-12.7466650,-2.6455793,-1.8219782,-66.0763321,67.6641235,210.8015289
3220,-11.7434988,-3.6822634,-1.2282192,-90.4427490,83.0000000,250.1297760
3230,-10.8361015,-4.9799142,-0.6105183,-109.1832047,87.3664093,250.1297760
3240,-9.8089943,-6.2224984,-0.0383070,-123.2290039,85.0687027,250.1297760
3250,-9.0093346,-7.5273318,0.6344602,-132.8244324,82.4122162,250.1297760
3260,-8.2168579,-9.1003141,1.4915800,-138.4885559,78.4351120,250.1297760
3270,-7.2519999,-10.8672256,2.0183017,-139.8320618,72.7862625,250.1297760
3280,-6.0764527,-12.8208847,2.3989778,-139.2900696,65.2061081,250.1297760
3290,-4.9966736,-14.8894644,2.7221935,-140.9389343,54.9160309,250.1297760
3300,-3.0645626,-17.5470142,3.2489152,-144.2748108,42.4198456,250.1297760
3310,0.2250538,-19.6131992,3.4572096,-153.2977142,37.3129768,250.1297760
3320,7.3621325,-19.6131992,4.4651632,-168.1755676,58.0076332,250.1297760
3330,15.8231983,-19.6131992,6.3302369,-185.9389343,129.9160309,250.1297760
3340,19.6126022,-19.6131992,7.6111283,-215.0000000,236.1297760,250.1297760
3350,19.6126022,-15.7729197,8.2743187,-250.1374054,250.1297760,250.1297760
3360,19.6126022,-13.1417055,11.2694502,-250.1374054,250.1297760,250.1297760
3370,19.6126022,-11.6381550,15.6699696,-250.1374054,217.4274750,250.1297760
3380,19.6126022,-10.7187862,18.4591999,-221.0381622,85.3587799,250.1297760
3390,19.6126022,-8.8513184,19.6126022,-155.6488495,-54.5954208,250.1297760
3400,19.6126022,-6.2919297,19.6126022,-83.7251892,-169.5419922,224.1908417
3410,19.6126022,-4.0078731,19.6126022,-17.4732819,-222.9236603,157.8244324
3420,19.6126022,-1.6687500,18.7177734,30.5190830,-209.1297760,112.3893127
3430,19.6126022,0.4357425,14.7553892,51.9541969,-152.0686951,88.4351120
3440,19.6126022,1.9177457,10.9246864,46.3206100,-80.0839691,81.6106873
3450,19.6126022,2.9161227,8.5352850,24.8244267,-10.0381680,86.1984711
3460,17.5685616,3.9480183,6.6007805,-21.6412220,82.5648880,101.0992355
3470,17.5541973,4.0605454,6.7444315,-37.9312973,97.2213745,96.8091583
3480,17.6715126,4.0030847,7.1777802,-49.8320618,96.9618301,84.1374054
3490,17.6212349,4.0725164,8.2479830,-54.4274826,85.2671738,60.6183205
3500,17.0466290,3.7804251,9.3181858,-50.2213745,69.3053436,31.1832066
3510,15.6101151,3.1651185,9.6461897,-41.4580154,52.9847336,4.1297708
3520,13.9078465,2.4229198,9.5623922,-32.6641235,34.8244286,-15.7480917
3530,12.3995075,1.8339491,9.1745338,-26.6259537,16.9083977,-26.8396950
3540,11.6716738,1.7262106,9.2272062,-22.6946564,7.4885497,-30.8396950
3550,11.6620970,1.4820032,9.2296000,-19.5725193,5.8396945,-30.9694653
3560,11.9254580,1.6783268,9.0931320,-18.7633591,11.8473282,-30.3740463
3570,12.1553001,1.8554969,9.0428534,-19.7862587,23.3282452,-32.1679382
3580,12.3803539,1.7836711,8.9614515,-20.9694653,34.8091621,-36.5190849
3590,12.6125898,1.7214222,9.0620070,-23.0152664,43.6030540,-42.2977104
3600,13.3092995,1.8124014,9.1601686,-24.9389305,51.1297722,-51.9312973
3610,13.8695393,1.7214222,9.2248116,-26.7938938,53.0763359,-66.4885483
3620,14.0874109,1.8291607,9.6749191,-25.9847336,45.3664131,-85.2061081
3630,14.3004932,2.0278785,10.0915089,-20.4045811,32.8778610,-107.5801544
3640,14.8104563,2.1523764,9.8281479,-14.1603050,23.5725193,-132.8396912
3650,15.3180237,2.2649033,8.7507620,-11.8931293,21.6641216,-161.6259613
3660,15.3060532,2.2289903,7.3669209,-19.2290077,23.5267181,-192.2137451
3670,15.2222567,1.8363433,6.5241661,-34.9541969,23.2442741,-223.5725250
3680,15.1767673,1.2808913,6.5505023,-52.7633591,22.1068707,-250.1374054
3690,14.5925846,0.1484398,7.7523856,-64.2442780,16.4656487,-250.1374054
3700,13.2566271,-1.1492109,9.6868906,-63.3587799,7.5267177,-250.1374054
3710,11.4370432,-2.0997043,11.3652172,-49.2519073,-2.2061069,-250.1374054
3720,10.7834291,-3.3686244,12.5982246,-26.5267181,-8.8931293,-250.1374054
3730,10.3716288,-3.5098817,13.9413652,4.2366414,-10.4427481,-250.1374054
3740,9.9334917,-3.3542595,14.1185350,42.2137413,4.3206105,-250.1374054
3750,8.7603388,-3.2082138,12.7394819,72.9007645,7.2366414,-250.1374054
3760,7.7045016,-2.9137285,11.5687237,92.4351120,8.9465647,-250.1374054
3770,6.9838505,-2.2792683,10.7570934,106.2137375,8.3664122,-250.1374054
3780,6.0740585,-1.5921360,10.0627785,115.7251892,7.7786260,-250.1374054
3790,5.3701668,-1.2210367,9.3229742,120.6717529,8.0458012,-250.1374054
3800,4.2784166,-0.8762733,8.5400734,120.1832047,6.7099237,-250.1374054
3810,2.8538737,-0.5674229,8.1809454,115.4885483,8.4198475,-250.1374054
3820,0.9792235,-0.2274480,8.0253229,107.9007645,6.3740458,-250.1374054
3830,0.3519458,-0.3256098,8.5065556,105.0076370,0.5801527,-250.1374054
3840,-0.4357425,-0.0909792,8.7507620,103.9923630,1.0687023,-250.1374054
3850,-1.1851238,0.0909792,9.1242561,109.3740463,6.3206105,-250.1374054
3860,-1.8411317,0.1891410,8.8992023,117.5725174,16.2061062,-250.1374054
3870,-2.6886747,0.2801202,8.1665802,127.1603088,25.8167934,-250.1374054
3880,-3.3949606,0.1771700,7.2424231,136.1832123,30.5343513,-250.1374054
3890,-4.1611013,-0.2154770,6.1434903,143.1908417,28.4045811,-250.1374054
3900,-4.7093706,-0.5243275,4.9679432,147.9160309,18.6412220,-250.1374054
3910,-5.4348102,-0.7541697,4.0318151,148.3282471,7.4274807,-250.1374054
3920,-6.3829093,-1.0965388,3.6080434,146.8167877,-6.6106873,-250.1374054
3930,-7.5608501,-1.5059452,3.7540891,145.7175598,-23.0534344,-250.1374054
3940,-8.6933022,-1.8363433,4.2257442,146.9541931,-40.4351158,-250.1374054
3950,-9.8089943,-2.1308286,4.5106530,150.7175598,-53.6564903,-250.1374054
3960,-10.8863792,-2.2888451,4.6423335,154.4122162,-62.7022896,-227.9618378
3970,-11.7842007,-2.5210814,4.6447277,158.0992432,-68.5267181,-197.4198456
3980,-12.0619268,-2.1236460,4.2065907,159.0534363,-70.7022934,-164.5343475
3990,-12.4449968,-2.4157372,3.8953462,156.1221313,-66.7480927,-129.7557220
4000,-12.9932661,-2.7078283,3.7253587,152.5496216,-56.5496178,-87.6564865
4010,-13.1464939,-3.1124463,2.9783716,145.0915985,-35.0076332,-36.8854980
4020,-13.3116932,-3.4284792,2.0757623,131.2137451,-0.8244275,20.3206100
4030,-13.7258883,-3.9264708,1.3263810,111.4580154,38.3282433,85.2442780
4040,-13.5678720,-4.3334827,0.5913648,86.9236679,78.6335907,156.5801544
4050,-12.9334116,-5.0637107,-0.2992737,57.9236641,116.0229034,232.3129730
4060,-12.5790710,-5.9136481,-0.5410868,28.2442741,144.2824402,250.1297760
4070,-11.8775740,-7.3214312,-1.0582317,1.1603054,155.1603088,250.1297760
4080,-11.2981796,-9.5576038,-1.1563935,-22.9007626,142.4274750,250.1297760
4090,-9.6916790,-12.4210548,-1.0941446,-43.6183205,118.3435135,250.1297760
4100,-6.5361371,-15.9093885,-1.8363433,-63.9236641,84.8015289,250.1297760
4110,-3.8378856,-19.2109756,-1.5897418,-85.8549652,58.9312973,250.1297760
4120,-0.8595140,-19.6131992,-0.4022238,-105.8015289,48.2519073,250.1297760
4130,4.2401094,-19.6131992,1.2258250,-119.8091583,66.5801544,250.1297760
4140,14.4441452,-19.6131992,2.8849983,-132.5954132,120.7251892,250.1297760
4150,19.6126022,-19.6131992,3.6846576,-159.6030579,238.0229034,250.1297760
4160,19.6126022,-19.6131992,4.5250182,-209.9541931,250.1297760,250.1297760
4170,19.6126022,-19.2564659,7.8266053,-250.1374054,250.1297760,250.1297760
4180,19.6126022,-17.5398312,17.1543674,-250.1374054,250.1297760,250.1297760
4190,19.6126022,-15.7872849,19.6126022,-183.3511505,119.7557220,250.1297760
4200,19.6126022,-13.1201582,19.6126022,-52.9160309,-16.0305347,250.1297760
4210,19.6126022,-8.3222027,19.6126022,45.7480927,-77.9465637,250.1297760
4220,19.6126022,-1.6735384,13.9748840,83.9847336,-59.1603050,250.1297760
4230,19.6126022,1.7357874,9.5097208,70.2366409,14.4427481,194.3129730
4240,19.6126022,2.8371146,5.4874821,19.1221371,83.1145020,114.8167953
4250,19.6126022,3.0813217,3.5314295,-57.9007645,139.6870270,79.5801544
4260,19.6126022,1.6328372,6.8330169,-98.3740463,180.7862549,61.1526718
4270,18.4232883,0.7517755,10.4147243,-97.5114517,181.3587799,54.5267181
4280,16.4097748,0.5386927,13.9198179,-61.6870232,143.9541931,41.7633591
4290,16.3283730,1.4029950,12.0236197,-32.3740463,90.8320618,23.4045811
4300,16.0147324,1.5562232,11.2000179,-16.1374054,55.3740463,2.1374047
4310,15.6987000,1.7597293,10.2614956,-4.0916033,42.9847336,-19.9160309
4320,14.2980995,1.7262106,9.3540983,6.5572519,34.6946564,-39.6793900
4330,12.4761209,1.5250987,8.2551651,15.0534353,22.6183205,-55.4809151
4340,10.7092094,1.4317253,7.3597383,18.8549614,6.0152674,-65.7099228
4350,9.1745338,1.2880739,7.0532823,22.2213745,-13.0610685,-69.3587799
4360,7.9534974,1.2354017,6.5864153,23.4198475,-30.2290077,-66.7175598
4370,7.1993275,1.3000449,5.7843618,20.9618320,-42.9465637,-59.0687027
4380,6.9742737,1.1132981,5.2672167,15.1374044,-36.3053436,-50.7328262
4390,6.4667058,1.0845678,4.9775200,5.9312978,-22.6106873,-39.8320618
4400,6.2536230,1.1851238,4.9344244,-5.1984735,-9.9923668,-28.2137413
4410,6.3996682,0.8259954,5.3701668,-12.1068707,-1.2977099,-14.1297712
4420,10.1417866,0.5410868,6.7396431,-36.8167953,42.0381660,7.5190840
4430,11.4633789,0.6248835,7.3932571,-40.8854980,52.6335869,-0.7862595
4440,11.9781294,0.6105183,8.4203644,-40.8320618,62.4122124,-16.2824421
4450,12.0188313,0.4046180,9.2224178,-36.8625946,62.1603050,-31.6717548
4460,11.7506819,0.0837966,10.2136126,-25.6564884,51.9389305,-46.5190849
4470,11.6956158,-0.1604107,10.4003592,-9.7557249,37.0228996,-60.4961815
4480,11.3580351,-0.1699875,10.5057030,5.8854961,21.9694653,-72.6641235
4490,11.8272963,-0.3734936,9.9694052,20.6183205,17.7480907,-83.7709961
4500,12.4258432,-0.0766141,9.8113880,40.4122124,42.5877876,-97.0839691
4510,12.4186611,0.8236012,10.9749641,57.3282433,39.7786255,-103.8244247
4520,12.4809093,1.6400198,11.0348196,58.7862587,-15.4809160,-108.3893127
4530,14.2190914,1.8818330,9.9957409,51.3816795,-33.8396950,-119.6030502
4540,15.2557755,2.1763182,10.6589317,44.7938919,-29.3893127,-137.1450348
4550,15.6053267,2.0326669,11.7387114,43.1068687,-25.2519093,-158.4809113
4560,15.4042149,1.6328372,12.5287933,47.2442741,-32.6564903,-178.2519073
4570,16.0793762,1.3694763,13.1728306,56.3435097,-37.9312973,-198.4045868
4580,16.2278156,1.6184721,13.9605188,67.9389343,-41.4503822,-219.7251892
4590,16.2254219,1.3886299,14.5614605,80.0305328,-52.1526718,-247.7022858
4600,15.8950233,1.1539993,15.0666342,92.3435135,-65.3206100,-250.1374054
4610,15.1288834,0.9624642,15.4497042,105.2671738,-76.0457993,-250.1374054
4620,14.1759958,0.4812321,15.5813847,121.3893127,-80.1374054,-250.1374054
4630,14.7242651,-0.1532281,15.7346134,137.7938995,-78.2061081,-250.1374054
4640,14.0921993,0.6440369,15.7729197,157.6946564,-66.8091583,-250.1374054
4650,14.1448717,1.0103480,14.7362356,173.4122162,-50.3129768,-250.1374054
4660,13.4768925,1.0390782,12.6987810,189.2824402,-68.6259537,-250.1374054
4670,14.4249916,0.7924767,10.9749641,193.2442780,-52.7480927,-250.1374054
4680,13.1895895,-0.7110743,9.8113880,189.3587799,-31.5572510,-250.1374054
4690,11.5447817,-2.2289903,8.1546097,179.7328186,-0.3435115,-250.1374054
4700,8.8417416,-2.7964132,7.4842362,175.3206177,-5.8167939,-250.1374054
4710,6.8234401,-3.6535332,7.6709828,178.7633514,-25.8778629,-250.1374054
4720,4.9224534,-4.7764082,8.1713686,187.9236603,-42.6564903,-250.1374054
4730,2.7581062,-5.5257893,8.3892403,201.0229034,-55.7862587,-250.1374054
4740,0.5698171,-5.9423780,7.8553357,215.5801544,-66.2366409,-250.1374054
4750,-0.9361281,-6.2081332,6.7420373,226.2290039,-69.9542007,-250.1374054
4760,-2.3056045,-6.4499464,5.2193332,228.9694672,-67.2213745,-250.1374054
4770,-4.0126615,-6.2751703,3.8139439,225.0534363,-59.0916023,-250.1374054
4780,-5.8753409,-6.1794028,2.5043221,215.2595367,-49.2442741,-250.1374054
4790,-7.3741035,-6.3374195,1.3982066,200.2900696,-45.1221390,-250.1374054
4800,-9.5959110,-6.1913738,0.9816177,183.0686951,-40.3816795,-250.1374054
4810,-11.8512383,-6.2009506,0.5171449,165.6946564,-33.5114517,-250.1374054
4820,-14.2406387,-6.2703824,-0.2226596,147.1297760,-24.3893127,-250.1374054
4830,-16.5749741,-5.9160423,-1.0175306,125.4198456,-16.0381680,-250.1374054
4840,-17.8678360,-5.3414369,-1.6974803,98.7022934,-7.7633586,-237.6793823
4850,-19.6131992,-5.2839761,-2.1092808,76.8931274,-14.0000000,-195.2290039
4860,-19.6131992,-5.5042415,-2.2601149,53.8854980,-24.3053436,-142.9007568
4870,-19.6131992,-5.5952206,-1.4843974,31.1374054,-23.1908398,-87.0687027
4880,-19.6131992,-5.7484488,-0.6512195,12.1450386,-9.6259546,-35.8778610
4890,-19.6131992,-6.4092450,-0.6871324,-4.7633586,11.4198475,9.9770994
4900,-19.6131992,-7.5728211,-1.2401901,-25.4503822,31.0687027,58.4427490
4910,-19.6131992,-9.0141230,-0.8355721,-48.5190849,46.8778610,112.6335907
4920,-19.6131992,-10.6373835,-0.0885850,-67.6030502,64.7022934,172.5419922
4930,-19.6131992,-12.4186611,-0.0861908,-79.4961853,77.2977066,239.5496216
4940,-19.6131992,-14.2478218,0.0766141,-86.6183243,75.2290039,250.1297760
4950,-16.7617207,-16.0003681,1.3383518,-89.9083939,87.0457993,250.1297760
4960,-13.9246063,-16.7808743,0.6871324,-93.0610657,109.5038147,250.1297760
4970,-11.2455082,-18.4783535,-1.2784972,-103.4351120,118.9007645,250.1297760
4980,-9.2128410,-19.6131992,-2.0590029,-123.8702316,145.7099304,250.1297760
4990,-6.6007805,-19.6131992,-3.4260850,-158.4656525,178.3587799,250.1297760
5000,-3.6367738,-19.6131992,-3.9264708,-206.3816833,206.3053436,250.1297760
5010,-0.9816177,-19.6131992,-3.1435707,-250.1374054,225.7557220,250.1297760
5020,1.8052188,-19.6131992,-1.5753766,-250.1374054,236.0915985,250.1297760
5030,4.6926112,-19.6131992,1.9967541,-250.1374054,224.2824402,250.1297760
5040,11.5998478,-19.6131992,8.8632889,-250.1374054,192.9694672,250.1297760
5050,19.6126022,-19.6131992,18.3442802,-250.1374054,160.7862549,250.1297760
5060,19.6126022,-19.6131992,19.6126022,-250.1374054,146.5496216,250.1297760
5070,19.6126022,-19.5317974,19.6126022,-250.1374054,174.1221313,250.1297760
5080,19.6126022,-11.6405487,19.6126022,-179.1374054,223.6412201,250.1297760
5090,19.6126022,-8.3174143,19.6126022,-85.4122162,250.1297760,250.1297760
5100,19.6126022,-6.7587967,19.6126022,-46.1450386,247.6641235,250.1297760
5110,19.6126022,-4.3813667,17.3363266,-48.3664131,193.0152740,250.1297760
5120,19.6126022,-1.8842272,14.9636841,-72.9312973,127.1068726,250.1297760
5130,19.6126022,1.0702027,17.6978493,-102.6335907,81.3893127,250.1297760
5140,19.6126022,3.6415622,19.6126022,-99.0916061,69.7099228,222.8549652
5150,19.6126022,4.9368186,19.6126022,-61.2442741,75.9618301,149.3129730
5160,19.6126022,5.1690550,19.6126022,-14.9618320,92.4809189,84.0076370
5170,19.6126022,4.9511838,18.9547977,23.7022896,91.9847336,32.8854980
5180,19.6126022,4.5274124,14.7434187,46.2137413,72.9618301,-2.4503818
5190,17.7960110,4.0389977,11.2383251,56.6564903,49.6793900,-24.0381680
5200,14.3938665,3.3877780,8.4299412,56.6641235,21.6641216,-35.2824440
5210,11.9877062,3.3542595,6.4619174,45.3129768,-1.0152671,-37.8625946
5220,10.5009146,3.5170643,5.7316895,27.3053436,-15.5572519,-36.6412201
5230,10.0172882,3.3973548,5.8633699,7.0687022,-16.8778629,-37.5954208
5240,9.2726955,2.8634505,6.1674318,-11.3740454,-3.5038168,-40.5572510
5250,7.9223728,2.3223639,6.6630292,-23.1068707,14.3587790,-40.7557259
5260,6.3374195,1.6926919,7.0532823,-28.2442741,26.0229015,-36.9083977
5270,5.1546898,1.1994889,6.9694853,-28.6335869,28.8396950,-30.6488552
5280,4.4029145,0.8690908,6.8162575,-26.5038166,25.2900772,-22.8167934
5290,4.4412212,0.5865764,6.2272868,-25.8473282,19.0839691,-13.7862597
5300,4.9056940,0.3950413,5.6574697,-30.0839691,11.1068707,-6.3740458
5310,7.8170285,-0.0502780,6.5026188,-61.6335869,11.8778629,-2.4351146
5320,7.9654684,-0.4812321,7.6278877,-68.3587799,22.6946564,-7.4809160
5330,8.1761570,-0.5506636,8.2767134,-75.3740463,31.9083977,-14.9465647
5340,7.8505473,-1.1348459,9.0620070,-78.3435135,39.7480927,-19.6106873
5350,7.3070664,-1.7477583,10.3764172,-78.6717529,40.8015251,-18.9389305
5360,8.0947542,-2.0613971,11.0898857,-75.3435135,37.9236641,-15.8091602
5370,8.6956959,-2.0949159,12.4210548,-70.8015289,36.5954208,-13.8320608
5380,10.2327662,-1.7381816,13.2015610,-65.3969498,39.0228996,-15.0992365
5390,11.5399933,-1.2880739,13.6205435,-61.4351158,48.7862587,-21.8015270
5400,12.4426022,0.0143651,13.2063494,-56.8702278,61.3816795,-28.4885502
5410,14.3842907,-1.7286048,13.9796724,-58.3511467,52.2442741,-38.2824440
5420,16.0267048,-1.7214222,15.2246504,-52.8778610,57.8854980,-61.1145020
5430,16.8838234,-1.4532729,17.2237988,-35.9389305,59.4198456,-93.5648880
5440,16.6180687,-1.5490406,18.2317524,-9.3435116,53.8320618,-130.0915985
5450,15.4449158,-1.8363433,19.1774578,25.9694653,37.5343513,-164.7099304
5460,13.6971579,-2.1236460,19.2205524,68.6259537,14.4351149,-195.0992432
5470,13.1464939,-2.4779861,18.7177734,117.9389343,-7.5267177,-220.7175598
5480,12.5503407,-2.6240315,16.9771976,165.0229034,-27.0687027,-244.6564941
5490,12.4258432,-2.3343346,14.2765512,193.9694672,-35.6183205,-250.1374054
5500,11.8895445,-2.3151813,11.8464499,205.9847260,-35.4351158,-250.1374054
5510,11.4418316,-2.6336083,10.6685085,207.2213745,-35.4656487,-250.1374054
5520,10.2662840,-2.6192431,10.0962973,204.9694672,-39.5648842,-250.1374054
5530,8.7028790,-2.5402350,9.8784256,204.8702240,-47.8702278,-250.1374054
5540,7.6853480,-2.5953014,9.8975792,211.2137451,-58.6870232,-250.1374054
5550,7.5871863,-2.6743097,9.8880024,222.9084015,-67.7404556,-250.1374054
5560,6.8880830,-2.4516499,9.3852224,235.0686951,-73.6030502,-250.1374054
5570,5.9232249,-2.2984219,8.4874020,245.4580078,-78.4656525,-250.1374054
5580,4.6614871,-1.9919657,7.6901364,250.1297760,-83.3511429,-250.1374054
5590,3.3327117,-1.6495966,6.7420373,250.0992432,-86.8625946,-250.1374054
5600,1.8794388,-1.0893562,6.2129216,245.0229034,-92.0839691,-250.1374054
5610,0.3495516,-0.5075682,5.7101417,236.2671814,-92.5496216,-250.1374054
5620,-1.0390782,-0.0837966,4.9990678,223.0381622,-83.5572510,-250.1374054
5630,-2.0015423,0.0000000,4.6902170,206.9847260,-65.1221390,-250.1374054
5640,-3.0118904,0.1244979,4.4388270,193.1297760,-37.2442741,-250.1374054
5650,-4.2951760,0.2681492,4.6638808,186.8702240,-10.2824430,-250.1374054
5660,-5.7316895,0.3088504,4.3957319,186.2900696,9.8931293,-250.1374054
5670,-7.5225434,0.1221037,3.7229645,189.1221313,24.6793900,-250.1374054
5680,-10.0484133,0.1364688,2.6096666,194.9084015,23.6106873,-250.1374054
5690,-11.8416615,0.1891410,1.1204807,198.0992432,4.8396945,-250.1374054
5700,-13.5199881,0.1460456,-0.3327923,195.6030579,-24.7480907,-250.1374054
5710,-15.1145182,-0.2418131,-1.0558375,188.5572510,-63.0992355,-250.1374054
5720,-16.0697994,-0.4237715,-0.9935886,179.5496216,-98.3893127,-248.5954132
5730,-16.3283730,-0.2920911,-0.7709290,169.8015289,-122.8396912,-214.3358765
5740,-15.9812145,-0.4620786,-0.5051740,158.1984711,-133.3282471,-179.6946564
5750,-15.3970327,-0.6129125,-1.0414724,142.1984711,-126.4809189,-146.7175598
5760,-14.8774929,-1.2114599,-1.1755470,120.6106873,-110.9160309,-116.5267181
5770,-14.1783895,-2.2481439,-1.2641320,97.6106873,-91.7251892,-87.9465637
5780,-14.0634689,-3.9168940,-1.1923064,75.4732819,-77.3129807,-58.6412201
5790,-14.6404686,-5.9615316,-1.0271072,56.2977104,-70.7480927,-25.4198475
5800,-15.8758707,-8.6286592,-0.7278336,41.2671738,-69.0457993,16.8091602
5810,-17.1639442,-11.0946741,-0.2681492,29.7709923,-70.2900772,72.9160309
5820,-17.9803619,-12.9549589,0.1484398,22.1297703,-68.5572510,139.3587799
5830,-18.0282459,-14.7075062,0.2466015,16.6412220,-58.3893127,218.2824402
5840,-16.8814297,-16.6228580,-0.2130829,9.9541988,-42.1374054,250.1297760
5850,-14.5063934,-18.5741215,-0.6272776,1.2290076,-21.3816795,250.1297760
5860,-11.4992924,-19.6131992,-1.4245427,-10.0076332,9.6793890,250.1297760
5870,-8.3198080,-19.6131992,-2.8586621,-29.3358784,44.7557259,250.1297760
5880,-5.7915444,-19.6131992,-3.9863255,-57.2748108,70.1374054,250.1297760
5890,-3.1339941,-19.6131992,-5.1714492,-93.7328262,87.7709961,250.1297760
5900,-0.3399749,-19.6131992,-5.4084740,-136.3129730,98.6259537,250.1297760
5910,3.1411765,-19.6131992,-5.3079181,-184.8167877,97.3511429,250.1297760
5920,8.8249826,-19.6131992,-3.7684543,-235.5496216,94.3053436,250.1297760
5930,19.3402615,-19.6131992,-0.0287303,-250.1374054,143.0381622,250.1297760
5940,19.6126022,-19.6131992,4.0389977,-250.1374054,250.1297760,250.1297760
5950,19.6126022,-18.4137115,10.2638903,-250.1374054,250.1297760,250.1297760
5960,19.6126022,-12.4761209,19.6126022,-250.1374054,250.1297760,250.1297760
5970,19.6126022,-6.6079631,19.6126022,-250.1374054,250.1297760,250.1297760
5980,19.6126022,-4.4986820,19.6126022,-250.1374054,108.7328262,250.1297760
5990,19.6126022,-2.8490853,19.6126022,-124.7709961,-37.8244286,182.6793823
6000,19.6126022,0.6823440,19.6126022,-10.7251911,-154.0534363,127.2137375
6010,19.6126022,2.9352763,18.7177734,30.1374054,-192.5114441,96.1526718
6020,19.6126022,3.8139439,13.5630836,19.1374054,-155.9694672,91.1068726
6030,16.9484673,3.8354914,10.5727406,-12.3816795,-83.3740463,105.8473282
6040,13.8958759,3.2680686,9.9765873,-43.7557259,-18.4122143,130.3969421
6050,15.1001530,2.5976956,11.3269100,-58.4351158,13.8702288,148.3358765
6060,10.2447367,2.8969693,11.5902710,-50.5038185,19.1984730,162.3053436
6070,11.0228481,0.6871324,11.5040808,-31.8625946,13.9312973,178.0763397
6080,12.6269550,0.7445929,11.4514084,-10.9541988,9.2137403,182.4961853
6090,16.1248665,1.1683644,10.0771437,8.1068707,23.0992374,176.9007568
6100,19.4503956,2.0063307,8.2647419,14.4122133,48.5572510,157.5038147
6110,19.6126022,3.0980811,7.0413113,2.5267177,61.1603050,121.9694672
6120,19.6126022,3.4979107,8.7579451,-21.2366409,106.6793900,84.0000000
6130,19.6126022,3.2896163,11.5663290,-35.7786255,116.7251892,37.0839691
6140,19.6126022,2.9065459,10.4985209,-18.0000000,65.3282471,-12.2977095
6150,13.6612453,1.7597293,9.4235296,2.3664122,-3.5954199,-34.2824440
6160,11.3676119,1.4796091,8.1977043,14.9465647,-45.5190849,-32.2366409
6170,11.8033543,1.9440818,7.9056134,22.8854961,-65.2137375,-27.2213745
6180,13.5966015,2.0566087,8.0085640,24.4351139,-50.5725174,-26.5572510
6190,15.3515425,2.2170193,8.5113440,18.3740463,-10.7786255,-27.0381680
6200,16.3762550,1.7693061,8.0588417,12.0763359,37.0305328,-30.8396950
6210,15.8184099,1.0318956,7.3932571,5.8702292,76.0992355,-35.2290077
6220,15.6364517,0.5961532,7.2304521,-4.0763359,97.1832047,-41.2213745
6230,15.8519287,0.2513899,7.6254935,-13.4580154,104.6641235,-52.0687027
6240,16.5486374,0.0454896,8.7052727,-17.7709923,107.1221390,-69.4885483
6250,17.7816448,-0.1005560,9.5504217,-11.2290077,108.3816757,-94.4503784
6260,17.4177284,-0.4572902,9.4402885,-3.0305343,107.8854980,-126.0534363
6270,16.7377777,-0.9361281,9.2679071,4.3740458,95.7633591,-157.2671814
6280,15.7753143,-1.3263810,9.4450769,11.9618320,78.8778610,-186.9084015
6290,15.3539371,-1.9321109,9.3277617,19.9389305,60.6870232,-212.9236603
6300,15.0379038,-2.2409613,9.2415714,24.5801525,46.4732819,-235.3511505
6310,16.6898956,-2.2218077,9.8377247,28.2671757,39.1984749,-250.1374054
6320,16.9412842,-2.4708035,10.0436249,31.3816795,39.4732819,-250.1374054
6330,15.5287132,-3.2058196,10.3452930,33.0992355,31.4427490,-250.1374054
6340,14.1257181,-3.9144998,11.2598734,38.1450386,16.5267181,-250.1374054
6350,13.5559006,-4.3119354,12.2319136,51.1145020,7.5877862,-250.1374054
6360,12.9453821,-4.7979555,12.5934362,69.7404556,0.1068702,-250.1374054
6370,11.6333666,-4.9392128,12.9525652,89.5419846,-11.1755724,-250.1374054
6380,10.4889441,-5.5425487,12.7394819,108.4809189,-24.0152664,-250.1374054
6390,9.3062143,-5.7699966,12.3875360,125.8396912,-26.6335869,-250.1374054
6400,8.2671366,-5.7891502,11.6118193,139.9923706,-22.8549614,-250.1374054
6410,7.0939832,-5.6550756,10.7882175,149.7557220,-15.4122133,-250.1374054
6420,5.1882086,-5.5688848,10.2471304,154.8091583,-5.4045801,-250.1374054
6430,3.2058196,-4.9224534,10.0340481,159.4580078,5.4045801,-250.1374054
6440,1.6136837,-4.3670015,9.8065996,165.2061005,12.2213745,-250.1374054
6450,0.2322364,-3.8354914,9.4857788,172.2671814,16.0687027,-250.1374054
6460,-0.7254394,-3.5936785,9.0236998,178.4656525,18.7786255,-250.1374054
6470,-1.5825592,-3.3327117,7.9558916,182.5267181,27.2366409,-250.1374054
6480,-2.8442972,-3.1124463,7.0652533,184.5954132,38.0534363,-250.1374054
6490,-3.9216824,-2.7916248,6.4930420,187.2061005,45.1145020,-250.1374054
6500,-4.7237358,-2.9089401,6.1003947,192.6412201,49.3053436,-250.1374054
6510,-5.8035154,-3.2608860,5.5664907,201.8167877,51.4122124,-250.1374054
6520,-7.3501616,-3.9982965,4.5992379,211.9007568,54.6564903,-250.1374054
6530,-9.4067707,-4.9440012,3.7397239,221.7099304,52.6335869,-250.1374054
6540,-12.3300753,-5.7723908,2.0997043,228.9236603,38.4351158,-250.1374054
6550,-15.0953646,-6.2320752,-0.1221037,228.9923706,10.3053436,-250.1374054
6560,-17.3889980,-6.2272868,-2.3630650,216.0763397,-13.0076332,-250.1374054
6570,-19.6131992,-6.0572991,-4.6255741,185.8167877,-17.8015270,-250.1374054
6580,-19.6131992,-5.8561873,-6.2105274,142.7175598,-16.4809170,-203.5725250
6590,-19.6131992,-5.9806852,-6.4236102,95.7099228,-11.5725193,-143.4351196
6600,-19.6131992,-6.4020624,-5.4156566,51.5572510,-3.4045801,-78.1221390
6610,-19.6131992,-7.2543941,-4.2113791,14.1832066,13.3129768,-9.2824430
6620,-19.6131992,-8.9734221,-3.2848279,-18.1068707,33.7709923,60.0916023
6630,-19.6131992,-11.2574787,-2.1691356,-45.7786255,49.2977104,133.6641235
6640,-19.6131992,-13.5056229,-0.9193687,-66.5038147,49.8931313,207.3587799
6650,-19.6131992,-15.7130651,1.0654143,-77.0305328,46.6412201,250.1297760
6660,-17.5015240,-17.5111008,2.9616125,-72.8320618,44.1832047,250.1297760
6670,-14.6859579,-18.9524040,4.0581512,-55.3129768,44.9618340,250.1297760
6680,-11.3364868,-19.6131992,3.9336534,-31.5801525,48.6183205,250.1297760
6690,-9.0548248,-19.6131992,2.9137285,-5.2748094,46.7709923,250.1297760
6700,-6.5169835,-19.6131992,0.9888002,17.9541988,35.9160309,250.1297760
6710,-4.1323709,-19.6131992,-1.7429699,27.8091602,27.9465656,250.1297760
6720,-1.7094513,-19.6131992,-5.2839761,17.2595425,27.0763359,250.1297760
6730,1.5083394,-19.6131992,-7.6997132,-19.6641216,34.3664131,250.1297760
6740,5.5617023,-19.6131992,-8.3700867,-78.3206100,59.3587799,250.1297760
6750,11.1186161,-19.6131992,-6.7468257,-150.0076294,100.1374054,250.1297760
6760,19.6126022,-19.6131992,-3.8187323,-230.7022858,171.0610657,250.1297760
6770,19.6126022,-19.6131992,0.6847382,-250.1374054,250.1297760,250.1297760
6780,19.6126022,-19.6131992,9.0715837,-250.1374054,250.1297760,250.1297760
6790,19.6126022,-13.7258883,19.3642044,-250.1374054,250.1297760,250.1297760
6800,19.6126022,-8.8944139,19.6126022,-250.1374054,250.1297760,250.1297760
6810,19.6126022,-7.0580707,19.6126022,-250.1374054,216.6259613,250.1297760
6820,19.6126022,-5.8968887,19.6126022,-122.9618301,91.8549652,250.1297760
6830,19.6126022,-3.2441268,19.6126022,3.4198472,-10.9694653,227.4885559
6840,19.6126022,-0.8523315,19.6126022,38.0916023,-68.2366409,207.6564941
6850,19.6126022,1.3694763,15.5622311,19.4274807,-41.7404594,196.5190887
6860,19.6126022,2.7916248,14.0898046,-12.4809160,38.3587799,179.7938995
6870,19.6126022,3.5218527,14.2454271,-36.7786255,120.9542007,156.0076294
6880,19.6126022,3.8690102,14.4800577,-46.9312973,167.1068726,129.1908417
6890,19.2349186,3.7421181,13.7785606,-42.9694672,170.6488495,100.9694672
6900,17.2621059,3.4284792,13.1129761,-29.7099228,138.3358765,70.6030502
6910,15.1815557,3.0310438,12.1193867,-10.3206110,82.3740463,39.8167953
6920,13.4266148,2.6144550,10.9414454,9.3587790,24.4045811,16.6793900
6930,12.2893744,2.5713594,9.7012558,20.4656487,-18.3664131,-1.5419847
6940,11.3628235,2.4229198,8.5400734,22.4122143,-39.8625946,-14.0458012
6950,10.5607700,2.0087249,8.2815018,22.0305347,-44.9465637,-20.7938938
6960,9.7467451,1.6831152,7.9654684,22.5801525,-43.1679382,-20.6717548
6970,9.4833841,1.3886299,7.6733770,19.7099228,-37.1145020,-15.7786255
6980,9.9358864,1.3694763,7.3956513,14.0610685,-23.3282452,-11.3129768
6990,10.5176744,1.2737088,7.2496057,7.6793895,-3.9541984,-10.7099237
7000,10.8193426,1.2210367,7.0077925,1.5648855,15.6793890,-14.3969469
7010,10.8887739,1.2138541,6.6869712,-5.7099237,30.5954189,-21.6335869
7020,11.0683374,0.9002152,6.4236102,-14.3816795,38.2290077,-31.1908398
7030,11.4538021,0.7876883,6.5888095,-22.8396950,44.7557259,-42.9618340
7040,11.3269100,0.5458752,6.9263902,-31.0381680,49.9771004,-56.4732819
7050,11.1497402,0.3710994,7.6063399,-36.8931313,53.8091621,-68.7251892
7060,11.2335367,0.4237715,8.1617918,-38.8854980,58.6030540,-79.5954208
7070,11.0755205,0.3687052,8.3892403,-38.6335869,63.8091621,-91.6030502
7080,11.5878773,0.3375807,8.3269911,-38.7709923,68.6717529,-104.3435135
7090,11.8703909,0.3950413,8.3054428,-40.9465637,70.3740463,-120.3053436
7100,12.0595322,0.5171449,8.7723103,-42.6183205,67.1221390,-138.9007568
7110,12.7849712,0.4309541,9.3588867,-41.2366409,59.2824440,-160.6717529
7120,13.9174232,0.5147507,10.2255831,-37.8320618,43.6106873,-189.2213745
7130,14.0586805,0.5386927,11.5399933,-31.5877857,19.5038166,-224.5648804
7140,13.6899757,0.3878587,13.2255030,-20.3740463,-8.2213745,-250.1374054
7150,13.3284531,0.1221037,14.9277716,-3.9083970,-32.5190849,-250.1374054
7160,12.9621420,0.0287303,16.3164005,16.8167934,-46.1984749,-250.1374054
7170,12.1983957,0.1867468,17.5111008,39.2137413,-50.2213745,-250.1374054
7180,11.9996777,0.3256098,18.3921642,64.8778610,-42.6564903,-250.1374054
7190,10.9103212,0.4165890,18.2173882,90.3358765,-28.6106873,-250.1374054
7200,9.2750902,0.3926471,17.8175583,113.7862625,-20.7404575,-250.1374054
7210,7.9822278,0.5171449,17.5972919,137.9313049,-22.2290077,-250.1374054
7220,7.1849627,0.5793939,16.9795914,163.0000000,-25.1832066,-250.1374054
7230,6.2536230,0.4932030,15.9357252,184.0992432,-22.4351139,-250.1374054
7240,5.1115947,0.3471575,14.8583393,201.3740387,-17.2748089,-250.1374054
7250,3.8163381,0.1197095,13.5175934,216.5190887,-6.4198475,-250.1374054
7260,2.5067163,-0.0670373,11.8919392,228.4580078,6.0458016,-250.1374054
7270,1.3479286,-0.1508339,10.2040358,236.2595367,15.8244276,-250.1374054
7280,0.2346306,-0.3351865,8.6262646,240.1145020,22.8931293,-250.1374054
7290,-1.0390782,-0.5410868,7.3980455,241.6335907,25.4961834,-250.1374054
7300,-1.9608412,-0.5506636,6.3469963,241.9007568,27.8931293,-250.1374054
7310,-2.7030399,-0.6823440,5.3821378,241.6717529,28.6641216,-250.1374054
7320,-3.4308734,-0.7134684,4.3813667,240.6412201,27.8778629,-250.1374054
7330,-4.2472920,-0.9265513,3.4715748,239.2290039,26.3816795,-250.1374054
7340,-5.2313042,-1.3191984,2.3175755,237.9313049,24.8931293,-250.1374054
7350,-7.4746594,-2.0230901,0.5434810,234.4427490,22.2213745,-250.1374054
7360,-9.9741936,-2.3391230,-1.7046629,224.6870270,12.1984730,-250.1374054
7370,-12.0308018,-2.2792683,-3.8187323,205.3511505,-6.5114503,-250.1374054
7380,-13.4816809,-1.9225341,-5.2049680,176.0763397,-26.1755733,-229.3740387
7390,-14.8703108,-1.5610116,-5.9232249,139.0305328,-41.0228996,-192.0763397
7400,-16.6898956,-1.4891858,-6.0405402,99.9007645,-53.6259537,-148.5267181
7410,-18.4927197,-1.7190280,-6.1937680,66.5725174,-70.3206100,-95.3358765
7420,-19.3211098,-1.7405758,-5.6814117,33.8931313,-91.0000000,-34.7709923
7430,-19.3163204,-1.8746504,-5.8370337,-0.3816794,-86.4809189,25.7480907
7440,-19.1750641,-2.6288199,-5.3366485,-38.5267181,-62.0839691,87.0305328
7450,-19.1798515,-3.9647777,-4.0389977,-74.5801544,-31.0381680,147.2900696
7460,-18.7728386,-5.9016771,-2.1882892,-100.3893127,0.9389313,207.9313049
7470,-18.2054157,-7.5967631,-0.2106887,-112.8015289,25.4809170,250.1297760
7480,-16.9173431,-8.8656836,0.6464311,-115.5038147,40.6717567,250.1297760
7490,-14.8750992,-10.0125008,1.1444225,-114.3511429,45.0000000,250.1297760
7500,-12.3731709,-11.4322548,1.5442522,-112.3816757,45.9923668,250.1297760
7510,-10.0867205,-13.1967726,1.4963684,-109.8702316,57.6106873,250.1297760
7520,-7.7260494,-14.4465389,1.7788827,-106.3664093,66.0076370,250.1297760
7530,-5.2025738,-15.4927998,1.7908537,-100.9083939,66.1374054,250.1297760
7540,-2.3774302,-16.7521439,0.9480990,-95.3740463,64.8549652,250.1297760
7550,0.4548960,-17.9707851,-0.1604107,-97.3435135,68.8778610,250.1297760
7560,3.4643922,-19.0864792,-1.7118455,-114.3358765,82.1145020,250.1297760
7570,6.1961622,-19.6131992,-2.5905130,-152.2213745,103.8702316,250.1297760
7580,9.6605549,-19.6131992,-1.8578910,-209.4580078,129.2977142,250.1297760
7590,13.4457684,-19.6131992,1.4772149,-250.1374054,167.6717529,250.1297760
7600,17.4512463,-19.6131992,5.5569139,-250.1374054,213.3129730,250.1297760
7610,19.0002880,-19.2492828,11.0539722,-250.1374054,227.7480927,250.1297760
7620,19.6126022,-18.4807491,15.9788208,-250.1374054,219.0152740,250.1297760
7630,19.6126022,-16.0123386,19.4575768,-250.1374054,221.3511505,250.1297760
7640,19.6126022,-12.7610302,19.6126022,-250.1374054,225.1908417,250.1297760
7650,19.6126022,-10.5703468,19.6126022,-250.1374054,218.7404633,250.1297760
7660,19.6126022,-7.8098459,19.6126022,-234.9847260,197.9465637,250.1297760
7670,19.6126022,-5.6263452,19.6126022,-192.3053436,173.5725250,250.1297760
7680,19.6126022,-3.7373297,19.6126022,-147.8702240,149.9465637,200.1068726
7690,19.6126022,-1.9345051,19.6126022,-101.7099228,121.0305328,133.9847260
7700,19.6126022,-1.0917504,19.6126022,-52.2900772,83.7404556,75.7557220
7710,19.1798515,-0.5793939,19.6126022,-8.7251911,42.0839691,31.8396950
7720,16.0386753,-0.0670373,19.6126022,24.0229015,3.9083970,0.7633588
7730,13.7163115,0.0766141,16.3738613,42.7022896,-18.0305347,-17.7251911
7740,11.7818060,0.2753318,13.7426472,45.9618340,-22.3511448,-26.3511448
7750,10.4769726,0.0047884,12.2247314,39.8931313,-13.0992365,-28.5877857
7760,9.0332766,-0.2681492,10.7451220,27.9389305,2.9618320,-25.3358784
7770,7.8673067,-0.5626345,10.5128860,14.5267172,15.5954199,-19.6183205
7780,7.1227136,-1.0390782,10.9486284,6.1603055,20.8549614,-12.9923668
7790,7.0963774,-1.5753766,11.4538021,4.1221375,19.9312973,-7.1526718
7800,7.4363523,-1.7717001,12.1672707,6.5954199,16.8931293,-3.3664122
7810,8.3629036,-2.0494261,12.3228931,10.3664122,16.2366409,-4.1755724
7820,9.0979195,-2.1404054,12.0619268,12.1755724,20.8702297,-10.8396950
7830,9.7635050,-2.0566087,11.6836443,12.3740454,26.2137413,-21.6183205
7840,9.9598284,-2.0661855,11.4681673,11.2366409,27.0458012,-35.4503822
7850,9.7347746,-2.2122312,11.2407198,9.5648851,24.6946564,-49.1297722
7860,10.3333216,-2.4372849,11.1186161,8.2137403,24.7938938,-61.1526718
7870,10.6565371,-2.5689652,10.9198980,3.8473282,29.3664131,-73.6946564
7880,11.0420017,-2.3582766,11.3939476,-2.0229008,35.6335869,-86.5648880
7890,12.1002331,-2.0637913,12.3492289,-4.1984735,42.4274826,-102.7633591
7900,13.5942078,-1.5586174,12.9884777,-0.8931298,55.3587799,-125.8778610
7910,14.5830078,-1.3934183,12.8783455,2.9083970,74.1832047,-156.2977142
7920,14.0658627,-1.4748207,12.7610302,1.1984733,88.7709961,-187.3969421
7930,12.7035694,-1.5658000,13.6516685,-1.6564885,99.1832047,-210.0381622
7940,11.0922794,-1.7477583,15.1624022,2.6717558,97.2137375,-223.0839691
7950,9.6150646,-1.5705882,17.3985748,19.9083977,86.7251892,-228.9923706
7960,8.6885138,-1.5490406,18.9811344,47.9007645,72.0763321,-229.4732819
7970,8.3437500,-1.4772149,19.6126022,83.5038147,64.4198456,-230.0839691
7980,8.8297710,-1.9799947,19.5988350,123.0839691,62.8015251,-236.1603088
7990,9.1529865,-2.6790979,18.5956688,161.2977142,56.9160309,-250.1374054
8000,9.4019823,-3.6463506,17.1591549,195.4427490,41.7328262,-250.1374054
8010,8.7531567,-4.4412212,15.8351688,223.9618378,16.4122143,-250.1374054
8020,7.2376347,-5.4204450,15.0474806,248.5801544,-15.7480917,-250.1374054
8030,5.7245069,-6.3182659,14.3699255,250.1297760,-50.2824440,-250.1374054
8040,4.2233500,-7.0484939,13.5750542,250.1297760,-74.2366409,-250.1374054
8050,3.3566537,-7.4866304,12.2893744,250.1297760,-82.9770966,-250.1374054
8060,2.0039365,-7.7452030,11.0036945,250.1297760,-78.1679382,-250.1374054
8070,0.9959828,-7.5393028,9.8257532,250.1297760,-63.7938919,-250.1374054
8080,-0.0718257,-7.2472115,8.9542685,250.1297760,-46.1145020,-250.1374054
8090,-1.0917504,-6.9934273,8.1450329,250.1297760,-25.9007626,-250.1374054
8100,-2.2768741,-6.6486640,7.0484939,250.1297760,-1.8167939,-250.1374054
8110,-3.3877780,-6.2224984,5.9567432,250.1297760,24.2900772,-250.1374054
8120,-4.4364328,-5.6957769,4.7333126,250.1297760,47.1374054,-250.1374054
8130,-5.2767935,-5.1092005,3.6104376,250.1297760,63.9007645,-250.1374054
8140,-6.2224984,-4.4148855,2.5067163,250.1297760,74.8625946,-250.1374054
8150,-7.1658092,-3.9982965,1.3000449,250.1297760,84.7557220,-250.1374054
8160,-8.3892403,-3.8881636,-0.5219333,250.1297760,87.6717529,-250.1374054
8170,-10.2207947,-3.7708483,-2.4205256,250.1297760,74.2366409,-250.1374054
8180,-12.5766773,-3.6128318,-4.0318151,242.1450348,39.9694672,-248.9236603
8190,-14.8128500,-3.4141142,-5.0206151,231.1450348,-13.2671757,-225.0839691
8200,-16.2589397,-3.1699069,-5.8777351,217.4045868,-76.7404556,-196.5496216
8210,-17.1783085,-2.8203552,-5.9639258,200.3740387,-135.9160309,-165.7862549
8220,-16.9149494,-2.4923513,-5.5305777,177.5725250,-170.8549652,-133.6259613
8230,-16.1176834,-2.3510940,-4.6495161,149.4274750,-172.0992432,-100.4122162
8240,-16.4959660,-2.3439114,-4.7596488,119.2442780,-138.5038147,-66.3664093
8250,-17.7074261,-2.9544299,-5.1139889,83.4045792,-86.6488571,-23.2671757
8260,-18.9715576,-3.6391680,-5.3749552,45.1984749,-35.1068687,29.6183205
8270,-19.5796814,-4.4172797,-4.8003497,9.9770994,4.0916033,89.3587799
8280,-19.5317974,-5.3079181,-4.0006905,-18.0687027,24.8244267,151.8625946
8290,-18.1216202,-6.6462698,-2.8131726,-38.0305328,30.9465656,211.5343475
8300,-16.3786507,-8.0181408,-1.8291607,-51.4656487,33.8396950,250.1297760
8310,-14.6835642,-9.4474716,-1.5849534,-64.3740463,44.5572510,250.1297760
8320,-13.8743277,-10.7762470,-1.4508789,-81.6106873,62.2442741,250.1297760
8330,-13.6684275,-12.2414904,-1.2162483,-101.5419846,78.7480927,250.1297760
8340,-13.2781744,-13.9509420,-0.9121862,-121.5343475,94.0152664,250.1297760
8350,-12.3348637,-16.1176834,-0.6248835,-139.8167877,108.8778610,250.1297760
8360,-10.8169479,-18.5166607,-0.3040621,-152.0229034,111.0687027,250.1297760
8370,-8.1426382,-19.6131992,-0.3950413,-162.6641235,100.5343475,250.1297760
8380,-4.3310885,-19.6131992,-0.5626345,-177.4580078,89.7938919,250.1297760
8390,1.5107336,-19.6131992,-1.1109039,-206.8702240,89.1450348,250.1297760
8400,10.1633339,-19.6131992,-1.3814473,-250.1374054,115.8931274,250.1297760
8410,19.6126022,-19.6131992,0.1939293,-250.1374054,176.9389343,250.1297760
8420,19.6126022,-19.6131992,2.6024840,-250.1374054,250.0534363,250.1297760
8430,19.6126022,-19.6131992,8.9207497,-250.1374054,250.1297760,250.1297760
8440,19.6126022,-19.6131992,19.6126022,-250.1374054,228.1603088,250.1297760
8450,19.6126022,-19.6131992,19.6126022,-250.1374054,91.0916061,250.1297760
8460,19.6126022,-15.9812145,19.6126022,-250.1374054,-41.3740463,250.1297760
8470,19.6126022,-11.8871508,19.6126022,-114.6183243,-110.4885483,250.1297760
8480,19.6126022,-7.5823979,19.6126022,7.2900763,-143.0686951,199.1221313
8490,19.6126022,-5.0445571,19.6126022,66.3435135,-136.8702240,149.3893127
8500,19.6126022,-1.2282192,14.0084028,61.3511467,-79.9847336,106.8854980
8510,19.6126022,1.9177457,10.9151096,16.9083977,-6.4961834,75.0152664
8520,19.6126022,3.0765336,10.4314833,-31.2671757,67.2519073,54.2366409
8530,19.6126022,2.7509236,11.6525202,-61.6641235,125.0687027,39.9847336
8540,19.5006733,2.4995339,12.9286232,-69.9236679,152.0686951,26.9694653
8550,17.6164455,1.9512644,13.2039547,-63.1603050,151.5496216,13.2290077
8560,16.2924595,1.6041069,13.2925396,-48.6641235,128.5190887,-3.9007633
8570,15.6196918,1.2306134,13.0196018,-31.7404575,96.7557220,-23.2977104
8580,14.9828377,1.0390782,12.2893744,-17.4961834,71.5419846,-44.7022896
8590,13.9030581,0.6440369,11.5567522,-7.4274807,52.2595406,-64.0229034
8600,12.4234495,0.1197095,11.1449518,1.3587786,38.0458031,-78.4961853
8610,11.0946741,-0.3423691,10.4123297,10.4503813,26.9847336,-86.7709961
8620,9.5456333,-0.8666966,9.5073261,15.4580154,17.3206100,-89.0839691
8630,8.5376797,-0.9241571,8.7627335,15.3435116,10.8702288,-85.9618301
8640,8.0277176,-0.9624642,8.6502066,13.1297712,10.6488552,-80.9847336
8650,7.6590118,-1.0223188,8.6142941,9.2977095,13.9770994,-75.3893127
8660,7.3477674,-0.9121862,8.8082228,5.8320613,16.4961834,-66.9007645
8670,7.7260494,-0.7565638,8.8537130,3.7099237,17.2137413,-60.4732819
8680,8.5544386,-0.4285599,8.9758167,1.4809160,22.1603050,-58.0534363
8690,9.3157911,-0.2633608,9.0141230,-0.3893130,29.9312973,-60.2748108
8700,10.2998028,-0.0574605,9.0332766,-2.8778627,38.6183205,-67.0381699
8710,10.6637201,0.2489957,9.2439651,-6.1526718,40.8320618,-77.6641235
8720,11.2814207,0.5458752,9.3325500,-9.6030531,39.7633591,-91.4198456
8730,11.6142130,0.8475431,9.7443514,-11.7633591,40.3816795,-107.4809189
8740,11.3005743,1.1300575,10.5344334,-11.4351149,38.8473282,-125.0152664
8750,11.1353750,1.2066715,11.0850973,-7.3358779,34.1526718,-143.6106873
8760,10.8552551,1.1635761,11.4968977,-0.8396947,26.8396950,-166.0076294
8770,11.0276365,1.1156923,11.8727856,6.8702292,14.4122133,-190.6793823
8780,11.7818060,1.1180865,11.8656025,13.3053436,2.7251909,-219.8931274
8790,12.6652622,1.2401901,11.8296900,15.6641226,-1.9007634,-250.1374054
8800,11.4466200,1.0630201,12.5024576,16.2900772,-6.4656487,-250.1374054
8810,9.5121145,0.5865764,13.9748840,22.8931293,-16.5114498,-250.1374054
8820,7.7212610,0.0335187,15.3826675,38.8702278,-30.5877857,-250.1374054
8830,7.0006099,-0.3016679,16.4911766,62.2748108,-41.0839691,-250.1374054
8840,3.8857694,2.1475880,16.2134514,87.9236679,-44.9541969,-250.1374054
8850,5.7508430,-0.7302278,15.7202482,104.9007645,-55.5114517,-250.1374054
8860,5.6383162,-0.8116302,14.5327301,116.6793900,-40.3511467,-250.1374054
8870,4.2736282,-0.0790083,14.3795023,130.2213745,-16.4274807,-250.1374054
8880,2.7988074,0.2705434,13.3715477,141.9694672,4.2061067,-250.1374054
8890,1.8052188,0.5195391,12.3683825,152.0610657,24.1603050,-250.1374054
8900,0.8044477,0.7062859,11.4705620,162.6412201,35.6717567,-250.1374054
8910,0.1484398,0.8331779,10.3859940,174.6412201,40.4122124,-250.1374054
8920,-0.3471575,1.1851238,9.0189114,184.7633514,39.7175560,-250.1374054
8930,-0.6607963,1.5993185,7.7356262,190.5496216,37.2061081,-250.1374054
8940,-1.0438666,2.0111191,6.6079631,192.4580078,36.3358765,-250.1374054
8950,-1.3838415,2.1380112,5.6478930,191.9847260,37.7099228,-250.1374054
8960,-1.8315549,2.4660151,4.8841467,190.2213745,38.3358765,-248.6870270
8970,-2.4947455,2.6671271,4.2401094,189.9084015,33.8091621,-244.8015289
8980,-3.2680686,2.8514795,3.7564833,192.3282471,20.2519093,-242.6564941
8990,-3.7756367,2.6982515,3.1459649,196.3511505,1.1145039,-240.1832123
9000,-4.1898317,2.4348907,2.6024840,200.4045868,-23.7709923,-238.3053436
9010,-4.6782460,2.2122312,1.6950861,203.2748108,-49.1908379,-236.8473358
9020,-5.3414369,2.0781565,0.9026094,201.8854980,-73.4885483,-235.1221313
9030,-5.4874821,1.7812769,0.5339043,196.8549652,-98.6412201,-234.0534363
9040,-6.0860295,1.2928623,0.5626345,192.0305328,-120.2824402,-233.9084015
9050,-7.0987716,0.5985473,0.5267217,186.6030579,-136.9007568,-230.7404633
9060,-8.0420828,0.1053443,0.6607963,179.7557220,-147.3969421,-222.7557220
9070,-9.2798786,-0.5793939,0.4692611,169.2900696,-148.1450348,-208.4885559
9080,-11.0803089,-1.4580613,0.0670373,152.7251892,-139.5038147,-183.8167877
9090,-13.1417055,-2.5306582,-0.7374104,126.7557220,-118.2213745,-144.7328186
9100,-15.6364517,-3.5434003,-2.0781565,86.8320618,-78.8625946,-87.5343475
9110,-17.8774128,-5.0373745,-3.4739690,31.0687027,-22.4656487,-11.7786255
9120,-19.6131992,-6.9455438,-3.2800395,-33.2671738,42.3129768,74.0916061
9130,-19.6131992,-8.4754305,-0.4572902,-86.9007645,101.3282471,165.6106873
9140,-19.4192715,-9.7682934,3.0190730,-112.4885483,143.1145020,250.1297760
9150,-18.3466740,-11.3724003,5.0325861,-111.9542007,154.5267181,250.1297760
9160,-16.2613354,-12.9190464,6.0070214,-94.7022934,145.3129730,250.1297760
9170,-13.0076313,-14.3938665,5.4587522,-68.8702316,129.8931274,250.1297760
9180,-9.7635050,-16.2182388,3.7636659,-45.1145020,112.6183243,250.1297760
9190,-6.4714942,-17.8175583,1.6855093,-25.9465656,94.8091583,250.1297760
9200,-3.6990228,-19.3809643,-0.9026094,-17.7633591,75.2213745,250.1297760
9210,0.0047884,-19.6131992,-3.6056492,-26.4503822,63.7099228,250.1297760
9220,3.9887197,-19.6131992,-5.6191626,-55.0534363,70.6030502,250.1297760
9230,8.5209198,-19.6131992,-5.8921003,-103.0152664,98.4198456,250.1297760
9240,14.5447006,-19.6131992,-4.9368186,-173.7251892,145.0000000,250.1297760
9250,19.6126022,-19.6131992,-1.8985922,-250.1374054,229.7709961,250.1297760
9260,19.6126022,-19.6131992,1.4173602,-250.1374054,250.1297760,250.1297760
9270,19.6126022,-19.4432125,9.0141230,-250.1374054,250.1297760,250.1297760
9280,19.6126022,-18.5214500,19.6126022,-250.1374054,250.1297760,250.1297760
9290,19.6126022,-16.0769825,19.6126022,-250.1374054,75.1374054,250.1297760
9300,19.6126022,-13.1129761,19.6126022,-139.9084015,-75.6335907,250.1297760
9310,19.6126022,-8.3030491,19.6126022,35.3435097,-139.0839691,250.1297760
9320,19.6126022,-3.1914546,19.6126022,120.6946564,-136.3282471,200.1679382
9330,19.6126022,0.8690908,15.8854465,134.0915985,-73.2671738,149.7404633
9340,19.6126022,4.2616572,10.0675669,101.7404556,5.8167939,109.1374054
9350,19.6126022,6.2177100,7.4579000,51.8931313,72.7328262,75.5496216
9360,19.6126022,6.1578555,6.9694853,8.3969469,113.0687027,49.6870232
9370,19.6126022,5.6263452,7.5776095,-18.4961834,124.0381699,31.1068707
9380,19.2516766,4.9679432,9.0189114,-28.3511448,113.1679382,15.5343513
9390,17.5518036,4.3550305,10.1441803,-20.2824421,88.0152664,-1.2442749
9400,16.3427372,3.5170643,10.1298151,-7.0305343,62.6259537,-15.0916033
9410,15.2725344,3.0932927,9.4402885,2.5725191,44.9389305,-30.4580154
9420,13.8455973,2.6958573,8.6047173,7.4580154,33.6335869,-43.5572510
9430,12.5120344,2.1236460,8.2767134,10.4045801,26.3893127,-52.4885483
9440,10.8480721,1.4269369,7.7499914,11.7633591,19.3969460,-55.7022896
9450,7.6614060,0.3447633,7.5177550,-0.6106870,12.0000000,-27.4274807
9460,8.2120695,0.2202654,7.5297260,-3.8167939,13.8931293,-18.9618320
9470,9.2631187,0.1221037,7.7835097,-7.0992365,18.7480907,-16.3435116
9480,10.4243011,0.1604107,8.0851774,-11.9312973,29.2671757,-18.8549614
9490,10.7235746,0.5315101,8.6549950,-16.1450386,43.7862587,-25.0229015
9500,10.9869356,0.5698171,9.1553802,-18.0916023,54.1679382,-32.7404594
9510,10.9031391,0.5506636,9.6198530,-17.6946564,58.2061081,-41.3282433
9520,10.7906122,0.5913648,10.2878323,-15.1145039,55.4045792,-48.4274826
9530,11.4777441,0.7996593,11.1473465,-8.8167934,48.3816795,-56.1221390
9540,12.4258432,1.1970947,11.7746239,0.4045801,42.1450386,-68.9847336
9550,13.1776190,1.3120158,12.2774038,11.5801525,37.1374054,-87.8778610
9560,13.3595772,1.4676381,12.6078014,22.3664131,29.9236641,-111.2519073
9570,13.4218264,1.3239868,12.9908724,34.2977104,19.5648861,-135.2519073
9580,13.3571825,1.4891858,13.3428183,47.0458031,4.4503818,-159.1908417
9590,13.3140879,1.5969244,13.8910875,60.7786255,-13.6335878,-184.6183167
9600,13.0387554,1.6879035,14.4178085,79.1679382,-34.6717567,-212.0229034
9610,12.5335817,1.7525467,14.3531656,99.0839691,-56.8931313,-237.2290039
9620,12.3635941,1.6232605,14.1496601,114.1908417,-74.8931274,-250.1374054
9630,12.1888189,1.2186425,13.9365768,127.8320618,-89.5954208,-250.1374054
9640,12.7514534,1.0773853,13.6181498,138.6641235,-94.2595444,-250.1374054
9650,12.9765072,0.9600700,13.1345234,145.8931274,-85.4503784,-250.1374054
9660,12.3707771,0.5698171,12.4449968,150.5877838,-70.1221390,-250.1374054
9670,11.2933912,0.1412572,11.6046362,155.1450348,-59.9083977,-250.1374054
9680,9.8712435,-0.2920911,11.2933912,160.6488495,-58.5496178,-250.1374054
9690,9.1625633,-0.5865764,11.0084829,169.4809113,-65.4656525,-250.1374054
9700,8.8273764,-0.8331779,10.6900558,179.4503784,-69.9007645,-250.1374054
9710,8.4371233,-1.3598996,10.1250277,188.8854980,-64.4656525,-250.1374054
9720,7.8673067,-1.6759326,8.9901810,195.8244324,-48.3435097,-250.1374054
9730,6.9670911,-1.8459201,7.8936424,200.0839691,-23.9541988,-250.1374054
9740,5.2145448,-1.7573351,6.3853035,203.0458069,-0.0763359,-250.1374054
9750,2.7221935,-2.3151813,5.0732875,202.5572510,14.6488552,-250.1374054
9760,-0.1149211,-2.7796540,4.4029145,198.1068726,11.9694653,-250.1374054
9770,-2.3558824,-3.0478032,4.6447277,195.3053436,-0.6412213,-250.1374054
9780,-3.5625539,-3.4643922,5.0445571,199.9160309,-14.4198475,-250.1374054
9790,-4.2113791,-4.1132174,5.3007355,212.5038147,-28.0687027,-250.1374054
9800,-4.6590929,-4.5992379,4.9080882,229.0915985,-38.6641235,-250.1374054
9810,-5.5210009,-5.3558016,4.0509686,245.2977142,-46.5038185,-250.1374054
9820,-6.8258343,-6.2655940,2.4109488,250.1297760,-53.5267181,-250.1374054
9830,-8.9686337,-7.1179252,0.6009415,250.1297760,-63.5954208,-250.1374054
9840,-11.4729557,-7.6638002,-1.1156923,247.0992432,-82.1908417,-250.1374054
9850,-13.0267849,-7.2711535,-2.2505381,227.4427490,-103.0839691,-250.1374054
9860,-15.9596672,-8.0061693,-2.5857246,202.1908417,-117.8549652,-250.1374054
9870,-17.2740765,-6.6223278,-3.1076579,168.9618378,-122.0687027,-250.1374054
9880,-17.6739063,-5.9543490,-3.0238612,131.2061005,-108.9007645,-228.6793823
9890,-18.0904961,-5.7556314,-2.9328821,94.0000000,-78.8549652,-179.2290039
9900,-18.2772427,-5.7221127,-3.1770895,55.8396950,-46.9312973,-125.7328262
9910,-18.3227310,-5.8585815,-3.3375001,17.3969460,-13.6183205,-69.6946564
9920,-18.3347034,-6.0429344,-3.4500270,-19.6259537,10.6793890,-14.3740454
9930,-17.9372673,-6.4427638,-3.0837159,-55.0763359,27.3358784,44.2900772
9940,-17.2381649,-7.0460997,-2.3582766,-85.7862625,42.5038185,102.7175598
9950,-16.7449608,-7.8601241,-1.7932479,-111.3282471,55.0839691,160.9084015
9960,-15.9860029,-8.7986460,-0.8738791,-132.7175598,62.6335869,219.9160309
9970,-15.0953646,-9.6294298,-0.0814024,-145.3511505,64.8854980,250.1297760
9980,-14.2238798,-10.7068148,0.5865764,-150.7557220,59.6335869,250.1297760
9990,-12.8759508,-11.7578640,0.7589580,-153.1221313,55.4351158,250.1297760
