timestamp,acclX,acclY,acclZ,gyroX,gyroY,gyroZ
0,2.0494261,4.0533628,8.1546097,-14.6793890,-40.5801544,30.3053436
10,1.9967541,4.2520804,7.5776095,-15.0992365,-69.6259537,34.0381660
20,2.4324965,4.5250182,6.6199336,-21.3511448,-97.0076370,37.3358765
30,3.1818779,4.6183915,6.1554613,-30.2748089,-113.5114517,38.3206100
40,4.0294209,4.4005203,5.8777351,-41.1068687,-111.6793900,35.1526718
50,4.2736282,3.9240766,6.4810710,-48.6793900,-89.7557220,29.5877857
60,4.1850433,3.7564833,6.7731619,-50.2824440,-94.0381699,25.9083977
70,4.2999644,3.4452386,8.0875721,-47.8015251,-86.8625946,24.5419846
80,4.1826491,2.9999194,8.8465300,-42.0458031,-78.6870193,26.2137413
90,4.3071470,2.5809362,9.3876171,-33.6335869,-63.9465637,28.4961834
100,4.2832050,2.4229198,9.8951855,-23.8473282,-39.5038185,29.6564884
110,3.9839313,2.4803803,9.8736372,-16.5496178,-31.7022896,27.1068707
120,4.0126615,2.7126167,9.4043760,-14.2900763,-39.0000000,24.1374054
130,3.8187323,2.5785420,9.2415714,-14.1832066,-42.6717567,24.9160309
140,3.8235207,2.2026544,9.1410151,-14.0076332,-47.9007645,27.7786255
150,3.7708483,2.1068866,9.0404596,-14.4122133,-55.5190849,31.2137413
160,3.7301471,2.2002602,9.0667953,-14.4961834,-66.8702316,33.8244286
170,3.9360476,2.0805507,8.8728657,-13.8625956,-80.1068726,35.6259537
180,4.2592630,2.0278785,8.7196379,-12.7786255,-98.3435135,37.2824440
190,4.4962878,1.8602852,8.3557215,-11.8702288,-115.0000000,39.0763359
200,6.3110833,0.9480990,8.4227581,-11.5190840,-127.8702316,38.4656487
210,5.6071916,2.2074428,8.0348997,-8.6564884,-135.0992432,35.7175560
220,6.6031747,2.7269819,8.0732069,-8.0839691,-143.3129730,34.5648842
230,7.6757712,2.8179610,7.7499914,-10.7633591,-136.1832123,30.5038166
240,8.4514885,2.8562679,7.6159167,-15.5648851,-113.3053436,24.0000000
250,8.3078375,3.0837159,8.1186962,-18.9465656,-89.9007645,18.7404575
260,8.3461447,3.0238612,8.2671366,-18.6259537,-70.4503784,14.6030531
270,7.9941988,2.7892308,8.3748751,-14.9236641,-56.3893127,11.3893127
280,6.8258343,2.5857246,7.3429790,-5.7480917,-51.9694672,10.4503813
290,6.5888095,2.6120608,6.6199336,-3.9389312,-54.7175560,12.3587790
300,6.6726060,2.8395088,6.2847471,-3.3740458,-59.6793900,13.4351149
310,6.8401995,2.9807658,5.9758968,-4.3358779,-64.7404556,12.9847326
320,7.1682034,3.1914546,5.8370337,-8.2977095,-67.2442780,10.4732828
330,7.3094602,3.2249732,5.9423780,-13.1679392,-63.4351158,7.8549619
340,7.1514440,3.0789278,6.0740585,-18.5419846,-54.3969460,6.2213740
350,7.1418672,3.0214672,6.2488346,-23.7480907,-45.1832047,5.7251906
360,7.1993275,2.8754215,6.5217719,-28.0992374,-35.9771004,4.9083967
370,6.8689294,2.6455793,6.7109132,-30.7022896,-26.9083977,5.5496182
380,6.7587967,2.5569944,6.9503322,-31.9160309,-19.4122143,7.1908398
390,6.8497758,2.4037662,7.1418672,-32.2137413,-15.1526718,8.4122133
400,7.0963774,2.3127871,7.3022780,-31.2977104,-11.9465647,8.2290077
410,7.2735476,2.3582766,7.1897511,-29.6183205,-11.4427481,7.7938933
420,7.5895805,2.4181314,6.9886389,-28.1984730,-13.2137403,6.3206105
430,7.7068958,2.2840567,6.7875271,-27.1297703,-19.7786255,3.5190840
440,7.9463148,2.4061604,6.9192076,-24.2900772,-29.7709923,-0.7557252
450,8.0133524,2.3534882,6.6510582,-21.1755733,-40.7786255,-5.7633586
460,8.2024927,2.5210814,6.5744443,-19.4274807,-46.5114517,-9.5419846
470,7.9918046,2.6910689,6.2033448,-19.8167934,-45.4580154,-11.2442751
480,8.0348997,2.3199697,6.0213866,-21.6717548,-43.7022896,-13.0687027
490,7.6733770,2.2672975,5.9663200,-22.9694653,-42.3740463,-14.0992365
500,7.4770536,2.2481439,5.6862001,-23.8244267,-43.2366409,-12.9083967
510,7.5464849,2.3079987,5.5904322,-24.1374054,-44.5572510,-11.9389315
520,7.6661944,2.3606708,5.6000090,-24.7557259,-44.9465637,-11.9847326
530,8.0013809,2.3654592,5.4970589,-25.8625946,-43.7099228,-12.5877867
540,7.9846220,2.3319404,5.4707227,-27.3740463,-39.8244286,-13.4580154
550,7.8601241,2.3343346,5.4180508,-28.0305347,-35.8167953,-13.4961834
560,7.7954807,2.1308286,5.4563580,-27.6488552,-34.8702278,-13.1297712
570,7.5871863,1.9488702,5.3773494,-25.7709923,-36.4580154,-11.8244276
580,7.4650826,1.8578910,5.1618724,-23.9465656,-43.1908379,-10.3129768
590,7.4195933,1.6998745,4.6495161,-23.7709923,-55.5343513,-9.7175570
600,7.4698710,1.6807210,4.7524662,-25.6641216,-71.2519073,-8.8625956
610,7.6566176,1.4436963,4.9200592,-28.0458012,-84.2900772,-8.0458012
620,7.8146343,1.4317253,5.6047974,-29.2366409,-93.1221390,-6.9160304
630,7.8912482,1.2665262,6.1961622,-28.1145039,-95.4961853,-4.4809160
640,7.8888540,1.1468167,6.3350253,-27.6488552,-86.5801544,0.3740458
650,7.7164726,1.1994889,6.0980005,-30.6946564,-68.2290039,6.5801525
660,7.1011658,0.7709290,6.1722202,-34.6335869,-53.1908379,15.7557249
670,6.3948798,0.6440369,6.6247220,-35.8625946,-41.3435097,26.9923668
680,5.9567432,0.7517755,6.9024482,-34.0763359,-30.5877857,38.7862587
690,5.8250628,0.7493813,6.9838505,-32.2290077,-20.8931293,49.7633591
700,5.6119800,0.6919208,7.2496057,-30.3893127,-14.9389315,60.0228996
710,5.7676024,0.6560079,7.4842362,-27.5038166,-11.1068707,69.1755753
720,6.1961622,0.7541697,7.8553357,-23.2671757,-7.9618320,76.2824402
730,6.6342988,0.9169745,8.3102312,-17.3358784,-4.9847326,80.3816757
740,7.2304521,1.1061156,8.4826136,-11.3969469,-3.0000000,81.4427490
750,8.3341732,1.2138541,8.9063845,-0.1450382,4.5496182,75.5572510
760,8.4443064,1.1396341,8.8225880,3.7404580,9.0763359,70.0610657
770,8.4897957,0.8978211,9.0428534,6.9083967,11.7328243,64.7175598
780,7.5991573,0.3232156,9.2774839,19.4732819,7.4503818,60.6488533
790,7.4531116,0.0215477,9.1266499,28.4732819,0.0610687,61.7557259
800,7.6111283,-0.0526722,8.7028790,36.8854980,-6.0534353,63.8167953
810,7.9343438,-0.0454896,8.2000990,43.3435097,-8.8778629,65.9312973
820,8.3676920,-0.1221037,7.5393028,48.1832047,-9.1832066,68.0305328
830,8.9231443,-0.1580165,7.0652533,50.3358765,-6.6870227,70.2137375
840,9.3540983,-0.1651991,6.7899213,51.8015251,-1.9541985,71.4045792
850,9.9167328,0.1173153,6.4643116,51.5725174,5.5725193,69.8015289
860,9.8161764,0.7709290,6.8473821,50.1221390,7.6412215,60.0610695
870,9.3133974,1.0342898,7.0125809,50.1374054,3.6106870,57.3664131
880,9.4762020,2.2218077,11.0252428,61.9312973,-6.3053436,59.9160309
890,10.2974091,1.9033806,12.1361465,71.0076370,-9.9007635,57.5954208
900,11.0611553,1.3575054,12.9429884,82.9007645,-12.0000000,54.0534363
910,11.9565821,0.8044477,13.8623571,99.7328262,-7.3816795,50.9160309
920,12.9118633,0.0670373,13.9724894,118.0992355,-0.5114504,47.9923668
930,13.9126348,-0.5123565,13.5606890,136.9313049,7.2595420,44.0916023
940,14.6189203,-0.7254394,12.6030130,154.4961853,14.5648851,38.1984749
950,15.1073351,-1.0989330,11.0036945,168.2213745,20.6488552,32.5877876
960,15.9596672,-1.5418580,9.3014259,176.5648804,24.7328243,27.1221371
970,16.9628315,-1.4125718,7.9941988,180.5496216,22.8702297,19.1755733
980,17.9516335,-1.3575054,7.0221577,182.6183167,20.1908398,7.1908398
990,18.9907112,-1.4053892,6.2919297,183.9923706,16.1984730,-9.7328243
1000,19.6126022,-1.2497669,5.4755111,185.2977142,8.9847326,-31.8244267
1010,19.6126022,-1.1228749,4.4172797,184.3816833,0.0152672,-57.7862587
1020,19.6126022,-1.1563935,3.4141142,179.0915985,-6.3664122,-85.7786255
1030,19.6126022,-1.4508789,2.8538737,171.5801544,-9.2366409,-112.0992355
1040,19.2444954,-1.9488702,2.0973101,164.2137451,-11.3129768,-133.6488495
1050,17.8774128,-2.4372849,0.8978211,155.1755676,-12.8702288,-149.4809113
1060,16.2517586,-2.7341642,-0.1987177,141.1603088,-13.0000000,-159.0458069
1070,14.4609041,-2.7892308,-0.7900825,124.0076370,-13.5114508,-162.0534363
1080,13.4960461,-2.5498118,-0.6799498,106.1221390,-15.6259546,-164.0076294
1090,12.6149845,-2.0733681,-0.2585725,92.1526718,-18.4274807,-165.9923706
1100,11.9086981,-1.6974803,0.4261657,85.2595444,-22.9847336,-169.1984711
1110,11.3173332,-1.2737088,0.6679789,76.7938919,-29.0076332,-171.0229034
1120,10.9629936,-0.9576758,0.7541697,69.7786255,-29.4274807,-173.3206177
1130,10.3333216,-0.9409165,0.6464311,61.6106873,-29.1832066,-175.8778687
1140,9.3110027,-1.0103480,0.3998296,54.1679382,-32.0763359,-175.6717529
1150,8.5688038,-1.0534433,0.1891410,47.9771004,-34.5725174,-171.7862549
1160,7.9941988,-1.1252691,-0.0095768,41.5343513,-38.7633591,-165.4198456
1170,7.2615767,-1.1109039,-0.0670373,36.6564903,-45.2061081,-157.1526642
1180,6.7827387,-0.9097920,-0.3495516,32.3664131,-52.3282433,-147.8396912
1190,6.4954362,-0.7062859,-0.7158626,26.9465656,-59.3664131,-138.6488495
1200,6.4499464,-0.2777260,-1.2473727,19.1984730,-66.4885483,-131.9389343
1210,6.9072366,0.0311245,-1.5777708,7.8778625,-70.3587799,-128.3435059
1220,6.9551206,0.2777260,-1.5658000,-4.6335878,-71.3129807,-127.9312973
1230,6.6893654,0.4620786,-1.4532729,-14.4503813,-71.9618301,-128.6488495
1240,6.3350253,0.6105183,-1.5346755,-22.4198475,-74.1145020,-129.1450348
1250,5.8968887,0.7709290,-1.5490406,-30.9541988,-77.5801544,-129.7862549
1260,5.4324160,0.8547257,-1.6998745,-39.9618340,-84.1984711,-130.4503784
1270,4.9511838,0.7254394,-1.6735384,-49.2213745,-92.2290039,-130.4961853
1280,4.4340386,0.8858501,-1.4029950,-58.4122124,-100.1755753,-130.0839691
1290,4.0030847,1.1228749,-0.9576758,-67.0000000,-108.5267181,-128.6412201
1300,3.5314295,1.1539993,-0.4812321,-74.7251892,-114.4732819,-125.9770966
1310,2.9999194,1.3096216,0.0407012,-81.1145020,-116.7099228,-120.9923630
1320,2.3917952,1.3191984,0.5099624,-86.6030502,-117.8931274,-113.5496216
1330,1.9225341,1.3694763,0.8427547,-92.8091583,-119.0534363,-103.5954208
1340,1.5274929,1.6424140,1.2354017,-99.0305328,-119.1450348,-92.5419846
1350,1.2090657,1.9009864,1.6663558,-104.3358765,-119.1068726,-81.2137375
1360,1.0893562,2.1140692,2.1858950,-109.3740463,-119.8625946,-69.6946564
1370,1.0773853,2.0494261,2.6719155,-114.0916061,-120.3816757,-57.8320618
1380,0.9744351,1.8961980,3.1842721,-117.9923630,-120.8244247,-45.5114517
1390,0.9935886,1.6615674,3.7301471,-122.0000000,-123.7862625,-32.1832047
1400,1.2114599,1.5969244,4.5058646,-126.0152664,-126.0152664,-18.9541988
1410,1.3239868,2.0613971,5.5233951,-128.7480927,-121.6412201,-5.4732823
1420,1.3886299,2.5881188,6.3709383,-130.6183167,-107.9923630,8.2977095
1430,0.9935886,2.7988074,7.5225434,-128.5114441,-91.2290039,21.6106873
1440,0.7110743,2.9448531,8.2599535,-123.4274826,-78.0610657,36.0534363
1450,0.5578461,3.0693510,8.6669655,-115.8473282,-67.4656525,50.1984749
1460,0.5889706,3.2967989,8.5400734,-106.4274826,-60.4045792,63.5114517
1470,0.9600700,3.3494711,8.2264347,-98.1526718,-52.9618340,75.3664093
1480,1.0295014,3.6080434,8.0133524,-93.0000000,-44.0305328,87.3282471
1490,1.4700323,4.1539187,7.8888540,-89.6488571,-35.1984749,96.3893127
1500,2.0853391,4.6183915,7.8313937,-86.0534363,-32.8549614,103.5648880
1510,2.9999194,5.0589223,7.8864598,-81.2824402,-34.8015251,106.7328262
1520,3.8378856,5.2552457,7.6446471,-76.8167953,-38.5343513,106.4198456
1530,4.4675574,5.1642666,7.3262196,-73.8854980,-42.4732819,104.8091583
1540,5.1834202,4.9487896,7.0101867,-73.0000000,-43.0152664,102.3969498
1550,5.6694407,5.0134325,6.9192076,-73.5190811,-39.8625946,100.2213745
1560,6.0213866,5.0445571,6.9670911,-74.0305328,-36.2824440,97.8854980
1570,6.2177100,5.0684991,7.2089043,-73.4045792,-30.3816795,99.4580154
1580,6.4355812,5.1259594,7.5393028,-71.2061081,-23.9236641,100.4198456
1590,6.8904772,5.2480631,7.5369086,-68.0076370,-15.6717558,100.9770966
1600,7.2735476,5.2432747,7.5847921,-66.3511429,-7.0687022,100.0916061
1610,7.9080076,5.0254035,7.7021074,-63.4274826,11.0305347,95.1984711
1620,7.7188668,4.7692256,7.6973190,-61.9312973,20.0916023,95.1297684
1630,7.5057840,4.6255741,7.8625183,-60.5114517,25.7328243,94.8931274
1640,7.3453732,4.6686692,8.1091194,-58.9541969,29.5038166,96.0763321
1650,7.5225434,4.5992379,8.5041609,-56.7786255,33.4351158,95.4809189
1660,7.8074517,4.5274124,8.8920193,-53.4198456,36.1145020,95.3358765
1670,7.9750452,4.4172797,9.2511482,-49.1908379,36.2595406,95.0534363
1680,8.2838955,3.9935081,9.6797075,-43.7633591,33.8931313,94.1755753
1690,8.5831690,3.5386121,9.9215212,-37.0000000,29.8625946,93.1526718
1700,8.9710283,3.2465210,10.0603838,-29.7633591,23.6793900,91.8702316
1710,9.4522600,3.0071020,10.5200682,-20.3587780,16.4351139,88.3816757
1720,9.7826586,2.9687948,10.7570934,-10.0610685,9.4351149,84.6870193
1730,9.9406748,2.5522060,10.1250277,10.6183205,16.1297703,79.6335907
1740,9.9837704,2.4971397,10.2974091,16.5190830,21.6106873,79.8625946
1750,9.9694052,2.4181314,10.1226330,23.9465656,24.6946564,80.0992355
1760,10.0196829,1.9105632,8.5855637,41.2137413,13.6793890,78.7175598
1770,9.9023676,1.4580613,8.8680773,54.5801544,9.5038166,66.5725174
1780,10.0125008,1.9488702,9.8832140,91.9160309,49.3969460,75.2595444
1790,10.1848822,1.8291607,9.7994175,97.4580154,44.0458031,74.0687027
1800,10.4745789,1.8507085,9.5169029,101.2595444,35.6183205,72.7404556
1810,11.1257982,1.9345051,9.6557665,105.1984711,27.1679382,69.8778610
1820,12.1553001,1.8363433,10.4458485,109.1221390,20.8091602,63.0763359
1830,12.4856977,1.9129574,10.5751352,114.0457993,14.4961834,56.9160309
1840,13.8910875,1.8411317,10.8073711,120.4503784,14.6564884,48.6412201
1850,15.0402985,1.6591733,10.7977943,125.6564865,16.7099228,37.4732819
1860,15.7657375,1.5155219,10.8983507,131.7862549,16.1832066,24.4961834
1870,15.8878412,1.2952565,10.8169479,139.1679382,10.7328243,11.0687027
1880,16.3044300,1.0678085,10.6685085,145.2595367,2.9236641,-3.4045801
1890,16.8694592,0.8858501,10.5152798,151.6564941,-4.6488547,-22.5648861
1900,13.2350798,-0.1651991,10.2375546,160.3587799,-9.4732828,-25.2442741
1910,15.9883976,-1.3910241,7.7978749,168.5801544,-5.4656487,-24.3816795
1920,14.8104563,0.0718257,6.7420373,167.3435059,-10.8931293,-29.9083977
1930,15.6388454,-0.3136388,5.5401545,165.3740387,-11.9694653,-30.4274807
1940,16.3762550,0.2130829,4.7309184,158.7938995,-11.2213745,-40.4580154
1950,16.8934002,0.6153067,4.2760224,153.4427490,-14.7480917,-54.8625946
1960,17.3913918,0.6200951,3.8211265,148.9236603,-16.7328243,-72.4045792
1970,17.1926746,0.4955972,3.0765336,144.0839691,-18.7404575,-93.7709961
1980,16.2541523,0.3830703,2.3295465,137.2595367,-24.9160309,-114.6717529
1990,14.8894644,0.0215477,1.4436963,129.0839691,-34.3358765,-131.6488495
2000,13.7378588,-0.3399749,0.8403605,119.6564865,-46.9236641,-142.8778687
2010,13.0219965,-0.5650287,0.5913648,110.3816757,-53.5725174,-151.4045868
2020,11.9374285,-0.5434810,0.3016679,100.3358765,-59.1297722,-158.1297760
2030,10.8744087,-0.6751614,-0.1101327,93.6106873,-63.0610695,-161.0305328
2040,10.3764172,-0.6105183,-0.3998296,83.4122162,-66.7480927,-162.7404633
2050,10.2399483,-0.5267217,-0.1723816,75.2290039,-69.9770966,-166.5190887
2060,9.7563219,-0.5458752,-0.1891410,69.2061081,-71.0839691,-171.5038147
2070,8.9279327,-0.5865764,-0.6105183,63.7786255,-71.5954208,-175.4580078
2080,7.9774394,-0.6871324,-1.0797794,56.8167953,-72.6259537,-177.3664093
2090,7.1251078,-0.7038917,-1.5610116,48.7175560,-75.5190811,-177.5877838
2100,6.3206601,-0.6392486,-1.9009864,40.2213745,-77.3511429,-176.4198456
2110,5.0996237,-0.7374104,-2.3989778,32.0228996,-80.0152664,-172.7938995
2120,3.9025288,-0.6081241,-3.1100521,21.0839691,-86.5343475,-166.2671814
2130,3.0621684,-0.4836263,-3.3303175,8.2519083,-96.8473282,-158.9847260
2140,2.2888451,-0.3040621,-3.0813217,-4.2900763,-109.1526718,-150.9541931
2150,1.8938038,-0.1819584,-2.6743097,-14.6564884,-116.7404556,-141.3740387
2160,1.5083394,-0.0526722,-2.4492557,-23.5801525,-120.1526718,-131.3664093
2170,0.9864060,0.1244979,-2.3175755,-32.1297722,-120.1374054,-120.4809189
2180,0.4955972,0.2298422,-2.1930776,-41.3129768,-116.1297684,-108.6412201
2190,-0.0239419,0.4955972,-2.0925217,-51.0839691,-107.3511429,-95.5419846
2200,-0.6536137,0.7374104,-1.7046629,-61.9389305,-98.6106873,-81.1679382
2210,-1.3455344,0.6823440,-1.2928623,-72.1603088,-91.9465637,-65.8778610
2220,-2.1044924,0.9313397,-0.8930327,-80.4580154,-88.9618301,-48.0305328
2230,-2.6192431,1.0725969,-0.5147507,-85.1679382,-91.5801544,-28.4809170
2240,-2.8275378,1.5442522,-0.4740495,-90.7099228,-96.7557220,-8.6488552
2250,-2.6120608,1.7549409,-0.1675933,-96.8473282,-104.2977066,9.7022905
2260,-2.3271523,2.2002602,0.3351865,-104.6564865,-113.2519073,25.8931293
2270,-1.7908537,2.3894010,1.0797794,-112.6793900,-114.8778610,40.6488533
2280,-1.1516051,2.7389526,2.3008161,-119.5877838,-112.0992355,53.8931313
2290,-0.3782819,3.0573800,3.5098817,-123.7251892,-104.1068726,64.8015289
2300,0.2346306,3.2896163,4.6878228,-122.9694672,-94.2519073,73.5038147
2310,0.9504932,3.5122759,5.6766233,-118.2290039,-83.4656525,80.3740463
2320,1.4389079,3.7109938,6.1841912,-110.9160309,-72.8473282,85.4732819
2330,1.9273225,3.7684543,6.3565731,-102.2290039,-60.7099228,89.4045792
2340,2.2960277,3.8809812,6.0357518,-97.0610657,-44.9771004,94.7328262
2350,2.6168492,4.1371593,5.7604198,-97.1297684,-25.0992374,100.6641235
2360,2.8466914,4.3909435,5.6550756,-100.0305328,-4.1984735,107.5343475
2370,3.1435707,4.5441718,5.8585815,-102.8167953,9.4503813,113.4885483
2380,3.6367738,4.5154414,6.0429344,-103.8167953,11.8778629,117.4503784
2390,4.4124913,4.4579806,6.2727766,-102.1145020,5.1221375,116.8396912
2400,5.0565281,4.2736282,6.4307928,-99.7709961,-5.3358779,114.5267181
2410,5.9663200,4.3167233,6.7204900,-98.5114517,-13.2137403,111.8091583
2420,6.7085190,4.3358769,7.2328463,-96.3129807,-12.8625956,108.1679382
2430,6.9646969,4.4938936,7.7428088,-94.9465637,-6.4580154,105.5343475
2440,7.1562324,4.7859845,8.1570034,-93.6259537,3.6259542,103.4885483
2450,6.9503322,5.1235652,8.4036045,-93.0305328,12.6870232,102.9083939
2460,6.9479380,4.9703374,8.8010406,-93.6106873,23.0534344,104.2977066
2470,7.1418672,4.5752959,9.5049324,-91.1145020,34.5954208,106.3816757
2480,7.3166428,4.1658897,10.0316534,-85.2061081,43.9389305,108.7328262
2490,7.5847921,3.7684543,10.3764172,-77.9847336,49.6412201,110.8244247
2500,7.8720951,3.5553713,10.5607700,-69.0381699,53.6870232,112.2748108
2510,7.9582858,3.5625539,10.5128860,-59.9694672,57.5496178,114.7862625
2520,8.0732069,3.6248028,10.1776991,-54.2671738,61.6564903,117.5190811
2530,8.3509331,3.5410061,9.9550400,-51.8473282,64.1297684,119.0381699
2540,8.4107876,3.4907281,10.0843258,-49.5190849,61.6030540,118.6412201
2550,8.8537130,3.0765336,10.1537571,-43.7709923,56.4503822,119.6717529
2560,9.5887289,2.8802099,10.1298151,-37.7251892,51.8396950,120.8396912
2570,10.3692341,3.0118904,9.8712435,-32.7633591,50.3969460,118.2595444
2580,10.8959560,3.0741394,9.6102762,-29.3740463,48.5648842,111.7328262
2590,11.0132713,2.9879484,9.5073261,-26.7022896,45.7175560,102.5877838
2600,10.6972389,2.7988074,9.3014259,-24.3587780,43.4809151,93.9083939
2610,9.9909525,2.6168492,8.9662399,-21.6030540,38.8167953,85.3206100
2620,9.0835552,2.3295465,8.6765423,-19.4503822,33.3129768,80.4274826
2630,8.4443064,1.9847831,8.3605099,-16.9541988,27.8854961,78.4198456
2640,8.4323349,1.7309990,8.3198080,-15.0839691,20.8320618,78.2595444
2650,7.6542239,1.6711442,8.0157461,-12.0152674,14.9312973,77.7709961
2660,7.1466556,0.5123565,7.8577299,-11.4732828,13.8167934,90.3435135
2670,9.4426832,0.7852941,8.6118994,-5.0152674,26.8702297,104.3664093
2680,10.5990763,0.9864060,8.4562769,-1.6183206,34.0610695,103.8549652
2690,11.2622671,1.3407460,8.1186962,-0.6412213,36.2824440,98.0534363
2700,11.5016861,1.6495966,7.9534974,-0.5572519,37.4122124,85.4351120
2710,11.0946741,1.6902977,7.6494355,-2.1526718,35.5267181,72.1526718
2720,10.3141680,1.4915800,7.5752153,-4.0076337,31.6946564,60.1755714
2730,7.5081782,0.2298422,8.6095057,-3.0763359,7.8549619,57.4427490
2740,7.5656385,0.2418131,9.3445215,0.5801527,7.0076337,63.1832047
2750,7.9463148,0.2322364,10.0603838,6.0534353,8.8320608,67.7862625
2760,8.3748751,0.6607963,10.4099360,11.8320608,14.0229006,68.6488571
2770,8.4443064,0.8882443,10.8528605,16.9389305,19.0992374,67.7175598
2780,8.3940287,0.9959828,11.2598734,22.0763359,21.9160309,65.5954208
2790,7.9295554,1.0630201,11.5328102,27.3435116,23.6870232,64.1297684
2800,7.4866304,0.9624642,11.9086981,32.3893127,21.0992374,63.0610695
2810,7.1370788,0.7398046,12.5718889,38.3435097,13.7328243,62.2595406
2820,6.6295104,-0.4429250,14.3411951,55.8549614,-3.0534351,68.8702316
2830,6.7755561,-1.1204807,15.3419657,70.5190811,-10.2213745,75.4809189
2840,7.3717093,-1.8291607,15.8231983,89.2748108,-10.8396950,85.8778610
2850,8.2216463,-2.0063307,15.4520988,107.4732819,-7.0992365,96.9465637
2860,9.5743637,-1.9464760,14.8008795,124.1450348,0.8473282,106.4580154
2870,11.1449518,-1.4987626,14.0514975,135.8549652,10.8778629,108.4885483
2880,12.6461086,-1.0151364,13.4242201,144.2824402,21.5343513,102.1297684
2890,13.5080166,-0.8619082,13.0076313,152.0686951,31.4656487,89.5725174
2900,13.7857428,-1.0821736,12.4904861,160.6335907,38.5267181,74.4503784
2910,13.9844608,-1.5562232,11.6692791,168.7786255,42.0381660,60.6641235
2920,14.0179796,-1.8770446,11.0539722,176.5038147,44.0534363,47.7251892
2930,14.0682573,-2.0661855,10.1417866,183.3435059,46.9160309,36.6488533
2940,13.9581242,-2.5091105,9.3732519,187.6717529,53.0839691,27.9618320
2950,14.1209297,-3.0597742,8.5376797,191.8702240,60.1450386,22.3893127
2960,14.3747139,-3.5170643,7.4100165,195.2595367,64.5954208,18.4351139
2970,15.0355101,-3.6080434,5.9615316,196.3435059,68.0610657,15.4351149
2980,16.1942978,-3.4260850,4.5058646,192.6335907,71.2442780,10.8167934
2990,17.5326500,-3.4117200,2.8634505,183.2061005,74.3511429,3.9694657
3000,18.4879303,-3.2608860,1.1779412,169.7022858,75.1068726,-5.0458016
3010,19.2947731,-2.7174051,-0.5961532,150.5190887,71.4656525,-17.5190830
3020,19.6126022,-2.2194135,-1.5705882,126.8778610,60.3358765,-38.2442741
3030,19.6126022,-1.8387375,-1.7501525,105.7633591,39.4885483,-65.7786255
3040,19.5294037,-1.7022687,-1.8315549,90.1450348,11.8396950,-95.8549652
3050,18.8398762,-1.7214222,-2.0039365,76.0000000,-18.6717548,-127.1832047
3060,17.7050304,-2.0183017,-2.2385671,61.0916023,-42.0228996,-156.2290039
3070,16.3331604,-2.2912393,-2.4995339,43.7938919,-58.7328262,-182.3740387
3080,14.5901909,-2.8826041,-2.4444675,25.9389305,-71.1526718,-202.0992432
3090,12.9573536,-3.2824337,-2.0901275,8.9389315,-80.8320618,-216.0610657
3100,11.2550850,-3.4883339,-1.4365137,-3.8549619,-88.3435135,-224.3129730
3110,10.0915089,-3.5074875,-1.0845678,-14.3358774,-95.0763321,-227.7862549
3120,9.0859489,-3.4548154,-0.8738791,-25.3053436,-97.9083939,-227.3969421
3130,8.3892403,-3.3710186,-0.4189832,-37.8091621,-96.6183243,-226.0305328
3140,7.5847921,-2.9735832,0.3112446,-49.2213745,-90.4122162,-224.8473358
3150,6.7300668,-2.7628946,0.8738791,-58.9771004,-83.1984711,-223.7251892
3160,5.6167684,-2.9640064,1.3598996,-67.2977066,-76.6564865,-221.5190887
3170,4.0916696,-2.6814921,1.5514348,-75.1221390,-73.3664093,-216.4656525
3180,2.7389526,-2.4875629,1.8961980,-82.9770966,-74.2519073,-208.0915985
3190,1.4796091,-2.2577207,2.4923513,-90.6335907,-78.5877838,-198.2595367
3200,0.3303981,-1.8363433,3.1627243,-97.9847336,-83.7862625,-186.3969421
3210,-0.5219333,-1.6112895,3.9312592,-105.1068726,-87.4427490,-172.6717529
3220,-1.3958124,-1.5155219,4.8386569,-110.8625946,-89.0000000,-157.4961853
3230,-2.5019281,-1.3048333,5.6311336,-115.1755753,-91.1526718,-139.4656525
3240,-3.3973548,-1.0702027,6.1961622,-118.3358765,-93.3587799,-118.7022934
3250,-3.7708483,-0.6871324,6.7300668,-121.5572510,-93.1679382,-96.6870193
3260,-3.8139439,-0.6416427,7.4315639,-124.5190811,-90.4274826,-75.5419846
3270,-3.7612717,-0.3375807,8.3054428,-123.9312973,-88.7862625,-56.5419846
3280,-3.4931223,-0.1723816,8.7914639,-121.7022934,-87.0916061,-39.4045792
3290,-3.6176202,0.1484398,9.1051025,-115.0076370,-87.8702316,-23.9083977
3300,-3.2489152,0.3878587,8.9494801,-110.2290039,-90.0457993,-7.4198475
3310,-2.8586621,0.6440369,8.9351149,-106.2137375,-94.2595444,5.6793895
3320,-2.3846128,1.1851238,8.6621771,-103.8549652,-102.6793900,17.0839691
3330,-1.4604555,1.5490406,8.5233145,-102.7938919,-113.3282471,24.3129768
3340,-0.7254394,2.0063307,8.3629036,-103.9236679,-122.1908417,30.3129768
3350,0.0215477,2.1308286,8.7890692,-104.5725174,-124.0305328,35.3511467
3360,0.6631905,2.2792683,9.2272062,-105.3816757,-117.8167953,39.6412201
3370,0.9457048,2.0446377,9.8425131,-105.2213745,-105.0839691,44.6106873
3380,1.1659702,1.7286048,10.4745789,-101.7480927,-87.7786255,53.6488533
3390,1.4460905,1.6950861,10.7523050,-95.2213745,-67.7709961,66.1603088
3400,1.8004304,1.7932479,10.7044210,-87.8854980,-48.2137413,78.5343475
3410,2.3941894,2.1404054,10.0771437,-84.2213745,-29.5190830,90.9007645
3420,3.1268115,2.1188576,10.0268650,-82.1984711,-16.7862587,100.9007645
3430,4.2975702,2.3151813,10.1178446,-80.8625946,-11.2366409,106.3816757
3440,5.1882086,2.6096666,10.1226330,-79.1832047,-12.8625956,105.5114517
3450,6.1794028,2.8706331,10.2974091,-76.5954208,-24.6870232,98.3511429
3460,6.8737178,2.7030399,10.7044210,-73.4427490,-38.9618340,86.6335907
3470,7.4459291,2.3654592,11.2167778,-69.4427490,-52.0152664,74.5267181
3480,7.6111283,2.0446377,11.7243462,-64.0992355,-58.6412201,64.3206100
3490,7.4171991,1.7812769,12.4042959,-56.9083977,-59.9160309,56.9465637
3500,6.7013364,1.2234308,12.7299051,-46.8396950,-57.2748108,56.0534363
3510,6.0836353,0.8236012,12.4090843,-35.4198456,-52.2977104,62.4122124
3520,6.1027889,0.5817881,11.9134865,-24.5877857,-48.3740463,71.7786255
3530,6.1698260,0.3830703,11.3987360,-15.3893127,-46.5877876,81.4580154
3540,6.7109132,0.3423691,10.7546988,-8.1984730,-42.6870232,92.1984711
3550,7.6853480,0.4668669,10.3716288,-3.2290077,-35.2442741,97.1908417
3560,8.8513184,0.6847382,10.2830439,-0.2824427,-27.7404575,99.4427490
3570,9.6821022,1.0366840,10.4985209,4.2595420,-22.0763359,96.3740463
3580,10.2591019,1.2808913,10.5104914,9.8473282,-16.2519093,90.1068726
3590,10.4721851,1.2593436,10.1298151,14.7633591,-11.4809160,81.4961853
3600,8.7555504,0.3208214,8.7770987,24.9618320,-12.2366409,70.3969498
3610,8.4443064,0.2106887,8.4012108,27.3206100,-14.8396950,72.7557220
3620,8.2886839,0.1556223,8.2360115,29.2824421,-17.6488552,74.8015289
3630,8.4083929,0.1580165,8.2503767,30.9465656,-19.6259537,76.3129807
3640,8.4658537,0.1292862,8.3389616,33.9618340,-20.8015270,76.9312973
3650,8.5616217,-0.0478838,8.2336178,38.0152664,-21.9389305,78.3816757
3660,8.7866755,0.0239419,8.1689749,41.0305328,-21.0305347,80.2290039
3670,9.1098909,0.3256098,7.9199786,42.6564903,-16.4351139,79.8549652
3680,9.3253679,0.7469871,8.6262646,42.5343513,1.9923664,73.8625946
3690,8.8106174,0.6703730,8.9159613,45.8244286,9.1068707,69.8854980
3700,7.3597383,-0.9313397,8.5281029,57.3587799,-1.1603054,67.3740463
3710,7.2998838,-1.4484847,8.7052727,61.4503822,-13.7099237,71.7251892
3720,7.5225434,-1.7477583,8.9734221,66.4427490,-26.0076332,76.7862625
3730,8.4443064,-2.0039365,9.3445215,72.7175598,-33.6488533,80.9007645
3740,9.5169029,-2.0206959,9.8640604,81.3206100,-33.8931313,83.4045792
3750,10.4171181,-1.8004304,9.6342182,89.1068726,-25.5496178,84.2366409
3760,11.0372133,-1.6304430,8.9614515,94.7022934,-13.4427481,82.4809189
3770,11.2143831,-1.4891858,8.0301113,96.9847336,-2.0000000,79.9694672
3780,11.3221216,-1.4820032,7.3573442,96.5419846,6.1603055,77.4351120
3790,11.6213961,-1.4843974,6.7755561,96.5801544,6.8702292,75.1755753
3800,12.2319136,-1.2066715,5.9543490,99.6412201,-0.8320611,70.9542007
3810,13.2111378,-0.6799498,5.0852585,97.5648880,-12.8473282,62.4198456
3820,13.7306767,-0.1316804,4.2137733,92.7709961,-26.2442741,50.4122124
3830,14.0514975,0.0143651,4.0461802,84.3282471,-41.7404594,36.5343513
3840,14.3579540,0.3399749,4.6830344,74.8396912,-54.9923668,21.6946564
3850,14.7936964,0.5793939,6.0357518,69.6335907,-64.4809189,8.5114508
3860,15.4832230,0.3567342,7.4674768,70.6412201,-69.7786255,-5.7557254
3870,15.6101151,0.2059003,8.3581152,76.0152664,-68.9542007,-18.7175579
3880,15.8351688,0.1340746,8.9351149,83.8396912,-64.5801544,-29.5267181
3890,15.6484222,0.3902529,8.2048874,86.6030502,-56.9236641,-38.3435097
3900,15.7872849,0.0957676,8.1282730,86.8473282,-45.9541969,-46.5725174
3910,16.0554352,0.0670373,8.5592270,89.1450348,-39.5267181,-54.8396950
3920,16.2637291,-0.0766141,9.0811605,95.4580154,-37.1221390,-65.0152664
3930,16.7473545,-0.2250538,9.1793222,103.0381699,-37.2442741,-77.6793900
3940,17.1998577,-0.7637464,9.2056589,113.1068726,-38.5954208,-92.9007645
3950,17.4273052,-1.1707586,8.7627335,123.2824402,-39.8244286,-108.2290039
3960,17.1591549,-1.4173602,7.8098459,132.9465637,-41.5572510,-122.0610657
3970,16.8072090,-1.5777708,6.8665352,139.9694672,-46.1755714,-133.4351196
3980,16.7473545,-2.0829449,5.8657641,146.0839691,-45.1908379,-144.2824402
3990,16.4456882,-2.0374553,4.6997938,148.5954132,-42.5801544,-153.7557220
4000,15.9644556,-1.8866212,3.4907281,149.2366486,-38.8015251,-161.5496216
4010,15.6963062,-1.7860653,2.2146254,146.4732819,-35.5114517,-170.0076294
4020,15.2509871,-1.7118455,1.0845678,140.4503784,-31.4580154,-178.5954132
4030,14.3459835,-1.6112895,-0.0574605,132.6259613,-29.2061062,-186.0305328
4040,13.4912577,-1.5107336,-1.2713146,122.1145020,-26.6717548,-192.8854980
4050,12.6748390,-1.6950861,-2.0470319,109.5190811,-26.1297703,-198.6793823
4060,11.7985659,-1.7238164,-2.8921809,96.8015289,-26.1603050,-202.1145020
4070,10.7403336,-1.5418580,-3.6439564,80.1755753,-28.5038166,-203.4885559
4080,10.0220766,-1.4843974,-4.0030847,63.4427490,-33.0839691,-205.2900696
4090,9.3660688,-1.4460905,-4.1036406,46.3282433,-39.0228996,-208.1908417
4100,8.3940287,-1.6065011,-3.9552009,30.5190830,-44.0916023,-209.8091583
4110,7.3310080,-1.7980363,-3.7133877,17.0229015,-48.0076332,-207.4274750
4120,6.2536230,-1.7908537,-3.6295912,6.0534353,-51.6488533,-201.5877838
4130,5.3151007,-1.8100072,-3.6128318,-4.9083967,-54.4503822,-193.9084015
4140,4.2616572,-1.8507085,-3.4619980,-16.2061062,-57.3435097,-185.3206177
4150,3.2944047,-1.6783268,-3.3853838,-27.4961834,-60.9465637,-176.6106873
4160,2.2002602,-1.4341195,-3.1627243,-38.2137413,-67.5954208,-168.0458069
4170,1.3000449,-1.3072275,-2.8802099,-50.1450386,-78.0457993,-159.3435059
4180,0.2801202,-1.2090657,-2.4372849,-61.3206100,-90.8625946,-148.0381622
4190,-0.6296718,-1.0725969,-1.7836711,-71.4351120,-102.2366409,-133.9084015
4200,-1.4676381,-0.8786675,-1.2377959,-80.6030502,-110.3740463,-117.5190811
4210,-2.0374553,-0.6799498,-0.7589580,-89.4656525,-116.1908417,-98.3358765
4220,-2.7509236,-0.2753318,-0.3064562,-97.4427490,-118.9847336,-77.4656525
4230,-3.2369442,-0.1843526,0.1077385,-105.3664093,-121.1832047,-53.6946564
4240,-3.3135581,-0.1364688,0.5506636,-114.1755753,-118.6183243,-28.3206100
4250,-3.4787574,0.1101327,1.0510491,-120.9618301,-110.9083939,-2.8549619
4260,-3.2441268,0.5985473,1.5969244,-128.4885559,-99.8396912,21.9160309
4270,-2.6886747,0.9720409,2.2529323,-134.4885559,-86.8320618,43.6412201
4280,-2.0446377,1.4149660,2.9759774,-138.9618378,-72.2366409,61.7862587
4290,-1.2330076,1.7286048,3.6032550,-142.4656525,-54.5038185,75.6641235
4300,-0.5362985,1.7286048,4.1994085,-145.8244324,-37.9465637,84.7480927
4310,0.0909792,1.8698620,4.9080882,-148.3435059,-25.0763359,90.5572510
4320,0.7924767,2.0661855,5.8705525,-147.9847260,-16.6030540,93.5572510
4330,1.1563935,2.4827745,6.6342988,-144.9770966,-8.9083967,95.1679382
4340,1.3575054,2.8562679,7.2065101,-141.3969421,-1.6946565,95.3969498
4350,1.3455344,3.2991931,7.6494355,-136.4732819,3.1297710,95.4580154
4360,1.4652439,3.3614421,7.8529415,-131.7251892,6.3129773,95.6488571
4370,1.7094513,3.2824337,7.8984308,-127.1679382,11.0305347,95.6183243
4380,1.9129574,3.2752512,7.9032192,-124.4732819,20.1068707,97.7786255
4390,2.1619530,3.2632802,8.0109577,-122.6946564,34.7175560,102.1984711
4400,2.0853391,3.2656744,8.0372944,-121.5572510,53.9465637,107.8778610
4410,1.7956421,3.2967989,8.1809454,-120.9694672,73.0152664,116.8244247
4420,2.0183017,3.1842721,8.6980906,-120.0916061,92.4198456,128.4961853
4430,2.8945751,3.0693510,9.2056589,-119.1603088,113.4503784,140.1068726
4440,4.1634955,2.7437410,9.6701307,-119.4351120,133.4580078,148.8396912
4450,5.4443870,2.4684093,10.2998028,-119.4427490,139.7709961,150.4961853
4460,6.6342988,2.1212518,11.2622671,-115.9694672,130.0992432,145.0839691
4470,7.4722652,1.9249283,12.1241751,-109.6946564,111.1221390,134.8244324
4480,7.7978749,1.7693061,12.7442703,-102.0916061,89.8778610,122.3816757
4490,7.6015515,1.6495966,13.1871958,-94.1374054,68.8473282,110.5038147
4500,7.1897511,1.2761030,13.5487185,-84.7175598,50.5114517,101.9312973
4510,6.5098009,0.9073978,13.8384151,-74.9160309,36.7175560,100.3129807
4520,6.2033448,0.8906385,13.8096848,-64.5496216,31.0458012,105.2137375
4530,6.1841912,0.8810617,13.5295649,-57.6793900,35.6946564,112.4122162
4540,6.5074067,0.7781116,13.4864693,-54.6717567,48.4885483,119.9542007
4550,6.9120250,0.7374104,13.5343533,-53.0228996,61.0610695,125.0000000
4560,7.0077925,0.5817881,13.8216553,-49.3129768,64.6717529,126.8015289
4570,7.2879128,0.6416427,13.9772778,-42.3816795,55.0610695,123.6870193
4580,7.3621325,0.5171449,13.8671455,-33.0076332,37.7633591,118.6717529
4590,7.3956513,0.5985473,13.6277266,-24.8854961,17.1679382,113.8702316
4600,7.6398587,0.7350162,13.2877512,-18.2671757,-0.0534351,108.0152664
4610,7.6326761,0.8595140,13.3308468,-14.0458012,-10.8854961,101.7557220
4620,7.4531116,0.7493813,13.6564569,-8.9083967,-16.2366409,97.7099228
4630,7.3381906,0.5961532,14.0107965,-1.8015267,-16.9923668,95.6946564
4640,7.3836803,0.4668669,14.1712074,6.9923663,-15.9236641,95.7251892
4650,7.2903070,0.3926471,14.1616306,16.5038166,-15.1297712,95.4122162
4660,7.3549500,0.1005560,14.0012197,26.5572510,-15.8396950,98.6183243
4670,7.4746594,0.0861908,13.5942078,36.6488533,-15.8320608,99.4503784
4680,7.4818420,0.1221037,13.0291786,45.6030540,-16.7328243,99.7709961
4690,7.7188668,0.1963235,12.5599174,52.9618340,-17.6870232,102.2137375
4700,8.1593981,0.3902529,12.1313581,59.2671738,-16.8091602,102.2213745
4710,8.5783806,0.5434810,11.7578640,64.1221390,-13.6488552,100.5190811
4720,9.1481981,0.6512195,11.3915539,67.6870193,-9.7709923,94.1526718
4730,9.3469152,0.6703730,11.1210098,70.5954208,-6.1984735,86.9542007
4740,8.9638453,0.5650287,10.6780853,73.1679382,-4.2824426,78.8167953
4750,8.2791071,0.2968795,10.2950144,75.9160309,-5.4427481,73.8549652
4760,7.9032192,-0.1843526,9.5647869,80.5801544,-4.5877862,77.3129807
4770,8.5257082,0.0000000,9.4235296,80.1526718,0.4198473,78.5877838
4780,9.1625633,0.0933734,9.6198530,79.5572510,8.8778629,75.1450348
4790,9.9933472,-0.0023942,10.0364418,80.2977066,19.2977104,68.4732819
4800,10.5057030,-0.2609667,10.2423429,83.1374054,28.8091602,59.9083977
4810,10.7331514,-0.5410868,10.3261395,87.5877838,34.1832047,50.3358765
4820,11.0539722,-0.9768293,10.1776991,92.8778610,34.1221390,40.7099228
4830,11.2119894,-1.2186425,9.8449068,98.5419846,29.6106873,31.6946564
4840,11.3125448,-1.3503228,9.8688488,101.6946564,23.3740463,21.6259537
4850,11.4801388,-1.4796091,10.0005293,105.9389343,21.1450386,12.6183205
4860,11.7554703,-1.5993185,10.1729107,110.9389343,24.9465656,5.3435116
4870,11.7482872,-1.6974803,10.2734671,117.1374054,31.5572510,0.0229008
4880,11.8249016,-1.7740943,10.1896706,126.4045792,34.4961815,-3.4732823
4890,12.2319136,-1.8100072,9.9813757,137.1908417,34.5648842,-7.0610685
4900,13.0938225,-1.5873476,9.3205795,146.9160309,36.1068687,-11.2824430
4910,14.2454271,-1.2234308,8.9183559,154.9236603,37.5572510,-18.1832066
4920,15.1145182,-0.8403605,8.1378498,162.3129730,41.8931313,-30.2061062
4930,15.4113979,-0.7661406,6.5385313,164.9541931,42.1679382,-43.3664131
4940,15.4784346,-0.7445929,5.1714492,162.3282471,40.3129768,-56.6946564
4950,15.4113979,-0.5219333,3.9264708,154.7633514,34.9083977,-68.5725174
4960,15.4951944,-0.3112446,2.7844424,143.1755676,26.5038166,-81.0534363
4970,15.5071650,-0.0646431,2.1140692,128.7251892,14.2519083,-95.3129807
4980,15.2054968,0.1077385,1.6783268,112.8702316,0.4351145,-111.2824402
4990,14.5734310,0.2729376,1.7405758,99.6106873,-11.9618320,-125.8931274
5000,14.0969877,0.2178712,1.9249283,86.4885483,-22.5496178,-140.1908417
5010,13.3092995,0.1388630,1.6280488,74.5038147,-31.4580154,-151.8778687
5020,12.7203283,0.0311245,1.4556671,62.2824440,-38.1145020,-160.5496216
5030,12.2319136,-0.0454896,1.3934183,49.5190849,-40.7709923,-168.7938995
5040,11.4897156,-0.0430954,1.0725969,36.0763359,-40.7786255,-176.6946564
5050,10.4243011,-0.3639168,0.9983770,20.9847336,-41.5954208,-182.5725250
5060,9.4666252,-0.6081241,1.0127422,5.5267177,-44.9465637,-187.0686951
5070,8.3724804,-0.7134684,1.3958124,-6.2213740,-48.8778610,-190.3664093
5080,7.1322904,-0.8906385,1.5705882,-16.6412220,-54.1068687,-191.5496216
5090,5.8729467,-0.9959828,1.6448082,-26.5190830,-60.4351158,-190.4961853
5100,4.5872669,-1.0845678,1.8100072,-35.4656487,-67.9694672,-187.8320618
5110,3.1244173,-1.0869620,1.9009864,-42.9618340,-76.1832047,-183.0381622
5120,1.4772149,-1.1300575,1.7956421,-50.6870232,-89.7022934,-173.8549652
5130,-0.0933734,-1.0271072,1.3431402,-61.6259537,-104.1603088,-160.9847260
5140,-1.3144100,-1.1492109,1.4724265,-76.0457993,-117.0229034,-144.4809113
5150,-2.2457497,-1.0007712,2.0757623,-91.9007645,-126.4045792,-125.1450348
5160,-3.1770895,-1.1755470,2.8442972,-104.3969498,-133.0610657,-104.2748108
5170,-4.0222383,-1.3838415,3.5218527,-113.2671738,-137.4427490,-80.2977066
5180,-4.8314743,-1.4173602,4.2664456,-120.9923630,-142.0229034,-53.8778610
5190,-5.2432747,-1.3335636,5.2791877,-125.1450348,-146.1679382,-26.4885502
5200,-5.0349803,-0.9265513,5.9447722,-126.0152664,-144.6793823,1.6717557
5210,-4.0868812,-0.5434810,6.5026188,-127.1832047,-132.8625946,26.1068707
5220,-2.9616125,0.0933734,6.7372489,-132.9007568,-112.5496216,43.8244286
5230,-1.8554969,0.2801202,7.1394730,-141.8931274,-89.9389343,54.1526718
5240,-1.3000449,0.5578461,8.0492649,-148.4732819,-72.7862625,59.5725174
5250,-1.1468167,0.2011119,9.4594421,-148.2290039,-63.0610695,62.4503822
5260,-1.0582317,0.3112446,10.5775290,-139.8702240,-61.8778610,66.6564865
5270,-0.6200951,0.4381367,11.2479019,-126.7404556,-62.9007645,71.0992355
5280,-0.2466015,0.8331779,11.3388815,-114.3511429,-61.8931313,75.6259537
5290,0.1508339,0.9959828,11.2311430,-106.0839691,-57.8091621,79.9542007
5300,0.5841822,1.1683644,11.1234045,-101.3282471,-50.1297722,85.9083939
5310,1.2449785,1.2497669,11.4825325,-98.0381699,-39.2671738,92.5114517
5320,2.0398495,1.4029950,11.8440552,-94.5190811,-25.7099228,95.9923630
5330,3.0645626,1.5394639,12.2702208,-91.0534363,-11.5572519,100.1679382
5340,3.9815371,1.6208663,12.9166517,-86.3587799,2.5419848,98.6183243
5350,4.3430595,1.7597293,13.2039547,-79.1145020,14.8854961,97.0076370
5360,4.3406653,1.7022687,13.2207146,-70.7862625,21.6641216,95.3435135
5370,4.4651632,1.5969244,13.1033993,-62.2595406,23.7022896,95.3969498
5380,4.7644372,1.5825592,12.9645357,-55.2671738,22.9923668,95.5114517
5390,5.1594782,1.5155219,12.8998928,-49.4885483,19.4580154,95.3206100
5400,5.5880380,1.5322813,13.0674858,-44.0076332,15.0458012,95.7862625
5410,5.9160423,1.4676381,13.2231083,-37.3893127,10.6717558,95.3358765
5420,6.2943239,1.3048333,13.4792862,-29.9770985,6.1755724,95.1450348
5430,6.5600791,1.1252691,13.6803989,-21.1679382,3.2290077,94.7251892
5440,6.7540083,1.1013272,13.7857428,-11.8549614,2.1145039,94.6641235
5450,6.8306227,0.5506636,12.9741125,14.4961834,-4.9160304,102.1450348
5460,7.3405848,0.5722113,12.7299051,23.8091602,-7.4885497,106.6870193
5470,7.9558916,0.8355721,12.3707771,31.3740463,-8.2290077,108.9542007
5480,8.9063845,0.9073978,11.9829178,37.5496178,-6.0992365,107.5572510
5490,9.6797075,1.2928623,11.5615406,42.4961815,-2.7938931,101.5419846
5500,6.4786768,0.8762733,9.3325500,48.3816795,-18.1374054,50.4045792
5510,5.7915444,0.6560079,9.5264797,49.9160309,-26.6870232,52.1526718
5520,5.7269011,0.4716553,9.8329363,53.4656487,-33.4045792,58.9389305
5530,6.5552907,0.4357425,9.9813757,58.6106873,-31.4885502,67.9160309
5540,7.7428088,0.6248835,9.7658987,61.5114517,-27.9847336,75.2671738
5550,8.8992023,1.3048333,9.6509781,61.9541969,-23.3740463,79.2977066
5560,10.0962973,1.8866212,9.8544836,61.0305328,-15.0916033,78.0839691
5570,11.2455082,2.2960277,10.3069859,61.1221390,-6.4503818,71.7709961
5580,11.9853125,2.2026544,10.8744087,62.0534363,-3.0381680,61.3816795
5590,12.3899307,1.7908537,11.2048063,64.7404556,-8.6641226,47.6488533
5600,12.5575237,1.2066715,11.8392668,68.1755753,-23.5114498,33.8473282
5610,12.6269550,0.5554519,12.6796274,76.0992355,-43.2595406,20.7404575
5620,12.5503407,0.1675933,13.4457684,88.8320618,-62.6641235,10.6183205
5630,12.9573536,-0.0766141,13.9748840,101.2671738,-72.1221390,2.8473282
5640,13.7163115,-0.4932030,14.3531656,114.5267181,-62.6564903,-4.6564884
5650,14.1448717,-1.2306134,14.7506008,125.6488571,-35.8396950,-10.0534353
5660,14.1376886,-2.0566087,14.5782194,138.8625946,-5.8473282,-12.4198475
5670,14.4010496,-2.7676830,14.0275564,155.5954132,13.5419846,-14.2671757
5680,14.6620159,-3.1076579,12.8974981,172.2519073,17.0610695,-18.6793900
5690,14.8703108,-2.9233053,11.3724003,187.2595367,11.2900763,-27.3740463
5700,14.4728756,-2.7245877,10.0412302,196.7557220,-4.7557254,-39.2061081
5710,14.8535509,-2.5450234,8.5999289,208.1450348,-23.4885502,-57.0687027
5720,14.7529955,-2.1978660,6.8665352,207.8091583,-38.2977104,-72.5648880
5730,14.6404686,-1.6759326,5.6838059,203.2290039,-41.9771004,-87.4198456
5740,14.1424770,-1.3814473,4.7572546,195.8091583,-37.9007645,-99.9770966
5750,13.4385853,-1.3263810,4.3526363,186.5038147,-31.6259537,-108.8091583
5760,13.0243902,-1.1300575,4.3670015,180.4580078,-25.5038166,-115.4961853
5770,12.9022865,-0.9528874,4.3286943,178.8396912,-18.0916023,-120.9236679
5780,12.8448267,-0.8451489,3.6200144,177.3740387,-10.2290077,-127.4351120
5790,12.9836893,-0.5674229,2.5641768,172.6564941,-1.7633588,-135.2137451
5800,13.0507269,-0.3495516,1.4341195,163.3664093,6.8244276,-145.2137451
5810,12.5216112,-0.2106887,0.6296718,151.4961853,13.7404585,-155.8931274
5820,11.9254580,0.1173153,-0.0215477,139.3435059,14.4809160,-165.3816833
5830,11.2646618,0.2585725,-0.8140244,126.4045792,11.4274807,-174.9084015
5840,10.4889441,0.3687052,-1.5705882,110.6564865,5.2900763,-183.2137451
5850,9.5863342,0.5051740,-2.0015423,93.4885483,-1.7938931,-188.3358765
5860,8.8992023,0.4979914,-2.1260402,77.1297684,-9.2519083,-190.6106873
5870,8.1713686,0.5243275,-2.2194135,62.0534363,-14.0152674,-190.6641235
5880,7.5273318,0.8427547,-2.0877333,50.6030540,-22.0152664,-189.7480927
5890,6.7994981,0.8882443,-2.3271523,40.7557259,-31.1603050,-188.8473358
5900,5.9280128,0.8427547,-2.6503677,30.4045811,-44.0076332,-185.4274750
5910,5.2193332,0.7876883,-2.9520357,17.1984730,-56.9007645,-180.5954132
5920,4.2855992,0.7781116,-3.0310438,2.9541984,-69.8320618,-174.8244324
5930,3.2082138,0.7972651,-3.2201848,-11.5725193,-81.7175598,-166.2748108
5940,2.3630650,0.8810617,-3.3183465,-26.8167934,-93.5496216,-156.5572510
5950,1.7788827,0.9552816,-3.3638363,-43.8396950,-103.1908417,-147.9160309
5960,1.1755470,0.9480990,-3.2034254,-63.6564903,-113.0534363,-140.2977142
5970,0.5219333,0.8547257,-2.4492557,-83.6641235,-121.6946564,-131.8015289
5980,-0.1508339,0.7230452,-1.4532729,-99.3969498,-127.6717529,-121.8702316
5990,-0.9528874,0.8140244,-0.4668669,-111.3435135,-130.2366486,-108.2213745
6000,-1.5059452,0.8140244,0.4620786,-119.0305328,-133.0534363,-91.8702316
6010,-1.9033806,0.9480990,1.1851238,-125.0152664,-134.1984711,-73.8702316
6020,-2.1882892,1.0821736,1.7429699,-129.7557220,-135.0381622,-54.7251892
6030,-2.1212518,1.0654143,1.9799947,-136.5877838,-133.0686951,-34.9847336
6040,-1.8100072,1.0845678,2.5378408,-145.0839691,-127.3206100,-17.3893127
6050,-1.7070571,0.9888002,3.6774750,-151.9541931,-118.1297684,-1.8778626
6060,-1.6280488,1.2401901,4.8434453,-155.0305328,-109.3587799,13.3206110
6070,-0.9911944,1.3862357,5.6909885,-154.8549652,-97.4122162,26.7175579
6080,-0.4141948,1.4867916,6.3900914,-153.2671814,-81.6793900,36.2748108
6090,0.1819584,1.6519908,7.0796180,-152.9770966,-64.8091583,42.1145020
6100,0.3471575,1.8052188,7.5823979,-151.7938995,-49.3664131,44.9465637
6110,0.5482694,1.9536586,7.9367380,-151.0458069,-34.7022896,45.7938919
6120,0.5793939,1.6831152,8.4059992,-149.6030579,-22.8854961,44.2900772
6130,-0.0502780,1.5897418,8.9422979,-146.1603088,-17.1068707,44.5343513
6140,-0.7876883,1.6615674,9.3421268,-140.3816833,-15.6412210,49.2595406
6150,-1.0869620,1.5801650,9.6198530,-135.4503784,-14.9923668,57.7251892
6160,-1.4843974,1.8004304,9.5480280,-130.0992432,-16.3129768,68.1908417
6170,-1.4269369,1.7453641,9.6030941,-126.5419846,-16.3587780,81.1297684
6180,-0.6751614,1.6448082,9.9119444,-125.3893127,-10.9541988,94.6946564
6190,0.2035061,1.6160779,10.5655584,-124.0305328,-2.6564887,103.2290039
6200,1.2521610,1.8291607,11.0539722,-120.6259537,8.7251911,109.3816757
6210,2.0183017,2.0135133,11.6022425,-115.0457993,22.1068707,112.9389343
6220,2.4420733,2.4564383,11.8153248,-108.3053436,34.6030540,114.0229034
6230,2.9065459,2.9424589,11.8919392,-100.6946564,42.8091621,113.1755753
6240,3.0813217,3.3398943,11.6190014,-94.6870193,44.5343513,110.3358765
6250,2.8969693,3.8115497,11.1664991,-91.5954208,40.6030540,106.8015289
6260,3.0047078,3.8450682,11.0563669,-91.3282471,32.8244286,104.1221390
6270,3.4212968,3.6655040,11.3724003,-91.4427490,22.1908398,101.4732819
6280,3.7923961,3.4596038,11.7434988,-89.6793900,10.2824430,99.4580154
6290,4.1227942,3.1363883,12.3659887,-84.7328262,-4.4427481,96.8702316
6300,4.6519103,2.8059900,12.7945480,-77.0763321,-18.0839691,97.6641235
6310,5.4443870,2.6144550,13.1249466,-67.7022934,-28.4503822,99.5572510
6320,6.5792327,2.6096666,13.6229382,-58.2213745,-30.2748089,100.8473282
6330,7.4267755,2.8610563,13.7594070,-49.6641235,-22.2671757,100.4503784
6340,8.0109577,3.0214672,13.6875811,-43.6870232,-10.0839691,99.3206100
6350,8.2407999,2.8730273,13.5271702,-39.4885483,1.8625954,94.7175598
6360,8.2934723,2.8538737,13.4242201,-36.7633591,10.4198475,89.5038147
6370,7.9726510,2.7557120,13.3140879,-34.2061081,14.0381680,82.2900772
6380,7.4650826,2.4277081,13.5080166,-29.3435116,11.6412210,74.8854980
6390,6.7061248,1.9799947,13.4673157,-21.3206100,4.8091602,70.2213745
6400,6.1674318,1.5658000,13.4170380,-10.4045801,-4.4885497,70.6412201
6410,6.1291251,1.1899122,13.1010046,0.9541985,-11.2824430,75.6106873
6420,6.6486640,1.1659702,12.5431585,10.6412210,-13.9312973,82.2213745
6430,7.3908629,1.4245427,12.1265697,17.0152664,-10.7786255,86.3969498
6440,8.1617918,1.7262106,11.6884327,21.5877857,-2.6335878,87.1679382
6450,8.8824425,2.2433555,10.5918941,22.9618320,17.3816795,76.0076370
6460,8.5065556,2.2098370,10.2351599,22.1526718,20.3816795,67.2442780
6470,7.7619624,2.0374553,10.1561518,22.8396950,16.0458012,58.3969460
6480,6.2201042,1.7621235,10.2207947,29.1297703,-0.8320611,46.5190849
6490,4.5322008,1.4245427,10.1058741,28.7175579,-3.9236641,48.0687027
6500,4.4148855,0.5099624,12.0547438,28.7175579,13.2366409,55.5572510
6510,4.4891052,0.2178712,12.7251167,35.6335869,16.2748089,57.1297722
6520,4.6950054,-0.0814024,13.2039547,44.2213745,17.5725193,57.5954208
6530,4.5896611,-0.4189832,13.3212700,51.2977104,23.0687027,60.2824440
6540,4.6016321,-0.7086801,13.6684275,56.2442741,33.2900772,66.6106873
6550,4.9416070,-1.0582317,14.2741575,63.0228996,46.5648842,75.7862625
6560,5.5928264,-1.4245427,14.6476507,71.6717529,62.8625946,85.0152664
6570,6.4667058,-1.8219782,14.7098999,81.8931274,78.6259537,95.4427490
6580,7.6757712,-2.0542145,14.6021614,93.2671738,90.5419846,101.4274826
6590,9.0428534,-1.8004304,14.6261034,104.9542007,94.7862625,103.7175598
6600,10.5871058,-1.5418580,14.2837343,120.4198456,94.6641235,100.1832047
6610,12.8041248,-1.2042773,13.9485474,135.0076294,90.7633591,89.4274826
6620,15.3922443,-0.6296718,13.8647509,150.7557220,86.9160309,70.3511429
6630,17.4344883,-0.0909792,13.5559006,168.3969421,81.2900772,41.2748108
6640,18.1479568,0.2274480,12.2917690,186.5038147,66.7251892,5.1221375
6650,17.5781384,0.1484398,10.2064295,199.1908417,45.0992355,-30.0458012
6660,15.9333305,-0.1484398,7.9534974,204.4732819,21.4885502,-54.2442741
6670,14.7290535,-0.0670373,6.0333576,203.8167877,5.2748094,-64.6946564
6680,14.2573986,0.4453192,4.2664456,195.4122162,-1.1068702,-68.1908417
6690,14.2789459,1.1851238,2.8969693,180.1908417,3.1908398,-71.9847336
6700,14.2645807,1.8698620,2.0278785,161.0763397,13.5190840,-78.4351120
6710,14.0778341,2.1667414,1.5681942,141.8244324,22.9160309,-87.7480927
6720,13.6133614,2.3127871,1.2569494,124.3893127,27.7404575,-99.6946564
6730,12.9621420,2.1475880,0.8379663,108.4580154,25.7709923,-112.0076370
6740,11.8392668,1.9680238,0.5817881,93.2824402,15.3358774,-123.0763321
6750,10.6637201,1.7166338,0.5841822,79.8091583,-0.7328244,-132.4885559
6760,9.4785957,1.5394639,0.6919208,68.2061081,-19.3053436,-138.9847260
6770,8.5735922,1.3934183,0.8978211,58.2748108,-40.8702278,-142.1908417
6780,7.9654684,1.3072275,1.2090657,49.6946564,-61.6183205,-143.2671814
6790,7.4698710,1.4197544,1.2904681,42.0610695,-80.9160309,-143.6717529
6800,6.8641410,1.5442522,1.4197544,33.9389305,-95.5877838,-143.6335907
6810,6.5337429,1.6328372,1.3527170,24.1450386,-106.2900772,-142.4045868
6820,6.0189924,1.7094513,1.3503228,13.6335878,-112.0457993,-141.3358765
6830,5.5257893,1.8938038,1.3311694,0.7175573,-113.9847336,-139.6183167
6840,4.8625989,2.0590029,1.2952565,-13.6106873,-110.3816757,-136.9465637
6850,4.1036406,2.1763182,1.5274929,-29.7480907,-105.1068726,-133.4045868
6860,3.3039815,2.1643472,1.7453641,-45.8091621,-99.9465637,-129.2290039
6870,2.6910689,2.0853391,2.0901275,-61.3206100,-96.4122162,-122.9770966
6880,1.9728121,1.8554969,2.7317703,-74.9847336,-93.5419846,-115.1145020
6890,1.2856797,1.9273225,3.3494711,-87.0839691,-93.1374054,-105.7022934
6900,1.0630201,1.7740943,4.3071470,-95.1984711,-96.1679382,-96.5038147
6910,0.8020535,1.9488702,4.9655490,-100.0916061,-99.5954208,-88.1068726
6920,0.9576758,1.8339491,5.8322453,-104.8931274,-100.6564865,-80.7938919
6930,0.9864060,1.8698620,6.5624733,-106.5725174,-99.5038147,-76.8778610
6940,1.0079538,1.8267666,7.2903070,-105.6106873,-97.9160309,-74.0534363
6950,0.8834559,1.7621235,7.9415264,-102.5725174,-96.4503784,-72.7251892
6960,0.6751614,1.9560528,8.1761570,-98.6641235,-101.1755753,-71.6412201
6970,0.2633608,1.5442522,8.7507620,-93.0305328,-109.2824402,-70.5267181
6980,-0.3758878,1.7693061,8.8297710,-85.7633591,-120.8702316,-66.5648880
6990,-1.0271072,1.5873476,9.3924055,-78.2137375,-137.5343475,-58.5648842
7000,-2.2194135,1.0654143,9.8808203,-67.3129807,-155.0915985,-46.4961815
7010,-2.3367288,0.9145803,9.8281479,-58.9083977,-169.0992432,-27.4198475
7020,-2.5282640,0.7206510,10.2207947,-48.0076332,-177.0229034,-7.2213740
7030,-2.7269819,0.8140244,10.0388365,-39.8549614,-180.4503784,15.2366409
7040,-2.2529323,0.6177009,9.5791521,-36.7633591,-175.5267181,39.1221390
7050,-1.6328372,1.3790531,9.2511482,-38.2213745,-158.7862549,62.7404594
7060,-0.6512195,1.8267666,8.3724804,-48.3053436,-130.7099304,88.2595444
7070,1.2258250,2.1260402,8.5664101,-63.4198456,-104.1145020,102.7175598
7080,2.4277081,2.6814921,9.1697454,-76.2366409,-75.2290039,109.1221390
7090,3.0310438,2.8610563,10.1753054,-83.5267181,-56.6870232,110.6564865
7100,3.6918402,2.8442972,11.0803089,-83.6946564,-47.4274826,108.1450348
7110,4.3310885,2.8754215,12.0475616,-76.8091583,-45.1984749,102.9923630
7120,4.8937230,3.0190730,12.4426022,-65.6488571,-45.7786255,94.6259537
7130,5.3677726,2.8849983,12.4258432,-54.3358765,-43.6106873,89.3969498
7140,5.5688848,2.9711890,12.2175484,-43.6641235,-37.8931313,84.0687027
7150,5.6335278,2.8299320,11.8177195,-35.3435097,-28.9160309,81.0992355
7160,5.6287394,2.8730273,11.3101511,-29.2519093,-16.8091602,81.7557220
7170,5.7532372,2.8562679,10.9941177,-25.4351139,-2.2748091,85.2595444
7180,6.0477223,2.8275378,10.6373835,-23.7709923,13.4045801,88.7328262
7190,6.1722202,2.9209111,10.3476868,-23.6259537,27.2900772,90.9618301
7200,6.2871413,2.9280937,10.2016411,-24.4961834,38.1221390,93.3511429
7210,6.1243367,2.6934631,9.9646168,-25.7251911,43.9923668,92.4427490
7220,5.9519548,2.5019281,10.0843258,-24.8091602,41.5801544,94.3969498
7230,6.0118098,2.3103929,10.3572636,-21.4580154,32.8396950,92.3664093
7240,5.9998388,2.1260402,10.5128860,-15.7099237,19.1679382,91.1526718
7250,6.0764527,1.2856797,11.2694502,15.2137403,-11.8549614,96.2748108
7260,6.1387019,1.1899122,10.9558105,24.5190830,-11.3969469,102.1374054
7270,6.2584114,1.0007712,10.7690639,31.9389305,-7.6259542,106.9694672
7280,6.2919297,1.0414724,10.5895004,38.0228996,-1.8778626,111.8396912
7290,6.4786768,0.8547257,10.4578199,43.3511467,2.7022901,115.7175598
7300,6.7683735,0.7398046,10.3237448,47.9312973,4.5419846,118.2824402
7310,7.1011658,0.6560079,10.3859940,52.4122124,2.5343511,118.9923630
7320,7.6901364,0.6823440,10.5224628,59.1374054,0.0381679,118.3435135
7330,8.1785507,0.8307837,10.3764172,65.8931274,-1.1297710,116.1984711
7340,8.3916340,0.8164186,10.0125008,69.7938919,0.1221374,113.1221390
7350,8.1617918,0.7517755,10.0627785,76.5267181,15.0610685,108.7251892
7360,7.9750452,0.8188128,10.2375546,77.4045792,23.1755733,109.0152664
7370,7.8912482,1.0390782,10.6086531,78.4427490,32.3206100,110.4045792
7380,7.8720951,0.9552816,10.9605989,79.1679382,41.1679382,112.1068726
7390,8.0971489,0.7565638,11.5495701,81.1068726,46.1755714,113.0229034
7400,8.3485384,0.4836263,12.2199430,85.8549652,46.1221390,112.7480927
7410,8.9901810,0.1867468,12.7777891,94.9083939,42.5190849,110.2213745
7420,9.6126709,-0.0622489,13.1536770,105.3664093,38.5725174,104.6641235
7430,10.0077124,-0.4022238,13.1129761,118.9923630,34.8778610,97.9923630
7440,10.4003592,-0.5746055,12.8065195,131.9694672,33.6870232,94.3206100
7450,10.9438400,-0.6919208,12.2175484,141.7862549,41.5877876,89.4656525
7460,11.4490137,-0.8068419,11.5208397,147.5190887,56.4122124,86.5801544
7470,12.1193867,-1.1372399,11.1305866,151.4580078,70.7328262,83.6412201
7480,13.0243902,-1.4508789,10.7570934,155.6793823,79.6335907,79.8091583
7490,13.8312321,-1.4580613,10.4673967,160.8854980,81.4961853,72.9312973
7500,14.7865143,-1.2042773,9.9071560,167.3282471,76.1603088,61.4122124
7510,15.3802729,-0.8044477,9.1027079,173.0992432,67.0000000,45.4580154
7520,15.7010946,-0.6440369,7.9941988,176.0381622,57.3206100,28.0381680
7530,15.8998117,-0.4812321,7.0173693,175.4656525,49.2519073,10.6870232
7540,15.8016500,-0.3663110,5.9926562,172.3664093,44.0763359,-4.8549619
7550,15.7178535,-0.2466015,5.2624283,167.1832123,41.4122124,-18.3053436
7560,15.7274303,-0.0646431,4.6231799,160.6946564,39.5267181,-30.4045811
7570,15.5550489,0.1891410,3.7780309,152.8320618,38.4503822,-41.9160309
7580,15.5382900,0.5147507,3.1675127,143.8778687,36.7099228,-53.6335869
7590,15.4090033,0.9648584,2.5426292,134.3969421,27.2519093,-65.0992355
7600,15.6819410,1.0821736,1.7309990,124.3816757,23.9312973,-78.0076370
7610,15.3778791,1.7597293,1.1516051,110.5343475,14.5267172,-92.8625946
7620,15.2749290,1.9057748,1.0438666,96.2290039,4.7251906,-108.9770966
7630,14.9086180,1.8507085,1.0893562,82.6946564,-4.0610685,-127.6564865
7640,14.0323448,1.7262106,1.1851238,71.5190811,-14.0000000,-147.3206177
7650,12.8496151,1.1109039,1.2497669,62.3282433,-23.7175579,-164.5114441
7660,11.4011297,0.6392486,1.1539993,54.8015251,-34.8473282,-176.1679382
7670,9.9957409,-0.0478838,0.9720409,47.6183205,-50.3664131,-182.3435059
7680,8.7124557,-0.3734936,0.5817881,39.9160309,-67.0381699,-183.8778687
7690,7.4986014,-0.4692611,0.1173153,29.7328243,-81.9312973,-182.1297760
7700,6.6414814,-0.5267217,-0.3136388,16.1603050,-92.7175598,-177.7175598
7710,5.8274570,-0.5099624,-0.6224893,-0.4122137,-98.8549652,-171.4198456
7720,5.2935529,-0.4788379,-0.6847382,-18.4580154,-102.3816757,-164.0000000
7730,4.8482337,-0.2705434,-0.3710994,-35.9312973,-101.6335907,-156.6793823
7740,4.3981261,-0.2035061,0.2202654,-51.0534363,-97.4732819,-149.4580078
7750,3.8737986,-0.2801202,0.7062859,-63.3664131,-91.2290039,-142.1755676
7760,3.2584918,-0.1436514,1.0845678,-73.2748108,-86.5572510,-134.1374054
7770,2.4157372,-0.1508339,1.2832855,-80.2977066,-86.3664093,-124.7709961
7780,1.8698620,0.0119709,1.2018831,-87.0152664,-91.2519073,-114.1526718
7790,1.6136837,0.2968795,1.2377959,-95.7709961,-98.5954208,-103.8931274
7800,1.5729824,0.5099624,1.4389079,-104.9618301,-105.1832047,-94.7709961
7810,1.7645177,0.6584021,1.8459201,-114.2442780,-111.4198456,-88.1832047
7820,1.7046629,0.7158626,2.2912393,-123.3129807,-117.9160309,-83.5572510
7830,1.6902977,0.6799498,3.0334380,-130.8091583,-124.4122162,-79.4656525
7840,1.6591733,0.7900825,3.7756367,-136.7557220,-128.3282471,-74.1526718
7850,1.6639616,0.8259954,4.5776901,-141.5572510,-127.2595444,-69.1908417
7860,1.6855093,0.6751614,5.3629842,-146.1755676,-120.0839691,-64.8473282
7870,1.2282192,0.3998296,6.0788469,-151.2595367,-105.3969498,-59.8625946
7880,0.2059003,0.2226596,6.7923155,-156.6335907,-88.8167953,-50.6564903
7890,-0.9911944,-0.3399749,8.5688038,-154.1221313,-74.8625946,-39.7786255
7900,-2.4827745,-0.5410868,9.7539282,-145.6488495,-69.1221390,-21.6412220
7910,-3.2489152,-0.3926471,10.3093796,-136.3206177,-64.0610657,1.3282443
7920,-3.1459649,-0.1843526,10.6278067,-130.9618378,-51.4503822,22.5725193
7930,-2.9544299,0.1340746,11.1593170,-129.0305328,-30.3358784,39.2137413
7940,-2.7341642,0.1532281,11.4538021,-132.6564941,-7.0000000,53.3893127
7950,-3.1004753,-0.1053443,12.5551291,-133.1297760,9.5496187,66.4732819
7960,-3.2153964,-0.2322364,13.6588507,-128.0458069,16.2519093,81.1450348
7970,-2.7126167,0.0071826,14.4609041,-118.3053436,18.0916023,94.0152664
7980,-1.9464760,0.2226596,14.9948082,-106.5877838,18.6946564,106.5496216
7990,-1.3072275,0.5746055,15.1791611,-94.8702316,19.7175579,117.1297684
8000,-0.4525018,0.8619082,15.3036594,-83.0610657,21.7022896,126.5038147
8010,0.4596844,1.1635761,15.4209747,-70.6793900,24.4732819,134.7175598
8020,1.5705882,1.4915800,15.1695843,-58.8625946,29.0763359,140.1603088
8030,2.6431851,1.8363433,14.8535509,-48.3129768,34.4427490,142.9465637
8040,3.6056492,2.0494261,14.5638542,-39.2824440,39.5648842,143.7786255
8050,4.3693957,2.3678534,14.2310619,-31.3435116,43.9312973,142.1068726
8060,5.1690550,2.7628946,13.6373034,-24.9083977,45.3053436,138.2977142
8070,5.8418221,2.9017577,12.9046812,-20.5114498,45.5877876,131.2824402
8080,6.1985564,2.9424589,12.2582502,-17.6335869,42.6564903,123.1832047
8090,6.4164276,2.8945751,11.5184450,-16.3664131,36.3587799,115.5725174
8100,6.6797886,2.6790979,10.8648319,-16.2977104,29.1679382,109.0457993
8110,6.9096308,2.5091105,10.3764172,-16.6335869,21.0000000,102.1526718
8120,7.1035600,1.9153515,9.4355011,-18.2366409,-3.5496182,90.5419846
8130,7.2065101,1.7501525,9.4259243,-17.7480907,-16.7786255,87.0229034
8140,7.6614060,1.6376256,9.3325500,-16.3206100,-27.5267181,83.9389343
8150,8.1354561,1.7070571,9.4283180,-14.0534353,-34.9541969,80.4732819
8160,8.5975342,1.8578910,9.5192976,-12.1221371,-37.0992355,75.5877838
8170,9.0141230,1.8411317,9.5576038,-10.4503813,-34.1526718,69.4732819
8180,8.9470863,1.7860653,9.6102762,-9.7022905,-27.7404575,63.5038185
8190,8.6717539,1.7142396,9.9239149,-8.6412210,-19.9770985,58.5419846
8200,8.0181408,1.6472024,10.3213511,-5.8854961,-12.1908398,54.6183205
8210,7.3429790,1.1923064,10.3141680,-0.5801527,-8.2824430,51.9083977
8220,6.0405402,0.5674229,10.2375546,6.5038166,-14.5648851,54.1450386
8230,5.8921003,0.6392486,10.2806492,9.0610685,-21.3206100,67.4198456
8240,6.5098009,0.8212070,10.3835993,8.6488552,-22.4198475,68.9389343
8250,7.2567883,0.7972651,10.8337069,7.1526718,-23.6488552,67.7557220
8260,7.5345144,0.8188128,12.2151546,14.7557249,-19.3816795,65.9236679
8270,7.8601241,0.9409165,12.4976692,25.5572510,-20.9236641,63.7862587
8280,8.2240410,1.1731528,12.4976692,35.0076332,-26.6030540,59.2595406
8290,8.4634600,1.2282192,12.4689388,42.5190849,-32.0076332,52.9541969
8300,8.6645718,1.0845678,12.3444405,47.6641235,-33.1526718,46.7786255
8310,9.0284882,0.6081241,12.5838594,50.6870232,-35.1603050,40.2061081
8320,9.1481981,0.1987177,13.2446556,55.8549614,-38.9236641,33.6488533
8330,9.2056589,-0.0071826,13.9246063,64.9083939,-43.7480927,27.5343513
8340,9.4283180,-0.4812321,14.2262735,76.0992355,-45.1526718,22.8320618
8350,9.4690189,-1.0151364,14.4321737,86.2366409,-45.7938919,19.4198475
8360,9.5145092,-1.3982066,14.5949793,97.4427490,-44.7175560,17.9236641
8370,9.7658987,-1.7094513,14.6500454,108.5877838,-41.4122124,17.3206100
8380,10.0077124,-2.0446377,14.4680872,120.9923630,-35.7709923,17.6488552
8390,10.2710724,-2.2696917,14.0682573,133.6183167,-29.5648861,17.8854961
8400,10.8169479,-2.4444675,13.3619709,145.1755676,-23.5190830,17.6488552
8410,11.5950594,-2.4564383,12.5503407,155.4656525,-18.8931293,15.2442751
8420,12.1816359,-2.3941894,11.6333666,164.6412201,-16.3511448,10.2595415
8430,12.6245613,-2.2768741,10.6014709,172.6641235,-15.6946564,3.6870229
8440,13.0148134,-2.2577207,9.9622221,181.4045868,-17.2900772,-3.8396947
8450,13.4337969,-1.6424140,7.7739329,185.3893127,-20.8091602,-13.8931293
8460,14.4225969,-1.4867916,6.5552907,182.2137451,-18.0381680,-24.4351139
8470,15.3156300,-1.0151364,5.4395986,175.4351196,-8.4351149,-38.0458031
8480,15.6963062,-0.6655847,4.0270267,165.1755676,5.3435116,-51.9465637
8490,15.6244802,-0.3591284,2.7581062,150.7786255,18.5801525,-64.8778610
8500,15.3683023,-0.0215477,1.7118455,133.6717529,30.3435116,-77.3969498
8510,15.0259333,0.1532281,1.0702027,117.2442780,37.2442741,-89.5419846
8520,14.3268299,0.0383070,0.9576758,103.5038147,36.7633591,-102.4809189
8530,13.6229382,0.0407012,0.9385223,92.2290039,28.4580154,-115.6106873
8540,12.9908724,0.1723816,0.8331779,83.8854980,12.0839691,-129.7862549
8550,12.3276815,0.1316804,0.5913648,75.6717529,-5.6641221,-146.3053436
8560,11.4011297,-0.1101327,0.6392486,67.0229034,-23.8625946,-160.9236603
8570,10.4817610,-0.2370248,0.9121862,59.6870232,-39.3282433,-172.7175598
8580,9.4450769,-0.3327923,1.0390782,53.4961815,-52.1374054,-180.9160309
8590,8.3245964,-0.3710994,0.9289455,47.3664131,-61.9083977,-186.0229034
8600,7.3884687,-0.4213773,0.8116302,41.5343513,-68.9770966,-188.8854980
8610,6.3924856,-0.4860204,0.4692611,33.9923668,-73.4274826,-188.8244324
8620,5.3629842,-0.4884146,0.2801202,24.7786255,-76.5801544,-186.7328186
8630,4.4292507,-0.4692611,0.1125269,15.0229006,-77.6870193,-182.0458069
8640,3.5242469,-0.2561783,0.1963235,4.8396945,-77.9923630,-174.1679382
8650,2.5234756,-0.2035061,0.1939293,-4.7709923,-76.5496216,-164.4351196
8660,1.7884595,0.1221037,0.0622489,-14.9007635,-71.5267181,-153.0915985
8670,1.0414724,0.3495516,0.1412572,-26.0916023,-67.6106873,-141.3053436
8680,0.4668669,0.5051740,0.1723816,-37.4503822,-68.1679382,-129.8244324
8690,-0.1699875,0.7038917,0.6871324,-47.7175560,-72.3053436,-118.6335907
8700,-0.7493813,0.8283895,1.0390782,-55.5267181,-81.0152664,-106.8396912
8710,-1.2066715,0.9480990,1.1611819,-62.3893127,-91.9923630,-93.4656525
8720,-1.6208663,1.1372399,1.1635761,-70.3969498,-102.5725174,-78.6106873
8730,-1.8243724,1.2761030,1.3670821,-79.7709961,-113.1908417,-63.5572510
8740,-1.8770446,1.5442522,1.7549409,-88.9694672,-121.7328262,-48.3435097
8750,-1.9129574,1.7094513,2.0494261,-96.9236679,-125.6335907,-32.3664131
8760,-1.7453641,1.9345051,2.2840567,-106.6259537,-123.8015289,-14.7404585
8770,-1.2114599,2.1164634,2.8203552,-117.7862625,-116.2977066,1.3053435
8780,-0.5985473,2.1404054,3.5649481,-128.1984711,-105.1145020,14.5725193
8790,-0.0407012,2.0973101,4.5609307,-136.9847260,-91.4809189,24.6946564
8800,0.6871324,2.0278785,5.4970589,-141.1145020,-78.4351120,32.6412201
8810,1.0055596,1.8818330,6.5983863,-140.0610657,-66.3816757,39.4122124
8820,1.4460905,1.8842272,7.4291697,-134.9694672,-54.5343513,44.3740463
8830,1.7070571,2.2433555,7.9343438,-129.0992432,-42.6030540,48.2748108
8840,2.0637913,2.3534882,8.2192526,-124.7709961,-27.3206100,51.3206100
8850,2.0183017,2.5713594,8.1881275,-123.0763321,-10.1832066,54.4503822
8860,1.8626794,2.6767037,8.4945841,-124.4351120,6.6259542,59.1221390
8870,1.9943599,2.6240315,8.7651272,-126.0992355,22.3511448,63.5038185
8880,2.0278785,2.6168492,9.3301563,-125.5419846,33.5572510,66.9694672
8890,2.1547706,2.3510940,9.7539282,-122.6946564,39.7709923,70.1679382
8900,2.4013720,2.0853391,10.2758608,-117.2442780,43.4427490,73.1679382
8910,2.3846128,1.8650736,10.2686787,-112.5190811,44.0152664,76.0076370
8920,2.0254843,1.7932479,10.3381100,-109.8396912,43.2213745,80.5648880
8930,1.8052188,1.8195840,10.8073711,-107.8549652,41.3893127,88.5038147
8940,1.7597293,1.9033806,11.4202833,-103.3587799,35.0763359,96.8473282
8950,2.3846128,2.0254843,12.0715036,-96.0457993,28.7862587,104.2213745
8960,3.4428444,2.2074428,12.3707771,-89.8167953,25.9312973,107.7480927
8970,4.8769641,2.3295465,12.5958309,-85.8244247,27.5190830,106.4351120
8980,5.8561873,2.3319404,12.9669304,-83.6106873,32.4961815,100.6030502
8990,6.1985564,2.3774302,13.5535069,-80.0076370,35.0228996,93.6641235
9000,6.0740585,2.0613971,14.0706511,-72.2824402,31.7480907,83.9770966
9010,5.6215568,1.6998745,14.1640244,-61.2290077,24.8244267,78.3358765
9020,5.1259594,1.4245427,13.7977142,-48.9694672,15.1755724,78.0076370
9030,5.0445571,1.0845678,13.3380299,-37.7099228,5.4198475,83.0610657
9040,5.5760674,1.0749911,13.0938225,-27.3511448,-0.1221374,91.3664093
9050,6.5505023,1.2737088,12.9358053,-17.3511448,-2.2595420,97.9312973
9060,7.9104018,1.4149660,12.4689388,-9.3358774,-1.1145039,102.4351120
9070,9.1960821,1.7812769,12.2007895,-3.6793892,2.7251909,100.6106873
9080,10.8241301,2.4420733,11.5830889,1.1984733,16.7557259,81.2442780
9090,10.5224628,2.5330524,11.0443964,-0.7480916,22.2442741,66.1526718
9100,9.6414013,2.3247581,10.8049774,-3.5114503,22.0839691,52.2061081
9110,8.4969788,1.8578910,10.8624372,-3.1145039,15.5725193,42.4885483
9120,7.2974896,1.2545552,10.7499104,0.7557252,4.2366414,37.8778610
9130,5.8753409,0.6607963,10.3907824,11.0610685,-17.4961834,45.1450386
9140,5.7939386,0.8307837,10.2303715,13.6335878,-21.2213745,51.9160309
9150,6.0022330,1.0702027,10.3812056,14.8702288,-21.1908398,56.6183205
9160,6.1913738,1.2042773,10.3907824,15.7862597,-17.4580154,59.1832047
9170,6.1003947,1.5011568,10.5990763,17.0305347,-13.5114508,60.2061081
9180,5.9064655,1.5753766,10.6541433,18.4503822,-9.5038166,60.1755714
9190,5.6143742,1.5370697,10.7259684,19.9465656,-7.4885497,59.1908379
9200,5.1642666,1.4652439,10.7690639,21.9847336,-7.4122138,58.4351158
9210,4.7428894,1.2449785,10.9821472,24.0305347,-10.5114508,58.1374054
9220,4.1299767,1.1109039,11.2862091,26.9389305,-18.5267181,59.2519073
9230,3.4404502,1.0366840,11.7123747,31.9541988,-29.0839691,62.7786255
9240,3.1531475,1.0103480,12.3085279,38.4427490,-40.4274826,69.0992355
9250,3.1699069,0.9840119,12.9046812,45.1374054,-51.5267181,76.7862625
9260,3.4979107,1.1611819,14.0155849,53.1526718,-63.0228996,85.2900772
9270,4.4603748,1.2808913,15.3563309,64.8549652,-72.5648880,91.5190811
9280,6.0932121,1.2186425,16.6970768,80.8549652,-75.3282471,95.4656525
9290,7.3693151,0.6919208,17.8343182,98.6335907,-70.0992355,95.6946564
9300,9.1362267,0.1101327,18.3849812,121.0916061,-52.6183205,98.1984711
9310,10.8289185,-0.8379663,18.4017410,143.5114441,-30.7175579,97.8015289
9320,11.8440552,-1.7453641,17.5182838,167.2137451,-11.7633591,94.9542007
9330,12.3348637,-2.9137285,16.1248665,190.6335907,-7.2519083,91.4045792
9340,12.9405937,-3.3446827,14.1855726,212.0610657,-15.5114508,87.1068726
9350,13.9748840,-3.2489152,12.2295198,227.7480927,-27.5801525,79.0381699
9360,15.7034883,-3.3662305,10.8552551,237.9084015,-42.4885483,64.7022934
9370,17.2477417,-3.2824337,10.1322098,245.6488495,-58.1297722,43.1374054
9380,17.8367119,-2.6982515,9.4378948,250.1297760,-75.7175598,17.7862587
9390,18.5214500,-3.0214672,8.2312231,250.1297760,-76.3664093,-11.4885492
9400,18.0378227,-2.8514795,6.6175399,250.1297760,-75.0687027,-40.4198456
9410,17.1998577,-2.8155668,4.8937230,250.1297760,-70.8167953,-63.8625946
9420,16.5797615,-2.8179610,3.3614421,250.1297760,-56.9847336,-82.0610657
9430,15.9931860,-2.6719155,2.1427996,241.2213745,-36.8167953,-95.0305328
9440,15.3180237,-2.3941894,0.7924767,226.7404633,-14.9083967,-106.2061081
9450,14.6620159,-2.4564383,0.3088504,212.2137451,2.6717558,-116.9160309
9460,13.7570124,-1.9368993,-0.9073978,196.8015289,16.1603050,-128.5877838
9470,13.1560707,-1.5274929,-1.7860653,177.9770966,23.3129768,-136.1984711
9480,13.2350798,-1.1204807,-2.3846128,158.6793823,31.7404575,-145.0152740
9490,13.0962162,-0.5267217,-2.9640064,138.7786255,34.9236641,-157.4732819
9500,12.5383701,-0.2513899,-3.3997490,118.6870193,31.9923668,-172.1450348
9510,11.8201132,0.0167593,-3.6224086,99.8320618,22.6030540,-186.9541931
9520,10.8648319,0.0957676,-3.6846576,80.4961853,8.0687027,-200.5801544
9530,10.3428984,0.1292862,-3.5817075,62.6641235,-10.3129768,-212.7480927
9540,9.4809904,0.0694315,-3.2632802,46.6183205,-30.7022896,-221.6870270
9550,8.4897957,0.1628049,-2.7676830,33.3740463,-48.4198456,-226.5267181
9560,7.5943689,0.1484398,-2.7293761,21.1603050,-63.7557259,-229.0229034
9570,6.8330169,0.0407012,-2.5641768,8.8473282,-76.6488571,-229.4961853
9580,5.6478930,-0.0478838,-2.6982515,-3.9847329,-87.5801544,-226.7404633
9590,4.3526363,0.0383070,-2.5689652,-18.1755733,-97.3282471,-219.4274750
9600,3.4069316,0.1221037,-2.4851687,-32.5954208,-105.4427490,-209.0458069
9610,2.4157372,0.3303981,-2.2720859,-48.3893127,-109.9389343,-196.8015289
9620,1.4915800,0.6081241,-2.1140692,-65.0534363,-111.6870193,-183.3435059
9630,0.6679789,0.8762733,-1.6974803,-82.5725174,-112.8473282,-168.2061005
9640,0.0215477,1.0103480,-1.1085097,-99.3358765,-115.0381699,-152.7328186
9650,-0.4189832,1.2617378,-0.2968795,-114.2290039,-117.9236679,-136.6259613
9660,-0.8188128,1.3144100,0.3854645,-126.5038147,-119.6412201,-121.2061081
9670,-1.3886299,1.4197544,1.0678085,-136.5267181,-124.3129807,-105.7404556
9680,-1.8818330,1.2425843,1.7884595,-143.7938995,-132.7709961,-89.8549652
9690,-2.7868366,1.2617378,2.6719155,-147.8396912,-144.2213745,-70.6564865
9700,-3.1675127,1.3910241,3.4021432,-149.5038147,-153.0839691,-48.3511467
9710,-2.9711890,1.6256547,4.0653338,-149.5648804,-157.8015289,-26.7404575
9720,-2.4253139,1.7836711,4.4436154,-151.9084015,-156.3129730,-7.4732823
9730,-1.6280488,1.8171898,4.5896611,-157.7480927,-146.9465637,9.0000000
9740,-0.7781116,1.7453641,5.3151007,-165.9160309,-129.5496216,21.7557259
9750,-0.0861908,1.6711442,6.0620875,-174.0610657,-106.6488571,30.8244267
9760,0.0885850,1.5562232,6.9383612,-179.7709961,-81.7099228,37.7328262
9770,-0.0407012,1.7118455,7.5488791,-183.3358765,-59.9389305,43.7251892
9780,-0.4692611,1.6280488,8.1450329,-184.5114441,-42.9389305,50.3664131
9790,-0.8930327,1.5370697,8.4299412,-184.9618378,-29.9083977,58.0763359
9800,-1.2473727,1.5035510,8.9710283,-184.0610657,-24.0229015,66.7938919
9810,-1.3455344,1.3311694,9.7156210,-180.7633514,-25.4656487,75.6641235
9820,-1.3168042,0.8571198,10.4195127,-174.0000000,-35.8396950,85.3893127
9830,-0.6943150,0.4788379,11.2766323,-163.3435059,-50.3206100,96.3893127
9840,-0.3447633,0.4860204,12.0020714,-149.7786255,-66.0000000,105.2366409
9850,0.3806761,0.3998296,12.6772327,-134.5877838,-77.6106873,115.6564865
9860,1.0534433,0.8379663,13.2566271,-118.2519073,-78.9542007,126.0000000
9870,1.7956421,1.1420283,13.5056229,-104.1297684,-69.9847336,137.1450348
9880,2.6503677,1.4700323,13.3907013,-93.8931274,-53.4809151,145.9541931
9890,3.3255291,1.4149660,13.2326851,-88.4732819,-33.4274826,152.5954132
9900,3.7828193,1.5250987,13.3691540,-86.9847336,-15.3816795,157.1832123
9910,4.2760224,1.3144100,14.0586805,-85.6870193,-0.0687023,159.2061005
9920,4.6926112,1.1228749,14.9349537,-80.6793900,9.0992365,160.2366486
9930,4.9320302,0.9935886,15.7944679,-68.7099228,10.4274807,160.8473358
9940,5.2672167,0.8619082,16.1942978,-49.9465637,4.0534353,161.0839691
9950,5.8418221,0.7134684,15.7920732,-29.0763359,-2.3435113,161.8854980
9960,6.5481081,0.8978211,14.7984848,-12.4198475,-4.0000000,162.3053436
9970,7.4219875,1.1228749,13.7689838,-1.9847329,-1.5114504,161.7709961
9980,8.7100611,1.5658000,12.3324699,5.9847326,15.4656487,155.8396912
9990,9.3157911,1.8961980,12.0643206,7.0916033,23.9312973,150.0686951
