timestamp,acclX,acclY,acclZ,gyroX,gyroY,gyroZ
0,-0.1915352,0.1125269,10.2926207,0.7557252,17.4274807,16.1450386
10,-0.2968795,0.0359128,10.2519188,1.8549619,17.1603050,17.9541988
20,-0.3782819,0.1221037,10.1058741,3.7328243,15.7251911,19.9465656
30,-0.1532281,0.2513899,9.5959110,7.1450381,8.9770994,22.8091602
40,-0.0933734,0.2705434,9.0332766,7.9007635,2.7099237,23.3358784
50,0.0646431,0.4094064,8.2360115,6.9694657,-6.2824426,23.0076332
60,0.5698171,0.5506636,6.8258343,-5.4503818,-30.2366409,17.1221371
70,0.8954269,0.4740495,6.9479380,-13.5190840,-44.0534363,12.4503813
80,1.0318956,0.3734936,7.5153608,-18.3969460,-58.6030540,7.6946564
90,1.2976507,0.2322364,7.9343438,-19.7862587,-72.4961853,3.2748091
100,1.5634058,0.2753318,8.6549950,-19.0381680,-87.1374054,-2.0076337
110,1.7932479,0.1101327,9.2008705,-14.9541988,-100.6793900,-6.7786260
120,1.8914096,0.0119709,9.6581602,-9.0305347,-109.5801544,-10.6488552
130,1.9895715,0.0263361,9.7275915,-3.3282442,-111.4351120,-12.8320608
140,2.0326669,-0.0239419,9.6605549,-0.6870229,-104.5038147,-13.1145039
150,1.9536586,-0.1364688,9.5025377,-2.1603053,-90.5267181,-10.9770994
160,1.6424140,-0.2178712,9.5192976,-6.0305343,-72.6259537,-5.7480917
170,1.4580613,-0.3208214,9.6030941,-10.8778629,-52.1297722,2.0152671
180,1.4652439,-0.3256098,9.8951855,-15.2900763,-30.5190830,10.2595415
190,1.4149660,-0.4070122,10.0388365,-18.8931293,-10.3969469,18.2671757
200,1.5610116,-0.4525018,10.1058741,-21.7786255,5.8778625,25.0152664
210,1.7046629,-0.4860204,10.3165627,-23.6870232,14.3740454,29.6717548
220,1.8291607,-0.4788379,10.6038647,-23.2137413,16.0229015,32.5114517
230,2.1308286,-0.4453192,10.6445665,-20.3664131,12.3129768,33.1755714
240,2.5067163,-0.3184272,10.6661139,-16.0381680,4.4351144,30.9847336
250,2.8323262,-0.1460456,10.7116032,-11.3664122,-6.1908398,26.0763359
260,3.0765336,0.2250538,10.6493549,-6.8167939,-19.3511448,20.0458012
270,3.9192882,0.9888002,10.3021975,-0.4122137,-36.5648842,9.1221371
280,3.2369442,-0.3136388,10.0795374,1.3740458,-38.4809151,0.0839695
290,2.3151813,0.1819584,9.7946291,0.6717557,-39.2442741,0.9923664
300,2.7509236,0.4572902,8.7699156,2.8015268,-59.6335869,-13.1526718
310,2.7078283,0.5315101,8.4227581,0.9160305,-66.6488571,-14.3969469
320,2.8945751,0.7709290,8.0803890,-1.1221374,-72.8396912,-17.1832066
330,2.7245877,0.7469871,7.8146343,-6.6793895,-73.5572510,-19.1068707
340,2.2457497,0.7326220,7.5345144,-14.4503813,-71.5572510,-18.5038166
350,1.8985922,0.6631905,7.3429790,-23.5648861,-64.0610657,-15.6412210
360,1.5083394,0.6560079,7.4219875,-35.6870232,-53.0076332,-11.5190840
370,0.9840119,0.4094064,8.0851774,-47.8396950,-39.6335869,-6.4809160
380,0.0622489,0.3806761,9.3349447,-54.8015251,-28.0152664,1.8396946
390,-1.0845678,0.4812321,9.8975792,-57.3587799,-20.6717548,14.6870232
400,-1.2545552,0.0047884,10.2136126,-60.9847336,-18.1221371,30.3435116
410,-1.7286048,-0.5075682,10.7307568,-63.7022896,-9.9618320,41.1526718
420,-3.3398943,-0.2035061,11.8368731,-64.5572510,-9.1450386,55.2137413
430,-4.0773048,-0.3615226,12.9501705,-60.3129768,-14.3206110,73.4809189
440,-4.2592630,-1.0869620,14.0012197,-52.7862587,-19.1755733,92.2824402
450,-4.5705075,-1.4700323,14.5087881,-43.3358765,-25.9083977,109.3435135
460,-4.8051381,-1.5083394,15.0402985,-31.1984730,-37.2519073,127.8854980
470,-4.3334827,-1.6902977,15.6436338,-16.4732819,-48.7251892,146.3511505
480,-3.5218527,-1.9464760,15.8950233,-2.3740458,-53.9618340,162.1908417
490,-2.8514795,-2.2337787,16.1200771,9.9236641,-56.3664131,176.3816833
500,-2.2936335,-2.5953014,16.4720230,22.0534344,-62.8702278,189.0229034
510,-1.6567791,-2.8730273,16.9676208,36.7938919,-73.4656525,199.5419922
520,-0.7469871,-3.1986370,17.1160603,54.3587799,-85.0381699,207.9160309
530,0.1340746,-3.4284792,16.8742466,68.4351120,-97.8473282,213.9007568
540,1.7645177,-3.8354914,16.9891682,81.6641235,-109.1374054,215.2748108
550,3.4572096,-4.5322008,16.8742466,94.0763321,-117.7557220,211.0381622
560,4.9463954,-5.2552457,16.9628315,103.4427490,-125.9007645,203.0992432
570,6.8832946,-5.5473371,17.6810894,118.4580154,-130.9770966,191.8931274
580,8.9470863,-5.5952206,18.3155499,135.3511505,-131.2366486,174.6564941
590,10.2207947,-5.5210009,18.5741215,155.6412201,-130.1297760,155.2061005
600,10.9510221,-5.9567432,17.7744617,177.0839691,-126.6564865,135.8091583
610,11.2957859,-6.0477223,16.6108856,196.1450348,-128.5343475,119.0534363
620,11.8967276,-5.8250628,15.4544926,211.0229034,-129.6412201,105.8320618
630,13.2446556,-5.3605900,14.6284971,222.8854980,-127.4656525,90.7938919
640,14.7051115,-5.0301919,13.9198179,233.2824402,-122.5801544,68.4885483
650,16.1176834,-4.8218975,13.2183199,242.1297760,-117.7557220,40.2290077
660,17.3794212,-4.6255741,12.1409349,247.7557220,-110.4732819,5.5801525
670,17.5541973,-4.4077029,10.6517487,246.9465637,-101.1068726,-32.0076332
680,17.0274754,-4.8147149,9.5240860,245.4274750,-98.1374054,-70.7938919
690,15.5263186,-5.1594782,7.6087341,234.9160309,-104.1450348,-104.8625946
700,13.7713776,-5.8466105,6.7372489,221.0000000,-113.1068726,-130.1450348
710,12.4545736,-6.1889796,6.4331870,209.8473358,-119.9542007,-145.6946564
720,11.4274664,-6.4020624,6.0788469,201.6641235,-123.7633591,-152.7099304
730,11.2550850,-6.1410961,5.8729467,195.7938995,-120.3740463,-155.5954132
740,11.5280218,-5.5497313,5.7221127,191.4198456,-109.9389343,-158.7480927
750,11.3316984,-4.9703374,5.1618724,188.0305328,-97.4656525,-164.6870270
760,10.8887739,-4.6040263,4.3023586,183.6793823,-85.2061081,-170.7175598
770,10.4075413,-4.2879934,3.5888901,178.0839691,-71.3816757,-174.1908417
780,10.0747490,-3.8905578,2.7533178,171.7786255,-60.9465637,-176.1145020
790,9.6342182,-3.5745249,2.0278785,165.0686951,-52.8091621,-176.9770966
800,9.2032642,-3.1531475,1.1468167,156.6488495,-48.2977104,-177.2061005
810,8.8369532,-2.7581062,0.3303981,145.9465637,-48.0687027,-176.4351196
820,8.6071110,-2.2912393,-0.3806761,134.0992432,-49.7175560,-175.6183167
830,8.1665802,-1.7932479,-1.2066715,121.4045792,-52.6030540,-175.3053436
840,7.4986014,-1.3886299,-2.0015423,105.5267181,-60.6946564,-175.3587799
850,7.0413113,-1.0582317,-2.7102225,88.4198456,-72.8015289,-176.0992432
860,6.6678176,-0.7876883,-2.9017577,68.8015289,-86.3969498,-178.6183167
870,6.1865854,-0.6009415,-2.9161227,49.0610695,-99.6946564,-182.2977142
880,5.4084740,-0.4333483,-2.5785420,31.4274807,-111.8320618,-185.2442780
890,4.7524662,-0.2394189,-2.3606708,14.8244276,-122.2366409,-187.5114441
900,4.0342093,-0.1340746,-1.8794388,-0.3129771,-129.8167877,-188.6564941
910,3.2345500,0.0622489,-1.6088953,-15.6335878,-132.2977142,-187.8396912
920,2.3175755,0.1484398,-1.5562232,-31.4580154,-129.8244324,-184.9847260
930,1.3096216,0.3710994,-1.1779412,-47.9007645,-127.1297684,-178.8091583
940,0.4572902,0.5698171,-0.6823440,-61.4503822,-127.5725174,-169.5877838
950,-0.3016679,0.7278336,-0.1484398,-71.2366409,-130.6488495,-157.1832123
960,-0.8499373,0.9552816,0.2226596,-78.8625946,-135.5343475,-142.0076294
970,-1.1180865,1.3694763,0.4908088,-85.8320618,-140.3129730,-125.2900772
980,-1.0582317,1.6974803,0.6919208,-93.6870193,-141.1068726,-109.5114517
990,-0.9385223,2.2625091,0.7757174,-104.0000000,-135.4656525,-96.1450348
1000,-0.8140244,2.8586621,0.9720409,-116.9083939,-126.2824402,-85.4427490
1010,-0.6464311,3.1076579,1.1970947,-131.3053436,-112.9389343,-78.4580154
1020,-0.3327923,2.9137285,1.5849534,-146.6106873,-96.8702316,-75.4732819
1030,-0.6488253,2.6096666,1.8363433,-160.3129730,-82.0534363,-75.4885483
1040,-1.1803354,2.2625091,2.0709739,-173.4885559,-75.6488571,-75.7786255
1050,-2.0637913,1.7070571,2.6024840,-184.4351196,-75.9847336,-74.6030502
1060,-3.3255291,1.5083394,3.2513094,-190.5190887,-85.7938919,-66.8244247
1070,-4.1515245,1.5825592,3.9432299,-193.8549652,-98.3282471,-54.5114517
1080,-4.3430595,1.9081690,4.9056940,-195.0381622,-107.7633591,-40.7175560
1090,-4.3263001,2.3582766,5.6119800,-195.1297760,-113.0992355,-27.2519093
1100,-4.0820932,2.4037662,5.9495606,-196.4503784,-110.7480927,-14.4122133
1110,-3.8307030,1.8339491,6.3805151,-200.3740387,-100.7404556,-0.1679389
1120,-3.4859397,1.5370697,6.9479380,-204.0992432,-88.1145020,14.6564884
1130,-3.0118904,1.1252691,7.7236552,-206.2671814,-75.3129807,28.3893127
1140,-2.8610563,0.9193687,8.4730368,-206.1755676,-66.8167953,41.8396950
1150,-2.6647329,0.8930327,9.5911226,-200.5877838,-62.6946564,56.1984749
1160,-2.2457497,1.1420283,10.4266949,-190.8396912,-60.1450386,71.7022934
1170,-1.7070571,1.3886299,10.7977943,-180.3893127,-54.7480927,86.7175598
1180,-0.9026094,1.6591733,10.8983507,-173.6183167,-47.7709923,99.0534363
1190,-0.0814024,1.8698620,10.9486284,-170.6870270,-39.9083977,109.2290039
1200,0.7038917,1.8243724,11.4274664,-170.3358765,-30.0076332,114.3969498
1210,1.1468167,1.8411317,12.1241751,-168.1145020,-23.5267181,115.8702316
1220,1.2665262,1.9464760,12.6197729,-164.1755676,-18.5267181,115.2900772
1230,1.1228749,2.0877333,12.9741125,-159.9389343,-17.8625946,112.8625946
1240,0.8666966,2.3415172,13.2709923,-155.5114441,-21.8625946,110.3053436
1250,0.5626345,2.3319404,13.4266148,-150.8931274,-25.1450386,109.0152664
1260,-0.1173153,1.9847831,13.8862991,-148.6259613,-25.5877857,110.2519073
1270,-0.9600700,1.3646880,14.5470953,-146.5877838,-27.9389305,116.4427490
1280,-1.5538290,0.8140244,15.7729197,-140.7786255,-34.9160309,127.8778610
1290,-1.6543850,0.0598547,17.0849361,-129.0152740,-46.1984749,143.2442780
1300,-1.2186425,-0.5722113,18.6028519,-110.2442780,-59.8625946,160.2290039
1310,-0.2585725,-0.9217629,19.6126022,-86.4045792,-72.0763321,175.0992432
1320,0.8044477,-1.2306134,19.6126022,-59.8549614,-80.3053436,187.0610657
1330,1.9704180,-1.2377959,19.6126022,-36.0916023,-81.0687027,197.4427490
1340,3.7062054,-1.0941446,19.6126022,-16.2366409,-72.2290039,203.9541931
1350,5.5257893,-0.7948709,19.6126022,0.5648855,-54.2671738,203.9694672
1360,6.3398137,-0.8355721,19.6126022,16.8015270,-34.3969460,199.7404633
1370,6.1219425,-1.2090657,19.5246143,35.2213745,-23.2519093,198.2061005
1380,6.1602492,-1.5274929,18.7393208,54.2900772,-17.9007626,200.4961853
1390,6.4858594,-1.5298871,17.5470142,69.6335907,-14.1068707,202.6183167
1400,6.9958215,-1.6256547,16.4792061,79.2748108,-10.0992365,201.8854980
1410,7.2472115,-1.6112895,15.8327751,86.1374054,-5.2671757,198.8091583
1420,7.2807302,-1.6663558,15.5550489,92.6793900,-5.6259542,192.8091583
1430,7.1514440,-2.0949159,15.3515425,100.9083939,-12.0534353,186.5725250
1440,7.5704269,-2.5234756,15.1097298,112.3282471,-19.4198475,183.1221313
1450,8.3700867,-2.7940190,14.9684725,122.5267181,-26.0458012,179.7328186
1460,9.3947992,-2.9376705,14.9397421,132.4045868,-27.0534344,176.5954132
1470,10.9534168,-2.8323262,14.9541073,140.9770966,-19.4961834,171.2824402
1480,12.4952745,-2.7197993,15.1384602,147.8931274,-5.5801525,159.9389343
1490,13.4050665,-2.8203552,15.1911325,154.5190887,10.4732828,144.3511505
1500,13.7761660,-3.0501974,15.1767673,163.5190887,22.7175579,126.2595444
1510,13.6349087,-3.2920105,14.8774929,174.2748108,28.3206100,108.9847336
1520,13.5630836,-3.6080434,14.2789459,185.2213745,30.0076332,93.0610657
1530,13.9820662,-4.0102673,13.6468801,195.7633514,27.8091602,81.3282471
1540,14.5590658,-4.3263001,12.6892042,204.7099304,25.0305347,69.2366409
1550,14.9780493,-4.4914994,11.7123747,210.4656525,18.3282452,58.2137413
1560,15.5813847,-4.4747400,11.0060892,214.6183167,9.8396950,46.7633591
1570,16.3235836,-4.3358769,10.4530315,218.3053436,-0.6793893,32.8167953
1580,17.3842087,-3.8977404,10.2447367,221.8396912,-14.1832066,16.2748089
1590,18.6172180,-3.9288650,10.5320396,229.1068726,-18.6335869,-5.8244276
1600,18.8925495,-3.6343796,9.9550400,237.9770966,-19.2137413,-31.3358784
1610,18.5525742,-3.8283088,8.8872309,244.5572510,-19.4351139,-56.0610695
1620,18.2796364,-4.3646073,8.3892403,248.2061005,-24.5877857,-78.2137375
1630,18.0210648,-4.5561423,7.7667508,250.1297760,-31.5419846,-98.8625946
1640,17.9205074,-4.8745699,6.8473821,250.1297760,-34.5954208,-114.4503784
1650,18.2509060,-4.9272418,5.6742291,250.1297760,-36.6030540,-126.1068726
1660,18.6124287,-4.2640514,4.0725164,250.1297760,-38.5725174,-136.4503784
1670,18.8231182,-3.6056492,2.1380112,250.1297760,-29.3664131,-148.2671814
1680,18.5717278,-2.8538737,0.3567342,235.4732819,-19.6641216,-164.0458069
1690,17.8917770,-1.6017127,-0.6991033,213.1450348,-16.7251911,-183.5496216
1700,17.1160603,-1.3215926,-1.4101776,189.8854980,-21.4503822,-210.2442780
1710,15.3778791,-1.5083394,-1.7597293,166.1984711,-28.9236641,-234.9847260
1720,13.4840746,-1.6519908,-1.9943599,145.2900696,-38.4122124,-250.1374054
1730,11.4945040,-2.1691356,-1.9776005,127.2977066,-51.3740463,-250.1374054
1740,9.5049324,-2.5091105,-2.1092808,108.9160309,-71.1526718,-250.1374054
1750,7.5752153,-2.6024840,-2.0613971,89.7938919,-93.3969498,-250.1374054
1760,5.6024032,-2.7245877,-1.8219782,70.5954208,-117.1603088,-250.1374054
1770,3.6535332,-2.8610563,-1.4628497,52.9618340,-140.3664093,-250.1374054
1780,2.0685797,-2.8993635,-1.1252691,36.9389305,-163.0763397,-250.1374054
1790,0.5698171,-2.8012016,-0.8188128,21.2137413,-185.1679382,-250.1374054
1800,-0.5578461,-2.5785420,-0.4501076,5.1374044,-204.4122162,-250.1374054
1810,-1.3575054,-2.3606708,-0.1460456,-10.7022905,-218.8015289,-239.7480927
1820,-1.8076130,-2.0039365,0.1364688,-27.1603050,-228.5267181,-217.6717529
1830,-2.2026544,-1.6711442,0.3758878,-44.1832047,-234.1526642,-195.6106873
1840,-2.6575503,-1.2952565,0.6895266,-61.5038185,-237.8091583,-172.0458069
1850,-2.9711890,-0.8164186,1.2617378,-76.8931274,-240.8549652,-148.7022858
1860,-3.3997490,-0.5243275,1.6950861,-91.0687027,-242.1526642,-125.3358765
1870,-3.7038112,-0.3710994,1.9847831,-105.8244247,-240.0305328,-100.5801544
1880,-3.7421181,-0.4501076,2.4324965,-120.9542007,-235.6335907,-75.9923630
1890,-3.6032550,-0.1987177,3.0071020,-134.9236603,-230.2442780,-52.3893127
1900,-3.4236910,-0.0933734,4.0533628,-145.4503784,-222.9007568,-30.9618320
1910,-3.2177906,0.3591284,4.9583664,-152.3587799,-213.9236603,-11.0305347
1920,-2.9400647,0.5506636,5.7292953,-157.6183167,-197.7938995,7.3969464
1930,-2.6575503,0.5817881,6.2512288,-162.6717529,-180.2213745,24.0763359
1940,-2.2529323,0.7852941,6.8066807,-167.4732819,-162.5572510,36.8625946
1950,-1.7597293,0.7493813,7.4219875,-171.8854980,-142.6717529,45.0839691
1960,-1.4365137,0.7541697,8.0708122,-175.3129730,-125.7709961,50.9847336
1970,-1.7333932,0.5171449,8.8441362,-175.4122162,-114.1984711,56.6335869
1980,-2.3774302,0.6416427,9.5839405,-171.7404633,-109.4427490,65.3664093
1990,-2.8921809,0.6296718,9.9191265,-165.6030579,-109.8091583,77.9160309
2000,-3.2848279,0.8379663,10.1705170,-157.6106873,-115.3129807,93.1755753
2010,-3.5218527,1.0654143,10.2662840,-148.9236603,-124.4122162,107.6793900
2020,-3.3662305,1.2162483,10.4027529,-140.4427490,-130.4503784,124.5725174
2030,-2.8610563,0.8834559,10.3620520,-135.5419922,-133.4122162,143.1679382
2040,-2.1499822,0.6129125,10.7594872,-131.0763397,-132.0915985,162.5038147
2050,-1.1372399,0.3567342,11.7027979,-124.8244247,-126.7557220,179.9770966
2060,0.3303981,0.5937590,12.5168228,-117.1221390,-115.1450348,195.3206177
2070,1.9273225,0.8762733,13.4744978,-107.0152664,-91.2290039,206.8396912
2080,3.2130022,1.6160779,14.0945930,-95.2595444,-63.4580154,214.0763397
2090,4.4220681,2.2625091,14.2550039,-85.0534363,-36.7709923,216.6870270
2100,5.4156566,2.8371146,14.1927547,-78.2290039,-13.4503813,214.3816833
2110,5.8968887,3.1579359,14.2286682,-72.9542007,2.5572519,207.1526642
2120,5.8274570,3.0621684,14.5255470,-66.3129807,9.1603050,199.3893127
2130,5.7915444,2.8921809,14.5399122,-57.7938919,6.8854961,192.2442780
2140,5.7149301,2.6767037,14.6117382,-49.2442741,-1.2977099,186.1755676
2150,5.6814117,2.4636209,15.0043850,-39.6030540,-10.9847326,182.2900696
2160,6.1291251,2.0183017,15.6484222,-28.4045811,-19.3893127,181.5648804
2170,6.8449879,2.0230901,16.1775379,-14.9312973,-24.0916023,181.3587799
2180,7.3286138,1.7956421,16.8383350,0.1908397,-26.1908398,181.8091583
2190,7.7404146,1.4820032,17.2190113,18.2824421,-24.4045811,183.7251892
2200,8.3988171,1.2521610,17.1615505,37.3435097,-20.6717548,186.3206177
2210,9.0835552,1.2210367,16.5510311,53.5496178,-15.6564884,186.1679382
2220,9.2726955,1.1156923,15.9069948,66.0763321,-13.3511448,183.8091583
2230,9.2703018,0.7062859,15.6029329,77.9312973,-14.8473282,181.1526642
2240,9.4163475,0.5219333,15.4425220,91.1450348,-18.5343513,178.6183167
2250,9.6078825,0.2992737,15.2461987,106.0839691,-23.5648861,174.1221313
2260,9.5288744,-0.1843526,14.4369621,119.3435135,-27.3969460,171.8320618
2270,9.4905672,-0.6057299,13.7043400,131.8320618,-27.2290077,172.2519073
2280,9.6150646,-1.0199248,12.9262285,141.5419922,-26.0992374,173.4198456
2290,9.9957409,-1.4293311,12.3971128,149.2748108,-23.8015270,174.8702240
2300,10.7954006,-1.7405758,12.1265697,156.4274750,-21.9236641,173.7328186
2310,12.1122046,-2.0973101,12.3612003,165.7175598,-20.7938938,168.9313049
2320,13.5846310,-2.1284344,12.1888189,177.1755676,-18.9160309,158.3511505
2330,14.5590658,-2.2098370,11.6597023,187.4274750,-19.8167934,141.2366486
2340,14.9349537,-2.0925217,10.2519188,187.9770966,-25.5267181,124.1145020
2350,15.2581692,-2.2122312,9.8592720,187.0381622,-32.2748108,105.4732819
2360,15.4568872,-2.1427996,9.2655134,186.9007568,-43.0076332,88.3587799
2370,16.1464138,-2.3702476,9.3588867,187.5572510,-57.5343513,71.8091583
2380,17.4009686,-2.2936335,9.5073261,191.5877838,-65.9236679,51.8549614
2390,18.3993454,-2.3582766,9.4857788,197.7099304,-64.4580154,30.4122143
2400,19.1032372,-2.2361729,8.9518747,203.6870270,-53.9083977,6.7022901
2410,19.4264526,-2.5091105,8.2551651,209.5343475,-38.3969460,-17.9694653
2420,19.0361996,-2.9137285,7.4650826,215.6412201,-20.3358784,-41.0610695
2430,18.2748489,-3.1435707,6.5600791,221.8091583,-4.3511453,-60.8167953
2440,17.6954536,-3.3734128,5.8466105,227.6946564,8.1526718,-78.3816757
2450,17.1471844,-3.5338237,5.2265158,235.3511505,16.6106873,-95.2671738
2460,16.5199070,-3.6678982,4.3047528,243.5572510,23.3664131,-110.8702316
2470,15.8208036,-3.4332676,2.8706331,247.2519073,28.7557259,-124.8091583
2480,15.0929699,-3.1220231,1.1468167,242.7938995,31.3435116,-137.9847260
2490,14.5973730,-2.6503677,-0.0837966,231.0458069,30.6641216,-151.3435059
2500,14.1927547,-2.0997043,-0.9193687,215.5419922,25.9618320,-164.9694672
2510,13.8408089,-1.6400198,-1.4197544,199.8167877,16.4198475,-179.1603088
2520,13.5463238,-1.2042773,-1.5322813,184.9847260,2.5877862,-193.7175598
2530,13.3428183,-0.7733232,-1.7788827,172.6564941,-13.4274807,-208.9236603
2540,12.8951044,-0.5099624,-2.0733681,161.5267181,-33.2137413,-224.3740387
2550,11.9948893,-0.4548960,-2.6575503,149.6717529,-54.3511467,-237.3206177
2560,11.0156660,-0.3184272,-2.8897867,134.8473358,-77.9312973,-246.4656525
2570,10.1776991,-0.0502780,-3.0310438,118.5877838,-105.2824402,-250.1374054
2580,9.4762020,0.3327923,-2.9352763,101.4732819,-131.4656525,-250.1374054
2590,8.3222027,0.4046180,-2.6695213,87.4198456,-155.7480927,-250.1374054
2600,7.1298962,0.5075682,-2.2553265,73.7557220,-178.0381622,-250.1374054
2610,6.2727766,0.7685348,-2.0087249,59.8015251,-196.7557220,-250.1374054
2620,5.7101417,0.9744351,-1.8028246,44.5038185,-207.3129730,-245.1984711
2630,5.0852585,1.1300575,-1.7070571,27.1984730,-210.0610657,-235.0381622
2640,4.4436154,1.0630201,-1.2617378,10.1679392,-208.1832123,-222.7786255
2650,3.7421181,1.2330076,-0.7421987,-5.0687022,-199.1679382,-206.8320618
2660,3.0094962,1.4867916,-0.4836263,-18.4580154,-185.1297760,-190.0229034
2670,2.4205256,1.6519908,-0.0790083,-30.5877857,-171.4961853,-171.8702240
2680,1.9201399,1.9249283,0.1340746,-40.8625946,-157.4961853,-153.7328186
2690,1.3359578,2.2050486,0.1819584,-48.8549614,-146.0458069,-136.6412201
2700,0.8427547,2.4229198,0.2035061,-57.1603050,-142.7099304,-119.4580154
2710,0.5147507,2.6814921,0.1891410,-64.1832047,-142.2061005,-103.0992355
2720,-0.0239419,2.8562679,0.1699875,-70.4885483,-145.2671814,-87.1068726
2730,-0.6488253,3.1675127,-0.1556223,-77.2137375,-153.2748108,-70.9236679
2740,-1.4077834,3.2513094,-0.2489957,-84.9236679,-164.3969421,-54.7022896
2750,-2.3199697,3.0597742,-0.8379663,-92.3893127,-177.8320618,-35.3511467
2760,-3.1315999,2.9400647,-1.6879035,-103.9236679,-194.1908417,-11.2595415
2770,-3.0885043,3.0597742,-2.1332228,-118.6030502,-209.8854980,13.5877867
2780,-2.6216373,2.9304879,-2.2577207,-136.9160309,-220.8702240,35.0763359
2790,-2.4253139,2.3630650,-1.9273225,-156.1755676,-225.8778687,56.3358765
2800,-2.0039365,1.9895715,-1.2737088,-172.8549652,-226.7786255,77.5572510
2810,-1.4317253,1.6304430,-0.7278336,-187.4809113,-223.1755676,96.1908417
2820,-0.9552816,1.3048333,-0.3567342,-202.1374054,-213.5877838,115.1068726
2830,-0.4955972,1.0486550,0.3016679,-218.8091583,-198.5419922,132.3129730
2840,0.1795642,0.9816177,1.4173602,-235.4427490,-178.1908417,145.6870270
2850,1.0175306,1.1372399,3.1603301,-250.1374054,-152.3587799,154.3206177
2860,1.6304430,1.1372399,5.4252334,-250.1374054,-122.3358765,159.5267181
2870,1.8124014,1.0702027,8.0756006,-250.1374054,-93.0916061,160.7709961
2880,1.6088953,0.6560079,10.8672256,-250.1374054,-71.9236679,162.3893127
2890,1.4293311,0.2681492,13.4505568,-230.7709961,-58.0534363,165.8549652
2900,1.0702027,0.0263361,15.3443604,-196.8320618,-47.4732819,172.8625946
2910,1.1635761,-0.1699875,15.6675758,-161.0686951,-34.3129768,183.4809113
2920,1.5011568,-0.4285599,14.9134064,-133.5572510,-17.7404575,199.0610657
2930,2.2050486,-0.3615226,14.1568422,-119.2137375,2.5496182,216.6030579
2940,3.1746953,-0.2394189,13.8647509,-112.8244247,22.2213745,231.7328186
2950,4.2041965,0.0933734,14.0084028,-108.0076370,40.0687027,241.1755676
2960,5.7747850,0.4860204,14.7936964,-101.1526718,53.6259537,242.9770966
2970,7.7308378,1.0678085,15.9357252,-89.1526718,66.6259537,235.7404633
2980,9.2583303,1.4939742,16.5390606,-72.6183243,85.0229034,220.2290039
2990,9.6701307,1.8339491,16.0865593,-55.9389305,104.0610657,202.1145020
3000,9.4355011,1.6208663,14.7218714,-47.3206100,121.1984711,185.6793823
3010,8.4203644,1.4436963,13.5870247,-44.6870232,130.3587799,172.2595367
3020,6.9359670,1.2282192,12.9046812,-43.4885483,129.5190887,164.8778687
3030,5.9375896,0.9193687,12.7562418,-41.4045792,118.6946564,162.9389343
3040,5.4419928,0.9289455,12.8855276,-37.2137413,103.7557220,163.6870270
3050,5.5712790,1.0223188,13.1943779,-31.0076332,90.5877838,166.3969421
3060,6.3350253,1.1372399,13.8479919,-24.8244267,84.7328262,167.3740387
3070,7.1466556,1.3431402,14.5566721,-19.2213745,93.2748108,165.4351196
3080,7.3788919,1.3670821,15.1408539,-14.3664122,112.5954208,161.3282471
3090,6.9718795,1.3335636,15.2868996,-10.6946564,135.7328186,157.2061005
3100,6.2105274,1.0414724,15.1791611,-5.3511453,153.2977142,153.8702240
3110,4.8697815,0.5027798,14.7314482,1.3282443,156.9236603,154.2519073
3120,3.7780309,0.0454896,14.1448717,9.7099237,145.6641235,159.7709961
3130,2.9879484,-0.6057299,13.1033993,17.9083977,117.6870193,169.7938995
3140,3.5721307,-1.0725969,12.8711624,25.7328243,83.2442780,183.1832123
3150,5.5545197,-0.8714849,13.0028429,32.9236641,58.3206100,192.4045868
3160,7.8361821,-0.4213773,13.6205435,35.3893127,50.2442741,192.4961853
3170,9.7371683,0.0981618,14.8559456,37.4885483,61.7709923,185.4198456
3180,10.7092094,0.5123565,15.8543224,41.7022896,83.5877838,171.8244324
3190,10.4027529,0.3806761,16.4193516,46.3664131,100.0229034,154.4122162
3200,9.5863342,-0.3878587,16.8910065,52.8244286,107.1297684,138.5419922
3210,8.6023226,-1.4197544,17.3818150,63.8091621,98.9389343,126.0992355
3220,7.5752153,-2.5115047,17.5015240,77.5877838,83.9007645,119.2519073
3230,6.8234401,-3.3710186,17.7289734,93.6030502,66.0305328,118.6030502
3240,6.5648675,-4.1204000,18.1671104,111.7251892,54.4427490,123.2519073
3250,7.0149751,-4.8745699,18.3203373,132.8702240,49.9160309,133.0458069
3260,8.3461447,-5.6071916,18.4208927,154.8854980,48.9541969,143.4274750
3270,10.4506369,-5.6598639,18.6938305,178.7938995,49.3435097,149.8625946
3280,12.3755655,-5.4395986,18.4376526,203.2595367,52.4885483,149.3664093
3290,14.8032732,-5.2336984,17.4584293,226.9160309,58.8625946,139.0458069
3300,16.7282009,-4.5322008,16.0817699,247.7328186,60.3129768,119.6106873
3310,18.4208927,-3.8283088,14.0299501,250.1297760,56.9618340,91.6870193
3320,19.4240589,-3.1339941,12.1122046,250.1297760,48.8320618,59.3129768
3330,19.6126022,-2.4253139,10.2758608,250.1297760,37.0916023,23.2519093
3340,19.6126022,-1.8650736,8.1354561,250.1297760,26.3740463,-13.8778629
3350,19.6126022,-1.1013272,5.9854736,250.1297760,20.4503822,-48.8549614
3360,19.6126022,-0.1244979,3.9552009,250.1297760,16.6870232,-84.1984711
3370,19.6126022,0.8379663,2.3654592,231.1374054,12.3358774,-125.3206100
3380,19.6126022,1.1396341,0.9480990,204.0534363,8.5419846,-169.9389343
3390,19.4815197,0.6153067,-0.1675933,174.2824402,-0.5419847,-211.2671814
3400,17.7146072,-0.2418131,-0.7469871,142.9313049,-12.3206110,-246.6793823
3410,15.0618458,-1.1611819,-0.2298422,114.9694672,-33.6030540,-250.1374054
3420,12.3540173,-1.7788827,0.5003856,94.4961853,-61.6259537,-250.1374054
3430,10.1346035,-2.1954718,1.0558375,80.3435135,-91.8244247,-250.1374054
3440,8.8872309,-2.2385671,1.3958124,71.7251892,-119.9312973,-250.1374054
3450,7.6135225,-2.1020982,1.4891858,66.3129807,-145.1984711,-250.1374054
3460,6.4116392,-2.0159075,0.6320660,59.8167953,-166.7709961,-250.1374054
3470,5.3988972,-1.7070571,-0.2633608,47.4274826,-183.7786255,-250.1374054
3480,4.1491303,-1.6711442,-0.9217629,28.5954189,-194.9007568,-250.1374054
3490,3.0214672,-1.7429699,-1.2473727,6.0305343,-198.7251892,-250.1374054
3500,2.0470319,-1.8435259,-1.6256547,-20.8396950,-190.5190887,-236.3129730
3510,1.1156923,-1.9177457,-1.8411317,-53.0610695,-169.5343475,-221.1374054
3520,0.0814024,-2.1811066,-1.2593436,-85.6183243,-140.9618378,-204.9694672
3530,-1.6711442,-2.3941894,-0.4405309,-114.0610657,-113.7709961,-185.4961853
3540,-3.4763632,-2.4731977,0.3543400,-136.9465637,-95.1374054,-162.3435059
3550,-4.6207857,-2.1739240,1.1563935,-155.6106873,-82.1603088,-138.6488495
3560,-5.8944945,-1.9752063,2.1427996,-169.7862549,-77.0763321,-114.6488571
3570,-6.5720501,-2.2098370,3.4763632,-177.9084015,-79.4580154,-88.5114517
3580,-6.4882536,-2.3008161,4.5226240,-180.6870270,-82.5648880,-63.4198456
3590,-5.9735026,-2.2361729,5.3893204,-182.6870270,-84.6641235,-41.4503822
3600,-5.0517397,-2.0230901,6.1841912,-186.1755676,-81.4122162,-25.6106873
3610,-4.2951760,-1.9895715,7.0006099,-192.9541931,-71.6793900,-16.5801525
3620,-3.3542595,-2.0470319,8.2072811,-201.9923706,-59.3969460,-13.6412210
3630,-3.0765336,-2.2696917,9.7706871,-208.9770966,-44.3969460,-15.9312973
3640,-3.5673423,-2.3894010,11.4849272,-207.8091583,-36.2900772,-18.8473282
3650,-4.3191175,-2.4277081,13.1584654,-198.1068726,-34.2213745,-19.8549614
3660,-5.4276276,-2.3774302,14.2478218,-181.5648804,-34.3206100,-16.9618320
3670,-6.3493905,-2.2912393,14.7075062,-161.4045868,-37.5648842,-6.9770994
3680,-7.1777802,-2.1715298,14.5997677,-140.6946564,-41.5343513,9.3358774
3690,-7.4124107,-1.6448082,13.7594070,-124.9083939,-43.9694672,30.4732819
3700,-6.9742737,-1.0845678,12.7514534,-118.1984711,-41.9236641,51.7251892
3710,-6.1003947,-0.5793939,12.6365318,-119.3129807,-33.3206100,72.0152664
3720,-4.7907729,-0.2896969,13.1680422,-121.9083939,-16.6793900,87.7786255
3730,-3.7109938,0.1723816,13.9198179,-122.2442780,5.6717558,98.0687027
3740,-2.6671271,0.1508339,14.4824524,-120.3129807,27.9770985,106.3129807
3750,-2.0542145,0.2729376,14.7362356,-115.7938919,47.5267181,108.6259537
3760,-1.8339491,0.4620786,14.9995966,-109.4198456,58.8778610,107.9770966
3770,-2.0254843,0.4213773,14.9972029,-100.9160309,59.5114517,104.9465637
3780,-2.1811066,0.2825144,14.7745428,-92.0229034,51.4122124,102.2824402
3790,-2.5761478,0.1939293,14.5925846,-82.8167953,35.7480927,100.6030502
3800,-2.7652888,0.0000000,14.6715927,-73.3053436,15.8167934,100.4351120
3810,-2.8778157,-0.3710994,14.8056679,-64.5572510,-4.4122138,102.7251892
3820,-2.7652888,-0.5650287,15.3539371,-54.3740463,-21.8778629,107.6870193
3830,-2.6048782,-0.8427547,15.4832230,-42.7480927,-32.5877876,113.6870193
3840,-2.3822186,-0.9983770,15.5406837,-31.9083977,-36.3511467,120.4045792
3850,-2.1260402,-1.1324517,15.2964764,-22.2977104,-35.0610695,127.7022934
3860,-2.0973101,-1.3862357,14.9373484,-14.0152674,-29.0229015,135.0381622
3870,-2.2265961,-1.6065011,14.3986549,-8.6793890,-22.0916023,143.5954132
3880,-2.4564383,-1.8650736,13.9461536,-6.5954199,-17.1374054,153.8931274
3890,-2.3846128,-2.1835008,14.0921993,-6.2061067,-13.5496187,166.7022858
3900,-2.2313845,-2.6144550,14.3962612,-3.4732823,-9.3206110,181.0686951
3910,-1.7860653,-2.8466914,14.9517136,0.9694657,-3.8778627,196.1984711
3920,-1.0845678,-3.0118904,15.2174683,6.7557254,3.5496182,209.1984711
3930,-0.3208214,-3.0118904,15.4640694,12.8625956,15.0687027,219.6793823
3940,0.2513899,-2.8490853,15.6819410,20.1145039,29.1221371,229.6335907
3950,0.7972651,-2.6958573,15.7034883,29.4274807,46.7480927,238.9313049
3960,1.7118455,-2.6623387,15.5071650,40.1297722,64.3129807,249.0839691
3970,3.1052637,-2.7964132,14.7889080,49.0534363,82.0152664,250.1297760
3980,5.1834202,-3.5050933,13.6157551,49.9312973,93.6641235,250.1297760
3990,7.2903070,-3.8714044,13.3212700,42.1755714,93.2366409,250.1297760
4000,9.1266499,-3.5673423,14.2334566,35.3587799,83.7099228,233.4809113
4010,10.1489687,-2.9687948,15.2701406,35.3511467,64.0305328,202.5267181
4020,9.7994175,-2.9975252,16.5630035,47.3435097,27.3129768,168.4198456
4030,9.4498653,-3.1627243,17.1807041,67.0610657,-16.3511448,135.4198456
4040,8.8680773,-3.6487448,17.0514164,90.0457993,-58.8015251,106.5725174
4050,8.4706421,-4.1323709,16.5534267,111.0076370,-95.8625946,83.8167953
4060,8.0732069,-4.3191175,15.9357252,127.4351120,-120.9236679,67.5954208
4070,8.0851774,-4.7117648,15.6987000,140.4351196,-133.3206177,58.4732819
4080,8.5855637,-4.8171091,15.6939116,150.4503784,-131.1374054,53.6564903
4090,9.6701307,-4.2305326,15.7968616,161.1221313,-121.2519073,51.0992355
4100,11.5088692,-4.1371593,15.8327751,174.2213745,-91.6412201,44.5419846
4110,12.4785156,-3.6295912,15.4520988,189.0534363,-54.9312973,30.7251911
4120,12.8160963,-3.3901722,14.5566721,202.2595367,-23.4732819,15.2519083
4130,12.9789009,-3.2656744,13.2638092,214.7022858,2.0839694,-0.7022901
4140,13.1871958,-3.1148405,11.3245163,222.3358765,21.9541988,-18.4961834
4150,12.9142580,-2.6336083,9.1290445,224.1984711,35.6946564,-35.8167953
4160,12.8663740,-2.0853391,7.0221577,219.5419922,45.1450386,-53.7557259
4170,12.5814657,-1.4460905,5.1666608,209.1450348,47.6183205,-71.6870193
4180,12.4330254,-0.7254394,3.7923961,194.4122162,38.6030540,-92.0000000
4190,12.0068598,-0.3303981,2.7605004,179.3740387,27.1908398,-113.0534363
4200,11.2383251,-0.0766141,1.8674678,163.2519073,11.1526718,-133.6564941
4210,10.3189564,0.1867468,1.2761030,146.3206177,-9.9236641,-151.5725250
4220,9.4857788,0.1244979,0.9576758,129.2442780,-31.8549614,-166.8167877
4230,8.6406298,0.0622489,0.8355721,113.3969498,-53.4656487,-179.9007568
4240,7.7332320,0.0407012,0.9840119,98.9923630,-76.2671738,-191.9465637
4250,6.8832946,-0.2011119,1.2114599,88.0534363,-101.1450348,-200.9694672
4260,6.3876977,-0.2849085,1.4652439,77.1908417,-124.1603088,-207.1832123
4270,5.7652082,-0.2537841,1.9177457,67.3435135,-142.0076294,-212.8854980
4280,5.3438311,-0.2609667,2.2984219,58.4885483,-155.9313049,-217.8778687
4290,4.8769641,-0.1316804,2.4684093,49.4885483,-160.7022858,-222.2442780
4300,4.2975702,-0.2370248,2.5138988,40.1145020,-155.8473358,-224.4885559
4310,3.3422885,-0.2394189,2.1643472,26.5038166,-144.7328186,-224.6641235
4320,2.1451938,-0.4788379,1.8914096,8.6106873,-131.8091583,-221.3816833
4330,0.6679789,-0.6727672,1.8411317,-10.7938929,-119.7633591,-213.9160309
4340,-0.8595140,-0.7685348,2.3486998,-28.4427490,-114.4580154,-203.3969421
4350,-2.1739240,-0.9433106,2.8371146,-41.4503822,-116.7251892,-188.9007568
4360,-3.3135581,-0.9361281,3.3111639,-49.1526718,-121.5801544,-171.3969421
4370,-3.9073172,-0.6607963,3.6128318,-55.4809151,-129.7938995,-152.6717529
4380,-4.5872669,-0.4405309,3.5457945,-62.1374054,-142.5114441,-134.7099304
4390,-4.8530221,-0.2968795,3.2465210,-71.8015289,-156.7175598,-116.7862625
4400,-4.5322008,-0.2920911,3.2752512,-86.9618301,-162.5725250,-100.5114517
4410,-4.1778607,0.1412572,3.8833754,-108.5190811,-159.3358765,-86.3816757
4420,-3.2848279,0.2298422,4.9056940,-131.6793823,-141.6412201,-75.6641235
4430,-2.8442972,0.1460456,6.3062949,-150.5572510,-108.9160309,-69.4503784
4440,-2.6120608,0.1651991,7.4243813,-165.9465637,-66.9770966,-65.6793900
4450,-3.1339941,0.3303981,7.8433647,-180.4351196,-23.4274807,-64.1526718
4460,-4.8099265,0.0287303,8.5065556,-195.5419922,8.6030531,-64.2137375
4470,-8.0061693,-0.3064562,10.2902260,-205.0152740,13.9923668,-54.1984749
4480,-10.1561518,-1.0342898,12.4186611,-197.0686951,2.2290077,-29.7557259
4490,-10.4554253,-0.9289455,13.6875811,-174.3816833,-17.5877857,3.6259542
4500,-8.9949694,-0.6320660,14.4130201,-146.4274750,-39.2213745,34.1145020
4510,-6.4834652,-0.1843526,14.4345684,-121.5419846,-52.5572510,56.3206100
4520,-3.3015873,0.6655847,13.7761660,-106.4809189,-55.5496178,66.3053436
4530,-0.5339043,1.4484847,13.2949343,-103.1297684,-45.3053436,63.5496178
4540,0.5027798,1.8842272,13.4002781,-104.6030502,-29.0610695,53.3053436
4550,0.4429250,1.8554969,13.9557304,-104.5114517,-13.8931293,42.5267181
4560,-0.1699875,1.8866212,14.2406387,-97.9236679,-1.9312977,37.5267181
4570,-0.7062859,1.7429699,13.7713776,-89.3893127,5.2977099,38.0228996
4580,-1.0965388,1.6855093,13.2063494,-82.9694672,8.1679392,41.3206100
4590,-1.2234308,1.6926919,12.5144281,-79.8625946,7.6259542,45.4961815
4600,-1.3670821,1.7190280,12.2007895,-79.9618301,2.9541984,49.4961815
4610,-1.3215926,1.7932479,12.0068598,-80.3587799,-2.3206108,53.1145020
4620,-1.2114599,1.6639616,12.2103662,-80.9618301,-6.8778625,57.0763359
4630,-0.9624642,1.8028246,12.4042959,-80.8396912,-8.3511448,60.3129768
4640,-0.7469871,1.3263810,12.8304615,-78.6717529,-10.1832066,61.7404594
4650,-0.6200951,1.0725969,13.3547888,-75.0534363,-9.8854961,61.5572510
4660,-0.6967092,0.8547257,13.6851873,-70.3664093,-8.8931293,60.7786255
4670,-0.9840119,0.6392486,14.0874109,-63.3664131,-7.0381680,59.6564903
4680,-1.6711442,0.4525018,14.1472654,-54.8473282,-8.7938929,61.6717567
4690,-2.6048782,-0.2082945,14.4944229,-43.9312973,-16.1450386,67.7328262
4700,-3.2225790,-0.7541697,14.6835642,-29.9312973,-25.5038166,80.0000000
4710,-3.0741394,-0.8666966,14.5830078,-15.7022905,-31.3969460,95.3053436
4720,-2.4013720,-0.8523315,14.0371332,-5.6641221,-30.0152664,115.2290039
4730,-1.1659702,-0.7182568,13.5199881,-1.7175573,-24.3740463,131.0381622
4740,-0.1867468,-0.6464311,13.3547888,-2.7633588,-13.6259546,142.3358765
4750,0.9768293,-0.7182568,13.4816809,-4.9083967,-3.7022901,148.4732819
4760,1.7669119,-0.2489957,13.5175934,-7.1068702,6.1679387,148.8320618
4770,2.3151813,0.0263361,13.8743277,-6.8015265,16.5190830,144.3358765
4780,1.8890154,-0.2394189,14.7793312,-3.8549619,22.6106873,137.6335907
4790,1.3383518,-0.3495516,15.3036594,1.7099236,23.7022896,130.4885559
4800,0.7493813,-0.9480990,15.8327751,11.4198475,18.4274807,124.8167953
4810,-0.0670373,-1.5586174,16.1176834,23.1221371,5.5877862,123.4351120
4820,-0.7924767,-2.2074428,16.5390606,37.6946564,-12.7709923,128.4427490
4830,-0.5171449,-2.7461352,16.8072090,53.9312973,-26.0916023,138.5190887
4840,-0.0383070,-3.1579359,16.7641144,69.9083939,-32.0076332,150.6793823
4850,0.7805058,-3.4763632,16.8191814,84.0000000,-33.7862587,164.9160309
4860,2.5569944,-3.7756367,17.0969067,98.9847336,-30.0152664,179.0534363
4870,4.8099265,-4.0102673,17.3889980,111.2290039,-17.6564884,188.3969421
4880,6.9239960,-3.6990228,17.4320927,124.1984711,-3.4961832,191.8854980
4890,9.2056589,-3.5601597,17.3147774,138.9465637,8.6412210,190.3893127
4900,11.8799677,-3.4404502,17.5039196,154.5496216,20.1832066,180.1526642
4910,14.4345684,-2.5282640,16.8670654,171.0000000,25.5190830,161.1068726
4920,16.4863892,-1.9273225,16.5773678,189.2671814,22.9847336,132.3816833
4930,18.3873749,-1.2114599,16.0123386,208.5267181,17.5190830,94.5496216
4940,19.4025116,-0.7302278,14.1520538,226.2519073,14.7862597,54.4274826
4950,19.6126022,-0.2729376,12.1050215,237.6946564,7.8396945,10.2137403
4960,18.6962261,-0.0790083,9.5839405,240.4732819,4.6335878,-29.4122143
4970,17.1998577,-0.1101327,7.1849627,233.3511505,6.3511453,-60.7633591
4980,15.7202482,-0.1268920,5.3749552,219.7557220,11.3969469,-81.5190811
4990,14.4345684,0.1221037,3.9168940,202.0839691,14.3664122,-96.2595444
5000,13.8216553,0.4979914,2.9448531,181.1145020,14.9541988,-112.6412201
5010,12.9022865,0.6272776,2.3486998,159.4274750,13.5954199,-132.0076294
5020,11.5160513,0.4333483,2.0685797,140.4274750,12.0000000,-150.0686951
5030,9.7826586,0.0454896,2.2313845,126.0305328,5.9312978,-162.9618378
5040,8.3293848,-0.2681492,2.3223639,116.0000000,-4.9618320,-171.0229034
5050,6.7994981,-0.3687052,2.1906834,108.5114517,-19.7709923,-175.1908417
5060,5.6981707,-0.3375807,2.1332228,101.3816757,-38.2900772,-177.1832123
5070,5.2121506,-0.2585725,1.7309990,99.6564865,-58.9771004,-179.3511505
5080,4.7931671,-0.0885850,1.1587877,91.9542007,-80.7099228,-182.4198456
5090,4.2137733,0.2466015,0.6943150,83.6488571,-98.9847336,-186.6259613
5100,3.5050933,0.4453192,0.1101327,73.7404556,-118.9618301,-190.1221313
5110,2.4731977,0.5578461,-0.5339043,60.4885483,-138.4122162,-190.8625946
5120,1.6352314,0.5243275,-1.1994889,40.9312973,-154.7175598,-188.4961853
5130,0.8978211,0.6871324,-1.1755470,18.5038166,-163.1679382,-182.9084015
5140,0.0263361,0.6679789,-0.9217629,-5.4351144,-162.7938995,-173.1755676
5150,-0.8403605,0.6919208,-0.5386927,-29.4274807,-156.4045868,-159.0000000
5160,-1.2042773,0.7445929,-0.3351865,-54.7633591,-143.8015289,-142.8167877
5170,-1.5011568,0.7278336,0.1388630,-80.1908417,-129.5343475,-127.7404556
5180,-1.7190280,0.7565638,0.7541697,-103.9389343,-116.9694672,-113.6412201
5190,-2.1499822,0.4189832,1.4652439,-125.3129807,-109.0839691,-99.7633591
5200,-2.3917952,0.1987177,2.2122312,-142.2977142,-107.5725174,-86.2137375
5210,-2.4444675,0.2489957,3.2417326,-155.3206177,-113.7328262,-74.3282471
5220,-2.3127871,0.0383070,4.8482337,-161.4656525,-125.1526718,-65.4198456
5230,-1.8818330,-0.0622489,6.6031747,-160.0152740,-135.2519073,-59.8625946
5240,-1.4724265,-0.2873027,7.8912482,-152.6412201,-140.0229034,-57.2595406
5250,-1.2354017,-0.2202654,8.5185261,-145.6106873,-136.2519073,-58.2366409
5260,-1.3503228,-0.1699875,8.5113440,-144.4732819,-123.2061081,-62.2748108
5270,-2.0997043,-0.2585725,8.1258793,-150.1221313,-106.8931274,-66.0534363
5280,-3.2896163,-0.9480990,8.2431946,-162.0534363,-95.0000000,-66.8396912
5290,-4.8314743,-1.8171898,9.3995876,-174.0686951,-85.9542007,-59.2213745
5300,-6.1650376,-2.1619530,11.0132713,-182.0458069,-79.9770966,-40.5190849
5310,-6.9862447,-2.4277081,13.2638092,-180.1374054,-72.0076370,-13.8473282
5320,-7.3238254,-2.1499822,14.5638542,-168.1679382,-64.3969498,17.7175579
5330,-6.8737178,-1.7573351,15.4544926,-152.2977142,-55.1603050,49.9007645
5340,-5.3845320,-1.5203103,15.8926296,-137.5801544,-37.2671738,78.0457993
5350,-3.7325413,-1.4053892,15.5718079,-125.8244247,-14.6641226,95.8167953
5360,-2.4731977,-1.2186425,15.3467541,-117.2061081,3.7022901,103.8549652
5370,-1.6280488,-1.1037214,14.8750992,-110.7175598,12.5114508,103.6259537
5380,-1.5442522,-1.4724265,14.8487625,-104.1450348,12.9236641,99.4503784
5390,-1.9345051,-1.7501525,15.0642405,-95.4122162,8.6412210,98.7022934
5400,-2.5905130,-1.8243724,15.0211449,-87.1297684,6.4732823,100.4274826
5410,-2.8419030,-1.6735384,15.1121235,-80.3129807,11.7404585,112.3740463
5420,-2.6838863,-1.5394639,15.2461987,-76.2748108,26.6259537,129.0305328
5430,-2.0111191,-1.3359578,15.3706961,-73.9542007,46.9007645,145.4732819
5440,-1.0821736,-1.0725969,15.2821112,-73.4274826,68.4198456,158.2824402
5450,0.3687052,-0.7948709,15.0953646,-74.3664093,86.9007645,163.8778687
5460,1.2617378,-0.5267217,15.2845058,-73.5572510,99.1679382,159.7328186
5470,1.9704180,-0.0263361,14.9876261,-71.9542007,105.0839691,147.5343475
5480,1.5753766,0.0598547,15.1504307,-68.1908417,95.1526718,132.4580078
5490,1.0247130,0.3064562,15.4066095,-59.9007645,77.2213745,119.9923630
5500,0.1244979,0.4381367,15.7729197,-48.3282433,50.2213745,112.9160309
5510,-0.1939293,0.2561783,16.2421818,-36.1145020,24.5496178,113.4351120
5520,0.0263361,0.1651991,16.2254219,-24.5114498,9.2595415,118.7404556
5530,0.1819584,0.0478838,16.4959660,-12.4961834,2.3358779,125.2748108
5540,0.7852941,0.1173153,16.2086620,-6.4198475,5.1984735,132.8320618
5550,1.5873476,0.0694315,15.8830528,-5.5267177,17.8702297,137.6870270
5560,2.0398495,-0.0909792,15.9548788,-7.4427481,32.2213745,139.5801544
5570,2.0422437,-0.4836263,15.9237537,-10.7862597,46.1832047,141.7557220
5580,2.0278785,-0.9433106,16.0626163,-13.6030531,57.9618340,145.7557220
5590,1.9488702,-1.7214222,16.6683464,-14.6641226,59.7480927,148.4809113
5600,2.0709739,-1.8052188,17.5685616,-11.8549614,48.3587799,149.8167877
5610,2.2625091,-2.3008161,19.2732258,1.5801526,31.1450386,148.1984711
5620,2.2529323,-2.7365584,19.6126022,25.6793900,14.0229006,144.2671814
5630,2.1739240,-3.2704628,19.6126022,53.0763359,1.9160305,141.5343475
5640,1.3622938,-4.3095412,19.6126022,81.8167953,-11.0916033,142.2366486
5650,0.7996593,-4.8649931,19.6126022,107.9007645,-22.9770985,149.3282471
5660,1.0558375,-5.4659348,19.6126022,131.9847260,-34.2366409,160.2748108
5670,1.1492109,-6.3302369,19.6126022,153.9770966,-46.1526718,171.9389343
5680,1.6112895,-7.3405848,19.6126022,180.2213745,-58.6641235,186.7862549
5690,3.2632802,-8.2336178,19.6126022,210.9770966,-65.8473282,200.4961853
5700,5.2528515,-8.7651272,19.6126022,243.2977142,-66.0152664,208.2824402
5710,8.4347296,-8.8968077,19.6126022,250.1297760,-59.7633591,206.1832123
5720,11.7961712,-8.1570034,19.2373123,250.1297760,-50.4961815,188.6259613
5730,13.9653072,-7.6183109,17.9276905,250.1297760,-40.9465637,156.5038147
5740,14.9277716,-7.0341287,15.9548788,250.1297760,-37.2137413,118.3740463
5750,15.0355101,-6.5026188,13.8575687,250.1297760,-43.2977104,79.6488571
5760,14.6189203,-6.0309634,11.2909975,250.1297760,-56.7862587,42.7099228
5770,13.9916430,-5.3294659,8.6214762,250.1297760,-80.6335907,11.3816795
5780,14.5087881,-4.4364328,6.4044566,250.1297760,-101.6106873,-18.1068707
5790,14.8822813,-3.2752512,4.2305326,250.1297760,-114.6793900,-50.8854980
5800,14.7769375,-2.1427996,2.0494261,250.1297760,-127.6946564,-84.6106873
5810,13.6061783,-0.9361281,-0.1101327,250.1297760,-138.2213745,-115.0534363
5820,12.1265697,-0.8068419,-2.1811066,250.1297760,-154.8320618,-136.5419922
5830,10.9103212,-0.7110743,-3.6750808,250.1297760,-140.3206177,-157.1297760
5840,9.2104464,-0.0239419,-4.3909435,240.4885559,-126.9694672,-167.5648804
5850,8.0492649,0.2513899,-4.2209558,197.8396912,-116.5114517,-172.6946564
5860,7.2927012,0.3280039,-3.5577655,161.8778687,-108.3893127,-175.5419922
5870,6.7947097,0.3184272,-2.9735832,133.6030579,-99.0763321,-177.5267181
5880,5.9878678,0.3687052,-2.4516499,110.4809189,-88.1908417,-178.6030579
5890,5.1475072,0.2849085,-2.3678534,91.5877838,-79.5496216,-179.1679382
5900,4.2161674,0.1963235,-2.3582766,74.7251892,-74.4656525,-178.5038147
5910,3.4356618,0.2513899,-2.6767037,58.1603050,-71.3206100,-177.4580078
5920,2.5498118,0.3280039,-3.1363883,40.4427490,-68.6488571,-176.2900696
5930,1.6376256,0.2992737,-3.4979107,21.6717548,-68.4885483,-174.0686951
5940,0.4908088,0.3758878,-3.7133877,2.5267177,-70.6946564,-170.3053436
5950,-0.6871324,0.4620786,-3.7876077,-15.2900763,-79.7633591,-163.2977142
5960,-1.5873476,0.5458752,-3.6918402,-32.3816795,-93.4198456,-153.7328186
5970,-2.1332228,0.6296718,-3.3662305,-48.7099228,-109.2900772,-142.7938995
5980,-2.4277081,0.7278336,-3.0142846,-65.1297684,-124.7404556,-131.3435059
5990,-2.8538737,0.6919208,-2.4851687,-80.1908417,-138.8778687,-119.3816757
6000,-3.2560976,0.9073978,-1.8411317,-93.8091583,-151.1679382,-106.5343475
6010,-3.5936785,1.2258250,-1.3958124,-106.4503784,-159.0534363,-92.6564865
6020,-3.7109938,1.0079538,-0.8451489,-119.8244247,-163.4580078,-77.8549652
6030,-3.7947903,1.0582317,-0.0718257,-133.2519073,-165.3206177,-63.1374054
6040,-3.8091555,1.1468167,0.7062859,-144.3587799,-165.4885559,-48.4656487
6050,-3.5457945,1.1851238,1.5969244,-153.3511505,-163.6488495,-35.6259537
6060,-3.1220231,1.3455344,2.3223639,-159.7633514,-156.8473358,-25.6488552
6070,-2.9855542,1.7142396,2.7988074,-167.2671814,-147.8320618,-18.4503822
6080,-2.9089401,1.8315549,3.1555417,-177.9541931,-136.1832123,-14.0916033
6090,-2.8993635,1.8124014,3.7229645,-190.9923706,-122.5648880,-11.9847326
6100,-3.1699069,1.1803354,4.3861551,-204.4045868,-110.8015289,-8.8244276
6110,-3.4548154,0.6129125,5.1068063,-214.7175598,-104.6106873,-3.0152671
6120,-3.7540891,-0.0095768,5.9902620,-222.5648804,-101.7633591,4.8549619
6130,-3.7708483,-0.1197095,6.8856888,-228.0839691,-99.3587799,14.6106873
6140,-3.8139439,-0.1843526,8.0660238,-228.8473358,-98.2290039,24.0076332
6150,-3.7588775,0.0981618,9.0332766,-226.9541931,-97.0839691,31.6946564
6160,-3.7540891,0.2729376,9.4618368,-227.8702240,-92.7480927,38.8320618
6170,-3.8043671,-0.2394189,10.0915089,-231.1450348,-83.3511429,46.1984749
6180,-3.6511390,-0.5961532,10.7403336,-236.2824402,-70.2137375,52.8091621
6190,-3.5673423,-1.1444225,11.8249016,-241.9618378,-51.7938919,57.8854980
6200,-3.6224086,-1.6041069,13.1129761,-244.0076294,-34.5877876,62.2290077
6210,-3.9599893,-1.6759326,14.5542774,-239.9007568,-20.3511448,66.0457993
6220,-4.5178356,-1.7549409,15.6053267,-230.0610657,-9.5419846,70.0763321
6230,-5.4922705,-1.6831152,16.7258072,-215.5267181,-5.0076337,77.7404556
6240,-6.2871413,-1.8411317,17.4033623,-196.8854980,-10.6946564,90.5496216
6250,-6.5409255,-1.7669119,17.6212349,-176.9541931,-22.3053436,108.6106873
6260,-5.8513989,-1.8291607,17.8438931,-158.9694672,-31.5038166,130.1145020
6270,-4.6495161,-1.8459201,17.9420567,-145.0992432,-35.5648842,150.0000000
6280,-2.8514795,-1.4987626,18.4615955,-132.4427490,-31.2061062,165.1374054
6290,-0.6464311,-1.2354017,19.0936604,-118.9770966,-17.0839691,172.0839691
6300,1.1252691,-0.6871324,19.5126438,-104.5725174,4.3664122,168.9694672
6310,1.7190280,-0.1891410,19.5437679,-88.6259537,20.7175579,158.0686951
6320,0.9385223,0.1867468,18.6507359,-72.9236679,25.4427490,145.0305328
6330,-0.1484398,0.0909792,17.3602676,-59.6488533,18.6106873,135.5419922
6340,-1.1109039,-0.2466015,16.2038746,-52.4122124,3.6259542,133.1832123
6350,-1.2066715,-0.4716553,15.0522690,-51.7404594,-12.3358774,135.5190887
6360,-1.0510491,-0.8331779,14.5710373,-57.7557259,-28.2213745,138.5419922
6370,-1.0199248,-1.0702027,15.1193066,-65.5267181,-44.8396950,142.0000000
6380,-0.4046180,-1.1851238,16.6156750,-67.7709961,-55.9389305,143.9541931
6390,-0.2825144,-1.8076130,17.9659977,-61.4656487,-63.4503822,145.4885559
6400,-0.0766141,-2.7365584,19.3091373,-51.5877876,-68.9770966,149.8091583
6410,-0.2394189,-3.9360476,19.6126022,-34.5038185,-70.0381699,162.1908417
6420,-0.1292862,-4.7955613,19.6126022,-9.1526718,-66.5496216,183.4961853
6430,0.9265513,-5.3629842,19.6126022,20.8549614,-58.4351158,210.7786255
6440,2.9903426,-5.5808558,19.6126022,49.9618340,-41.1068687,235.5648804
6450,4.9032998,-5.3318601,19.6126022,71.5038147,-20.9694653,250.1297760
6460,6.5959921,-5.4252334,19.6126022,86.8244247,-2.3969467,250.1297760
6470,8.4874020,-5.6933827,19.4408188,99.3587799,12.2900763,250.1297760
6480,10.7906122,-5.5473371,19.3306866,112.1068726,19.6717548,250.1297760
6490,12.7825775,-5.1379304,19.2253418,128.1526642,22.0763359,250.1297760
6500,13.8551741,-4.5417776,18.8686066,145.0839691,19.0152664,226.5267181
6510,14.0491037,-4.1227942,18.4232883,165.3129730,7.7175574,195.6412201
6520,13.6851873,-4.1802549,17.4392757,187.1603088,-11.3740454,164.2900696
6530,13.3715477,-4.2712340,16.3834381,208.6030579,-35.7862587,134.2824402
6540,13.2231083,-4.4292507,15.3539371,228.0076294,-56.7557259,105.9312973
6550,13.2374735,-4.4531922,14.6476507,245.8778687,-74.1603088,79.3206100
6560,13.6636391,-4.3933377,13.9677010,250.1297760,-83.6030502,53.0916023
6570,14.0514975,-4.3047528,12.8807392,250.1297760,-88.8702316,26.5877857
6580,14.2765512,-4.1060348,11.5567522,250.1297760,-89.5801544,0.3206107
6590,14.5854025,-3.8259149,10.1609402,250.1297760,-86.4045792,-24.8091602
6600,14.7506008,-3.5074875,8.5759869,250.1297760,-81.6106873,-49.0305328
6610,14.9612904,-3.0885043,6.9072366,250.1297760,-75.7099228,-72.8244247
6620,15.0833931,-2.5857246,5.2025738,250.1297760,-67.2366409,-95.6488571
6630,14.9158001,-2.2409613,3.8067613,250.1297760,-59.6717567,-117.3664093
6640,14.7841196,-1.7812769,3.0166788,250.1297760,-50.6793900,-139.2290039
6650,14.3100700,-1.7118455,2.3056045,233.8244324,-43.4656487,-160.3435059
6660,13.8240499,-1.7070571,1.6831152,217.6030579,-38.8396950,-178.5190887
6670,13.0962162,-1.5897418,0.9289455,201.2519073,-38.6793900,-193.8167877
6680,12.2917690,-1.5466464,0.2777260,184.3129730,-40.3435097,-208.3358765
6690,11.0994625,-1.6424140,-0.2442073,167.4809113,-43.1755714,-221.4351196
6700,9.8592720,-1.6998745,-0.6967092,150.5038147,-51.3816795,-232.4580078
6710,8.4323349,-1.8147956,-1.0079538,133.0534363,-62.3740463,-239.3893127
6720,7.3022780,-1.8171898,-1.1923064,115.5954208,-75.1526718,-241.7175598
6730,6.3517847,-1.6495966,-1.2617378,99.0610657,-87.7709961,-241.8702240
6740,5.1834202,-1.7022687,-1.3263810,83.7099228,-99.0305328,-240.8778687
6750,3.9671719,-1.6974803,-1.6759326,66.7404556,-111.0534363,-236.6030579
6760,2.8395088,-1.4628497,-1.9225341,45.7175560,-117.2824402,-228.2748108
6770,1.9752063,-1.2354017,-2.1954718,19.7786255,-112.0534363,-217.5801544
6780,1.1947005,-1.0893562,-2.3846128,-10.8167934,-97.9923630,-206.1068726
6790,0.0814024,-0.9672526,-2.0949159,-42.5877876,-82.3587799,-192.8625946
6800,-0.8427547,-0.8188128,-1.1755470,-71.1221390,-68.4656525,-177.6335907
6810,-1.5179161,-0.9097920,-0.1244979,-91.7404556,-58.6870232,-162.1755676
6820,-2.3702476,-0.9002152,0.9983770,-105.7862625,-56.5648842,-147.2061005
6830,-3.2130022,-0.8259954,2.1260402,-113.6946564,-62.8778610,-131.1984711
6840,-3.9336534,-0.5003856,3.2130022,-115.1145020,-76.6717529,-114.5496216
6850,-4.2879934,-0.2609667,3.7636659,-111.6793900,-96.3511429,-98.7099228
6860,-4.2568688,0.1125269,4.3406653,-105.9923630,-119.2137375,-85.0381699
6870,-4.1611013,0.4285599,4.3813667,-101.1755753,-141.4809113,-74.0610657
6880,-3.9671719,0.6272776,3.8833754,-99.5877838,-161.5877838,-64.6946564
6890,-3.3327117,0.5410868,3.5003049,-103.9542007,-178.5496216,-56.5725174
6900,-2.7820482,0.5195391,3.5170643,-113.2442780,-187.3740387,-50.7938919
6910,-2.7269819,0.5123565,3.7109938,-126.9236679,-185.8778687,-45.0152664
6920,-2.9065459,0.6607963,4.1946201,-141.2061005,-179.2977142,-38.0687027
6930,-2.9664006,0.5602403,4.5345950,-157.9236603,-164.7557220,-31.7709923
6940,-3.6343796,0.5578461,5.4491754,-175.3816833,-146.1450348,-25.1068707
6950,-4.8195033,0.3447633,6.6845770,-189.5419922,-130.9541931,-14.6412210
6960,-5.2600341,-0.0526722,7.6446471,-201.0992432,-117.9465637,-1.5419847
6970,-5.6239510,-0.7733232,9.0045462,-208.5877838,-103.6412201,12.9083967
6980,-5.8944945,-1.2641320,10.0244713,-210.2519073,-90.8091583,28.7175579
6990,-5.8609757,-1.5346755,11.1688938,-208.1221313,-81.2595444,44.8167953
7000,-5.5018473,-1.3239868,12.0978394,-202.2061005,-70.2595444,58.6183205
7010,-5.2384863,-1.0462608,12.9382000,-195.3129730,-52.9923668,70.8702316
7020,-4.9440012,-0.8379663,13.1512823,-192.2900696,-30.1145039,80.0763321
7030,-4.8841467,-0.9983770,13.3691540,-193.7328186,-7.6335878,86.7938919
7040,-5.3653784,-1.3287752,14.2023315,-197.1068726,7.1526718,93.6946564
7050,-5.7412663,-1.7549409,15.7082767,-196.0915985,14.7480917,102.9083939
7060,-6.1554613,-1.9416877,17.5541973,-185.1984711,15.0992365,114.5419846
7070,-6.2631998,-2.1427996,18.9954987,-166.0763397,12.4732828,128.6412201
7080,-6.3086891,-2.1787124,19.6126022,-141.9618378,10.0076332,144.3587799
7090,-6.1841912,-2.0997043,19.6126022,-118.0992355,9.9923668,161.1603088
7100,-5.7316895,-1.8938038,19.2780132,-99.0916061,11.2061071,178.9084015
7110,-5.0134325,-1.8124014,18.6196117,-88.9160309,15.6717558,195.2748108
7120,-4.2544746,-1.7669119,18.4927197,-84.4122162,25.9389305,209.3435059
7130,-3.8642218,-2.1691356,19.1726685,-80.4427490,36.5038185,223.1832123
7140,-3.4739690,-2.8203552,19.6126022,-72.8854980,43.3816795,237.2061005
7150,-2.9376705,-3.2273674,19.6126022,-58.9007645,43.0839691,248.6641235
7160,-2.2242019,-3.9097114,19.6126022,-38.8320618,33.0381660,250.1297760
7170,-1.6304430,-4.2879934,19.6126022,-16.7022896,15.3511448,250.1297760
7180,-1.2473727,-4.5250182,18.7273502,5.4961834,-9.3129768,250.1297760
7190,-1.2282192,-5.0876527,17.3387203,20.9694653,-36.7938919,250.1297760
7200,-0.2130829,-5.6143742,16.7760849,29.6641216,-55.7786255,250.1297760
7210,1.1468167,-5.9591374,17.2573185,36.4274826,-67.1526718,250.1297760
7220,3.5218527,-6.2895355,18.5597572,45.2290077,-76.4503784,250.1297760
7230,6.5552907,-6.2655940,19.6126022,61.6717567,-68.9083939,250.1297760
7240,9.6150646,-5.8490047,19.6126022,84.7786255,-48.2824440,250.1297760
7250,11.8895445,-5.1163831,19.6126022,106.3053436,-26.5725193,250.1297760
7260,12.5671005,-4.6734576,19.6126022,128.2366486,-17.3358784,250.1297760
7270,12.8974981,-4.5896611,19.4240589,149.0763397,-20.8854961,231.3969421
7280,13.1919842,-4.5585365,18.7034073,169.2595367,-34.4122124,208.5648804
7290,13.8623571,-4.2448978,17.9444504,190.2671814,-52.9312973,184.3893127
7300,14.3962612,-3.8857694,16.9197369,208.9313049,-71.2595444,158.6717529
7310,15.3371773,-3.2345500,15.6316633,224.1297760,-81.9236679,130.2442780
7320,16.3092194,-2.7150109,14.8343983,235.5496216,-80.9923630,99.0839691
7330,16.8215752,-2.1188576,13.9293938,243.9084015,-70.4045792,65.6717529
7340,16.7689037,-1.9967541,12.9525652,250.1297760,-56.3664131,31.2290077
7350,16.0410690,-2.0470319,11.4681673,250.1297760,-43.2290077,-0.8625954
7360,14.8487625,-2.2649033,9.7994175,250.1297760,-33.0458031,-27.8015270
7370,13.7881374,-2.4013720,8.2671366,250.1297760,-26.8549614,-49.3664131
7380,13.1297350,-2.2960277,6.9407554,248.1984711,-24.1145039,-66.5648880
7390,12.6508970,-2.0661855,5.7676024,237.9770966,-24.7404575,-81.3893127
7400,12.3061342,-1.7717001,4.9727316,225.2748108,-27.2748089,-95.4809189
7410,11.8153248,-1.3766589,4.4603748,212.5572510,-35.3435097,-109.7022934
7420,11.3053627,-1.2162483,4.0222383,202.7709961,-47.8778610,-123.6564865
7430,11.0611553,-0.9720409,3.4284792,194.2061005,-64.6488571,-136.7557220
7440,10.9917240,-0.5985473,3.0071020,185.9465637,-81.8396912,-150.2824402
7450,10.8839855,-0.3040621,2.4899571,177.3282471,-100.0687027,-165.9313049
7460,10.8001890,-0.1651991,1.7932479,167.2366486,-119.5572510,-182.3969421
7470,10.4195127,-0.0023942,1.5227045,155.5572510,-134.5648804,-198.9389343
7480,9.6821022,0.0047884,1.1324517,143.2748108,-142.5419922,-213.1145020
7490,8.7459745,-0.1292862,0.8259954,129.2671814,-145.5648804,-222.7328186
7500,7.6853480,-0.2035061,0.4836263,114.3435135,-141.4045868,-227.2290039
7510,6.5552907,-0.2873027,0.0622489,98.6641235,-132.4274750,-227.0610657
7520,5.4850879,-0.3375807,-0.3423691,80.1374054,-121.7175598,-222.9465637
7530,4.5920553,-0.2011119,-0.9433106,60.2824440,-110.5877838,-216.4122162
7540,3.7780309,-0.0622489,-1.4029950,37.9847336,-97.2748108,-208.6641235
7550,2.9448531,0.1077385,-1.6591733,12.0229006,-80.6412201,-200.0381622
7560,2.2385671,0.0742199,-1.5394639,-13.6259546,-59.5114517,-191.2061005
7570,1.3886299,0.0598547,-1.5993185,-39.0152664,-35.0152664,-182.1832123
7580,0.7110743,0.2202654,-1.3096216,-62.4809151,-15.4961834,-173.3129730
7590,-0.0766141,0.2466015,-0.9600700,-81.1068726,-0.9007633,-165.3435059
7600,-0.9480990,0.3280039,-0.5362985,-96.0610657,7.1450381,-157.3816833
7610,-2.1906834,0.3136388,-0.2082945,-106.3587799,4.7709923,-147.5343475
7620,-3.2369442,0.1340746,0.0454896,-112.2900772,-10.0381680,-133.5725250
7630,-3.5745249,0.1939293,0.0957676,-116.8778610,-33.5496178,-117.3664093
7640,-3.3949606,0.2705434,-0.0742199,-123.2137375,-60.2977104,-103.6641235
7650,-3.1052637,0.3758878,-0.1340746,-131.6946564,-85.7633591,-92.6106873
7660,-2.9472473,0.1436514,-0.0023942,-143.3511505,-108.9847336,-83.2442780
7670,-2.8012016,-0.0622489,0.7230452,-156.0076294,-129.3969421,-76.2824402
7680,-2.5737536,-0.0814024,1.7094513,-168.8015289,-142.3053436,-70.2061081
7690,-2.3678534,-0.1987177,2.5929072,-181.2290039,-145.0000000,-62.9312973
7700,-2.0853391,-0.5267217,3.5888901,-194.7633514,-136.3893127,-56.1221390
7710,-1.9752063,-0.7278336,4.6327567,-209.3511505,-117.7862625,-51.0534363
7720,-2.4564383,-0.9241571,5.7125359,-223.4045868,-93.0076370,-45.8473282
7730,-3.3973548,-1.1779412,7.2160869,-234.3053436,-65.2137375,-38.1145020
7740,-4.5609307,-1.2689204,8.8608952,-241.5419922,-39.0839691,-29.9694653
7750,-6.1698260,-1.7070571,10.9797525,-240.5877838,-22.4503822,-20.7557259
7760,-8.0923605,-2.0135133,13.2278967,-229.1297760,-13.8320608,-6.2213740
7770,-10.2591019,-2.2002602,15.7705259,-203.4885559,-19.2519093,14.4122133
7780,-12.6987810,-2.3079987,17.0514164,-167.4274750,-37.2366409,45.1221390
7790,-13.3763361,-1.8818330,17.3722382,-127.8473282,-48.6412201,82.8625946
7800,-13.2494440,-1.3958124,15.7824965,-96.4122162,-46.2290077,123.6717529
7810,-12.6987810,-0.7302278,12.7035694,-87.5877838,-32.8625946,161.6106873
7820,-11.6381550,-0.4644727,10.2207947,-105.8167953,-9.0000000,196.4122162
7830,-10.5224628,-0.7062859,9.5911226,-141.2900696,18.7938938,224.8931274
7840,-9.5432396,-1.0103480,11.1736822,-178.3587799,39.1145020,245.3816833
7850,-8.6406298,-1.6376256,14.3220415,-200.3206177,40.5038185,250.1297760
7860,-8.1522150,-2.2672975,17.9540272,-199.8625946,20.0763359,250.1297760
7870,-7.2903070,-2.6048782,19.6126022,-177.6183167,-16.7938938,250.1297760
7880,-5.8226686,-2.6743097,19.6126022,-140.6488495,-55.2290077,250.1297760
7890,-3.7469065,-2.7964132,19.6126022,-103.6183243,-79.9923630,250.1297760
7900,-0.9528874,-2.6838863,19.6126022,-74.3816757,-87.0687027,250.1297760
7910,1.6328372,-2.2888451,19.6126022,-55.7175560,-76.7862625,250.1297760
7920,3.0741394,-2.1188576,19.6126022,-44.8320618,-65.4580154,250.1297760
7930,4.7859845,-1.5753766,19.6126022,-29.3053436,-52.1679382,246.7938995
7940,5.9495606,-1.1444225,19.6126022,-6.8091602,-31.7633591,224.8702240
7950,5.7316895,-1.2904681,19.6126022,16.4885502,-14.4809160,201.2595367
7960,4.4460096,-2.0470319,19.6126022,35.6106873,-9.9083967,185.0000000
7970,3.2944047,-3.0238612,18.5573616,49.7938919,-20.2748089,179.0458069
7980,2.7126167,-4.0318151,17.7792511,62.4961815,-45.7404594,181.3664093
7990,3.3351059,-4.8075323,17.4320927,75.5114517,-78.4732819,189.3587799
8000,4.7189474,-5.3055239,17.7289734,91.9465637,-106.4045792,197.9160309
8010,7.3645267,-5.3988972,18.0617657,111.5877838,-124.5801544,202.5877838
8020,11.0108776,-4.8242917,18.3921642,132.0381622,-124.8778610,198.6030579
8030,14.4968176,-4.1275826,18.6483421,150.7709961,-104.4122162,182.9007568
8040,16.9173431,-3.2944047,18.3155499,167.6259613,-77.8091583,156.4503784
8050,17.9612083,-2.9185169,17.2525291,183.9694672,-55.0076332,123.7175598
8060,18.0402184,-2.8921809,16.0650120,198.5343475,-44.6793900,90.8015289
8070,17.6499653,-2.7652888,14.9588957,212.6030579,-46.7633591,58.7557259
8080,17.1352139,-2.8012016,13.5750542,227.2519073,-52.9465637,29.6717548
8090,16.6803188,-2.6838863,11.7387114,238.3587799,-59.5419846,2.5954199
8100,16.4528694,-2.3008161,10.1753054,243.6488495,-63.3969460,-22.9541988
8110,16.2349987,-2.0206959,8.4514885,242.4503784,-63.2900772,-48.4198456
8120,15.6364517,-1.8076130,6.9096308,235.3587799,-60.5648842,-72.5343475
8130,14.7506008,-1.6663558,5.9591374,224.5954132,-58.7786255,-93.7633591
8140,14.0251617,-1.5586174,5.2313042,212.9084015,-57.0458031,-112.1603088
8150,13.0794573,-1.5155219,4.4436154,201.3206177,-55.8778610,-128.0763397
8160,12.0595322,-1.5729824,3.7301471,189.5343475,-56.7480927,-141.2366486
8170,10.9989061,-1.5083394,2.8419030,176.3664093,-62.5801544,-150.7786255
8180,10.1800938,-1.4389079,2.2529323,162.6183167,-72.4351120,-157.0686951
8190,9.4642305,-1.2401901,1.7908537,149.9007568,-84.7938919,-161.8931274
8200,8.6526003,-1.0869620,1.2737088,138.2748108,-100.7175598,-166.1297760
8210,8.0732069,-0.9361281,0.7517755,126.8015289,-120.1297684,-168.1908417
8220,7.8864598,-0.5482694,0.2322364,113.8702316,-139.9847260,-169.1984711
8230,7.5536675,-0.2370248,-0.0191535,99.1145020,-157.0610657,-171.0915985
8240,7.2256637,-0.1699875,-0.0071826,88.4809189,-169.9465637,-170.6335907
8250,7.2783360,-0.0095768,0.0694315,76.2519073,-173.2290039,-170.2137451
8260,7.2879128,0.2513899,-0.2681492,63.5877876,-165.5267181,-170.1145020
8270,7.2639709,0.4501076,-1.2018831,45.7633591,-143.7175598,-170.6335907
8280,6.9263902,0.4405309,-1.8985922,21.5801525,-110.6259537,-171.9618378
8290,6.2416520,0.4692611,-2.4708035,-11.0305347,-75.4732819,-174.5419922
8300,5.0254035,0.3399749,-2.3223639,-42.3206100,-43.1832047,-174.4732819
8310,3.7708483,0.1005560,-1.8267666,-66.9542007,-18.0687027,-170.1145020
8320,2.7006457,0.0383070,-1.4173602,-85.3969498,-3.0152671,-162.6335907
8330,1.8985922,0.1867468,-0.9959828,-99.7786255,1.5648855,-155.0534363
8340,1.7190280,0.6679789,-0.2489957,-110.7404556,-1.2061069,-149.0686951
8350,1.5777708,0.6751614,0.4237715,-117.6641235,-7.6641221,-145.7786255
8360,1.1779412,0.7996593,0.8068419,-122.1221390,-17.5419846,-143.9236603
8370,1.0247130,0.9289455,1.0486550,-126.5801544,-30.0152664,-143.0534363
8380,0.9888002,0.9672526,1.3694763,-130.3206177,-43.0458031,-144.6946564
8390,0.4453192,0.8810617,1.9129574,-133.8473358,-56.0228996,-146.0610657
8400,-0.2801202,0.9457048,2.6024840,-136.5801544,-67.9542007,-146.4885559
8410,-0.9145803,0.7326220,3.0525916,-138.4809113,-78.2977066,-144.8625946
8420,-1.7118455,0.3758878,3.5314295,-140.7709961,-85.9312973,-141.0915985
8430,-2.5905130,0.2394189,3.8977404,-145.1679382,-88.1450348,-133.9923706
8440,-3.2321558,0.0766141,4.1012464,-151.6488495,-84.5190811,-123.9694672
8450,-4.1084290,-0.0742199,4.2041965,-161.3206177,-75.4274826,-112.7557220
8460,-5.1163831,-0.3088504,4.6878228,-173.6259613,-64.3969498,-99.5572510
8470,-5.8322453,-0.6392486,5.2863703,-188.9770966,-51.2748108,-84.4503784
8480,-6.5768385,-0.8858501,6.5457139,-202.8091583,-35.9694672,-69.4656525
8490,-7.5416965,-1.3766589,8.2695303,-210.4122162,-23.7251911,-53.7786255
8500,-8.2838955,-1.4197544,9.8760319,-211.1984711,-12.5114508,-38.5114517
8510,-9.4307127,-1.5227045,11.2479019,-206.8167877,-3.2137403,-21.5190830
8520,-10.6302013,-1.5634058,12.4521790,-197.0305328,-1.3282443,-2.0839694
8530,-11.8512383,-1.2713146,13.7689838,-179.9847260,-13.8167934,19.6030540
8540,-12.6293497,-1.4939742,14.5183649,-159.4580078,-32.0534363,45.3053436
8550,-12.6293497,-1.4604555,14.2406387,-141.3587799,-46.8702278,74.8549652
8560,-11.9182749,-1.6807210,13.5199881,-135.6870270,-50.5496178,104.7633591
8570,-11.1090393,-1.8147956,13.5678720,-140.1526642,-40.4580154,135.4045868
8580,-10.2351599,-1.7645177,14.1185350,-149.3358765,-21.7328243,164.9541931
8590,-9.6988611,-1.7501525,15.7082767,-154.7862549,0.1450382,192.5267181
8600,-8.8848372,-1.8363433,17.1040897,-157.4580078,18.4503822,216.7404633
8610,-7.6494355,-2.0925217,18.5094795,-154.1297760,33.8854980,235.7938995
8620,-6.8785062,-2.0973101,19.5796814,-146.0076294,44.4732819,250.1297760
8630,-5.9615316,-2.3726418,19.6126022,-132.9007568,48.9160309,250.1297760
8640,-4.8147149,-2.5857246,19.6126022,-113.6717529,48.0610695,250.1297760
8650,-3.6248028,-2.9448531,19.6126022,-92.5343475,39.5038185,250.1297760
8660,-2.2170193,-3.4715748,19.6126022,-73.7938919,21.8854961,250.1297760
8670,-0.6584021,-3.6391680,19.6126022,-57.1145020,0.6488550,250.1297760
8680,1.0462608,-3.7636659,19.6126022,-39.6564903,-22.3969460,250.1297760
8690,2.7221935,-3.7229645,19.6126022,-22.3206100,-39.2977104,250.1297760
8700,4.4124913,-3.2800395,19.5820751,-5.1297708,-44.4656487,250.1297760
8710,5.4395986,-2.9568241,19.1080265,8.0381680,-41.8549614,246.2900696
8720,6.1003947,-2.9280937,18.7273502,16.8167934,-37.9771004,231.3129730
8730,6.7971039,-3.0621684,18.7297440,24.9541988,-36.7862587,219.1908417
8740,7.6063399,-3.2369442,18.9571915,35.6488533,-37.9847336,208.4122162
8750,8.7268209,-3.3446827,19.1487274,51.3969460,-45.3969460,196.3129730
8760,10.1441803,-3.3279233,19.3019562,71.4045792,-54.5572510,180.9084015
8770,11.4609852,-3.2201848,19.0290184,92.8396912,-59.8778610,162.8854980
8780,12.3157110,-2.8706331,18.6076412,112.3587799,-65.4503784,142.1068726
8790,12.8113079,-2.7389526,17.9683914,131.2290039,-69.1679382,120.0916061
8800,12.9214401,-2.8371146,17.5781384,150.2137451,-75.0687027,99.4503784
8810,12.9070749,-2.9209111,16.8119984,169.4961853,-80.6412201,81.7709961
8820,13.1752243,-2.8059900,15.8974180,187.2748108,-86.0687027,64.2137375
8830,13.7929258,-2.6503677,14.8535509,202.3358765,-86.5877838,47.0610695
8840,14.5494890,-2.2625091,13.7689838,212.6946564,-80.0000000,28.1297703
8850,15.2629576,-1.9704180,12.3971128,218.6183167,-66.4503784,6.2748094
8860,15.3539371,-1.6256547,10.9965124,220.1374054,-51.7480927,-16.7557259
8870,15.0067797,-1.4772149,9.7419567,217.5725250,-39.0000000,-38.9847336
8880,14.2645807,-1.4748207,8.8920193,213.9236603,-32.0458031,-59.6106873
8890,13.1776190,-1.6208663,7.9247670,211.2519073,-31.4809170,-76.3053436
8900,12.3875360,-1.6663558,6.9790621,208.9847260,-34.5190849,-88.7709961
8910,11.6716738,-1.4628497,5.7412663,205.8931274,-40.2061081,-98.4961853
8920,11.0539722,-1.1755470,4.6231799,199.3816833,-50.3893127,-106.4045792
8930,10.9007444,-0.7206510,3.5170643,189.6717529,-63.0076332,-113.7786255
8940,11.2909975,-0.1340746,2.8299320,179.0839691,-75.4885483,-122.3282471
8950,11.4514084,0.3256098,2.2625091,167.1679382,-86.8931274,-134.4656525
8960,11.1497402,0.6105183,1.7046629,154.7328186,-97.0076370,-148.0152740
8970,10.7618818,0.6177009,1.2545552,140.9923706,-105.4274826,-159.5648804
8980,10.2854376,0.7062859,1.1132981,127.5572510,-112.7480927,-169.1145020
8990,9.8042059,0.6991033,0.8068419,114.5572510,-119.1297684,-177.4656525
9000,9.1601686,0.6153067,0.5362985,103.4198456,-125.2977066,-184.1374054
9010,8.3509331,0.5913648,0.4333483,92.6488571,-133.6030579,-188.5954132
9020,7.6997132,0.5482694,0.2729376,84.1832047,-143.7251892,-191.7938995
9030,7.0317345,0.5506636,0.1125269,77.4198456,-154.5496216,-194.4427490
9040,6.2847471,0.5961532,-0.4884146,70.1145020,-166.9618378,-196.1679382
9050,5.3941088,0.6153067,-0.9888002,61.2977104,-180.4274750,-195.6259613
9060,4.5178356,0.5578461,-1.6184721,50.9389305,-192.7404633,-192.9084015
9070,3.4979107,0.6033357,-2.1308286,38.1450386,-206.3816833,-188.3893127
9080,2.4564383,0.5698171,-2.5450234,23.1297703,-218.8396912,-180.8473358
9090,1.2808913,0.4070122,-3.0908985,5.2748094,-232.9694672,-170.2748108
9100,0.1604107,0.3040621,-3.3662305,-16.4198475,-249.6488495,-154.9694672
9110,-0.6224893,0.2178712,-3.2967989,-41.9160309,-250.1374054,-135.8320618
9120,-1.1707586,0.1316804,-2.9879484,-69.0610657,-250.1374054,-113.6946564
9130,-1.6472024,-0.0359128,-2.4205256,-98.4122162,-250.1374054,-89.0534363
9140,-1.7022687,-0.2346306,-1.3024391,-127.3816757,-250.1374054,-63.4122124
9150,-1.7286048,-0.5195391,0.1412572,-153.4809113,-250.1374054,-37.3358765
9160,-1.5562232,-0.7781116,1.8339491,-174.4809113,-239.8320618,-11.7099237
9170,-1.2401901,-1.1061156,3.4284792,-189.9465637,-217.4351196,11.3969469
9180,-0.9050036,-1.3096216,5.0254035,-197.9541931,-198.0229034,31.7404575
9190,-0.7565638,-1.2186425,6.1387019,-201.1984711,-178.5801544,49.1297722
9200,-0.6057299,-1.1252691,7.4746594,-201.9084015,-159.5267181,64.3587799
9210,-0.4740495,-0.9720409,8.6502066,-199.3664093,-143.2290039,76.7633591
9220,-0.4453192,-0.7326220,9.9837704,-191.8778687,-135.4351196,86.9542007
9230,-0.3998296,-0.8331779,11.1018562,-179.6259613,-136.0686951,97.1374054
9240,-0.3423691,-0.9959828,12.0547438,-164.9847260,-138.2977142,107.6183243
9250,0.1101327,-1.0845678,12.6485033,-151.1374054,-134.7709961,121.4045792
9260,0.7900825,-1.0127422,13.5008345,-140.6793823,-121.9312973,136.4503784
9270,1.6495966,-0.7110743,14.5470953,-130.3969421,-96.5648880,149.6183167
9280,1.9776005,-0.5171449,16.3307667,-116.0839691,-67.7404556,161.2137451
9290,2.2146254,-0.3854645,17.2381649,-97.6946564,-41.6488533,173.4427490
9300,2.7126167,-0.2681492,17.9899387,-78.5496216,-18.9007626,183.8244324
9310,3.0238612,0.4692611,17.8319225,-58.0763359,-9.6106873,192.1450348
9320,3.7804251,0.8690908,17.4608231,-42.3969460,-7.4580154,197.3664093
9330,4.8865409,1.1468167,16.7425671,-33.2519073,-0.6183206,200.1221313
9340,5.6383162,1.8052188,16.6611652,-29.7938938,9.5114508,199.6946564
9350,5.9615316,1.9225341,17.3147774,-26.3511448,16.7175579,197.3435059
9360,6.2751703,2.0781565,18.4017410,-16.6946564,18.8396950,194.0000000
9370,6.6726060,2.0542145,19.5294037,1.0534351,19.2366409,191.1755676
9380,7.2160869,2.1308286,19.6126022,22.9618320,21.6183205,189.1374054
9390,8.0779953,2.3654592,19.2756195,42.0000000,31.2519093,187.9465637
9400,9.0356712,2.4516499,18.7081966,55.6335869,47.4809151,185.8854980
9410,9.7060442,2.4157372,18.3849812,67.1832047,65.4198456,181.5419922
9420,9.9382801,2.5019281,17.8462887,77.5190811,82.2213745,176.7633514
9430,9.8712435,2.0901275,17.3052006,88.3358765,92.9160309,171.0229034
9440,9.7922344,1.7309990,16.4744167,96.6946564,97.7633591,166.7480927
9450,9.4331064,1.2617378,15.8519287,102.1603088,98.5496216,163.3664093
9460,9.3014259,0.6129125,15.2126799,111.5648880,92.8778610,163.2824402
9470,9.5456333,0.1125269,14.5039997,120.0992355,84.3664093,166.1603088
9480,10.0436249,-0.8188128,14.5351238,129.8931274,75.4045792,169.7557220
9490,11.2574787,-1.1444225,14.1400833,140.6488495,70.4885483,170.4732819
9500,12.6006193,-1.5274929,13.9916430,151.9847260,68.4351120,167.0992432
9510,14.1305065,-1.2401901,13.4457684,161.3435059,72.7404556,160.0152740
9520,15.4185801,-1.2330076,13.2111378,170.2061005,81.4732819,146.5343475
9530,16.1248665,-1.0151364,12.5551291,178.5496216,87.5572510,129.1221313
9540,16.2158451,-1.0702027,11.9110928,185.0458069,87.2061081,111.1603088
9550,16.2182388,-0.9864060,11.1210098,191.7862549,83.3358765,92.8778610
9560,15.9333305,-1.0893562,10.3165627,196.8244324,75.2366409,78.5648880
9570,15.8184099,-1.3000449,9.4977493,199.8778687,63.4961815,63.6870232
9580,16.0195217,-1.3431402,8.9231443,202.2824402,53.3206100,49.5648842
9590,16.1200771,-1.3359578,8.3269911,203.6564941,45.7633591,35.7862587
9600,16.4073811,-1.1109039,7.7404146,203.4045868,43.1526718,22.3053436
9610,16.6922894,-0.8810617,6.9359670,199.7938995,46.9007645,7.5801525
9620,16.8191814,-0.6368544,6.3685441,194.2900696,51.0458031,-8.1374044
9630,16.8814297,-0.3950413,6.0812411,188.5801544,52.4809151,-26.8854961
9640,16.5414543,-0.2920911,5.6742291,184.1679382,52.5801544,-46.4427490
9650,15.9429073,-0.1987177,5.2097564,180.0152740,50.0839691,-64.6564865
9660,14.9205885,-0.2873027,4.4914994,175.8473358,43.9160309,-80.0687027
9670,14.2310619,-0.2274480,4.0796990,171.1145020,34.7480927,-92.4351120
9680,13.7426472,-0.1675933,3.7085996,166.2061005,25.1221371,-104.0000000
9690,13.1776190,-0.0646431,3.2584918,160.7709961,16.3969460,-114.0076370
9700,12.6676559,0.1675933,2.7581062,154.6564941,9.6335878,-122.5267181
9710,12.0691090,0.3830703,2.0877333,147.4580078,3.5343511,-130.8396912
9720,11.5136566,0.4548960,1.4604555,137.3740387,-4.5190840,-137.6946564
9730,10.9893293,0.7158626,1.0414724,126.1526718,-13.9618320,-143.2366486
9740,10.4003592,0.9528874,0.5985473,114.7709961,-23.6106873,-147.8167877
9750,9.8185711,1.1420283,0.2609667,103.7709961,-34.1984749,-151.7480927
9760,9.2870607,1.2808913,0.1963235,91.3664093,-44.8625946,-155.6335907
9770,8.6238708,1.3766589,0.0143651,79.9847336,-57.3893127,-158.4503784
9780,8.2240410,1.3958124,-0.0814024,68.7786255,-68.1526718,-160.4274750
9790,8.0013809,1.4963684,-0.2992737,56.0076332,-73.0457993,-162.4351196
9800,7.5728211,1.6376256,-0.3878587,41.8244286,-75.0687027,-164.5496216
9810,7.0891948,1.5681942,-0.3184272,27.2061062,-75.5343475,-165.5496216
9820,6.5337429,1.3072275,-0.1412572,14.4580154,-72.5267181,-165.3206177
9830,5.7676024,1.3503228,-0.0598547,1.8320611,-69.0687027,-163.6946564
9840,4.9918852,1.3886299,-0.2585725,-10.7938929,-65.7328262,-161.0076294
9850,4.3334827,1.3191984,-0.4141948,-25.0458012,-61.8244286,-157.1221313
9860,3.4356618,1.3096216,-0.2657550,-38.7251892,-60.8244286,-152.3969421
9870,2.6192431,1.1085097,0.0335187,-51.0152664,-63.9465637,-146.0839691
9880,1.9273225,1.1994889,0.1340746,-60.8625946,-71.2213745,-138.2977142
9890,1.2904681,1.2138541,0.1915352,-70.1374054,-82.5343475,-130.8244324
9900,0.7206510,1.2354017,0.3854645,-78.8931274,-97.5954208,-123.6106873
9910,0.0646431,1.3048333,0.7685348,-86.9312973,-114.6030502,-115.4732819
9920,-0.5099624,1.2713146,1.0127422,-94.2442780,-129.3664093,-105.0534363
9930,-0.8283895,1.2880739,1.3359578,-102.7480927,-141.0763397,-93.1374054
9940,-1.0390782,1.3120158,1.6376256,-112.8778610,-150.6183167,-81.2824402
9950,-1.1132981,1.3383518,2.2313845,-122.7709961,-155.2900696,-69.7633591
9960,-1.2354017,1.1396341,3.1507533,-130.7022858,-157.6030579,-58.7480927
9970,-1.2880739,1.0893562,3.9887197,-136.2977142,-156.5877838,-48.2824440
9980,-1.2377959,0.6943150,4.6710634,-140.0839691,-150.0381622,-37.7404594
9990,-1.4604555,1.0462608,4.8482337,-146.1603088,-135.5419922,-25.9618320
