timestamp,acclX,acclY,acclZ,gyroX,gyroY,gyroZ
0,6.6295104,1.5873476,9.0236998,21.1221371,-36.5343513,45.2748108
10,6.8856888,1.6352314,8.5927458,21.9312973,-32.6870232,37.0916023
20,6.8928714,1.7214222,8.1689749,20.0916023,-26.5954189,28.4732819
30,6.5002246,1.7429699,7.8289995,16.6793900,-20.7404575,21.1221371
40,6.2823529,1.7166338,7.5704269,11.8244276,-15.2977095,15.8167934
50,5.6263452,1.5131277,7.4148049,2.2977099,-7.8549619,11.3206110
60,5.4779053,1.4221486,7.6997132,-8.0076332,-8.0839691,9.8931293
70,5.8178802,1.5514348,7.9678626,-9.7862597,-9.2900763,8.4274807
80,6.4547348,1.7764885,8.7004843,-12.8778629,-3.9923663,-1.1374046
90,6.3302369,1.7166338,8.6861191,-12.4961834,-2.1145039,-4.9770994
100,6.0740585,1.7429699,8.4610653,-13.0458012,-1.7404580,-7.7328243
110,5.5210009,1.5107336,7.9582858,-20.1832066,2.7862597,-10.6641226
120,5.3390427,1.5035510,7.9774394,-25.0458012,3.7633588,-10.9923668
130,5.1953912,1.5418580,8.0301113,-28.3664131,4.2671757,-10.8167934
140,5.0804701,1.5059452,7.9104018,-33.2671738,4.0687022,-10.5496187
150,5.0613165,1.5035510,7.9822278,-38.1603050,4.9770994,-10.1679392
160,4.9416070,1.3383518,8.1713686,-41.4961815,3.5648854,-11.0076332
170,4.8937230,1.1947005,8.5783806,-43.5419846,1.5038168,-12.1068707
180,4.8171091,0.9935886,8.8417416,-44.7480927,1.0076336,-12.8931293
190,4.7117648,0.8547257,9.1505919,-45.1603050,1.1526718,-12.9694653
200,4.5106530,0.7517755,9.4785957,-44.4427490,0.7022901,-12.7175570
210,4.3095412,0.5841822,9.9622221,-42.5190849,0.5954198,-12.5801525
220,3.7660601,0.4908088,10.1992474,-38.2977104,-0.3893130,-11.0839691
230,3.2896163,0.3232156,10.2543135,-33.0458031,-2.3435113,-6.4045801
240,2.8826041,0.2035061,10.1872759,-27.3587780,-4.7480917,0.1603053
250,2.3678534,0.0837966,9.9167328,-23.6412220,-7.7099237,10.2824430
260,2.2672975,-0.0383070,9.3924055,-22.6030540,-9.3053436,24.0992374
270,2.4708035,0.1508339,9.2319946,-25.3969460,-8.8320608,37.9771004
280,2.9017577,0.3399749,9.6222477,-29.5419846,-8.2442751,49.1832047
290,3.2058196,0.4501076,10.1298151,-30.7480907,-10.0687027,56.5496178
300,3.4643922,0.6368544,10.9270811,-28.5801525,-9.9083967,61.5114517
310,3.3734128,0.6153067,11.5878773,-21.7709923,-13.0610685,64.5343475
320,3.0645626,0.6009415,12.0116482,-12.0305347,-18.3206100,66.9160309
330,2.6264257,0.6105183,12.0475616,-2.3435113,-24.2900772,70.5267181
340,2.4324965,0.5434810,12.0834742,7.0000000,-29.8091602,75.5190811
350,2.1906834,0.3327923,12.0020714,13.7328243,-33.3587799,80.0992355
360,1.7022687,0.0167593,11.8009596,18.2977104,-40.0916023,86.1145020
370,1.1803354,-0.2322364,11.9302464,22.2213745,-49.1374054,96.6412201
380,0.9672526,-0.5506636,12.1409349,27.8167934,-62.3435097,107.5954208
390,1.2425843,-0.7637464,12.5455532,36.1297722,-76.3053436,120.2671738
400,1.8100072,-1.1396341,12.8639803,45.8091621,-88.5801544,133.2824402
410,2.6072724,-1.4724265,13.1967726,56.2824440,-95.9770966,145.2671814
420,3.4260850,-1.9297167,13.3284531,68.3816757,-99.3969498,155.6793823
430,4.2137733,-2.3175755,13.4553452,81.2213745,-98.1450348,165.6793823
440,4.9440012,-2.6120608,13.2853575,95.4656525,-95.7938919,173.6793823
450,5.3055239,-2.9903426,12.7801828,107.7633591,-96.0457993,179.3816833
460,5.3198891,-3.5362179,12.0355902,120.0000000,-102.0229034,185.4198456
470,5.8298512,-3.8714044,11.4681673,129.6870270,-113.4351120,193.0839691
480,7.5895805,-3.9982965,11.3700056,138.6030579,-125.2595444,197.0534363
490,9.4163475,-3.8714044,11.5447817,149.7786255,-136.4503784,190.3129730
500,10.6732969,-3.8953462,11.3843708,161.1832123,-147.9618378,178.5954132
510,11.8560257,-4.1012464,11.3221216,172.8549652,-158.2671814,164.2519073
520,12.9286232,-4.1443419,11.0946741,185.6793823,-165.5114441,147.3587799
530,13.7210999,-4.2855992,10.4841557,196.3129730,-168.0763397,128.7022858
540,14.5016060,-4.5537481,9.9957409,205.0610657,-166.0686951,109.6717529
550,14.8320036,-4.6016321,9.4378948,214.3893127,-161.6412201,89.8167953
560,14.8128500,-4.7548604,8.5448618,222.3129730,-157.4122162,70.5801544
570,14.4082317,-4.9487896,7.7547798,229.5725250,-155.4732819,51.7862587
580,14.0921993,-4.8793583,6.9335728,236.9618378,-155.1603088,36.4656487
590,14.4609041,-4.5561423,6.0477223,243.7633514,-151.8015289,22.4503822
600,15.0738173,-4.0006905,4.8793583,247.6946564,-141.4961853,7.4122138
610,15.7729197,-3.8498566,3.3901722,244.9236603,-125.5114517,-14.0229006
620,16.1535969,-3.2824337,2.0709739,233.0763397,-109.0305328,-39.4198456
630,16.1152897,-2.7293761,1.2569494,215.6717529,-94.2290039,-66.3740463
640,16.0889530,-2.5617826,0.7876883,196.5419922,-79.1068726,-93.7175598
650,15.9860029,-2.3151813,0.7350162,179.4122162,-65.4732819,-120.3282471
660,15.8519287,-2.2385671,0.5650287,164.3816833,-50.8854980,-145.4045868
670,15.6699696,-2.4708035,0.1723816,149.8015289,-36.9618340,-169.6717529
680,15.5215302,-2.5546002,-0.1364688,135.1984711,-25.0610695,-192.2977142
690,15.2222567,-2.4324965,-0.2346306,122.0992355,-15.3969469,-214.6870270
700,14.6500454,-2.5426292,-0.4596844,110.4198456,-5.6488547,-235.5114441
710,13.8120794,-2.6312141,-0.7086801,99.7557220,1.7786260,-250.1374054
720,13.1728306,-2.6455793,-0.8786675,89.7099228,4.6183205,-250.1374054
730,12.5718889,-2.5234756,-1.1779412,80.6641235,2.4885497,-250.1374054
740,11.8201132,-2.2146254,-1.8291607,71.1145020,-8.2442751,-250.1374054
750,11.3245163,-2.2313845,-2.1092808,59.2213745,-22.9541988,-250.1374054
760,11.2550850,-2.1044924,-2.5067163,47.1908379,-33.8778610,-250.1374054
770,10.9462337,-1.6304430,-2.8921809,33.7251892,-44.0839691,-250.1374054
780,10.5751352,-1.4197544,-3.5290353,18.0992374,-54.7022896,-250.1374054
790,10.0579901,-1.5298871,-3.8905578,0.3358779,-63.3511467,-250.1374054
800,9.4594421,-1.8124014,-3.9671719,-18.9312973,-74.1145020,-250.1374054
810,8.2982607,-2.3558824,-3.7133877,-37.4427490,-90.2366409,-250.1374054
820,6.2105274,-2.7988074,-3.4260850,-54.5419846,-107.1068726,-250.1374054
830,3.9073172,-3.1579359,-2.8035958,-69.7938919,-123.9389343,-250.1374054
840,2.0518203,-3.3758070,-2.0494261,-82.0076370,-139.2977142,-250.1374054
850,0.8331779,-2.6862805,-1.3239868,-90.6030502,-153.7251892,-250.1374054
860,0.0526722,-1.9704180,-0.8212070,-97.3435135,-168.3435059,-250.1374054
870,-0.1197095,-1.1444225,-0.8188128,-106.1374054,-184.8091583,-250.1374054
880,-0.4309541,-0.6057299,-0.6967092,-116.9007645,-193.0305328,-250.1374054
890,-0.7086801,-0.4094064,-0.3208214,-129.3587799,-193.6564941,-250.1374054
900,-0.8571198,-0.0933734,0.0167593,-140.9770966,-189.4656525,-242.5496216
910,-1.0366840,0.0191535,0.2442073,-153.0000000,-179.2824402,-223.9160309
920,-1.5969244,0.2082945,0.5339043,-164.9541931,-163.6030579,-204.8931274
930,-1.7429699,0.4812321,0.6943150,-176.8396912,-151.4732819,-187.4274750
940,-1.7597293,0.2585725,1.0175306,-189.2748108,-136.1679382,-173.7175598
950,-2.3965836,-0.1819584,1.4221486,-201.9923706,-119.2748108,-160.1908417
960,-3.1890604,-0.5458752,2.3894010,-212.2977142,-105.4122162,-145.7251892
970,-4.1395535,-0.4979914,3.1507533,-219.2137451,-95.9389343,-131.3893127
980,-4.6758518,-0.4620786,3.8570392,-222.8473358,-92.5419846,-117.9618301
990,-5.2384863,-0.5003856,4.6447277,-225.0763397,-94.9312973,-104.4198456
1000,-5.7412663,-0.8499373,5.6598639,-224.5954132,-98.1984711,-88.2977066
1010,-6.0165982,-1.1420283,6.7947097,-221.0458069,-101.0152664,-69.1221390
1020,-6.2512288,-1.3287752,7.7045016,-216.0458069,-99.4122162,-47.4045792
1030,-6.6654234,-1.4939742,8.1163025,-211.3587799,-90.3740463,-21.1450386
1040,-6.6917596,-1.4389079,8.2240410,-210.9084015,-79.7404556,5.9847326
1050,-6.4188218,-1.5418580,8.5616217,-214.4427490,-67.0534363,31.4045811
1060,-6.1099715,-1.7453641,9.1266499,-219.9618378,-53.4809151,55.1068687
1070,-5.6383162,-1.9680238,9.6006994,-227.0152740,-34.9389305,77.7557220
1080,-5.3869262,-2.3175755,10.3357162,-233.4503784,-14.1374044,96.8320618
1090,-5.1977854,-2.6767037,10.7594872,-238.4274750,6.5267177,117.9770966
1100,-5.1594782,-3.0094962,10.8815908,-243.0152740,18.3206100,136.3435059
1110,-4.7500720,-3.2967989,11.5375986,-245.2748108,13.0687027,150.8549652
1120,-4.3526363,-3.4979107,12.9956608,-243.0992432,0.4580153,161.2595367
1130,-4.1706781,-3.8761928,14.4273853,-237.2671814,-5.4656487,170.5877838
1140,-4.4364328,-4.2999644,15.5047712,-230.4122162,6.4732823,184.4427490
1150,-5.4898763,-4.6854286,16.6348286,-223.6641235,28.8167934,207.1221313
1160,-7.1107426,-4.8147149,16.7090473,-217.6793823,56.3358765,237.6412201
1170,-8.3964224,-5.3701668,15.8064384,-218.3893127,75.2977066,250.1297760
1180,-9.2750902,-6.2751703,14.8750992,-228.4656525,79.5801544,250.1297760
1190,-8.5735922,-7.2591825,15.8160152,-238.3053436,54.3587799,250.1297760
1200,-6.6702118,-8.4730368,17.9612083,-237.6335907,18.7709923,250.1297760
1210,-4.6782460,-9.3852224,19.6126022,-223.6564941,-6.7633586,250.1297760
1220,-2.9807658,-9.9454632,19.6126022,-196.0305328,-18.2824421,250.1297760
1230,-1.5658000,-10.2471304,19.6126022,-159.5267181,-22.3893127,250.1297760
1240,-0.3471575,-10.2375546,19.6126022,-121.8015289,-22.4809170,250.1297760
1250,0.6919208,-9.9789820,19.6126022,-86.4580154,-30.7709923,250.1297760
1260,1.7693061,-9.4211359,19.6126022,-53.7862587,-48.6488533,250.1297760
1270,2.6312141,-9.2032642,19.6126022,-25.0992374,-78.4961853,250.1297760
1280,3.5529771,-8.9853926,19.6126022,1.6641221,-111.8015289,250.1297760
1290,4.4962878,-8.4036045,19.6126022,29.1145039,-139.1526642,250.1297760
1300,5.1475072,-7.9750452,19.6126022,60.9007645,-161.9160309,250.1297760
1310,5.3988972,-7.2017217,19.6126022,91.4427490,-180.5877838,250.1297760
1320,5.5593081,-6.8449879,18.6938305,117.5801544,-192.3587799,250.1297760
1330,5.6119800,-6.3637557,17.4943428,137.4961853,-199.3664093,250.1297760
1340,5.8801293,-6.0644817,16.1942978,151.3969421,-205.1145020,250.1297760
1350,6.3757267,-5.5832496,14.9756546,160.5572510,-212.7022858,246.5190887
1360,6.7516141,-5.3438311,14.2957048,167.1068726,-217.5496216,233.7480927
1370,7.6518297,-4.8602047,14.1664190,175.2977142,-222.3969421,220.8625946
1380,8.8321648,-4.4579806,14.1831779,187.0915985,-223.9847260,204.2900696
1390,10.3237448,-3.6702924,13.5439301,198.3511505,-221.4274750,183.4503784
1400,11.2383251,-2.9999194,12.8280668,206.4274750,-212.1832123,158.2213745
1410,11.5423870,-2.6431851,11.8488436,211.3435059,-203.8015289,132.7328186
1420,11.6668854,-2.4851687,11.0372133,214.2366486,-199.5114441,106.6183243
1430,11.5328102,-2.3798244,10.1058741,215.9618378,-199.4198456,81.8396912
1440,11.7123747,-2.2409613,9.7156210,219.0076294,-204.2671814,57.7786255
1450,11.9110928,-1.9632354,9.1697454,224.1221313,-210.8320618,33.2595406
1460,12.6054077,-1.5801650,8.3437500,228.6717529,-217.7480927,6.3816795
1470,12.9525652,-1.2713146,7.1346846,230.6335907,-220.1679382,-21.6183205
1480,12.9118633,-1.0558375,5.7747850,227.9389343,-219.6259613,-48.6412201
1490,12.8041248,-0.8571198,4.6255741,221.0000000,-216.4198456,-74.0992355
1500,12.5790710,-0.7398046,3.5817075,210.3893127,-212.2900696,-98.7480927
1510,12.4306316,-0.6440369,2.8969693,197.9313049,-212.3969421,-121.9465637
1520,12.3444405,-0.7613522,2.6790979,186.1755676,-222.8778687,-146.0000000
1530,12.1241751,-0.6344602,2.6910689,180.3206177,-237.2519073,-169.4503784
1540,11.9853125,-0.6703730,1.9297167,176.9084015,-247.4045868,-188.5725250
1550,11.7698355,-0.4141948,0.9313397,170.4580078,-250.1374054,-204.1603088
1560,12.2558556,-0.2370248,0.0311245,161.4503784,-250.1374054,-224.0458069
1570,11.7099810,-0.0550664,-0.4405309,153.2290039,-250.1374054,-244.4503784
1580,11.0922794,-0.0095768,-1.2042773,142.2900696,-250.1374054,-250.1374054
1590,10.3093796,-0.0670373,-1.8435259,128.3587799,-250.1374054,-250.1374054
1600,9.5384512,-0.1723816,-2.4396791,112.8473282,-250.1374054,-250.1374054
1610,8.5089493,-0.3782819,-2.7964132,98.2213745,-250.1374054,-250.1374054
1620,7.3645267,-0.3280039,-2.9831600,79.5419846,-250.1374054,-250.1374054
1630,6.4523406,-0.1628049,-2.8466914,64.2519073,-250.1374054,-250.1374054
1640,5.4587522,-0.0861908,-2.9352763,50.8167953,-250.1374054,-250.1374054
1650,4.4484038,0.0407012,-2.8466914,37.9236641,-250.1374054,-250.1374054
1660,3.8618276,0.4261657,-2.9855542,24.9541988,-240.9465637,-243.6488495
1670,4.0318151,0.8451489,-3.2656744,10.9618320,-219.6030579,-231.0992432
1680,4.4100971,1.2306134,-3.3039815,-5.2366414,-195.8320618,-223.2290039
1690,4.1491303,1.4891858,-3.4236910,-21.7938938,-169.6335907,-218.5343475
1700,3.4548154,1.4245427,-3.4811516,-38.1832047,-140.9084015,-212.2290039
1710,2.5186872,1.4460905,-3.6271970,-54.8396950,-114.8549652,-202.7633514
1720,1.8698620,1.6879035,-3.5745249,-71.9312973,-93.7480927,-190.6870270
1730,1.2665262,2.0709739,-3.3159523,-86.6793900,-76.5190811,-178.5190887
1740,0.9576758,2.5378408,-2.8682389,-97.7404556,-67.2519073,-167.2671814
1750,0.6991033,3.0573800,-2.3103929,-104.7099228,-66.5496216,-158.3511505
1760,0.3782819,3.5290353,-2.0278785,-109.2900772,-72.6488571,-151.2595367
1770,-0.2154770,3.6391680,-1.6974803,-113.4274826,-81.7862625,-144.0229034
1780,-0.6584021,3.6750808,-1.2593436,-116.9694672,-93.2366409,-134.0305328
1790,-0.8523315,3.7900019,-0.9768293,-120.1984711,-105.2290039,-123.5419846
1800,-1.0079538,3.8019729,-0.4261657,-123.7022934,-114.6793900,-113.0534363
1810,-1.1396341,3.8929520,-0.3327923,-127.9007645,-120.4732819,-102.7709961
1820,-1.2832855,4.1730723,-0.0957676,-134.0915985,-121.9770966,-92.5648880
1830,-1.3263810,4.1467361,-0.0119709,-142.0534363,-121.3740463,-82.6870193
1840,-1.4006008,4.2425036,0.1101327,-152.3587799,-116.6870193,-73.9312973
1850,-1.6831152,4.1060348,0.1053443,-166.2671814,-106.8778610,-65.7175598
1860,-2.0925217,3.6439564,0.3423691,-182.4427490,-98.8091583,-56.3282433
1870,-2.3917952,2.9400647,0.9983770,-197.8854980,-91.8091583,-45.6106873
1880,-2.8466914,2.2385671,1.8267666,-211.2213745,-85.5572510,-31.6641216
1890,-3.0621684,1.7717001,2.6048782,-220.8702240,-82.2213745,-15.2061071
1900,-3.1555417,1.4700323,3.3662305,-226.5038147,-77.7480927,1.1297710
1910,-3.2537034,1.7094513,4.2113791,-227.9923706,-74.2671738,17.6946564
1920,-2.9903426,2.0973101,4.8242917,-227.2671814,-70.6335907,32.3282433
1930,-2.2864509,1.8698620,4.9009056,-228.8702240,-62.1908379,42.1832047
1940,-1.9177457,1.5514348,4.8195033,-235.5496216,-51.8625946,48.6870232
1950,-1.7669119,1.0223188,5.0397687,-246.0534363,-41.4656487,54.2519073
1960,-2.1332228,0.2154770,5.5497313,-250.1374054,-30.5954189,62.4732819
1970,-2.4755919,-0.6033357,6.3541789,-250.1374054,-18.7633591,75.3511429
1980,-3.0837159,-1.1444225,7.1275020,-250.1374054,-3.0839694,92.6488571
1990,-3.4596038,-1.1204807,7.5871863,-250.1374054,15.2290077,110.9542007
2000,-3.1387823,-1.7214222,8.1977043,-250.1374054,27.0992374,127.1374054
2010,-2.9831600,-2.4516499,10.0651722,-250.1374054,24.0000000,137.4503784
2020,-2.6048782,-3.1100521,12.2367020,-250.1374054,5.4351144,145.3358765
2030,-1.7621235,-4.2425036,14.3507719,-250.1374054,-6.1984735,151.1984711
2040,-1.2234308,-5.3653784,16.6180687,-250.1374054,4.0229006,158.5725250
2050,-1.2808913,-6.1554613,18.2293587,-250.1374054,36.2900772,169.3282471
2060,-1.7166338,-6.5433197,19.3737812,-250.1374054,76.5343475,181.1526642
2070,-2.9616125,-6.5193777,19.3665981,-250.1374054,109.8015289,191.1908417
2080,-5.1642666,-6.4810710,18.7034073,-245.8167877,125.4580154,202.9389343
2090,-7.1107426,-6.5864153,18.9212799,-232.5725250,106.8549652,219.2900696
2100,-7.9774394,-6.1147599,19.6126022,-210.8091583,65.5190811,237.3053436
2110,-8.1546097,-5.9471664,19.6126022,-183.3511505,25.9541988,250.1297760
2120,-7.0748301,-5.7987270,19.6126022,-161.6030579,6.5190840,250.1297760
2130,-5.3917146,-5.9208307,19.3258972,-150.2519073,15.6106873,250.1297760
2140,-4.1060348,-5.9399838,18.1742916,-148.8167877,36.1297722,250.1297760
2150,-2.9951310,-6.6558466,17.4751892,-155.5648804,54.5877876,250.1297760
2160,-1.9704180,-7.0149751,17.1376076,-167.0763397,66.4885483,250.1297760
2170,-1.0989330,-7.6925306,17.5613804,-179.7480927,71.7786255,250.1297760
2180,-0.5243275,-8.8561068,18.7728386,-189.7099304,77.7938919,250.1297760
2190,0.2992737,-10.2495251,19.6126022,-193.9007568,82.1068726,250.1297760
2200,2.1020982,-11.5112629,19.6126022,-184.2748108,78.8320618,250.1297760
2210,4.2568688,-11.9039097,19.6126022,-154.4503784,76.8854980,250.1297760
2220,5.5138183,-11.9230633,19.6126022,-106.2061081,74.1984711,250.1297760
2230,6.5313487,-11.6668854,19.6126022,-51.4503822,59.8244286,250.1297760
2240,7.4483232,-10.8720140,19.6126022,0.7175573,27.9847336,250.1297760
2250,7.9726510,-9.8784256,19.6126022,45.7633591,-18.5343513,250.1297760
2260,8.0013809,-9.0931320,19.6126022,88.3969498,-76.1832047,250.1297760
2270,7.8649125,-8.4227581,19.6126022,130.1221313,-134.7786255,250.1297760
2280,7.7284436,-7.4986014,19.6126022,170.3816833,-189.3969421,250.1297760
2290,7.7116842,-7.0053983,18.1383801,204.2366486,-229.3664093,242.3740387
2300,7.9151902,-6.7061248,16.6444054,231.8473358,-250.1374054,218.3206177
2310,9.1218615,-6.1147599,15.4425220,250.1297760,-250.1374054,198.0305328
2320,10.9151096,-4.5944495,14.1736012,250.1297760,-245.9847260,174.1526642
2330,12.3492289,-3.2728570,12.7562418,250.1297760,-219.9847260,143.5267181
2340,12.9549589,-1.8411317,11.3795824,250.1297760,-194.3053436,108.8702316
2350,13.2374735,-0.8738791,9.8401184,250.1297760,-178.8167877,70.9847336
2360,12.7610302,-0.3112446,8.2503767,250.1297760,-179.1145020,31.6030540
2370,12.1169930,-0.1628049,7.1729918,250.1297760,-194.3664093,-6.4580154
2380,11.5232334,0.0646431,6.3278427,250.1297760,-220.2061005,-40.7099228
2390,11.4490137,0.4070122,5.5329719,250.1297760,-247.5343475,-72.1145020
2400,11.3412752,0.7565638,4.3310885,250.1297760,-250.1374054,-100.5801544
2410,11.4801388,1.1180865,3.3087699,237.9541931,-250.1374054,-127.0839691
2420,11.6740675,1.4436963,2.3702476,220.6564941,-250.1374054,-152.4885559
2430,11.5375986,1.8890154,1.9488702,201.1450348,-250.1374054,-179.1832123
2440,11.3771887,1.8291607,1.4197544,183.5267181,-250.1374054,-204.2748108
2450,11.0156660,1.5969244,1.4245427,166.1221313,-250.1374054,-224.9770966
2460,10.8815908,1.6950861,1.3383518,149.1679382,-250.1374054,-241.0229034
2470,10.7906122,1.5705882,1.1611819,129.9694672,-250.1374054,-250.1374054
2480,10.4075413,1.3431402,1.2928623,111.7862625,-250.1374054,-250.1374054
2490,9.8281479,1.2186425,1.5873476,99.6641235,-250.1374054,-250.1374054
2500,9.1721401,1.0079538,1.3455344,86.9465637,-250.1374054,-250.1374054
2510,8.2599535,0.9959828,0.8355721,73.1374054,-250.1374054,-250.1374054
2520,7.2639709,0.9433106,0.2130829,57.2977104,-250.1374054,-250.1374054
2530,6.1698260,0.8666966,-0.1292862,40.0381660,-227.1832123,-250.1374054
2540,4.6734576,0.8092360,-0.6009415,23.2366409,-200.7175598,-250.1374054
2550,2.9520357,0.6368544,-0.9552816,6.5343513,-178.6793823,-250.1374054
2560,1.2234308,0.5434810,-1.4293311,-9.8702288,-163.3511505,-250.1374054
2570,-0.1197095,0.7038917,-1.7740943,-26.6030540,-153.1374054,-232.1374054
2580,-1.3048333,1.0438666,-2.1715298,-43.8015251,-149.4122162,-209.3664093
2590,-2.0661855,1.3096216,-2.3941894,-61.7022896,-152.9770966,-185.1908417
2600,-2.4277081,1.4963684,-2.5282640,-79.8854980,-160.4198456,-161.2671814
2610,-2.3606708,1.6017127,-2.4013720,-99.2213745,-166.1145020,-138.8244324
2620,-1.9392935,1.6065011,-1.9488702,-119.8091583,-166.2900696,-119.0000000
2630,-1.3598996,1.6950861,-1.0055596,-138.5419922,-161.4274750,-102.8167953
2640,-0.7398046,1.7333932,0.0885850,-152.5114441,-147.9236603,-89.4809189
2650,-0.2705434,2.0135133,0.7900825,-164.4045868,-123.8091583,-78.9389343
2660,-0.2274480,2.1212518,1.1899122,-178.4885559,-90.5648880,-71.0457993
2670,-0.6344602,2.0350611,1.5083394,-194.3282471,-55.0305328,-64.1603088
2680,-1.5538290,1.7980363,2.0566087,-208.9465637,-24.4961834,-57.1679382
2690,-2.6599445,1.5514348,2.6886747,-219.5038147,-2.0152671,-47.2977104
2700,-3.4452386,1.4029950,3.1962428,-227.1145020,9.9847326,-34.2824440
2710,-4.0844874,1.1372399,3.7181761,-232.9236603,12.9465647,-19.0839691
2720,-4.5010762,1.0223188,4.3789725,-236.9389343,9.1450386,-2.0534351
2730,-4.2161674,0.7805058,5.2265158,-239.9084015,2.3969467,14.4885492
2740,-3.5553713,0.5482694,5.8992829,-242.2061005,1.7709924,28.4427490
2750,-2.7293761,0.3950413,6.7228842,-245.0152740,5.3129773,37.6259537
2760,-1.8602852,-0.0071826,7.5369086,-246.9160309,12.4274807,40.3206100
2770,-1.2665262,-0.5458752,8.1833391,-247.5954132,23.6335869,37.8625946
2780,-0.8906385,-1.3048333,8.5592270,-246.6412201,39.1984749,31.7633591
2790,-1.7453641,-1.9201399,9.0141230,-244.7175598,52.2519073,23.5038166
2800,-3.9432299,-2.1356170,9.4762020,-241.5038147,48.9236641,22.1374054
2810,-5.7628140,-2.2361729,10.5990763,-235.1145020,28.8015270,31.0381680
2820,-7.0101867,-2.2050486,12.0523500,-221.8167877,-0.9847328,49.0000000
2830,-7.1849627,-2.0350611,13.2326851,-203.7099304,-29.3664131,72.7557220
2840,-6.7300668,-2.1547706,13.8527803,-184.5343475,-48.5801544,99.5190811
2850,-5.5186067,-2.1547706,13.7282820,-170.8854980,-51.5267181,128.1297760
2860,-4.1491303,-2.2433555,13.4433737,-164.2442780,-40.6946564,153.0534363
2870,-2.5569944,-2.6192431,12.7730007,-167.1145020,-19.7328243,172.6183167
2880,-1.0773853,-2.8419030,12.6125898,-179.3816833,3.6030533,184.2748108
2890,-0.5051740,-2.8466914,13.2877512,-195.0152740,21.0229015,189.4351196
2900,-0.9313397,-3.0478032,14.6620159,-208.4656525,33.9923668,195.9007568
2910,-1.1109039,-3.5098817,16.5606079,-216.6946564,44.9847336,207.8778687
2920,-1.2090657,-3.8211265,18.3083668,-219.6717529,57.8625946,223.4427490
2930,-1.2593436,-4.2496862,19.6126022,-216.6259613,67.8549652,240.5190887
2940,-0.8619082,-4.8027439,19.6126022,-207.8396912,72.4732819,250.1297760
2950,-0.5027798,-5.1139889,19.6126022,-189.1832123,71.6870193,250.1297760
2960,-0.3902529,-5.7149301,19.6126022,-163.4351196,63.8091621,250.1297760
2970,-0.3256098,-6.0836353,19.6126022,-130.5725250,46.3358765,250.1297760
2980,0.1963235,-6.0405402,19.6126022,-91.1145020,20.9236641,250.1297760
2990,1.1851238,-6.1482787,19.6126022,-50.0610695,1.4580153,250.1297760
3000,2.2170193,-6.0716643,19.6126022,-12.9236641,-8.9236641,250.1297760
3010,3.2297616,-5.8370337,19.6126022,16.2748089,-14.3511448,250.1297760
3020,4.0844874,-5.5832496,19.6126022,36.9083977,-14.9083967,250.1297760
3030,5.1163831,-4.9583664,19.6126022,51.9923668,-9.6412210,250.1297760
3040,5.5257893,-4.4244623,18.5070839,61.2061081,-3.8091602,250.1297760
3050,5.5377603,-3.9647777,17.7960110,68.7251892,-1.3511450,250.1297760
3060,5.4779053,-3.5003049,17.3099899,75.7404556,-7.8702292,250.1297760
3070,5.4180508,-3.2225790,17.0346584,83.6564865,-21.4732819,238.6106873
3080,5.5880380,-2.9209111,17.0131111,93.5648880,-39.1908379,222.2671814
3090,5.6909885,-2.9256995,16.9532547,103.3511429,-58.6564903,204.3664093
3100,5.9543490,-2.9855542,16.9604378,119.1068726,-81.8320618,185.0763397
3110,6.4882536,-3.0525916,17.0107155,136.3816833,-100.2900772,166.1679382
3120,6.8354111,-2.8179610,16.6539822,155.8167877,-115.1755753,145.5725250
3130,6.2847471,-2.4061604,16.0721931,174.1221313,-136.8625946,124.5648880
3140,6.0165982,-2.1308286,15.6532106,193.9160309,-168.7328186,105.8473282
3150,6.4978304,-2.3391230,14.8631277,214.7786255,-194.4198456,88.5343475
3160,6.9311786,-2.5115047,13.7785606,233.4809113,-208.2213745,70.5038147
3170,7.7739329,-2.5378408,12.7753954,248.0686951,-207.5954132,55.2977104
3180,8.8273764,-2.2577207,12.0403786,250.1297760,-192.3435059,39.2290077
3190,9.4019823,-1.8052188,11.0755205,250.1297760,-173.0305328,19.1374054
3200,9.5336628,-1.8866212,10.0316534,250.1297760,-160.8931274,-3.5801528
3210,9.6102762,-1.8961980,8.8824425,250.1297760,-151.6488495,-24.0000000
3220,9.9310980,-1.7357874,7.3573442,250.1297760,-143.6946564,-43.5190849
3230,10.0172882,-1.6711442,5.9088597,250.1297760,-132.4427490,-61.4961815
3240,10.1465750,-1.6160779,4.6543045,250.1297760,-124.8320618,-76.6030502
3250,10.5559816,-1.3479286,3.7564833,250.1297760,-120.2519073,-90.4961853
3260,10.6709023,-1.0390782,2.8395088,249.7862549,-116.3129807,-104.1145020
3270,11.1186161,-0.7086801,1.7645177,238.7022858,-114.8091583,-117.5572510
3280,11.5112629,-0.0814024,0.6847382,225.3969421,-118.1679382,-133.2748108
3290,11.6668854,0.3902529,-0.3232156,209.8473358,-127.9542007,-150.6259613
3300,11.5184450,0.8547257,-0.9672526,193.5954132,-144.4122162,-170.5190887
3310,11.1425581,1.3000449,-1.2186425,178.9618378,-166.7022858,-191.1603088
3320,10.6493549,1.6280488,-1.2808913,167.4885559,-193.1221313,-211.7328186
3330,9.9717989,1.7717001,-0.9840119,160.2366486,-223.4656525,-231.0534363
3340,9.4331064,1.7836711,-0.8666966,155.0610657,-250.1374054,-249.0076294
3350,8.6885138,1.6926919,-0.8355721,150.5496216,-250.1374054,-250.1374054
3360,7.7356262,1.5418580,-0.9768293,143.9313049,-250.1374054,-250.1374054
3370,6.4906478,1.3335636,-1.4125718,133.7099304,-250.1374054,-250.1374054
3380,5.1187773,1.1252691,-1.9081690,118.7709961,-250.1374054,-250.1374054
3390,3.7900019,1.1300575,-2.1380112,98.7480927,-250.1374054,-250.1374054
3400,2.6000898,1.2114599,-2.2481439,81.2519073,-250.1374054,-250.1374054
3410,1.7597293,1.4341195,-2.5162930,60.8473282,-250.1374054,-250.1374054
3420,0.8499373,1.8650736,-2.7628946,39.1984749,-236.9465637,-248.6641235
3430,0.5530578,2.0470319,-3.0621684,16.4503822,-211.3053436,-233.1526642
3440,0.4860204,2.5881188,-3.5074875,-9.8549614,-185.6870270,-219.2519073
3450,0.1101327,2.9089401,-4.1682839,-39.9771004,-158.2061005,-208.1984711
3460,-0.9050036,2.8059900,-4.3813667,-73.0687027,-132.0763397,-195.5419922
3470,-1.9943599,2.7078283,-4.2113791,-105.9618301,-110.6946564,-177.8549652
3480,-2.8012016,2.5498118,-3.4165084,-135.9847260,-94.6488571,-156.9465637
3490,-3.4691806,2.4181314,-2.6623387,-162.3129730,-85.0839691,-133.9465637
3500,-3.8474624,2.2672975,-1.6591733,-183.5267181,-81.1832047,-111.9465637
3510,-3.8881636,2.1475880,-0.8427547,-200.3816833,-82.3053436,-91.0839691
3520,-3.9192882,1.9488702,-0.0502780,-214.3282471,-83.1603088,-72.8549652
3530,-3.8187323,1.6783268,0.7876883,-227.3129730,-86.1679382,-55.6488533
3540,-3.6152260,1.4221486,1.7956421,-237.1145020,-88.9465637,-41.3358765
3550,-3.5290353,1.6974803,2.6623387,-244.7709961,-89.2366409,-28.1832066
3560,-3.8785870,0.6584021,4.0150557,-249.1755676,-90.1984711,-13.2519083
3570,-3.9791429,0.3112446,5.1810260,-250.1374054,-90.2671738,3.3129771
3580,-4.2401094,0.1723816,6.4212160,-248.1068726,-91.9160309,20.6870232
3590,-3.9456241,0.2035061,7.3190370,-245.1526642,-92.3511429,38.4274826
3600,-3.3039815,0.3232156,7.7404146,-244.2366486,-74.6106873,53.6259537
3610,-2.8083842,0.1508339,6.9718795,-250.1374054,-29.8702297,67.8854980
3620,-2.9113343,-0.9050036,5.9471664,-250.1374054,29.2137413,82.4045792
3630,-3.1914546,-2.2792683,5.8921003,-250.1374054,74.5572510,95.5190811
3640,-3.3327117,-3.3375001,7.8074517,-250.1374054,79.8167953,104.3511429
3650,-2.8275378,-3.8618276,10.7355452,-250.1374054,46.6564903,104.1526718
3660,-2.3654592,-4.1563129,13.0698805,-250.1374054,1.8167939,98.0457993
3670,-2.0159075,-4.2353210,15.0786057,-250.1374054,-39.4122124,88.9542007
3680,-1.8171898,-4.0677280,16.4959660,-246.2442780,-64.3282471,81.4274826
3690,-1.9752063,-3.7660601,17.5709572,-217.6870270,-68.8778610,77.5877838
3700,-2.6695213,-3.7540891,17.9659977,-192.4580078,-53.2748108,80.4198456
3710,-3.8211265,-3.6631098,17.9947281,-172.2519073,-28.5038166,91.1755753
3720,-5.2672167,-3.4691806,17.8486824,-155.8702240,-5.0687022,112.6030502
3730,-6.2129216,-3.3782012,17.7337608,-141.3969421,5.0000000,139.0152740
3740,-6.2512288,-3.2130022,17.6691189,-127.9465637,3.6717558,165.2595367
3750,-5.7939386,-3.0334380,17.4296989,-117.1068726,4.1755724,190.5038147
3760,-5.0780759,-3.0621684,17.1447906,-109.4198456,7.8167939,213.5877838
3770,-4.0509686,-3.0549858,16.8407288,-105.7786255,15.3206110,231.5267181
3780,-3.0885043,-3.1890604,16.4241390,-105.3206100,27.3206100,244.8549652
3790,-2.7533178,-3.0142846,15.8950233,-108.4809189,41.1526718,250.1297760
3800,-2.9951310,-2.9664006,15.5143480,-115.1068726,49.5801544,250.1297760
3810,-2.9783716,-2.9616125,15.5287132,-122.4045792,51.6412201,250.1297760
3820,-2.5138988,-3.1555417,15.8447456,-129.0458069,54.3358765,250.1297760
3830,-1.4053892,-3.4883339,16.1344433,-135.2519073,64.1603088,250.1297760
3840,0.1149211,-3.9168940,16.2589397,-143.5801544,77.7022934,250.1297760
3850,1.6328372,-4.5298066,17.1352139,-150.9389343,75.0610657,250.1297760
3860,3.0549858,-4.8027439,18.7632618,-146.0763397,62.6412201,250.1297760
3870,3.6032550,-4.9128766,19.6126022,-128.8167877,49.4122124,250.1297760
3880,3.5697365,-4.8266859,19.6126022,-104.0305328,30.2671757,250.1297760
3890,3.4165084,-4.5202298,19.6126022,-77.5419846,6.0687022,250.1297760
3900,3.4428444,-4.4579806,19.6126022,-47.2977104,-18.1603050,250.1297760
3910,3.5218527,-4.6662750,19.6126022,-17.8244267,-31.8931293,250.1297760
3920,3.7923961,-5.0158267,19.6126022,6.6641221,-38.9160309,247.2671814
3930,4.1204000,-5.4324160,19.5485573,27.4274807,-45.7786255,244.0076294
3940,4.1084290,-5.4036856,19.5916519,49.3282433,-55.1374054,241.1526642
3950,4.2664456,-5.4731169,19.3522339,73.4503784,-65.3587799,239.1679382
3960,4.6806402,-5.7388721,18.9021263,98.2290039,-71.9847336,238.2900696
3970,5.2384863,-5.9567432,18.2269650,119.6870193,-77.1755753,237.3893127
3980,5.9471664,-6.2895355,17.6020813,142.8625946,-85.8625946,233.8854980
3990,6.6941538,-6.3182659,17.1352139,168.4809113,-100.9236679,225.1832123
4000,7.5297260,-5.8729467,16.3930149,195.6946564,-116.9236679,212.6641235
4010,8.3222027,-5.5353661,15.3826675,221.7404633,-136.3511505,195.2748108
4020,8.8010406,-5.1187773,14.4034433,246.9465637,-162.2366486,172.5038147
4030,9.0787668,-4.8721757,13.2877512,250.1297760,-191.2442780,148.6106873
4040,9.4426832,-4.3095412,12.0379848,250.1297760,-221.3435059,122.9007645
4050,10.1274214,-3.6343796,10.7331514,250.1297760,-245.3206177,97.1450348
4060,11.0443964,-2.7868366,9.8568783,250.1297760,-250.1374054,67.0534363
4070,12.3013458,-1.7764885,8.5352850,250.1297760,-250.1374054,33.0381660
4080,13.3069048,-0.7685348,6.7875271,250.1297760,-250.1374054,-6.5954199
4090,13.8120794,-0.0550664,4.9009056,250.1297760,-250.1374054,-48.0839691
4100,13.5319586,0.4620786,2.8442972,250.1297760,-250.1374054,-86.7175598
4110,12.6173782,0.6607963,0.9600700,250.1297760,-250.1374054,-117.9618301
4120,11.3532467,0.7876883,-0.5291159,250.1297760,-250.1374054,-141.7480927
4130,10.4362717,0.8666966,-1.0965388,250.1297760,-250.1374054,-159.1450348
4140,9.7132263,0.8451489,-1.3646880,228.1832123,-250.1374054,-171.3969421
4150,9.6150646,1.0390782,-1.5155219,202.1984711,-250.1374054,-180.6488495
4160,9.4163475,1.4125718,-1.1587877,182.2137451,-250.1374054,-191.2442780
4170,9.5623922,1.7740943,-0.7493813,167.7175598,-250.1374054,-202.5038147
4180,10.1417866,2.0853391,-1.0630201,153.5648804,-250.1374054,-215.3053436
4190,10.1753054,2.2170193,-1.6232605,136.6564941,-250.1374054,-230.4274750
4200,9.9263096,2.3247581,-2.3056045,114.9007645,-250.1374054,-245.8931274
4210,9.2679071,2.2960277,-2.6695213,90.9847336,-243.0000000,-250.1374054
4220,8.7268209,2.1332228,-3.0813217,65.4122162,-232.0381622,-250.1374054
4230,8.3892403,2.0613971,-2.8490853,41.2137413,-223.5877838,-250.1374054
4240,7.7140784,1.8171898,-2.8730273,18.2519093,-212.0458069,-250.1374054
4250,6.3086891,1.2617378,-2.7509236,-3.0687022,-195.1297760,-250.1374054
4260,4.7716198,1.0606259,-2.7078283,-24.6564884,-177.4045868,-250.1374054
4270,3.1555417,0.9504932,-2.2840567,-44.3893127,-159.3740387,-250.1374054
4280,1.9273225,1.0917504,-2.1523764,-62.2824440,-142.0076294,-250.1374054
4290,0.7517755,1.2330076,-1.9033806,-78.2595444,-127.0610657,-250.1374054
4300,0.0287303,1.4053892,-1.8842272,-93.6946564,-117.3053436,-244.8854980
4310,-0.2011119,1.7214222,-1.7405758,-108.7099228,-115.0305328,-232.6793823
4320,-0.7134684,1.6567791,-1.6543850,-123.7633591,-114.3435135,-223.1297760
4330,-1.6472024,1.3527170,-1.1516051,-136.5801544,-114.9618301,-211.2519073
4340,-2.5330524,1.2282192,-0.5434810,-147.7099304,-117.5190811,-195.8778687
4350,-3.0813217,1.1611819,-0.0167593,-157.7099304,-119.0152664,-179.6793823
4360,-3.3518653,1.2066715,-0.1819584,-169.1221313,-120.2519073,-164.0000000
4370,-3.4859397,0.6344602,0.0167593,-182.6106873,-118.6946564,-150.6412201
4380,-4.3430595,0.1675933,-0.0718257,-198.0992432,-117.6641235,-136.0839691
4390,-5.2648225,-0.2873027,-0.4237715,-217.1297760,-120.8854980,-116.6793900
4400,-5.8274570,-0.5817881,-0.3303981,-239.6946564,-129.1221313,-93.2595444
4410,-5.9974446,-1.0271072,0.5817881,-250.1374054,-134.0229034,-66.8854980
4420,-6.0453281,-1.3168042,1.7621235,-250.1374054,-128.1603088,-38.7022896
4430,-6.0094156,-1.5897418,3.8594334,-250.1374054,-111.9542007,-10.2137403
4440,-5.6502872,-1.8076130,6.2703824,-250.1374054,-78.6488571,18.6564884
4450,-5.3031297,-1.8602852,7.7356262,-250.1374054,-29.2213745,45.7938919
4460,-5.1858144,-2.0230901,8.4107876,-250.1374054,21.7786255,68.5419846
4470,-5.1882086,-2.4396791,9.4642305,-250.1374054,42.0228996,84.9770966
4480,-4.6878228,-2.5210814,11.1832590,-250.1374054,25.1755733,95.9160309
4490,-3.4476328,-2.3079987,12.1026278,-250.1374054,0.7404580,99.6412201
4500,-1.9608412,-2.2696917,12.2821922,-250.1374054,-19.6641216,96.1832047
4510,-0.8666966,-2.1595588,12.0116482,-250.1374054,-28.4656487,90.6946564
4520,-0.4764437,-2.1715298,11.6190014,-243.5419922,-26.4503822,83.0229034
4530,-0.6320660,-2.4085546,11.4298601,-240.8854980,-16.4732819,76.7328262
4540,-1.1420283,-2.7772598,11.5663290,-242.0839691,-7.0992365,72.0610657
4550,-1.9847831,-3.0286496,11.7434988,-244.6946564,0.1374046,69.3893127
4560,-3.0454090,-3.4524212,11.7913828,-250.1374054,5.6488547,68.9236679
4570,-3.9552009,-4.0701222,12.3181047,-250.1374054,10.3816795,70.4351120
4580,-4.6878228,-4.7213416,13.2877512,-250.1374054,12.5725193,72.9770966
4590,-5.4491754,-5.4755111,14.4704809,-250.1374054,13.2061071,75.5954208
4600,-6.3517847,-6.0405402,16.0410690,-250.1374054,9.2595415,80.1297684
4610,-6.9934273,-6.6366930,17.7313671,-250.1374054,4.7786260,88.8931274
4620,-7.3262196,-7.1346846,19.0936604,-238.9084015,6.6641221,100.4580154
4630,-7.6518297,-7.6997132,19.6126022,-217.7862549,7.1221375,116.2442780
4640,-7.6757712,-8.0013809,19.6126022,-192.1221313,9.4045801,132.5038147
4650,-7.8816719,-8.0564480,19.6126022,-162.0686951,10.8015270,149.2900696
4660,-7.9606800,-8.0851774,19.6126022,-133.7862549,6.7022901,168.3282471
4670,-7.5297260,-8.0516596,18.8877602,-110.4503784,-4.1832061,188.8015289
4680,-6.7204900,-7.8984308,17.5326500,-95.8854980,-10.5343513,208.9236603
4690,-6.2416520,-7.7116842,16.3714676,-90.5038147,-11.4351149,230.5038147
4700,-5.8609757,-7.7116842,15.3826675,-94.0305328,-7.1984735,250.1297760
4710,-5.4204450,-7.7667508,15.0594521,-102.1984711,0.6641222,250.1297760
4720,-4.9272418,-8.0947542,14.9612904,-110.1221390,9.7633591,250.1297760
4730,-4.3310885,-8.7459745,15.1264887,-116.5038147,16.1145039,250.1297760
4740,-3.8474624,-9.4618368,15.5765963,-119.6641235,17.2595425,250.1297760
4750,-3.2034254,-10.0819321,16.2302094,-119.0534363,17.2213745,250.1297760
4760,-2.4923513,-10.6110477,16.9149494,-113.7709961,17.5572510,250.1297760
4770,-1.5658000,-11.1641054,17.7720680,-104.0534363,16.7633591,250.1297760
4780,-0.7398046,-11.5830889,18.7872047,-87.0457993,12.0152674,250.1297760
4790,0.3639168,-11.9206696,19.6126022,-61.0534363,2.9312978,250.1297760
4800,1.4413021,-12.0212250,19.6126022,-27.0916023,-11.0763359,250.1297760
4810,2.0398495,-11.8799677,19.6126022,15.5572519,-30.8091602,250.1297760
4820,3.2991931,-11.5016861,19.6126022,63.6870232,-58.4427490,250.1297760
4830,3.8761928,-11.1042509,19.6126022,112.9236679,-90.1374054,250.1297760
4840,4.5561423,-10.3476868,18.7393208,158.4809113,-121.0992355,250.1297760
4850,5.1738434,-9.4570484,17.1304264,197.9389343,-150.8625946,250.1297760
4860,5.7963328,-8.7052727,15.3347836,230.0305328,-180.9007568,250.1297760
4870,6.7348547,-7.8984308,13.8647509,250.1297760,-210.5496216,250.1297760
4880,8.5161324,-6.7133074,12.6748390,250.1297760,-228.6335907,225.8091583
4890,10.1226330,-5.2504573,11.4490137,250.1297760,-234.1603088,192.9313049
4900,10.7690639,-3.5769191,10.1944590,250.1297760,-239.6259613,155.8320618
4910,11.4083128,-2.0470319,8.9351149,250.1297760,-244.4122162,117.2061081
4920,11.8033543,-0.9720409,7.8553357,250.1297760,-243.6717529,77.6564865
4930,12.0978394,-0.1388630,7.0413113,250.1297760,-239.4656525,39.6488533
4940,12.2390966,0.3950413,6.2919297,250.1297760,-234.1297760,2.1832061
4950,12.0786858,0.7469871,5.5353661,247.9465637,-228.8320618,-33.9847336
4960,11.6501255,0.9145803,5.1618724,231.2900696,-223.1068726,-66.0381699
4970,11.3628235,1.0055596,5.3270717,217.3893127,-217.3435059,-94.0687027
4980,10.9103212,0.9337339,5.3174949,207.5572510,-215.8015289,-119.8473282
4990,10.4003592,0.8116302,5.2767935,200.9618378,-217.4274750,-144.0076294
5000,9.6030941,1.1037214,5.2743993,198.4656525,-223.3587799,-165.1297760
5010,8.9135675,1.1683644,4.9966736,198.6412201,-233.3511505,-184.3435059
5020,8.5376797,1.2617378,4.4340386,199.8702240,-245.6564941,-201.8396912
5030,8.3940287,1.3790531,3.6271970,199.2213745,-250.1374054,-220.0686951
5040,8.3581152,1.5658000,2.4516499,193.5267181,-250.1374054,-239.7862549
5050,7.9247670,1.5107336,1.2066715,181.1526642,-250.1374054,-250.1374054
5060,7.0245519,1.2521610,0.4261657,162.2748108,-250.1374054,-250.1374054
5070,6.0668759,0.9935886,0.4908088,143.1145020,-250.1374054,-250.1374054
5080,4.6064205,0.9935886,0.5769997,126.3435135,-250.1374054,-250.1374054
5090,3.2920105,0.8930327,0.3950413,110.1755753,-250.1374054,-250.1374054
5100,2.0159075,0.9289455,0.4381367,94.3587799,-248.5648804,-250.1374054
5110,1.1994889,1.2210367,0.3280039,79.1450348,-242.8396912,-250.1374054
5120,0.8619082,1.1420283,0.2370248,65.1068726,-238.4732819,-250.1374054
5130,-0.6440369,1.3239868,0.1819584,52.0152664,-231.5267181,-250.1374054
5140,-1.6088953,1.3958124,0.6248835,41.3893127,-226.3969421,-250.1374054
5150,-2.1930776,1.5777708,0.3950413,29.0763359,-217.1450348,-249.2977142
5160,-2.7102225,1.7836711,0.0646431,12.7557249,-201.3664093,-231.7328186
5170,-3.2967989,2.1260402,-0.2322364,-8.1374044,-178.5496216,-212.4580078
5180,-3.5266411,2.5785420,-0.5674229,-31.9083977,-151.0992432,-194.9389343
5190,-3.6295912,2.7030399,-0.7517755,-58.1145020,-122.7099228,-180.6106873
5200,-3.8977404,2.6383967,-0.6368544,-84.8091583,-96.7099228,-167.8091583
5210,-4.4412212,2.3965836,-0.5769997,-110.3969498,-71.9083939,-153.4122162
5220,-4.8171091,2.0613971,-0.1364688,-134.4351196,-51.1450386,-137.1068726
5230,-5.4395986,1.8387375,0.3064562,-155.7480927,-37.5725174,-118.3206100
5240,-5.8322453,1.9991482,0.9552816,-173.2900696,-34.6259537,-98.2595444
5250,-5.9208307,2.3008161,1.4436963,-187.7480927,-39.1984749,-79.0916061
5260,-5.6478930,2.2960277,2.2170193,-199.1374054,-48.3816795,-62.0228996
5270,-5.3605900,2.1308286,2.9185169,-210.2671814,-58.7404594,-47.2061081
5280,-5.0134325,1.8938038,3.7277529,-219.8931274,-67.8549652,-34.8167953
5290,-4.6399393,1.0654143,5.4443870,-225.7175598,-70.7633591,-24.6259537
5300,-4.5944495,0.6272776,6.8689294,-226.2824402,-71.9312973,-12.3587790
5310,-4.3215117,0.2681492,7.5009956,-226.5572510,-69.1526718,1.7557251
5320,-3.8307030,-0.0718257,8.3700867,-227.1145020,-66.3969498,13.1984730
5330,-3.4835455,-0.4429250,9.2990322,-227.0763397,-61.1603050,21.7022896
5340,-3.4596038,-0.7278336,10.0125008,-225.8549652,-57.7709923,27.8015270
5350,-3.4859397,-0.8547257,10.7954006,-225.4122162,-51.7404594,34.0610695
5360,-3.8426740,-1.0773853,11.3747940,-227.3206177,-33.6106873,41.8396950
5370,-4.5298066,-1.1611819,11.5519638,-230.8778687,-11.0839691,53.7709923
5380,-5.5186067,-1.2138541,11.7961712,-235.2290039,8.4961834,70.0763321
5390,-6.1195483,-1.1372399,11.7051926,-239.8244324,23.0839691,91.1603088
5400,-6.0070214,-0.9552816,11.6740675,-245.4961853,29.0076332,110.3969498
5410,-5.2001796,-1.0702027,11.8703909,-250.1374054,31.2290077,125.0916061
5420,-4.2137733,-1.1492109,11.6644907,-250.1374054,34.6183205,134.4198456
5430,-3.3686244,-1.8435259,11.8105364,-250.1374054,32.6488533,138.2366486
5440,-2.9256995,-2.5785420,13.2183199,-250.1374054,22.4351139,138.2213745
5450,-2.6886747,-3.5146701,14.7362356,-250.1374054,13.5114508,137.3206177
5460,-3.2632802,-4.1754665,15.7370071,-250.1374054,13.2748089,140.5801544
5470,-4.2018023,-4.5202298,15.7585554,-250.1374054,26.1832066,151.2366486
5480,-5.0876527,-4.7740140,14.9900198,-250.1374054,45.3435097,166.8015289
5490,-5.6526814,-5.1738434,14.2837343,-250.1374054,62.3435097,185.8320618
5500,-5.5042415,-5.9519548,14.1616306,-250.1374054,71.3282471,204.1984711
5510,-4.9440012,-6.5720501,14.6500454,-250.1374054,78.1068726,219.8854980
5520,-4.3502421,-7.3788919,14.6787758,-250.1374054,86.8778610,232.1984711
5530,-3.9480183,-8.1785507,14.6428623,-250.1374054,98.6183243,242.1221313
5540,-3.3470769,-8.9518747,15.4018211,-250.1374054,100.9236679,246.8702240
5550,-3.1531475,-9.8329363,16.8862190,-250.1374054,90.6717529,245.8015289
5560,-3.6631098,-10.3716288,18.9140968,-250.1374054,70.8931274,243.7099304
5570,-4.2855992,-10.8911676,19.6126022,-250.1374054,44.7022896,245.6183167
5580,-5.0541339,-11.1329813,19.6126022,-220.8320618,18.4351139,250.1297760
5590,-5.4826937,-11.4753504,19.6126022,-168.3358765,-5.3664122,250.1297760
5600,-5.6359220,-11.7554703,19.6126022,-112.3511429,-26.2977104,250.1297760
5610,-5.1451130,-12.0427732,19.6126022,-55.9771004,-45.1374054,250.1297760
5620,-4.3382711,-11.9829178,19.6126022,-4.5190840,-64.5343475,250.1297760
5630,-3.4236910,-11.7123747,19.6126022,39.0076332,-82.5419846,250.1297760
5640,-2.4109488,-11.5040808,18.1862640,72.3206100,-99.2290039,250.1297760
5650,-1.5059452,-11.0252428,16.5701847,96.7633591,-114.5725174,250.1297760
5660,-0.7876883,-10.4793673,15.1336718,113.1297684,-123.6106873,250.1297760
5670,-0.4405309,-9.8089943,14.3220415,124.0763321,-130.9847260,250.1297760
5680,0.0143651,-9.2750902,14.1257181,134.0458069,-138.8396912,250.1297760
5690,0.4141948,-8.9375095,14.0802279,145.2748108,-145.8854980,250.1297760
5700,0.9026094,-8.5951405,14.3172531,159.4732819,-153.4503784,250.1297760
5710,1.3479286,-8.1977043,14.3675308,178.4732819,-166.2977142,250.1297760
5720,3.0861101,-7.8697009,14.3507719,202.0686951,-184.6488495,250.1297760
5730,5.5257893,-7.0053983,14.2550039,228.5343475,-200.3740387,250.1297760
5740,7.7906923,-5.6431046,13.5798426,250.1297760,-214.4198456,233.4351196
5750,9.0979195,-4.2113791,12.4904861,250.1297760,-234.5343475,193.0610657
5760,10.3309278,-2.8466914,11.2574787,250.1297760,-250.1374054,147.2977142
5770,11.6190014,-1.3862357,9.7228031,250.1297760,-250.1374054,96.6488571
5780,12.2127600,-0.1101327,8.0396881,250.1297760,-250.1374054,38.4580154
5790,12.0906563,0.6105183,6.9239960,250.1297760,-250.1374054,-18.4198475
5800,11.8249016,1.0678085,6.3182659,250.1297760,-250.1374054,-74.4580154
5810,11.4514084,1.3527170,5.9208307,250.1297760,-250.1374054,-128.5648804
5820,10.6541433,1.2737088,5.6000090,250.1297760,-250.1374054,-180.7862549
5830,9.6270361,1.0965388,5.4731169,250.1297760,-250.1374054,-226.8015289
5840,8.8513184,0.8882443,5.1642666,250.1297760,-250.1374054,-250.1374054
5850,7.8768835,0.7685348,3.9121056,250.1297760,-250.1374054,-250.1374054
5860,7.2112985,0.6847382,2.3558824,250.1297760,-250.1374054,-250.1374054
5870,6.6007805,0.7182568,0.9457048,250.1297760,-250.1374054,-250.1374054
5880,6.2655940,0.4620786,0.2585725,250.1297760,-250.1374054,-250.1374054
5890,5.5210009,0.1651991,0.3639168,243.9847260,-250.1374054,-250.1374054
5900,4.2233500,0.1005560,0.6607963,211.1984711,-250.1374054,-250.1374054
5910,2.8706331,-0.0454896,0.0407012,178.9389343,-250.1374054,-250.1374054
5920,1.3982066,-0.0047884,-0.9121862,143.9618378,-250.1374054,-250.1374054
5930,0.0790083,0.3351865,-1.8124014,108.8244247,-250.1374054,-250.1374054
5940,-0.9720409,1.0438666,-2.5115047,77.2366409,-182.3816833,-250.1374054
5950,-2.0111191,1.6519908,-3.3901722,50.1908379,-127.7709961,-232.9694672
5960,-3.1699069,2.1643472,-4.3598189,25.2595425,-87.9770966,-206.7633514
5970,-3.8283088,2.7221935,-5.3174949,-0.6106870,-66.0381699,-180.6183167
5980,-3.7493007,3.3638363,-6.0477223,-28.8854961,-56.2977104,-157.4961853
5990,-3.2393384,3.8857694,-6.3685441,-57.9236641,-54.7709923,-139.8015289
6000,-2.7700772,3.9935081,-6.1243367,-85.8473282,-56.5801544,-126.7099228
6010,-2.6934631,3.8618276,-5.4635406,-110.4580154,-60.6106873,-116.8396912
6020,-2.6383967,3.7277529,-4.5465660,-131.3435059,-66.1068726,-107.4198456
6030,-2.5953014,3.5026991,-3.5984666,-148.3435059,-66.0687027,-98.9007645
6040,-2.7341642,3.2584918,-2.5976956,-162.7404633,-60.6030540,-89.7557220
6050,-2.9831600,3.0980811,-1.9416877,-175.7633514,-51.8702278,-80.6488571
6060,-3.4380560,2.8634505,-1.2090657,-188.3816833,-43.2519073,-71.6412201
6070,-3.4955165,2.7293761,-0.7374104,-200.0839691,-36.5343513,-62.5648842
6080,-3.2465210,2.8802099,-0.0981618,-211.5114441,-29.2671757,-55.2137413
6090,-3.0908985,2.8395088,0.5434810,-222.3816833,-21.1603050,-50.5954208
6100,-3.0956869,2.7174051,1.0725969,-232.1603088,-13.7251911,-45.5419846
6110,-2.5234756,2.7078283,1.7070571,-242.8320618,-4.4580154,-39.4656487
6120,-1.7429699,2.6599445,1.8076130,-250.1374054,13.2442751,-34.6793900
6130,-0.9840119,2.5186872,1.5849534,-250.1374054,36.4274826,-31.6335869
6140,-0.6967092,2.6455793,0.9480990,-250.1374054,64.9694672,-33.0534363
6150,-1.5155219,1.3144100,0.8475431,-250.1374054,83.1908417,-37.6870232
6160,-2.4564383,-0.1244979,2.9209111,-250.1374054,75.5190811,-43.2595406
6170,-3.6176202,-1.0103480,5.9758968,-250.1374054,51.4045792,-45.4656487
6180,-4.7835903,-1.8746504,8.1067257,-250.1374054,26.1603050,-43.2213745
6190,-5.9088597,-2.3175755,9.6485834,-250.1374054,7.7786260,-36.0076332
6200,-7.1586266,-2.6000898,10.6373835,-250.1374054,2.5648854,-22.7633591
6210,-7.9319496,-2.9256995,11.1018562,-250.1374054,2.3740458,-5.7480917
6220,-8.5544386,-3.0621684,12.1816359,-250.1374054,1.1832061,12.8396950
6230,-8.7770987,-3.2249732,13.2087431,-250.1374054,5.0763359,31.1374054
6240,-8.5616217,-3.4404502,13.2853575,-250.1374054,15.9923668,49.7709923
6250,-7.8553357,-3.8235207,12.9525652,-250.1374054,23.7480907,66.1297684
6260,-6.9694853,-3.9982965,12.4976692,-250.1374054,27.8320618,77.6488571
6270,-6.3661499,-4.2065907,12.3803539,-250.1374054,26.0458012,83.4503784
6280,-6.0142040,-4.5920553,12.9549589,-250.1374054,14.0152674,85.3664093
6290,-5.9495606,-5.0876527,13.4481621,-250.1374054,-1.5496184,86.9083939
6300,-6.0836353,-5.5377603,13.3619709,-250.1374054,-15.7099237,90.4351120
6310,-6.3900914,-5.9926562,12.8855276,-250.1374054,-24.5496178,96.8167953
6320,-6.9168134,-6.4786768,12.5168228,-250.1374054,-29.9618320,109.0000000
6330,-7.3262196,-6.8665352,12.3516235,-250.1374054,-31.4351139,124.2213745
6340,-7.5536675,-7.2280579,12.5503407,-250.1374054,-31.6717548,141.6641235
6350,-7.8289995,-7.4124107,12.7370882,-250.1374054,-27.6946564,161.5267181
6360,-7.8289995,-8.0995426,12.6820211,-250.1374054,-21.9160309,183.6717529
6370,-7.5177550,-8.7651272,13.1177645,-250.1374054,-21.5190830,205.4732819
6380,-7.1682034,-9.3588867,14.0634689,-250.1374054,-23.0152664,224.6183167
6390,-6.8473821,-10.0220766,14.7913027,-250.1374054,-22.5801525,242.7175598
6400,-6.8665352,-10.8217363,15.0929699,-250.1374054,-20.4961834,250.1297760
6410,-6.6127515,-11.4777441,15.7513723,-250.1374054,-22.1908398,250.1297760
6420,-6.0525107,-12.0810804,16.6611652,-244.3969421,-27.6870232,250.1297760
6430,-5.3845320,-12.7442703,17.6691189,-221.5877838,-36.6641235,250.1297760
6440,-4.8434453,-13.2063494,18.7512913,-191.2442780,-50.4961815,250.1297760
6450,-4.4603748,-13.3188763,19.6126022,-153.0534363,-69.3435135,250.1297760
6460,-3.5218527,-13.3476067,19.6126022,-105.5801544,-94.1068726,250.1297760
6470,-2.5474176,-12.8831339,19.6126022,-53.5572510,-116.7480927,250.1297760
6480,-1.5394639,-12.4593620,19.6126022,-1.9618320,-132.6106873,250.1297760
6490,-0.6584021,-11.9924946,19.5581341,42.1297722,-141.2748108,250.1297760
6500,-0.0095768,-11.3987360,18.3251266,78.1221390,-147.6717529,250.1297760
6510,0.4979914,-10.6182299,17.1591549,105.2671738,-152.3816833,250.1297760
6520,0.8236012,-10.1369982,16.3547077,128.0381622,-159.0610657,250.1297760
6530,1.0821736,-9.6916790,15.9117832,148.2137451,-168.6412201,250.1297760
6540,1.7022687,-9.2200232,15.5358953,169.1068726,-178.9313049,250.1297760
6550,2.2601149,-8.8704720,15.1671906,191.2595367,-190.8702240,250.1297760
6560,3.3470769,-8.3557215,14.6739874,215.0839691,-206.2137451,250.1297760
6570,4.0126615,-7.8361821,13.7881374,238.7633514,-222.1297760,250.1297760
6580,5.4970589,-7.2687593,13.0291786,250.1297760,-238.7709961,250.1297760
6590,7.9247670,-5.9998388,11.8560257,250.1297760,-250.1374054,232.5725250
6600,10.4817610,-4.1012464,10.4817610,250.1297760,-250.1374054,190.6335907
6610,11.8129311,-2.0853391,8.9446917,250.1297760,-250.1374054,138.7175598
6620,11.9446115,-0.3926471,7.5895805,250.1297760,-250.1374054,82.2671738
6630,11.3556404,0.7302278,6.9048424,250.1297760,-250.1374054,26.7633591
6640,10.1896706,0.9983770,6.4595232,250.1297760,-250.1374054,-24.8931293
6650,9.1051025,0.8762733,6.3565731,250.1297760,-250.1374054,-68.4427490
6660,8.3796635,0.8523315,6.3062949,250.1297760,-250.1374054,-106.0992355
6670,7.8122401,1.2354017,5.6981707,250.1297760,-250.1374054,-138.5038147
6680,7.6350703,1.7645177,4.5729017,250.1297760,-250.1374054,-165.1297760
6690,8.0540533,2.3822186,2.3822186,250.1297760,-250.1374054,-187.6183167
6700,8.9566631,3.1124463,0.2011119,250.1297760,-250.1374054,-206.9084015
6710,10.5368280,3.5529771,-1.2808913,250.1297760,-250.1374054,-225.6183167
6720,10.9151096,3.2944047,-1.8914096,224.8015289,-250.1374054,-250.0534363
6730,11.0084829,3.1890604,-0.8523315,185.8549652,-250.1374054,-250.1374054
6740,10.3859940,2.8706331,-0.0694315,156.9465637,-250.1374054,-250.1374054
6750,9.0380650,2.1260402,-0.1316804,134.1755676,-250.1374054,-250.1374054
6760,7.0460997,1.5346755,-0.8954269,109.7251892,-250.1374054,-250.1374054
6770,5.0517397,1.2473727,-1.6543850,84.1679382,-250.1374054,-250.1374054
6780,3.4619980,1.1659702,-2.5522060,57.3816795,-250.1374054,-250.1374054
6790,1.9392935,1.4173602,-3.1268115,31.1145039,-214.9541931,-250.1374054
6800,0.9145803,1.8507085,-3.8809812,2.8473282,-175.9923706,-250.1374054
6810,0.4884146,2.4348907,-4.8721757,-29.6870232,-140.1297760,-242.5267181
6820,0.5889706,3.0071020,-5.8729467,-67.4732819,-107.3282471,-227.0534363
6830,0.2130829,3.0669568,-6.2153158,-106.7328262,-76.4503784,-215.0000000
6840,-0.4860204,3.0094962,-5.7891502,-144.3816833,-48.6183205,-201.9084015
6850,-0.6727672,2.8514795,-5.1475072,-177.8320618,-27.9770985,-188.7404633
6860,-0.3830703,2.6312141,-4.2520804,-205.7709961,-10.7328243,-180.7099304
6870,-0.6105183,2.2002602,-3.5936785,-231.2290039,5.1984735,-175.5190887
6880,-1.3024391,1.5777708,-2.8490853,-250.1374054,20.7557259,-170.1145020
6890,-2.4181314,1.0103480,-1.9345051,-250.1374054,33.5648842,-162.9007568
6900,-3.3829896,0.5722113,-0.3495516,-250.1374054,39.7099228,-153.1374054
6910,-3.8594334,0.6105183,1.3096216,-250.1374054,41.1603050,-143.3206177
6920,-4.2472920,0.4572902,2.9616125,-250.1374054,42.1297722,-132.7251892
6930,-4.1419477,0.7733232,4.4723458,-250.1374054,46.1450386,-122.5343475
6940,-4.2592630,0.9169745,4.8985114,-250.1374054,51.2671738,-115.1374054
6950,-4.0294209,0.9744351,5.3558016,-250.1374054,52.0000000,-109.4045792
6960,-3.9408360,1.1755470,5.2959471,-250.1374054,55.0305328,-105.7633591
6970,-4.7141590,1.0558375,4.5920553,-250.1374054,60.9083977,-101.5343475
6980,-5.1475072,0.3830703,4.5082588,-250.1374054,59.8778610,-94.2290039
6990,-5.1475072,-0.0981618,4.9966736,-250.1374054,53.5496178,-88.0152664
7000,-5.3318601,-0.3591284,6.2871413,-250.1374054,36.3893127,-84.4580154
7010,-6.0788469,-0.9289455,7.3932571,-250.1374054,20.3435116,-77.6717529
7020,-7.5728211,-1.3694763,8.1115141,-250.1374054,9.7862597,-65.3511429
7030,-8.2575598,-1.4700323,8.8082228,-250.1374054,0.1832061,-47.4732819
7040,-8.6502066,-1.8602852,9.5959110,-250.1374054,-1.3816794,-28.3740463
7050,-9.0907373,-2.0015423,9.9095497,-250.1374054,0.9389313,-6.9923663
7060,-9.1194677,-2.2912393,9.7587166,-250.1374054,7.9312978,15.3053436
7070,-8.7148495,-2.4779861,9.7850523,-250.1374054,14.5725193,35.3358765
7080,-8.0444765,-2.6407909,10.3285332,-250.1374054,15.5954199,50.5572510
7090,-7.4483232,-2.9783716,10.3333216,-250.1374054,15.0687027,61.8091621
7100,-7.0868006,-3.3398943,10.0460186,-250.1374054,15.4198475,71.2824402
7110,-6.9934273,-4.0294209,10.3189564,-250.1374054,10.9389315,79.1984711
7120,-7.3166428,-4.6590929,11.2622671,-250.1374054,4.4427481,87.9542007
7130,-8.2120695,-5.3653784,11.9086981,-250.1374054,-0.9465649,97.6183243
7140,-9.2726955,-6.1961622,12.2869806,-250.1374054,-10.0000000,115.3969498
7150,-9.3924055,-7.0389171,12.8927097,-250.1374054,-20.8015270,136.4503784
7160,-9.2679071,-7.6877422,13.4050665,-250.1374054,-26.1832066,158.8931274
7170,-9.4642305,-8.5855637,13.6444855,-250.1374054,-29.4351139,181.4122162
7180,-9.8880024,-9.4450769,13.9892492,-250.1374054,-36.3129768,207.2900696
7190,-10.0843258,-10.2998028,14.1927547,-250.1374054,-42.4809151,236.8702240
7200,-10.0603838,-11.1569233,14.1185350,-250.1374054,-46.5343513,250.1297760
7210,-10.1346035,-12.1457233,14.4154148,-245.8473358,-52.8396950,250.1297760
7220,-10.2974091,-13.3978844,15.5430775,-229.9847260,-65.5190811,250.1297760
7230,-10.3476868,-14.7529955,17.1447906,-204.0305328,-82.8549652,250.1297760
7240,-9.3277617,-15.7489786,18.6627064,-168.1832123,-99.7251892,250.1297760
7250,-7.8242111,-16.6635590,19.4072990,-124.5725174,-115.6946564,250.1297760
7260,-6.4571290,-17.0705700,19.6126022,-79.1603088,-133.8396912,250.1297760
7270,-4.6471219,-17.1471844,19.6126022,-32.9541969,-148.2213745,250.1297760
7280,-2.0925217,-17.2190113,19.6126022,11.2442751,-152.8167877,250.1297760
7290,0.3280039,-16.5390606,19.6126022,54.6946564,-149.1145020,250.1297760
7300,2.4516499,-15.3228121,19.2684364,94.6412201,-147.2748108,250.1297760
7310,4.0246325,-13.6301203,18.3969517,131.1526642,-150.6564941,250.1297760
7320,4.8362627,-12.0427732,17.3099899,163.7557220,-165.1068726,250.1297760
7330,5.9256191,-10.4195127,16.1607780,195.0839691,-189.4732819,250.1297760
7340,7.4507174,-8.3988171,15.1815557,226.7938995,-219.2748108,250.1297760
7350,9.9263096,-6.0620875,14.1376886,250.1297760,-241.9084015,250.1297760
7360,12.5216112,-3.0478032,12.6748390,250.1297760,-250.1374054,250.1297760
7370,14.7649660,-0.1987177,10.6876621,250.1297760,-250.1374054,193.3053436
7380,16.2804890,2.2601149,8.9446917,250.1297760,-250.1374054,122.8473282
7390,16.8622761,3.8785870,7.3812861,250.1297760,-250.1374054,47.4961815
7400,15.9141769,4.3071470,6.3326311,250.1297760,-250.1374054,-26.1221371
7410,13.6564569,3.9815371,5.9998388,250.1297760,-250.1374054,-91.0839691
7420,11.3101511,3.3590479,6.6678176,250.1297760,-250.1374054,-140.7786255
7430,9.6270361,2.6814921,7.2424231,250.1297760,-250.1374054,-179.7328186
7440,8.7052727,2.4875629,7.1107426,250.1297760,-250.1374054,-211.2671814
7450,8.2455883,2.7317703,5.8106980,250.1297760,-250.1374054,-239.8015289
7460,8.4586716,2.9304879,3.8642218,250.1297760,-250.1374054,-250.1374054
7470,9.5001440,3.2728570,2.4061604,250.1297760,-250.1374054,-250.1374054
7480,10.2255831,3.2393384,1.3287752,250.1297760,-250.1374054,-250.1374054
7490,9.3325500,2.4779861,0.8212070,250.1297760,-250.1374054,-250.1374054
7500,7.8457589,1.7788827,1.5729824,229.7099304,-250.1374054,-250.1374054
7510,6.9814563,1.4053892,1.5562232,204.4427490,-250.1374054,-250.1374054
7520,6.1841912,1.2784972,0.6631905,181.9541931,-250.1374054,-250.1374054
7530,4.8027439,1.1396341,-0.7421987,154.8931274,-250.1374054,-250.1374054
7540,3.1387823,1.2641320,-2.2840567,123.2977066,-232.3435059,-250.1374054
7550,1.4077834,1.4556671,-3.2896163,90.0152664,-179.0305328,-250.1374054
7560,0.2609667,2.0518203,-4.2185616,57.9847336,-139.8778687,-250.1374054
7570,-0.8882443,2.5258698,-5.0277977,26.2137413,-110.0457993,-250.1374054
7580,-2.1930776,2.7413468,-5.5281835,-6.1145039,-89.4503784,-247.4427490
7590,-3.2010312,3.1890604,-5.8968887,-39.2366409,-77.4809189,-218.6793823
7600,-3.1603301,3.5912843,-5.5928264,-70.7022934,-73.0152664,-191.5343475
7610,-3.0885043,3.6224086,-4.9727316,-100.2595444,-67.8625946,-168.4732819
7620,-3.1028695,3.5936785,-4.2089849,-126.5801544,-60.0916023,-148.8320618
7630,-3.3829896,3.4643922,-3.4117200,-150.1984711,-49.4122124,-130.5877838
7640,-3.3087699,3.3782012,-2.5354466,-171.2061005,-34.5572510,-114.2824402
7650,-3.4308734,3.2034254,-1.9608412,-190.0458069,-17.4045811,-100.8702316
7660,-3.9552009,3.1076579,-1.3694763,-207.3816833,-2.5496182,-89.0457993
7670,-4.6183915,2.8012016,-0.5219333,-220.6412201,5.9618320,-76.4045792
7680,-4.8889351,2.7245877,0.4189832,-228.8015289,9.6946564,-62.3816795
7690,-4.5992379,2.7485294,1.2330076,-231.5725250,11.0458012,-49.6641235
7700,-4.0437860,2.8012016,1.6041069,-232.4580078,9.3816795,-40.4351158
7710,-3.8259149,2.9616125,2.0278785,-232.6259613,3.2900763,-34.0076332
7720,-3.3614421,2.9089401,2.4588325,-231.3969421,-4.5419846,-27.5038166
7730,-2.9783716,3.1076579,2.9903426,-229.7480927,-7.3129773,-22.5954189
7740,-2.5138988,3.4356618,3.1746953,-229.0915985,-10.3969469,-19.8778629
7750,-2.2792683,3.4883339,3.3901722,-229.8702240,-14.0076332,-18.6412220
7760,-2.4061604,3.4236910,3.5625539,-233.4045868,-16.1450386,-17.8015270
7770,-2.6455793,3.1148405,3.7684543,-239.7633514,-18.4885502,-16.0610695
7780,-2.9640064,2.5857246,4.1132174,-247.5419922,-23.0534344,-12.6717558
7790,-2.9687948,2.0590029,4.7428894,-250.1374054,-29.4656487,-8.2519083
7800,-3.2153964,1.5442522,5.3845320,-250.1374054,-31.2442741,-2.6793892
7810,-3.7277529,1.3000449,5.8490047,-250.1374054,-29.2595425,4.7099237
7820,-4.1443419,0.7996593,6.4068508,-250.1374054,-31.6183205,11.6564884
7830,-4.3430595,0.1723816,7.7859039,-250.1374054,-43.3358765,18.5954189
7840,-4.4938936,-0.4860204,9.8018112,-250.1374054,-54.9389305,26.5038166
7850,-4.3047528,-0.6823440,10.5535870,-250.1374054,-60.1221390,37.5572510
7860,-3.8211265,-1.1516051,11.2766323,-250.1374054,-59.3435097,48.0381660
7870,-3.2776453,-1.4341195,11.9086981,-250.1374054,-51.3664131,57.2900772
7880,-3.0382264,-1.7214222,11.9589767,-250.1374054,-38.7633591,65.1221390
7890,-3.1124463,-2.0805507,11.9709473,-246.6717529,-27.1908398,71.8396912
7900,-3.4811516,-2.5905130,11.9015160,-244.7862549,-18.9083977,78.3053436
7910,-3.9959023,-3.1555417,11.7626524,-244.0686951,-15.3435116,85.3587799
7920,-4.3813667,-3.9408360,12.6485033,-243.0686951,-23.7099228,94.1603088
7930,-4.5992379,-4.5513539,14.0227680,-236.3511505,-38.6641235,103.7480927
7940,-4.7500720,-4.9152708,15.1073351,-223.6259613,-49.3740463,116.6259537
7950,-5.0517397,-5.1211715,15.7106714,-208.9313049,-52.4732819,132.7786255
7960,-4.9918852,-5.3773494,15.8543224,-196.3587799,-48.2748108,150.0229034
7970,-5.1355362,-5.4850879,15.6172981,-188.1450348,-38.7175560,168.2671814
7980,-5.1977854,-5.6885943,15.4497042,-183.9084015,-24.2519093,189.0000000
7990,-5.3677726,-5.8801293,15.2126799,-182.8549652,-8.0381680,210.1221313
8000,-5.3127065,-6.1482787,15.0331154,-183.7480927,6.3129773,231.5343475
8010,-5.0708933,-6.5935979,15.0355101,-185.4809113,21.0992374,250.1297760
8020,-4.7381010,-6.9479380,14.8272152,-188.3893127,37.5267181,250.1297760
8030,-4.4651632,-7.4291697,14.6859579,-191.3969421,48.2977104,250.1297760
8040,-4.0701222,-7.9151902,14.6404686,-193.9847260,52.6183205,250.1297760
8050,-3.6152260,-8.2815018,14.7601776,-194.9618378,51.7557259,250.1297760
8060,-3.0837159,-8.6885138,15.2461987,-194.1068726,47.0687027,250.1297760
8070,-2.4684093,-9.2104464,16.0602226,-187.6717529,40.4427490,250.1297760
8080,-1.9416877,-9.6030941,17.2860470,-173.9389343,33.9847336,250.1297760
8090,-1.7956421,-9.7419567,18.5669384,-152.3740387,25.9847336,250.1297760
8100,-1.8028246,-9.8927908,19.6126022,-122.9160309,15.1908398,250.1297760
8110,-1.5873476,-9.9215212,19.6126022,-86.7938919,4.9465647,250.1297760
8120,-1.5753766,-10.0747490,19.6126022,-47.2595406,2.3282442,250.1297760
8130,-1.9608412,-9.9765873,19.6126022,-4.1679387,-10.5572519,250.1297760
8140,-1.6831152,-9.7850523,19.6126022,40.7480927,-35.2213745,250.1297760
8150,-1.3287752,-9.4857788,19.4671535,83.2442780,-66.5801544,250.1297760
8160,-0.1963235,-9.0715837,17.5230732,116.0610657,-95.1984711,250.1297760
8170,0.8259954,-8.4131813,15.6699696,137.7709961,-111.7633591,250.1297760
8180,0.9121862,-7.7212610,14.3627424,150.4427490,-126.1832047,250.1297760
8190,1.2808913,-7.0125809,13.8767223,163.1984711,-146.8320618,250.1297760
8200,1.7046629,-6.4691000,13.6109667,178.4122162,-169.9236603,250.1297760
8210,2.3941894,-6.0237808,13.1752243,196.6030579,-193.9236603,250.1297760
8220,3.1459649,-5.4156566,12.6293497,216.6259613,-218.4198456,243.8778687
8230,4.2568688,-4.8099265,11.6668854,237.5190887,-242.9465637,225.5648804
8240,5.5066357,-4.0749106,10.7211800,250.1297760,-250.1374054,204.1832123
8250,6.5672617,-3.0358322,9.7874460,250.1297760,-250.1374054,178.8015289
8260,7.4363523,-1.9440818,8.7220325,250.1297760,-250.1374054,149.3893127
8270,7.7188668,-1.1180865,7.8481531,250.1297760,-250.1374054,118.2442780
8280,7.5249376,-0.3663110,6.9431496,250.1297760,-250.1374054,88.8778610
8290,7.4531116,0.1556223,5.9351954,250.1297760,-250.1374054,62.0687027
8300,7.4195933,0.7469871,4.9966736,250.1297760,-250.1374054,39.3587799
8310,7.7835097,1.2784972,4.1634955,250.1297760,-250.1374054,18.0381680
8320,8.0660238,2.0925217,3.3949606,250.1297760,-250.1374054,-3.9236641
8330,8.1139078,2.7245877,2.3846128,250.1297760,-250.1374054,-26.4427490
8340,8.0420828,3.2513094,1.3551112,241.4580078,-250.1374054,-46.4198456
8350,8.6717539,3.8474624,0.8259954,223.1603088,-250.1374054,-66.0152664
8360,9.1003141,4.2712340,0.6727672,206.1603088,-250.1374054,-87.7480927
8370,9.3373384,4.5417776,0.5769997,191.1374054,-250.1374054,-111.8396912
8380,9.3253679,4.6231799,0.2968795,177.3053436,-250.1374054,-134.5648804
8390,9.2128410,4.6375451,0.1963235,164.4351196,-250.1374054,-154.7251892
8400,8.9494801,4.9823084,-0.0574605,152.4503784,-250.1374054,-172.0839691
8410,8.6142941,4.5513539,-0.8523315,138.6870270,-250.1374054,-191.3435059
8420,8.6382351,4.3861551,-0.6200951,126.0076370,-250.1374054,-208.0992432
8430,8.3724804,4.6471219,-1.0414724,112.8244247,-250.1374054,-223.7251892
8440,8.3437500,4.5202298,-1.6759326,94.6106873,-250.1374054,-238.9465637
8450,8.2479830,4.4005203,-2.3702476,69.5801544,-250.1374054,-250.1374054
8460,8.0540533,4.2425036,-3.0262554,38.0534363,-250.1374054,-250.1374054
8470,7.5728211,3.9432299,-3.1172347,4.0610685,-232.8015289,-250.1374054
8480,6.6893654,3.5936785,-2.7054341,-26.8396950,-184.2061005,-250.1374054
8490,5.7245069,3.1244173,-2.4372849,-52.0916023,-133.1145020,-250.1374054
8500,4.9942794,3.0334380,-2.5569944,-73.4580154,-87.4732819,-250.1374054
8510,3.9839313,2.9448531,-3.1507533,-94.8931274,-49.7099228,-250.1374054
8520,2.4564383,2.6144550,-3.7445123,-116.4122162,-21.6183205,-250.1374054
8530,1.2114599,2.5330524,-4.3454537,-138.8625946,-10.3816795,-250.1374054
8540,-0.3710994,1.9752063,-4.3526363,-160.5954132,-9.7709923,-250.1374054
8550,-1.8554969,1.4221486,-3.4332676,-178.4427490,-21.3664131,-250.1374054
8560,-3.0094962,1.2904681,-2.2361729,-190.1374054,-39.9389305,-250.1374054
8570,-3.9264708,1.4628497,-1.3694763,-196.8931274,-65.8702316,-250.1374054
8580,-4.2113791,1.8124014,-0.5291159,-202.2824402,-99.3358765,-233.8091583
8590,-4.4938936,1.7764885,-0.0526722,-209.9160309,-123.8015289,-216.3969421
8600,-4.7907729,1.6328372,0.7062859,-221.6335907,-135.6717529,-196.6488495
8610,-4.4100971,1.7262106,1.5179161,-238.0610657,-129.1297760,-175.7099304
8620,-4.4316444,1.7238164,2.3534882,-250.1374054,-102.4656525,-156.5877838
8630,-4.9631548,1.6136837,3.4165084,-250.1374054,-64.6564865,-138.9618378
8640,-5.9567432,1.2880739,4.3215117,-250.1374054,-27.6030540,-118.9694672
8650,-7.0748301,1.0773853,4.9344244,-250.1374054,2.8473282,-97.0610657
8660,-8.1665802,0.8619082,5.8609757,-250.1374054,20.3969460,-73.2824402
8670,-8.5472565,0.6607963,6.5648675,-250.1374054,21.2442741,-48.4656487
8680,-8.2407999,0.5793939,6.8306227,-250.1374054,13.9236641,-25.1526718
8690,-7.7523856,0.2106887,6.5002246,-250.1374054,7.5572519,-4.6793895
8700,-7.0604649,-0.3256098,6.7875271,-250.1374054,-5.0152674,11.0229006
8710,-6.2919297,-0.8283895,8.0277176,-250.1374054,-19.4198475,24.3282452
8720,-5.4970589,-1.3479286,8.9877872,-250.1374054,-21.3587780,35.4580154
8730,-5.3079181,-1.7166338,9.2798786,-250.1374054,-12.2442751,45.5725174
8740,-5.5928264,-1.9967541,9.4833841,-250.1374054,-3.2366412,56.8015251
8750,-5.8873119,-2.4253139,9.9334917,-250.1374054,1.9236641,69.7557220
8760,-6.2392578,-2.8155668,10.3764172,-250.1374054,6.6106873,85.7633591
8770,-6.8186517,-3.1675127,10.8696203,-250.1374054,10.4274807,104.1984711
8780,-7.2208753,-3.5362179,11.0874910,-250.1374054,18.6259537,124.3282471
8790,-7.3477674,-4.3191175,10.6349897,-250.1374054,29.1908398,146.8244324
8800,-7.0868006,-5.2720051,10.4362717,-250.1374054,41.3053436,167.4198456
8810,-6.7683735,-6.1961622,10.5942879,-250.1374054,53.2900772,185.1526642
8820,-6.8066807,-7.2615767,10.9127159,-250.1374054,61.7557259,200.0763397
8830,-7.2328463,-8.1091194,11.8129311,-250.1374054,63.0076332,213.9618378
8840,-7.6781654,-9.0069408,12.7514534,-250.1374054,64.5954208,228.0534363
8850,-8.0085640,-9.8520899,13.7689838,-250.1374054,66.6488571,242.6946564
8860,-8.4036045,-11.0036945,15.0235386,-250.1374054,63.7022896,250.1297760
8870,-8.6693602,-11.7937775,16.6946831,-250.1374054,54.8091621,250.1297760
8880,-8.6262646,-12.4186611,18.3825874,-250.1374054,38.8396950,250.1297760
8890,-8.2024927,-12.6580801,19.6126022,-250.1374054,17.1297703,250.1297760
8900,-7.3597383,-12.9286232,19.6126022,-212.7938995,-12.9236641,250.1297760
8910,-6.0477223,-12.6963863,19.6126022,-151.0229034,-48.7862587,250.1297760
8920,-4.7716198,-12.3372583,19.6126022,-82.9465637,-86.6717529,250.1297760
8930,-4.1587071,-11.7506819,19.6126022,-13.4961834,-129.2137451,250.1297760
8940,-3.0118904,-10.7594872,19.6126022,50.0916023,-161.9084015,250.1297760
8950,-1.9153515,-9.7611103,19.1463337,99.8549652,-175.8931274,250.1297760
8960,-1.6280488,-8.5735922,17.0562057,134.3435059,-181.9084015,250.1297760
8970,-1.4436963,-7.8146343,15.4066095,156.8091583,-190.0305328,250.1297760
8980,-1.4269369,-7.2663651,14.3699255,174.6106873,-201.1450348,250.1297760
8990,-0.9289455,-6.6558466,13.7737722,190.8931274,-216.8854980,250.1297760
9000,-0.2394189,-6.2727766,13.0100250,206.0992432,-228.5419922,250.1297760
9010,0.6799498,-5.8274570,11.9924946,221.1908417,-239.7328186,250.1297760
9020,1.6376256,-5.2959471,10.8456783,234.2366486,-250.1374054,250.1297760
9030,2.3582766,-4.4867110,9.4139528,245.1526642,-250.1374054,250.1297760
9040,2.9400647,-3.6655040,7.9846220,250.1297760,-250.1374054,240.3358765
9050,3.7971845,-2.7461352,6.3134775,250.1297760,-250.1374054,222.6641235
9060,5.1379304,-1.2808913,5.0301919,250.1297760,-250.1374054,201.6564941
9070,6.1387019,0.0191535,4.2257442,250.1297760,-250.1374054,177.2290039
9080,7.3908629,1.3910241,3.5266411,243.2366486,-250.1374054,150.5496216
9090,8.7316093,2.8897867,3.3877780,232.4503784,-250.1374054,122.1679382
9100,10.1944590,4.1347651,3.4332676,221.3358765,-250.1374054,90.8091583
9110,11.4657736,5.3222833,3.4380560,209.1679382,-250.1374054,55.7175560
9120,12.4617558,6.1387019,3.2584918,195.6564941,-250.1374054,18.4503822
9130,13.0770626,6.4044566,2.9472473,179.0229034,-250.1374054,-18.1374054
9140,12.9693241,6.3853035,2.9041519,160.9847260,-250.1374054,-50.8244286
9150,13.1297350,6.4307928,3.0621684,144.9236603,-250.1374054,-82.5190811
9160,13.1105814,6.2679882,3.3327117,133.9847260,-250.1374054,-113.3206100
9170,12.8184900,5.8825235,3.4356618,126.1984711,-250.1374054,-141.8702240
9180,11.9877062,5.4970589,3.6678982,122.9083939,-250.1374054,-169.1297760
9190,11.2311430,5.2049680,3.6176202,121.3435135,-250.1374054,-191.4580078
9200,10.2902260,4.4053087,3.1579359,121.0000000,-250.1374054,-211.7099304
9210,9.6773138,4.2305326,3.2800395,121.8015289,-244.5343475,-225.8778687
9220,9.3014259,4.2544746,2.1858950,119.3664093,-219.9160309,-236.7862549
9230,8.8728657,4.1180058,1.0989330,109.4198456,-187.2061005,-245.5496216
9240,8.3796635,4.0940638,0.0430954,93.2213745,-151.2519073,-250.1374054
9250,7.4052281,3.9073172,-0.8666966,73.2900772,-118.2442780,-250.1374054
9260,6.9383612,3.9647777,-1.3838415,52.2748108,-90.0381699,-250.1374054
9270,6.5385313,4.2377152,-1.8866212,33.0534363,-66.0610657,-250.1374054
9280,5.9375896,4.2544746,-2.4444675,14.7175570,-49.6488533,-250.1374054
9290,5.1403246,4.2808108,-2.9113343,-3.0992367,-38.8854980,-250.1374054
9300,4.5106530,4.0485744,-3.2728570,-21.7404575,-29.7633591,-250.1374054
9310,4.1036406,3.9360476,-3.4045374,-40.0916023,-23.4809170,-250.1374054
9320,3.6631098,3.7588775,-3.2776453,-58.3740463,-23.5648861,-250.1374054
9330,2.4013720,3.2896163,-2.9448531,-75.1145020,-26.8549614,-250.1374054
9340,0.6153067,2.8059900,-2.6336083,-90.9770966,-31.8091602,-250.1374054
9350,-1.1803354,2.6336083,-2.0422437,-104.3358765,-41.8015251,-250.1374054
9360,-2.4684093,2.6527619,-1.5849534,-115.5114517,-56.7786255,-250.1374054
9370,-3.5314295,2.5713594,-1.1803354,-125.8015289,-74.2748108,-245.1374054
9380,-4.4531922,2.7150109,-0.9265513,-136.1603088,-92.4580154,-224.5572510
9390,-4.9583664,2.8490853,-0.4405309,-146.5496216,-108.0839691,-201.0534363
9400,-4.9823084,3.0286496,0.0933734,-156.5419922,-119.6488571,-178.2900696
9410,-4.6159973,3.2584918,0.5410868,-166.4809113,-125.0839691,-158.4045868
9420,-3.7732425,3.1315999,1.0318956,-176.2137451,-125.1679382,-141.6183167
9430,-2.9759774,3.1339941,1.3934183,-186.9541931,-116.5572510,-129.5114441
9440,-2.7605004,2.8227494,1.7860653,-199.9541931,-99.6946564,-120.6259537
9450,-2.2696917,2.5258698,2.1260402,-213.7099304,-77.1221390,-113.2595444
9460,-2.7557120,2.1619530,2.8921809,-227.3816833,-48.6870232,-107.2137375
9470,-3.9001346,1.6328372,3.6104376,-238.8091583,-20.6488552,-99.1984711
9480,-4.8482337,1.3168042,3.9959023,-246.6793823,-3.4732823,-87.0610657
9490,-5.8226686,0.6248835,4.8410511,-250.1374054,1.1984733,-73.8702316
9500,-6.1554613,0.0622489,5.7364779,-249.4961853,-0.5877863,-58.7328262
9510,-6.3015065,-0.1149211,6.4212160,-245.8931274,-9.6564884,-43.3740463
9520,-6.4523406,-0.1316804,7.0125809,-240.3893127,-26.1908398,-28.3282452
9530,-5.8059096,0.0550664,7.6590118,-235.0839691,-45.1374054,-15.3206110
9540,-5.2313042,0.0430954,8.0372944,-229.0305328,-52.0458031,-3.5801528
9550,-4.5250182,-0.0287303,7.7882981,-227.0000000,-46.4198456,7.8396945
9560,-4.2233500,-0.1340746,7.2256637,-233.3053436,-36.3435097,17.8854961
9570,-4.1227942,-0.4501076,7.1322904,-243.2519073,-26.5114498,27.2519093
9580,-4.4555864,-1.0869620,7.4315639,-250.1374054,-21.2519093,37.0687027
9590,-4.9655490,-1.5634058,7.8170285,-250.1374054,-26.3206100,47.2137413
9600,-5.0613165,-1.9321109,8.3772688,-250.1374054,-39.0000000,57.7786255
9610,-4.7979555,-2.5426292,9.0620070,-250.1374054,-49.3816795,67.9083939
9620,-4.5417776,-3.2345500,9.8018112,-250.1374054,-56.4580154,77.4351120
9630,-4.5537481,-4.0605454,10.8504667,-250.1374054,-58.1145020,88.3435135
9640,-5.0254035,-4.7309184,11.5304165,-250.1374054,-57.6030540,101.7022934
9650,-5.3294659,-5.4180508,12.3564119,-250.1374054,-58.0228996,118.3969498
9660,-5.5736732,-5.9447722,13.0483322,-250.1374054,-55.6564903,138.6412201
9670,-5.5904322,-6.7133074,13.5942078,-250.1374054,-50.5572510,160.9923706
9680,-5.4515696,-7.6063399,14.3028879,-250.1374054,-42.0534363,184.7099304
9690,-5.4491754,-8.5304966,15.4401274,-250.1374054,-31.9541988,209.2061005
9700,-5.1929970,-9.3876171,16.3762550,-250.1374054,-15.2290077,233.8167877
9710,-4.9009056,-10.4434547,17.3578739,-250.1374054,1.8320611,250.1297760
9720,-4.6136031,-11.2957859,18.1934452,-250.1374054,17.1603050,250.1297760
9730,-4.5944495,-11.9230633,18.6770725,-250.1374054,28.2213745,250.1297760
9740,-4.2185616,-11.8943329,19.0649300,-229.1832123,21.2671757,250.1297760
9750,-3.2201848,-11.8703909,19.2851963,-200.7557220,0.4351145,250.1297760
9760,-2.3750360,-11.8153248,19.6126022,-168.2366486,-25.9160309,250.1297760
9770,-2.3463056,-11.8823624,19.6126022,-130.7251892,-47.2595406,250.1297760
9780,-2.5857246,-11.9924946,19.6126022,-91.2442780,-67.5038147,250.1297760
9790,-1.5801650,-11.5519638,19.6126022,-46.5419846,-82.6335907,250.1297760
9800,-0.1939293,-10.9414454,19.6126022,-1.5190840,-97.6870193,250.1297760
9810,1.2114599,-10.2614956,18.8494530,36.5114517,-110.9770966,250.1297760
9820,2.1475880,-9.6629486,17.5709572,64.2977066,-117.5114517,250.1297760
9830,2.7700772,-8.7076674,16.6396160,85.5114517,-116.2748108,250.1297760
9840,3.5338237,-7.7404146,15.8567171,101.1068726,-114.7328262,250.1297760
9850,3.7349355,-7.1179252,15.2773228,112.6870193,-112.4809189,250.1297760
9860,3.5050933,-6.7276726,15.1456423,124.7480927,-110.7938919,250.1297760
9870,3.8881636,-6.1339135,15.0618458,139.3969421,-115.4198456,250.1297760
9880,4.4388270,-5.4084740,14.8152447,154.4732819,-124.5343475,248.6030579
9890,5.1235652,-4.8745699,15.1456423,171.0381622,-134.8015289,235.6259613
9900,6.6462698,-4.3023586,15.6220865,189.7862549,-129.7862549,218.5114441
9910,8.0061693,-3.7684543,15.8447456,210.2442780,-107.5114517,197.7404633
9920,8.7268209,-3.1579359,15.3778791,231.2137451,-88.1221390,173.9923706
9930,9.3110027,-2.4540441,14.6189203,250.1297760,-79.4427490,146.6564941
9940,8.8201942,-2.3678534,13.4314032,250.1297760,-77.1755753,118.0687027
9950,7.4890246,-2.6120608,12.7059631,250.1297760,-86.1145020,95.1755753
9960,6.3565731,-2.6144550,11.5687237,250.1297760,-115.4656525,77.4580154
9970,5.3151007,-2.6934631,9.6390066,250.1297760,-159.4580078,60.3206100
9980,4.4388270,-2.1404054,7.2543941,250.1297760,-213.5190887,45.5725174
9990,4.9655490,-0.8307837,4.5345950,250.1297760,-250.1374054,28.7709923
