timestamp,acclX,acclY,acclZ,gyroX,gyroY,gyroZ
0,3.3758070,0.3495516,9.2631187,2.1984732,-8.0687027,-4.3053436
10,3.9144998,0.0598547,9.1960821,-0.5496183,-19.3969460,-5.1297708
20,3.8139439,0.0287303,9.3062143,-1.6259542,-14.8931293,-3.8931298
30,3.7373297,0.0119709,9.3205795,-2.3435113,-10.9618320,-2.3206108
40,3.7277529,-0.1053443,9.3133974,-2.5801528,-7.4885497,-0.1374046
50,3.7205703,0.0023942,9.2631187,-2.4351146,-4.6793895,2.1068702
60,3.7516949,0.0814024,9.2631187,-2.6183207,-2.9083970,4.0992365
70,3.7588775,0.1053443,9.1721401,-2.4274809,-2.1526718,5.7328243
80,3.8330972,0.1556223,9.1745338,-2.5343511,-2.6717558,6.8396945
90,3.9168940,0.2609667,9.0141230,-2.4580152,-3.4351146,7.3358779
100,4.0485744,0.3687052,8.9566631,-2.9160306,-4.7786260,7.2442746
110,4.1443419,0.4548960,9.0045462,-3.7175572,-5.8015265,6.0839696
120,4.1634955,0.5051740,8.8800488,-4.3587785,-7.1450381,4.8167939
130,4.1802549,0.4309541,9.1242561,-5.2137403,-8.4503813,3.8702290
140,4.0174499,0.5003856,9.1098909,-5.6946564,-9.6870232,3.0839694
150,3.4883339,0.2202654,8.3892403,-10.1221371,-26.0000000,6.8778625
160,3.6008608,0.1268920,8.2767134,-13.3129768,-30.3969460,8.3587790
170,3.5912843,0.0909792,8.3485384,-17.1755733,-32.9465637,9.7175570
180,3.6702924,0.0885850,8.5281029,-21.0992374,-33.6870232,11.0000000
190,3.5050933,-0.0215477,8.7004843,-25.0152664,-30.9923668,12.6793890
200,3.3686244,-0.0957676,9.0236998,-28.6488552,-25.4427490,15.9618320
210,3.0980811,-0.2322364,9.3780403,-31.5038166,-18.8091602,19.3740463
220,2.8107784,-0.2657550,9.7730818,-34.0992355,-9.1755724,22.9618320
230,2.2936335,-0.3926471,10.1633339,-35.5572510,-1.7633588,28.2748089
240,1.8339491,-0.5650287,10.5392218,-35.4274826,6.7480917,35.5572510
250,1.1516051,-0.3878587,10.7546988,-34.6488533,12.6793890,44.4122124
260,0.4165890,-0.1963235,11.0731258,-34.2290077,14.6030531,55.1603050
270,-0.1244979,-0.0095768,11.6357603,-33.4351158,14.4122133,68.4809189
280,-0.4692611,-0.0095768,12.1145983,-31.5954189,10.1068707,82.6335907
290,-0.6033357,-0.1125269,12.5383701,-29.0839691,1.4885496,96.3893127
300,-0.5722113,-0.4644727,13.4936514,-24.0152664,-13.9770994,107.6259537
310,-0.5602403,-0.9073978,14.5542774,-13.5419846,-33.5038185,117.3511429
320,-0.3663110,-1.1779412,15.6532106,2.8702290,-55.4045792,126.9236679
330,-0.1029501,-1.3263810,16.3882275,23.6488552,-74.3358765,135.5801544
340,0.2154770,-1.3886299,16.6611652,44.3587799,-83.9160309,144.1984711
350,0.3687052,-1.5538290,16.5438499,59.2977104,-82.8778610,154.3740387
360,0.8499373,-2.0829449,16.7425671,68.0839691,-70.4885483,167.5648804
370,1.4101776,-2.8730273,17.0705700,75.7099228,-52.7709923,181.6259613
380,2.2026544,-3.3111639,17.6140518,87.1297684,-40.0458031,194.3969421
390,3.4428444,-3.8426740,18.0545826,102.8778610,-37.2900772,202.5572510
400,4.6159973,-4.1347651,17.8678360,124.6564865,-46.3664131,206.0915985
410,6.9120250,-3.8618276,17.3363266,146.6641235,-61.0839691,203.3893127
420,9.1122847,-3.5170643,16.1559906,164.3816833,-75.5038147,190.6106873
430,10.9007444,-3.1914546,15.3395720,175.6335907,-90.7251892,172.2366486
440,13.1177645,-2.6575503,14.6356802,183.1832123,-102.2595444,147.4122162
450,15.6843348,-2.0901275,14.4130201,189.3282471,-108.9618301,115.5725174
460,17.3195667,-1.9368993,13.9653072,194.9770966,-112.5267181,75.9389343
470,18.0354290,-1.7740943,13.2901459,199.0381622,-115.0534363,34.5343513
480,18.0186691,-1.8435259,12.4713326,202.4274750,-115.7404556,-4.7099237
490,17.4129391,-2.4444675,11.5543585,205.4732819,-114.3435135,-41.2442741
500,16.6611652,-3.2201848,10.9677820,209.2442780,-115.8473282,-70.9236679
510,16.1224709,-3.8019729,10.5320396,214.3587799,-116.5801544,-96.2671738
520,15.7226419,-4.1802549,10.2854376,221.0610657,-112.3129807,-117.1832047
530,15.6915178,-4.2496862,9.3971939,227.0381622,-108.3740463,-135.5038147
540,15.9860029,-4.6471219,8.6813307,236.5725250,-93.1297684,-156.9236603
550,15.3922443,-4.3334827,6.9192076,237.9618378,-77.1755753,-176.0839691
560,14.7218714,-4.6351509,5.5904322,232.5190887,-59.8320618,-191.4885559
570,13.6732159,-4.9416070,4.4986820,225.6564941,-46.4961815,-204.1908417
580,12.5144281,-5.0613165,3.6224086,219.1984711,-36.8625946,-212.9618378
590,11.2407198,-5.0828643,2.5761478,212.7480927,-28.7022896,-217.9389343
600,10.2160063,-4.8195033,1.4341195,204.1221313,-22.1221371,-220.1145020
610,9.3756456,-4.4172797,0.5003856,192.7175598,-22.0000000,-220.1984711
620,8.5735922,-3.9719603,-0.3232156,178.9389343,-23.1526718,-220.1603088
630,7.6494355,-3.5386121,-1.0007712,164.4427490,-26.3129768,-219.5954132
640,6.6247220,-3.1770895,-1.3766589,150.4656525,-35.1297722,-217.3893127
650,5.6335278,-2.7940190,-1.7309990,138.3129730,-44.6335869,-212.6488495
660,4.7285242,-2.2457497,-2.0709739,126.3129807,-53.8931313,-207.2900696
670,3.7828193,-1.8459201,-2.5641768,114.1526718,-68.1526718,-201.4045868
680,2.9927368,-1.5346755,-2.8155668,103.8167953,-89.5343475,-194.7709961
690,2.1954718,-1.2617378,-3.3398943,92.0763321,-113.7480927,-187.3282471
700,1.3455344,-0.9552816,-4.2712340,78.7175598,-140.6183167,-180.2290039
710,0.3399749,-0.6823440,-5.4707227,59.1526718,-170.6412201,-171.5343475
720,-0.2777260,-0.4309541,-6.3517847,32.2061081,-199.8702240,-161.4274750
730,-0.8259954,-0.1532281,-6.2919297,1.4045801,-225.4885559,-148.6793823
740,-1.3910241,0.0670373,-5.7963328,-28.3816795,-246.2213745,-134.6412201
750,-1.5490406,0.2729376,-5.2360926,-55.8625946,-250.1374054,-119.2824402
760,-1.8722562,0.4381367,-4.3478479,-80.1526718,-250.1374054,-101.9083939
770,-1.9967541,0.5339043,-3.4212968,-100.8778610,-250.1374054,-82.8015289
780,-2.0374553,0.6200951,-2.6623387,-118.6793900,-250.1374054,-62.7022896
790,-2.0446377,0.7421987,-2.0470319,-134.1832123,-250.1374054,-42.7404594
800,-1.9416877,0.9576758,-1.5346755,-149.7862549,-236.2061005,-24.0687027
810,-2.1380112,0.9361281,-0.9073978,-163.8854980,-214.6946564,-5.4122138
820,-2.4827745,1.1851238,-0.4046180,-178.6793823,-190.6183167,14.6335878
830,-2.4013720,1.3934183,0.5219333,-192.3435059,-163.5954132,33.8625946
840,-2.3606708,1.4149660,1.4029950,-206.1068726,-133.9007568,51.0839691
850,-2.2457497,1.3838415,2.5426292,-218.2671814,-105.6564865,65.7022934
860,-2.2744799,0.9672526,3.9839313,-227.0839691,-78.7862625,79.3587799
870,-2.2481439,0.5386927,5.2624283,-230.9465637,-55.4656487,93.1068726
880,-2.4564383,0.3016679,6.5098009,-230.4427490,-35.8854980,106.7175598
890,-2.7796540,0.4596844,7.6087341,-227.0305328,-21.8931293,122.8854980
900,-2.4109488,0.9744351,8.7818871,-223.0305328,-8.3206110,138.3435059
910,-1.6448082,1.1970947,9.9670105,-219.8244324,8.1374044,150.6717529
920,-1.0103480,1.2641320,11.1042509,-217.5572510,25.2061062,158.9618378
930,-0.2992737,0.9433106,12.4785156,-215.0152740,39.8320618,166.0381622
940,0.2609667,-0.0957676,13.9246063,-209.6030579,45.7480927,174.9160309
950,1.3263810,-0.7374104,15.6220865,-197.7862549,43.9160309,183.5419922
960,2.4085546,-0.8762733,17.3674507,-177.4503784,37.4961815,190.2977142
970,3.6032550,-0.8355721,18.3299141,-150.7022858,32.7557259,194.6946564
980,4.5944495,-0.6081241,18.2700596,-124.1984711,32.8091621,197.6870270
990,5.5114241,-0.1651991,17.2357693,-103.3053436,41.1450386,198.9084015
1000,6.2799587,0.2202654,15.7896795,-93.3511429,58.4503822,199.3587799
1010,6.9982157,0.3232156,14.7817259,-91.6564865,79.4198456,199.9160309
1020,7.8768835,0.3423691,14.5854025,-92.9007645,97.7862625,201.1755676
1030,8.9877872,0.3232156,14.4178085,-92.2366409,110.5725174,200.0305328
1040,10.0101061,0.3758878,14.6596222,-88.6564865,111.9007645,194.0458069
1050,11.0132713,0.6392486,14.9852314,-80.1221390,103.5114517,183.3816833
1060,11.7746239,1.0055596,14.7386303,-68.9465637,93.3206100,168.1068726
1070,11.9805241,1.4221486,14.0084028,-60.2824440,85.2137375,148.7786255
1080,11.6285782,1.5083394,13.4266148,-56.5038185,74.9694672,129.0915985
1090,10.7355452,1.3958124,13.0148134,-53.1450386,62.1221390,111.6946564
1100,9.6773138,1.1803354,12.7682123,-48.9007645,45.9465637,99.3206100
1110,8.8632889,1.0271072,12.7849712,-42.2137413,27.3664131,91.0992355
1120,8.5233145,0.9672526,12.8017311,-34.2442741,12.8015270,87.0000000
1130,8.5855637,1.1228749,12.5790710,-27.0839691,4.1526718,83.0381699
1140,8.5688038,1.0965388,12.4210548,-22.6564884,2.5496182,78.9312973
1150,8.4682484,1.0534433,12.3731709,-19.9694653,5.0687022,73.6946564
1160,8.0133524,0.9504932,12.5623121,-15.8702288,8.5419846,68.6488571
1170,5.9160423,0.5219333,11.7027979,10.2595415,-4.4351144,62.8320618
1180,5.5832496,0.5506636,11.5423870,12.5648851,-7.4045801,64.0687027
1190,5.0301919,0.4548960,11.8560257,14.7709923,-11.8625956,66.9312973
1200,4.8242917,0.6057299,12.4210548,18.2213745,-16.4503822,71.8396912
1210,4.8171091,0.8236012,13.2638092,22.9389305,-18.8091602,76.1832047
1220,4.9296360,0.9457048,13.9222116,28.7480907,-17.8854961,79.2671738
1230,5.1594782,0.8762733,14.6045561,35.4427490,-13.5496187,80.6717529
1240,5.0541339,0.8523315,15.1743727,43.3816795,-10.5725193,81.1297684
1250,4.7740140,0.5339043,15.5837793,51.8091621,-11.7786255,81.1374054
1260,4.5537481,0.0766141,16.0769825,61.9083977,-17.5572510,81.8320618
1270,4.3837609,-0.2944853,16.6779232,73.4122162,-24.7404575,83.5877838
1280,4.2736282,-0.6847382,17.3578739,87.6106873,-30.8702297,86.5114517
1290,4.2377152,-1.0989330,17.7289734,103.5572510,-35.0228996,91.0457993
1300,4.5082588,-1.8626794,17.6834831,118.1679382,-33.7709923,96.3282471
1310,5.1882086,-2.6814921,17.7361546,131.8167877,-29.3816795,104.4122162
1320,6.4954362,-3.2441268,18.2963963,146.3969421,-21.9847336,111.9694672
1330,8.4036045,-3.3973548,18.5382080,166.4274750,-12.3282442,115.0076370
1340,10.5320396,-3.7828193,18.0809193,188.4732819,-1.8091604,111.0076370
1350,12.2271252,-4.1036406,17.4249115,208.5954132,5.7022901,102.0381699
1360,13.9557304,-4.3406653,16.2469692,228.9084015,9.6106873,88.3435135
1370,15.2868996,-4.2736282,14.6715927,248.1984711,7.1297708,69.7175598
1380,16.0506458,-4.5944495,13.3907013,250.1297760,-0.8625954,47.6946564
1390,16.3499203,-3.9599893,10.7546988,250.1297760,-14.0916033,22.3206100
1400,17.3961811,-3.5888901,8.6166878,250.1297760,-21.6106873,-4.3206105
1410,17.9492378,-2.9592183,7.4219875,250.1297760,-29.9465656,-36.9236641
1420,18.2963963,-2.3989778,6.0525107,250.1297760,-31.0687027,-71.4961853
1430,17.8055878,-2.4971397,5.3127065,241.2595367,-33.9923668,-105.7862625
1440,16.5677910,-2.7916248,4.5776901,228.3587799,-36.5343513,-134.5725250
1450,15.0522690,-3.1483591,3.7947903,217.1755676,-37.2977104,-154.9160309
1460,13.6564569,-3.1723011,3.0142846,204.6564941,-34.1984749,-169.0915985
1470,12.7610302,-3.0047078,2.2720859,191.7938995,-32.1755714,-178.8931274
1480,12.0858688,-2.5929072,1.6902977,177.5648804,-31.2824421,-186.9770966
1490,11.6333666,-1.9608412,1.0055596,162.4198456,-28.4809170,-193.7709961
1500,10.6206245,-1.1803354,0.4548960,145.5343475,-25.2900772,-198.6183167
1510,9.9813757,-0.7134684,0.1484398,128.8167877,-26.4961834,-202.1603088
1520,9.3038206,-0.6272776,-0.0478838,113.5877838,-28.6641216,-205.7862549
1530,8.5304966,-0.5410868,-0.1412572,99.6259537,-34.7099228,-208.4885559
1540,7.8888540,-0.5243275,-0.4764437,90.1755753,-40.6793900,-212.5572510
1550,7.0149751,-0.7038917,-1.0558375,77.0916061,-43.9160309,-216.3740387
1560,5.7197185,-0.8331779,-1.8315549,62.8167953,-46.7404594,-218.0686951
1570,4.2305326,-1.0941446,-2.4468615,49.0305328,-55.2671738,-217.4045868
1580,2.4229198,-1.2737088,-3.2249732,33.2824440,-70.8931274,-213.7557220
1590,0.4979914,-1.3982066,-4.1730723,13.3893127,-89.3129807,-205.3664093
1600,-1.0079538,-1.4029950,-4.4340386,-9.0839691,-111.0992355,-193.0839691
1610,-2.0805507,-1.3287752,-4.1084290,-29.8015270,-137.2748108,-180.0534363
1620,-3.0645626,-1.2306134,-3.7373297,-49.1984749,-165.4503784,-164.6259613
1630,-3.3686244,-1.0749911,-2.7940190,-65.9847336,-189.8625946,-148.3053436
1640,-3.8498566,-0.8044477,-1.8818330,-80.0916061,-208.4427490,-129.8091583
1650,-3.9432299,-0.8259954,-1.0989330,-91.8091583,-217.6106873,-108.5801544
1660,-3.9408360,-0.5171449,-0.6631905,-102.9389343,-218.2366486,-86.7938919
1670,-3.7995787,-0.1987177,-0.4572902,-116.9694672,-212.8396912,-65.1450348
1680,-3.2560976,0.1436514,-0.3639168,-134.8091583,-202.4580078,-45.9236641
1690,-2.8826041,0.2561783,0.3758878,-154.5496216,-185.5038147,-27.7862587
1700,-2.4157372,0.2370248,1.5801650,-172.0305328,-165.5419922,-10.8549614
1710,-1.9704180,0.1412572,3.2058196,-183.5496216,-144.5419922,4.7480917
1720,-1.7118455,0.1149211,4.7907729,-188.0229034,-123.4045792,18.4122143
1730,-1.5466464,0.0861908,6.4283986,-186.4961853,-105.0687027,30.2519093
1740,-1.3215926,0.0790083,7.6566176,-180.7022858,-86.3969498,39.9236641
1750,-1.5394639,0.3806761,8.5999289,-172.8473358,-68.8549652,50.4427490
1760,-1.7190280,0.7134684,9.1912937,-166.7099304,-52.2137413,62.3664131
1770,-1.6065011,0.5841822,9.6485834,-161.9770966,-35.9694672,74.0992355
1780,-1.5179161,0.5099624,10.1896706,-157.9923706,-22.9770985,86.5038147
1790,-1.2162483,0.3112446,10.5128860,-154.4122162,-12.5877867,97.6564865
1800,-0.9648584,0.4141948,10.8384953,-151.1450348,-3.3664122,111.6564865
1810,-0.3974355,0.4884146,11.4442253,-148.0992432,4.5801525,125.0076370
1820,0.2801202,0.6200951,11.9422169,-144.3969421,10.3435116,134.9389343
1830,1.0175306,1.0941446,12.8903160,-137.6641235,8.6259546,141.6488495
1840,1.8674678,1.3838415,13.6899757,-127.8091583,3.8320611,145.5496216
1850,2.8419030,1.9560528,14.1352949,-115.1145020,-3.7709923,145.8854980
1860,3.8714044,2.4636209,14.1831779,-103.0076370,-11.0763359,142.2366486
1870,4.5058646,3.0454090,14.1448717,-94.2748108,-17.1832066,134.4427490
1880,4.9583664,3.3662305,14.0538921,-88.5725174,-25.7022896,126.2748108
1890,5.1594782,2.9041519,14.2406387,-81.5954208,-36.7862587,120.0916061
1900,5.1953912,2.6886747,14.3364067,-70.6412201,-49.8167953,116.8854980
1910,5.7580256,2.8514795,13.9246063,-60.0610695,-59.5496178,115.2671738
1920,6.4212160,3.0047078,13.6181498,-54.6793900,-61.9541969,111.4351120
1930,6.9503322,3.1292057,13.7522240,-52.2977104,-55.9389305,106.0763321
1940,7.3381906,3.3877780,14.1783895,-51.5114517,-42.8931313,99.4427490
1950,7.2687593,3.2177906,14.7529955,-49.2671738,-25.4656487,90.3282471
1960,6.3661499,2.9376705,15.2078915,-43.9465637,-11.5419846,84.8931274
1970,5.3797436,2.3367288,15.2701406,-35.9007645,-2.4122138,83.7404556
1980,3.9791429,1.8626794,14.8966465,-26.8549614,1.6259542,88.1755753
1990,3.0382264,1.5849534,14.5662489,-19.0381680,-1.0458015,96.5877838
2000,2.3223639,0.6991033,14.3842907,-10.0229006,-10.0610685,108.9847336
2010,2.6096666,-0.5075682,14.4776640,1.9312977,-23.1908398,129.3969421
2020,4.0557570,-1.0725969,14.6691990,15.1068707,-35.4656487,149.4961853
2030,6.2584114,-0.6943150,14.5447006,27.3358784,-41.7480927,162.7175598
2040,8.8608952,-0.0383070,14.9158001,39.5877876,-36.2290077,166.6870270
2050,10.5799236,0.7517755,14.9086180,50.1603050,-18.4580154,160.5114441
2060,11.1497402,1.6304430,14.3220415,57.0076332,2.5801528,147.8091583
2070,10.5535870,2.1092808,13.5918131,59.1526718,20.4045811,133.7328186
2080,9.3564920,2.2098370,13.2278967,59.1908379,30.0076332,121.2977066
2090,7.8601241,1.7405758,13.1943779,60.3587799,28.0229015,113.5419846
2100,6.9168134,0.9768293,13.4697094,63.6488533,12.9236641,110.9160309
2110,7.1131368,0.1556223,14.1903610,71.3664093,-8.4656487,111.4656525
2120,7.6278877,-0.3854645,15.2725344,83.3740463,-30.7175579,111.4045792
2130,8.5759869,-0.8595140,15.8591108,99.0534363,-52.5801544,110.0610657
2140,9.9933472,-1.2138541,16.2804890,115.4580154,-66.5419846,106.6946564
2150,12.1505117,-1.5801650,16.6396160,133.3282471,-71.5343475,101.0381699
2160,14.5710373,-1.5897418,16.9221306,151.9007568,-62.7557259,89.3053436
2170,15.9093885,-1.8315549,16.6922894,170.5725250,-48.0916023,73.7480927
2180,16.7042599,-2.2625091,16.1655674,190.4045868,-36.3435097,56.7557259
2190,17.2573185,-2.9759774,15.0450869,210.2061005,-31.2977104,40.4809151
2200,18.1407738,-3.4811516,13.6947641,228.0534363,-30.1450386,23.5419846
2210,19.2875900,-3.4643922,12.5000629,242.2290039,-29.0305347,4.4732823
2220,19.6126022,-2.8538737,11.3316984,250.1297760,-25.8473282,-20.0152664
2230,19.6126022,-2.9855542,9.8880024,250.1297760,-16.1450386,-50.5572510
2240,19.6126022,-2.8921809,8.1450329,250.1297760,-8.2977095,-84.2595444
2250,19.6126022,-3.1004753,6.6007805,250.1297760,-2.3053436,-114.4503784
2260,18.5765152,-3.6008608,5.2265158,250.1297760,6.0610685,-139.5343475
2270,17.5111008,-3.7062054,3.8546450,250.1297760,12.1374044,-158.9236603
2280,16.5510311,-3.7301471,2.8538737,250.1297760,16.4732819,-174.6564941
2290,15.5574427,-3.6535332,1.5610116,242.3740387,18.0839691,-189.0000000
2300,14.9181948,-3.3638363,0.4692611,230.5343475,17.9694653,-202.3511505
2310,14.1975431,-3.0047078,-0.5434810,215.7328186,17.0305347,-214.8320618
2320,13.5008345,-2.7724714,-1.5227045,199.1221313,13.4198475,-225.9084015
2330,12.8855276,-2.5306582,-2.0997043,181.0992432,6.2366414,-236.1526642
2340,11.9996777,-2.4516499,-2.6000898,163.2213745,-1.4809160,-245.0000000
2350,11.1521349,-2.4253139,-2.8849983,146.8091583,-12.9694653,-250.1374054
2360,10.1010857,-2.3678534,-3.1723011,131.3893127,-25.9618320,-250.1374054
2370,8.6238708,-2.4444675,-3.6008608,116.7633591,-41.0992355,-250.1374054
2380,6.7827387,-2.4348907,-4.0892754,99.9083939,-58.7862587,-250.1374054
2390,5.0589223,-2.4492557,-4.6662750,84.6183243,-79.3129807,-250.1374054
2400,3.7085996,-2.2816625,-5.2408805,64.9770966,-97.8320618,-238.3053436
2410,2.3774302,-2.0111191,-6.0165982,41.9923668,-114.5038147,-222.9389343
2420,1.2569494,-1.7788827,-6.8521700,14.2519083,-127.2977066,-205.5496216
2430,0.4596844,-1.5274929,-7.4291697,-18.8549614,-138.2442780,-186.2748108
2440,0.2513899,-1.2569494,-7.2759418,-55.6870232,-147.0381622,-168.6488495
2450,0.2777260,-1.1492109,-6.2033448,-89.0992355,-151.3129730,-155.3129730
2460,0.0359128,-1.3551112,-5.2073622,-117.2519073,-151.1679382,-145.0076294
2470,-0.5626345,-1.4317253,-4.4220681,-141.6183167,-149.0610657,-133.5190887
2480,-1.1635761,-1.4820032,-3.8714044,-164.6641235,-145.8931274,-121.4045792
2490,-1.8722562,-1.6400198,-2.9041519,-186.6793823,-139.7404633,-107.4503784
2500,-2.8227494,-1.9608412,-1.8626794,-205.2595367,-130.1374054,-90.3053436
2510,-3.3638363,-1.8818330,-0.9744351,-221.4503784,-121.9770966,-71.5725174
2520,-3.6966286,-1.8028246,0.2226596,-235.8091583,-115.1984711,-53.2671738
2530,-3.8905578,-1.7884595,1.2258250,-249.5572510,-102.8473282,-36.1603050
2540,-4.3310885,-1.9680238,2.2194135,-250.1374054,-84.3282471,-19.2595425
2550,-4.9583664,-1.8770446,3.4739690,-250.1374054,-63.4580154,-1.7099236
2560,-5.2696109,-1.7118455,4.5872669,-250.1374054,-44.0687027,15.0381680
2570,-5.4060798,-1.7764885,6.1075773,-250.1374054,-26.2824421,28.3129768
2580,-5.6550756,-1.7597293,7.5800037,-250.1374054,-13.1145039,39.8320618
2590,-5.7580256,-2.0230901,9.6437950,-250.1374054,-5.5496182,50.0458031
2600,-5.8346395,-2.2864509,11.6884327,-250.1374054,-4.8091602,59.3511467
2610,-5.9615316,-2.4947455,13.4960461,-250.1374054,-9.7938929,68.6946564
2620,-5.8274570,-2.4684093,14.5470953,-244.8320618,-16.9847336,80.0992355
2630,-5.3869262,-2.4061604,15.2102852,-224.2519073,-23.8931293,94.4122162
2640,-4.3574247,-2.4324965,15.9165716,-206.1755676,-30.8320618,105.6259537
2650,-3.3255291,-2.1763182,16.6156750,-190.6259613,-35.3358765,117.3893127
2660,-1.8698620,-1.7549409,17.6164455,-175.4274750,-33.2977104,126.0152664
2670,-0.3399749,-1.1516051,18.6315823,-160.4503784,-23.1297703,130.7557220
2680,1.7621235,-0.4908088,19.4384251,-146.2824402,-2.2595420,130.4580078
2690,2.8849983,0.0837966,19.6126022,-130.6564941,24.0687027,124.1984711
2700,2.8371146,0.7469871,19.5246143,-116.8549652,45.9236641,118.0763321
2710,2.6934631,0.8331779,18.6459484,-104.6946564,58.5877876,114.0381699
2720,2.2529323,1.0965388,17.6403885,-93.7404556,62.6717567,111.1450348
2730,2.0877333,1.3000449,16.7329903,-84.8091583,57.5419846,109.0839691
2740,2.0853391,1.6088953,16.1392307,-77.6488571,46.0381660,106.1679382
2750,1.9895715,1.7573351,15.6292686,-72.5419846,31.9083977,102.6030502
2760,1.9009864,1.7094513,15.3802729,-68.0916061,19.7709923,99.7022934
2770,2.0542145,1.4915800,15.4209747,-63.9083977,10.9389315,94.9007645
2780,1.9201399,1.1947005,15.7824965,-58.2519073,5.4732823,93.8854980
2790,1.6088953,1.0127422,15.9692440,-49.8091621,1.0229008,90.7099228
2800,1.0007712,0.7876883,15.8686876,-38.1221390,-4.6564884,90.3435135
2810,0.6200951,0.5793939,15.2031031,-28.0916023,-10.2213745,91.1450348
2820,0.0407012,0.3758878,14.4800577,-20.7328243,-14.6717558,92.9312973
2830,-0.3280039,0.2489957,13.9629126,-15.1526718,-18.9083977,99.0152664
2840,-0.2849085,-0.0311245,13.5247765,-10.7557249,-21.5572510,105.4122162
2850,-0.2849085,-0.2609667,13.2566271,-7.7480917,-24.1984730,111.4198456
2860,-0.2896969,-0.6177009,13.2350798,-4.6106873,-27.1068707,116.2595444
2870,-0.3519458,-0.9241571,13.3404236,-1.0839695,-29.8396950,120.4885483
2880,-0.2849085,-1.4221486,13.6684275,3.0000000,-31.1450386,126.1450348
2890,-0.1651991,-1.8339491,14.1879663,9.5877867,-29.8015270,133.3664093
2900,-0.1221037,-2.1619530,14.1975431,18.6564884,-28.7633591,141.5114441
2910,-0.1005560,-2.4181314,13.9964314,26.7557259,-28.1679382,150.8854980
2920,0.0909792,-2.4061604,13.9030581,33.1297722,-24.5572510,159.7557220
2930,0.3663110,-2.4253139,13.7713776,37.0305328,-14.0992365,169.8396912
2940,0.5554519,-2.5593886,13.7857428,37.3664131,3.6564887,181.4885559
2950,0.7445929,-2.9687948,14.2717638,36.4885483,25.6946564,194.5648804
2960,0.8714849,-3.5793133,15.1647959,36.7786255,47.2213745,207.1145020
2970,1.3191984,-4.1347651,15.9046001,39.6793900,66.7938919,219.7557220
2980,1.6926919,-4.9152708,16.7186241,46.4961815,75.0152664,230.9007568
2990,2.2002602,-5.6622581,17.6403885,60.1221390,66.7251892,239.7938995
3000,3.0861101,-6.1219425,18.4424419,79.7633591,47.6259537,246.0610657
3010,4.3765783,-6.4810710,18.8662128,104.0000000,26.2748089,248.0000000
3020,5.9351954,-6.8473821,18.8805771,130.1145020,8.0687027,246.7480927
3030,7.8361821,-7.0508881,18.7081966,155.6717529,-5.3358779,242.2213745
3040,9.8664551,-6.8809004,18.4520187,180.2977142,-15.0000000,231.7099304
3050,11.8608141,-6.6702118,17.7457314,204.6488495,-23.6946564,216.9007568
3060,13.6492739,-5.9806852,16.8503056,227.8396912,-33.7786255,195.9313049
3070,15.4185801,-5.5186067,15.5454721,249.3740387,-42.6183205,167.5572510
3080,16.8910065,-4.4053087,13.5678720,250.1297760,-50.3129768,134.7633514
3090,17.9468441,-3.8402798,11.5735121,250.1297760,-48.1145020,97.5190811
3100,18.4927197,-2.9089401,9.5959110,250.1297760,-42.8931313,58.7786255
3110,18.7225609,-2.0590029,7.7811155,250.1297760,-37.7175560,19.8625946
3120,18.4711723,-1.5538290,6.0836353,250.1297760,-33.5801544,-19.3206100
3130,17.5733509,-1.3982066,4.6088147,235.2595367,-31.0229015,-54.9694672
3140,16.4720230,-1.5155219,3.2082138,215.8244324,-30.7709923,-85.2671738
3150,15.4568872,-1.7357874,2.1739240,194.4198456,-30.8473282,-109.1603088
3160,14.3435888,-1.6328372,1.4389079,171.7404633,-34.9236641,-129.1755676
3170,13.3476067,-1.5969244,1.0223188,150.1221313,-45.7251892,-145.8854980
3180,12.4162664,-1.5825592,0.7038917,129.5725250,-63.0687027,-161.5419922
3190,11.7099810,-1.4053892,0.6081241,110.8625946,-85.8091583,-175.9313049
3200,11.0563669,-1.2976507,0.4884146,93.7862625,-111.3816757,-189.1068726
3210,10.6182299,-1.2617378,0.4740495,78.3664093,-137.3740387,-201.7251892
3220,10.5487986,-0.9528874,0.6129125,63.7099228,-164.5801544,-215.3587799
3230,10.4051476,-0.7134684,0.8140244,49.7786255,-188.5954132,-231.6793823
3240,9.6821022,-0.7110743,0.8643024,35.0687027,-206.6259613,-246.7862549
3250,8.6717539,-0.7876883,1.0414724,20.1984730,-217.3282471,-250.1374054
3260,7.7763271,-0.8643024,1.2713146,4.4961834,-219.6335907,-250.1374054
3270,6.5720501,-0.9672526,1.3670821,-12.3435116,-213.4809113,-250.1374054
3280,5.2217274,-1.1851238,1.3718705,-31.5572510,-197.7022858,-250.1374054
3290,3.7947903,-1.2904681,1.2952565,-52.6412201,-175.2748108,-250.1374054
3300,2.1595588,-1.4748207,1.2401901,-75.1679382,-146.6793823,-248.9694672
3310,-0.1101327,-1.6448082,1.3000449,-96.9083939,-122.2748108,-233.8549652
3320,-1.7860653,-1.5227045,1.2976507,-118.3587799,-107.6717529,-214.7404633
3330,-2.8035958,-1.4796091,1.8195840,-138.4122162,-101.7709961,-197.1832123
3340,-3.7133877,-1.6519908,2.8634505,-153.9541931,-106.1679382,-181.3587799
3350,-4.5130472,-1.8890154,3.8187323,-164.1374054,-117.8549652,-165.8625946
3360,-5.0110383,-1.8698620,4.8530221,-169.4732819,-132.6870270,-150.9007568
3370,-5.3174949,-1.8195840,5.6047974,-172.1984711,-145.9389343,-136.1832123
3380,-5.3701668,-1.7357874,6.4307928,-175.7404633,-147.8091583,-121.6183243
3390,-5.7292953,-1.6543850,7.3788919,-179.8778687,-137.2595367,-106.7328262
3400,-5.9687142,-1.5059452,8.4323349,-183.6564941,-117.3129807,-92.2519073
3410,-6.3086891,-1.2928623,9.4450769,-186.1755676,-91.9007645,-78.6335907
3420,-6.7779503,-1.4365137,10.3333216,-184.6946564,-68.5954208,-64.9389343
3430,-7.3334022,-1.6615674,11.1569233,-179.0381622,-49.6183205,-49.1068687
3440,-7.7619624,-1.7166338,11.5184450,-170.8091583,-37.4198456,-32.1068687
3450,-8.4921904,-2.0685797,11.4945040,-162.4732819,-33.1832047,-10.5114508
3460,-9.1362267,-2.2409613,11.6261835,-155.4503784,-38.5572510,15.6335878
3470,-8.9782104,-2.0733681,12.0930510,-149.8854980,-46.6335869,45.4656487
3480,-8.1210909,-2.0805507,13.0938225,-142.5267181,-53.4885483,75.6335907
3490,-6.5361371,-1.9464760,14.0898046,-133.1984711,-53.6106873,104.5572510
3500,-4.4531922,-1.7381816,14.9325600,-122.3664093,-43.8854980,127.8473282
3510,-2.4013720,-1.2689204,15.3347836,-111.6183243,-26.1297703,144.2748108
3520,-0.7757174,-0.9911944,15.3587255,-102.9694672,-5.2061067,154.4503784
3530,0.4070122,-0.4046180,15.2964764,-94.6106873,8.9236641,158.3435059
3540,1.2808913,0.0502780,15.2031031,-86.1679382,17.2137413,157.5496216
3550,1.7788827,0.4022238,14.7769375,-78.6717529,22.8015270,153.5038147
3560,1.9752063,0.6248835,14.2526102,-73.7786255,23.5801525,148.3511505
3570,1.8507085,0.6919208,13.7977142,-70.9160309,20.2900772,143.9160309
3580,1.9153515,0.4572902,13.9054527,-69.2137375,13.5648851,142.0839691
3590,2.0542145,0.2346306,14.4106264,-65.2900772,5.0381680,142.8778687
3600,2.4899571,0.1532281,15.0450869,-56.8854980,-5.6183205,145.3435059
3610,4.4962878,0.2370248,15.1432486,-47.0152664,-11.9770994,144.3664093
3620,7.3956513,1.0534433,14.6284971,-40.1450386,-2.3129771,133.2213745
3630,9.0524302,1.7740943,13.7115231,-40.6106873,22.1755733,113.3511429
3640,8.5903521,1.8483143,13.2326851,-44.5572510,43.6183205,90.6183243
3650,6.9646969,1.4029950,12.8184900,-44.5038185,44.4045792,74.1755753
3660,5.6933827,1.0725969,12.6652622,-40.5801544,28.4885502,61.8702278
3670,4.8697815,0.7972651,12.7969427,-33.7175560,8.6488552,53.3969460
3680,4.3837609,0.4884146,13.0219965,-25.1068707,-6.3664122,46.9465637
3690,3.7732425,-0.0646431,13.2255030,-16.8931293,-11.6106873,44.1984749
3700,2.7868366,-0.5219333,13.4098549,-10.6106873,-10.5572519,45.8549614
3710,2.1595588,-0.7996593,13.4840746,-6.1068702,-4.1603055,54.3129768
3720,2.0398495,-1.0175306,13.6253319,-2.5496182,9.6870232,65.9160309
3730,2.0901275,-0.8259954,13.5870247,-1.0839695,26.4122143,77.5496216
3740,2.1906834,-0.7254394,13.8144732,0.4274809,42.9312973,86.4961853
3750,2.0733681,-0.5961532,13.8144732,3.8778627,56.1755714,92.9389343
3760,1.8124014,-0.5219333,13.4577389,7.4885497,64.0763321,95.8931274
3770,1.4293311,-0.6153067,13.0100250,9.2442751,66.6106873,99.5038147
3780,0.7110743,-0.6248835,12.8472204,10.5496187,60.7480927,100.0916061
3790,0.2226596,-0.6488253,13.0267849,11.6412210,54.1832047,101.2519073
3800,-0.1867468,-0.8954269,13.2829628,13.1679392,48.2900772,103.2213745
3810,-0.7924767,-1.6400198,13.7210999,15.3358774,40.6335869,108.0457993
3820,-1.3096216,-2.3965836,14.3962612,20.3740463,31.8015270,117.5114517
3830,-1.4125718,-3.3949606,15.1145182,28.5343513,23.8854961,133.2671814
3840,-0.7206510,-4.1347651,15.8231983,37.6641235,21.3664131,151.8702240
3850,0.3806761,-4.6207857,16.4528694,48.2824440,21.8778629,170.5725250
3860,1.8746504,-5.1307478,16.8670654,59.7022896,28.7175579,188.3740387
3870,3.8378856,-5.6191626,17.3818150,71.0763321,41.0228996,203.7633514
3880,6.4044566,-5.7221127,18.3586445,83.5801544,57.3053436,213.4122162
3890,8.4443064,-5.7269011,19.2444954,103.6946564,65.5877838,214.2213745
3900,10.0316534,-5.5928264,19.5772877,131.2366486,57.5725174,205.0229034
3910,11.1257982,-5.5808558,18.9164906,163.6946564,36.2748108,189.4274750
3920,12.9836893,-5.3270717,18.0114880,196.1908417,9.3358774,168.5801544
3930,16.4456882,-4.0150557,16.8814297,224.0458069,-7.2213740,134.5419922
3940,19.0601425,-2.2960277,15.6149035,248.8396912,-18.8854961,87.2519073
3950,19.6126022,-0.7996593,13.2781744,250.1297760,-18.7404575,26.8396950
3960,19.6126022,0.4070122,11.3053627,250.1297760,-9.8931293,-38.8625946
3970,19.6126022,0.3567342,9.3732519,250.1297760,5.9083967,-104.8320618
3980,18.2245693,-0.5769997,7.3118544,250.1297760,10.9541988,-157.0763397
3990,14.2358503,-1.6448082,5.3725610,248.2977142,-1.8244275,-187.6564941
4000,11.1617117,-2.2864509,3.6224086,235.9770966,-22.8549614,-200.5343475
4010,9.4953556,-2.2816625,2.2936335,220.0000000,-43.3053436,-203.3053436
4020,8.7699156,-1.7980363,1.0702027,200.2366486,-58.3511467,-202.9007568
4030,8.3605099,-1.2114599,-0.1149211,175.2824402,-70.5496216,-204.4580078
4040,8.1019373,-0.8523315,-1.1109039,144.7099304,-82.7480927,-209.8931274
4050,7.4602942,-0.7302278,-1.2306134,114.0305328,-92.0305328,-216.8473358
4060,6.6271162,-0.8188128,-1.1994889,87.2290039,-102.5496216,-222.4656525
4070,5.9136481,-1.0869620,-1.3359578,61.5877876,-109.8244247,-225.9389343
4080,4.9679432,-1.2449785,-1.1468167,35.6106873,-113.8473282,-227.2366486
4090,3.8737986,-1.3120158,-0.7613522,13.0992365,-118.3816757,-226.5648804
4100,2.8275378,-1.4317253,-0.3615226,-4.8244276,-130.4580078,-221.1374054
4110,2.1236460,-1.4772149,-0.3998296,-21.7251911,-145.3511505,-213.7862549
4120,1.5897418,-1.5298871,-0.1316804,-38.4274826,-158.8320618,-206.1984711
4130,1.4006008,-1.1276633,0.6129125,-55.6106873,-170.5648804,-198.2595367
4140,1.2018831,-0.9624642,1.8531027,-70.2137375,-173.2900696,-190.7633514
4150,0.8619082,-0.8403605,2.7269819,-82.7633591,-165.3435059,-182.6946564
4160,0.1173153,-0.7086801,3.3183465,-94.0229034,-154.8244324,-174.2977142
4170,-0.5937590,-0.7014975,3.4955165,-105.9770966,-142.7709961,-164.5343475
4180,-0.8666966,-0.6129125,3.9887197,-120.3587799,-124.6564865,-154.9923706
4190,-1.0606259,-0.8379663,4.8769641,-134.6259613,-104.6793900,-149.1374054
4200,-1.6879035,-1.0510491,6.0213866,-144.7938995,-87.4274826,-146.2137451
4210,-2.6479735,-1.5131277,7.3453732,-148.0610657,-77.5343475,-142.7480927
4220,-4.0150557,-1.8602852,8.1641865,-147.5954132,-71.3664093,-136.8625946
4230,-5.2672167,-2.4588325,9.2559366,-144.3129730,-71.0610657,-127.6183243
4240,-6.3230543,-2.7006457,9.9909525,-141.4961853,-71.5038147,-114.8854980
4250,-7.4076223,-3.0573800,10.9103212,-138.6106873,-69.3740463,-96.9847336
4260,-8.3030491,-3.1148405,11.6884327,-135.3053436,-62.6641235,-74.4198456
4270,-8.9279327,-3.3111639,12.6844158,-132.0458069,-53.9389305,-48.9694672
4280,-9.1841106,-3.1603301,13.1752243,-128.9236603,-39.9771004,-22.6793900
4290,-9.0763721,-3.1004753,13.8599625,-124.5190811,-24.7480907,3.6870229
4300,-8.5735922,-2.5498118,14.0179796,-119.7938919,-8.8167934,26.5877857
4310,-8.0109577,-2.3726418,13.8623571,-116.2290039,3.5267177,45.5877876
4320,-7.8289995,-2.1284344,13.9222116,-111.9923630,9.6412210,62.2137413
4330,-7.4339581,-1.9057748,14.0107965,-106.7709961,9.4122133,76.9694672
4340,-7.0437055,-1.7621235,13.9030581,-99.0687027,4.8015265,90.3969498
4350,-6.7228842,-1.7381816,14.0060081,-92.2900772,-1.4809160,105.0152664
4360,-6.1578555,-1.6136837,14.3723192,-85.4274826,-5.0152674,119.3816757
4370,-5.8561873,-1.5897418,14.7338419,-76.4122162,-8.5572519,133.5343475
4380,-5.2720051,-1.5538290,14.8032732,-65.4809189,-11.9847326,147.9007568
4390,-4.6303625,-1.8387375,14.6045561,-55.5496178,-13.3740454,161.4732819
4400,-4.2353210,-2.0997043,14.4896345,-47.8091621,-12.6564884,174.6259613
4410,-3.9432299,-2.3439114,14.5973730,-40.6793900,-13.7328243,188.0763397
4420,-3.6032550,-2.5091105,14.4202032,-31.5267181,-18.2977104,201.0610657
4430,-3.2489152,-2.5713594,14.1616306,-22.3587780,-25.3282452,214.1374054
4440,-2.6120608,-2.7581062,14.0443153,-13.7022905,-31.7022896,227.5877838
4450,-1.8554969,-3.0071020,13.6373034,-5.3969464,-36.3740463,239.4045868
4460,-0.9576758,-3.1579359,13.5966015,3.6488550,-39.9236641,250.1297760
4470,0.3232156,-3.2728570,13.1417055,12.1297712,-39.6641235,250.1297760
4480,1.7884595,-3.0645626,12.6413202,18.5114498,-35.9771004,250.1297760
4490,3.6176202,-2.8778157,12.3923244,21.5343513,-25.4503822,250.1297760
4500,5.4683285,-2.5091105,12.0810804,22.2137413,-8.7251911,250.1297760
4510,6.8306227,-1.5921360,11.8536320,19.5877857,9.4503813,250.1297760
4520,7.7140784,-0.5602403,11.7650471,14.6335878,27.8702297,241.0992432
4530,7.7763271,-0.0933734,11.6309719,9.8931293,39.3511467,220.0992432
4540,6.8809004,0.3639168,11.5112629,7.1755724,39.4580154,198.1297760
4550,5.4659348,0.6775556,11.2048063,6.7022901,25.8015270,178.4961853
4560,3.1866663,0.1436514,11.6932211,11.6106873,-29.2977104,161.7404633
4570,2.9592183,-0.1628049,12.5958309,20.6870232,-57.3206100,164.6870270
4580,3.9456241,-0.3280039,13.4074612,30.7709923,-75.2290039,167.5572510
4590,5.2121506,-0.1819584,14.4920292,39.9541969,-73.5648880,167.6564941
4600,6.2177100,0.1125269,15.2150736,48.3053436,-57.1526718,165.0458069
4610,7.3621325,-0.0071826,15.4329453,54.3893127,-39.0534363,157.6793823
4620,8.7651272,-0.4525018,15.6196918,55.8625946,-25.0610695,143.5038147
4630,9.3133974,-0.8523315,16.2948532,57.2900772,-24.9007626,121.7557220
4640,9.3876171,-1.8650736,17.3147774,65.4656525,-46.2442741,98.7938919
4650,9.4738073,-2.8538737,18.2676659,82.1374054,-78.2213745,76.7175598
4660,9.7515335,-3.2010312,18.2963963,101.2977066,-108.7480927,59.0458031
4670,10.4650021,-3.5936785,17.7672806,122.0229034,-133.1297760,43.3664131
4680,11.4609852,-3.6152260,17.4775829,135.9236603,-147.2137451,27.4885502
4690,12.1648769,-3.5362179,17.7122135,150.4961853,-156.4045868,8.6641226
4700,12.3899307,-3.5314295,18.0689487,171.1908417,-161.4809113,-12.8091602
4710,12.5287933,-3.6750808,17.1567612,196.0229034,-157.6412201,-34.4656487
4720,13.1800127,-3.3734128,16.2397861,218.4885559,-147.4732819,-56.3206100
4730,14.2047262,-2.6072724,15.3563309,238.0381622,-136.9541931,-84.4503784
4740,15.3467541,-2.4301023,14.4393568,250.1297760,-126.1832047,-122.8702316
4750,15.0642405,-2.6407909,12.9573536,250.1297760,-125.1450348,-165.5496216
4760,13.1704359,-3.6080434,11.2526903,250.1297760,-126.5190811,-201.8091583
4770,10.3045912,-4.6662750,9.8449068,250.1297760,-134.0076294,-223.4961853
4780,7.8505473,-5.4252334,8.6023226,250.1297760,-145.4427490,-228.8015289
4790,6.4331870,-5.5928264,6.7468257,250.1297760,-147.1755676,-221.6030579
4800,5.9854736,-4.9679432,4.4148855,250.1297760,-136.7938995,-208.3664093
4810,5.9280128,-3.7469065,2.0685797,250.1297760,-122.1984711,-196.6106873
4820,6.0309634,-2.8993635,-0.1077385,250.1297760,-102.0076370,-187.5801544
4830,6.1698260,-2.1356170,-1.8339491,231.6564941,-78.2595444,-179.3816833
4840,6.6630292,-1.2066715,-2.9520357,198.4274750,-58.7328262,-174.3740387
4850,6.8042865,-0.1364688,-3.9168940,166.7099304,-51.5801544,-175.5496216
4860,6.3062949,0.3327923,-4.6399393,136.0381622,-54.0687027,-180.2366486
4870,4.9535780,0.3926471,-4.9392128,108.1679382,-65.8702316,-181.7633514
4880,4.0677280,0.4453192,-5.0349803,82.7328262,-84.3129807,-179.5496216
4890,3.6607156,0.9409165,-4.6519103,62.2900772,-109.3893127,-176.4351196
4900,3.2369442,1.2856797,-4.4220681,46.9465637,-137.4656525,-175.0610657
4910,2.3199697,1.6495966,-4.6207857,31.4122143,-163.3206177,-172.6564941
4920,1.2186425,1.8219782,-4.9679432,13.4961834,-186.3435059,-164.4351196
4930,0.4405309,2.1140692,-5.6047974,-7.2442746,-203.2137451,-153.0839691
4940,0.1316804,2.3726418,-6.0237808,-34.1908379,-215.9541931,-141.3435059
4950,-0.0502780,2.4396791,-5.8585815,-63.8015251,-220.0763397,-130.5801544
4960,-0.7302278,2.2625091,-5.5736732,-92.3053436,-216.8320618,-117.4503784
4970,-1.4173602,2.0111191,-5.6239510,-121.3206100,-208.8625946,-101.6335907
4980,-2.0733681,1.8650736,-5.4132624,-154.5343475,-196.7099304,-83.6564865
4990,-2.5665710,1.7453641,-4.6112089,-187.3358765,-180.9465637,-64.6946564
5000,-2.9137285,1.5801650,-3.6726866,-219.5496216,-158.6641235,-45.8244286
5010,-3.2106080,1.1563935,-2.7150109,-250.1374054,-129.0305328,-28.5038166
5020,-3.9240766,0.5602403,-1.1324517,-250.1374054,-97.3511429,-10.9541988
5030,-4.9463954,-0.0622489,0.6009415,-250.1374054,-69.5419846,7.7862597
5040,-5.9519548,-1.1348459,2.3391230,-250.1374054,-53.7709923,28.7099228
5050,-6.3924856,-1.7932479,4.7141590,-250.1374054,-47.0992355,52.9694672
5060,-6.4283986,-2.1954718,7.2519999,-250.1374054,-43.5496178,77.5725174
5070,-5.8202744,-2.5761478,9.2631187,-250.1374054,-47.8778610,99.2748108
5080,-4.8889351,-2.6575503,10.9677820,-250.1374054,-60.0381660,120.7328262
5090,-3.4859397,-2.7269819,12.4186611,-250.1374054,-68.3740463,138.1221313
5100,-2.0111191,-2.6695213,13.7282820,-250.1374054,-70.2748108,152.0000000
5110,-0.1197095,-2.3510940,14.8607340,-241.7633514,-65.9770966,161.2061005
5120,2.0374553,-1.8267666,16.0793762,-222.5343475,-47.8167953,163.1374054
5130,3.6367738,-1.3024391,16.9077663,-202.8396912,-17.1450386,158.4503784
5140,4.4914994,-0.6607963,17.1926746,-185.0152740,18.2213745,148.3358765
5150,4.0820932,-0.2274480,16.9005833,-168.7404633,46.9847336,136.6030579
5160,2.8921809,0.0694315,15.8160152,-157.4580078,62.6793900,130.2442780
5170,2.2265961,-0.0287303,14.5351238,-151.6946564,67.1984711,126.8702316
5180,2.0901275,-0.1221037,14.1712074,-151.4656525,59.0076332,123.5114517
5190,2.0877333,-0.2729376,15.1312771,-148.5114441,38.9847336,117.9465637
5200,1.8818330,-0.1292862,16.5462437,-134.9313049,13.1374044,111.9465637
5210,2.1284344,-0.2537841,17.3004131,-115.3969498,-14.8091602,106.9618301
5220,2.5569944,-0.4309541,17.9013538,-95.3740463,-31.5343513,104.6030502
5230,2.9209111,-0.3758878,18.0521889,-76.0000000,-35.4809151,105.2442780
5240,3.0956869,-0.3830703,17.6786957,-59.3511467,-28.6717548,108.5801544
5250,3.0406206,-0.1364688,16.8119984,-48.1755714,-16.1984730,114.0534363
5260,2.7844424,-0.1771700,15.9381189,-43.1908379,-3.4503818,119.9923630
5270,2.5282640,-0.5937590,15.6077213,-41.3587799,5.2671757,127.4580154
5280,2.4420733,-0.8403605,16.0913467,-36.1832047,8.1755724,136.0763397
5290,2.6407909,-1.1516051,16.6060982,-25.3969460,4.4351144,145.4274750
5300,3.1770895,-1.3239868,16.6994705,-10.3740454,-1.8473282,154.1374054
5310,4.2520804,-1.3215926,16.3954086,4.7862597,-6.4732823,159.7862549
5320,5.4443870,-1.2689204,15.9285421,15.1603050,-4.2748094,161.9084015
5330,6.3493905,-0.9911944,15.6651812,21.8625946,7.5190840,161.0229034
5340,6.6821828,-0.4955972,15.5335016,26.0000000,23.1068707,157.1068726
5350,6.5361371,-0.2226596,15.4616756,26.9083977,44.7786255,152.4961853
5360,5.9160423,-0.5386927,15.5382900,23.4198475,73.0152664,150.7633514
5370,5.0517397,-1.1013272,16.0530396,18.7022896,99.1450348,151.9160309
5380,4.2688398,-1.9105632,17.0011387,18.8854961,110.7709961,154.6488495
5390,3.8139439,-2.2649033,18.2245693,27.4656487,96.5419846,155.3435059
5400,3.6966286,-2.8347204,19.2851963,47.5725174,66.1068726,154.6488495
5410,4.2401094,-2.9640064,19.5629215,75.0534363,31.7022896,152.9389343
5420,5.4395986,-2.8897867,19.1822453,100.2519073,3.9160306,149.4961853
5430,7.0317345,-2.5593886,18.4448357,122.4961853,-11.4580154,141.8778687
5440,8.7866755,-2.3271523,17.5015240,136.8015289,-15.5954199,130.3664093
5450,10.2351599,-2.2146254,16.6875000,143.9007568,-12.1450386,116.3969498
5460,11.1473465,-2.1906834,16.5366669,149.7480927,-8.8931293,101.2671738
5470,12.0236197,-2.4636209,16.6803188,159.4961853,-10.7175570,85.7709961
5480,12.7179346,-2.8323262,16.7162304,172.8091583,-14.3816795,69.0763321
5490,13.3930960,-3.0765336,16.8981895,189.5267181,-26.8244267,48.5114517
5500,14.6715927,-3.5050933,17.7146072,212.5725250,-44.6793900,22.2442741
5510,15.5358953,-4.0844874,17.5972919,240.4503784,-56.3358765,-10.3129768
5520,16.0243092,-4.1084290,17.5805340,250.1297760,-77.5114517,-45.8396950
5530,16.6108856,-4.6207857,17.7170029,250.1297760,-101.1755753,-87.6106873
5540,16.1679611,-5.5688848,17.0155048,250.1297760,-118.5877838,-131.1526642
5550,15.2054968,-6.3398137,15.2845058,250.1297760,-126.2595444,-166.0686951
5560,14.1927547,-6.9551206,12.6532917,250.1297760,-122.3129807,-191.5343475
5570,13.0076313,-7.0700417,9.0452480,250.1297760,-103.6412201,-208.6717529
5580,11.6190014,-6.9359670,4.8434453,250.1297760,-82.0457993,-216.1832123
5590,10.7738523,-5.8106980,0.7398046,250.1297760,-61.7480927,-219.9847260
5600,9.8353300,-4.6351509,-2.1906834,250.1297760,-41.6717567,-222.7862549
5610,8.2168579,-3.8019729,-3.8929520,250.1297760,-26.6030540,-221.6641235
5620,7.0628591,-3.0430148,-4.7955613,250.1297760,-21.5419846,-215.8778687
5630,6.5983863,-1.9464760,-5.6383162,235.6106873,-29.8778629,-210.3740387
5640,6.1578555,-1.0893562,-6.2919297,204.5343475,-43.3282433,-209.1526642
5650,5.3198891,-0.6991033,-6.6630292,175.0534363,-63.7022896,-209.7480927
5660,4.5513539,-0.4668669,-6.7324610,148.6259613,-90.7786255,-208.3358765
5670,3.8522508,-0.1987177,-6.5912037,122.5648880,-118.4885483,-205.0152740
5680,3.5434003,0.1292862,-6.5864153,97.8396912,-140.6030579,-201.9694672
5690,2.6982515,0.2466015,-6.2919297,71.2900772,-157.9160309,-198.8854980
5700,1.5969244,0.1723816,-5.9735026,47.2290077,-170.6030579,-192.1221313
5710,0.7110743,0.3040621,-5.9184365,23.9007626,-183.8854980,-181.2290039
5720,0.1436514,0.5027798,-5.9998388,-0.7175573,-192.6106873,-168.3969421
5730,-0.2561783,0.4548960,-5.7987270,-28.2061062,-194.3282471,-154.6717529
5740,-0.7876883,0.5578461,-5.4156566,-55.8625946,-188.9236603,-141.0915985
5750,-1.6950861,0.4836263,-4.9751258,-82.1297684,-182.8625946,-125.1221390
5760,-2.4684093,0.5530578,-4.7740140,-106.8244247,-178.2900696,-106.4427490
5770,-2.8419030,0.7781116,-4.5034704,-132.8244324,-174.7557220,-86.7786255
5780,-3.1339941,0.8810617,-4.1419477,-158.5801544,-168.6335907,-68.8702316
5790,-3.4596038,0.8595140,-3.1866663,-183.2595367,-160.0305328,-50.2137413
5800,-3.6271970,0.6560079,-2.2026544,-205.8396912,-147.3740387,-31.3129768
5810,-3.4021432,0.5602403,-1.1228749,-226.6946564,-127.0152664,-12.3206110
5820,-2.9089401,0.6536137,-0.0790083,-247.1145020,-99.1755753,2.6259542
5830,-2.6695213,0.5530578,1.0223188,-250.1374054,-65.3740463,12.9236641
5840,-2.8682389,0.1915352,2.2936335,-250.1374054,-34.5725174,19.2442741
5850,-3.5146701,-0.4381367,3.4332676,-250.1374054,-11.6106873,25.1832066
5860,-4.5369892,-1.3407460,4.5752959,-250.1374054,-3.1526718,32.8549614
5870,-5.5856438,-2.5474176,6.2320752,-250.1374054,-17.5648861,44.0839691
5880,-6.1099715,-3.3542595,8.6597834,-250.1374054,-49.0992355,58.3969460
5890,-6.3039007,-3.9911139,12.2606440,-250.1374054,-82.2442780,75.6030502
5900,-6.4355812,-4.1754665,15.6196918,-250.1374054,-110.8167953,95.0534363
5910,-5.5976148,-3.7349355,17.8199520,-250.1374054,-121.6030502,117.7557220
5920,-4.9176650,-3.8714044,18.3155499,-229.7328186,-120.2290039,139.3740387
5930,-3.5817075,-3.2393384,18.7034073,-201.0229034,-105.6106873,158.3282471
5940,-2.2768741,-2.6192431,18.6698895,-178.5190887,-73.1145020,172.2671814
5950,-1.4365137,-2.1260402,17.7960110,-162.9694672,-34.8854980,182.0229034
5960,-0.3016679,-1.6328372,16.9652271,-155.2061005,2.3358779,187.1450348
5970,0.4740495,-1.1635761,16.3834381,-154.4885559,33.1221390,186.9770966
5980,0.6536137,-1.0917504,16.3044300,-155.3893127,50.6793900,184.0305328
5990,0.6991033,-0.8666966,16.7952385,-149.5038147,50.6793900,179.7404633
6000,1.1061156,-0.7254394,17.2812595,-136.8549652,34.1297722,173.9770966
6010,1.6184721,-0.4740495,17.7505207,-117.7251892,12.3893127,166.0000000
6020,2.1882892,-0.2537841,17.7409439,-96.7557220,-3.7862597,155.7786255
6030,2.4947455,-0.2322364,17.2812595,-79.6106873,-11.4122133,144.4198456
6040,2.2672975,-0.1747758,16.6922894,-68.5648880,-14.1755724,135.0229034
6050,2.6719155,-0.0119709,16.4408989,-60.6030540,-10.7557249,127.9312973
6060,2.7557120,-0.0837966,16.2230282,-53.7862587,-1.2137405,122.1603088
6070,2.1595588,-0.3663110,15.8040447,-46.7251892,3.2671757,121.3282471
6080,1.8531027,-0.6416427,15.5430775,-39.1145020,2.9007633,126.4274826
6090,2.3510940,-0.9457048,15.3371773,-30.7328243,1.5343511,133.6870270
6100,3.0406206,-1.0749911,15.1145182,-23.6870232,3.4503818,138.7557220
6110,3.5457945,-0.9744351,14.8679161,-16.4274807,7.1374044,141.4809113
6120,3.9887197,-0.9457048,14.3914728,-10.8091602,11.0458012,140.9007568
6130,4.1611013,-1.0414724,13.8886929,-6.8320613,13.5725193,137.4427490
6140,4.0030847,-0.9696468,13.5702658,-3.9007633,12.4427481,132.6259613
6150,3.5074875,-0.8690908,13.0986109,-0.9160305,7.4274807,126.5190811
6160,2.8873925,-0.8283895,12.8591919,1.8320611,0.7328244,122.1526718
6170,2.2337787,-1.0917504,12.5575237,5.0610685,-4.5954199,121.2595444
6180,1.6735384,-1.2976507,12.7083578,7.4122138,-9.1603050,124.5114517
6190,1.5346755,-1.5131277,13.1201582,11.6946564,-9.7480917,130.9694672
6200,1.6495966,-2.0015423,13.2278967,16.4732819,-7.4732823,139.0152740
6210,1.8866212,-2.4923513,13.5678720,17.5801525,-5.2442746,146.7328186
6220,2.3630650,-3.1004753,14.3340120,18.6030540,-1.5801526,153.2595367
6230,2.7365584,-3.6535332,15.4257622,24.1374054,2.5343511,159.9618378
6240,3.2728570,-4.3215117,16.2996426,34.9236641,5.8549619,166.5648804
6250,3.8618276,-5.0086441,16.8694592,51.0839691,4.9923663,173.3511505
6260,4.6902170,-5.8466105,16.9508610,70.1068726,-1.9847329,178.9770966
6270,5.4252334,-6.5912037,17.0609932,90.2977066,-18.3129768,183.2824402
6280,6.9455438,-7.0676475,17.5398312,112.4961853,-38.4656487,185.4045868
6290,9.6605549,-7.1873569,18.3131542,139.2061005,-49.5190849,181.8320618
6300,12.4641504,-6.6558466,18.8015690,169.9541931,-51.7938919,168.0839691
6310,14.1041698,-5.9423780,18.5022964,202.8549652,-50.6488533,144.0458069
6320,15.2485924,-5.2983413,17.8510761,235.9541931,-50.2595406,115.2748108
6330,15.7561607,-4.8649931,16.1296539,250.1297760,-51.0992355,81.4122162
6340,15.5670195,-4.6519103,13.9557304,250.1297760,-51.2061081,47.9236641
6350,15.5095596,-4.2425036,11.5232334,250.1297760,-49.2061081,17.4198475
6360,15.8303804,-3.4835455,8.5592270,250.1297760,-38.3893127,-11.3358774
6370,16.5007534,-2.4660151,5.2815819,250.1297760,-17.5801525,-41.7709923
6380,17.3435078,-1.2952565,2.5546002,250.1297760,7.8473282,-73.3358765
6390,17.3075962,-0.2489957,0.5267217,243.1603088,27.1450386,-107.4351120
6400,16.3355541,0.3280039,-0.7038917,204.1374054,32.3587799,-141.5343475
6410,14.7027178,0.1316804,-1.1204807,168.0839691,28.2748089,-169.2366486
6420,13.0363617,-0.1771700,-1.1348459,136.9007568,13.1984730,-189.2824402
6430,11.6692791,-0.2681492,-0.9050036,111.0763321,-12.3435116,-205.1984711
6440,10.6302013,-0.2178712,-0.4908088,89.5419846,-41.3969460,-220.2442780
6450,9.5983057,-0.3184272,0.0526722,71.7862625,-67.2290039,-232.9389343
6460,8.5209198,-0.4070122,0.4932030,57.9007645,-90.1908417,-243.0686951
6470,7.7116842,-0.3256098,0.8427547,46.6641235,-112.0076370,-250.1374054
6480,6.9814563,-0.2585725,0.7206510,35.2366409,-130.2290039,-250.1374054
6490,6.2631998,-0.2202654,0.4525018,21.7251911,-143.6946564,-250.1374054
6500,5.3629842,-0.2705434,0.5147507,5.1908398,-150.0992432,-250.1374054
6510,4.2855992,-0.2896969,0.7685348,-10.7099237,-150.7175598,-250.1374054
6520,3.3135581,-0.2346306,1.1970947,-25.3511448,-145.7099304,-250.1374054
6530,2.1404054,-0.1388630,1.2330076,-40.0152664,-134.0076294,-249.9847260
6540,0.9002152,-0.0143651,1.2306134,-57.2671738,-118.4045792,-237.2748108
6550,0.0670373,0.0837966,0.9720409,-77.0992355,-98.5343475,-223.5267181
6560,-0.8882443,0.0598547,1.1396341,-98.6870193,-79.7862625,-210.2366486
6570,-1.9919657,-0.1819584,1.7214222,-117.3893127,-67.6870193,-196.9541931
6580,-3.0071020,-0.4429250,2.1643472,-133.2977142,-63.6641235,-182.8854980
6590,-3.9599893,-0.6512195,2.8107784,-146.6717529,-69.8702316,-168.9007568
6600,-4.6303625,-0.7733232,3.6583214,-157.4809113,-86.8549652,-155.1755676
6610,-5.0421629,-1.0247130,4.7045822,-163.3282471,-106.0305328,-141.8320618
6620,-5.4922705,-1.5634058,6.1602492,-166.7557220,-125.7175598,-126.4198456
6630,-5.8322453,-1.7238164,7.3908629,-168.4580078,-139.1832123,-109.9847336
6640,-6.1434903,-2.2337787,8.7770987,-167.7251892,-144.2977142,-91.5038147
6650,-6.6390872,-2.7413468,9.8927908,-168.2213745,-141.1832123,-69.9160309
6660,-6.7947097,-2.9759774,11.1090393,-170.9618378,-128.0839691,-45.6412201
6670,-7.1921453,-3.0430148,12.7825775,-172.3053436,-106.7709961,-19.9923668
6680,-7.3046722,-3.1363883,14.2382450,-166.8931274,-79.7786255,6.2366414
6690,-7.8170285,-3.2824337,15.4161863,-153.8854980,-59.5877876,34.0763359
6700,-7.7859039,-2.9640064,15.8974180,-137.3664093,-48.7709923,61.7557259
6710,-7.2280579,-3.0956869,15.9476957,-119.9847336,-42.6793900,86.5954208
6720,-6.4188218,-2.6982515,15.2773228,-105.4045792,-40.3206100,108.8549652
6730,-5.5784616,-2.3846128,14.7051115,-95.0152664,-36.7099228,128.7709961
6740,-4.2784166,-2.0230901,14.4058380,-90.7862625,-29.7251911,144.8473358
6750,-3.1052637,-1.7908537,14.4393568,-88.6488571,-17.6564884,156.2824402
6760,-2.6814921,-1.9105632,14.9373484,-84.0457993,-4.9847326,166.1755676
6770,-2.6288199,-1.8267666,15.2677460,-76.9389343,1.7633588,176.9389343
6780,-2.4803803,-1.9057748,15.6172981,-65.9083939,3.5343511,187.8320618
6790,-2.2553265,-2.0039365,15.7058830,-51.1984749,1.8931298,199.9847260
6800,-2.0087249,-2.3175755,15.5215302,-36.5267181,-0.6106870,211.4732819
6810,-1.8100072,-2.4995339,15.0594521,-24.1526718,-3.7633588,223.4427490
6820,-1.4389079,-2.7006457,14.7146883,-13.5343513,-7.9847326,233.5343475
6830,-1.0342898,-2.7628946,14.6021614,-2.5343511,-15.5496187,241.2366486
6840,-0.8738791,-3.0190730,14.2717638,10.8702288,-26.9847336,248.9007568
6850,-0.4884146,-3.2417326,13.9078465,24.7709923,-41.1145020,250.1297760
6860,0.1484398,-3.5362179,13.2733860,39.3893127,-56.8015251,250.1297760
6870,1.3168042,-3.9575951,12.6844158,53.4809151,-70.3893127,250.1297760
6880,2.7940190,-4.1491303,12.2797976,66.1221390,-81.2290039,250.1297760
6890,4.6159973,-4.1227942,12.0212250,78.1755753,-87.4580154,250.1297760
6900,6.8737178,-3.8761928,11.5208397,89.9389343,-89.6259537,250.1297760
6910,10.1489687,-2.9544299,11.0443964,96.7633591,-82.1068726,250.1297760
6920,13.2446556,-1.5227045,10.4769726,95.0000000,-66.3129807,238.1908417
6930,14.7242651,-0.3782819,9.7036495,86.7709961,-51.7022896,199.3969421
6940,14.8272152,0.3184272,9.0524302,75.7633591,-43.5190849,157.4045868
6950,14.1568422,0.4213773,8.6933022,65.2290039,-40.5343513,118.8702316
6960,12.7945480,0.1867468,8.7579451,56.4809151,-41.5114517,86.7709961
6970,11.2000179,-0.1891410,9.0715837,53.1603050,-47.6641235,63.8702278
6980,10.0723553,-0.4860204,9.4833841,54.7633591,-55.2061081,48.7480927
6990,9.3277617,-0.3782819,9.8209648,58.2595406,-56.0000000,39.0916023
7000,8.8417416,-0.4620786,10.0316534,61.0000000,-48.2977104,33.5267181
7010,8.0516596,-0.2226596,10.4937325,62.0076332,-33.0610695,31.5648861
7020,7.5536675,-0.1316804,10.9175043,62.6946564,-14.9694653,31.5190830
7030,7.0963774,-0.0574605,11.1760759,62.2137413,-0.7633588,31.9923668
7040,6.4571290,-0.4716553,11.8344784,61.6412201,4.1679387,34.0916023
7050,6.0118098,-0.5195391,12.3659887,63.6641235,-0.2519084,38.0763359
7060,5.7460546,-0.6392486,13.2997227,69.5801544,-11.0610685,45.6335869
7070,6.0357518,-0.4189832,14.3435888,79.8320618,-23.0076332,52.9465637
7080,6.9934273,-0.4357425,15.3156300,92.4427490,-35.5648842,57.4503822
7090,8.6023226,-0.4740495,16.3307667,109.2290039,-45.4045792,55.3053436
7100,10.0555954,-0.4572902,16.7305965,129.6870270,-51.3282433,46.3816795
7110,11.5663290,-0.4644727,16.5486374,151.0152740,-49.8015251,32.8091621
7120,12.6987810,-0.2394189,15.6172981,170.5496216,-43.0610695,16.0610695
7130,13.6851873,-0.2873027,14.2430334,185.0381622,-31.9236641,-3.8396947
7140,14.2143030,-0.2777260,12.7514534,194.4809113,-15.8854961,-25.0076332
7150,14.0562859,-0.2489957,11.7602587,199.6030579,-5.6870227,-46.3206100
7160,14.6308918,-0.6584021,10.3572636,202.8320618,5.3740458,-67.0000000
7170,15.1240950,-0.9097920,9.6366129,206.7633514,12.5267172,-87.9847336
7180,15.4233685,-0.8188128,8.4514885,210.6488495,18.7938938,-109.2748108
7190,15.6172981,-0.7829000,6.7947097,209.7480927,24.2900772,-131.0763397
7200,15.7633438,-0.6320660,5.2767935,201.6488495,27.7557259,-154.8320618
7210,15.6987000,-0.3447633,4.2712340,189.9618378,28.9770985,-181.1679382
7220,15.6005383,-0.4070122,3.3662305,177.3053436,27.5190830,-210.1526642
7230,14.8391867,-0.5626345,2.3630650,163.0381622,23.5648861,-239.6717529
7240,13.5175934,-1.0127422,1.6352314,146.0610657,13.1832066,-250.1374054
7250,11.5783005,-1.4963684,1.0558375,129.8854980,2.1221373,-250.1374054
7260,9.2966375,-2.0159075,0.6775556,115.3053436,-8.8778629,-250.1374054
7270,6.5744443,-2.4157372,0.1747758,100.6870193,-24.2290077,-250.1374054
7280,4.2448978,-2.4013720,-0.2011119,87.3129807,-40.4885483,-250.1374054
7290,2.7964132,-1.9895715,-0.5578461,73.3358765,-59.8778610,-250.1374054
7300,1.6376256,-1.4580613,-0.6703730,60.6259537,-76.9083939,-250.1374054
7310,0.7278336,-0.7374104,-0.7589580,48.5725174,-91.6183243,-243.2519073
7320,0.0742199,-0.2274480,-1.0965388,36.3893127,-106.1908417,-225.4274750
7330,-0.6105183,0.2633608,-1.3287752,22.1679382,-118.3129807,-206.9923706
7340,-1.0438666,0.6368544,-1.9512644,5.5801525,-128.2748108,-188.0610657
7350,-1.1037214,1.2713146,-2.2050486,-16.2977104,-134.8702240,-170.7404633
7360,-1.2761030,1.5538290,-2.5067163,-40.8931313,-137.6488495,-155.6564941
7370,-1.5155219,1.5227045,-2.5378408,-68.0916061,-137.1526642,-141.0686951
7380,-1.8171898,1.8004304,-2.3175755,-94.9923630,-136.1221313,-126.8244247
7390,-1.9273225,1.6424140,-1.9632354,-122.1603088,-134.1832123,-112.8854980
7400,-2.4013720,1.3958124,-1.5562232,-148.9770966,-129.3511505,-98.0381699
7410,-2.6144550,1.2521610,-0.7493813,-174.7175598,-123.3893127,-83.0839691
7420,-2.5354466,1.0654143,0.4932030,-197.8931274,-116.3740463,-70.9007645
7430,-2.1523764,0.8499373,1.9488702,-216.2366486,-107.0916061,-61.6870232
7440,-1.4867916,0.5339043,3.5338237,-230.3664093,-94.4122162,-57.6793900
7450,-1.7836711,0.0047884,5.0708933,-241.2366486,-79.4503784,-56.3129768
7460,-2.5162930,-0.6631905,7.0628591,-246.1450348,-67.0992355,-52.7022896
7470,-3.3207407,-1.1731528,9.3253679,-242.8396912,-60.3282433,-45.6030540
7480,-4.4747400,-1.5610116,11.1497402,-230.5877838,-65.0381699,-36.2595406
7490,-5.9447722,-1.9416877,12.8400383,-209.5725250,-82.8244247,-20.9236641
7500,-6.7611909,-1.9201399,14.0586805,-182.0992432,-102.6870193,0.2061069
7510,-6.7707677,-1.5514348,14.1544485,-154.0381622,-117.9923630,24.3282452
7520,-5.9208307,-1.2713146,13.4768925,-133.7175598,-121.9312973,48.2900772
7530,-4.6375451,-0.8882443,12.4809093,-128.2748108,-110.6030502,69.3053436
7540,-3.1507533,-0.5650287,12.2007895,-132.4427490,-86.9312973,85.4656525
7550,-1.9656296,-0.1077385,12.6915979,-140.0915985,-57.8854980,95.0534363
7560,-1.5801650,0.1675933,13.3930960,-146.2061005,-30.4122143,101.6030502
7570,-1.7956421,0.0742199,14.3172531,-146.0686951,-12.3358774,109.1221390
7580,-1.8147956,0.1077385,14.9086180,-138.7938995,-3.9618320,116.6641235
7590,-0.8116302,0.1125269,15.3515425,-128.2290039,-0.7404580,121.8015289
7600,-0.2154770,0.3974355,15.4784346,-116.6106873,0.0763359,123.5725174
7610,0.0766141,0.5578461,15.5478659,-104.4274826,-2.9389312,123.0763321
7620,0.3399749,0.6464311,15.2054968,-93.1908417,-7.7557254,122.4274826
7630,1.2689204,0.8116302,15.1432486,-83.9694672,-9.3358774,121.2137375
7640,2.0111191,0.9744351,15.3299952,-76.7480927,-6.7251906,117.5954208
7650,2.3678534,0.9385223,15.3084478,-69.0229034,-1.4961832,113.7480927
7660,2.5857246,0.7398046,15.1456423,-62.1832047,4.2595420,111.3282471
7670,2.5761478,0.6416427,14.8894644,-56.2900772,7.3816795,109.6106873
7680,2.4588325,0.6368544,15.1049414,-50.3435097,8.5114508,108.2290039
7690,2.2122312,0.4908088,15.1839495,-41.5801544,7.4809160,107.3740463
7700,1.8961980,0.2035061,15.0115681,-31.0000000,3.8167939,108.1908417
7710,1.5203103,-0.1580165,14.6691990,-20.8015270,-1.7786260,111.8320618
7720,1.6065011,-0.0335187,14.3747139,-10.8702288,-6.5725193,116.1374054
7730,1.8004304,-0.1556223,13.9461536,-1.9007634,-9.1755724,120.6335907
7740,2.0637913,-0.2561783,13.2805691,4.9160304,-8.9541988,125.9236679
7750,2.3630650,-0.1939293,12.7251167,7.0992365,-3.9160306,131.3740387
7760,2.6360025,-0.0454896,12.7011747,7.9923663,4.2977099,135.9847260
7770,2.9592183,0.0454896,12.4904861,7.3053436,15.5267172,139.2977142
7780,3.2225790,0.1532281,12.4545736,3.7099237,28.5190830,140.4274750
7790,3.3566537,0.1771700,12.9046812,-0.9007633,42.6259537,139.7786255
7800,3.2608860,0.1268920,13.4721041,-4.6717558,52.9007645,136.2824402
7810,2.8634505,-0.0407012,14.1903610,-4.8091602,57.5877876,131.8015289
7820,2.1930776,-0.3040621,15.1839495,2.3206108,54.3816795,128.1450348
7830,1.3742647,-0.6536137,15.3180237,11.0229006,47.3969460,128.0381622
7840,0.6129125,-0.9816177,15.1647959,19.3893127,42.0687027,130.6793823
7850,-0.1915352,-1.1300575,15.2749290,27.6641216,35.0763359,136.6564941
7860,-0.8427547,-1.5179161,15.0379038,33.7938919,26.3587780,145.6030579
7870,-1.0702027,-2.0470319,15.2294388,38.9465637,16.5954189,159.9923706
7880,-0.3902529,-2.7820482,15.6412401,45.9923668,8.2671757,176.2137451
7890,0.7062859,-3.6918402,16.0458584,53.3129768,3.7862597,191.9313049
7900,2.5857246,-4.0844874,16.5941277,57.2748108,3.7786260,203.1755676
7910,4.5992379,-4.4675574,18.0521889,65.6870193,4.4274807,207.7633514
7920,6.0333576,-4.3693957,19.2995605,82.0229034,5.8549619,206.2442780
7930,7.4938130,-4.4005203,19.4503956,103.0457993,4.7099237,199.6641235
7940,9.2966375,-4.7716198,18.9524040,125.5877838,0.6412213,186.9389343
7950,10.7331514,-5.3845320,18.7584743,145.6641235,-12.1221371,165.6488495
7960,11.4801388,-5.6095858,18.4855366,167.5114441,-31.4809170,136.9847260
7970,11.5495701,-5.6598639,18.0378227,192.4045868,-55.5954208,107.4961853
7980,12.0595322,-5.6095858,17.2836533,218.9770966,-78.5954208,77.5114517
7990,12.6149845,-5.2959471,16.1942978,242.4198456,-97.2748108,46.4961815
8000,13.0435438,-5.2576399,14.6045561,250.1297760,-102.2213745,13.6488552
8010,12.7849712,-5.0301919,13.2781744,250.1297760,-101.5572510,-15.9160309
8020,12.3779593,-5.1427188,11.8464499,250.1297760,-92.5419846,-39.7251892
8030,12.2678270,-5.2624283,10.5847120,250.1297760,-78.0534363,-57.9694672
8040,12.4617558,-4.9344244,9.0739784,250.1297760,-60.1221390,-72.1984711
8050,12.9980545,-4.4292507,7.5177550,250.1297760,-41.0916023,-87.2671738
8060,13.3595772,-3.9528067,5.6957769,250.1297760,-23.9770985,-103.9542007
8070,13.6181498,-3.4404502,4.2113791,250.1297760,-12.6106873,-121.4580154
8080,13.2685976,-2.9233053,2.8442972,246.1526642,-8.7786255,-139.8702240
8090,12.3923244,-2.4564383,1.5394639,231.5954132,-16.2366409,-158.0610657
8100,11.5639353,-2.2625091,0.5913648,216.5038147,-32.2671738,-173.8396912
8110,11.0348196,-1.7884595,0.0071826,201.3435059,-54.4732819,-188.8320618
8120,10.4769726,-1.5346755,-0.6536137,187.0000000,-77.9160309,-204.2748108
8130,9.3157911,-1.4580613,-0.8451489,173.1068726,-104.6564865,-218.8702240
8140,8.2719250,-1.4891858,-0.8978211,161.2748108,-133.1221313,-229.8854980
8150,7.1873569,-1.5729824,-1.0749911,149.9160309,-163.0305328,-237.5877838
8160,6.1650376,-1.4580613,-1.2234308,139.5267181,-188.2519073,-242.0839691
8170,5.1139889,-1.3742647,-1.3910241,126.7404556,-208.3358765,-243.6259613
8180,3.9528067,-1.2282192,-1.8554969,111.8931274,-220.9313049,-240.9847260
8190,2.7964132,-1.0462608,-2.7006457,91.5343475,-224.9694672,-233.8702240
8200,1.7932479,-0.8499373,-3.4189026,63.5725174,-220.5648804,-222.0610657
8210,1.0175306,-0.6248835,-3.7636659,29.1145039,-205.0839691,-206.7557220
8220,0.0095768,-0.5817881,-3.9767487,-7.9618320,-180.9389343,-188.5496216
8230,-1.2377959,-0.5003856,-4.0916696,-45.7099228,-157.2442780,-165.9694672
8240,-1.9153515,0.0239419,-4.0988522,-82.7175598,-137.1603088,-142.5419922
8250,-2.0877333,0.3495516,-3.3973548,-117.6412201,-119.4045792,-122.7404556
8260,-2.6623387,0.2633608,-2.1116750,-148.0381622,-109.6946564,-105.3435135
8270,-3.3925664,-0.0694315,-0.2513899,-168.9007568,-109.1679382,-87.2595444
8280,-3.7876077,-0.1963235,1.2497669,-179.6564941,-113.2824402,-68.9542007
8290,-3.6559272,-0.3423691,2.6120608,-184.7328186,-117.9312973,-51.6335869
8300,-3.5625539,-0.4501076,3.5697365,-186.9389343,-122.3893127,-36.9007645
8310,-3.5362179,-0.4094064,4.5752959,-188.9389343,-124.6030502,-22.5801525
8320,-3.4356618,-0.2729376,5.4515696,-190.4122162,-122.9542007,-10.1374044
8330,-3.4667864,-0.1173153,6.4092450,-192.0305328,-118.5725174,-0.4045801
8340,-3.3590479,0.0430954,7.1825686,-193.7022858,-113.2213745,6.1908398
8350,-3.3255291,0.0790083,7.7906923,-197.4503784,-103.9694672,10.8396950
8360,-3.3925664,-0.0167593,8.7387915,-201.8091583,-92.1297684,13.8244276
8370,-3.6439564,-0.3591284,9.5552101,-204.9084015,-82.0534363,18.0381680
8380,-3.9288650,-0.7110743,10.6254129,-205.7938995,-74.2519073,25.4656487
8390,-4.2257442,-0.6703730,11.7578640,-203.6412201,-69.0000000,34.1526718
8400,-4.3095412,-0.3280039,12.9860840,-197.0152740,-65.1450348,45.3969460
8410,-3.6248028,-0.0454896,14.0993814,-188.1755676,-60.1679382,56.4580154
8420,-2.7389526,0.2202654,15.0570574,-178.0534363,-52.2290077,64.6717529
8430,-2.0302727,0.5458752,15.8495340,-167.0229034,-43.3969460,69.8778610
8440,-1.4101776,0.6081241,16.2996426,-155.5190887,-33.1221390,72.9618301
8450,-1.0989330,1.0103480,16.4768124,-144.2213745,-22.3053436,74.9694672
8460,-0.7374104,1.3431402,16.6420116,-134.7328186,-10.4580154,76.9465637
8470,-0.6751614,1.5921360,16.5606079,-124.0000000,1.3587786,77.8015289
8480,-0.9026094,1.8459201,16.3068237,-113.5267181,8.8167934,79.7786255
8490,-1.0438666,2.0781565,15.6987000,-105.3435135,12.0610685,81.1603088
8500,-1.1947005,2.2074428,14.7913027,-100.5648880,14.3740454,82.5954208
8510,-1.4867916,2.1164634,14.1951494,-99.4198456,14.5114508,84.6793900
8520,-1.6902977,1.8961980,13.3021164,-101.2442780,16.7480907,88.9618301
8530,-1.7214222,1.8650736,13.5678720,-107.0763321,11.0839691,95.6106873
8540,-1.4532729,1.4915800,14.8415804,-106.0610657,7.5801525,99.8625946
8550,-1.1683644,1.0510491,15.9692440,-96.0687027,3.0916030,106.4885483
8560,-0.6464311,1.0199248,16.6013088,-82.2213745,1.7022901,111.0000000
8570,-0.1532281,0.9552816,16.6803188,-67.3893127,4.1755724,113.3358765
8580,0.1723816,0.6536137,16.4624462,-54.1984749,9.2824430,113.3893127
8590,-0.3351865,0.4237715,15.6268749,-43.4045792,9.6870232,114.6030502
8600,-1.0342898,-0.1963235,15.0259333,-36.0381660,2.9236641,120.6106873
8610,-1.1947005,-0.7517755,14.8343983,-29.1145039,-8.8015270,131.5343475
8620,-0.9385223,-1.0678085,14.8367920,-21.6335869,-22.1755733,144.3435059
8630,-0.3423691,-1.3239868,15.1647959,-14.4274807,-32.1068687,157.3511505
8640,0.5434810,-1.2258250,15.5909615,-6.0152674,-34.6259537,168.7328186
8650,1.6926919,-1.2258250,16.0865593,1.6641221,-26.1145039,177.2366486
8660,2.8012016,-1.2138541,16.4672356,7.0916033,-9.6030531,180.4809113
8670,3.0214672,-1.0821736,16.8287582,8.8778629,14.4045801,182.3740387
8680,2.8969693,-1.3479286,17.2525291,9.6259546,40.1755714,184.8244324
8690,2.4995339,-1.7333932,17.8510761,11.3435116,58.4351158,188.1297760
8700,2.2002602,-2.5761478,18.8135414,15.7786255,64.8396912,194.3282471
8710,2.3439114,-3.6008608,19.6126022,24.9007626,64.5496216,202.1068726
8720,2.6767037,-4.2879934,19.6126022,42.0381660,57.8320618,209.2671814
8730,2.8083842,-5.0900469,19.6126022,69.0381699,37.7022896,215.5190887
8740,3.2321558,-6.0213866,19.6126022,99.1603088,11.3664122,221.7709961
8750,3.9456241,-7.0317345,19.6126022,125.7480927,-20.6717548,230.5343475
8760,5.4587522,-8.0803890,19.6126022,154.9770966,-56.0687027,240.5496216
8770,7.9774394,-8.9686337,19.6126022,187.7633514,-88.0457993,248.0915985
8780,11.1377697,-9.1793222,19.5533447,223.7022858,-110.6717529,246.6183167
8790,14.0706511,-8.9470863,18.5908813,250.1297760,-126.0305328,232.2366486
8800,16.5845509,-7.8792777,17.5230732,250.1297760,-128.9389343,206.4656525
8810,18.9811344,-6.2919297,15.7609491,250.1297760,-120.5343475,167.4580078
8820,19.6126022,-4.7189474,13.5415354,250.1297760,-105.0839691,119.4122162
8830,19.6126022,-3.5769191,11.2694502,250.1297760,-85.8320618,68.5419846
8840,19.6126022,-2.8826041,8.8776541,250.1297760,-62.0916023,18.6030540
8850,19.1439381,-2.7006457,6.5528965,250.1297760,-43.3511467,-27.1145039
8860,17.7313671,-2.6958573,4.9751258,250.1297760,-35.0381660,-67.4427490
8870,16.4504757,-3.0238612,4.0844874,250.1297760,-32.8625946,-99.0229034
8880,15.5981445,-3.0741394,3.5984666,250.1297760,-29.7786255,-123.3358765
8890,14.8918581,-2.9951310,2.8897867,249.3740387,-27.8396950,-143.3129730
8900,14.4130201,-2.7245877,2.1068866,236.4580078,-28.9236641,-161.7786255
8910,13.9653072,-2.3199697,1.2593436,221.9541931,-28.7633591,-181.0229034
8920,12.9741125,-2.1356170,0.4165890,205.4045868,-29.6259537,-200.0839691
8930,11.6908274,-2.0566087,-0.3232156,188.6183167,-33.7251892,-216.5496216
8940,10.5344334,-1.9105632,-0.7206510,172.7175598,-45.6259537,-229.5496216
8950,9.5983057,-1.8315549,-0.9792235,159.3435059,-61.4427490,-240.5267181
8960,8.7076674,-1.6136837,-1.1468167,148.6641235,-81.5572510,-250.1374054
8970,7.6853480,-1.6663558,-1.4125718,139.7099304,-104.5572510,-250.1374054
8980,7.0077925,-1.5681942,-1.5681942,130.4122162,-128.4122162,-250.1374054
8990,6.1578555,-1.4556671,-1.8866212,119.1679382,-148.3358765,-250.1374054
9000,4.7500720,-1.4197544,-2.3965836,105.4656525,-165.6641235,-250.1374054
9010,3.0573800,-1.3862357,-2.7102225,88.1526718,-182.5954132,-250.1374054
9020,1.4676381,-1.2976507,-3.1507533,67.1526718,-193.8320618,-250.1374054
9030,0.0909792,-1.1516051,-3.5290353,41.7557259,-198.7557220,-250.1374054
9040,-0.9169745,-0.7230452,-3.4452386,13.4503813,-197.1450348,-234.7328186
9050,-1.8507085,-0.3782819,-3.3853838,-15.2977095,-190.9770966,-215.2366486
9060,-2.6264257,-0.1101327,-3.1507533,-46.0839691,-182.3206177,-193.0610657
9070,-2.9640064,0.1364688,-2.8921809,-77.3740463,-168.0000000,-170.0458069
9080,-2.9328821,0.4309541,-2.2433555,-108.2442780,-148.0534363,-148.0610657
9090,-3.0932927,0.5482694,-1.5610116,-137.2061005,-125.8320618,-128.7938995
9100,-3.4236910,0.6823440,-0.5793939,-162.0839691,-107.1450348,-111.8931274
9110,-3.8067613,0.6751614,0.4525018,-183.2595367,-93.5419846,-96.4503784
9120,-4.1371593,0.4884146,1.7932479,-197.8549652,-88.0457993,-82.5496216
9130,-4.3334827,0.2370248,2.9807658,-205.8931274,-94.1755753,-70.6717529
9140,-4.6590929,-0.0861908,4.5872669,-205.2671814,-109.0610657,-60.0076332
9150,-4.9128766,-0.2537841,5.9040713,-197.9541931,-129.2824402,-47.6335869
9160,-5.1044121,-0.3806761,6.9000540,-187.8702240,-147.8702240,-34.1374054
9170,-5.2624283,-0.3591284,7.4626884,-177.5954132,-162.8320618,-20.4045811
9180,-5.1690550,-0.0430954,7.7811155,-171.0229034,-166.6488495,-6.2290077
9190,-5.1762376,0.1771700,7.9894104,-170.2442780,-160.7251892,9.8702288
9200,-5.0301919,0.2657550,8.4036045,-174.8473358,-145.7786255,26.7557259
9210,-4.9918852,0.0359128,8.8058290,-182.3816833,-127.9236679,44.4351158
9220,-4.7883787,-0.3758878,9.3445215,-190.8320618,-112.4732819,62.8931313
9230,-4.6279683,-0.6440369,9.9789820,-195.8015289,-101.9923630,81.5648880
9240,-3.8833754,-0.7206510,10.7906122,-197.3816833,-95.4961853,98.0000000
9250,-2.8610563,-1.0606259,11.8895445,-195.0000000,-90.7328262,111.7480927
9260,-2.0805507,-0.4572902,12.9142580,-188.8091583,-80.8549652,122.8396912
9270,-0.9480990,-0.4692611,13.1728306,-178.6183167,-65.1221390,130.0610657
9280,-0.3016679,0.0550664,13.4098549,-170.7099304,-55.5572510,132.1832123
9290,0.3471575,0.5554519,13.6899757,-166.8625946,-38.4122124,130.8778687
9300,0.6129125,0.4764437,14.0850163,-164.2748108,-18.2595425,127.2061081
9310,0.1268920,0.4644727,14.4441452,-160.0534363,0.7099237,125.6564865
9320,-0.2729376,0.3399749,14.6715927,-154.4427490,13.7480917,127.2442780
9330,-0.3160330,0.4668669,15.0953646,-148.3129730,20.7022896,128.7633514
9340,-0.5315101,0.3399749,15.8854465,-139.4656525,15.9007635,129.3358765
9350,-0.7038917,0.3950413,16.8574886,-125.2061081,2.6259542,129.6412201
9360,-0.7948709,0.4501076,17.2214050,-107.4809189,-12.6106873,128.8320618
9370,-1.1109039,0.4453192,17.2597122,-91.9618301,-26.1526718,128.9541931
9380,-1.2808913,0.0311245,17.4991302,-78.5648880,-34.8778610,135.6412201
9390,-0.9433106,-0.2920911,17.9372673,-64.5801544,-36.1832047,148.0534363
9400,-0.0742199,-0.4572902,18.0162754,-48.8091621,-32.2671738,160.6793823
9410,1.0462608,-0.2513899,17.7289734,-34.4351158,-24.0992374,170.3129730
9420,2.1356170,-0.1364688,17.5206776,-21.8320618,-12.0687027,174.3969421
9430,2.8897867,-0.0454896,16.8263626,-10.8473282,0.2290076,173.0534363
9440,2.9424589,0.0023942,15.9620609,-1.0839695,5.3129773,167.8549652
9450,2.8490853,-0.2513899,14.8535509,7.0534353,1.8091604,162.6106873
9460,2.5210814,-0.5075682,14.3268299,14.4809160,-11.4885492,159.0534363
9470,2.9616125,-0.7206510,14.3268299,21.6183205,-28.0152664,156.7099304
9480,3.9288650,-0.9983770,14.6500454,29.9541988,-38.1145020,151.8549652
9490,4.4771342,-1.1468167,15.1624022,38.6335869,-37.8778610,146.8702240
9500,5.3510137,-1.1875180,15.5287132,48.1603050,-26.1832066,141.2748108
9510,5.7436604,-1.0390782,15.2318335,53.0687027,-3.0458016,133.7938995
9520,5.2815819,-1.3144100,14.9421368,49.8931313,22.6793900,127.3587799
9530,4.2736282,-1.8626794,15.2940826,46.8015251,41.0534363,126.9160309
9540,3.3542595,-2.2577207,16.0267048,47.9694672,48.9236641,132.5725250
9550,2.7628946,-2.4636209,16.9460735,55.1984749,46.5877876,140.7557220
9560,2.5617826,-2.7940190,17.7289734,65.2061081,39.1450386,149.7328186
9570,2.8107784,-3.1339941,18.3155499,77.7633591,35.3893127,160.5343475
9580,3.5146701,-3.3638363,18.5789108,90.9312973,34.9236641,169.5343475
9590,3.9647777,-3.7660601,18.8973370,103.2366409,31.0687027,178.3358765
9600,5.1068063,-3.9504125,19.1319675,121.1908417,26.4045811,186.9770966
9610,6.3278427,-3.9480183,18.6651001,140.8244324,21.7175579,192.4198456
9620,7.6829538,-3.9288650,17.8127689,159.1221313,14.9236641,193.7480927
9630,8.9351149,-3.9815371,17.1064835,175.6946564,5.5343513,190.6946564
9640,10.7355452,-3.7062054,16.2996426,191.9313049,-5.8549619,181.1984711
9650,12.0379848,-3.2106080,15.6795464,206.3816833,-19.4503822,165.2213745
9660,13.7234936,-2.9448531,14.4968176,218.7938995,-26.7328243,142.8091583
9670,14.7673607,-2.3175755,13.5774488,227.1908417,-33.0916023,114.5496216
9680,15.5742025,-1.8890154,12.6676559,233.8015289,-33.3358765,83.4580154
9690,15.5478659,-1.7477583,11.5040808,237.6946564,-30.3129768,51.2748108
9700,15.1743727,-1.4796091,10.2447367,238.2748108,-28.4961834,22.1297703
9710,14.6189203,-1.5562232,9.1984758,236.1297760,-29.5343513,-4.6717558
9720,14.3411951,-1.4796091,8.6454182,233.6030579,-34.4809151,-29.0610695
9730,13.9174232,-1.5322813,7.7643566,233.2366486,-35.3587799,-50.8702278
9740,13.1608591,-1.5490406,6.6342988,231.1450348,-37.7938919,-68.8702316
9750,12.4234495,-1.4724265,5.2145448,226.1832123,-42.8854980,-84.3587799
9760,11.8943329,-1.1587877,3.9121056,217.2519073,-50.5419846,-98.2900772
9770,11.4801388,-0.8523315,2.9544299,205.9465637,-61.4351158,-111.6030502
9780,11.1138277,-0.6009415,2.0757623,193.3206177,-72.0687027,-125.5648880
9790,10.5535870,-0.3208214,1.4484847,179.9847260,-83.1832047,-138.4351196
9800,9.9837704,-0.0814024,0.9672526,166.1832123,-92.7099228,-149.8473358
9810,9.2463598,-0.1197095,0.6703730,152.0152740,-100.7786255,-159.7786255
9820,8.5017672,0.0311245,0.3758878,138.7709961,-110.6641235,-167.3129730
9830,7.7930865,0.0909792,0.0143651,126.9083939,-119.3511429,-172.4885559
9840,7.0460997,0.1292862,-0.2011119,115.0534363,-128.7480927,-175.2824402
9850,6.5576849,0.1987177,-0.7493813,102.6335907,-135.0000000,-176.6946564
9860,5.8849177,0.3136388,-1.4532729,86.3893127,-137.8396912,-176.1603088
9870,5.1594782,0.4740495,-1.9967541,65.0763321,-135.6412201,-172.8854980
9880,4.5633249,0.6416427,-2.0949159,41.9923668,-129.7404633,-168.3511505
9890,3.7660601,0.6416427,-2.1763182,18.7175579,-121.8854980,-162.7022858
9900,2.9328821,0.6727672,-2.3319404,-4.6488547,-113.8625946,-155.0381622
9910,2.1906834,0.8068419,-2.3079987,-28.8167934,-106.7633591,-145.2137451
9920,1.7333932,0.8068419,-2.1978660,-52.0610695,-100.3893127,-136.1679382
9930,1.2354017,0.7757174,-1.8674678,-74.6870193,-96.0305328,-126.7099228
9940,0.4860204,0.6272776,-1.6352314,-94.5954208,-94.5496216,-115.9236679
9950,0.1628049,0.5147507,-1.2713146,-113.6488571,-97.4503784,-105.3129807
9960,-0.0143651,0.3160330,-0.5123565,-128.8625946,-106.2137375,-98.0839691
9970,-0.0191535,0.0119709,0.2011119,-139.8091583,-117.1526718,-93.1221390
9980,-0.3375807,-0.2633608,1.1779412,-146.6488495,-129.5648804,-88.8167953
9990,-0.8571198,-0.3687052,1.9081690,-148.8091583,-145.5801544,-82.3511429
