timestamp,acclX,acclY,acclZ,gyroX,gyroY,gyroZ
0,3.0956869,0.1628049,9.3517036,-1.4580153,-1.5648855,7.8931298
10,3.2010312,-0.0646431,9.8616667,0.7328244,-5.3511453,6.6870227
20,3.0382264,-0.2226596,10.7235746,7.7557254,0.2519084,9.5725193
30,2.9975252,-0.2154770,10.7810354,10.3053436,1.9770992,10.3587790
40,3.1100521,-0.1508339,10.5966825,12.0229006,3.4274809,10.4732828
50,3.0334380,-0.0790083,10.4697905,12.3206110,4.3053436,10.0763359
60,2.4875629,0.0263361,9.9287033,14.1374044,4.4732823,10.3969469
70,2.3295465,0.0095768,9.8592720,13.7862597,3.4198472,10.9236641
80,2.2050486,0.0502780,9.7012558,13.7404585,3.1221373,11.7175570
90,2.0350611,0.0239419,9.5528164,13.7786255,1.8244275,12.7251911
100,1.7070571,0.1053443,9.2128410,12.5190840,1.2137405,15.0229006
110,1.6615674,0.0430954,8.9303265,9.1068707,1.6564885,16.5496178
120,1.4843974,0.1843526,8.7675219,4.7480917,1.3435115,17.9312973
130,1.3862357,0.2250538,8.6789370,0.1679389,2.3511450,19.0992374
140,1.3455344,0.2753318,8.7196379,-4.6564884,3.7251909,20.4961834
150,0.8547257,0.3232156,10.0484133,-27.4580154,2.9618320,30.2519093
160,0.6823440,0.4788379,10.1848822,-28.5801525,4.0381680,34.4503822
170,0.4908088,0.7038917,10.2447367,-29.6717548,5.6717558,38.9694672
180,0.4237715,1.1204807,10.3428984,-31.7099228,9.5801525,43.2900772
190,0.2082945,1.4508789,10.2734671,-34.4580154,13.2061071,45.9083977
200,-0.1101327,1.6591733,10.4554253,-36.8778610,14.5877867,47.7099228
210,-0.4596844,1.9009864,10.5655584,-38.9389305,10.3129768,47.4809151
220,-0.9073978,2.0494261,10.9749641,-40.4732819,2.8931298,47.1984749
230,-1.3886299,2.1619530,11.7746239,-40.1374054,-6.3206105,46.5419846
240,-1.8100072,2.1260402,12.6844158,-37.8931313,-15.4809160,46.4656487
250,-2.2337787,1.7142396,13.5535069,-33.3664131,-22.7175579,47.3740463
260,-2.8562679,1.1923064,14.2430334,-28.3435116,-27.7099228,51.0305328
270,-3.2225790,0.6607963,15.1671906,-23.5419846,-29.2748089,57.7175560
280,-4.1036406,-0.3399749,15.8375635,-19.7480907,-33.3816795,68.5648880
290,-4.5633249,-0.8643024,17.5733509,-11.7404585,-41.6106873,85.8244247
300,-4.4938936,-1.5825592,19.1199970,6.8167939,-40.2519073,107.9389343
310,-4.0150557,-2.2002602,19.5868645,29.7938938,-34.0763359,131.3511505
320,-3.3087699,-2.3199697,19.4049053,50.9236641,-20.3282452,153.6488495
330,-2.1188576,-2.6743097,18.6028519,66.1908417,1.5419847,173.5496216
340,-0.9121862,-3.3901722,17.4273052,74.5496216,23.1832066,188.4274750
350,-0.2226596,-3.6942344,16.5797615,78.5267181,33.2290077,198.8320618
360,0.6177009,-4.1036406,16.2709122,83.9542007,29.0000000,206.2671814
370,1.7836711,-4.5106530,16.0913467,90.2977066,15.1679392,209.6946564
380,3.0669568,-4.6973996,16.0793762,96.9160309,-2.9236641,208.0839691
390,4.3741841,-4.8147149,16.2709122,106.4885483,-20.3282452,201.7709961
400,5.6502872,-5.0828643,16.4217453,117.2290039,-34.6259537,192.2290039
410,6.9694853,-5.2528515,16.5845509,130.2366486,-45.0916023,181.0381622
420,8.2288294,-5.2911587,16.4744167,144.8625946,-53.4961815,167.1832123
430,9.3397331,-5.2456689,16.3140068,160.6717529,-62.2366409,150.9541931
440,10.4314833,-5.2408805,15.9285421,176.8244324,-71.2519073,131.4503784
450,11.5136566,-5.2025738,15.3084478,192.4503784,-77.6488571,109.1755753
460,12.2917690,-5.0038562,14.7122946,207.6106873,-82.6183243,85.0839691
470,12.9980545,-4.9583664,14.3699255,220.5954132,-85.6641235,60.1908379
480,13.3500004,-4.9392128,13.9868546,232.6870270,-88.2900772,35.0839691
490,13.6971579,-4.9463954,13.8862991,246.4351196,-89.6183243,10.8091602
500,13.5271702,-5.1475072,13.6157551,250.1297760,-93.6564865,-11.6717558
510,13.4218264,-5.3701668,13.5080166,250.1297760,-100.5877838,-33.3969460
520,13.2111378,-5.4802995,12.6389265,250.1297760,-103.2519073,-53.5343513
530,13.1943779,-5.4635406,10.7858238,250.1297760,-102.2213745,-69.5419846
540,13.4912577,-5.2169390,7.9846220,250.1297760,-104.6488571,-82.2519073
550,14.2047262,-4.3358769,4.9918852,250.1297760,-110.1984711,-94.9236679
560,14.6572275,-3.4596038,2.4755919,250.1297760,-120.0687027,-107.5419846
570,15.5071650,-2.2050486,1.1803354,250.1297760,-138.5648804,-119.6641235
580,16.9125538,-0.8547257,0.8810617,237.5801544,-151.5343475,-134.0305328
590,18.3442802,0.0861908,0.9480990,209.6946564,-149.0686951,-155.1297760
600,18.9787407,0.3710994,0.8930327,185.9923706,-131.3587799,-184.1374054
610,18.4328651,0.0311245,0.8212070,165.5801544,-104.8931274,-219.2977142
620,16.4887829,-0.8810617,0.6943150,146.2442780,-78.7175598,-250.1374054
630,14.0802279,-1.7621235,0.3854645,127.9465637,-58.9160309,-250.1374054
640,11.7913828,-2.8179610,-0.0718257,112.4503784,-40.0992355,-250.1374054
650,9.2679071,-3.7540891,-0.5123565,102.9236679,-20.7862587,-250.1374054
660,6.2919297,-4.2760224,-1.3263810,92.0152664,-10.0076332,-250.1374054
670,3.1890604,-4.6997938,-2.6479735,80.0610657,-11.7709923,-250.1374054
680,0.4070122,-4.8673873,-3.9647777,65.3282471,-27.4351139,-250.1374054
690,-1.5610116,-4.4891052,-5.1044121,46.2442741,-53.9618340,-250.1374054
700,-3.0956869,-4.0174499,-5.9519548,24.3053436,-89.6259537,-233.4427490
710,-3.6463506,-3.3255291,-6.1219425,0.2137405,-132.6488495,-211.4122162
720,-3.6655040,-2.8586621,-5.7340837,-22.5496178,-171.8244324,-191.8854980
730,-3.0932927,-2.6168492,-4.9990678,-43.3740463,-199.7633514,-174.8854980
740,-2.6168492,-1.9584470,-4.3310885,-61.7175560,-214.5877838,-162.1832123
750,-2.7605004,-1.5681942,-3.7995787,-78.9465637,-221.4122162,-152.6259613
760,-3.2560976,-1.2162483,-3.4117200,-95.2595444,-222.5954132,-143.3893127
770,-3.8618276,-1.0606259,-3.2848279,-110.8015289,-222.3969421,-132.0839691
780,-4.4555864,-0.9504932,-3.1723011,-126.7328262,-221.5114441,-119.6946564
790,-4.9535780,-0.6631905,-3.2082138,-145.0152740,-221.0000000,-106.3282471
800,-5.0684991,-0.4692611,-2.8826041,-165.7022858,-216.6030579,-92.8702316
810,-5.3701668,-0.1747758,-1.7046629,-185.3511505,-213.8625946,-79.7328262
820,-5.3294659,-0.0598547,-0.4165890,-202.7633514,-206.8625946,-67.6183243
830,-5.4252334,0.1029501,1.3551112,-217.2442780,-194.2671814,-56.6259537
840,-5.6311336,0.3375807,3.4165084,-226.3358765,-181.6870270,-45.5877876
850,-6.0644817,0.2011119,5.3869262,-230.1755676,-168.0610657,-33.2748108
860,-6.8282285,0.0335187,7.4363523,-228.7328186,-156.7099304,-15.9083967
870,-6.9287844,0.0287303,9.1601686,-221.5725250,-143.9618378,6.1755724
880,-6.2799587,-0.0742199,10.7379398,-212.5496216,-126.7404556,28.6412220
890,-5.3917146,0.0670373,12.1840305,-202.6183167,-103.0534363,49.0458031
900,-4.5298066,0.3088504,13.4170380,-192.9770966,-75.9007645,65.7251892
910,-3.6271970,0.3687052,14.6787758,-183.8167877,-44.7862587,77.6106873
920,-3.0741394,0.4429250,15.6268749,-175.3893127,-16.9465656,82.6488571
930,-2.8921809,0.3734936,16.4768124,-165.1832123,-1.9847329,82.6259537
940,-2.8083842,0.5386927,16.8790359,-151.8625946,4.0000000,80.9542007
950,-2.9041519,0.3734936,16.8934002,-138.0686951,3.9312978,80.9083939
960,-2.8778157,0.2011119,16.7665081,-123.2366409,-0.0458015,83.2061081
970,-3.1411765,0.8930327,15.9405136,-108.8396912,-5.6564884,87.2595444
980,-2.7197993,1.2449785,14.9995966,-100.6793900,-7.5114503,95.5648880
990,-2.1284344,1.4053892,14.3818960,-95.8167953,-5.0839696,99.1755753
1000,-1.7405758,1.6926919,13.9533358,-92.7022934,-0.4427481,102.4351120
1010,-1.3766589,1.7118455,13.6013899,-89.8549652,5.6946564,105.0916061
1020,-0.9864060,1.5658000,13.1369171,-88.1145020,9.8244276,104.4045792
1030,-1.0845678,1.3120158,12.7706070,-86.8320618,9.0229006,103.1145020
1040,-1.7453641,0.7829000,12.5647058,-84.7328262,0.0381679,106.3129807
1050,-1.5658000,0.6488253,12.2558556,-83.5419846,-11.1221371,114.5648880
1060,-1.3694763,0.5099624,12.7418766,-75.5572510,-24.1221371,123.9465637
1070,-0.0837966,0.5530578,12.5287933,-73.3969498,-29.2366409,134.8778687
1080,1.2090657,0.6751614,12.8879223,-71.9618301,-25.2061062,137.7328186
1090,2.0446377,1.0941446,12.9956608,-71.0610657,-15.8473282,136.0076294
1100,2.4157372,1.1659702,13.1153698,-70.8091583,-4.5267177,131.4961853
1110,2.1547706,1.2856797,13.5151997,-70.5954208,4.6412215,125.2137375
1120,1.4125718,1.3503228,13.6636391,-68.2671738,7.2137403,120.0687027
1130,0.5171449,1.0941446,13.7450418,-64.4122162,2.9083970,118.2213745
1140,-0.2825144,0.8858501,13.7641954,-59.4809151,-5.9923663,121.1526718
1150,-0.3663110,0.8236012,14.0634689,-54.3129768,-16.7022896,124.8015289
1160,-0.5913648,0.7829000,14.2071199,-49.6030540,-27.9236641,129.1679382
1170,-0.5362985,0.5506636,14.5542774,-44.2442741,-36.7251892,134.3358765
1180,-0.0383070,0.3878587,15.0307217,-38.8625946,-42.0839691,138.9847260
1190,1.9680238,0.4812321,15.7298250,-33.1755714,-36.0610695,139.8931274
1200,3.4045374,0.5889706,16.1392307,-28.8778629,-16.3511448,132.3816833
1210,3.4117200,0.3639168,16.2613354,-26.6870232,2.2748091,120.3969498
1220,1.9991482,-0.7062859,16.6060982,-19.8702297,2.0534351,112.7786255
1230,0.3303981,-1.3910241,16.0434628,-7.7328243,-11.3053436,115.8778610
1240,-0.7182568,-2.2696917,15.1169119,1.7404580,-37.3206100,125.7328262
1250,-1.1132981,-3.2920105,15.2797174,13.0916033,-68.7938919,146.2213745
1260,-0.2513899,-3.9456241,15.8471403,28.6183205,-89.3893127,175.0000000
1270,2.4348907,-3.9049230,16.1535969,44.5801544,-92.9007645,199.4198456
1280,6.0644817,-3.7445123,16.1488075,53.9541969,-71.1374054,211.9694672
1290,9.3947992,-3.3518653,16.2038746,56.1984749,-26.3282452,213.3206177
1300,10.6732969,-2.8227494,16.0410690,55.6717567,26.1603050,206.0534363
1310,10.1274214,-2.7628946,15.4592810,54.0000000,60.5496178,196.0610657
1320,9.2511482,-3.4380560,14.8750992,54.5038185,66.4198456,190.0000000
1330,9.5025377,-4.0342093,14.9588957,59.0152664,51.6335869,184.3053436
1340,10.1848822,-4.2137733,15.7394018,70.4809189,23.4351139,174.6641235
1350,11.1425581,-3.9480183,15.9548788,88.4580154,-8.7480917,159.1374054
1360,12.2941628,-3.5745249,14.5351238,94.5877838,-29.2824421,141.1526642
1370,13.1273403,-4.2329268,14.9708662,93.5114517,-28.9389305,120.2595444
1380,12.7394819,-4.3143296,16.1727505,100.6335907,-22.2824421,101.2442780
1390,12.0834742,-4.6159973,16.1966915,116.1755753,-15.7175570,90.2366409
1400,11.9924946,-4.8769641,15.8830528,131.9694672,-8.1832066,81.4961853
1410,11.6692791,-4.8290801,14.9349537,147.5496216,-4.2442746,72.9236679
1420,11.3508520,-4.8961172,13.6780043,159.4274750,-2.3664122,64.8244247
1430,11.2670555,-4.7237358,12.4330254,167.2137451,-2.0152671,56.6488533
1440,10.9246864,-4.6016321,11.6166077,173.7022858,-4.0076337,48.1679382
1450,10.9534168,-4.2999644,10.9701757,181.0686951,-11.5954199,38.8702278
1460,11.6142130,-3.9168940,10.5823174,189.7404633,-17.7557259,25.8091602
1470,12.1672707,-3.3829896,10.0962973,199.1068726,-21.2366409,9.0534353
1480,12.4617558,-2.9496415,9.1841106,206.1908417,-22.4198475,-9.1374044
1490,12.6580801,-2.4779861,8.2192526,210.4961853,-24.7480907,-28.2137413
1500,12.8256731,-2.2218077,7.4938130,213.0305328,-30.1908398,-48.0228996
1510,12.8591919,-1.8866212,6.9120250,214.5343475,-37.4122124,-67.8396912
1520,13.1177645,-1.4820032,6.2201042,215.2137451,-42.1984749,-87.2213745
1530,12.6915979,-1.0295014,5.2552457,214.0534363,-47.3969460,-107.3969498
1540,12.0140429,-0.6464311,4.3598189,207.9541931,-54.2366409,-126.5572510
1550,10.9893293,-0.2561783,3.8235207,198.9923706,-64.4503784,-143.2595367
1560,10.2782555,0.0550664,3.8785870,189.6870270,-77.2061081,-155.8167877
1570,9.8209648,0.1556223,3.9264708,183.8320618,-82.3664093,-166.1832123
1580,9.0500364,0.0574605,3.3877780,181.4885559,-79.9236679,-173.7251892
1590,8.1139078,0.6416427,2.4133430,176.4580078,-79.9618301,-177.1908417
1600,7.4124107,1.1252691,1.1994889,165.4045868,-81.4122162,-178.8167877
1610,6.8090749,1.4269369,0.1340746,148.6030579,-85.4045792,-180.2748108
1620,6.2105274,1.6879035,-0.5698171,128.6488495,-88.2748108,-181.3129730
1630,5.3294659,1.9680238,-1.0414724,108.8167953,-92.9847336,-180.0152740
1640,4.6088147,2.0135133,-1.4820032,89.5954208,-98.0687027,-177.1450348
1650,4.1204000,2.1906834,-1.6280488,69.3664093,-101.5648880,-174.3053436
1660,3.5984666,2.3271523,-1.4939742,50.4732819,-105.1908417,-171.1908417
1670,3.1651185,2.3271523,-1.1611819,34.8167953,-109.7175598,-167.5954132
1680,2.5546002,2.3582766,-1.1372399,22.8015270,-116.1145020,-163.1221313
1690,1.9847831,2.5641768,-1.5155219,9.0305347,-121.8320618,-158.0076294
1700,1.4556671,2.6671271,-1.7980363,-7.6183205,-125.5877838,-152.0152740
1710,1.0845678,2.6934631,-1.6304430,-25.3129768,-126.4198456,-144.4351196
1720,0.8331779,2.8107784,-1.4245427,-42.6488533,-122.3511429,-136.0686951
1730,0.4764437,2.8371146,-1.3191984,-59.2977104,-115.5648880,-128.0915985
1740,0.1771700,2.8849983,-1.1875180,-76.5801544,-108.1221390,-119.8702316
1750,-0.0981618,2.6838863,-0.6823440,-92.4427490,-101.7709961,-111.7786255
1760,-0.3543400,2.5450234,-0.3303981,-104.6335907,-100.2595444,-104.0916061
1770,-0.4932030,2.4564383,0.1939293,-114.8625946,-103.6335907,-97.0687027
1780,-0.6224893,2.3894010,0.6512195,-122.8549652,-110.2977066,-91.2900772
1790,-0.6847382,2.1308286,1.3096216,-129.6946564,-117.5725174,-86.3587799
1800,-0.8714849,1.7549409,1.6208663,-135.3435059,-124.2595444,-80.4045792
1810,-0.9840119,1.4508789,1.8459201,-143.1755676,-129.7404633,-73.7557220
1820,-0.9624642,1.1707586,2.4827745,-151.3587799,-132.3282471,-67.5801544
1830,-1.0318956,0.8858501,3.2728570,-157.7022858,-130.1679382,-62.3435097
1840,-1.3934183,0.7445929,3.9240766,-162.5267181,-123.8702316,-56.4427490
1850,-1.8076130,0.5985473,4.5417776,-165.6030579,-115.2671738,-50.7328262
1860,-2.2840567,0.2418131,5.0134325,-167.8854980,-106.6717529,-44.7862587
1870,-2.6814921,0.0742199,5.4635406,-171.1297760,-96.5267181,-38.5648842
1880,-3.0980811,-0.2992737,5.8968887,-174.2748108,-87.7938919,-31.3740463
1890,-3.8067613,-0.9504932,6.4020624,-176.0686951,-81.6030502,-21.9923668
1900,-4.0581512,-1.2832855,7.1394730,-175.8167877,-79.8931274,-11.6183205
1910,-4.5920553,-1.5155219,7.7595682,-170.4580078,-86.1603088,-1.0992366
1920,-5.2887645,-1.3790531,8.0181408,-163.5496216,-101.3358765,11.7404585
1930,-5.4467812,-1.2186425,8.5616217,-157.6488495,-121.1450348,25.9847336
1940,-4.8314743,-1.0893562,9.2846670,-153.6717529,-136.3664093,41.4122124
1950,-4.2760224,-1.1492109,10.0843258,-149.8396912,-142.6793823,56.5725174
1960,-3.7325413,-1.7166338,10.7475166,-146.5038147,-139.5267181,73.6870193
1970,-2.3965836,-1.2545552,10.8552551,-151.8015289,-116.7862625,93.2061081
1980,-1.5610116,-1.4149660,12.1553001,-152.9465637,-82.3740463,107.7480927
1990,-1.4724265,-1.1779412,13.2278967,-150.7557220,-49.3740463,125.0916061
2000,-1.3335636,-1.0414724,13.3883076,-150.3816833,-19.3969460,142.4122162
2010,-0.7757174,-1.1180865,13.7689838,-153.4961853,2.2519083,156.6488495
2020,-0.2537841,-0.9816177,14.8679161,-153.8473358,11.4427481,164.5038147
2030,0.0526722,-1.3886299,16.1105003,-148.3435059,5.3053436,168.9236603
2040,0.4740495,-1.7286048,17.2118282,-134.7175598,-14.3435116,173.7175598
2050,1.5298871,-1.9919657,18.2556953,-114.9923630,-32.5572510,179.1908417
2060,2.9352763,-2.0159075,18.4376526,-96.2671738,-42.5877876,182.3969421
2070,4.1634955,-1.7429699,18.4376526,-82.4732819,-42.9771004,183.3206177
2080,5.2097564,-1.4652439,18.3682213,-73.0152664,-30.3358784,180.7099304
2090,5.7963328,-1.5203103,18.8398762,-65.0610657,-18.9083977,174.6412201
2100,5.5090299,-1.7262106,19.1966114,-54.6946564,-1.1374046,170.6793823
2110,5.1211715,-2.0757623,19.2037945,-43.3358765,9.9694653,167.5038147
2120,4.2736282,-2.7245877,18.9667683,-29.4961834,7.5496182,167.4198456
2130,4.1012464,-3.0765336,18.2628765,-13.8167934,-5.9618320,172.0839691
2140,4.3167233,-3.4212968,17.3818150,0.4580153,-25.4961834,178.2137451
2150,5.2504573,-3.7157819,16.9053726,10.6488552,-41.2137413,186.0839691
2160,6.8066807,-3.6487448,16.8574886,19.3282452,-44.9923668,191.3206177
2170,8.2455883,-3.4955165,16.9963512,25.9770985,-35.4122124,190.8015289
2180,9.4714136,-3.3638363,17.3530846,31.1145039,-15.5343513,184.1145020
2190,9.7323799,-3.3087699,17.4584293,37.9236641,9.0534353,172.0839691
2200,8.9231443,-3.4428444,17.1088772,46.5496178,22.2366409,159.9541931
2210,7.8768835,-3.9025288,16.4456882,56.6183205,23.3206100,152.5725250
2220,7.2567883,-4.3789725,15.4161863,65.8320618,17.7786255,151.0915985
2230,7.2783360,-4.7189474,14.6404686,72.3969498,10.9694653,151.1984711
2240,7.8625183,-4.8147149,14.5806141,77.9007645,8.4885492,151.1145020
2250,8.3509331,-4.8290801,14.9972029,84.9236679,13.2519083,149.9389343
2260,8.7483683,-4.7788019,14.9995966,92.4503784,21.6641216,147.8854980
2270,8.9997578,-5.0062504,15.0019913,101.7328262,32.1145020,144.6946564
2280,8.9997578,-5.1307478,14.9062233,107.5725174,38.7633591,140.2900696
2290,9.1386213,-5.2193332,14.7817259,117.8931274,39.1679382,136.2671814
2300,9.3995876,-5.3486195,14.5423069,128.9923706,33.5648842,132.0076294
2310,9.5983057,-5.5281835,14.2406387,140.4809113,22.5648861,126.4351120
2320,9.5576038,-5.2073622,14.0610743,152.2366486,5.4427481,120.3664093
2330,10.2088242,-5.2552457,13.3212700,164.0076294,-4.4809160,113.6717529
2340,10.5344334,-5.1307478,12.6365318,171.5038147,-10.0839691,105.5648880
2350,10.6254129,-5.0110383,12.3037395,177.0839691,-14.6335878,98.1984711
2360,10.7954006,-4.8147149,12.0547438,184.7022858,-18.6641216,88.1755753
2370,11.1210098,-4.6423335,11.4801388,192.6870270,-27.3893127,77.4961853
2380,11.8272963,-4.2544746,10.9797525,200.4122162,-36.3740463,64.8931274
2390,12.5287933,-3.7014170,10.7714586,208.4351196,-46.0076332,47.7709923
2400,12.9166517,-3.2106080,10.3572636,217.1297760,-51.5038185,28.0610695
2410,12.9094696,-3.0932927,9.7754755,225.7938995,-52.8167953,8.8549614
2420,12.8759508,-2.8347204,9.2008705,232.7557220,-54.3664131,-8.8625956
2430,12.9741125,-2.7628946,8.7627335,239.1755676,-52.6030540,-25.8320618
2440,12.8831339,-2.6982515,7.7284436,244.1603088,-46.9618340,-41.3816795
2450,12.4426022,-2.5641768,6.3278427,244.9007568,-40.4961815,-54.2137413
2460,11.4849272,-1.9704180,4.3023586,238.3206177,-36.5648842,-62.4122124
2470,10.9749641,-1.1947005,2.3415172,221.7022858,-33.0610695,-68.0534363
2480,10.8097658,-0.5051740,1.0462608,196.3893127,-26.1068707,-73.1221390
2490,10.8815908,0.1795642,0.4932030,167.8091583,-22.1679382,-80.0152664
2500,10.9629936,0.6392486,0.6153067,141.8931274,-18.6335869,-89.0534363
2510,10.8887739,0.9600700,0.7254394,120.5038147,-13.0839691,-99.8931274
2520,10.4362717,1.2952565,1.4149660,105.9389343,-11.8473282,-111.3664093
2530,10.1800938,1.4413021,2.1739240,97.7251892,-21.3816795,-122.8320618
2540,9.9047613,1.3766589,2.6048782,96.1221390,-28.5114498,-134.8091583
2550,9.3110027,1.3886299,2.3486998,97.1832047,-35.5190849,-146.0763397
2560,8.8369532,1.3191984,1.7836711,96.1755753,-46.9847336,-154.8473358
2570,8.4083929,1.2808913,1.2976507,93.8167953,-56.3893127,-162.6335907
2580,7.9008250,1.2904681,0.4788379,87.0839691,-61.6870232,-167.9389343
2590,7.1921453,1.2976507,-0.2202654,76.5954208,-63.1755714,-171.1755676
2600,6.5313487,1.2090657,-0.7996593,63.9083977,-62.3511467,-172.9618378
2610,5.7628140,1.2593436,-1.1444225,48.7175560,-63.5419846,-172.3435059
2620,5.4060798,1.3982066,-1.1587877,32.4809151,-63.5877876,-171.1450348
2630,4.9847026,1.2617378,-1.3048333,16.1145039,-58.6946564,-169.4427490
2640,4.4124913,1.3766589,-1.6687500,-1.1679389,-51.9618340,-167.8015289
2650,3.9480183,1.4532729,-1.7860653,-20.4122143,-46.0152664,-166.5954132
2660,3.4859397,1.4748207,-1.5586174,-40.2137413,-41.3816795,-165.5267181
2670,3.0454090,1.4389079,-0.7876883,-56.1603050,-40.4198456,-165.6259613
2680,2.2098370,1.2114599,0.1436514,-66.0610657,-44.1908379,-165.5190887
2690,1.3048333,1.0606259,1.0486550,-70.7938919,-54.1374054,-163.6870270
2700,0.6057299,0.9480990,1.7238164,-72.9007645,-67.1526718,-159.3893127
2710,-0.0335187,0.8810617,2.0757623,-73.9160309,-78.3358765,-152.7862549
2720,-0.5937590,0.8475431,2.2242019,-77.4961853,-84.3435135,-144.0992432
2730,-0.9768293,0.8595140,2.1188576,-85.8625946,-80.5343475,-133.9770966
2740,-1.7262106,0.5937590,2.2313845,-98.4351120,-71.5725174,-122.6488571
2750,-2.4013720,0.3926471,3.9049230,-108.0381699,-66.0305328,-109.8931274
2760,-2.9807658,0.3327923,6.1339135,-107.8473282,-55.9236641,-96.1450348
2770,-3.6248028,0.4094064,7.8002691,-98.6870193,-40.4351158,-80.7099228
2780,-3.8259149,0.7326220,8.0109577,-84.7786255,-20.9007626,-65.4427490
2790,-3.5864959,1.1396341,7.2208753,-73.4122162,-6.4656487,-53.4503822
2800,-2.9328821,1.6304430,5.8035154,-69.7557220,5.3893127,-46.9465637
2810,-2.5689652,2.4803803,4.1467361,-76.9923630,15.1297712,-46.7022896
2820,-2.5785420,2.6814921,3.3039815,-92.8778610,18.9389305,-52.1984749
2830,-3.1339941,2.5138988,3.5745249,-107.1908417,7.1374044,-58.6946564
2840,-4.1658897,2.0374553,4.4029145,-113.1984711,-22.1526718,-61.1603050
2850,-4.6973996,2.0111191,5.2552457,-115.0305328,-51.0228996,-58.7175560
2860,-5.0349803,1.9584470,6.4260044,-116.2671738,-70.3511429,-51.9923668
2870,-5.1403246,2.1811066,7.7978749,-118.3053436,-76.1145020,-40.4961815
2880,-4.8051381,2.1691356,9.1960821,-112.5419846,-63.6412201,-27.8931293
2890,-4.8338685,2.4516499,9.4474716,-106.0000000,-45.6030540,-13.7328243
2900,-4.8218975,2.4061604,8.8920193,-104.5801544,-28.4809170,1.0763359
2910,-4.6255741,2.4588325,7.9941988,-109.6030502,-15.2900763,15.4122133
2920,-4.0892754,2.6407909,7.0963774,-126.8244247,-1.6259542,28.1603050
2930,-3.2321558,2.7437410,7.5776095,-148.4809113,16.0916023,35.7022896
2940,-2.5019281,2.5976956,9.1673517,-163.3435059,27.9007626,34.4580154
2950,-3.0549858,2.7676830,10.6685085,-170.0839691,28.1145039,30.2213745
2960,-3.5386121,2.6072724,12.0595322,-169.1526642,17.0839691,26.0305347
2970,-4.3239059,2.3439114,13.0028429,-162.1374054,2.1450381,22.4656487
2980,-5.2025738,2.0374553,13.4481621,-153.1984711,-12.0000000,23.1450386
2990,-6.1674318,1.6232605,13.8312321,-145.1984711,-23.8396950,29.2519093
3000,-6.9120250,1.1420283,14.2837343,-139.2977142,-30.1984730,42.8015251
3010,-7.3238254,0.6344602,14.4130201,-136.4045868,-29.5496178,62.5419846
3020,-7.1035600,0.3208214,14.7098999,-136.4656525,-25.9541988,85.7251892
3030,-6.0213866,0.2226596,15.3012648,-136.4198456,-21.0076332,105.1755753
3040,-4.8075323,0.0143651,16.2254219,-133.7938995,-14.7480917,119.0305328
3050,-3.7301471,-0.2585725,16.8335457,-131.2213745,-7.7862597,128.7709961
3060,-3.0573800,-0.5075682,18.2580891,-120.8702316,-2.5038168,131.2213745
3070,-2.9879484,-0.8355721,19.6126022,-99.9160309,-5.9389315,132.0229034
3080,-3.3542595,-1.6448082,19.6126022,-69.8091583,-17.4809170,130.3740387
3090,-4.4531922,-2.2888451,19.6126022,-34.7938919,-39.0916023,129.8473358
3100,-5.1331420,-2.7317703,19.0505657,-2.7862597,-59.6183205,135.6717529
3110,-5.3821378,-2.9831600,17.1328201,17.3587780,-70.1908417,142.9923706
3120,-5.9663200,-3.3614421,15.6579990,26.2366409,-71.7557220,158.8473358
3130,-5.7460546,-3.8977404,14.7865143,27.6717548,-69.7099228,185.7022858
3140,-4.4723458,-3.9743545,14.1544485,24.5190830,-66.2748108,216.3435059
3150,-2.2457497,-3.9360476,14.3076763,19.9923668,-62.9923668,245.9618378
3160,1.3144100,-3.7995787,15.0283270,18.6106873,-51.7404594,250.1297760
3170,5.4276276,-3.1220231,16.0219154,21.9465656,-38.5801544,250.1297760
3180,9.8927908,-2.1667414,16.4241390,31.1450386,-16.2366409,250.1297760
3190,11.2814207,-0.8164186,17.8127689,41.7862587,-7.3664122,246.3282471
3200,12.9597473,0.0933734,18.5046902,58.0763359,-8.4961834,213.1526642
3210,12.2630386,0.3710994,18.1407738,79.6793900,-11.3969469,178.9313049
3220,10.7834291,0.3663110,17.4823723,97.1450348,-27.7099228,154.3969421
3230,9.8784256,-0.1675933,16.8239689,111.8015289,-44.2671738,135.2519073
3240,9.0883436,-0.7302278,15.9548788,123.9542007,-58.9618340,123.0152664
3250,8.6765423,-0.8978211,15.1264887,131.3511505,-63.3129768,119.1450348
3260,8.9662399,-0.9241571,14.5877962,133.3129730,-62.0228996,118.6946564
3270,9.8449068,-0.7876883,14.5303354,133.9694672,-54.4045792,116.0152664
3280,10.9582052,-0.8116302,14.4273853,135.4809113,-43.4427490,111.3587799
3290,11.7674408,-0.9457048,14.2837343,138.1984711,-30.2977104,102.1374054
3300,12.2582502,-1.0103480,14.0945930,143.4580078,-19.3587780,90.6259537
3310,12.6269550,-1.0079538,13.8719339,150.9160309,-12.0687027,75.0992355
3320,12.6796274,-1.0558375,13.3356352,160.0610657,-7.8549619,57.0687027
3330,12.3612003,-1.3503228,12.9190464,169.6412201,-8.3893127,37.7328262
3340,11.7243462,-1.6783268,12.5192165,179.9923706,-12.1603050,19.9770985
3350,11.1497402,-2.0254843,12.0188313,191.5419922,-18.5877857,3.6106870
3360,10.5823174,-2.2337787,11.3077564,203.4045868,-24.5419846,-9.1984730
3370,10.5368280,-2.3103929,10.9342632,214.1374054,-32.6259537,-19.2366409
3380,11.2766323,-2.2649033,10.8983507,226.0000000,-37.1221390,-28.9389305
3390,12.2007895,-2.1188576,10.2950144,239.6488495,-30.7862587,-40.4656487
3400,13.0243902,-1.8195840,9.1410151,250.1297760,-20.1755733,-53.3053436
3410,13.4194317,-1.1923064,7.7164726,250.1297760,-9.7709923,-66.9236679
3420,13.4314032,-0.6895266,5.9782910,250.1297760,-4.3282442,-80.9389343
3430,12.9812956,-0.1699875,4.6159973,245.7480927,-3.4274809,-94.5343475
3440,12.4617558,0.2130829,3.7109938,233.9923706,-6.9389315,-104.6412201
3450,12.1122046,0.5339043,2.8706331,222.3587799,-12.9465647,-111.3358765
3460,11.6884327,1.1516051,2.0230901,210.7557220,-19.5877857,-116.5114517
3470,11.5591469,1.6448082,1.3287752,199.5648804,-26.2595425,-121.9083939
3480,11.4059181,2.2696917,0.7900825,187.4656525,-35.6870232,-129.1984711
3490,11.2957859,2.6790979,0.3974355,176.1755676,-47.5648842,-138.5725250
3500,10.9294748,2.8969693,0.0454896,166.4122162,-58.1603050,-149.0381622
3510,10.4075413,2.9927368,-0.2705434,156.9160309,-68.9923630,-158.6106873
3520,9.6437950,3.0813217,-0.7158626,147.5114441,-80.3435135,-166.0305328
3530,8.5783806,3.0501974,-1.2138541,136.9084015,-88.5114517,-171.1984711
3540,7.6542239,3.0454090,-1.8004304,124.7328262,-97.4427490,-172.7633514
3550,6.8928714,3.0549858,-2.1691356,109.5954208,-109.3053436,-172.0839691
3560,6.2344694,3.1555417,-2.1451938,94.2061081,-122.1145020,-170.1755676
3570,5.8154860,3.3518653,-1.9297167,79.6946564,-132.0610657,-167.4809113
3580,5.4994531,3.4955165,-1.7549409,65.3587799,-137.2213745,-165.0458069
3590,5.0301919,3.7014170,-1.7190280,51.0152664,-139.5114441,-162.9465637
3600,4.7955613,3.8330972,-1.5610116,36.0610695,-139.2519073,-161.3587799
3610,4.3454537,3.8833754,-1.2808913,20.6870232,-137.1908417,-160.5496216
3620,3.9863255,3.8498566,-1.2713146,5.2213740,-133.4122162,-160.1068726
3630,3.5266411,3.6463506,-1.0127422,-10.9160309,-127.2748108,-159.3435059
3640,2.5474176,3.3470769,-0.6464311,-26.7251911,-123.4503784,-156.3664093
3650,1.3910241,3.2106080,-0.1532281,-41.0228996,-122.1068726,-150.4885559
3660,0.5027798,3.1172347,0.4668669,-52.2748108,-121.8091583,-142.1679382
3670,-0.2920911,3.0837159,0.9169745,-60.7786255,-121.2595444,-132.9770966
3680,-1.1947005,2.9065459,1.0725969,-68.2213745,-123.5801544,-124.5038147
3690,-2.1858950,2.4827745,1.4963684,-73.9694672,-135.4732819,-115.8549652
3700,-3.1268115,2.1811066,1.8028246,-77.4351120,-154.1603088,-104.3435135
3710,-4.0677280,1.6879035,1.9201399,-80.1068726,-173.5572510,-88.1679382
3720,-5.0230093,1.2497669,1.7214222,-83.9923630,-197.1297760,-67.1526718
3730,-5.5617023,1.4029950,1.3383518,-91.3206100,-220.7251892,-43.7938919
3740,-5.2265158,1.6088953,1.0007712,-103.0763321,-236.8091583,-21.3587780
3750,-4.4124913,1.8483143,1.4197544,-120.8167953,-242.9923706,-3.1526718
3760,-3.1172347,1.9584470,2.3247581,-137.9847260,-232.7251892,10.1755724
3770,-1.7836711,1.7525467,2.9951310,-155.9084015,-206.9770966,17.1755733
3780,-0.7613522,1.3287752,3.6535332,-176.7251892,-173.0992432,19.0000000
3790,-0.2896969,0.9169745,4.4914994,-197.7404633,-135.0458069,18.0076332
3800,-0.5003856,0.5219333,5.8322453,-214.3511505,-101.0763321,15.6183205
3810,-1.8435259,0.5051740,7.7859039,-222.0000000,-80.1908417,14.4809160
3820,-3.4141142,0.3232156,9.4378948,-217.6030579,-75.4122162,16.7557259
3830,-4.7117648,0.2418131,10.5942879,-204.8091583,-81.5267181,25.4122143
3840,-5.4802995,0.6009415,10.8576488,-189.2442780,-91.8244247,39.1679382
3850,-5.3414369,0.2250538,11.4825325,-172.8473358,-101.6564865,54.5954208
3860,-4.9368186,0.3136388,11.4442253,-158.9541931,-107.3053436,69.5419846
3870,-4.0222383,0.2992737,11.5064745,-152.2061005,-105.3816757,83.5877838
3880,-2.5546002,1.1875180,11.8967276,-155.6030579,-92.1145020,94.7786255
3890,-0.9792235,1.6160779,13.3045111,-160.7251892,-57.6641235,100.7862625
3900,-0.7421987,1.8028246,14.6572275,-158.0000000,-19.2213745,99.3816757
3910,-1.3359578,2.3247581,15.0163565,-151.1374054,7.6335878,98.9923630
3920,-2.2385671,2.2337787,14.9636841,-144.0763397,20.2977104,100.9923630
3930,-2.6623387,2.0949159,15.1767673,-135.2824402,20.7557259,106.5725174
3940,-2.7533178,1.9488702,15.3276005,-123.9389343,12.6412210,114.2290039
3950,-2.9017577,1.6807210,15.0570574,-112.3053436,1.1145039,124.5725174
3960,-2.7317703,1.8650736,14.7482071,-104.9694672,-7.2442746,136.6717529
3970,-2.0853391,1.9895715,15.1480370,-99.3969498,-7.4427481,147.3206177
3980,-1.6998745,2.0757623,16.1679611,-90.3893127,-3.3282442,157.1526642
3990,-1.1276633,2.0542145,17.1304264,-78.0457993,7.1145039,166.3664093
4000,-0.6536137,1.7956421,16.9508610,-69.2366409,26.7175579,177.0305328
4010,0.1556223,1.8291607,16.5151196,-70.4885483,55.1679382,188.2442780
4020,1.2162483,1.6017127,16.4792061,-79.9312973,95.7480927,197.1221313
4030,1.6831152,1.4173602,17.0633888,-89.1374054,133.5725250,202.9618378
4040,1.8267666,0.8690908,17.9755745,-91.7938919,157.7480927,207.3816833
4050,1.5873476,0.8475431,18.7967815,-83.6030502,161.7175598,209.2442780
4060,1.6065011,0.7302278,18.9260674,-69.5801544,151.5114441,207.3435059
4070,1.4245427,0.3567342,18.7081966,-52.0992355,130.6564941,204.7938995
4080,1.1659702,-0.0502780,18.2293587,-32.2061081,98.4961853,202.8320618
4090,1.0103480,-0.4501076,17.6691189,-12.0763359,58.3740463,205.0610657
4100,1.5394639,-0.7445929,17.1735210,7.8625956,19.6564884,208.4885559
4110,2.8538737,-0.7924767,16.2709122,23.7633591,-6.7328243,211.2519073
4120,4.1682839,-0.7876883,15.8088331,32.0458031,-18.3206100,212.5877838
4130,5.7891502,-0.6081241,15.9285421,37.0076332,-16.5801525,211.1450348
4140,7.5105724,-0.2537841,15.9213600,39.8854980,-4.1450381,203.4427490
4150,8.3413563,0.0071826,15.6196918,41.0916023,17.2748089,191.1374054
4160,8.0899658,0.2394189,15.3132353,42.5496178,35.3511467,177.3358765
4170,7.3118544,0.2274480,14.9541073,44.0839691,44.0839691,166.1297760
4180,6.4906478,-0.2226596,14.4728756,45.9465637,40.8167953,159.0915985
4190,5.9687142,-0.5722113,14.5111818,51.0610695,24.4809170,156.2061005
4200,6.0956063,-0.9026094,14.7601776,62.5038185,-0.0687023,153.6106873
4210,6.6342988,-1.0007712,14.9062233,77.1221390,-23.7557259,150.5801544
4220,7.5560617,-0.8906385,14.8822813,92.1450348,-36.6335869,146.3664093
4230,8.4586716,-0.7852941,14.8176384,102.3435135,-36.6946564,140.3664093
4240,9.0069408,-0.6871324,15.0426922,114.6030502,-30.6412220,132.1832123
4250,9.3660688,-0.8882443,15.3299952,127.2061081,-24.9007626,122.5648880
4260,9.7754755,-1.1037214,16.1200771,145.7709961,-21.6870232,112.1755753
4270,10.0675669,-1.3718705,17.0849361,172.7709961,-18.8396950,101.7862625
4280,10.4841557,-1.6687500,17.5589848,206.5954132,-15.1908398,90.5648880
4290,11.0204544,-2.0733681,16.6396160,238.7938995,-6.0610685,78.7251892
4300,11.3556404,-2.3702476,14.3627424,250.1297760,9.0458012,67.8625946
4310,11.3580351,-2.1451938,11.3867655,250.1297760,20.6870232,58.9618340
4320,11.6118193,-1.4963684,8.4921904,250.1297760,23.1145039,51.0992355
4330,12.0523500,-0.2609667,6.5217719,249.3358765,15.6106873,40.6106873
4340,13.0172081,0.6488253,4.6447277,229.1984711,-7.9007635,26.2213745
4350,14.4082317,1.1061156,3.8354914,211.5190887,-3.5572519,-0.3129771
4360,14.2933111,2.0326669,3.6152260,194.0458069,-7.3053436,-30.1755733
4370,14.0634689,2.7197993,4.2496862,179.0686951,-22.6030540,-58.5801544
4380,13.2638092,2.5402350,4.6255741,170.4885559,-35.9465637,-85.8702316
4390,11.9134865,1.9991482,4.9032998,167.5267181,-47.7175560,-107.9160309
4400,10.4147243,1.6543850,4.8027439,166.3587799,-62.3587799,-122.1679382
4410,9.0907373,1.5107336,4.3861551,165.6030579,-78.1374054,-129.8091583
4420,8.3820572,1.4939742,4.1491303,164.5725250,-94.2213745,-133.4045868
4430,8.0588417,1.6687500,3.5888901,163.0915985,-106.8549652,-135.2824402
4440,7.9606800,1.8890154,3.0669568,159.9084015,-120.3587799,-137.3358765
4450,8.0492649,2.1906834,2.6168492,153.5801544,-131.2290039,-141.7022858
4460,8.1234846,2.4420733,2.1499822,145.8015289,-135.4427490,-148.7251892
4470,7.7835097,2.6527619,1.7405758,135.8625946,-135.2213745,-156.0229034
4480,6.9766679,2.6599445,1.1276633,123.0534363,-134.4198456,-161.2671814
4490,6.0692701,2.6312141,0.7182568,108.8015289,-133.0686951,-162.2671814
4500,5.2528515,2.5138988,0.6416427,94.2366409,-134.6412201,-159.5801544
4510,4.6183915,2.4085546,0.5291159,80.1832047,-136.2061005,-155.1297760
4520,3.9887197,2.4061604,0.3615226,66.9389343,-137.8167877,-149.6564941
4530,3.6942344,2.5043221,-0.0191535,53.3969460,-137.2595367,-144.8244324
4540,3.3853838,2.6527619,-0.6081241,38.9618340,-130.2595367,-140.2595367
4550,2.5857246,2.6144550,-1.2832855,22.9465656,-120.9923630,-135.6335907
4560,1.7693061,2.6048782,-1.3934183,5.3206105,-122.8015289,-128.8015289
4570,1.4293311,2.2577207,-1.0223188,-11.5190840,-136.8549652,-122.0076370
4580,1.4484847,2.0087249,-0.1053443,-25.7862587,-154.2671814,-116.2366409
4590,1.4724265,2.0685797,1.0079538,-36.4961815,-165.0915985,-110.2137375
4600,1.3910241,2.4109488,1.9752063,-42.1755714,-172.5114441,-104.9923630
4610,1.2258250,2.5378408,2.3558824,-46.0076332,-171.1603088,-101.2061081
4620,0.7158626,2.4803803,1.9560528,-50.9083977,-161.3129730,-97.1221390
4630,0.0430954,2.6671271,1.0462608,-63.4427490,-155.7786255,-91.8091583
4640,-0.7038917,2.6168492,0.5434810,-81.9236679,-153.6946564,-85.7251892
4650,-1.3311694,2.4588325,0.4620786,-100.3129807,-157.0534363,-77.5877838
4660,-1.9297167,2.7150109,1.0342898,-116.0076370,-162.8320618,-66.9923630
4670,-2.2720859,2.5210814,1.8531027,-129.0305328,-168.3664093,-55.7862587
4680,-2.1739240,2.8012016,2.4253139,-140.8931274,-169.3129730,-44.6030540
4690,-2.0206959,2.9137285,3.7109938,-145.3587799,-166.9770966,-36.2442741
4700,-1.7908537,2.9233053,4.1682839,-149.0915985,-161.5954132,-28.9083977
4710,-1.6448082,2.7413468,4.5202298,-154.6030579,-149.4503784,-22.7175579
4720,-1.5203103,2.7437410,5.2648225,-161.9160309,-132.8320618,-17.0763359
4730,-1.8650736,2.6719155,5.9471664,-167.5343475,-110.7786255,-11.1374044
4740,-2.5162930,2.8658447,6.6151457,-170.9007568,-90.3206100,-3.1908398
4750,-3.0190730,3.1746953,6.9383612,-174.5038147,-74.9847336,6.1908398
4760,-2.9831600,3.0334380,7.4028339,-178.6564941,-68.5190811,14.2366409
4770,-3.0118904,2.8107784,7.9822278,-181.4656525,-67.8931274,21.7251911
4780,-2.9879484,2.3630650,8.7794924,-182.1221313,-75.6793900,30.2519093
4790,-2.5857246,1.9680238,9.6366129,-180.2366486,-88.2595444,39.3664131
4800,-2.1571648,1.6639616,10.6972389,-176.3129730,-99.7862625,48.3587799
4810,-2.1044924,1.8985922,11.9134865,-169.0610657,-107.0534363,58.5954208
4820,-1.5298871,2.2696917,13.1249466,-158.3740387,-108.4809189,69.9312973
4830,-0.8116302,2.6910689,13.7689838,-145.8625946,-103.8473282,80.1755753
4840,0.2011119,3.1507533,14.0514975,-135.2366486,-89.9618301,86.1908417
4850,1.0079538,3.5553713,14.2286682,-129.4809113,-72.2900772,88.8702316
4860,1.6352314,3.5266411,14.2502155,-127.3358765,-50.2900772,88.9923630
4870,1.9728121,3.3087699,14.7266598,-125.2366409,-23.8015270,88.2519073
4880,1.8124014,3.1555417,15.1336718,-121.0763321,1.8549619,87.9160309
4890,1.0438666,3.0262554,15.7920732,-116.1679382,14.7251911,89.9770966
4900,0.4644727,2.9376705,16.5318775,-106.6335907,17.8931293,95.9389343
4910,0.2370248,2.8227494,16.9460735,-91.4198456,18.9007626,100.6870193
4920,0.1747758,2.8059900,17.1663380,-74.3969498,18.7175579,109.4809189
4930,0.2537841,2.7700772,17.0370522,-60.3206100,15.1297712,117.8702316
4940,0.8092360,2.6958573,16.9628315,-48.5572510,8.7022905,123.9312973
4950,1.4269369,2.5450234,17.1064835,-36.2137413,3.6335878,127.5190811
4960,1.9847831,2.4133430,17.1088772,-23.1450386,1.2748091,130.6183167
4970,2.4540441,2.2098370,17.0681763,-9.9312973,1.7404580,134.1145020
4980,3.2632802,1.9752063,16.6539822,16.3816795,9.9083967,147.1679382
4990,4.3981261,1.8339491,16.2613354,30.5801525,25.9083977,155.8015289
5000,4.4005203,1.8961980,16.0841656,43.5954208,22.1526718,166.2671814
5010,5.3605900,2.0350611,15.3323889,52.9771004,28.8854961,175.7022858
5020,6.6869712,2.1236460,14.6524391,58.9236641,39.9771004,179.8015289
5030,7.1945391,2.4205256,13.6827927,60.0228996,59.2671738,177.6030579
5040,6.8354111,2.5186872,13.7929258,56.1832047,64.1450348,172.3282471
5050,6.6438756,2.3582766,14.0898046,56.8396950,68.0076370,166.1526642
5060,6.3541789,1.8243724,14.1161413,62.1679382,71.3816757,162.4503784
5070,5.9304070,1.3120158,14.0131912,66.5877838,76.1603088,161.5190887
5080,5.8083038,0.7757174,13.8958759,68.2824402,85.9618301,163.9236603
5090,5.7508430,0.3974355,13.7043400,67.8473282,98.2213745,170.7022858
5100,6.2679882,0.1508339,13.9006643,68.8625946,101.9083939,181.4351196
5110,7.5153608,-0.0023942,14.2071199,73.5648880,102.4198456,191.3358765
5120,9.2032642,0.1580165,14.6117382,81.6641235,96.8854980,195.4351196
5130,10.6924505,0.6224893,14.7817259,91.8473282,90.7328262,190.6259613
5140,11.8895445,0.8523315,14.8343983,103.3969498,75.5572510,174.9923706
5150,12.4497852,1.0773853,14.6763811,115.4198456,58.0534363,152.0076294
5160,12.5862541,0.9624642,14.5016060,127.8625946,39.7175560,128.6488495
5170,12.6772327,0.9385223,14.3651371,140.6564941,25.8396950,108.2900772
5180,12.7706070,0.7517755,14.3411951,153.8778687,20.4198475,93.3358765
5190,12.8927097,0.5865764,14.0467091,165.7938995,21.0229015,79.9160309
5200,13.0770626,0.4860204,13.3140879,175.3053436,24.7404575,68.6259537
5210,13.4673157,0.6655847,12.6413202,183.3816833,32.0839691,57.7938919
5220,13.8120794,0.8259954,11.9350348,190.4656525,38.2595406,45.4961815
5230,14.0275564,0.7254394,11.1904411,196.1297760,47.1145020,30.8091602
5240,13.6109667,0.6943150,10.0029240,199.3664093,55.6946564,16.9770985
5250,12.8280668,0.7110743,8.7507620,197.5038147,61.8167953,5.7633586
5260,12.0284081,0.4884146,7.7164726,191.1145020,65.0229034,-1.2671756
5270,11.1976242,0.3327923,6.8713236,183.4274750,62.9236641,-2.6030533
5280,10.7762470,0.2944853,6.2775645,176.8320618,61.4351158,0.8091603
5290,10.1705170,0.3160330,5.7125359,171.0305328,62.4961815,4.9160304
5300,10.4075413,1.1156923,5.3222833,163.8396912,29.0305347,-8.9847326
5310,10.8528605,1.2593436,4.9583664,165.6641235,5.3816795,-33.6641235
5320,10.2902260,1.3718705,4.3741841,169.6335907,-22.7633591,-58.3893127
5330,9.5312681,1.4389079,3.3518653,171.3740387,-51.5954208,-74.5877838
5340,9.0476418,1.5107336,2.4660151,169.3740387,-79.3282471,-85.2824402
5350,8.8728657,1.6783268,1.6495966,163.2977142,-104.6946564,-94.8778610
5360,8.6166878,1.9297167,1.2761030,154.7786255,-128.1374054,-105.6488571
5370,7.9870162,2.3750360,0.6823440,144.7480927,-148.5419922,-114.9542007
5380,7.6566176,2.4037662,0.3687052,131.0534363,-166.4503784,-122.4961853
5390,7.5225434,2.2409613,0.1029501,114.3358765,-175.2366486,-128.2519073
5400,7.3118544,2.1978660,0.0383070,98.2519073,-176.2366486,-133.0915985
5410,7.0700417,2.2649033,0.1580165,79.5801544,-174.6793823,-137.3587799
5420,6.8521700,2.4420733,0.1125269,62.8244286,-169.4427490,-140.0229034
5430,6.7540083,2.5426292,0.1077385,47.2900772,-164.2290039,-143.2595367
5440,6.4331870,2.8778157,0.1699875,32.6259537,-159.4732819,-147.8015289
5450,5.8561873,3.0789278,0.1484398,20.0992374,-158.0610657,-151.9923706
5460,5.3677726,3.5481887,-0.0430954,9.1221371,-158.9618378,-155.1526642
5470,4.8673873,3.6750808,-0.3399749,-1.9160305,-160.9618378,-157.5419922
5480,4.5178356,3.7636659,-0.5027798,-14.9923668,-161.6564941,-159.3129730
5490,3.9552009,3.5841017,-0.4908088,-29.3740463,-158.7480927,-160.2213745
5500,3.1196289,3.4093258,-0.3136388,-44.2977104,-154.4961853,-159.6641235
5510,2.1308286,3.2800395,-0.0526722,-57.7251892,-151.7633514,-156.3282471
5520,1.4820032,3.2608860,0.1221037,-71.0916061,-149.2748108,-151.2213745
5530,0.7086801,3.2656744,0.5027798,-84.6335907,-146.9923706,-145.2442780
5540,-0.1795642,3.1651185,0.8307837,-95.6106873,-143.6259613,-136.6259613
5550,-0.8283895,2.9472473,1.1037214,-105.1374054,-142.7251892,-127.0152664
5560,-1.5155219,2.8682389,1.2066715,-115.0229034,-144.9618378,-115.9542007
5570,-2.0901275,2.8227494,1.5298871,-124.1221390,-148.9465637,-104.0152664
5580,-2.4109488,2.8059900,2.0111191,-131.3587799,-152.7251892,-92.2061081
5590,-2.6048782,2.6503677,2.4588325,-136.3358765,-154.6259613,-80.2595444
5600,-2.8466914,2.5498118,2.6647329,-141.5572510,-152.3969421,-66.8320618
5610,-2.8873925,2.6000898,2.8802099,-148.8625946,-147.8473358,-54.0458031
5620,-2.7437410,2.5067163,3.2632802,-157.1221313,-143.5725250,-41.6183205
5630,-2.6479735,2.2337787,3.9863255,-165.2061005,-140.2366486,-31.1984730
5640,-2.6479735,1.9847831,4.6566987,-173.2519073,-135.9236603,-19.9389305
5650,-2.3606708,1.6041069,5.8035154,-179.6335907,-130.5114441,-7.4580154
5660,-1.4197544,1.1132981,6.7947097,-185.4961853,-114.2900772,5.0229006
5670,-0.7709290,0.9433106,8.1737623,-190.2977142,-87.1984711,14.0229006
5680,-0.3830703,0.7876883,9.4019823,-190.6793823,-55.5114517,19.2748089
5690,-0.5195391,1.1492109,10.5272512,-185.8320618,-23.4656487,21.3893127
5700,-1.7190280,1.8985922,11.8847561,-172.0229034,0.0229008,23.2748089
5710,-2.9137285,2.2864509,11.8272963,-157.1679382,13.7633591,29.2442741
5720,-4.1611013,2.3199697,11.1760759,-145.2061005,16.1145039,40.5648842
5730,-4.6902170,2.6096666,10.3716288,-138.4274750,4.6946564,54.3053436
5740,-4.3741841,2.4612267,10.0627785,-135.6641235,-16.2595425,67.6793900
5750,-4.0677280,2.1020982,10.2447367,-133.4961853,-42.1679382,80.6183243
5760,-3.3183465,1.8219782,10.6182299,-129.7786255,-68.1221390,95.2824402
5770,-2.0805507,1.9129574,11.3652172,-124.9542007,-92.5954208,104.0763321
5780,-1.0223188,1.9536586,12.5287933,-118.1603088,-105.8549652,111.8473282
5790,0.0622489,2.1954718,13.3547888,-110.5572510,-103.9618301,119.6717529
5800,1.1180865,2.3367288,13.8958759,-105.8854980,-84.8702316,126.6030502
5810,1.6831152,2.5138988,14.5207586,-102.5954208,-58.7557259,131.2595367
5820,2.0925217,2.5713594,15.2126799,-98.5114517,-29.7328243,132.4961853
5830,2.0326669,2.2696917,15.5215302,-93.6793900,-6.4809160,133.0915985
5840,1.8100072,1.8794388,16.0745888,-84.1984711,13.6412210,132.3053436
5850,1.3598996,1.8291607,16.1727505,-74.2824402,29.0916023,132.2977142
5860,0.9409165,1.6256547,15.9979744,-65.1908417,40.5038185,133.5801544
5870,0.1149211,1.6136837,16.0482521,-57.8320618,46.2290077,136.7709961
5880,-0.6344602,1.4820032,16.1990852,-50.2519073,43.5877876,145.0610657
5890,-0.8020535,1.1037214,16.5390606,-39.1297722,35.4809151,157.9389343
5900,-0.4596844,0.7829000,16.6108856,-26.1908398,27.7175579,173.3893127
5910,0.4213773,0.6895266,16.6300392,-13.8549614,23.9618320,187.4045868
5920,1.4293311,0.6943150,16.1464138,-4.4351144,28.0229015,199.2900696
5930,2.5641768,0.4788379,16.1416245,3.1832061,39.1526718,205.6488495
5940,2.9496415,0.5171449,16.2230282,12.4961834,47.7786255,210.1679382
5950,3.2201848,0.1101327,15.8591108,21.2519093,50.0687027,214.6106873
5960,3.5601597,-0.4046180,15.4808292,29.8244267,43.4885483,218.5038147
5970,4.0868812,-0.8020535,15.2868996,40.5648842,29.8702297,223.2442780
5980,5.3653784,-0.9816177,15.1935263,50.2595406,18.0152664,225.8015289
5990,6.4236102,-0.9480990,15.0402985,59.4961815,9.6488552,223.6030579
6000,7.2831244,-0.8140244,15.0235386,68.2900772,5.8091602,216.3740387
6010,7.7475972,-0.8475431,14.7242651,76.1068726,2.6793892,208.1603088
6020,8.1761570,-1.0773853,14.4202032,81.7022934,-0.0687023,200.9541931
6030,8.8896255,-1.4173602,14.3028879,85.2519073,-3.9312978,195.3206177
6040,10.1633339,-1.3886299,14.5901909,89.7786255,-6.3816795,187.8549652
6050,10.8648319,-1.1923064,14.9134064,97.9007645,-7.1221375,178.1908417
6060,11.9422169,-0.9624642,15.0379038,108.3206100,-4.7099237,165.6335907
6070,12.5551291,-0.6703730,14.8703108,118.2824402,-1.4427481,148.1145020
6080,12.7610302,-0.6177009,14.6739874,127.4274826,-1.0687023,130.2671814
6090,12.9956608,-0.3950413,14.5159702,137.0610657,-0.2900763,113.0534363
6100,13.0052376,-0.3016679,14.1257181,145.5038147,-0.5190840,97.2977066
6110,12.7897596,-0.2729376,13.5199881,153.2519073,-2.5190840,79.7480927
6120,12.5072460,-0.4548960,12.8376436,159.5267181,-5.5572519,65.9465637
6130,12.2917690,-0.7086801,12.2797976,165.2137451,-9.4503813,54.3816795
6140,12.2079716,-0.7876883,11.6620970,171.0076294,-12.5572519,44.7404594
6150,12.1600885,-0.7038917,11.0731258,176.6335907,-15.6412210,35.9771004
6160,12.2989511,-0.4453192,10.5799236,181.2900696,-19.8931293,26.6717548
6170,12.7346935,-0.2849085,9.9717989,185.4961853,-23.6717548,15.1603050
6180,12.9908724,-0.2202654,9.4283180,190.0534363,-28.1221371,2.0229008
6190,12.9453821,-0.2274480,8.6430235,193.6030579,-34.2519073,-11.5648851
6200,13.0722742,-0.1819584,7.7954807,195.1526642,-39.9236641,-23.4961834
6210,13.2350798,-0.0646431,6.8569584,194.3969421,-44.9618340,-35.1832047
6220,13.0746689,0.0143651,6.1650376,191.7480927,-51.6564903,-46.8702278
6230,13.0196018,0.3112446,5.4826937,188.1603088,-60.6412201,-57.4580154
6240,12.9525652,0.7829000,4.8458395,184.3358765,-68.9160309,-67.2824402
6250,12.9908724,1.2090657,4.1778607,180.2290039,-76.8396912,-78.5419846
6260,12.9453821,1.5250987,3.5410061,173.9313049,-85.0152664,-92.0381699
6270,12.8400383,1.8507085,3.2034254,166.8549652,-94.2671738,-107.9389343
6280,12.5096397,1.9297167,2.6934631,159.9847260,-102.2290039,-124.9923630
6290,11.6764622,1.8076130,2.0470319,152.6564941,-107.4198456,-140.5343475
6300,10.7618818,1.8483143,1.3096216,142.1374054,-110.3664093,-152.4351196
6310,9.9550400,1.7453641,0.8140244,129.7786255,-111.7022934,-161.4656525
6320,8.9303265,1.7429699,0.3256098,115.8854980,-111.5877838,-168.0534363
6330,8.0756006,1.5490406,0.0861908,102.5572510,-109.9847336,-172.2748108
6340,7.1562324,1.5705882,-0.2394189,86.8625946,-107.0839691,-174.4961853
6350,6.5074067,1.4413021,-0.5123565,71.3740463,-103.3587799,-174.6793823
6360,5.7843618,1.4269369,-0.6320660,56.2977104,-101.0992355,-174.0458069
6370,5.0589223,1.4676381,-0.6847382,42.2213745,-100.8549652,-172.8015289
6380,4.4675574,1.6160779,-0.7637464,29.0458012,-101.5801544,-171.5496216
6390,3.7923961,1.5586174,-0.8786675,15.7862597,-101.4198456,-170.0534363
6400,2.6838863,1.5777708,-0.9600700,2.6030533,-101.6030502,-166.5038147
6410,1.7477583,1.5107336,-1.0893562,-11.1221371,-105.6106873,-160.0534363
6420,0.5219333,1.4580613,-1.0606259,-24.1755733,-114.2671738,-149.9007568
6430,-0.4884146,1.3407460,-1.3024391,-36.3435097,-126.6030502,-135.8244324
6440,-1.3742647,1.2090657,-1.7884595,-49.5419846,-146.1526642,-118.9236679
6450,-1.9345051,1.1635761,-2.3247581,-64.7480927,-171.9770966,-99.0610657
6460,-2.3271523,0.9624642,-3.0837159,-84.8625946,-195.3129730,-77.4809189
6470,-2.3151813,0.8116302,-3.4308734,-111.7022934,-215.8778687,-54.8931313
6480,-1.9105632,0.9959828,-3.1675127,-144.3969421,-225.5267181,-34.0076332
6490,-1.4556671,1.0462608,-1.9919657,-171.5801544,-231.1984711,-14.4961834
6500,-0.7254394,1.2066715,-1.0295014,-193.9389343,-231.2671814,0.0839695
6510,0.1221037,1.0702027,-0.0143651,-214.5877838,-223.8702240,10.7480917
6520,0.7445929,0.9552816,1.4843974,-230.1984711,-211.1526642,17.9465656
6530,1.1563935,0.8738791,3.5505829,-238.0534363,-194.2061005,22.1526718
6540,1.2569494,0.9624642,5.9711084,-235.2061005,-178.1221313,23.9923668
6550,1.1252691,1.2497669,8.4395180,-220.4122162,-164.2366486,25.1450386
6560,1.0462608,1.9536586,10.3213511,-194.8854980,-152.1526642,25.6183205
6570,1.1492109,2.5593886,11.3340931,-164.9541931,-136.7480927,24.9541988
6580,1.0845678,3.1914546,10.9989061,-137.4045868,-114.9007645,22.9236641
6590,0.8307837,3.6248028,9.4594421,-122.0000000,-86.7251892,23.0000000
6600,0.6200951,3.2513094,8.1977043,-119.5725174,-53.2900772,24.5801525
6610,0.1891410,2.7652888,7.7595682,-123.2442780,-20.1832066,29.3358784
6620,-0.3806761,2.3127871,8.0037756,-126.8702316,6.5954199,37.0000000
6630,-1.1659702,1.8890154,8.4850073,-126.0687027,25.2977104,49.1450386
6640,-1.7597293,2.0661855,8.7675219,-121.5419846,38.9465637,65.3435135
6650,-1.9249283,2.3822186,8.7699156,-117.2671738,46.9083977,83.9312973
6660,-1.4939742,2.8634505,8.6478119,-115.5190811,51.2137413,98.1221390
6670,-0.6967092,3.2201848,9.0165176,-116.6564865,50.3358765,111.9007645
6680,0.5410868,3.3231349,9.6006994,-116.9542007,48.8702278,119.0152664
6690,1.6879035,3.3949606,10.0795374,-116.5114517,45.5190849,120.0381699
6700,2.6671271,3.2249732,10.5942879,-116.2366409,42.7938919,116.1145020
6710,3.1794837,3.0166788,11.3077564,-115.4732819,41.8396950,109.5343475
6720,2.9233053,2.7844424,12.0499554,-113.8320618,36.9312973,103.5725174
6730,2.6096666,2.6360025,12.8855276,-111.0076370,30.8549614,100.9465637
6740,2.3391230,2.4755919,13.7618008,-106.6030502,25.6564884,101.6183243
6750,2.1571648,2.1906834,14.4872408,-100.9007645,20.4274807,106.8167953
6760,2.4229198,1.9488702,15.4305506,-93.0305328,20.4427490,114.9236679
6770,2.9376705,1.8818330,16.4863892,-85.0916061,32.4427490,123.2137375
6780,3.6439564,1.6376256,17.5948982,-77.5419846,59.0839691,130.4122162
6790,3.6655040,2.0757623,18.5908813,-70.2213745,94.8931274,137.9770966
6800,4.5058646,0.7637464,19.2468891,-60.5648842,129.5114441,143.0381622
6810,4.0533628,0.6799498,19.6126022,-44.9389305,147.5572510,147.4809113
6820,4.4172797,0.7829000,19.6126022,-26.0763359,148.2366486,151.1984711
6830,4.8362627,0.4596844,19.0433826,-11.2595415,141.9313049,151.8854980
6840,4.6734576,0.5051740,18.3993454,2.8015268,125.9618301,147.1908417
6850,4.1275826,0.6153067,17.3746338,15.1068707,104.3358765,147.0763397
6860,4.1922259,0.8068419,16.2062683,20.5114498,87.7480927,146.4122162
6870,4.3215117,0.6871324,15.7992563,19.9847336,82.6030502,145.4198456
6880,4.1539187,0.3758878,15.7968616,18.2366409,83.2290039,148.4885559
6890,4.1491303,-0.3663110,16.2733059,19.7251911,78.4122162,156.3587799
6900,4.8242917,-0.7805058,16.6276455,25.4198475,70.4961853,167.3206177
6910,6.5720501,-0.7685348,16.3451309,30.9389305,66.2137375,175.7786255
6920,8.5975342,-0.5099624,16.3571014,38.1755714,79.7175598,177.6259613
6930,10.0077124,0.0837966,16.5606079,45.7404594,100.6259537,173.1068726
6940,10.8145542,0.8236012,16.3906212,52.0000000,121.9236679,161.1450348
6950,10.8097658,0.9145803,16.2876701,59.1374054,132.4351196,142.2977142
6960,9.8592720,0.5722113,15.7681322,67.5267181,128.7099304,126.4885483
6970,9.2224178,0.3327923,15.3036594,74.3206100,114.0839691,114.2824402
6980,8.9159613,-0.1125269,14.9612904,80.9542007,95.7175598,105.7175598
6990,9.0069408,-0.3878587,14.6691990,86.0916061,80.2748108,99.7633591
7000,9.3325500,-0.4429250,14.4561157,89.9923630,64.6259537,94.0687027
7010,9.6437950,-0.2944853,14.0491037,93.0457993,52.2061081,84.3282471
7020,9.9741936,-0.2370248,13.4768925,91.3053436,38.5648842,73.6793900
7030,10.0699606,-0.3806761,13.5343533,92.5267181,31.8396950,64.1068726
7040,10.0196829,-0.2729376,13.6492739,97.8549652,26.0458012,56.6335869
7050,10.1369982,-0.4501076,13.8240499,109.3358765,25.1679382,50.0839691
7060,10.4099360,-0.5195391,13.8384151,125.8625946,26.6564884,42.1374054
7070,10.4147243,-0.5769997,13.1393118,141.8091583,29.9465656,30.7709923
7080,10.3955708,-0.6464311,12.2079716,153.8167877,30.7938938,18.1603050
7090,10.3261395,-0.5769997,11.3149395,161.3664093,32.2061081,5.8015265
7100,10.2447367,-0.5362985,10.4410601,166.7557220,34.8854980,-7.0152674
7110,9.8736372,-0.6105183,9.6677370,171.6717529,37.4427490,-19.0610695
7120,9.2942438,-0.5865764,8.9758167,176.5954132,35.2748108,-28.6564884
7130,8.8369532,-0.6033357,7.7499914,180.0992432,29.6259537,-36.6946564
7140,8.5281029,-0.2968795,6.6199336,180.7938995,19.4656487,-44.4503822
7150,8.6956959,-0.0550664,5.4826937,177.8854980,7.0152674,-52.5572510
7160,8.8585014,0.3734936,4.5633249,171.9084015,-4.6030536,-61.4122124
7170,8.8345594,0.9385223,3.9312592,164.7404633,-16.7099228,-71.6870193
7180,8.7507620,1.3814473,3.4691806,157.5419922,-30.5267181,-83.0534363
7190,8.5688038,1.7118455,2.9041519,150.9084015,-42.8167953,-94.8396912
7200,8.1641865,1.9584470,2.5929072,143.5725250,-53.5190849,-106.0534363
7210,7.6638002,2.0446377,2.0997043,134.7557220,-63.9083977,-115.9312973
7220,7.2543941,2.1595588,2.0422437,125.6946564,-76.9389343,-124.4427490
7230,6.9024482,2.2960277,1.6687500,117.7709961,-83.9770966,-132.1984711
7240,6.4020624,2.3439114,1.2521610,106.1526718,-86.4885483,-138.8702240
7250,5.7939386,2.3941894,0.8690908,91.0534363,-86.8167953,-143.6030579
7260,5.0086441,2.3654592,0.8068419,75.0229034,-86.9770966,-147.1297760
7270,4.1395535,2.2744799,1.0534433,60.5648842,-86.9923630,-148.8091583
7280,3.1028695,2.0973101,1.3575054,47.9923668,-97.4656525,-149.9847260
7290,2.1954718,1.9057748,1.8794388,41.0763359,-129.3816833,-152.3969421
7300,1.2234308,1.8267666,2.7820482,43.8015251,-183.1068726,-155.2595367
7310,0.4285599,1.8578910,2.8730273,52.7099228,-241.1374054,-155.8091583
7320,-0.1125269,2.1906834,2.0039365,58.7404594,-250.1374054,-151.9313049
7330,-0.4405309,2.7269819,0.9265513,53.9312973,-250.1374054,-144.4274750
7340,-0.4189832,3.1818779,-0.1268920,37.0458031,-250.1374054,-133.9160309
7350,-0.4812321,3.4117200,-0.9552816,9.1526718,-250.1374054,-120.3664093
7360,-0.6344602,3.4691806,-1.0342898,-27.2137413,-250.1374054,-105.2595444
7370,-1.1468167,3.2752512,-0.1388630,-64.6412201,-250.1374054,-88.1679382
7380,-1.8363433,2.6599445,1.0582317,-93.7328262,-242.5190887,-69.8549652
7390,-2.6024840,2.4444675,2.1212518,-115.5496216,-216.3740387,-49.3816795
7400,-2.8419030,2.4444675,3.3758070,-130.5343475,-197.3893127,-29.6335869
7410,-2.9568241,2.2361729,4.5058646,-138.8931274,-181.4122162,-11.9312973
7420,-3.3351059,1.9488702,5.4731169,-140.9236603,-168.5267181,6.5038166
7430,-3.4428444,2.1260402,6.2679882,-137.6793823,-157.7099304,27.1068707
7440,-3.0094962,2.1188576,6.4714942,-131.9694672,-147.3816833,46.5114517
7450,-2.5881188,2.3750360,6.3374195,-127.8091583,-134.7786255,64.0381699
7460,-2.2625091,2.6767037,6.1410961,-128.0458069,-120.1832047,79.2519073
7470,-1.7836711,2.8275378,6.0309634,-133.1374054,-102.2671738,91.4045792
7480,-1.2521610,2.8802099,6.3948798,-141.5801544,-81.5190811,101.3206100
7490,-0.6703730,2.9209111,7.1418672,-150.6030579,-58.6870232,108.6259537
7500,-0.5123565,2.7676830,8.2527714,-157.0458069,-37.2366409,113.7786255
7510,-0.5410868,2.6767037,9.6725254,-158.1145020,-24.8091602,119.5877838
7520,-0.2418131,2.3439114,11.0108776,-154.0763397,-24.0992374,124.2061081
7530,0.0502780,1.9105632,11.9613705,-144.5572510,-31.7404575,127.6106873
7540,0.4094064,1.7549409,12.7753954,-133.5572510,-42.2061081,131.2213745
7550,1.0295014,1.6807210,13.7450418,-122.2977066,-50.3740463,134.9847260
7560,1.4245427,1.8961980,14.7841196,-109.3816757,-51.1603050,139.0610657
7570,1.8483143,2.0781565,15.6005383,-94.7480927,-45.7938919,143.6412201
7580,2.5186872,2.3127871,16.2349987,-81.6717529,-34.2061081,147.4885559
7590,3.1220231,2.2864509,16.8000278,-69.8091583,-17.2519093,150.1221313
7600,3.3542595,1.8938038,17.3147774,-58.2442741,-0.6641222,152.8854980
7610,3.8187323,1.4604555,17.7122135,-45.8167953,12.9389315,157.0686951
7620,4.1156116,0.9792235,18.1527443,-31.8473282,22.7557259,161.5725250
7630,4.2257442,0.6224893,18.5406036,-15.7099237,28.1221371,167.1526642
7640,4.3741841,0.3878587,18.6172180,3.5114503,27.2824421,173.4732819
7650,4.4531922,0.2059003,18.0043049,23.4351139,21.4045811,180.3740387
7660,4.6662750,0.0598547,17.0969067,42.0687027,10.8396950,187.1908417
7670,4.6806402,-0.1699875,15.6747580,60.6488533,-11.9770994,193.3893127
7680,5.1929970,-0.3495516,14.1209297,75.8778610,-42.7557259,197.5801544
7690,6.0644817,-0.2274480,12.7586355,85.0839691,-70.7328262,199.9313049
7700,7.3453732,-0.4620786,12.1145983,90.0457993,-87.5267181,200.3969421
7710,9.0021524,-0.7685348,12.3372583,94.0381699,-94.2671738,198.3129730
7720,10.9390516,-0.8092360,12.8232784,98.0534363,-94.0381699,192.9389343
7730,12.8903160,-1.1252691,13.7833490,107.8015289,-84.5419846,182.0534363
7740,13.9605188,-1.1180865,14.1472654,123.2137375,-72.4122162,167.4351196
7750,15.2390156,-1.2330076,13.7234936,139.8854980,-57.4503822,152.4809113
7760,15.9907913,-1.2761030,12.5311880,150.6793823,-41.3969460,135.6946564
7770,16.2373924,-1.3814473,11.6788559,156.2519073,-26.8320618,119.7404556
7780,16.4025917,-1.5466464,10.9989061,159.9770966,-18.6564884,105.2595444
7790,16.5917320,-1.6424140,10.6685085,165.7938995,-17.5648861,91.9160309
7800,17.0226879,-1.6112895,10.3045912,172.9084015,-21.0916023,75.7862625
7810,17.4344883,-1.3455344,9.9263096,179.8778687,-26.9389305,58.5648842
7820,18.0138817,-1.0965388,9.7682934,187.7022858,-31.4351139,39.3587799
7830,18.3131542,-0.9026094,9.3421268,195.2519073,-30.7099228,18.5648861
7840,18.4352589,-0.8259954,8.7603388,201.5496216,-26.4274807,-1.6259542
7850,18.5262375,-0.5698171,8.0684185,206.1908417,-18.7022896,-20.6183205
7860,18.3083668,-0.4261657,7.2448173,208.6870270,-7.8244276,-40.0076332
7870,17.7529144,-0.4070122,6.3350253,207.8244324,0.6335878,-58.4427490
7880,17.1807041,-0.5339043,5.5305777,204.1832123,6.4351144,-76.0076370
7890,16.5534267,-0.5650287,5.0756817,199.5954132,9.8778629,-92.6488571
7900,15.9429073,-0.5746055,4.8482337,195.6717529,13.7862597,-107.9312973
7910,15.2174683,-0.5434810,4.5920553,193.8854980,15.8549614,-122.2290039
7920,14.7553892,-0.6296718,4.4675574,193.5267181,17.2977104,-134.9694672
7930,14.2645807,-0.6536137,3.8570392,194.0915985,19.7786255,-146.8702240
7940,13.8432035,-0.6584021,3.2130022,193.4503784,22.4045811,-158.4198456
7950,13.3260584,-0.5722113,2.3415172,190.4656525,25.5496178,-169.2061005
7960,12.6341381,-0.4477134,1.1252691,184.1068726,30.0076332,-178.7480927
7970,12.0858688,-0.3232156,0.0837966,173.3053436,33.0916023,-187.2748108
7980,11.2407198,-0.0478838,-0.6033357,159.7328186,29.5801525,-194.0610657
7990,10.4147243,0.1197095,-1.0702027,146.4122162,27.9541988,-198.1145020
8000,9.4426832,0.2729376,-1.2976507,133.8625946,22.0992374,-198.7557220
8010,9.0620070,0.6943150,-1.3742647,122.9694672,11.9541988,-198.4045868
8020,8.4443064,0.9289455,-1.4772149,114.2519073,0.4351145,-198.8396912
8030,7.8361821,1.1731528,-1.7836711,105.8473282,-12.7633591,-199.1755676
8040,6.9790621,1.1492109,-2.1835008,98.1068726,-24.9160309,-198.0763397
8050,6.2057390,1.4101776,-2.5474176,86.5648880,-36.8473282,-194.9084015
8060,5.3725610,1.6831152,-2.9640064,73.7328262,-49.0228996,-190.2748108
8070,4.6782460,1.8602852,-3.2130022,59.8244286,-62.1221390,-184.7404633
8080,3.9647777,2.0685797,-3.3973548,45.6488533,-74.9847336,-176.9541931
8090,3.5386121,2.2601149,-3.5194585,30.5190830,-87.1221390,-168.7328186
8100,3.3686244,2.3846128,-3.6128318,14.4274807,-99.7404556,-160.7251892
8110,3.1435707,2.6288199,-3.3829896,-0.8625954,-112.0687027,-154.0534363
8120,2.9520357,2.7509236,-3.2656744,-15.6564884,-120.5038147,-148.0458069
8130,2.4540441,2.9831600,-2.9616125,-30.5648861,-129.3129730,-141.7022858
8140,2.2194135,3.2345500,-2.7197993,-45.5038185,-136.9847260,-135.5343475
8150,1.9464760,3.3231349,-2.2816625,-59.4580154,-143.1297760,-129.0458069
8160,1.5921360,3.3782012,-1.9704180,-72.6564865,-148.4427490,-121.1832047
8170,1.1851238,3.3853838,-1.6256547,-85.2671738,-154.2748108,-113.4198456
8180,0.6775556,3.3111639,-1.3072275,-98.0763321,-160.8244324,-104.1068726
8190,0.1915352,3.1483591,-0.9624642,-110.6870193,-167.4809113,-93.0610657
8200,-0.2873027,2.8897867,-0.7230452,-124.7557220,-173.3129730,-79.8473282
8210,-0.7709290,2.6431851,-0.4118006,-139.0381622,-180.1755676,-64.2061081
8220,-1.1635761,2.5019281,-0.1460456,-153.7557220,-187.1832123,-46.8167953
8230,-1.4843974,2.2577207,0.3758878,-168.1679382,-195.5267181,-28.3282452
8240,-1.7333932,2.0757623,0.8475431,-179.6412201,-205.2061005,-9.4656487
8250,-1.8363433,1.8195840,1.3120158,-190.1603088,-210.2671814,10.4656487
8260,-2.3774302,1.5322813,1.7262106,-199.1755676,-215.6870270,33.1603050
8270,-2.3534882,1.2617378,2.1356170,-206.8320618,-217.3282471,57.2671738
8280,-2.4229198,1.2880739,2.3534882,-216.4274750,-215.8854980,78.7099228
8290,-1.9536586,0.7158626,3.5074875,-227.9694672,-220.2061005,97.6488571
8300,-1.3024391,0.6153067,5.3318601,-228.9694672,-217.4274750,115.8244247
8310,-1.0917504,0.4333483,6.9192076,-221.3816833,-213.7022858,130.5267181
8320,-0.9361281,0.1460456,8.5807753,-208.1297760,-213.4885559,145.8167877
8330,-0.6153067,0.0047884,10.3189564,-189.1221313,-211.4885559,161.7328186
8340,0.0119709,-0.1867468,11.5232334,-166.8091583,-198.1679382,177.9541931
8350,0.8738791,-0.2873027,12.1553001,-145.3816833,-176.5648804,193.2213745
8360,1.8459201,-0.5578461,12.2678270,-127.7099228,-150.3969421,207.0915985
8370,3.3997490,-0.6991033,12.5048513,-116.6641235,-118.7022934,219.1984711
8380,5.4180508,-0.4213773,13.4888630,-108.7557220,-84.4961853,226.9389343
8390,7.3597383,0.1556223,14.7506008,-97.5419846,-51.1374054,225.5954132
8400,8.8704720,0.6009415,15.6747580,-82.5038147,-23.2977104,216.8167877
8410,9.6102762,1.1228749,15.8854465,-65.3511429,-1.5267175,203.6946564
8420,9.5576038,1.5107336,15.6627874,-49.7557259,12.2824430,190.0381622
8430,9.0476418,1.8842272,15.0402985,-36.2290077,20.7404575,178.2748108
8440,8.5376797,2.0733681,14.1568422,-27.0687027,24.7862587,168.8167877
8450,7.6805596,2.1308286,13.4337969,-23.1679382,25.6564884,162.9313049
8460,7.0125809,1.9871773,13.2255030,-20.5496178,22.7633591,161.6564941
8470,6.6534524,1.8674678,13.6899757,-15.4961834,15.7709923,163.5725250
8480,6.6534524,1.5993185,14.0706511,-5.8854961,6.4045801,167.2061005
8490,7.1729918,1.5227045,14.1664190,6.4809160,-0.7557252,170.5801544
8500,8.2695303,1.5969244,14.2837343,18.2977104,-3.8396947,171.5114441
8510,9.4450769,1.7908537,14.4561157,29.2366409,-0.8320611,167.6717529
8520,10.0412302,1.6735384,14.3028879,39.6641235,8.0000000,161.2519073
8530,10.2998028,1.5897418,14.1712074,49.1679382,16.4885502,155.6030579
8540,10.4961262,1.3742647,14.2837343,61.4961815,22.6030540,149.8931274
8550,10.4697905,1.0007712,13.7905312,74.5419846,29.0381680,144.7251892
8560,10.2830439,0.8188128,13.0818510,85.0687027,33.7938919,141.8167877
8570,10.3428984,0.6847382,12.4761209,93.1374054,38.8549614,139.7557220
8580,10.3692341,0.4429250,12.1672707,100.3206100,43.0763359,137.2977142
8590,10.3428984,-0.0598547,11.9278517,106.3587799,44.6335869,134.4656525
8600,10.1944590,-0.7014975,11.8368731,112.6793900,42.4961815,133.4656525
8610,10.8073711,-1.2737088,11.8392668,120.4427490,41.9541969,134.6793823
8620,11.9541883,-1.4006008,11.8919392,129.5572510,43.5572510,134.7099304
8630,13.4768925,-1.6256547,12.0331964,137.6946564,47.1832047,131.5419922
8640,15.1863441,-1.5298871,12.2079716,146.8778687,58.3435097,123.0229034
8650,16.1799316,-0.9217629,12.5192165,156.3664093,72.1679382,109.7175598
8660,17.1447906,-0.6679789,12.6365318,166.7633514,89.2748108,93.4274826
8670,17.3363266,-0.6177009,12.5096397,176.8320618,102.9618301,72.3511429
8680,17.0609932,-0.8547257,12.0260134,186.6793823,110.3893127,52.0076332
8690,16.3020363,-1.3096216,11.4873209,196.4045868,112.2519073,34.9847336
8700,15.8160152,-1.4843974,10.1226330,204.3816833,115.9465637,22.3664131
8710,15.1432486,-1.9440818,8.6142941,204.6717529,118.4961853,13.3587790
8720,14.9038296,-1.8147956,7.7667508,199.8167877,110.5648880,5.7328243
8730,15.0833931,-1.5538290,7.3453732,194.7480927,96.9160309,-3.7251909
8740,15.1839495,-1.3096216,7.2400289,191.1526642,78.1450348,-16.4198475
8750,15.1384602,-0.9552816,7.0796180,188.7099304,59.1297722,-29.5496178
8760,14.8966465,-0.5865764,6.8210459,186.7633514,42.3511467,-43.9771004
8770,14.5063934,-0.3734936,6.3469963,184.7328186,26.7557259,-58.4809151
8780,14.1352949,-0.2011119,5.8897061,181.4045868,14.2977095,-71.4732819
8790,13.7665892,-0.0335187,5.5329719,177.1908417,5.5725193,-83.6717529
8800,13.5080166,0.0885850,5.3246775,173.9313049,-0.7099237,-94.1679382
8810,13.4816809,0.2657550,5.1259594,172.1450348,-5.5114503,-105.3435135
8820,13.4433737,0.3543400,4.7620430,172.4427490,-6.7099237,-117.2366409
8830,12.9166517,0.3902529,4.0701222,171.4580078,-5.3587785,-128.3587799
8840,12.1768475,0.3303981,3.2345500,167.6412201,-3.7328243,-136.4580078
8850,11.5423870,0.4668669,2.4851687,160.7404633,-3.6183207,-141.4961853
8860,11.0539722,0.5937590,1.8554969,152.7251892,-3.2519083,-145.5267181
8870,10.6709023,0.9026094,1.1779412,143.3129730,-2.6564887,-149.9770966
8880,10.3213511,1.2042773,0.7398046,132.5419922,-5.1603055,-155.2366486
8890,10.1705170,1.5634058,0.3184272,120.5877838,-10.3206110,-162.0534363
8900,9.8736372,1.8195840,0.2442073,110.1984711,-17.9083977,-170.4503784
8910,9.2367830,1.9129574,0.1005560,101.5954208,-26.3664131,-178.3129730
8920,8.4874020,1.9799947,-0.2442073,94.2290039,-35.7099228,-184.2061005
8930,7.6805596,2.0781565,-0.4285599,84.5114517,-47.1145020,-189.0000000
8940,7.0221577,2.1044924,-0.7948709,74.3740463,-58.4961815,-192.5877838
8950,5.9399838,1.9153515,-0.8212070,64.1603088,-70.6030502,-193.7404633
8960,4.8171091,1.6807210,-0.8930327,53.8015251,-83.3740463,-190.4961853
8970,3.6894460,1.6208663,-1.0845678,43.3587799,-95.6793900,-182.0915985
8980,2.7533178,1.6687500,-1.3263810,31.2061062,-107.7786255,-168.6717529
8990,2.0685797,1.9991482,-1.4915800,16.9312973,-119.8091583,-153.3129730
9000,1.6950861,2.4755919,-1.3551112,1.8778626,-130.8625946,-138.3435059
9010,1.6902977,2.7317703,-1.3215926,-13.5496187,-138.6106873,-125.3816757
9020,1.6160779,3.0214672,-1.3239868,-29.2824421,-143.2137451,-113.6488571
9030,1.7118455,3.2225790,-1.3862357,-47.2977104,-143.9541931,-102.6641235
9040,1.6160779,3.3805954,-1.3910241,-67.2824402,-140.1603088,-93.5648880
9050,1.1276633,3.2441268,-1.1539993,-88.4809189,-135.5419922,-85.0229034
9060,0.4908088,3.1220231,-0.9840119,-108.8396912,-133.2213745,-74.3206100
9070,-0.0383070,3.0454090,-0.5841822,-128.1374054,-136.2977142,-61.5725174
9080,-0.3064562,2.9496415,0.0718257,-144.4427490,-143.0152740,-49.0381660
9090,-0.4620786,2.8131726,0.8068419,-158.3893127,-150.6946564,-36.5954208
9100,-0.5362985,2.6120608,1.9177457,-168.8091583,-159.5725250,-23.6259537
9110,-0.3854645,2.2960277,2.5162930,-176.2900696,-166.8320618,-10.7404585
9120,-0.2681492,2.0206959,3.1938488,-179.5038147,-170.4580078,-0.3893130
9130,-0.1891410,1.7453641,3.8426740,-183.9160309,-174.1984711,10.0610685
9140,-0.0885850,1.5586174,4.4603748,-189.5725250,-170.3816833,20.3282452
9150,-0.1699875,1.7262106,5.6407104,-194.0152740,-159.3435059,31.4885502
9160,-0.1675933,1.8267666,6.8785062,-193.4351196,-146.9847260,42.2595406
9170,-0.7398046,2.4708035,7.6230993,-187.4427490,-132.5801544,51.6870232
9180,-0.4692611,1.8985922,7.7906923,-182.7709961,-127.0305328,61.7862587
9190,-0.1029501,1.7477583,7.8744893,-178.3282471,-117.2442780,70.8778610
9200,0.0766141,1.5586174,8.2743187,-174.9541931,-107.0992355,78.7328262
9210,0.7326220,1.2761030,9.2008705,-170.5496216,-100.2519073,85.6488571
9220,1.1156923,1.4269369,10.1561518,-161.6946564,-95.9542007,89.8778610
9230,1.5562232,1.7932479,10.8839855,-150.5190887,-89.6030502,95.6335907
9240,1.9752063,2.0805507,11.3580351,-141.0229034,-78.4122162,95.8778610
9250,2.1260402,2.2649033,11.7123747,-133.1755676,-63.6106873,100.5954208
9260,1.9129574,2.1667414,12.1409349,-125.3511429,-49.8091621,105.4045792
9270,1.8866212,1.6065011,12.4042959,-118.0763321,-37.8473282,111.3587799
9280,1.6663558,1.0893562,12.5359764,-111.7862625,-28.6030540,119.8473282
9290,1.7214222,0.6607963,12.7251167,-106.4122162,-22.4351139,130.2290039
9300,1.9632354,0.6607963,13.5223818,-100.7099228,-16.9618320,140.6793823
9310,2.6479735,0.7709290,14.6452570,-91.5572510,-10.7328243,149.7251892
9320,3.3590479,1.0606259,15.5430775,-78.6870193,0.9694657,156.6106873
9330,4.0174499,1.1228749,15.9357252,-65.4580154,15.4885492,162.1450348
9340,4.6064205,1.1994889,16.0314922,-54.6488533,29.1832066,165.1603088
9350,5.0780759,1.1683644,16.1823273,-44.9923668,42.6259537,165.9236603
9360,5.3270717,1.3335636,16.3738613,-34.6335869,51.5267181,166.5114441
9370,5.5712790,1.4867916,16.7042599,-22.8702297,56.4045792,166.9618378
9380,5.8250628,1.6208663,16.7856617,-9.7709923,57.9160309,166.5267181
9390,6.0381460,1.7597293,16.6659527,2.3587787,55.9160309,165.9541931
9400,6.4188218,2.0518203,16.6180687,14.0687027,54.1221390,163.8778687
9410,6.5289545,2.1020982,16.5007534,24.4503822,52.5038185,160.2366486
9420,6.5241661,2.0374553,16.3666782,34.0916023,48.0534363,155.5114441
9430,6.3685441,1.7693061,16.4815998,44.8244286,41.3587799,151.1374054
9440,6.3278427,1.4556671,16.4648399,57.1450386,33.2061081,148.7328186
9450,6.2153158,0.8834559,16.0482521,69.4045792,24.0152664,148.7709961
9460,6.1219425,0.1173153,15.7824965,81.3053436,12.9389315,151.1832123
9470,6.3206601,-0.6153067,15.1408539,91.8625946,4.3358779,158.4427490
9480,7.2759418,-1.4365137,15.1336718,102.2137375,-1.3587786,165.9618378
9490,8.2623482,-1.7046629,15.3467541,115.4198456,-2.7251909,171.2519073
9500,9.4378948,-1.7094513,15.3347836,131.5572510,0.7633588,175.2442780
9510,10.8648319,-1.7621235,15.0977583,146.9923706,7.5572519,173.0992432
9520,11.8057480,-1.9273225,14.7458124,160.7938995,16.1832066,166.6717529
9530,12.3540173,-2.0230901,14.2143030,174.1145020,23.9236641,158.7251892
9540,12.8520088,-2.0925217,13.5582952,187.3893127,28.9007626,149.5114441
9550,13.2733860,-2.0350611,12.7059631,198.7404633,31.5038166,138.9618378
9560,13.8719339,-1.7022687,11.8105364,206.8854980,34.8931313,126.7328262
9570,14.3340120,-1.6041069,10.7882175,211.6412201,37.3816795,112.5267181
9580,14.5662489,-1.4197544,9.8832140,212.9770966,38.8167953,95.7328262
9590,14.6093445,-1.2737088,8.9303265,211.5648804,38.2824440,82.2366409
9600,14.9373484,-1.0510491,8.4443064,208.6412201,35.2671738,66.9007645
9610,15.7274303,-0.4620786,8.2312231,206.7175598,28.1145039,49.0381660
9620,16.4696293,0.3280039,7.9894104,205.9465637,20.3511448,26.5419846
9630,17.0753593,0.5027798,7.5895805,205.6335907,16.5877857,-0.0916031
9640,17.2597122,0.6799498,7.1753860,203.9007568,13.7404585,-28.0458012
9650,17.3626614,0.7972651,6.7468257,200.8931274,13.4961834,-55.5038185
9660,17.0993004,0.8044477,6.3326311,196.7938995,12.5877867,-82.1603088
9670,16.5534267,0.6823440,6.0309634,192.5877838,8.9847326,-107.9923630
9680,15.7848911,0.5003856,5.6239510,187.8167877,4.1755724,-130.8778687
9690,14.5806141,0.2250538,5.3270717,182.8473358,-2.4580152,-148.7709961
9700,13.3954897,-0.0359128,5.1355362,179.0305328,-10.0763359,-159.7709961
9710,12.5479469,-0.0478838,4.7333126,176.6564941,-18.1068707,-165.8931274
9720,12.0954447,0.0718257,4.1778607,174.1297760,-27.4961834,-168.8473358
9730,12.2750092,0.5291159,3.7181761,171.1984711,-37.9236641,-172.6641235
9740,12.3420467,0.8643024,3.1818779,168.0458069,-45.5877876,-179.9160309
9750,12.0595322,1.1611819,2.6096666,163.4045868,-49.1755714,-189.0305328
9760,11.6477318,1.4676381,1.6950861,156.1832123,-50.5190849,-198.4809113
9770,10.9127159,1.6160779,0.8954269,145.1679382,-51.7480927,-208.1526642
9780,9.9861641,1.6256547,0.1053443,130.7557220,-51.1068687,-217.0152740
9790,8.5927458,1.4604555,-0.5099624,113.4656525,-51.0916023,-221.5801544
9800,7.0508881,1.3598996,-1.0295014,95.9694672,-52.4045792,-220.1221313
9810,5.4946647,1.2234308,-1.3215926,76.2977066,-56.1603050,-213.2824402
9820,4.3358769,1.4269369,-1.2186425,58.4274826,-62.7175560,-202.0229034
9830,3.6822634,1.6950861,-1.0175306,43.1450386,-73.3206100,-189.7328186
9840,3.2297616,1.8291607,-0.7852941,31.0916023,-85.2519073,-178.0152740
9850,2.9735832,1.9584470,-0.5003856,21.2442741,-99.5954208,-168.2671814
9860,2.7868366,2.0781565,-0.4309541,13.1603050,-113.5038147,-159.0000000
9870,2.6455793,2.2696917,-0.5865764,4.8702292,-123.8702316,-150.7633514
9880,2.3439114,2.4803803,-0.7709290,-4.5343513,-132.8854980,-143.5954132
9890,1.9225341,2.6048782,-0.9648584,-15.7862597,-139.5877838,-137.0152740
9900,1.2593436,2.6767037,-1.2425843,-29.0458012,-143.0076294,-129.1603088
9910,0.4644727,2.6168492,-1.6424140,-44.7251892,-145.2290039,-119.0839691
9920,-0.3423691,2.4348907,-2.0590029,-65.0839691,-145.2137451,-106.3129807
9930,-1.0366840,2.2313845,-2.3319404,-89.2137375,-144.1374054,-90.4885483
9940,-1.4772149,1.9057748,-2.1260402,-113.6793900,-145.8473358,-73.0763321
9950,-1.6783268,1.5777708,-1.8387375,-137.0992432,-151.4580078,-56.2213745
9960,-1.8770446,1.3503228,-0.9385223,-157.3816833,-160.5038147,-40.6488533
9970,-2.1140692,1.1827296,-0.0239419,-173.9389343,-172.1526642,-24.7557259
9980,-2.2146254,1.3311694,1.1947005,-184.8015289,-186.1221313,-8.7175570
9990,-2.0374553,1.4173602,2.3822186,-190.7328186,-197.5114441,6.0916033
