timestamp,acclX,acclY,acclZ,gyroX,gyroY,gyroZ
0,3.4236910,1.5658000,9.1817169,-2.9465649,-15.7862597,-1.4122137
10,3.8235207,1.7190280,9.0739784,0.3511450,-13.1908398,6.5954199
20,3.8881636,1.8243724,9.0236998,0.6564885,-11.6488552,7.4580154
30,3.9599893,1.8147956,8.9470863,0.5267175,-10.1145039,8.1221371
40,4.0294209,1.8578910,8.8417416,0.0458015,-9.0381680,8.5038166
50,4.1754665,1.8243724,8.8776541,-0.9160305,-7.6183205,8.3129768
60,4.4124913,1.9297167,8.8585014,-1.7709924,-6.2824426,7.1755724
70,4.4364328,1.7812769,8.7914639,-2.5572519,-5.5954199,5.5114503
80,4.4388270,1.8219782,8.8968077,-2.9160306,-5.5190840,4.4427481
90,4.4124913,1.7717001,8.9829988,-3.0152671,-5.2290077,3.6488550
100,4.5226240,1.7477583,9.0428534,-2.3053436,-5.5267177,3.4503818
110,4.6303625,1.6831152,8.9997578,-1.8320611,-5.3511453,3.5343511
120,4.8003497,1.6998745,9.0380650,-1.1984733,-4.3206105,3.0687022
130,4.9583664,1.7645177,8.9829988,-1.3893130,-2.6870229,1.8473282
140,5.0493455,1.7525467,8.7699156,-1.7099236,-1.3053435,0.4809160
150,5.0780759,1.7142396,8.5161324,-3.1603053,0.7633588,-2.7251909
160,5.1834202,1.6974803,8.4514885,-4.2519083,0.8931298,-4.5419846
170,5.0661049,1.7070571,8.2336178,-5.3435116,1.2595420,-6.9465647
180,5.0086441,1.6639616,8.1234846,-7.0687022,1.0152671,-9.3893127
190,4.7117648,1.5777708,7.7930865,-9.0076332,-0.6641222,-10.8778629
200,4.4747400,1.4077834,7.7547798,-11.3435116,-4.0992365,-11.1755724
210,4.2808108,1.2042773,7.5943689,-14.2824430,-8.8091602,-10.6717558
220,4.2353210,1.1875180,7.7475972,-16.6183205,-14.0687027,-9.7862597
230,4.2209558,1.1372399,7.7332320,-18.5343513,-17.7404575,-9.0381680
240,4.1922259,1.1539993,7.8673067,-20.2213745,-20.0305347,-8.2290077
250,4.1395535,0.9888002,7.7595682,-22.0687027,-21.2900772,-6.9694657
260,4.1467361,0.9385223,7.5895805,-25.1145039,-21.2290077,-5.7328243
270,3.9719603,0.7805058,7.6302819,-30.1603050,-18.1755733,-4.3282442
280,3.5769191,0.5650287,7.5656385,-35.7557259,-11.4809160,-2.0381680
290,2.2026544,-0.0215477,7.8433647,-41.9541969,-6.6717558,2.0534351
300,0.6057299,-0.4381367,8.2815018,-46.9312973,-7.9770994,12.4732828
310,-0.6560079,-0.4548960,8.6358414,-51.3664131,-10.6183205,26.9923668
320,-1.2114599,-0.4022238,9.1362267,-56.7251892,-10.9694653,44.2137413
330,-1.4245427,-0.1436514,9.7994175,-63.4961815,-6.9541984,60.6335869
340,-1.4748207,-0.0263361,10.6685085,-70.7633591,0.9083970,75.8167953
350,-1.4197544,0.1699875,11.9086981,-75.2519073,11.0076332,88.8625946
360,-1.0917504,0.5219333,13.4936514,-74.2900772,20.4961834,96.6641235
370,-1.1348459,1.0079538,15.0594521,-66.2290039,26.7786255,102.3969498
380,-1.4556671,1.4101776,16.2397861,-51.8320618,28.0687027,105.3129807
390,-1.5490406,1.4460905,16.8311520,-33.2290077,25.0458012,109.1221390
400,-1.2761030,1.3646880,16.9532547,-15.0534353,22.8167934,112.8931274
410,-0.9145803,1.2713146,16.7736912,0.2900763,20.6641216,115.4580154
420,-0.6368544,0.8068419,16.4432926,11.3511448,19.0992374,118.5343475
430,-0.5961532,0.5291159,16.4313221,20.3511448,15.9007635,122.3816757
440,-0.7493813,0.1628049,16.7473545,30.6717548,8.0305347,128.3893127
450,-0.4405309,-0.2729376,17.0274754,44.6717567,-2.6335878,138.1450348
460,0.7709290,-0.8044477,17.1687317,60.9160309,-13.2900763,149.8015289
470,2.3630650,-1.0989330,16.8766422,76.9542007,-19.9389305,159.9313049
480,4.5393834,-1.2856797,16.6875000,90.4580154,-20.8549614,166.4580078
490,6.7803445,-1.1444225,16.3068237,101.9618301,-14.9236641,167.2442780
500,8.7699156,-0.7948709,16.1751442,107.1526718,-2.8167939,161.2900696
510,10.3788109,-0.6153067,16.0123386,113.5038147,10.7022905,149.8091583
520,11.4609852,-0.6967092,15.5718079,119.4351120,18.4656487,134.3511505
530,11.8751793,-0.8403605,15.2701406,125.8549652,18.6259537,118.4427490
540,12.4378138,-1.0965388,14.6691990,132.8625946,12.8549614,101.6488571
550,13.1680422,-1.4365137,14.0921993,139.6488495,4.6946564,84.0229034
560,13.6636391,-1.6376256,13.6756105,146.7557220,-5.0305343,65.1145020
570,14.7075062,-1.8028246,13.5199881,154.9313049,-11.7480917,46.3282433
580,15.9524841,-1.7836711,13.1153698,163.8778687,-11.8015270,26.2366409
590,17.2022514,-1.7549409,12.4449968,171.0610657,-5.4274807,3.5419848
600,17.9205074,-1.6663558,11.8584204,175.7633514,7.0687022,-22.3740463
610,17.7433376,-1.8004304,10.9725704,178.9160309,24.0763359,-48.4503822
620,16.7018661,-2.1906834,9.8927908,179.7709961,39.8625946,-70.8244247
630,15.3563309,-2.5641768,8.7100611,178.2824402,53.6106873,-87.8473282
640,13.9246063,-2.7221935,7.3741035,174.0076294,64.0457993,-99.5954208
650,12.7083578,-2.8395088,6.4427638,167.2748108,70.4122162,-106.9007645
660,11.7243462,-2.6695213,5.5114241,159.2061005,71.9847336,-112.9465637
670,10.8600435,-2.6288199,4.9847026,152.0763397,67.1832047,-117.7938919
680,10.0867205,-2.3319404,4.6064205,146.5419922,55.6870232,-122.4198456
690,9.6198530,-2.2242019,4.3119354,143.1374054,39.9618340,-127.3893127
700,9.1673517,-2.1882892,3.8761928,141.2061005,19.9083977,-133.1908417
710,9.0907373,-1.9728121,3.4931223,139.9313049,-4.3282442,-139.5877838
720,8.8369532,-1.6783268,2.9927368,138.2290039,-28.9770985,-147.1984711
730,8.6262646,-1.5658000,2.5019281,134.4809113,-54.6564903,-155.8473358
740,8.2407999,-1.2282192,2.0422437,129.6183167,-79.0916061,-164.9923706
750,7.7212610,-0.9672526,1.6400198,122.7251892,-101.7786255,-173.6335907
760,7.0269461,-0.8523315,1.3407460,113.4427490,-122.7862625,-180.6488495
770,6.2416520,-0.6177009,1.1492109,101.1908417,-142.2442780,-184.5572510
780,5.6814117,-0.5410868,1.2377959,91.8473282,-157.2366486,-186.4961853
790,5.2001796,-0.4165890,1.3048333,80.6946564,-164.5190887,-186.5648804
800,4.6614871,-0.1987177,1.3814473,69.6259537,-164.1297760,-184.2137451
810,4.0820932,-0.0095768,1.3096216,57.8167953,-156.9007568,-180.2061005
820,3.3398943,0.1268920,0.8403605,42.9847336,-143.0534363,-174.7786255
830,2.4253139,0.2226596,0.5315101,25.8549614,-128.1145020,-167.2748108
840,1.5250987,0.2346306,0.7134684,6.3129773,-115.3740463,-156.4274750
850,0.6344602,0.3734936,1.0678085,-11.5343513,-105.2824402,-143.7862549
860,-0.2346306,0.6344602,1.7525467,-26.9389305,-96.4503784,-130.3358765
870,-0.9504932,0.8331779,2.3941894,-38.6488533,-89.2900772,-116.1450348
880,-1.7094513,0.9409165,2.8035958,-48.2366409,-83.8320618,-101.3893127
890,-2.3175755,1.1947005,3.1699069,-56.7557259,-82.4503784,-87.4198456
900,-2.8778157,1.5155219,3.6655040,-62.7175560,-83.1984711,-74.4503784
910,-3.1723011,1.5274929,4.0102673,-66.4732819,-86.3664093,-61.6946564
920,-3.3614421,1.7022687,4.2760224,-68.6641235,-90.8931274,-49.7099228
930,-3.4452386,1.9345051,4.2879934,-71.6564865,-94.6870193,-38.7328262
940,-3.5984666,1.9704180,4.2161674,-77.4427490,-95.6793900,-28.3282452
950,-3.7349355,1.9608412,4.2544746,-86.1374054,-95.0381699,-16.5496178
960,-3.6559272,1.9943599,4.0916696,-97.4961853,-92.0839691,-5.0076337
970,-3.7947903,2.0183017,4.4484038,-108.9083939,-88.1374054,6.4961834
980,-3.7253587,2.3127871,4.8889351,-119.7251892,-82.8320618,17.8854961
990,-3.2800395,2.3151813,5.5281835,-129.7404633,-76.5114517,27.8015270
1000,-3.1411765,2.3415172,6.2368636,-138.0229034,-70.5954208,35.2290077
1010,-3.2513094,2.3941894,6.7947097,-141.7251892,-68.2366409,40.8015251
1020,-3.2560976,2.2242019,7.3621325,-145.8396912,-70.0381699,46.6030540
1030,-2.6192431,2.1380112,7.5033898,-152.0839691,-66.5114517,50.9771004
1040,-2.6743097,1.9919657,8.8369532,-149.7938995,-64.8015289,55.0000000
1050,-2.8921809,2.1356170,9.3564920,-145.8091583,-67.5572510,62.6183205
1060,-2.7293761,2.3582766,9.5480280,-143.9084015,-69.5801544,71.6717529
1070,-2.4468615,2.6144550,10.1441803,-142.0610657,-66.2519073,80.9312973
1080,-1.9368993,2.8514795,10.7235746,-140.5725250,-59.4961815,90.4503784
1090,-1.3982066,2.6838863,11.1856527,-139.6946564,-49.1603050,98.7099228
1100,-0.8547257,2.8059900,12.0667152,-137.7557220,-34.8625946,105.9618301
1110,-0.3758878,2.7485294,12.8232784,-134.9160309,-19.3129768,112.4045792
1120,0.0526722,2.7437410,13.7163115,-130.3664093,-2.7480917,117.3969498
1130,0.2825144,2.8730273,14.4058380,-123.8473282,11.5419846,120.9618301
1140,0.8164186,2.7868366,14.8870697,-116.7022934,22.4351139,122.4732819
1150,1.0606259,2.4492557,15.2797174,-109.9007645,29.1755733,122.0000000
1160,1.1851238,2.0590029,15.5478659,-101.9007645,30.2748089,121.9618301
1170,1.1396341,1.7166338,15.7178535,-93.1603088,25.1984730,122.0687027
1180,1.1132981,1.3910241,16.0003681,-84.0000000,15.4580154,122.9007645
1190,1.2784972,0.9768293,16.3211899,-74.6335907,2.7480917,124.7175598
1200,1.4413021,0.4836263,16.6467991,-64.7557220,-9.8320608,127.0457993
1210,1.5849534,0.0311245,17.3339310,-53.7633591,-21.6106873,132.3129730
1220,2.3032103,-0.3280039,18.0066986,-38.8244286,-28.7938938,139.9084015
1230,3.5026991,-0.4501076,18.4903259,-21.2519093,-25.6793900,146.5801544
1240,4.7500720,-0.3471575,18.3921642,-3.5572519,-13.9694653,149.6412201
1250,5.4683285,-0.1173153,17.7481270,11.2748089,2.8396947,148.8702240
1260,5.5281835,0.0526722,16.6970768,21.7328243,18.8320618,145.0915985
1270,4.9607606,-0.1125269,15.5454721,27.2748089,32.1984749,141.5496216
1280,4.0892754,-0.3136388,14.3172531,28.9618320,39.4961815,140.8778687
1290,3.4236910,-1.0534433,13.5678720,28.0916023,35.0228996,143.8244324
1300,3.0549858,-1.7118455,13.9293938,30.4274807,17.5572510,150.7175598
1310,4.0509686,-1.8985922,14.5782194,38.0534363,-2.9083970,155.9847260
1320,5.4324160,-1.9680238,15.1887379,47.9541969,-15.9847326,157.1297760
1330,6.9287844,-1.8626794,15.8543224,58.2977104,-16.6717548,156.7328186
1340,8.5376797,-1.5753766,16.1488075,67.7404556,-1.0687023,153.9084015
1350,9.6892843,-1.2282192,16.0458584,75.5877838,23.2900772,148.7099304
1360,10.1202393,-0.8307837,15.8830528,81.8244247,45.7175560,140.9084015
1370,9.8281479,-0.5267217,15.3419657,87.5801544,59.8091621,131.9084015
1380,9.4881725,-0.8068419,14.8320036,93.1832047,62.0839691,124.2061081
1390,9.6988611,-1.3048333,14.4728756,100.3511429,53.1679382,119.3206100
1400,10.6469603,-1.3718705,14.4680872,106.3816757,38.5419846,112.4427490
1410,11.6788559,-1.4341195,14.8487625,113.9923630,22.5648861,101.2442780
1420,12.8831339,-1.3311694,15.2174683,124.7557220,9.3893127,87.6488571
1430,14.4513273,-1.1755470,15.4927998,136.9541931,7.3587785,71.9542007
1440,15.7585554,-1.0223188,15.2509871,148.4732819,18.6030540,53.1450386
1450,16.2182388,-0.8547257,14.4178085,158.1297760,35.1908379,31.7099228
1460,15.7609491,-1.0678085,13.5151997,165.5725250,48.0534363,11.0000000
1470,15.0163565,-1.3814473,12.3276815,171.6717529,54.6946564,-6.1603055
1480,14.3028879,-1.5993185,11.2718439,176.6870270,55.3664131,-19.6106873
1490,13.4888630,-1.5370697,10.1585455,181.6183167,51.0839691,-31.0992374
1500,12.9238348,-1.4891858,8.9446917,184.8549652,44.3206100,-42.4580154
1510,12.4114780,-1.4101776,7.9463148,186.7404633,36.6335869,-53.7938919
1520,12.1624823,-1.2737088,7.2017217,186.6641235,27.7099228,-65.0152664
1530,12.0595322,-0.9289455,6.3948798,186.1068726,20.0687027,-77.5267181
1540,11.8320847,-0.9097920,5.5497313,184.7251892,12.5496187,-91.6412201
1550,11.5399933,-0.7876883,4.7811961,182.2061005,2.5038168,-105.9542007
1560,11.0827026,-0.5937590,4.1012464,179.5343475,-9.3129768,-119.8396912
1570,10.4721851,-0.5267217,3.3566537,175.0915985,-23.3664131,-132.7480927
1580,9.7084379,-0.2873027,2.5306582,168.9084015,-39.8854980,-144.0763397
1590,8.9279327,-0.2250538,1.8363433,159.9770966,-58.7557259,-153.3816833
1600,8.3700867,-0.1436514,1.4963684,149.7251892,-78.6412201,-159.8396912
1610,7.9463148,0.1125269,1.1516051,138.7862549,-94.8702316,-164.2824402
1620,7.6733770,0.3160330,1.0079538,127.0076370,-107.6793900,-168.4045868
1630,7.2974896,0.4477134,0.8882443,115.3893127,-117.3969498,-172.6335907
1640,6.8497758,0.5195391,0.7589580,101.3587799,-123.7404556,-176.4580078
1650,6.2296810,0.5386927,0.4548960,88.9542007,-124.8015289,-178.3587799
1660,5.5760674,0.5339043,0.1867468,72.8473282,-120.2290039,-178.0839691
1670,4.4938936,0.4118006,-0.0574605,55.2900772,-112.6641235,-174.8625946
1680,3.4907281,0.3615226,-0.4237715,36.7557259,-104.0687027,-167.7099304
1690,2.6120608,0.4501076,-0.5626345,17.1526718,-95.4656525,-158.1755676
1700,1.7645177,0.3615226,-0.5674229,-3.0992367,-86.5267181,-147.4885559
1710,0.6440369,0.3375807,-0.4501076,-22.8931293,-80.2900772,-134.2213745
1720,-0.0574605,0.3998296,-0.2322364,-40.8473282,-80.0992355,-119.7480927
1730,-0.3088504,0.5578461,-0.0598547,-57.9847336,-81.7862625,-106.6183243
1740,-0.4740495,0.4860204,0.4309541,-72.1908417,-87.4656525,-96.9923630
1750,-0.6823440,0.5650287,1.0630201,-83.8854980,-94.8854980,-88.8702316
1760,-0.9624642,0.5362985,1.4891858,-92.6259537,-103.3282471,-81.9389343
1770,-1.2784972,0.6009415,1.7477583,-100.3893127,-110.3206100,-75.3282471
1780,-1.5849534,0.7350162,2.1499822,-108.3511429,-116.9160309,-69.1374054
1790,-1.8578910,0.9935886,2.6383967,-116.3206100,-121.1908417,-63.1832047
1800,-2.0949159,1.1204807,3.0214672,-125.0076370,-122.0381699,-57.2595406
1810,-2.2577207,0.9983770,3.1315999,-136.5954132,-116.2442780,-50.4198456
1820,-2.5378408,0.8786675,3.6128318,-151.4274750,-103.9083939,-42.7099228
1830,-3.0023136,0.5937590,4.2401094,-166.4656525,-89.6717529,-33.7557259
1840,-3.5529771,0.1819584,5.3677726,-178.0534363,-77.5267181,-21.9465656
1850,-3.9935081,-0.0694315,6.4475522,-184.4503784,-68.2977066,-9.1221371
1860,-4.6351509,-0.0790083,7.6422529,-186.4580078,-61.4656487,5.2442746
1870,-5.1379304,0.0933734,8.4921904,-185.6106873,-60.2595406,21.6564884
1880,-5.1618724,0.2346306,9.2439651,-185.4580078,-59.5038185,38.1832047
1890,-4.5752959,0.4022238,9.7922344,-187.0686951,-53.3969460,53.1984749
1900,-3.4907281,0.0119709,11.2694502,-183.5801544,-42.6793900,62.9847336
1910,-2.7988074,0.3184272,11.8799677,-177.7175598,-31.0763359,70.2213745
1920,-2.1188576,-0.0430954,12.4497852,-174.3053436,-16.5954189,73.5648880
1930,-2.0973101,0.2729376,12.9741125,-168.7328186,-2.8931298,74.7938919
1940,-2.0757623,0.4429250,13.0842457,-162.7633514,7.3358779,76.6183243
1950,-2.5234756,0.6679789,13.2255030,-159.1755676,13.2442751,78.6564865
1960,-3.0310438,0.7374104,13.5989962,-157.2137451,12.9541988,82.9389343
1970,-3.1100521,0.4955972,14.2310619,-154.7557220,11.1297712,88.8702316
1980,-3.1675127,0.2106887,15.0043850,-151.6030579,8.2824430,97.3893127
1990,-2.7533178,-0.0718257,16.2661228,-145.3816833,6.3053436,108.3664093
2000,-2.1451938,-0.2226596,17.4512463,-135.1526642,8.2595415,118.4961853
2010,-1.4891858,-0.1268920,18.4855366,-122.8320618,13.7328243,127.4427490
2020,-0.7302278,0.2130829,19.1630917,-109.5648880,23.1755733,134.3893127
2030,-0.1460456,0.3495516,19.6126022,-95.1755753,31.5725193,137.7404633
2040,0.2202654,0.4070122,19.6126022,-80.2824402,36.9389305,138.2137451
2050,0.0718257,0.2729376,19.6126022,-64.0152664,35.8015251,137.0610657
2060,-0.2322364,0.0526722,19.6126022,-46.4961815,24.5877857,137.8244324
2070,-0.2082945,-0.2585725,19.2804070,-28.2748089,8.8396950,141.2213745
2080,0.2777260,-0.5219333,18.7967815,-11.2977095,-4.7633586,149.3053436
2090,1.4149660,-0.6584021,18.3251266,2.9465649,-11.9236641,159.2748108
2100,3.0166788,-0.7230452,18.0354290,13.5496187,-11.5954199,166.9313049
2110,4.7404952,-0.5722113,17.5422268,20.2442741,-0.0076336,170.2595367
2120,6.1770086,-0.3256098,17.4177284,26.0763359,20.7862587,167.2290039
2130,6.3637557,-0.3447633,16.8550930,32.1832047,36.9541969,160.6641235
2140,6.0501165,-0.3423691,16.1607780,37.1068687,40.2824440,150.0763397
2150,5.4707227,-0.7541697,15.7920732,44.6946564,29.3053436,138.5114441
2160,4.9080882,-1.2617378,15.4712524,54.8320618,9.8778629,130.3893127
2170,4.9535780,-1.5490406,15.4808292,65.9389343,-10.0305347,126.0229034
2180,5.3390427,-1.6400198,15.5095596,78.5648880,-24.7404575,123.4961853
2190,6.0596933,-1.5610116,15.5574427,89.7099228,-29.6412220,123.1068726
2200,7.2855186,-1.4652439,15.5143480,100.2061081,-24.7633591,120.8167953
2210,8.6645718,-1.2545552,15.2773228,105.4809189,-11.3435116,114.7862625
2220,9.1793222,-1.1252691,15.0594521,110.3053436,5.3053436,106.5343475
2230,9.2966375,-1.2617378,14.8056679,115.9083939,17.8549614,98.8778610
2240,9.2870607,-1.2689204,14.5207586,122.8473282,22.3435116,90.0152664
2250,9.2822723,-1.2784972,14.1831779,131.8473358,19.5954189,82.8854980
2260,9.6318245,-1.2832855,13.6133614,141.7786255,12.0687027,73.8625946
2270,10.1848822,-0.9792235,13.2159262,151.2366486,2.3511450,62.5954208
2280,10.6493549,-0.7350162,13.0555153,161.4427490,-6.2519083,48.1679382
2290,11.2119894,-0.5482694,12.7227230,171.9694672,-13.2671757,30.6106873
2300,11.4274664,-0.3375807,12.2414904,183.5419922,-17.8854961,11.3511448
2310,11.3939476,-0.2418131,11.6980095,194.6488495,-22.0610695,-8.0839691
2320,11.1305866,-0.3447633,10.6900558,205.9847260,-24.1908398,-26.6946564
2330,10.5296450,-0.5386927,9.3804340,213.0763397,-27.8702297,-41.3358765
2340,10.0819321,-0.4046180,7.9654684,215.4885559,-32.9236641,-52.5725174
2350,9.8688488,-0.1053443,6.5457139,211.6641235,-38.3206100,-60.7251892
2360,10.2423429,0.2322364,5.7053533,202.2213745,-43.3587799,-67.8549652
2370,10.5224628,0.6440369,5.0852585,192.1526642,-44.0228996,-77.3740463
2380,10.7068148,0.9313397,4.7237358,181.2748108,-45.0076332,-89.0992355
2390,10.9246864,1.2282192,4.5226240,172.0992432,-48.1221390,-102.1221390
2400,11.0515785,1.4077834,4.2855992,164.9007568,-54.6106873,-116.9007645
2410,10.8265247,1.5897418,3.6774750,159.0076294,-63.5877876,-133.2671814
2420,10.3788109,1.6472024,3.1292057,152.7938995,-77.8396912,-149.0076294
2430,9.9622221,1.6591733,2.8490853,147.3358765,-95.4656525,-164.2748108
2440,9.4043760,1.8363433,2.8490853,143.3740387,-112.1068726,-177.7862549
2450,8.5281029,1.7836711,2.6312141,139.5801544,-129.8091583,-188.0915985
2460,7.5632443,1.5658000,2.1882892,134.0152740,-144.2366486,-193.4045868
2470,6.7157016,1.4532729,1.6160779,125.1526718,-152.9770966,-193.3740387
2480,6.0716643,1.3503228,0.9385223,111.2061081,-147.8473358,-189.4122162
2490,5.5353661,1.4077834,0.1891410,90.9389343,-133.0915985,-181.8931274
2500,5.0445571,1.4987626,-0.5698171,64.4427490,-109.3816757,-172.7328186
2510,4.5226240,1.5442522,-0.8690908,34.3435097,-79.5725174,-162.0992432
2520,3.8139439,1.6088953,-0.8475431,3.9847329,-49.4580154,-150.1145020
2530,3.1866663,1.5203103,-0.4716553,-24.2366409,-22.3358784,-136.7557220
2540,2.5402350,1.6041069,0.1460456,-46.2671738,-5.2061067,-125.0916061
2550,1.9345051,1.7333932,0.9504932,-60.3206100,-0.9618320,-116.9770966
2560,1.3551112,1.9368993,1.7286048,-67.5419846,-8.9389315,-110.5648880
2570,0.6655847,2.0350611,2.0302727,-70.8396912,-25.7175579,-105.1603088
2580,0.1005560,2.0350611,2.2625091,-73.4656525,-48.7557259,-99.2442780
2590,-0.4213773,1.9464760,2.5953014,-75.8473282,-71.9007645,-92.5725174
2600,-0.7398046,1.8483143,2.8514795,-77.7557220,-92.5572510,-85.1297684
2610,-1.0031654,1.6807210,3.1627243,-79.7786255,-108.3435135,-76.7022934
2620,-1.4484847,1.9153515,3.2201848,-83.1603088,-116.2671738,-66.1603088
2630,-1.8243724,2.1044924,3.4643922,-88.5648880,-117.3664093,-53.9618340
2640,-2.0877333,2.3127871,3.5122759,-95.9083939,-114.9160309,-41.6335869
2650,-2.0973101,2.2816625,3.4979107,-105.6259537,-107.4427490,-29.8015270
2660,-2.0230901,2.0183017,3.4979107,-118.7022934,-95.9542007,-20.7709923
2670,-1.8387375,1.6543850,3.9025288,-134.3129730,-84.7175598,-14.1984730
2680,-2.0350611,1.3359578,4.8745699,-146.9618378,-77.9312973,-10.2213745
2690,-2.3654592,0.9241571,5.7340837,-154.7786255,-75.4045792,-6.4961834
2700,-2.9687948,0.6871324,6.9431496,-157.1984711,-76.4503784,-0.5725191
2710,-3.5457945,0.7398046,7.7475972,-155.1374054,-79.7175598,7.3053436
2720,-3.9001346,0.9600700,8.5759869,-149.9847260,-81.8473282,16.4885502
2730,-4.0605454,1.0702027,8.7938576,-146.9770966,-79.3664093,27.1603050
2740,-4.0174499,0.9792235,8.6956959,-149.3206177,-69.4580154,38.4351158
2750,-3.8115497,0.6105183,8.8585014,-156.8702240,-52.5343513,49.2061081
2760,-3.5290353,0.6009415,9.3181858,-163.7480927,-33.6106873,58.4351158
2770,-3.2010312,0.7062859,9.6294298,-172.9770966,-17.2519093,63.9847336
2780,-3.1292057,0.6512195,10.6996326,-179.7862549,-1.7786260,67.0305328
2790,-3.3087699,0.8499373,11.8703909,-181.5114441,10.3816795,68.9847336
2800,-3.7062054,1.0965388,12.8998928,-178.0458069,16.4809170,71.1984711
2810,-4.2041965,1.2976507,13.8001080,-169.8091583,16.3206100,74.3587799
2820,-4.4507980,1.3191984,14.5614605,-157.6259613,11.9236641,80.6717529
2830,-4.5872669,1.2569494,14.8607340,-144.7328186,7.7862597,91.4427490
2840,-4.3885493,1.4053892,15.0187502,-133.8702240,6.7557254,104.4274826
2850,-3.5529771,1.5011568,15.1504307,-126.0992355,10.0763359,118.1755753
2860,-2.6527619,1.6352314,15.4161863,-121.6030502,16.9389305,129.0000000
2870,-1.9871773,1.5274929,15.3228121,-119.8778610,26.5648861,136.6488495
2880,-1.5035510,1.4796091,16.0314922,-120.2366409,29.7633591,142.2824402
2890,-0.8116302,1.2832855,17.2860470,-116.8320618,33.6183205,144.2519073
2900,-0.4572902,1.1851238,18.5022964,-106.7709961,33.6717567,142.9847260
2910,-0.4548960,0.9720409,19.5772877,-89.9083939,25.8320618,140.0686951
2920,-0.7493813,0.7613522,19.6126022,-66.7862625,12.8702288,138.2061005
2930,-1.0271072,0.3639168,19.6126022,-41.3206100,-2.2061069,141.4351196
2940,-0.8403605,-0.1244979,19.6126022,-18.3816795,-16.9083977,150.0534363
2950,-0.0143651,-0.3064562,18.9643745,-2.3816793,-25.8473282,161.8396912
2960,1.5227045,-0.6129125,18.7129841,6.6641221,-24.1145039,173.4122162
2970,3.0478032,-0.7110743,19.0026817,14.0305347,-14.5496187,183.7862549
2980,4.9535780,-0.8882443,19.2325230,22.0229015,3.1374047,189.6870270
2990,6.2009506,-0.6200951,19.4527893,31.8396950,21.0687027,187.6717529
3000,7.0915890,-0.5865764,19.1367569,44.2595406,34.3282433,181.2366486
3010,7.5273318,-0.5291159,18.5070839,58.0992355,35.7251892,172.5572510
3020,8.0325060,-0.5410868,17.9995155,72.4732819,23.4045811,161.4656525
3030,8.4419117,-0.5386927,17.2644997,88.1908417,4.1679387,147.5725250
3040,8.7411861,-0.5195391,16.7473545,103.3435135,-15.3587790,133.1145020
3050,9.1960821,-0.4572902,16.0362816,117.3435135,-29.2061062,119.1984711
3060,10.1058741,-0.5410868,15.4042149,127.8396912,-33.0152664,105.3587799
3070,10.6421719,-0.4884146,14.6763811,133.7251892,-28.0152664,93.4045792
3080,10.9175043,-0.5171449,14.3220415,137.8396912,-17.8167934,80.1603088
3090,11.0276365,-0.6200951,13.9198179,141.6564941,-5.0839696,69.6946564
3100,11.1712875,-0.6655847,13.3739424,145.9847260,6.9847326,60.1984749
3110,11.3604288,-0.8044477,12.8567972,150.9923706,15.7251911,50.1526718
3120,11.4394369,-0.8259954,12.1122046,156.2824402,22.7633591,39.6335869
3130,11.4178896,-0.8283895,11.2933912,161.6870270,27.8396950,28.2748089
3140,11.1257982,-0.8212070,10.2902260,165.2977142,31.3511448,17.6717548
3150,11.3053627,-0.7565638,9.5767574,166.7633514,33.0916023,7.8778625
3160,11.4418316,-0.6799498,8.7579451,167.2671814,34.7099228,-1.9236641
3170,11.5830889,-0.5099624,7.9319496,166.4961853,38.6717567,-12.1526718
3180,11.6477318,-0.1939293,7.2328463,164.0839691,43.4351158,-23.4732819
3190,11.7123747,0.4022238,6.1865854,158.2290039,48.3740463,-36.3664131
3200,11.2526903,0.5243275,5.2576399,149.5267181,49.3358765,-49.3511467
3210,10.2447367,0.7038917,4.6183915,137.2595367,41.8854980,-59.3587799
3220,9.3564920,0.6488253,4.2975702,124.3206100,29.6259537,-65.4503784
3230,8.7962523,0.6440369,4.4579806,113.2519073,14.2213745,-66.4122162
3240,8.5544386,0.7493813,4.5992379,105.8320618,-0.3206107,-65.3893127
3250,8.6190825,1.1420283,4.7644372,100.5801544,-11.1755724,-66.0076370
3260,8.6837254,1.3694763,4.9631548,98.2290039,-20.2213745,-69.5419846
3270,8.7507620,1.6376256,4.7859845,94.9083939,-26.7328243,-75.2748108
3280,8.6765423,1.7980363,4.2903876,92.3893127,-30.2442741,-83.1603088
3290,8.3222027,1.8052188,3.7229645,88.5648880,-33.7175560,-92.0152664
3300,7.6853480,1.8195840,3.3015873,83.5038147,-38.2290077,-100.2213745
3310,7.0413113,1.7094513,2.7006457,76.9312973,-42.8396950,-107.2366409
3320,6.2560172,1.7166338,2.2672975,68.7938919,-48.2900772,-112.4045792
3330,5.4898763,1.7932479,2.0183017,59.9847336,-54.3282433,-115.4961853
3340,4.7740140,1.7022687,1.6783268,49.2519073,-57.5267181,-117.1908417
3350,4.1611013,1.7142396,1.5250987,36.6259537,-59.7557259,-117.9618301
3360,3.5146701,1.6256547,1.5562232,24.7938938,-60.5190849,-117.9847336
3370,2.8395088,1.4580613,1.7046629,13.4961834,-60.2366409,-117.5267181
3380,2.0661855,1.4508789,1.6926919,2.4427481,-61.9923668,-115.4427490
3390,1.5753766,1.1923064,1.9680238,-6.7709923,-66.0916061,-112.4198456
3400,1.1085097,1.1228749,2.2409613,-13.9389315,-72.2442780,-108.9694672
3410,0.7062859,1.1516051,2.1332228,-20.6564884,-79.7175598,-104.4961853
3420,0.2202654,1.2114599,1.9321109,-28.8396950,-87.6335907,-99.7862625
3430,-0.0622489,1.2545552,1.9512644,-38.7633591,-95.1679382,-94.5572510
3440,-0.2801202,1.3072275,2.0039365,-49.5038185,-100.2366409,-88.8244247
3450,-0.4525018,1.4221486,2.1332228,-60.8702278,-101.9160309,-83.1984711
3460,-0.4908088,1.2928623,2.4444675,-72.7404556,-101.1374054,-78.2748108
3470,-0.8068419,1.2832855,2.7461352,-84.2824402,-97.9847336,-73.9770966
3480,-1.0103480,0.9744351,3.0310438,-95.3664093,-92.8931274,-69.3358765
3490,-1.4221486,0.6200951,3.1746953,-106.0229034,-85.4809189,-65.1374054
3500,-1.8028246,0.8020535,3.5074875,-116.9770966,-77.2519073,-60.5343513
3510,-2.8227494,0.8906385,3.9839313,-127.6564865,-70.0534363,-54.5190849
3520,-3.4236910,0.7086801,4.9272418,-135.8473358,-64.8091583,-47.7938919
3530,-4.2808108,0.7134684,5.6981707,-139.9541931,-64.5038147,-40.0000000
3540,-5.0637107,0.6584021,6.1650376,-145.7404633,-70.7022934,-28.6870232
3550,-5.7029591,0.5793939,7.4626884,-145.9770966,-79.8931274,-15.1755724
3560,-5.8729467,0.2585725,8.6286592,-140.3206177,-89.7862625,1.8625954
3570,-5.6766233,0.1747758,9.2104464,-130.4580078,-95.0229034,20.8015270
3580,-5.2097564,0.3567342,9.0404596,-124.9312973,-92.3893127,40.4427490
3590,-4.6734576,0.6631905,9.2056589,-122.6641235,-80.9694672,59.4656487
3600,-4.2712340,1.0630201,9.1769285,-121.5572510,-64.3129807,76.8320618
3610,-3.6966286,1.3982066,8.6765423,-129.6183167,-47.7328262,91.4274826
3620,-3.0262554,1.5825592,8.6861191,-143.9541931,-32.2900772,101.0381699
3630,-2.1164634,1.1707586,9.8377247,-157.8167877,-18.9770985,107.6946564
3640,-1.2761030,1.3790531,10.6445665,-168.6183167,-8.9465647,109.4656525
3650,-0.8020535,0.6440369,12.3061342,-176.2366486,0.1526718,110.2366409
3660,-0.3950413,0.5961532,14.8511572,-166.7633514,3.0000000,100.0763321
3670,-0.7565638,0.6967092,16.1320477,-153.5725250,-7.9236641,93.8931274
3680,-0.7254394,0.3423691,17.3123837,-138.7328186,-19.1908398,85.8473282
3690,-0.4548960,0.1867468,18.4687767,-120.9083939,-29.8473282,79.7633591
3700,-0.3998296,-0.1987177,19.3139267,-100.2290039,-37.4656487,75.8702316
3710,-0.7876883,-0.5386927,19.6126022,-78.9465637,-41.9007645,77.2900772
3720,-0.7924767,-0.8978211,19.6126022,-59.2366409,-42.0916023,85.1832047
3730,-0.3280039,-0.9337339,19.6126022,-42.0381660,-33.1526718,96.8473282
3740,0.3471575,-0.8140244,19.4910965,-27.8549614,-18.3206100,106.0610657
3750,0.9792235,-0.8475431,19.0840836,-16.9923668,-3.5114503,114.0305328
3760,1.7142396,-0.8499373,18.7201672,-7.7633586,9.0534353,120.2290039
3770,2.4372849,-0.6368544,18.4017410,1.8320611,18.1984730,123.1221390
3780,2.7269819,-0.6775556,18.0019112,12.7251911,19.4732819,122.9465637
3790,2.6862805,-0.7541697,17.4751892,25.1221371,12.4961834,122.1908417
3800,2.9783716,-1.0103480,16.8742466,38.8778610,1.0763359,122.9236679
3810,3.3973548,-1.0893562,16.0626163,51.4732819,-10.7709923,124.0152664
3820,3.7540891,-1.1132981,15.2150736,60.4045792,-19.5038166,125.0152664
3830,4.4268565,-1.2354017,14.9469252,66.0992355,-24.3893127,126.9542007
3840,5.4707227,-1.1204807,14.3483772,68.6564865,-24.5725193,127.7251892
3850,6.4523406,-1.2234308,14.3459835,70.2290039,-17.9465656,126.4809189
3860,7.2472115,-1.4460905,14.2741575,71.5038147,-8.5648851,123.5648880
3870,7.5273318,-1.5250987,14.4441452,74.6259537,-3.9160306,119.9465637
3880,7.7571740,-1.8890154,14.7673607,83.7099228,-3.8854961,117.2824402
3890,8.1067257,-1.7980363,14.7051115,95.0457993,-7.3206105,114.2595444
3900,8.8441362,-1.9991482,14.5973730,105.9618301,-10.3664122,111.9312973
3910,9.6821022,-2.1092808,14.5949793,117.1374054,-10.3206110,108.7633591
3920,10.6517487,-1.9991482,14.2621870,128.3511505,-7.3358779,104.6946564
3930,11.5471754,-1.7501525,14.1448717,138.9007568,-2.6641221,98.8015289
3940,12.4641504,-1.4820032,13.8288383,149.2519073,4.1984735,90.8549652
3950,13.0291786,-1.2018831,13.3643656,158.8015289,11.5190840,79.3053436
3960,13.4361916,-1.1109039,13.1991663,168.8167877,19.3358784,65.4885483
3970,13.4002781,-1.0630201,12.4019012,177.4274750,28.3893127,52.2824440
3980,13.1608591,-0.9265513,11.6213961,182.9465637,38.9007645,40.7709923
3990,13.0626974,-0.5530578,10.4410601,184.3358765,44.7862587,29.6641216
4000,12.8711624,-0.3256098,9.5240860,182.6946564,45.3129768,16.3740463
4010,12.4713326,-0.1173153,8.7699156,180.2213745,43.6793900,1.7862595
4020,11.9565821,0.0646431,8.3078375,178.7786255,38.0458031,-10.9465647
4030,11.5711174,0.1963235,7.8505473,177.9465637,29.5877857,-23.1984730
4040,11.4561968,0.4572902,7.3453732,177.4656525,21.0916023,-35.5419846
4050,11.1569233,0.6033357,6.5935979,176.6106873,12.9541988,-48.9007645
4060,10.8361015,0.7781116,5.7867560,173.6106873,3.4351146,-61.1526718
4070,10.3620520,1.1061156,5.0445571,168.5954132,-7.0839696,-72.3740463
4080,9.8927908,1.3622938,4.4124913,161.2061005,-20.4961834,-82.4351120
4090,9.7826586,1.5179161,3.7708483,153.1908417,-32.8625946,-91.4122162
4100,9.7730818,1.7238164,3.1196289,144.1068726,-39.0534363,-102.4885483
4110,9.2774839,2.0278785,2.6288199,133.9770966,-44.7786255,-112.2366409
4120,8.7100611,2.0398495,2.2457497,123.5496216,-53.6870232,-121.1832047
4130,8.2192526,2.2122312,2.2194135,114.4503784,-61.5038185,-128.4427490
4140,7.6207051,2.2337787,1.9584470,106.8778610,-69.1450348,-133.6412201
4150,7.0556765,2.2218077,1.8914096,101.8396912,-76.5572510,-137.1068726
4160,6.5720501,2.3534882,1.6831152,93.5267181,-82.1297684,-138.6335907
4170,6.1746144,2.3750360,1.3694763,85.5267181,-82.7862625,-138.1984711
4180,5.8083038,2.5067163,0.8307837,75.0610657,-78.0381699,-136.0229034
4190,5.4539638,2.4779861,0.4572902,62.1145020,-69.8244247,-132.7404633
4200,4.9368186,2.6288199,0.0143651,46.5572510,-58.5801544,-128.4045868
4210,4.5082588,2.7437410,-0.3854645,29.7862587,-46.2900772,-123.7786255
4220,4.0485744,2.8754215,-0.3543400,11.8167934,-35.3740463,-118.6946564
4230,3.6678982,2.9951310,-0.4189832,-5.7404580,-27.3358784,-113.5725174
4240,3.2776453,3.0645626,-0.1556223,-21.8244267,-22.9160309,-110.1068726
4250,2.6072724,3.1555417,0.2130829,-35.7557259,-23.4198475,-107.4351120
4260,2.1164634,3.2082138,0.6823440,-46.7251892,-30.3511448,-105.1984711
4270,1.6663558,3.2010312,1.3024391,-55.1908379,-40.4885483,-103.4427490
4280,1.1851238,3.1196289,1.7453641,-62.1984749,-51.8473282,-101.0152664
4290,0.7254394,2.8107784,2.1380112,-68.9694672,-61.6717567,-96.7633591
4300,0.3926471,2.6695213,2.9328821,-75.3740463,-63.2595406,-90.8702316
4310,0.2011119,2.6048782,3.7971845,-80.5114517,-54.9771004,-82.9847336
4320,-0.0454896,2.5378408,4.7979555,-82.8778610,-40.7862587,-74.8778610
4330,-0.5410868,2.3989778,5.6431046,-81.1679382,-19.8396950,-66.9389343
4340,-1.4532729,2.4109488,5.7340837,-76.3969498,2.6106870,-56.3206100
4350,-1.8554969,2.6192431,5.2217274,-72.5725174,22.1068707,-45.2290077
4360,-2.0661855,2.7293761,4.0006905,-72.6641235,40.6793900,-37.1145020
4370,-2.3175755,2.6024840,2.9448531,-80.3587799,52.2519073,-31.0152664
4380,-2.7150109,2.4396791,1.7621235,-94.5572510,57.4198456,-26.0458012
4390,-3.3207407,2.5330524,1.4724265,-112.7709961,56.1374054,-21.2595425
4400,-3.4212968,2.4037662,2.1427996,-130.8625946,47.3129768,-17.9389305
4410,-3.4524212,1.9536586,3.6798692,-144.0839691,33.0839691,-17.1221371
4420,-3.5386121,1.5586174,5.4898763,-148.4656525,18.0305347,-17.9312973
4430,-3.7732425,1.7860653,6.7803445,-147.6335907,1.0152671,-17.8015270
4440,-3.8833754,1.4867916,8.2120695,-142.6259613,-13.6183205,-15.9923668
4450,-4.2305326,1.6424140,8.9231443,-131.8015289,-18.8396950,-13.2290077
4460,-4.8961172,1.8746504,8.7172441,-126.3358765,-23.4427490,-7.1145039
4470,-4.9392128,2.1643472,8.2862902,-128.2290039,-20.9694653,1.6793894
4480,-4.7740140,2.0470319,8.3844519,-135.0992432,-11.0916033,7.8778625
4490,-4.9344244,2.1643472,8.6813307,-143.6870270,1.3282443,12.4885492
4500,-4.9655490,2.0326669,9.1625633,-154.6870270,12.0000000,17.0458012
4510,-4.9870968,1.8291607,9.7539282,-165.1068726,21.2061062,20.8473282
4520,-5.2360926,1.9105632,10.2854376,-174.6488495,28.2748089,23.2442741
4530,-5.7053533,1.4748207,10.8744087,-185.4045868,34.9312973,27.9923668
4540,-6.4691000,0.8164186,13.0674858,-179.1755676,31.5877857,29.5419846
4550,-7.7930865,1.4939742,13.4098549,-170.7175598,9.1221371,36.4656487
4560,-7.7404146,0.9026094,13.8575687,-163.1908417,-12.4274807,49.7099228
4570,-7.1322904,0.8020535,14.5542774,-154.4961853,-28.3282452,60.5419846
4580,-6.6079631,0.6751614,15.1552191,-145.0000000,-38.3511467,71.2213745
4590,-6.1219425,0.5578461,15.4904060,-135.9465637,-41.6946564,82.9618301
4600,-5.3366485,0.5339043,15.8208036,-127.9847336,-40.6106873,95.9923630
4610,-4.4891052,0.5362985,16.0434628,-120.6106873,-35.2977104,106.0534363
4620,-3.6966286,0.5051740,16.3331604,-112.9618301,-28.2137413,115.2213745
4630,-2.9927368,0.5458752,16.4121685,-105.8244247,-22.7099228,123.5648880
4640,-2.2218077,0.3782819,16.4648399,-98.2213745,-18.9007626,129.9618378
4650,-1.5634058,0.2537841,16.4624462,-89.5801544,-17.1374054,133.8396912
4660,-0.8810617,0.0502780,16.4815998,-80.2137375,-18.0305347,135.0763397
4670,-0.4716553,-0.2561783,16.2493629,-71.0687027,-21.0763359,133.4122162
4680,-0.4357425,-0.7445929,15.8878412,-62.3816795,-29.0076332,130.7328186
4690,-0.7757174,-1.6304430,15.7968616,-55.5954208,-45.2366409,133.1755676
4700,-0.5554519,-2.4109488,16.1200771,-47.8396950,-63.4045792,141.5038147
4710,0.2442073,-2.8873925,16.4528694,-40.0687027,-79.7022934,151.0839691
4720,1.5873476,-3.4643922,17.1543674,-32.2061081,-90.4580154,160.6335907
4730,3.3566537,-3.9264708,18.5813046,-19.2442741,-90.7557220,170.7251892
4740,6.1698260,-3.8785870,19.6126022,0.8931298,-72.5038147,173.2213745
4750,7.7356262,-3.7828193,19.6126022,21.8473282,-53.5114517,165.1297760
4760,8.6717539,-3.6607156,19.6126022,44.8320618,-38.8854980,152.8473358
4770,9.0620070,-3.9384418,19.6126022,70.1450348,-28.5114498,139.9236603
4780,8.8800488,-4.1898317,19.5270100,95.1603088,-25.1679382,129.3282471
4790,8.6262646,-4.2855992,18.2030220,117.0763321,-28.4656487,123.7328262
4800,8.8297710,-4.2832050,16.9676208,133.4045868,-34.6030540,120.4885483
4810,9.2104464,-4.2113791,16.2397861,147.7557220,-41.3511467,117.6717529
4820,10.2447367,-3.8642218,15.7394018,162.5267181,-45.3816795,113.1603088
4830,12.1193867,-3.3255291,15.2725344,176.2824402,-42.5572510,102.1679382
4840,13.6013899,-2.7006457,14.8559456,188.3893127,-34.1145020,82.5114517
4850,14.1424770,-2.2984219,14.2741575,200.5343475,-22.0000000,57.6259537
4860,14.0850163,-2.0901275,13.3619709,212.0763397,-15.4656487,30.6564884
4870,13.4218264,-1.9991482,12.2797976,221.9007568,-16.4045811,5.0458016
4880,12.6628675,-2.1212518,11.1952295,230.3816833,-23.1984730,-17.1526718
4890,12.0882626,-2.2002602,10.0699606,236.8549652,-31.3358784,-36.1755714
4900,11.7554703,-2.0829449,8.8489246,240.7480927,-39.0992355,-52.8167953
4910,11.5328102,-1.7669119,7.6614060,241.2061005,-44.7404594,-68.2977066
4920,11.0300312,-1.4867916,6.2081332,236.9541931,-49.3816795,-82.3816757
4930,10.3907824,-1.1396341,4.7955613,228.6793823,-53.4732819,-93.9236679
4940,9.7563219,-0.7374104,3.5003049,215.8244324,-57.0458031,-102.5496216
4950,9.3038206,-0.2896969,2.4875629,199.7404633,-58.4274826,-108.7022934
4960,8.9183559,0.1675933,1.6735384,181.7404633,-58.0992355,-113.9618301
4970,8.6358414,0.5650287,1.0534433,163.6259613,-57.5190849,-119.5801544
4980,8.2815018,0.9768293,0.4932030,146.1679382,-58.6412201,-125.5190811
4990,7.9870162,1.2761030,0.1556223,129.5648804,-60.0992355,-131.5801544
5000,7.5105724,1.6567791,0.0215477,114.4503784,-62.9618340,-138.5343475
5010,6.9216018,1.7884595,-0.2442073,100.4427490,-64.6259537,-145.3206177
5020,6.1123657,1.7956421,-0.5075682,85.7709961,-64.8244247,-150.4580078
5030,5.3773494,1.7094513,-0.7278336,71.1145020,-64.5725174,-152.6412201
5040,4.5920553,1.6376256,-1.0031654,55.9541969,-63.5267181,-151.5267181
5050,3.8761928,1.7357874,-1.0366840,40.0228996,-61.3740463,-148.2061005
5060,3.1962428,1.8650736,-0.9840119,24.0610695,-58.3358765,-143.4580078
5070,2.6862805,2.0566087,-0.9097920,8.7251911,-53.4351158,-138.1679382
5080,2.0398495,2.2242019,-0.7757174,-5.4809160,-48.4122124,-132.9541931
5090,1.4341195,2.3965836,-0.6177009,-18.2137413,-43.5801544,-126.0839691
5100,0.8714849,2.6551561,-0.4620786,-30.0305347,-39.7862587,-118.9465637
5110,0.3375807,2.9041519,-0.3615226,-40.9236641,-37.1984749,-111.6793900
5120,-0.1747758,2.9879484,-0.2466015,-51.6030540,-37.1526718,-104.0763321
5130,-0.6105183,3.1052637,-0.1125269,-61.0916023,-40.4503822,-95.9160309
5140,-0.9576758,3.0071020,-0.0191535,-71.7328262,-46.4732819,-88.1984711
5150,-1.1851238,2.9616125,0.1556223,-82.6259537,-53.4122124,-79.8778610
5160,-1.4556671,2.7676830,0.4740495,-93.4656525,-64.3587799,-71.6793900
5170,-1.6041069,2.5976956,1.1396341,-103.1984711,-79.0457993,-64.2137375
5180,-1.6352314,2.4803803,1.7788827,-112.1068726,-94.5648880,-57.3206100
5190,-1.4700323,2.3941894,2.2433555,-120.6106873,-108.5496216,-51.4885483
5200,-1.1228749,2.2936335,2.7605004,-131.5954132,-120.3969498,-48.3740463
5210,-0.6847382,2.1523764,3.1890604,-144.1984711,-127.8549652,-48.5801544
5220,-0.6584021,1.7717001,3.9360476,-159.0000000,-128.6030579,-49.2595406
5230,-0.6967092,1.2808913,4.9128766,-173.6870270,-123.6793900,-49.5038185
5240,-1.2042773,0.8020535,6.1003947,-187.0381622,-114.5954208,-48.2061081
5250,-1.9608412,0.6033357,7.4171991,-198.8167877,-105.2824402,-44.6259537
5260,-2.3941894,-0.1125269,9.4091644,-205.0000000,-94.4351120,-39.4122124
5270,-3.5529771,-0.5075682,11.3221216,-199.1603088,-87.5190811,-29.7938938
5280,-4.2712340,-0.4333483,12.5240049,-188.3129730,-86.5419846,-15.2519083
5290,-4.6495161,-0.9026094,13.6540623,-173.2366486,-87.6183243,0.4580153
5300,-4.7285242,-0.8690908,14.3747139,-154.7786255,-87.3129807,17.0458012
5310,-4.5178356,-0.6272776,14.2621870,-139.7938995,-79.5877838,34.5343513
5320,-4.0389977,-0.3710994,13.9365768,-129.9541931,-60.6488533,52.4656487
5330,-3.3375001,-0.5841822,14.2669754,-124.4503784,-35.0839691,68.0000000
5340,-3.2560976,0.0694315,13.9605188,-121.4656525,-12.2366409,80.1603088
5350,-3.0908985,-0.1628049,14.2095146,-120.5648880,7.9847326,91.4809189
5360,-2.9424589,-0.2681492,14.7122946,-116.6946564,22.5038166,100.8854980
5370,-2.9520357,-0.0119709,14.9397421,-110.3435135,29.0916023,109.2900772
5380,-2.6982515,0.1077385,15.1360655,-102.5343475,28.6259537,116.2824402
5390,-2.5115047,0.1723816,15.2174683,-93.3282471,22.6870232,121.6488571
5400,-2.2433555,0.1412572,15.2845058,-83.3129807,12.9389315,128.8091583
5410,-1.4724265,0.1292862,15.3108416,-73.9389343,3.6946564,136.4732819
5420,0.2944853,0.3136388,15.2581692,-65.4961853,-1.8931298,142.6183167
5430,3.0094962,0.6105183,15.5478659,-59.0992355,3.3969467,143.1603088
5440,5.4156566,1.3311694,15.8279867,-53.4122124,19.4122143,134.7022858
5450,6.5385313,1.5610116,16.0147324,-47.2595406,38.0458031,120.4809189
5460,6.4643116,1.4820032,15.8471403,-41.2748108,51.7328262,105.9847336
5470,5.8202744,1.1755470,15.4568872,-33.5496178,56.4427490,93.3282471
5480,4.9775200,0.6248835,14.8296099,-25.5496178,51.9771004,86.4198456
5490,4.0150557,0.2681492,14.3052816,-18.9389305,38.5496178,81.9312973
5500,3.4117200,-0.0143651,14.0275564,-15.1679392,20.8549614,81.7938919
5510,2.8945751,-0.0981618,14.3411951,-8.2442751,4.5419846,83.8091583
5520,2.7102225,-0.2442073,14.3172531,-0.5114504,-5.7251906,91.0381699
5530,3.0023136,-0.2011119,14.1352949,4.6870227,-9.2977095,99.2824402
5540,3.8450682,-0.3687052,13.9365768,7.8931298,-7.1145039,106.5496216
5550,4.7452836,-0.2920911,13.9677010,9.7251911,-0.4809160,109.6259537
5560,5.1882086,-0.0095768,13.9533358,12.8778629,6.1145039,108.9389343
5570,5.4084740,0.5075682,13.8815107,17.1297703,11.5190840,105.6870193
5580,5.4443870,0.9552816,13.6133614,20.2671757,14.6106873,98.8549652
5590,5.0708933,1.3551112,13.1417055,21.0687027,12.7251911,91.7862625
5600,4.7764082,0.5626345,13.1249466,19.0916023,-8.7786255,78.5725174
5610,5.0780759,-0.0694315,13.5630836,21.4045811,-23.4961834,75.4656525
5620,6.3565731,-0.3471575,14.0945930,27.0534344,-29.7709923,73.2671738
5630,7.9463148,-0.3639168,14.5375185,34.5954208,-25.8167934,67.6259537
5640,9.0117292,-0.5913648,14.6644106,43.4122124,-14.0610685,59.6259537
5650,9.3062143,-0.6512195,14.5590658,53.5343513,0.6564885,51.3893127
5660,9.0332766,-0.6464311,14.1185350,63.8931313,10.0992365,44.7251892
5670,8.6047173,-0.5698171,13.4529505,74.4122162,13.3816795,39.4656487
5680,8.4778252,-0.4860204,12.4330254,82.0687027,11.4427481,34.2671738
5690,8.3724804,-0.4884146,11.6357603,85.8702316,7.0229006,27.6488552
5700,8.2527714,-0.4453192,11.2670555,87.6335907,2.1755726,20.6183205
5710,7.5871863,-0.2729376,11.1976242,88.7022934,-3.4427481,14.0000000
5720,6.4619174,0.4668669,11.5759058,92.8473282,-12.8473282,5.7251906
5730,6.1961622,0.3950413,11.5088692,94.0763321,-12.6412210,1.5877863
5740,5.9040713,-0.0957676,11.5950594,94.7938919,-11.4045801,-2.7480917
5750,5.4850879,-0.6392486,11.8727856,97.2824402,-13.1221371,-6.5725193
5760,4.7979555,-1.2641320,12.2941628,101.9694672,-17.7480907,-8.4122133
5770,4.2879934,-1.8076130,12.4928808,113.2519073,-25.4809170,-6.1679387
5780,4.1036406,-2.1116750,12.2989511,126.6793900,-33.6183205,-0.9694657
5790,4.4005203,-2.3367288,11.8847561,139.3435059,-39.3587799,7.3587785
5800,5.5712790,-2.3008161,11.2598734,150.5419922,-39.5572510,17.2748089
5810,6.9838505,-1.8746504,10.3309278,158.2671814,-30.5419846,25.7862587
5820,8.7986460,-1.4508789,9.6725254,163.6106873,-16.1068707,29.0839691
5830,10.6086531,-0.6823440,8.8513184,165.8778687,-2.3816793,24.4656487
5840,12.1553001,-0.3256098,8.0205345,166.0610657,11.6259546,12.7175570
5850,12.8113079,-0.2082945,7.1035600,163.7480927,18.6641216,-4.6946564
5860,12.7394819,0.0766141,6.4523406,162.0458069,14.5725193,-25.5114498
5870,12.2151546,0.0574605,5.8897061,161.5496216,-0.1984733,-45.3358765
5880,11.9158812,0.1316804,5.5090299,162.4961853,-21.7251911,-62.3129768
5890,11.6118193,0.4094064,5.0110383,164.5725250,-43.8549614,-76.2213745
5900,11.6357603,0.7972651,4.3502421,166.3816833,-63.8473282,-89.3969498
5910,11.7243462,1.3503228,3.8761928,167.4274750,-81.1450348,-103.6335907
5920,11.7578640,1.5825592,2.9592183,164.7633514,-92.6030502,-119.4656525
5930,11.6692791,1.8124014,2.1380112,157.9084015,-99.7938919,-135.2137451
5940,11.2646618,2.1140692,1.4891858,147.5419922,-103.0076370,-150.2595367
5950,10.9462337,2.3798244,0.7876883,133.4809113,-104.1145020,-165.6564941
5960,10.2974091,2.5474176,0.1125269,116.3740463,-101.6793900,-180.3129730
5970,9.4355011,2.4420733,-0.3495516,96.2748108,-97.8702316,-193.4885559
5980,8.3509331,2.4420733,-0.2705434,73.0305328,-94.4809189,-202.5572510
5990,7.1825686,2.3965836,0.1316804,52.4732819,-91.8473282,-208.1755676
6000,6.2392578,2.4181314,0.6775556,35.4885483,-88.1603088,-211.0992432
6010,5.3558016,2.6240315,0.9744351,21.8625946,-82.4809189,-212.1526642
6020,4.4507980,2.5809362,1.0534433,8.1221371,-75.3053436,-213.1679382
6030,3.6990228,2.4181314,1.1899122,-6.5267177,-67.7557220,-213.4351196
6040,2.9855542,2.2529323,1.3024391,-21.9389305,-58.0228996,-213.1374054
6050,1.9967541,2.0374553,1.4484847,-36.3053436,-45.8015251,-213.3358765
6060,0.9480990,1.6974803,1.7094513,-48.2671738,-38.7175560,-213.9389343
6070,-0.6607963,1.1611819,2.4516499,-55.7709923,-44.1603050,-213.6030579
6080,-2.4516499,0.7948709,3.4189026,-57.0534363,-61.5190849,-209.1755676
6090,-4.0629396,1.1276633,4.1587071,-52.2061081,-82.0763321,-198.8396912
6100,-5.0876527,1.2354017,4.3406653,-45.4503822,-103.2137375,-185.5190887
6110,-5.9040713,1.2832855,3.9240766,-42.4809151,-121.0534363,-171.1832123
6120,-6.5648675,1.3000449,3.4907281,-47.6793900,-130.5419922,-154.3893127
6130,-7.0173693,1.1803354,3.0645626,-59.5343513,-129.6564941,-134.2824402
6140,-7.1969333,0.8044477,2.7724714,-76.8244247,-119.0305328,-112.4961853
6150,-7.6302819,0.3375807,2.6551561,-97.3282471,-102.6106873,-89.2519073
6160,-8.0229292,-0.1197095,2.7365584,-118.0763321,-88.6488571,-64.8396912
6170,-8.1115141,0.0550664,3.4069316,-135.6564941,-77.8854980,-41.5190849
6180,-7.9846220,0.3734936,4.2688398,-148.3893127,-70.0457993,-22.1679382
6190,-7.9056134,0.7254394,5.2217274,-155.2213745,-66.5648880,-6.4503818
6200,-7.6015515,0.9864060,5.9160423,-158.7404633,-65.7251892,5.5877862
6210,-7.2567883,0.9648584,6.6055689,-161.5572510,-64.3816757,15.0687027
6220,-7.1131368,0.9145803,7.2998838,-163.0381622,-63.9847336,24.7480907
6230,-6.7899213,0.6177009,7.7954807,-165.1374054,-62.3664131,35.4045792
6240,-6.5528965,0.1651991,8.7076674,-161.7022858,-60.2061081,46.1374054
6250,-6.4762826,0.1460456,9.5599985,-155.3206177,-60.5877876,59.9007645
6260,-6.2153158,0.3136388,9.9741936,-147.5419922,-58.5954208,75.3664093
6270,-5.8370337,0.7661406,10.2926207,-138.3587799,-55.8549614,90.1908417
6280,-5.1307478,1.1970947,10.2830439,-131.7938995,-52.5877876,103.3358765
6290,-4.1754665,1.5107336,9.9478569,-130.3206177,-44.9465637,113.3053436
6300,-3.2130022,1.5418580,9.8832140,-134.4732819,-32.9389305,119.9618301
6310,-2.4061604,1.4915800,10.1561518,-141.3740387,-19.0076332,123.3282471
6320,-1.8076130,1.0989330,10.5104914,-152.1526642,-4.0381680,124.1908417
6330,-1.9392935,0.9337339,11.4178896,-154.8625946,6.9465647,123.7557220
6340,-2.0494261,0.7254394,11.8823624,-161.4198456,8.6259546,122.8396912
6350,-2.3367288,0.4022238,13.1776190,-164.2977142,6.2290077,121.3969498
6360,-2.6455793,0.1891410,14.7075062,-160.6259613,-3.3969467,120.9312973
6370,-2.8323262,-0.2130829,16.0458584,-151.3816833,-14.8396950,122.1603088
6380,-2.9520357,-0.7206510,17.3554802,-137.4656525,-24.1374054,126.9312973
6390,-3.0501974,-1.1899122,18.4615955,-118.9007645,-28.6030540,135.8320618
6400,-2.9089401,-1.5825592,19.0146523,-97.4656525,-28.5801525,149.5114441
6410,-2.4899571,-1.9488702,19.1367569,-75.2366409,-24.7251911,165.8091583
6420,-1.7142396,-2.2433555,18.9188843,-55.0305328,-17.7633591,183.4732819
6430,-0.6081241,-2.2960277,18.4424419,-37.1755714,-10.4503813,200.5725250
6440,0.7182568,-2.2864509,17.6451759,-22.4351139,-2.4656489,213.2442780
6450,2.1356170,-2.3175755,16.7880573,-12.2213745,6.9312978,220.9694672
6460,3.5218527,-2.3917952,16.0362816,-6.8320613,13.8549614,222.0076294
6470,4.5034704,-2.4875629,15.7920732,-3.8244274,11.1832066,216.6106873
6480,4.8338685,-2.5713594,15.7657375,1.0916030,1.1068702,207.4351196
6490,5.2456689,-2.6527619,16.0913467,11.3816795,-12.5496187,196.7786255
6500,5.2600341,-3.0190730,16.3044300,25.6030540,-29.4198475,189.5038147
6510,5.7053533,-3.1148405,16.1057129,38.9160309,-42.8778610,183.9236603
6520,5.8705525,-3.2584918,16.1775379,49.8473282,-52.9312973,181.0152740
6530,6.3996682,-3.5170643,16.3020363,60.0305328,-57.5725174,182.2213745
6540,7.0844064,-3.7564833,16.4385052,70.5114517,-54.4122124,184.3740387
6550,7.9199786,-3.7157819,16.5534267,80.0687027,-45.5572510,185.3969421
6560,9.0260944,-3.4356618,16.6875000,91.5114517,-30.5954189,182.7328186
6570,9.8353300,-3.1818779,16.5151196,102.4274826,-13.4885492,175.0000000
6580,9.6773138,-3.0741394,15.9069948,112.3282471,-2.1068702,164.8091583
6590,9.4115591,-3.0765336,15.4712524,121.7175598,0.4656489,156.5267181
6600,9.1769285,-3.0358322,15.0043850,132.4198456,-4.1984735,149.3511505
6610,8.8489246,-3.4069316,14.3388004,143.5648804,-14.0839691,144.6030579
6620,9.1697454,-3.4979107,13.9341822,155.4580078,-26.0152664,141.7480927
6630,10.1441803,-3.4452386,13.7426472,168.8625946,-35.2900772,138.1297760
6640,11.3077564,-3.1890604,13.3667593,182.2977142,-40.3358765,130.7557220
6650,12.1864243,-2.8299320,12.9573536,195.2748108,-42.3511467,119.4656525
6660,12.9501705,-2.3343346,12.2510672,207.1297760,-42.2290077,105.4351120
6670,13.7163115,-1.7956421,11.4801388,217.4656525,-36.5267181,89.4198456
6680,14.2980995,-1.2784972,10.4578199,224.6870270,-28.0534344,70.3893127
6690,14.4656925,-0.6943150,9.3469152,228.0686951,-19.3282452,49.2366409
6700,14.2119083,-0.1843526,8.0827837,227.8396912,-13.0229006,27.6106873
6710,13.6109667,0.1867468,7.0365229,224.4274750,-11.5496187,6.6259542
6720,13.0794573,0.4070122,6.2368636,218.6793823,-16.4961834,-12.7862597
6730,12.7682123,0.7709290,5.5353661,211.7938995,-24.0152664,-30.7175579
6740,12.4641504,1.1755470,5.1020179,203.9541931,-32.3816795,-47.9236641
6750,12.0643206,1.3311694,4.6255741,196.5343475,-42.8625946,-64.9160309
6760,11.7027979,1.5490406,4.2137733,188.7786255,-54.0610695,-80.8931274
6770,11.5735121,1.8315549,3.7900019,180.2366486,-66.0916061,-97.1908417
6780,11.3412752,2.2696917,3.3853838,171.1908417,-77.3511429,-113.5877838
6790,10.9007444,2.4660151,3.2106080,162.4351196,-85.9847336,-130.1526642
6800,10.3405046,2.5737536,2.9209111,154.7404633,-92.0763321,-144.6564941
6810,9.7658987,2.8634505,2.4157372,147.5648804,-98.4503784,-157.6488495
6820,9.0979195,2.9185169,1.9512644,139.1526642,-103.9847336,-168.7022858
6830,8.5352850,2.8945751,1.3144100,129.5419922,-109.2824402,-177.8167877
6840,7.8481531,2.8897867,0.7445929,116.7557220,-113.6259537,-184.3053436
6850,7.2496057,2.9616125,0.4357425,104.1679382,-116.8015289,-188.0229034
6860,6.8497758,3.1363883,0.3854645,89.7099228,-119.8625946,-191.1068726
6870,6.5074067,3.4021432,0.3591284,77.5648880,-119.9236679,-194.4198456
6880,5.9806852,3.4452386,0.0837966,65.4427490,-117.7480927,-198.1832123
6890,5.2121506,3.3015873,-0.1651991,52.3358765,-116.7099228,-199.7480927
6900,4.4340386,3.2321558,-0.1316804,38.5954208,-117.9312973,-198.2595367
6910,3.6918402,3.2608860,-0.0478838,26.6412220,-118.4427490,-194.2748108
6920,3.0885043,3.1651185,0.0478838,16.2519093,-118.3816757,-188.5954132
6930,2.5402350,3.0789278,-0.0430954,5.2748094,-117.8625946,-181.5572510
6940,2.0302727,3.1100521,-0.1675933,-7.4503818,-112.9465637,-172.9160309
6950,1.4532729,3.1627243,-0.2322364,-21.7099228,-103.5343475,-162.9007568
6960,0.9696468,3.2130022,-0.1867468,-37.2824440,-95.0763321,-152.6870270
6970,0.5626345,3.3566537,-0.0718257,-52.8854980,-84.9312973,-142.9084015
6980,0.0095768,3.3590479,0.0622489,-68.4503784,-75.9770966,-133.3740387
6990,-0.5769997,3.2465210,0.2849085,-83.6870193,-68.2213745,-123.3129807
7000,-1.0031654,3.0717452,0.5961532,-97.2519073,-63.2442741,-112.8549652
7010,-1.3670821,2.8059900,0.9600700,-109.0229034,-63.2137413,-102.4198456
7020,-1.7094513,2.5210814,1.4676381,-118.6183243,-66.7709961,-92.8015289
7030,-2.0566087,2.3870070,1.8339491,-126.1221390,-73.4045792,-82.2900772
7040,-2.5378408,2.1691356,2.4037662,-131.9770966,-81.0992355,-70.7022934
7050,-2.9113343,2.4468615,2.8754215,-136.2977142,-91.6259537,-57.2595406
7060,-2.9664006,2.5857246,3.3494711,-139.4809113,-100.9542007,-44.4351158
7070,-2.8035958,2.7150109,3.8905578,-141.4503784,-110.0839691,-33.5419846
7080,-2.3367288,2.8083842,4.0964580,-144.9770966,-117.0152664,-25.7786255
7090,-1.9321109,2.5522060,4.6231799,-149.5038147,-117.7862625,-21.0305347
7100,-1.5586174,2.2553265,5.0230093,-155.0686951,-112.4503784,-16.9541988
7110,-1.2784972,1.7884595,5.6047974,-161.3435059,-101.6870193,-12.6717558
7120,-1.2880739,1.6280488,5.9758968,-166.9465637,-87.8244247,-8.2977095
7130,-1.5945302,1.7118455,6.7587967,-170.9770966,-74.3435135,-2.0992367
7140,-1.8746504,1.6591733,7.2017217,-176.3282471,-60.8625946,6.1526718
7150,-1.9728121,1.7788827,7.9822278,-179.1526642,-48.2900772,14.4198475
7160,-1.9536586,2.0230901,8.4706421,-182.0610657,-37.0305328,22.3053436
7170,-1.6065011,1.8842272,8.8034344,-185.1755676,-24.0687027,28.2061062
7180,-1.3431402,1.5610116,8.8297710,-188.7099304,-9.8091602,32.8854980
7190,-1.2066715,1.1109039,9.2056589,-194.1450348,1.1755725,36.2595406
7200,-1.2880739,0.9073978,9.8616667,-199.0076294,11.2442751,39.1832047
7210,-1.3598996,0.8906385,10.7235746,-201.6106873,21.2061062,42.0534363
7220,-1.4101776,0.9217629,11.4298601,-201.8244324,33.2671738,43.9312973
7230,-1.4915800,1.0869620,11.9733410,-201.0763397,43.7633591,43.3664131
7240,-1.6759326,1.0223188,12.5263996,-199.7786255,50.5267181,40.9618340
7250,-1.8076130,0.6775556,13.0866394,-197.1145020,55.8625946,37.8473282
7260,-2.0566087,0.2849085,13.4266148,-192.2290039,60.1450386,34.8625946
7270,-2.2984219,-0.0909792,13.8527803,-186.4961853,61.9465637,33.3053436
7280,-2.6814921,-0.3399749,14.1329002,-179.7709961,63.3969460,32.8778610
7290,-3.2153964,-0.5219333,14.2430334,-172.2824402,64.4656525,34.1297722
7300,-3.8522508,-0.8068419,14.1089582,-165.5419922,62.0687027,37.9389305
7310,-4.6255741,-0.8930327,14.4465389,-159.8625946,52.8091621,45.7557259
7320,-5.0421629,-1.0127422,15.0379038,-152.3664093,41.4351158,57.7404594
7330,-5.0780759,-1.2832855,15.5837793,-142.9236603,32.6183205,72.8167953
7340,-4.7955613,-1.5634058,15.7801027,-132.6259613,29.8854961,90.1679382
7350,-4.2879934,-2.0135133,15.7992563,-125.1145020,33.9771004,107.7022934
7360,-3.8067613,-2.2960277,15.6819410,-119.7328262,43.0610695,124.2671738
7370,-3.2393384,-2.7293761,15.5957499,-116.6335907,54.6717567,138.5419922
7380,-2.9280937,-3.2249732,15.3898497,-114.5343475,63.1908379,149.6030579
7390,-2.8275378,-3.4165084,15.4568872,-111.1832047,61.6793900,157.3664093
7400,-2.6312141,-3.8187323,15.8447456,-102.9542007,52.3206100,163.9923706
7410,-2.2984219,-4.1587071,16.0697994,-89.9160309,39.1603050,169.5343475
7420,-2.0278785,-4.3837609,15.6843348,-77.5114517,26.3511448,175.2824402
7430,-1.7693061,-4.6686692,15.3898497,-65.7709961,15.3511448,182.0686951
7440,-1.5969244,-5.0038562,15.2892942,-55.2900772,6.5419846,192.3511505
7450,-1.1348459,-5.2121506,14.9325600,-46.0916023,2.3206108,202.5954132
7460,-0.9361281,-5.4755111,14.7649660,-39.7175560,-0.0152672,214.4809113
7470,-0.6488253,-5.5856438,14.7482071,-35.1679382,0.3053435,228.0458069
7480,-0.3040621,-5.7125359,15.0402985,-29.6183205,2.6641221,241.1984711
7490,-0.0119709,-6.0525107,15.2078915,-22.0610695,1.6870229,250.1297760
7500,0.4884146,-6.4667058,15.3802729,-11.6641226,-6.6106873,250.1297760
7510,0.9050036,-6.7899213,15.8184099,2.3282442,-20.7022896,250.1297760
7520,1.4700323,-7.0317345,16.1775379,19.6412220,-35.6793900,250.1297760
7530,2.3582766,-7.1275020,16.4001980,39.5801544,-48.0916023,250.1297760
7540,3.1555417,-7.1298962,16.3786507,60.4503822,-58.7633591,250.1297760
7550,3.8785870,-6.9407554,16.1990852,82.1679382,-70.0839691,250.1297760
7560,4.5872669,-6.6893654,15.7585554,102.5190811,-81.8396912,250.1297760
7570,5.1427188,-6.5385313,14.9900198,122.6259537,-94.4503784,250.1297760
7580,5.3390427,-6.2272868,14.4297800,138.9847260,-108.9770966,239.5419922
7590,5.6598639,-5.8154860,13.8623571,154.2977142,-124.2519073,227.7633514
7600,5.9184365,-5.4036856,13.4936514,169.2061005,-137.7862549,215.3053436
7610,6.1817970,-5.0301919,12.9382000,184.0305328,-151.9313049,203.1297760
7620,6.6438756,-4.6016321,12.3779593,197.7938995,-165.4809113,190.8931274
7630,7.5967631,-3.9839313,11.6261835,210.4580078,-177.0610657,176.7938995
7640,9.1984758,-3.1268115,11.0659437,221.4427490,-183.1297760,157.7251892
7650,10.7977943,-2.2074428,10.5104914,229.5877838,-181.8091583,133.3587799
7660,12.2678270,-0.8283895,9.9047613,234.4656525,-178.7328186,102.5725174
7670,13.4673157,0.4094064,9.0691900,235.3206177,-175.4122162,66.1374054
7680,13.8336267,1.3096216,8.1617918,232.3893127,-174.1374054,25.3435116
7690,13.4577389,1.6567791,7.2663651,226.6793823,-176.8473358,-13.4198475
7700,12.7753954,1.5777708,6.5074067,219.6488495,-185.1450348,-48.7480927
7710,12.3157110,1.5131277,5.8202744,212.6412201,-193.6946564,-78.9083939
7720,12.0786858,1.7094513,5.3462253,204.7938995,-199.8015289,-105.2061081
7730,11.9206696,1.9464760,4.8147149,194.6030579,-202.3664093,-128.4732819
7740,11.8919392,2.1140692,4.5058646,181.6641235,-204.7709961,-150.5343475
7750,11.4107065,2.3079987,4.8099265,171.7938995,-208.1984711,-173.3206177
7760,10.8073711,2.1882892,4.7500720,167.1297760,-210.1908417,-193.9465637
7770,10.0555954,1.8339491,4.1299767,163.6259613,-210.6717529,-210.1450348
7780,9.2104464,1.9297167,3.3614421,158.2366486,-212.1679382,-222.1068726
7790,8.6358414,1.9704180,2.8347204,151.2442780,-215.6793823,-230.5419922
7800,8.2479830,1.9345051,2.1835008,142.0686951,-218.8625946,-238.1603088
7810,8.5065556,2.0470319,1.6304430,130.6717529,-218.4732819,-246.0763397
7820,8.2791071,2.4133430,1.1372399,116.3664093,-211.9770966,-250.1374054
7830,7.6542239,2.3654592,0.7158626,99.0763321,-199.3282471,-250.1374054
7840,6.8785062,2.3127871,0.4692611,82.5038147,-185.6183167,-250.1374054
7850,5.9806852,2.3822186,0.4357425,65.0763321,-172.9313049,-250.1374054
7860,5.1714492,2.4301023,0.1484398,48.4045792,-157.7480927,-250.1374054
7870,4.0126615,2.5785420,-0.1412572,30.9083977,-140.0000000,-250.1374054
7880,3.3446827,2.6671271,-0.3184272,12.4885492,-121.3969498,-239.5725250
7890,2.9568241,2.9544299,-0.3016679,-5.9770994,-104.0000000,-228.4198456
7900,2.5330524,3.3375001,-0.3806761,-23.1832066,-86.4503784,-218.9618378
7910,1.7645177,3.4548154,-0.5291159,-39.6412201,-70.6412201,-209.7099304
7920,0.8834559,3.4428444,-0.4955972,-55.8702278,-60.6106873,-199.5038147
7930,0.3758878,3.5553713,-0.1005560,-71.5267181,-56.0152664,-187.7404633
7940,-0.1604107,3.7564833,0.0885850,-84.9236679,-50.7786255,-175.5572510
7950,-0.7757174,3.7876077,0.3232156,-96.9389343,-45.7938919,-164.5801544
7960,-1.0749911,3.8019729,0.7661406,-107.4274826,-46.6946564,-153.9770966
7970,-1.2952565,3.7277529,1.0749911,-116.9160309,-49.4809151,-144.0686951
7980,-1.4820032,3.7133877,1.3934183,-124.6259537,-50.4809151,-134.7862549
7990,-1.8435259,3.4452386,1.6639616,-132.0305328,-51.5419846,-125.6259537
8000,-2.1667414,3.5386121,1.8650736,-140.0305328,-51.4045792,-115.7175598
8010,-2.4564383,3.4619980,2.0661855,-148.4351196,-49.7938919,-105.8854980
8020,-2.7628946,3.2417326,2.5138988,-156.2748108,-48.2061081,-96.6106873
8030,-3.0525916,3.1651185,2.8466914,-164.1068726,-47.5954208,-88.3893127
8040,-3.2441268,2.9113343,3.0238612,-172.5496216,-48.4427490,-80.7480927
8050,-3.4380560,2.5138988,3.4021432,-181.0305328,-47.5343513,-73.4656525
8060,-3.7636659,2.2792683,3.9384418,-190.1297760,-44.8854980,-65.4656525
8070,-3.9480183,1.8938038,4.6375451,-198.6870270,-43.6717567,-56.7862587
8080,-4.1371593,1.7214222,5.3701668,-205.5572510,-39.5190849,-47.4274826
8090,-4.3550305,1.3144100,6.1841912,-210.6793823,-31.5572510,-36.5648842
8100,-4.4723458,1.1204807,6.9670911,-214.8396912,-22.0610695,-25.0992374
8110,-4.5657191,0.7972651,7.4674768,-217.6870270,-11.0229006,-13.2977095
8120,-4.6040263,0.5075682,7.7140784,-221.1603088,1.6412214,-1.5877863
8130,-4.3646073,0.0311245,7.9127960,-225.8091583,13.9160309,9.1679392
8140,-4.0174499,-0.2513899,8.3461447,-230.1450348,23.8015270,17.4503822
8150,-3.4165084,-0.3782819,8.6980906,-234.6793823,35.2519073,21.1755733
8160,-3.2656744,-0.4908088,8.8010406,-239.6717529,47.2748108,21.4580154
8170,-3.1746953,-0.5841822,9.0356712,-244.0458069,55.9541969,19.0458012
8180,-3.3542595,-0.7876883,9.3133974,-247.7938995,61.2213745,14.6488552
8190,-3.8905578,-1.0797794,9.7898407,-249.7557220,62.2900772,10.5496187
8200,-4.5226240,-1.4341195,10.2207947,-249.7557220,56.9312973,7.2061067
8210,-5.1642666,-1.6783268,10.8121595,-247.0763397,48.0763359,5.7633586
8220,-5.7460546,-2.0230901,11.4131012,-243.3664093,41.4427490,7.8244276
8230,-6.2847471,-2.4827745,11.9541883,-238.2137451,38.0610695,13.0839691
8240,-6.8785062,-2.7628946,12.2630386,-233.3358765,36.6870232,21.4503822
8250,-7.2424231,-3.0597742,12.4114780,-230.7175598,36.6717567,32.2061081
8260,-7.5225434,-3.3614421,12.5335817,-229.5801544,36.6946564,43.6183205
8270,-7.9008250,-3.6655040,12.9741125,-228.3969421,36.8702278,56.7175560
8280,-8.0899658,-4.0868812,13.4002781,-226.5572510,37.1832047,71.6717529
8290,-8.4419117,-4.5681133,13.7641954,-224.3664093,35.5648842,89.6870193
8300,-8.6526003,-5.0421629,14.3459835,-219.6793823,28.8549614,108.3816757
8310,-8.9686337,-5.3414369,15.0714226,-211.0915985,21.1145039,130.2213745
8320,-8.8872309,-5.6167684,15.4329453,-200.7862549,17.9236641,154.5725250
8330,-8.3820572,-6.0788469,15.3922443,-191.1984711,19.5343513,179.7022858
8340,-7.7428088,-6.5169835,15.1624022,-183.8702240,18.0687027,202.5419922
8350,-6.8234401,-6.9814563,15.1719790,-175.6412201,12.1297712,221.3664093
8360,-5.9735026,-7.5177550,14.8367920,-167.3511505,7.3664122,236.2748108
8370,-5.5784616,-7.9630742,14.5949793,-160.6412201,3.8244274,249.5496216
8380,-5.4204450,-8.4371233,14.4968176,-154.0686951,-2.1068702,250.1297760
8390,-5.1882086,-8.8944139,14.6548338,-147.4732819,-7.0610685,250.1297760
8400,-4.6758518,-9.3110027,14.9445305,-139.3053436,-7.7633586,250.1297760
8410,-4.3310885,-9.8784256,15.1576138,-130.9465637,-6.1984735,250.1297760
8420,-4.0820932,-10.1848822,15.6460285,-120.5954208,-7.6030536,250.1297760
8430,-3.8977404,-10.4650021,16.5151196,-104.0916061,-16.4198475,250.1297760
8440,-3.3375001,-10.6254129,17.2716827,-80.4809189,-31.6717548,250.1297760
8450,-2.5258698,-10.9653873,17.5877151,-51.6183205,-49.8931313,250.1297760
8460,-1.8315549,-11.2072010,17.8893833,-20.9694653,-70.3358765,250.1297760
8470,-0.9457048,-11.3053627,18.1934452,9.3664122,-88.6488571,250.1297760
8480,0.2298422,-10.9127159,18.6363716,41.8167953,-105.9694672,250.1297760
8490,1.4460905,-10.3620520,18.8111458,75.5801544,-121.1297684,250.1297760
8500,2.5426292,-9.8401184,18.5406036,110.0076370,-135.7633514,250.1297760
8510,3.4117200,-9.0356712,17.8965664,144.1832123,-150.7022858,250.1297760
8520,4.0581512,-8.1258793,16.6898956,175.7328186,-167.5190887,250.1297760
8530,4.7620430,-7.1610208,15.3252068,203.7557220,-188.1984711,225.6564941
8540,5.0613165,-5.9591374,14.2837343,227.7633514,-211.0915985,196.9160309
8550,5.6191626,-4.8051381,12.7897596,249.2290039,-234.2900696,166.8931274
8560,6.6127515,-3.6846576,11.5926657,250.1297760,-250.1374054,135.7404633
8570,7.8289995,-2.3463056,10.3045912,250.1297760,-250.1374054,100.8396912
8580,8.8345594,-0.9050036,9.1625633,250.1297760,-250.1374054,63.4580154
8590,9.5791521,0.2370248,8.1977043,250.1297760,-250.1374054,24.6870232
8600,10.2567072,1.3096216,7.5584559,250.1297760,-243.0152740,-13.3740454
8610,10.4937325,1.8985922,6.9359670,250.1297760,-223.2290039,-50.8320618
8620,9.7299862,1.9009864,6.2344694,249.9618378,-205.1679382,-84.4045792
8630,8.6478119,1.7740943,5.7699966,236.2290039,-191.3358765,-111.5114517
8640,7.5560617,1.4724265,5.2600341,223.6870270,-182.4045868,-131.1374054
8650,6.5313487,1.1947005,4.6040263,211.3969421,-179.6412201,-143.5877838
8660,5.7939386,1.1731528,4.1299767,199.3969421,-182.4274750,-150.5572510
8670,5.4012914,1.3527170,3.6702924,187.5725250,-191.3129730,-154.9694672
8680,5.4108682,1.7573351,3.3375001,176.2824402,-202.8931274,-159.2900696
8690,5.5521255,2.1691356,3.0908985,166.2900696,-213.6335907,-166.0229034
8700,5.6000090,2.6240315,2.8826041,157.7786255,-224.7022858,-175.3816833
8710,5.6838059,2.9280937,2.3750360,148.2977142,-234.6564941,-186.6793823
8720,5.6239510,3.0908985,1.7621235,136.3587799,-238.1450348,-198.5038147
8730,5.0493455,2.9137285,1.1276633,119.8778610,-233.5648804,-208.4809113
8740,4.3047528,2.8299320,0.7589580,99.6488571,-223.9160309,-211.3969421
8750,3.6583214,2.8131726,0.1532281,77.8702316,-208.4122162,-208.7328186
8760,3.3925664,2.8059900,-0.1628049,51.0610695,-185.6793823,-203.0534363
8770,3.0454090,2.9855542,-0.0981618,22.3816795,-157.8778687,-196.5801544
8780,2.6862805,3.0549858,0.0311245,-3.9541984,-128.2061005,-190.0763397
8790,2.1284344,3.0741394,0.1508339,-28.6183205,-99.0687027,-183.4045868
8800,1.3144100,3.1723011,0.3232156,-50.9083977,-75.0916061,-175.4809113
8810,0.6655847,3.2034254,0.6584021,-70.3893127,-57.2366409,-165.9389343
8820,0.2801202,3.2082138,0.8762733,-86.4580154,-45.6335869,-156.5648804
8830,0.1268920,3.2058196,1.0055596,-100.7251892,-39.4045792,-149.3435059
8840,0.1364688,3.1962428,1.1156923,-113.4122162,-40.2671738,-145.9923706
8850,0.1125269,2.9376705,1.5107336,-123.7633591,-47.1297722,-145.4961853
8860,-0.0646431,2.7796540,2.0087249,-131.5572510,-57.9541969,-147.0534363
8870,-0.5075682,2.4133430,2.6024840,-136.6564941,-70.7862625,-148.7328186
8880,-1.1300575,2.1619530,3.0885043,-141.3816833,-83.7404556,-148.1984711
8890,-1.6831152,1.9608412,3.4093258,-146.8091583,-92.5038147,-145.7862549
8900,-2.3415172,1.6639616,3.7756367,-154.2977142,-96.4351120,-140.9618378
8910,-3.1483591,1.4365137,4.2736282,-162.3969421,-95.8473282,-133.7175598
8920,-4.1132174,1.1563935,5.0661049,-170.3816833,-94.4732819,-122.0000000
8930,-4.8745699,0.7613522,5.7053533,-177.6717529,-93.5114517,-105.4580154
8940,-5.3773494,0.3232156,6.3876977,-184.8167877,-89.0152664,-84.5190811
8950,-5.8513989,0.2202654,7.1825686,-192.2061005,-82.1908417,-60.5496178
8960,-5.8944945,0.0023942,8.0971489,-198.7862549,-75.2366409,-35.0381660
8970,-5.7771792,-0.2609667,8.8561068,-204.2748108,-64.9542007,-10.2137403
8980,-5.3342543,-0.5123565,9.9646168,-207.6106873,-53.6335869,12.6412210
8990,-4.7524662,-0.7445929,10.9845409,-209.0763397,-38.7709923,31.5267181
9000,-4.1275826,-0.8188128,12.1433287,-206.2824402,-23.8625946,45.9389305
9010,-3.6942344,-0.9983770,13.0148134,-199.0000000,-7.2519083,56.7099228
9020,-3.3758070,-1.0366840,13.2350798,-190.7786255,10.6488552,64.1603088
9030,-3.3207407,-0.9385223,13.1105814,-184.9694672,30.2977104,70.2671738
9040,-3.4212968,-0.9911944,12.6173782,-184.0992432,50.4274826,74.9160309
9050,-3.6726866,-1.3646880,12.5910425,-185.5343475,62.8473282,78.1603088
9060,-4.0868812,-1.6017127,12.9238348,-183.7938995,61.7022896,79.7175598
9070,-4.5681133,-1.9177457,13.3500004,-177.9389343,53.5038185,82.9770966
9080,-5.0828643,-2.0590029,13.7570124,-169.9084015,43.3969460,89.8778610
9090,-5.5545197,-2.1308286,14.1281118,-161.8625946,35.5343513,100.5648880
9100,-5.8897061,-2.1954718,14.4872408,-154.6793823,30.7709923,116.7022934
9110,-5.6981707,-2.3774302,14.6787758,-149.3587799,32.8015251,135.1603088
9120,-5.4395986,-2.5282640,14.7075062,-147.6641235,42.7251892,155.1603088
9130,-5.3581958,-2.9903426,14.7984848,-148.9313049,57.4427490,176.4885559
9140,-5.1211715,-3.4476328,15.0786057,-150.2213745,70.3435135,196.7022858
9150,-4.5465660,-3.8330972,15.5023766,-149.0000000,75.3206100,212.7862549
9160,-3.9767487,-4.2832050,16.1488075,-143.4427490,73.5114517,223.6488495
9170,-3.5481887,-4.6734576,16.6132812,-132.8625946,66.7709961,230.5725250
9180,-3.1770895,-4.9631548,16.8790359,-117.6564865,53.8549614,235.5648804
9190,-2.8395088,-5.3414369,17.2932301,-99.8625946,38.1145020,239.0458069
9200,-2.7485294,-5.4659348,17.6116581,-79.8854980,21.9694653,242.0076294
9210,-2.3032103,-5.7245069,17.5350437,-59.1145020,9.3282442,246.5114441
9220,-1.7070571,-5.9639258,17.1160603,-41.0305328,1.6412214,250.1297760
9230,-1.3311694,-6.0692701,16.7497501,-27.7328243,-1.8396946,250.1297760
9240,-0.7398046,-6.1027889,16.5342731,-17.5038166,-2.9007633,250.1297760
9250,-0.3112446,-6.2703824,16.6803188,-7.3969464,-4.6564884,250.1297760
9260,0.1675933,-6.5169835,16.7138367,4.3969464,-10.4427481,250.1297760
9270,0.7278336,-6.5959921,16.9724083,18.9618320,-23.7709923,250.1297760
9280,1.2808913,-6.4307928,17.4153347,38.2519073,-44.0152664,250.1297760
9290,2.0901275,-6.2799587,17.8462887,61.8473282,-68.1374054,248.2290039
9300,2.8107784,-6.1458845,18.0066986,88.4885483,-92.0000000,238.1603088
9310,3.6271970,-5.8801293,17.7074261,116.6488571,-112.8931274,226.1221313
9320,4.2544746,-5.6718349,16.8646698,142.6259613,-129.8396912,214.0152740
9330,4.7883787,-5.1475072,16.0937424,166.1374054,-147.1450348,201.0076294
9340,5.1786318,-4.7333126,15.1360655,188.7022858,-166.5954132,186.7862549
9350,5.6191626,-4.2832050,14.2717638,210.1450348,-188.4351196,171.1450348
9360,6.5744443,-3.8067613,13.2398672,231.1297760,-209.7786255,152.8625946
9370,8.2743187,-3.0047078,12.0308018,249.4351196,-225.0076294,129.9084015
9380,10.2255831,-1.6065011,11.1736822,250.1297760,-230.0686951,98.6870193
9390,11.4777441,-0.0167593,10.0029240,250.1297760,-233.2137451,61.4656487
9400,11.8632088,1.0271072,8.7052727,250.1297760,-235.6259613,18.0839691
9410,11.5854826,1.5490406,7.5105724,250.1297760,-240.0915985,-23.1832066
9420,11.0036945,1.8387375,6.6103573,250.1297760,-245.4732819,-60.8931313
9430,10.6589317,2.0254843,5.7364779,250.1297760,-247.7099304,-94.1145020
9440,10.0005293,2.2242019,4.5824785,250.1297760,-247.5267181,-123.0839691
9450,9.1242561,2.4061604,3.2058196,238.6259613,-243.8244324,-146.1221313
9460,8.3700867,2.5043221,2.1691356,219.8091583,-242.0076294,-162.4580078
9470,8.1905222,2.6671271,1.4891858,198.6259613,-242.8549652,-175.4656525
9480,8.3030491,2.9975252,1.2761030,178.1755676,-243.7938995,-189.3358765
9490,9.0284882,2.9999194,0.9217629,159.2595367,-241.9847260,-206.7175598
9500,9.8927908,3.2656744,1.0821736,142.4580078,-239.1679382,-226.3282471
9510,9.7419567,3.2201848,0.8619082,124.9618301,-236.3893127,-248.1450348
9520,8.7340031,2.7174051,0.8810617,109.2290039,-234.3664093,-250.1374054
9530,7.3884687,2.1164634,0.9552816,95.1603088,-233.0458069,-250.1374054
9540,6.3230543,1.8076130,1.0079538,83.8473282,-230.0839691,-250.1374054
9550,4.9440012,1.8794388,0.6129125,71.2442780,-225.4809113,-250.1374054
9560,3.8881636,1.9033806,0.3016679,56.4045792,-213.0305328,-250.1374054
9570,3.1244173,1.9895715,-0.0861908,39.8244286,-192.0610657,-250.1374054
9580,2.5641768,2.3894010,-0.5650287,20.5801525,-170.0610657,-247.3969421
9590,2.3199697,2.8778157,-1.1420283,-1.3206106,-144.3816833,-233.8778687
9600,1.6831152,3.1435707,-1.7070571,-23.8473282,-112.9618301,-220.0839691
9610,0.7924767,3.3111639,-2.0111191,-48.5954208,-81.6106873,-204.6946564
9620,-0.2992737,3.3997490,-2.0853391,-72.0992355,-56.1908379,-187.3053436
9630,-1.0055596,3.5218527,-1.8100072,-92.7328262,-37.6870232,-169.3129730
9640,-1.4532729,3.7133877,-1.5442522,-110.0687027,-27.3816795,-151.8778687
9650,-1.5107336,3.9025288,-1.5107336,-126.5190811,-26.3511448,-137.6717529
9660,-1.3311694,3.8330972,-1.4891858,-142.9923706,-30.9541988,-128.0381622
9670,-1.4915800,3.6487448,-0.9600700,-159.1374054,-35.9618340,-119.5572510
9680,-2.0374553,3.2584918,-0.3519458,-174.1450348,-40.5648842,-109.2290039
9690,-2.4540441,3.0406206,0.4213773,-188.6564941,-44.1603050,-96.8015289
9700,-2.7652888,2.7700772,1.0702027,-202.8778687,-42.4503822,-83.3435135
9710,-3.3375001,2.4396791,1.8052188,-217.9923706,-37.0381660,-67.9694672
9720,-3.6870518,2.0805507,2.4779861,-233.4198456,-27.8549614,-51.2290077
9730,-3.8690102,1.5873476,3.2345500,-247.7251892,-16.5496178,-33.9923668
9740,-3.8378856,1.2952565,4.1754665,-250.1374054,-4.7251906,-17.6106873
9750,-3.9097114,0.8954269,5.0158267,-250.1374054,12.4045801,-2.6259542
9760,-3.9480183,0.4333483,5.3797436,-250.1374054,33.2748108,12.1908398
9770,-3.9288650,-0.0095768,5.5305777,-250.1374054,50.8549614,26.5038166
9780,-3.6966286,-0.3064562,6.1434903,-250.1374054,67.4351120,38.1068687
9790,-3.4955165,-0.8834559,6.7755561,-250.1374054,84.4045792,46.1450386
9800,-3.5074875,-1.4772149,7.5129666,-250.1374054,96.6717529,51.1374054
9810,-3.4787574,-2.3032103,8.2431946,-250.1374054,97.5877838,52.8854980
9820,-3.4165084,-3.1818779,9.1769285,-250.1374054,96.1755753,52.5419846
9830,-3.4476328,-3.9743545,10.4458485,-250.1374054,84.1450348,50.7175560
9840,-3.3255291,-4.5369892,11.7770176,-250.1374054,72.2137375,48.5954208
9850,-3.4859397,-4.8985114,12.6221666,-250.1374054,66.2519073,47.8931313
9860,-3.7588775,-5.1953912,13.3859129,-250.1374054,62.7709923,49.0992355
9870,-4.0964580,-5.2696109,13.9365768,-250.1374054,55.0305328,52.0458031
9880,-4.1419477,-5.3222833,14.5925846,-250.1374054,46.9847336,56.6030540
9890,-4.2975702,-5.0828643,15.0067797,-250.1374054,40.2977104,63.7328262
9900,-4.2544746,-4.9655490,15.1863441,-248.9770966,36.0916023,72.8396912
9910,-4.0389977,-4.8266859,15.4209747,-237.7480927,33.9618340,82.0916061
9920,-3.7588775,-4.7668314,16.0075512,-227.0686951,33.1221390,91.2671738
9930,-3.4069316,-4.8745699,16.5845509,-214.8167877,34.9312973,98.4427490
9940,-3.0932927,-4.9870968,17.2429523,-199.6030579,37.8244286,106.8473282
9950,-2.4875629,-5.0948353,17.4608231,-183.2977142,40.5877876,112.9923630
9960,-1.7094513,-5.1929970,17.8007984,-165.7633514,42.7786255,115.6717529
9970,-1.0486550,-5.1163831,17.9516335,-146.6641235,44.7557259,114.4503784
9980,-0.6703730,-5.0684991,17.9252968,-126.0610657,44.3893127,110.7328262
9990,-0.4285599,-5.0589223,17.8295288,-103.9389343,40.5343513,105.3664093
