timestamp,acclX,acclY,acclZ,gyroX,gyroY,gyroZ
0,4.8649931,1.0773853,9.3253679,15.7022905,-24.3664131,-5.3358779
10,4.8865409,1.1539993,9.2439651,17.0763359,-27.2213745,-5.9694657
20,4.9296360,1.1779412,9.0907373,18.2213745,-28.5954189,-6.9236641
30,4.8338685,1.1803354,8.9973640,19.0458012,-31.4351139,-7.8091602
40,4.7476778,1.1731528,8.8728657,20.5877857,-36.7251892,-7.8702292
50,4.7165532,1.0965388,8.8058290,22.2137413,-43.1984749,-7.7022901
60,4.7859845,1.0869620,8.7100611,23.7404575,-50.6488533,-7.5038166
70,4.9966736,1.2617378,8.5879574,24.2595425,-55.6946564,-7.0381680
80,5.1570840,1.2713146,8.5688038,23.7022896,-58.1603050,-7.4274807
90,5.4276276,1.3982066,8.6142941,23.8549614,-59.8931313,-8.5954199
100,5.5210009,1.5346755,8.5711985,23.2977104,-58.8702278,-9.9160309
110,5.5904322,1.4413021,8.2767134,20.8396950,-53.7099228,-10.4656487
120,5.7125359,1.5179161,8.1378498,16.5114498,-45.3282433,-11.0305347
130,5.8202744,1.5442522,8.1378498,12.6641226,-37.4503822,-11.0916033
140,5.7053533,1.5490406,8.1426382,9.5648851,-31.9770985,-12.1068707
150,5.6957769,1.5945302,8.2000990,7.2595420,-30.0916023,-12.2900763
160,5.7460546,1.6280488,8.2407999,5.9160304,-29.6335869,-12.8015270
170,5.8753409,1.7286048,8.2120695,4.8778625,-29.4656487,-13.3969469
180,5.7795734,1.6280488,8.3605099,4.5496182,-29.5419846,-14.0000000
190,5.7939386,1.6902977,8.3724804,5.0000000,-28.8396950,-14.6259546
200,5.9160423,1.7214222,8.2575598,5.1526718,-27.2442741,-15.5343513
210,5.8202744,1.7717001,8.1258793,4.2519083,-24.6183205,-16.1297703
220,5.7149301,1.7525467,8.1737623,3.1297710,-22.5725193,-16.0076332
230,5.5593081,1.6879035,8.1689749,2.2900763,-19.2595425,-15.1755724
240,5.4156566,1.6519908,8.1546097,0.6335878,-14.8625956,-13.5267172
250,5.2863703,1.6663558,8.1977043,-0.1832061,-11.1221371,-11.3358774
260,5.3462253,1.7884595,8.0636301,-1.7099236,-3.0839694,0.9160305
270,5.3917146,1.7645177,8.2312231,-2.6717558,-3.3664122,1.9541985
280,5.5210009,1.7309990,8.3198080,-2.9541984,-3.5038168,2.3053436
290,5.8011212,1.7693061,8.4443064,-2.4809160,-3.2061069,1.8625954
300,5.9399838,1.8722562,8.4586716,-2.5038168,-2.4198472,1.1755725
310,5.8633699,1.7836711,8.5137377,-1.7633588,-2.2061069,0.4809160
320,5.8298512,1.7669119,8.5137377,-0.5877863,-3.3206108,0.0229008
330,5.8202744,1.7908537,8.4993725,0.5954198,-4.5496182,0.4732825
340,5.9184365,1.8794388,8.4371233,1.5038168,-5.3664122,0.6946565
350,6.0453281,1.9009864,8.3844519,2.0763359,-5.5190840,0.2748092
360,6.1339135,1.9225341,8.2910776,2.7251909,-4.6488547,-0.7099237
370,6.1602492,1.9656296,8.2360115,2.8244274,-4.7709923,-1.6106870
380,6.1458845,2.0254843,8.1019373,2.7862597,-5.1297708,-2.5725191
390,6.0740585,1.9799947,8.1570034,3.2671757,-6.5190840,-3.9770992
400,6.0285692,2.0613971,7.9630742,2.4198472,-7.4427481,-5.2671757
410,5.9974446,2.1260402,7.8601241,1.5190840,-7.5572519,-6.2290077
420,5.9423780,2.0829449,7.8385763,0.3740458,-6.6412215,-6.7938933
430,5.6359220,2.0135133,7.9247670,-4.4580154,3.6488550,-6.4656487
440,5.7580256,2.0206959,7.6087341,-10.9770994,21.5648861,-5.0839696
450,5.4300218,1.9416877,7.7595682,-13.6641226,27.4885502,-3.6335878
460,5.2145448,1.8267666,7.7212610,-14.7709923,28.1068707,-1.2442749
470,4.8769641,1.9895715,7.4243813,-15.2748089,3.7938931,8.3816795
480,5.9016771,1.6950861,7.4435349,-21.4198475,-11.0687027,4.9847326
490,5.6287394,1.8100072,7.6135225,-20.9923668,-14.7099237,3.1832061
500,5.4084740,1.5011568,7.7404146,-20.6641216,-19.4656487,2.1603053
510,5.3510137,1.2856797,7.7380204,-18.5496178,-23.0458012,2.6793892
520,5.1738434,1.3263810,7.6326761,-17.1832066,-25.7404575,4.0000000
530,5.1522956,1.2928623,7.4315639,-16.7022896,-27.4809170,5.3740458
540,4.9847026,1.1563935,7.2831244,-17.3129768,-28.0610695,7.3893127
550,4.8697815,1.0702027,7.0245519,-18.4809170,-26.8473282,10.0839691
560,4.6638808,1.0917504,7.0963774,-22.9541988,-24.3664131,12.6946564
570,4.4531922,1.0821736,7.3956513,-27.4503822,-21.3282452,14.6335878
580,4.1898317,1.0390782,7.7691450,-30.8778629,-16.2366409,16.4961834
590,3.7636659,0.9241571,8.2431946,-30.0763359,-12.0305347,19.6870232
600,3.5338237,0.8571198,8.3341732,-31.3511448,-7.9007635,21.7404575
610,3.0693510,1.0103480,8.6597834,-33.7938919,-2.4198472,23.4503822
620,2.1547706,1.0414724,9.5959110,-41.0534363,12.1374044,29.4580154
630,1.4748207,0.7469871,10.2112179,-43.7175560,16.8702297,36.0076332
640,1.2210367,0.4285599,10.9941177,-43.2061081,18.2366409,45.3358765
650,1.3287752,0.3064562,12.0858688,-38.2671738,14.8473282,55.2290077
660,1.8866212,0.1867468,12.9573536,-28.3587780,10.1832066,63.2061081
670,2.5617826,0.1053443,13.3811245,-16.9465656,8.5725193,67.9236679
680,2.9975252,0.0239419,12.5383701,11.5038166,14.2595415,70.5267181
690,2.6336083,-0.0263361,11.9709473,15.7022905,15.0076332,72.6717529
700,2.4588325,-0.1412572,11.7147694,17.6641216,15.8244276,76.7404556
710,2.3175755,-0.2777260,11.7746239,19.9694653,16.4885502,83.0076370
720,2.3846128,-0.3878587,12.1672707,23.5038166,18.4427490,92.7862625
730,2.7676830,-0.3327923,12.2271252,27.9236641,22.4045811,102.1450348
740,3.4045374,-0.1580165,12.3923244,32.7633591,27.2290077,111.5343475
750,4.4819226,0.1747758,12.3707771,37.6259537,33.2748108,118.1297684
760,5.4324160,0.3902529,12.0475616,40.8625946,39.7251892,119.4427490
770,5.9351954,0.5626345,11.7530756,42.0687027,41.5114517,117.6641235
780,6.1841912,0.5219333,11.8129311,43.3435097,35.4274826,115.1374054
790,6.5792327,0.4237715,12.3157110,47.9923668,21.7328243,111.0076370
800,6.9024482,0.3950413,12.6413202,56.0839691,4.7099237,105.9923630
810,7.2136927,0.5099624,12.7753954,65.4503784,-12.9160309,100.7022934
820,7.6566176,0.6655847,12.6796274,74.6335907,-27.2824421,94.5954208
830,8.0420828,0.8930327,12.2582502,80.3893127,-35.7480927,88.6030502
840,8.5831690,1.0702027,12.1002331,82.6870193,-37.8549614,83.4656525
850,9.3253679,1.0175306,12.1457233,83.8549652,-33.4122124,78.1450348
860,9.8784256,0.9002152,12.0738974,84.0534363,-26.4656487,73.1145020
870,10.3021975,0.5889706,12.1505117,84.5954208,-18.6259537,67.8473282
880,10.4769726,0.1987177,12.2630386,87.1908417,-14.0610685,62.7709923
890,10.8241301,-0.3567342,12.1840305,92.0534363,-13.5801525,57.2442741
900,11.2072010,-0.8068419,12.2223368,96.8244247,-15.6030531,52.1679382
910,11.8057480,-1.0845678,12.3109226,103.0229034,-17.1984730,45.4809151
920,12.3324699,-1.3144100,12.5072460,113.9389343,-16.3129768,36.6717567
930,12.7706070,-1.5155219,12.2007895,124.7404556,-11.8854961,27.2290077
940,13.1536770,-1.7046629,11.4538021,134.0610657,-3.3053436,18.3053436
950,13.5822372,-1.5945302,10.8001890,141.1068726,5.7938933,9.0916033
960,13.7546186,-1.8004304,9.9502516,145.9236603,12.3664122,-1.0839695
970,13.8192616,-1.9584470,9.0620070,148.8167877,13.3969469,-10.9847326
980,13.9246063,-2.1643472,8.4538832,150.2366486,7.7480917,-20.3358784
990,14.0778341,-2.2122312,7.8026633,150.7786255,-0.7786260,-29.4656487
1000,14.6189203,-2.2337787,7.2950954,152.0686951,-11.7175570,-40.9312973
1010,15.4042149,-1.9728121,6.8354111,153.1221313,-23.0000000,-55.4656487
1020,16.1727505,-1.6328372,6.2631998,153.0915985,-29.0839691,-75.1374054
1030,16.2780933,-1.3814473,5.5712790,151.1374054,-32.6793900,-97.8091583
1040,15.6556044,-1.5801650,4.9272418,148.0305328,-39.7557259,-121.0839691
1050,14.6308918,-1.7860653,4.4531922,145.3969421,-48.6870232,-140.6030579
1060,13.5798426,-1.9991482,3.9935081,144.2824402,-59.5114517,-154.9923706
1070,12.7586355,-2.0494261,3.2608860,142.6335907,-69.4045792,-164.9618378
1080,12.2510672,-2.1451938,2.5115047,139.1908417,-77.1221390,-171.9770966
1090,11.5950594,-2.0039365,1.6543850,134.3587799,-82.6259537,-177.1450348
1100,10.9869356,-1.7788827,0.7948709,127.0610657,-85.4274826,-182.1297760
1110,10.2710724,-1.5155219,-0.1843526,116.0916061,-83.8015289,-188.0000000
1120,9.1865053,-1.4269369,-0.6895266,102.8549652,-84.0305328,-193.6641235
1130,8.0827837,-1.3694763,-1.2473727,90.7709961,-88.2442780,-196.6946564
1140,6.8306227,-1.2737088,-1.7740943,76.9389343,-94.6183243,-196.1526642
1150,5.8729467,-1.2808913,-2.1619530,62.2137413,-103.6717529,-192.2442780
1160,4.8985114,-1.0678085,-2.5593886,46.9312973,-111.2824402,-185.0305328
1170,4.2616572,-0.6871324,-2.9855542,29.4656487,-116.2900772,-177.3053436
1180,3.8546450,-0.4812321,-2.9424589,11.0152674,-117.1297684,-170.9694672
1190,3.3183465,-0.1651991,-2.8203552,-8.0610685,-114.2442780,-166.0839691
1200,2.7030399,0.0694315,-2.3151813,-25.6793900,-108.0763321,-160.3129730
1210,1.9129574,0.2011119,-1.7956421,-41.5877876,-100.0152664,-153.6793823
1220,1.1348459,0.2298422,-1.5993185,-57.5648842,-91.8244247,-144.8015289
1230,0.1699875,0.2992737,-1.0989330,-72.5572510,-81.4198456,-133.5801544
1240,-0.8188128,0.4094064,-0.7086801,-87.0305328,-72.6030502,-120.2137375
1250,-1.6615674,0.6224893,-0.2489957,-101.2213745,-69.5419846,-105.3206100
1260,-2.4109488,0.6392486,0.3854645,-114.2748108,-68.6030502,-88.0610657
1270,-3.1315999,0.6081241,1.0678085,-126.5954208,-66.8549652,-68.9542007
1280,-3.7085996,0.8259954,1.8866212,-138.0915985,-65.4274826,-49.2061081
1290,-3.6655040,0.8403605,2.8466914,-149.1526642,-62.3740463,-31.4961834
1300,-3.4524212,0.6943150,3.6846576,-158.1526642,-56.5877876,-16.4198475
1310,-3.3853838,0.6967092,4.7237358,-164.5190887,-49.3740463,-4.9312978
1320,-3.2441268,0.9409165,5.6239510,-168.2061005,-41.4122124,4.0534353
1330,-3.0430148,0.9433106,6.4331870,-170.0229034,-33.2137413,10.3129768
1340,-3.0166788,0.9600700,7.3070664,-170.4656525,-24.4427490,15.5343513
1350,-3.2010312,0.9265513,7.8026633,-167.9694672,-18.7557259,20.5343513
1360,-3.2417326,0.8762733,8.2551651,-163.7175598,-18.8167934,26.2061062
1370,-3.0645626,0.8643024,8.2958660,-160.3435059,-15.5954199,31.9923668
1380,-2.8634505,0.3974355,8.6430235,-157.9313049,-8.4274807,38.2442741
1390,-3.1196289,-0.1939293,9.0165176,-153.5725250,-0.0152672,45.6870232
1400,-3.5697365,0.0047884,8.7675219,-149.4961853,7.5496182,57.5419846
1410,-3.8043671,0.3112446,8.4634600,-149.1068726,15.8702288,72.0229034
1420,-3.9456241,0.6512195,8.1210909,-154.1679382,24.5190830,86.2366409
1430,-4.3454537,1.2138541,8.2982607,-164.8625946,24.1755733,99.1755753
1440,-3.7205703,1.3527170,9.3828287,-174.6793823,17.6946564,116.2671738
1450,-2.0087249,1.5227045,10.4147243,-182.4427490,12.7175570,130.2213745
1460,0.2202654,1.3239868,12.5742826,-180.3282471,16.3587780,139.6793823
1470,2.0613971,1.8459201,14.0682573,-177.7022858,29.9083977,141.8473358
1480,3.6535332,2.1882892,15.6819410,-171.3664093,47.9160309,135.2671814
1490,3.7828193,2.7700772,16.8694592,-160.2366486,59.8854980,124.2213745
1500,3.8570392,2.0159075,18.0258522,-141.1984711,56.0763359,111.4885483
1510,3.6894460,2.1858950,18.3538570,-124.1603088,41.7480927,102.8549652
1520,4.1299767,0.8020535,19.6126022,-98.8931274,21.5267181,95.6412201
1530,4.2041965,0.9911944,19.6126022,-74.9847336,-2.3435113,90.8091583
1540,4.4244623,0.8188128,19.6126022,-52.1374054,-19.5343513,88.7786255
1550,4.9368186,0.7086801,19.6126022,-31.1755733,-22.5648861,88.5572510
1560,4.9344244,1.0247130,19.0433826,-16.8244267,-13.2290077,89.4274826
1570,4.7117648,1.0702027,18.1072540,-12.0687027,1.7938931,93.2442780
1580,4.8865409,0.8738791,18.0785236,-8.1526718,15.8015270,97.6259537
1590,6.1794028,0.8666966,18.1790810,0.7480916,26.1984730,106.2824402
1600,8.1402445,1.4317253,17.8654423,11.9694653,36.9160309,106.6870193
1610,9.5049324,1.7812769,17.1400032,22.6106873,44.8015251,98.8625946
1620,10.1226330,1.8961980,16.1919041,33.3969460,48.7175560,85.9847336
1630,10.0484133,1.6902977,14.8104563,43.3358765,44.9771004,72.8244247
1640,9.6485834,1.6041069,13.2135315,50.7862587,34.4885483,60.6106873
1650,9.3325500,1.5394639,11.7674408,55.1984749,19.3587780,50.9312973
1660,9.8353300,1.1324517,8.6478119,56.5725174,-10.7786255,29.2442741
1670,9.7443514,1.0702027,7.8337879,53.2366409,-11.2900763,22.3816795
1680,9.4522600,1.0486550,6.9886389,47.6564903,-10.4656487,16.1297703
1690,8.4538832,0.9145803,6.1506729,31.5190830,-3.3053436,5.7862597
1700,7.9918046,0.7493813,6.2296810,24.3206100,0.7404580,2.3969467
1710,7.3549500,0.6272776,6.2703824,18.9770985,2.8931298,-0.3969466
1720,6.6486640,0.4477134,6.2799587,15.5954199,1.9312977,-2.0534351
1730,5.5449429,0.3351865,6.1099715,8.7099237,-6.7862597,-4.1297708
1740,3.9623835,0.3950413,6.7061248,-3.4427481,-14.8015270,-2.8473282
1750,3.4452386,0.6224893,6.7324610,-9.4961834,-15.3435116,-1.4580153
1760,3.0765336,0.6560079,6.8856888,-16.7938938,-14.6259546,0.5114504
1770,2.6024840,0.7733232,7.2807302,-23.4885502,-11.1450386,2.2290077
1780,1.5705882,1.0773853,8.5520449,-33.9465637,-1.2290076,10.4427481
1790,0.2609667,1.4389079,10.3237448,-39.4885483,11.3664122,26.9160309
1800,0.0694315,1.3838415,10.9629936,-40.3435097,10.9083967,32.1374054
1810,-0.2609667,1.1276633,11.7315283,-38.8015251,5.3587785,37.1068687
1820,-0.5051740,0.8403605,12.7586355,-34.4732819,-6.1297708,43.0381660
1830,-0.3280039,0.5937590,13.8575687,-25.2442741,-19.8091602,49.7938919
1840,0.1173153,0.6057299,14.7122946,-12.3206110,-31.7786255,57.6717567
1850,1.0103480,1.0271072,15.2270451,0.1297710,-35.4351158,65.1984711
1860,1.8818330,1.1587877,15.5502605,9.7175570,-28.0992374,71.6946564
1870,2.5593886,1.2856797,15.5885677,16.1908398,-14.2290077,78.2213745
1880,4.0198441,1.6232605,15.4592810,23.8931293,20.6183205,87.7633591
1890,4.6255741,1.6136837,15.4592810,26.8854961,32.4809151,89.9083939
1900,5.5712790,1.6256547,15.4185801,31.8625946,39.0305328,89.0839691
1910,6.8234401,1.6974803,15.1121235,38.5877876,40.0916023,83.4503784
1920,8.2192526,1.7836711,14.5016060,44.6793900,36.4274826,72.5954208
1930,8.9231443,1.8100072,13.7929258,48.6183205,29.8931293,57.7328262
1940,9.3445215,1.5514348,13.0746689,51.4885483,18.3282452,42.6564903
1950,10.0699606,0.6153067,12.4569674,56.3358765,-2.6106870,16.2595425
1960,10.2040358,0.1771700,11.9422169,59.7099228,-9.5190840,5.9236641
1970,10.4362717,-0.4668669,11.6094246,63.9847336,-11.7480917,-2.6564887
1980,10.6685085,-0.9840119,11.0850973,68.9694672,-8.1068707,-8.2213745
1990,11.2263546,-1.0965388,10.1633339,72.0305328,3.4122138,-12.3053436
2000,11.6788559,-1.2545552,8.9375095,70.3511429,17.5419846,-16.4809170
2010,11.5160513,-1.4436963,8.0803890,66.5877838,29.5648861,-19.6183205
2020,11.5926657,-1.6112895,7.5033898,63.6717567,35.6564903,-22.3282452
2030,11.7267399,-1.6998745,7.0963774,61.6183205,36.0916023,-26.2213745
2040,12.0738974,-1.6687500,7.0101867,62.2900772,34.1374054,-32.8931313
2050,12.2702208,-1.6807210,6.7420373,64.4580154,32.3511467,-42.5496178
2060,11.9685535,-1.8124014,6.1434903,66.9312973,31.5648861,-53.1221390
2070,11.5256281,-1.8387375,5.3845320,69.3893127,28.5419846,-62.8244286
2080,10.6302013,-2.0494261,4.1778607,70.5725174,18.8015270,-71.3053436
2090,10.0412302,-1.9871773,3.1699069,68.8549652,6.8778625,-77.9312973
2100,9.6030941,-1.7908537,2.3965836,64.2519073,-1.4274809,-84.4961853
2110,9.0045462,-1.5227045,2.0302727,58.4580154,-7.3511453,-91.6488571
2120,8.1881275,-1.4436963,1.6902977,53.5725174,-10.4961834,-97.3587799
2130,7.2615767,-1.2808913,1.1779412,47.6717567,-11.9923668,-101.2824402
2140,6.2631998,-1.2186425,0.7445929,39.4122124,-12.5343513,-103.2290039
2150,5.3558016,-1.2114599,0.2585725,28.5801525,-11.0610685,-102.8091583
2160,4.5657191,-1.1923064,0.0287303,15.7480917,-6.8931298,-100.7099228
2170,3.7038112,-1.1851238,0.1029501,1.3053435,-3.2061069,-98.6106873
2180,2.7700772,-1.2928623,0.4046180,-10.6641226,-2.0534351,-95.1832047
2190,2.0254843,-1.3479286,0.9864060,-20.6106873,-2.5801528,-90.6488571
2200,1.1061156,-1.0917504,1.6831152,-28.2671757,-6.1145039,-86.3587799
2210,-0.0023942,-0.9337339,2.5881188,-32.1603050,-15.5419846,-80.4885483
2220,-0.7302278,-0.7398046,3.2010312,-32.8244286,-29.5419846,-72.4809189
2230,-0.9265513,-0.2370248,3.4835455,-34.0152664,-39.9541969,-64.7480927
2240,-0.9624642,0.1221037,3.7229645,-37.2748108,-44.7175560,-59.5190849
2250,-1.2354017,0.4501076,3.6966286,-43.8549614,-43.7328262,-56.2595406
2260,-1.5705882,0.7661406,3.7301471,-56.1068687,-37.0228996,-53.9847336
2270,-2.6599445,0.8643024,4.3239059,-65.8167953,-30.8320618,-50.6183205
2280,-3.5003049,0.8092360,4.7165532,-74.9847336,-31.1603050,-44.4503822
2290,-4.0820932,0.8499373,5.5114241,-82.2748108,-34.6793900,-35.8549614
2300,-4.4603748,0.8595140,6.4499464,-87.6106873,-38.4503822,-24.8091602
2310,-4.4100971,0.7613522,7.4267755,-89.4580154,-40.5572510,-10.9160309
2320,-4.3358769,0.7158626,8.3413563,-88.3053436,-40.7480927,4.5954199
2330,-3.7732425,0.8595140,9.0213060,-86.7404556,-37.0458031,19.9312973
2340,-2.9783716,1.2665262,9.3900108,-85.7557220,-29.6259537,32.8931313
2350,-1.9129574,1.7764885,9.7539282,-86.6793900,-16.8702297,41.1374054
2360,-1.0749911,2.3367288,9.9167328,-90.4122162,-2.0458016,41.7328262
2370,-0.9193687,2.6240315,10.2686787,-95.2671738,8.2442751,34.9771004
2380,-1.5562232,2.1523764,10.7379398,-98.4122162,6.6641221,26.8931293
2390,-2.0973101,1.0773853,12.0451670,-97.0229034,-9.5114508,22.1908398
2400,-2.5282640,-0.0909792,13.5846310,-88.2137375,-35.7633591,23.1755733
2410,-1.9416877,-0.9672526,14.9660778,-76.4045792,-55.3893127,30.6946564
2420,-1.3598996,-1.5250987,16.1751442,-60.2061081,-64.3206100,43.9312973
2430,-0.2920911,-1.8052188,16.2254219,-46.6564903,-59.9847336,62.1297722
2440,1.0342898,-1.7405758,15.9764261,-33.1450386,-50.1832047,79.8778610
2450,3.0094962,-0.9648584,14.8008795,-27.9923668,-36.5496178,92.0152664
2460,5.2313042,-0.3830703,14.0514975,-28.0229015,-18.0839691,99.5954208
2470,7.1370788,0.2657550,13.7354650,-27.7633591,-2.1297710,96.0610657
2480,7.9822278,0.7781116,13.5487185,-24.5496178,3.2595420,90.1374054
2490,8.8920193,1.0486550,13.1033993,-19.0687027,-0.5572519,80.8396912
2500,9.8137827,1.0127422,12.5934362,-11.9923668,-9.9007635,70.2366409
2510,10.8815908,1.4580613,11.6812506,-6.6183205,-18.2213745,57.2900772
2520,11.5519638,1.5993185,11.2646618,-1.2900764,-24.0839691,42.4885483
2530,11.6836443,1.5466464,10.8672256,2.7404580,-25.3740463,26.4580154
2540,11.3747940,1.4748207,10.2184010,4.2213740,-20.0000000,13.2977095
2550,10.6182299,1.1659702,9.6126709,1.7480916,-7.2213740,4.7328243
2560,9.4857788,0.9241571,8.9829988,-2.8702290,8.1145039,1.8167939
2570,8.4036045,0.6560079,8.3389616,-8.7786255,19.1145039,1.9083970
2580,6.8737178,0.3639168,9.0141230,-21.1603050,12.6717558,-0.7480916
2590,5.4395986,0.1412572,9.9095497,-16.2824421,-1.7786260,-8.8396950
2600,4.5417776,0.1819584,10.0172882,-14.1221371,-7.8015265,-11.8854961
2610,3.5434003,0.0957676,10.0723553,-15.0916033,-11.6793890,-13.8473282
2620,2.5019281,0.0095768,10.3740225,-17.7786255,-13.2061071,-12.2366409
2630,1.3982066,-0.0790083,10.8696203,-21.1297703,-13.7175570,-6.8702292
2640,0.6631905,0.0981618,11.7411051,-23.2595425,-13.5801525,1.0305344
2650,0.1364688,0.2992737,12.6149845,-23.8396950,-10.8473282,8.5190840
2660,-0.5913648,0.3447633,13.6444855,-22.6259537,-7.8473282,16.3893127
2670,-1.2066715,0.4261657,14.6452570,-18.4045811,-6.8320613,25.1145039
2680,-1.6184721,0.4213773,15.5646257,-12.1908398,-10.2824430,32.6412201
2690,-2.0230901,0.1604107,16.3547077,-4.0610685,-18.0305347,41.1221390
2700,-2.4133430,-0.1053443,17.2261925,6.4656487,-26.6335869,51.8396950
2710,-2.5641768,-0.1508339,17.7816448,18.6641216,-32.1145020,64.9770966
2720,-2.2912393,-0.0718257,17.8151646,29.2061062,-32.8702278,80.2824402
2730,-1.7262106,-0.2992737,17.7744617,37.8473282,-27.9465656,96.7175598
2740,-0.1484398,-0.8020535,17.8486824,41.0839691,-14.2290077,115.5190811
2750,1.8650736,-1.2234308,18.4759598,42.6488533,7.0687022,127.4274826
2760,3.4260850,-1.6424140,19.1511211,46.0152664,24.8244267,134.7862549
2770,4.6902170,-1.6376256,19.3067436,56.5038185,29.3587780,139.9465637
2780,6.1841912,-2.3271523,19.4743366,73.9160309,23.8473282,142.1908417
2790,7.9606800,-2.6336083,19.4001179,92.6106873,15.3664122,138.7557220
2800,9.5049324,-3.1172347,19.3330803,111.0992355,5.8320613,130.9541931
2810,11.2550850,-3.5314295,19.0960560,132.3511505,-0.0152672,119.3282471
2820,12.5790710,-3.9743545,18.1311970,153.6412201,-3.9923663,104.3740463
2830,13.3739424,-4.1802549,17.0681763,172.3740387,-7.8015265,87.9236679
2840,13.5151997,-4.1946201,15.7417955,191.0534363,-15.4122133,70.5114517
2850,13.6061783,-4.2664456,14.0179796,203.7480927,-23.8473282,51.8320618
2860,13.2111378,-4.4579806,12.4617558,214.2290039,-36.5038185,32.8854980
2870,12.3875360,-4.6495161,11.5016861,226.2290039,-54.6183205,18.1145039
2880,11.9374285,-4.8242917,10.5942879,239.9770966,-72.9083939,7.8931298
2890,11.8129311,-4.4962878,9.2655134,250.1297760,-84.8320618,0.7404580
2900,12.5910425,-4.0653338,7.7356262,250.1297760,-86.0381699,-6.7175574
2910,14.5279417,-2.8514795,5.6000090,250.1297760,-79.4580154,-22.2977104
2920,15.8998117,-2.0159075,2.7700772,250.1297760,-66.5877838,-49.1297722
2930,15.6603928,-1.4293311,0.8451489,233.0915985,-58.8244286,-78.2442780
2940,14.9301653,-1.3072275,-0.5267217,208.0152740,-63.5801544,-104.1374054
2950,14.0730457,-1.2928623,-0.8451489,183.0381622,-79.7862625,-126.2824402
2960,12.9477768,-1.2258250,-0.6607963,159.8549652,-102.3816757,-142.8244324
2970,12.1624823,-1.3982066,0.3806761,144.3816833,-119.8167953,-154.5114441
2980,11.4514084,-1.4604555,0.9816177,135.6564941,-131.2442780,-162.5267181
2990,11.2048063,-1.5011568,1.3335636,130.6870270,-139.3129730,-167.3893127
3000,11.8440552,-1.1659702,1.6065011,126.9694672,-143.5496216,-173.1068726
3010,12.5766773,-0.7469871,1.1539993,124.2442780,-140.2671814,-183.3893127
3020,12.4689388,-0.6823440,0.4764437,119.1450348,-135.0839691,-197.4122162
3030,11.9877062,-0.6464311,-0.0239419,110.1603088,-124.5877838,-208.2900696
3040,11.1018562,-0.7996593,-0.9289455,95.1297684,-105.0229034,-214.9923706
3050,9.8712435,-0.8499373,-1.4125718,73.9236679,-81.0916061,-215.7099304
3060,8.5113440,-1.0438666,-1.5155219,50.8931313,-60.0381660,-212.0763397
3070,7.3310080,-1.1611819,-1.4436963,29.8549614,-41.2595406,-206.1603088
3080,6.1147599,-1.2808913,-1.1707586,13.1145039,-26.0076332,-198.7328186
3090,4.8769641,-1.3072275,-0.7014975,0.8167939,-18.0229015,-188.9084015
3100,3.6774750,-1.2737088,-0.5267217,-6.9312978,-20.5343513,-178.0686951
3110,2.7341642,-0.9289455,-0.8020535,-12.2061071,-31.3511448,-167.2595367
3120,2.0254843,-0.6009415,-1.1947005,-18.5801525,-45.7862587,-159.2290039
3130,1.0366840,-0.2561783,-1.6352314,-27.4732819,-65.4809189,-152.6717529
3140,0.0167593,-0.0239419,-1.7262106,-38.6183205,-87.6488571,-145.6564941
3150,-0.6823440,0.0933734,-1.4460905,-52.4045792,-106.2977066,-135.9770966
3160,-1.3120158,0.0263361,-1.0845678,-65.5648880,-119.9007645,-124.3282471
3170,-1.7453641,0.0670373,-0.6033357,-78.9083939,-131.9618378,-110.2671738
3180,-1.8291607,-0.0143651,0.2873027,-91.1755753,-138.5496216,-96.2671738
3190,-2.1667414,-0.0742199,1.1180865,-98.9770966,-139.0305328,-81.5572510
3200,-2.4324965,-0.0550664,1.7525467,-105.4274826,-135.4274750,-66.1145020
3210,-2.4133430,0.1101327,2.0949159,-111.0457993,-127.5343475,-53.0076332
3220,-2.7605004,0.2082945,1.8004304,-118.6488571,-116.6106873,-41.9541969
3230,-3.0549858,0.2825144,1.1970947,-130.6946564,-108.5190811,-33.0305328
3240,-3.6607156,0.0981618,1.0869620,-148.1145020,-104.2061081,-23.9770985
3250,-4.3765783,-0.3327923,1.8147956,-165.5190887,-107.2213745,-11.9007635
3260,-4.6136031,-0.3902529,3.4500270,-176.1450348,-114.2900772,2.6488550
3270,-4.3550305,-0.5746055,5.4946647,-177.1984711,-117.0610657,19.2977104
3280,-3.9695661,-0.1580165,6.6534524,-174.6335907,-109.0076370,36.6793900
3290,-3.8283088,-0.5195391,7.2017217,-174.1679382,-88.0534363,56.3053436
3300,-3.4236910,-0.2035061,7.5967631,-175.4961853,-58.8015251,75.2366409
3310,-3.0669568,0.0430954,8.0971489,-183.7251892,-26.2366409,93.6488571
3320,-2.5833304,-0.1292862,8.9015961,-188.5419922,-0.9541985,110.7328262
3330,-2.1667414,-0.3710994,9.4355011,-186.6564941,9.2595415,123.0610657
3340,-1.4197544,-0.3902529,10.0484133,-179.6030579,7.1603055,128.8931274
3350,-0.8307837,-0.0359128,10.5057030,-168.7633514,-1.7022901,128.8396912
3360,-0.7014975,0.7781116,10.8672256,-160.1755676,-14.0534353,125.7328262
3370,-0.6488253,1.2330076,11.4633789,-154.0458069,-22.2595425,125.6412201
3380,-0.0311245,1.6065011,12.1912127,-150.7709961,-20.5725193,128.2442780
3390,0.6512195,1.6088953,13.1321287,-148.5038147,-10.5114508,131.2900696
3400,1.1444225,1.4269369,13.7067347,-143.0610657,2.9847329,133.9160309
3410,1.3910241,1.0654143,13.7378588,-140.1984711,18.0000000,135.1755676
3420,1.0318956,1.3000449,13.1632538,-138.7633514,28.2671757,137.3511505
3430,0.7805058,1.5442522,13.5582952,-137.6641235,31.9007626,138.8931274
3440,0.7158626,1.9991482,14.2813396,-137.0381622,25.8854961,138.7328186
3450,0.8930327,1.8650736,15.6101151,-133.3893127,13.1603050,137.5343475
3460,1.5514348,1.4293311,16.8622761,-121.3816757,0.1755725,137.4503784
3470,2.5953014,1.0055596,17.3459034,-105.4885483,-7.4351144,137.1832123
3480,4.1443419,0.7398046,17.3099899,-91.9618301,-4.3740458,135.1603088
3490,4.9511838,0.6847382,16.9724083,-81.2442780,7.7862597,129.8091583
3500,4.6973996,0.5195391,16.5845509,-74.2519073,16.7862587,125.6488571
3510,4.2065907,0.2944853,16.5893383,-69.0076370,19.4427490,124.8244247
3520,4.0868812,0.3256098,16.8479118,-63.9541969,20.2748089,125.3511429
3530,3.9360476,0.0000000,17.3147774,-57.6870232,18.3358784,124.0076370
3540,3.2465210,-0.6799498,17.7002430,-48.9083977,10.1603050,124.2519073
3550,2.8730273,-1.5346755,18.1599274,-36.9694672,-2.7938931,131.0305328
3560,3.3111639,-2.0805507,18.5238438,-23.2213745,-12.5267172,142.5877838
3570,4.5441718,-2.4229198,19.0409889,-7.3664122,-15.4427481,152.2824402
3580,6.1363077,-2.3510940,18.9667683,5.2137403,-11.7328243,155.3358765
3590,7.0820122,-2.3726418,18.7034073,17.4122143,-2.7099237,154.0992432
3600,7.4195933,-2.1835008,17.9085369,27.7557259,6.6870227,147.6564941
3610,6.6773944,-2.3846128,16.6396160,35.3816795,8.7251911,141.2900696
3620,6.0046272,-2.5474176,15.7178535,41.5725174,1.3587786,136.4427490
3630,5.1762376,-2.9161227,15.1743727,47.6106873,-13.6793890,133.2595367
3640,4.9847026,-3.1555417,14.8152447,53.6412201,-28.0610695,135.2519073
3650,5.4779053,-3.2991931,15.0307217,60.4732819,-35.0152664,141.7175598
3660,6.3853035,-3.4428444,15.2246504,66.2595444,-29.7328243,148.0229034
3670,7.2160869,-3.6008608,15.0522690,72.0305328,-14.8854961,153.3893127
3680,7.8074517,-3.5362179,14.4417505,75.7175598,8.6946564,157.8167877
3690,7.9702568,-3.5505829,13.6564569,75.0076370,34.5648842,162.2290039
3700,8.3198080,-3.5673423,13.2255030,76.1297684,48.8320618,164.6030579
3710,8.7699156,-3.4452386,12.5766773,72.3435135,45.3282433,160.0534363
3720,9.5288744,-3.6990228,13.1177645,75.3816757,31.3893127,153.0534363
3730,10.4171181,-3.6056492,13.5367470,85.2366409,14.7328243,142.1145020
3740,11.3987360,-3.5194585,13.7019463,95.9542007,-0.5114504,127.7786255
3750,12.2343082,-3.6678982,13.8312321,106.4045792,-10.7022905,112.0610657
3760,13.2614155,-3.7062054,14.0778341,116.8854980,-16.0763359,93.3664093
3770,14.0371332,-3.7373297,13.9940376,129.3587799,-18.5648861,74.2442780
3780,14.7290535,-3.6942344,13.8408089,141.0992432,-17.8015270,52.7862587
3790,14.9876261,-3.4739690,13.3787308,151.3358765,-13.1450386,28.8854961
3800,14.4465389,-3.4380560,12.6963863,159.8320618,-12.3435116,6.3129773
3810,13.5128050,-3.5074875,12.3588057,169.6335907,-18.9007626,-13.1374044
3820,12.5742826,-3.5769191,11.9972830,181.0229034,-33.0458031,-29.2977104
3830,11.7937775,-3.5529771,11.7171631,193.7786255,-52.9083977,-43.4122124
3840,11.5232334,-3.5793133,11.4873209,207.8473358,-69.6564865,-56.8320618
3850,11.1090393,-3.5769191,10.7546988,221.8931274,-82.4656525,-70.2290039
3860,10.9055328,-3.4548154,9.6821022,232.2442780,-91.5572510,-81.9847336
3870,10.6302013,-3.0717452,8.3102312,237.0229034,-95.7022934,-92.3435135
3880,10.5128860,-2.7365584,7.0987716,235.8931274,-94.1374054,-101.1984711
3890,10.0244713,-2.0566087,6.0572991,230.1908417,-91.3816757,-108.6335907
3900,9.3229742,-1.6400198,5.1068063,222.0229034,-91.6793900,-114.8091583
3910,8.5089493,-1.5538290,4.1754665,212.7022858,-98.4885483,-117.8167953
3920,7.7619624,-1.5466464,3.7277529,203.2290039,-110.6335907,-117.9923630
3930,7.5464849,-1.2210367,3.3087699,196.2061005,-122.8778610,-115.2595444
3940,7.7811155,-0.8690908,2.6096666,188.1679382,-131.1526642,-112.5801544
3950,8.1761570,-0.5243275,1.8004304,177.8244324,-130.3053436,-111.9236679
3960,8.6478119,-0.1771700,0.9241571,162.6870270,-124.6870193,-113.4809189
3970,8.9877872,0.0837966,0.4668669,145.3435059,-120.6564865,-118.3435135
3980,9.3229742,0.5171449,-0.0670373,129.3893127,-118.2519073,-125.8625946
3990,9.2703018,0.7278336,-0.6607963,114.0992355,-116.4656525,-135.1297760
4000,8.8201942,0.8140244,-0.7948709,99.1603088,-117.8931274,-144.4122162
4010,7.9606800,0.8068419,-0.9433106,85.5190811,-121.1068726,-151.9541931
4020,6.7492199,0.4070122,-1.7190280,73.1984711,-128.0686951,-151.6030579
4030,6.2368636,0.4381367,-2.8921809,55.3893127,-134.9313049,-144.8396912
4040,6.3565731,0.7326220,-3.4093258,32.2671738,-136.4274750,-139.9007568
4050,6.3446021,0.9241571,-3.4691806,9.7709923,-135.5572510,-137.9923706
4060,5.8705525,0.8595140,-3.9695661,-9.7099237,-134.0152740,-134.8167877
4070,5.2408805,0.9457048,-4.7021880,-32.9923668,-137.7022858,-131.0992432
4080,5.2696109,0.8188128,-4.6255741,-60.0839691,-135.1908417,-128.8244324
4090,4.9870968,0.6871324,-3.4045374,-83.0992355,-129.8091583,-127.6564865
4100,4.8386569,0.7757174,-1.9105632,-97.1145020,-126.8091583,-126.5877838
4110,4.7309184,0.9576758,-0.7589580,-103.4351120,-118.3969498,-126.5877838
4120,4.3334827,1.2784972,-0.0861908,-105.8244247,-105.1679382,-127.5725174
4130,3.3111639,1.6855093,0.3256098,-106.6259537,-97.4503784,-130.1908417
4140,1.7597293,1.4676381,0.1460456,-106.9236679,-99.0687027,-128.9160309
4150,0.8786675,1.1228749,-0.3830703,-110.1984711,-107.7709961,-122.4885483
4160,0.3471575,0.8810617,-0.6512195,-118.3587799,-120.4656525,-114.6412201
4170,0.4141948,0.6560079,-0.3854645,-130.6106873,-123.3206100,-106.7480927
4180,0.2418131,0.6416427,0.3591284,-146.2290039,-110.4045792,-98.6717529
4190,-0.5578461,0.4405309,1.2641320,-163.7251892,-84.6259537,-89.0534363
4200,-1.9345051,0.2849085,2.5354466,-178.3969421,-55.3969460,-78.9542007
4210,-3.8019729,-0.1508339,3.4859397,-190.7480927,-34.9312973,-66.4351120
4220,-5.7460546,-0.8307837,4.7021880,-201.6259613,-25.2213745,-49.1450386
4230,-7.2639709,-1.5298871,6.0118098,-205.9084015,-29.3893127,-25.2519093
4240,-8.2886839,-1.8985922,7.6877422,-200.8091583,-44.4427490,5.6259542
4250,-8.0444765,-1.7166338,9.3852224,-189.8396912,-60.7404594,39.5572510
4260,-7.2065101,-1.2713146,10.6565371,-174.4427490,-69.8473282,71.5190811
4270,-5.5736732,-0.4405309,11.4178896,-158.7709961,-67.3664093,100.8396912
4280,-2.6982515,0.4884146,11.1928358,-148.5801544,-46.3816795,122.7251892
4290,-0.3064562,1.2593436,10.7475166,-147.5954132,-11.9847326,132.9236603
4300,1.0462608,1.6376256,10.2327662,-153.6030579,23.8244267,134.8854980
4310,1.5610116,1.3670821,10.1537571,-162.2900696,52.2290077,131.7786255
4320,0.7972651,1.2784972,10.4458485,-167.2519073,65.1908417,129.3435059
4330,0.2322364,1.3934183,10.9893293,-167.6183167,58.5190849,129.8091583
4340,0.1101327,1.8339491,11.8225079,-163.4961853,38.7175560,130.9007568
4350,0.7086801,2.0278785,13.0196018,-156.6030579,19.8473282,132.8244324
4360,1.8124014,1.9728121,14.1712074,-148.0152740,10.3358774,136.9541931
4370,2.8323262,1.7477583,15.8040447,-133.1145020,11.4503813,139.3358765
4380,3.3303175,1.8387375,15.8303804,-115.5954208,17.3053436,140.1450348
4390,3.5841017,1.8339491,15.3036594,-103.0992355,25.7938938,141.4045868
4400,4.2161674,1.9105632,14.4680872,-101.9923630,38.1526718,139.4198456
4410,4.2448978,1.6208663,14.4297800,-106.6564865,51.5648842,135.6030579
4420,4.0294209,1.4341195,15.6244802,-108.1145020,54.8854980,133.0992432
4430,4.2903876,1.0821736,17.3650570,-98.7251892,47.1984749,131.3664093
4440,4.8290801,0.7134684,18.4208927,-80.1908417,36.2595406,128.8549652
4450,5.1906028,1.0127422,18.0138817,-59.3282433,25.2595425,122.3282471
4460,5.1355362,0.7996593,16.8814297,-42.3664131,15.5572519,115.1755753
4470,4.6662750,0.3375807,15.8926296,-30.0610695,5.1450381,110.1221390
4480,4.6758518,0.5865764,14.2909164,-24.4274807,-5.3206105,107.7328262
4490,5.7149301,0.3567342,13.9030581,-31.8320618,-5.9541984,106.2290039
4500,6.6390872,0.1053443,15.0235386,-35.4885483,5.5038166,105.2137375
4510,7.2328463,-0.0766141,15.9931860,-31.3435116,19.3969460,104.5801544
4520,7.5536675,-0.0407012,16.1248665,-21.8854961,34.1755714,104.9542007
4530,7.7691450,0.1149211,15.4113979,-11.4809160,48.5801544,104.8473282
4540,7.7284436,0.2801202,13.9653072,-4.3740458,59.9923668,102.7175598
4550,7.6254935,0.5315101,12.4904861,-3.6641221,66.2824402,97.0763321
4560,7.1729918,0.3998296,11.4992924,-4.4045801,63.9389305,90.0687027
4570,6.6821828,0.1939293,11.0970678,-4.0534353,49.2137413,83.1068726
4580,6.8904772,-0.0885850,11.0036945,-0.5648855,28.5267181,76.5801544
4590,8.8776541,-0.3160330,11.6549139,14.9083967,-8.6793890,56.8244286
4600,9.3852224,-0.3447633,11.6477318,23.2290077,-17.7938938,43.9847336
4610,9.3205795,-0.5913648,11.1784706,29.2061062,-22.3282452,32.7633591
4620,8.9111729,-0.4668669,10.9151096,32.9083977,-23.4885502,23.8244267
4630,8.3629036,0.1484398,10.1202393,32.6793900,-21.3969460,17.7099228
4640,6.8641410,-0.1867468,10.1346035,37.9694672,-25.9465656,14.5343513
4650,6.5600791,-0.3902529,10.1776991,34.3893127,-21.9160309,14.8320608
4660,5.5808558,-0.4716553,10.4865494,33.1755714,-14.1908398,16.7786255
4670,4.9080882,-0.8068419,10.7427282,32.0305328,-9.5496187,23.2900772
4680,4.9104824,-1.0582317,11.0013008,30.4045811,-5.1068702,32.0381660
4690,4.8218975,-0.9385223,12.0882626,31.6793900,-1.6030535,41.6488533
4700,5.7292953,-0.1580165,12.2750092,35.3358765,0.0839695,48.3664131
4710,7.2208753,-0.1244979,13.4577389,40.9541969,4.5572519,45.8778610
4720,7.3334022,-0.7948709,14.7146883,43.9236641,6.7862597,44.0228996
4730,7.6901364,-1.3359578,15.8208036,52.7633591,6.7709923,43.6870232
4740,8.7794924,-1.3359578,16.2804890,67.1526718,4.5801525,43.3282433
4750,9.1721401,-2.2265961,17.6451759,86.5267181,0.7175573,43.2137413
4760,10.5823174,-2.5833304,17.5039196,108.8473282,-1.4961832,41.7251892
4770,12.4330254,-2.1643472,16.4456882,129.9389343,3.0534351,35.9923668
4780,13.7091284,-1.5490406,15.0809994,146.3969421,11.9236641,23.0534344
4790,14.1927547,-1.2784972,13.2518387,157.3435059,18.6488552,5.3206105
4800,13.9365768,-1.0893562,11.7602587,163.9236603,24.4809170,-13.6717558
4810,13.3188763,-0.9026094,10.0891142,167.9923706,26.1526718,-31.2748089
4820,12.4066896,-0.6847382,8.5735922,170.2290039,21.0992374,-47.5954208
4830,11.3173332,-0.7374104,7.1131368,168.0839691,13.2824430,-60.2977104
4840,10.3572636,-0.6296718,5.7412663,163.0458069,8.6183205,-67.9083939
4850,9.5025377,-0.5219333,3.8235207,155.7099304,2.2213740,-71.7938919
4860,8.7579451,-0.2825144,1.6663558,141.3664093,-6.4503818,-73.4427490
4870,8.7124557,0.1508339,0.4165890,119.0534363,-12.1832066,-75.7786255
4880,8.6310530,0.3423691,0.3064562,97.1984711,-13.4274807,-80.5954208
4890,8.0516596,0.4620786,0.4453192,79.0610657,-11.4732828,-86.2748108
4900,7.3597383,0.3327923,0.4644727,64.6870193,-9.7786255,-90.6183243
4910,6.6797886,0.1532281,0.4548960,52.6717567,-8.1679392,-92.7099228
4920,5.9495606,0.1053443,0.2513899,42.0305328,-5.4961834,-92.3282471
4930,5.2049680,-0.0047884,-0.1053443,30.8778629,-3.1603053,-90.0076370
4940,4.5441718,0.0407012,-0.7661406,17.9847336,-0.9312977,-86.0457993
4950,3.6319854,0.1939293,-0.9480990,-12.7328243,2.2442749,-78.5419846
4960,2.9711890,0.1268920,-0.6751614,-25.9465656,0.1908397,-73.6488571
4970,2.4995339,0.2035061,-0.4572902,-37.0687027,-4.1450381,-68.9770966
4980,2.3678534,0.3543400,0.0622489,-48.5114517,-7.7938933,-65.4961853
4990,2.1092808,0.3375807,0.7876883,-57.9389305,-8.5648851,-63.5267181
5000,1.7429699,0.3112446,1.4149660,-67.1297684,-6.3358779,-61.8778610
5010,1.0678085,0.4620786,1.9584470,-73.6870193,-6.0839696,-61.4656487
5020,0.4644727,0.5793939,2.8059900,-77.3435135,-11.3053436,-61.8931313
5030,-0.2298422,0.5243275,3.3135581,-78.2442780,-19.6412220,-61.8320618
5040,-0.9888002,0.5219333,3.6104376,-79.2748108,-31.3511448,-59.5038185
5050,-1.6376256,0.7134684,3.6726866,-83.9007645,-40.4580154,-55.1832047
5060,-2.0685797,0.8475431,4.6064205,-90.6717529,-44.0000000,-50.1603050
5070,-2.7269819,1.0031654,5.4491754,-96.4274826,-42.5419846,-42.9007645
5080,-3.3351059,0.9768293,6.2655940,-102.1450348,-38.1755714,-32.2748108
5090,-3.8594334,0.7972651,7.2400289,-106.2671738,-31.4961834,-19.3358784
5100,-3.7612717,0.8571198,8.0612354,-109.3282471,-23.7251911,-4.6564884
5110,-3.7971845,0.9576758,9.0739784,-110.3206100,-14.2519083,11.3969469
5120,-3.8211265,1.0462608,9.8736372,-109.7938919,-6.3206105,26.3969460
5130,-3.3398943,1.1659702,10.3405046,-108.3740463,-0.6335878,37.9007645
5140,-2.8371146,1.2832855,10.5966825,-105.5648880,0.6183206,46.1755714
5150,-2.3056045,1.4556671,10.8911676,-102.5190811,-2.6488550,49.0000000
5160,-1.8650736,1.2593436,11.2814207,-98.2213745,-9.7480917,48.6488533
5170,-1.8387375,1.0366840,11.5399933,-95.0381699,-18.9236641,48.1526718
5180,-2.0685797,0.8188128,12.2390966,-91.4198456,-29.3358784,51.3358765
5190,-1.4077834,0.5003856,12.7490587,-85.7709961,-36.5725174,59.0763359
5200,-0.8427547,0.4333483,13.4361916,-79.3358765,-36.1832047,67.5038147
5210,-0.0909792,0.5530578,14.0371332,-72.9312973,-27.5648861,75.0916061
5220,0.3495516,0.5530578,14.3268299,-67.1679382,-14.9236641,79.3893127
5230,0.4908088,0.8738791,14.3938665,-62.9541969,-3.8015268,80.9923630
5240,0.6129125,0.1987177,13.9078465,-59.9083977,3.2824428,80.7786255
5250,0.2178712,0.0287303,13.9820662,-57.1603050,0.0076336,84.2213745
5260,-0.1221037,-0.2298422,15.0474806,-52.6106873,-8.0687027,92.3129807
5270,0.3543400,-0.4333483,16.0099449,-44.1832047,-16.8396950,99.0000000
5280,1.5634058,-0.4046180,16.7162304,-32.5648842,-21.0534344,107.8854980
5290,2.5234756,-0.3639168,17.2692890,-21.5114498,-17.5954189,116.1832047
5300,3.8354914,-0.5793939,17.5278606,-11.3053436,-9.6564884,121.9694672
5310,5.0493455,-0.1675933,17.4296989,-4.8320613,4.9847326,124.9236679
5320,6.0142040,-0.6416427,18.6866493,2.8473282,14.5419846,127.1221390
5330,7.7835097,-0.6248835,19.6126022,18.8091602,25.4274807,124.9007645
5340,8.8704720,-0.8212070,19.6126022,43.0992355,26.4503822,117.7709961
5350,10.0436249,-0.7996593,19.5389805,69.5496216,12.3129768,106.6717529
5360,11.0204544,-0.7972651,17.7744617,93.5648880,-13.5419846,92.8167953
5370,12.0068598,-0.5865764,16.3714676,108.5648880,-35.7022896,75.1145020
5380,13.1345234,-0.1101327,15.0355101,116.0000000,-42.4809151,56.2137413
5390,13.6923695,0.0215477,14.3316183,116.6488571,-37.4198456,36.6946564
5400,14.2023315,0.1747758,13.6827927,114.1679382,-20.0152664,17.4122143
5410,14.0443153,0.1795642,13.0507269,111.3969498,0.5038168,-0.1450382
5420,13.3092995,0.2609667,12.5168228,109.1068726,19.1374054,-14.2900763
5430,11.8344784,-0.4285599,12.3133163,111.3282471,30.2671757,-23.8015270
5440,10.7331514,-0.7948709,11.2335367,114.9312973,34.0687027,-27.8320618
5450,9.7850523,-1.0175306,10.0412302,116.5648880,29.2900772,-28.0381680
5460,9.8592720,-0.8379663,8.8441362,113.8015289,22.1908398,-27.9618320
5470,9.9358864,-0.6751614,8.5424681,113.1603088,17.0534344,-30.8015270
5480,9.9119444,-0.5267217,7.9870162,113.0839691,12.3282442,-35.6488533
5490,10.0627785,-0.3974355,6.8880830,110.2671738,9.5801525,-41.5725174
5500,10.1034794,-0.0071826,5.6718349,103.8702316,9.5190840,-49.2519073
5510,9.9741936,0.1221037,4.8171091,93.4274826,12.2442751,-56.8091621
5520,9.2631187,0.0502780,4.7285242,83.3206100,16.8854961,-62.0152664
5530,8.6286592,-0.0023942,4.5465660,75.9236679,20.4198475,-64.0000000
5540,7.8122401,0.0143651,4.3502421,70.8473282,19.1450386,-63.2290077
5550,7.3956513,0.1819584,3.7995787,66.4961853,15.0305347,-61.8091621
5560,6.4379754,0.6440369,2.8873925,56.3282433,-2.1908398,-58.4580154
5570,6.5121951,0.8427547,2.6814921,48.7099228,-9.4809160,-57.5954208
5580,6.4307928,0.9241571,2.8275378,41.1603050,-13.6717558,-57.7251892
5590,6.4595232,1.1970947,2.8634505,35.2748108,-15.3893127,-58.4274826
5600,6.3110833,1.1516051,2.7509236,28.7786255,-15.9618320,-59.7022896
5610,6.1315193,1.2354017,2.5115047,20.9847336,-16.7709923,-62.4122124
5620,5.9543490,1.3575054,2.5450234,12.9160309,-16.6946564,-65.8091583
5630,5.4970589,1.4484847,2.7006457,6.5267177,-16.7099228,-69.0992355
5640,4.9104824,1.5322813,2.5857246,0.5114504,-18.1145039,-71.1755753
5650,4.4675574,1.5753766,2.4588325,-5.4427481,-19.1908398,-71.7404556
5660,4.1563129,1.6855093,2.3343346,-13.2061071,-17.7862587,-72.2671738
5670,3.5026991,1.8124014,2.2912393,-22.0152664,-15.1832066,-72.7251892
5680,2.9185169,1.9177457,2.3654592,-30.7175579,-10.8396950,-71.3435135
5690,2.3319404,2.0302727,2.3965836,-40.3969460,-5.6946564,-69.1526718
5700,1.8674678,2.1835008,2.6288199,-49.6946564,-1.5114504,-66.8625946
5710,1.3048333,2.1619530,2.7652888,-55.9923668,-0.8778626,-64.0992355
5720,0.9169745,2.0398495,2.6240315,-60.6412201,-4.5648856,-61.8625946
5730,0.7326220,1.8483143,2.2864509,-65.5877838,-13.9694653,-60.7175560
5740,0.7398046,1.4580613,2.2265961,-73.1374054,-23.4427490,-61.9160309
5750,0.6584021,1.1899122,2.4971397,-82.6946564,-30.6335869,-64.7480927
5760,0.2681492,0.8212070,2.7844424,-93.6106873,-34.9236641,-66.6641235
5770,-0.3902529,0.4788379,3.3662305,-104.4580154,-37.0381660,-66.6259537
5780,-1.0055596,0.1771700,4.4484038,-114.2061081,-38.8473282,-63.9847336
5790,-1.9895715,-0.1628049,5.6574697,-120.2900772,-40.5496178,-58.5648842
5800,-3.2321558,-0.9050036,6.8785062,-121.5648880,-44.0152664,-48.2519073
5810,-4.2113791,-1.7693061,7.9032192,-119.8396912,-50.2290077,-32.5496178
5820,-4.6016321,-1.9225341,8.4610653,-115.5572510,-54.7633591,-13.0076332
5830,-4.6854286,-1.8004304,8.9351149,-114.6870193,-52.3816795,7.0076337
5840,-4.2281384,-1.4077834,9.1362267,-118.4427490,-39.2137413,24.0458012
5850,-4.0916696,-0.8331779,9.2559366,-125.9007645,-24.5038166,36.7480927
5860,-4.3478479,-0.8116302,9.9310980,-131.7786255,-15.3053436,46.3587799
5870,-4.4795284,-0.7398046,10.6541433,-135.2748108,-12.2442751,55.2748108
5880,-4.3909435,-1.0438666,11.2143831,-137.4961853,-12.9770994,64.8549652
5890,-3.9695661,-0.9959828,12.1648769,-139.2061005,-15.5114508,73.2290039
5900,-3.8091555,-0.9169745,13.7689838,-138.5572510,-18.5725193,78.7251892
5910,-3.5553713,-1.0247130,15.0331154,-134.4732819,-22.3893127,83.4885483
5920,-3.6918402,-1.1659702,16.2661228,-126.6106873,-30.4885502,89.0992355
5930,-3.7852135,-1.4389079,17.8965664,-113.8549652,-42.8931313,97.3969498
5940,-3.0094962,-1.9081690,19.2516766,-98.3053436,-55.2977104,110.9542007
5950,-1.4939742,-2.0925217,19.6126022,-77.8167953,-60.1297722,122.3358765
5960,0.0023942,-1.9871773,19.6126022,-53.8320618,-57.8244286,131.6946564
5970,0.2466015,-2.5019281,19.6126022,-33.7099228,-49.5267181,140.4274750
5980,1.4628497,-2.3295465,19.6126022,-19.1374054,-41.8473282,147.6259613
5990,2.2577207,-1.9895715,19.0242290,-8.3816795,-36.9236641,153.5648804
6000,2.7461352,-2.4731977,18.8566360,-1.7404580,-35.5419846,160.4656525
6010,3.8857694,-2.2672975,18.8279057,4.1832061,-31.7709923,166.6793823
6020,5.1235652,-2.6814921,19.4384251,9.5419846,-26.2290077,168.9694672
6030,6.3853035,-2.5665710,19.6108055,15.4351149,-20.0152664,168.2595367
6040,7.3525558,-3.1699069,19.6126022,25.1832066,-14.0534353,167.1297760
6050,8.9111729,-3.4907281,19.6126022,38.0305328,-6.1679387,164.4045868
6060,10.2806492,-3.8259149,19.6126022,54.3435097,3.0229008,157.8396912
6070,11.4250717,-4.1515245,19.6126022,72.7938919,13.7022905,147.7786255
6080,12.3013458,-4.0509686,19.6126022,89.7709961,23.1908398,133.9618378
6090,13.1512823,-4.0485744,19.6126022,104.4198456,28.4045811,117.4427490
6100,12.8687687,-4.8482337,19.6126022,124.4045792,26.1374054,100.4580154
6110,12.8687687,-5.2600341,19.1152077,142.9923706,21.9312973,84.9007645
6120,12.6101961,-5.6885943,18.0450058,160.9847260,15.9389315,71.0152664
6130,12.0475616,-5.9806852,16.9053726,176.7709961,5.5725193,59.5954208
6140,12.0619268,-5.9854736,15.6172981,189.8702240,-4.3664122,50.1984749
6150,12.3540173,-6.2847471,14.8798876,203.2519073,-12.9007635,40.1450386
6160,12.8472204,-5.8944945,13.4625273,212.8854980,-18.6717548,27.9923668
6170,13.1345234,-5.6933827,12.3061342,218.8625946,-24.9007626,14.4122133
6180,13.3643656,-5.5593081,11.3316984,226.0458069,-30.2748089,0.0229008
6190,13.2662039,-5.3605900,10.5104914,234.6793823,-39.4809151,-15.0839691
6200,13.3619709,-5.0445571,9.4019823,242.7786255,-52.2213745,-29.6641216
6210,14.1281118,-4.4771342,8.2431946,250.1297760,-62.3893127,-45.4580154
6220,15.1528254,-3.7564833,6.4906478,250.1297760,-62.6793900,-63.8396950
6230,15.7657375,-3.3949606,4.5226240,248.6641235,-52.9312973,-83.0687027
6240,15.7968616,-3.0406206,2.5210814,234.3206177,-38.3511467,-99.1450348
6250,15.7848911,-2.6431851,0.5674229,211.7557220,-22.4885502,-112.2900772
6260,15.6053267,-2.4492557,-0.8666966,184.1755676,-3.9389312,-124.9923630
6270,14.9493189,-2.2816625,-1.6184721,156.9084015,9.5114508,-138.0763397
6280,13.5175934,-2.2912393,-1.8626794,135.9923706,10.1679392,-151.2213745
6290,12.4880924,-2.3870070,-1.9895715,122.1374054,-0.0610687,-162.3893127
6300,11.2024126,-2.4420733,-1.8578910,111.3129807,-15.8702288,-171.7022858
6310,10.2495251,-2.4636209,-1.6424140,107.2137375,-34.1297722,-180.2824402
6320,9.3947992,-2.2888451,-1.8243724,106.8854980,-53.8549614,-187.9007568
6330,8.4802189,-2.1619530,-2.7150109,102.8549652,-71.0305328,-194.5572510
6340,7.7164726,-1.8219782,-3.7157819,95.9847336,-85.0381699,-199.7862549
6350,6.7468257,-1.4676381,-4.7404952,82.9389343,-94.3816757,-205.0839691
6360,5.4731169,-1.2665262,-5.7628140,63.4274826,-103.0000000,-208.5648804
6370,4.2544746,-1.1037214,-6.2751703,37.6259537,-108.9542007,-209.2213745
6380,3.0861101,-1.1252691,-6.2464404,8.4580154,-111.7709961,-207.7099304
6390,1.6615674,-1.3072275,-5.3318601,-20.4961834,-112.8702316,-202.3816833
6400,0.4333483,-1.3958124,-4.4531922,-45.4885483,-110.0992355,-192.0686951
6410,-0.8690908,-1.7693061,-3.7588775,-70.6106873,-104.2595444,-176.0534363
6420,-2.2912393,-1.7262106,-2.9256995,-95.3893127,-96.2519073,-155.6335907
6430,-3.0525916,-1.5370697,-1.5610116,-119.7938919,-87.4961853,-133.0839691
6440,-3.5529771,-1.6974803,0.1005560,-139.9770966,-77.1679382,-111.5267181
6450,-4.4005203,-1.7980363,1.7788827,-152.6259613,-70.1679382,-90.1526718
6460,-4.9535780,-2.0183017,2.8323262,-159.2671814,-71.4580154,-69.6259537
6470,-5.0780759,-2.0733681,4.0437860,-161.3969421,-80.5954208,-52.7251892
6480,-5.1690550,-2.0925217,4.9918852,-158.1221313,-93.5267181,-39.2290077
6490,-4.9607606,-1.8602852,5.6646523,-152.1984711,-108.4045792,-28.3664131
6500,-4.4795284,-1.4317253,6.0333576,-149.0229034,-117.6488571,-21.2442741
6510,-4.0437860,-0.9050036,6.7683735,-149.8091583,-113.0076370,-17.9923668
6520,-4.2425036,-0.6823440,7.6709828,-149.9618378,-100.9465637,-15.1145039
6530,-4.4723458,-0.9337339,8.1258793,-149.7022858,-89.4045792,-11.2290077
6540,-5.3821378,-1.6950861,8.6071110,-147.3206177,-86.5419846,-1.9236641
6550,-5.8298512,-2.0350611,8.7603388,-144.4732819,-92.4351120,14.2290077
6560,-5.1786318,-2.1763182,9.4259243,-141.9541931,-93.1832047,34.9389305
6570,-4.3909435,-1.9752063,10.3907824,-139.2213745,-80.8702316,56.7557259
6580,-3.6032550,-0.9983770,11.3125448,-134.8320618,-61.2671738,78.7022934
6590,-1.9632354,-0.1244979,11.5591469,-131.6259613,-35.4351158,95.7709961
6600,-0.0430954,0.8355721,11.6908274,-131.8702240,-2.9694657,102.1297684
6610,1.1156923,1.5107336,11.0420017,-138.4961853,31.4809170,99.4045792
6620,1.2521610,1.4676381,10.7499104,-150.5114441,57.0458031,88.7938919
6630,0.7110743,0.4716553,12.0116482,-156.2290039,69.1221390,78.9618301
6640,-0.4453192,0.1939293,12.7945480,-151.3282471,66.1908417,71.1068726
6650,-1.4365137,0.6655847,12.8065195,-151.4122162,55.8091621,70.5648880
6660,-2.3870070,0.5123565,14.2143030,-152.6488495,47.1832047,77.5114517
6670,-2.6958573,0.5913648,15.8255920,-147.9389343,42.2213745,86.9847336
6680,-2.9735832,0.4860204,17.3913918,-137.1526642,35.4809151,96.9618301
6690,-2.6024840,-0.1939293,18.1359844,-120.9694672,29.3358784,107.8244247
6700,-2.9687948,-0.9576758,18.5765152,-106.7328262,21.1984730,120.0457993
6710,-2.7413468,-0.9097920,19.1487274,-94.0992355,7.1984735,135.8702240
6720,-1.7740943,-1.6759326,19.6126022,-73.1297684,-8.2366409,153.6870270
6730,-0.5171449,-1.2569494,19.6126022,-50.7404594,-18.7938938,167.7862549
6740,0.9385223,-1.2306134,19.6126022,-35.2671738,-19.3893127,178.2061005
6750,2.0949159,-0.9361281,19.6126022,-22.9083977,-12.4427481,183.6183167
6760,2.6886747,-0.3687052,19.6126022,-13.3206110,-4.6259542,183.8625946
6770,2.8035958,-0.0383070,19.0769024,-8.5954199,3.7480917,179.0610657
6780,2.4205256,0.0000000,18.5334206,-6.9770994,6.5343513,173.3511505
6790,2.2313845,-0.2418131,18.3035774,-5.4351144,4.0458016,169.0610657
6800,2.3750360,-0.8499373,18.3035774,-0.6717557,-3.4961832,163.4503784
6810,1.8674678,-1.4149660,18.4041348,7.9618320,-18.1145039,158.9770966
6820,1.8938038,-1.8674678,18.6986198,19.6259537,-33.0458031,159.8396912
6830,2.2888451,-1.6783268,18.8015690,34.0000000,-42.6183205,161.8931274
6840,2.6671271,-1.7286048,18.5358143,43.2519073,-39.8702278,167.5725250
6850,3.9791429,-1.6831152,18.6579189,47.1297722,-20.5419846,176.0305328
6860,5.4874821,-1.4796091,19.0050755,49.0839691,9.0458012,178.9465637
6870,6.2368636,-1.6711442,18.9715576,51.2137413,37.4198456,177.6335907
6880,6.6821828,-1.9129574,19.2157650,56.8931313,55.8931313,172.6870270
6890,6.7085190,-2.4396791,18.9595871,66.5267181,57.7175560,163.2671814
6900,6.3685441,-3.3758070,19.0888729,81.0000000,38.3053436,152.2213745
6910,6.2009506,-4.3191175,19.4767303,105.9542007,2.2366412,142.2290039
6920,6.7372489,-5.0158267,19.5461636,137.0610657,-41.2519073,132.6106873
6930,7.3884687,-5.3174949,18.6028519,168.2824402,-75.2900772,122.4656525
6940,8.5424681,-5.5425487,17.2668934,192.6412201,-96.2671738,113.6183243
6950,10.6182299,-5.4970589,16.4265347,208.9160309,-102.7022934,103.2519073
6960,12.5862541,-5.0708933,15.2797174,221.9007568,-93.0229034,87.2290039
6970,13.8767223,-4.8051381,14.1640244,227.1221313,-79.3511429,68.3358765
6980,14.1783895,-4.9583664,13.5128050,231.2824402,-68.8854980,46.9160309
6990,13.9677010,-5.0062504,12.7131462,236.1374054,-67.8778610,25.7328243
7000,13.6636391,-5.1115947,11.7794123,241.4198456,-76.2442780,6.3893127
7010,13.7234936,-5.2193332,10.9246864,247.6564941,-90.1374054,-11.6259546
7020,13.8647509,-5.0876527,10.0579901,250.1297760,-103.5038147,-30.1603050
7030,13.9078465,-4.8195033,9.2870607,250.1297760,-114.3358765,-49.2595406
7040,13.6444855,-4.6758518,8.2431946,250.1297760,-122.0916061,-67.1450348
7050,13.2302914,-4.5345950,6.7204900,250.1297760,-126.3282471,-82.5419846
7060,12.6341381,-3.9887197,4.9775200,250.1297760,-130.1603088,-94.4351120
7070,12.1481171,-3.5601597,3.0166788,250.1297760,-135.4656525,-104.8549652
7080,12.0116482,-3.1315999,1.7262106,240.2442780,-142.2442780,-114.5648880
7090,12.4713326,-2.3439114,0.5746055,221.0458069,-140.6641235,-124.5572510
7100,12.9429884,-1.8578910,-0.8020535,196.2442780,-124.0992355,-135.7557220
7110,12.8280668,-1.6280488,-1.7046629,166.2137451,-99.2519073,-145.8167877
7120,11.9733410,-1.4149660,-2.1164634,134.8091583,-79.6259537,-153.8931274
7130,11.1808643,-1.3000449,-1.6400198,106.3206100,-67.0610657,-159.4656525
7140,10.6038647,-1.4317253,-1.1132981,86.8473282,-63.4274826,-164.0686951
7150,10.2447367,-1.2808913,-0.7565638,74.6335907,-68.4885483,-170.0152740
7160,9.6078825,-1.0271072,-0.4884146,66.4503784,-79.4580154,-177.7099304
7170,8.9446917,-1.0702027,-0.3519458,62.2671738,-93.8091583,-185.9770966
7180,8.1546097,-0.9145803,-0.1987177,60.0228996,-110.8778610,-193.7480927
7190,7.1705976,-0.9361281,-0.4596844,58.0152664,-125.6259537,-200.4427490
7200,6.0716643,-0.9576758,-0.9265513,53.2366409,-134.3740387,-203.4274750
7210,5.0661049,-0.9624642,-1.6304430,43.2213745,-133.8854980,-201.7022858
7220,3.8115497,-0.9097920,-2.3486998,27.6106873,-126.6946564,-195.3206177
7230,2.4205256,-0.8379663,-2.9592183,7.9160304,-117.1679382,-183.9313049
7240,0.9720409,-0.8283895,-3.6271970,-14.3282442,-108.7175598,-167.4351196
7250,-0.0957676,-0.5243275,-4.0749106,-38.9236641,-102.2137375,-147.6946564
7260,-0.9265513,-0.1244979,-3.9599893,-62.9312973,-97.7251892,-127.6183243
7270,-1.4532729,0.1364688,-3.4667864,-85.3969498,-91.9236679,-107.8778610
7280,-1.9225341,0.5506636,-2.7916248,-103.9083939,-90.8625946,-90.0457993
7290,-2.0111191,0.8810617,-1.8459201,-118.6870193,-95.8244247,-75.2519073
7300,-1.9081690,0.8427547,-0.9504932,-130.6412201,-100.2748108,-62.5190849
7310,-1.7405758,0.7469871,-0.1963235,-140.3969421,-100.9542007,-51.3358765
7320,-1.9488702,0.7829000,0.4213773,-146.8931274,-101.6488571,-41.3969460
7330,-2.2170193,0.9911944,0.6488253,-153.0610657,-107.2213745,-31.9923668
7340,-2.3295465,1.1156923,1.0247130,-160.1526642,-112.2519073,-26.5572510
7350,-2.9424589,1.0318956,1.7693061,-168.2061005,-116.8167953,-23.1374054
7360,-3.7133877,0.7565638,2.7724714,-174.2977142,-122.5190811,-16.3893127
7370,-5.0541339,-0.1029501,3.8019729,-175.6488495,-127.8091583,-3.0534351
7380,-6.6558466,-0.7781116,4.3574247,-176.1297760,-139.6870270,19.4427490
7390,-7.4483232,-1.1037214,5.1092005,-179.6488495,-149.9313049,48.8167953
7400,-7.4435349,-1.3910241,5.9758968,-186.4427490,-150.9465637,81.7709961
7410,-6.8449879,-1.6879035,7.4267755,-191.7175598,-144.1679382,114.8167953
7420,-6.0237808,-1.8914096,9.0548248,-192.9007568,-136.2366486,146.0610657
7430,-4.4891052,-1.8554969,10.9366570,-185.5267181,-124.2137375,174.6259613
7440,-2.8275378,-1.7286048,12.3324699,-172.2595367,-104.3129807,199.0381622
7450,-0.8188128,-0.9457048,12.9525652,-157.4503784,-76.7404556,217.6488495
7460,1.8483143,0.3423691,13.1608591,-147.6259613,-42.0687027,225.7938995
7470,4.2927818,1.6567791,13.1464939,-145.7938995,-0.8320611,219.4656525
7480,5.3821378,2.8682389,13.2015610,-148.9160309,35.4045792,203.1832123
7490,5.9423780,3.6032550,13.5654774,-153.6335907,60.8167953,182.3893127
7500,6.0165982,3.9935081,13.8551741,-157.5954132,72.7480927,159.8854980
7510,5.5617023,3.8690102,14.9158001,-154.7557220,71.5114517,139.1832123
7520,4.9679432,3.8426740,15.2509871,-148.2748108,60.5877876,120.5572510
7530,4.6782460,3.7540891,15.5335016,-141.8549652,49.2519073,104.3664093
7540,3.7181761,3.6655040,15.9357252,-134.6870270,31.0458012,92.1221390
7550,2.8131726,2.8945751,16.8934002,-123.9465637,10.0152674,88.3129807
7560,2.8107784,2.2744799,18.0090923,-107.7022934,-4.9236641,91.1908417
7570,3.1459649,2.3463056,18.5310268,-94.0534363,-11.0839691,94.5038147
7580,3.4955165,1.6950861,19.5629215,-78.0305328,-8.3435116,95.7633591
7590,3.4572096,1.3934183,19.6126022,-57.2671738,-4.0763359,100.0457993
7600,3.3734128,0.9050036,19.6126022,-39.4580154,-0.9083970,105.0992355
7610,3.3925664,0.2130829,19.6126022,-17.0229015,-1.6183206,113.2671738
7620,3.7133877,0.2609667,19.1966114,-0.8396947,-5.0610685,120.9236679
7630,4.0581512,0.0383070,18.7369270,13.4198475,-7.4809160,125.6946564
7640,4.4819226,-0.1819584,18.0737362,26.7557259,-7.3511453,132.8015289
7650,4.9679432,-0.2346306,16.9795914,36.9389305,-6.4503818,138.6488495
7660,5.5736732,-0.2705434,16.2709122,43.3740463,-7.0000000,141.2137451
7670,6.0860295,-0.4884146,15.9692440,50.8396950,-8.5801525,142.3740387
7680,6.5457139,-0.7493813,15.6460285,60.7786255,-11.3969469,143.1374054
7690,7.2376347,-1.0462608,15.1839495,70.1603088,-13.0229006,144.0229034
7700,8.4083929,-1.0678085,14.8942528,76.9083939,-9.4580154,142.2290039
7710,9.3947992,-1.0342898,14.4800577,83.2061081,-0.2442748,136.5190887
7720,10.0077124,-0.6631905,13.8384151,86.1068726,12.3969469,129.5572510
7730,10.5487986,-0.4357425,13.4002781,85.9847336,27.4351139,122.6106873
7740,11.0850973,-0.2059003,12.9645357,82.9770966,42.9160309,114.7022934
7750,11.1569233,-0.5865764,13.4026728,81.4122162,52.5343513,105.4580154
7760,11.2766323,-0.3495516,13.0267849,79.3206100,55.6641235,98.6793900
7770,11.9901009,-0.8307837,13.2566271,80.0152664,51.7480927,91.9847336
7780,12.9022865,-1.2282192,13.6612453,84.1221390,42.7709923,78.9542007
7790,13.4649220,-1.8602852,14.0969877,94.2366409,30.2366409,63.0152664
7800,13.9006643,-2.5043221,14.3483772,108.6488571,17.9847336,46.5496178
7810,14.4872408,-2.5617826,14.2071199,124.0457993,12.0687027,31.2213745
7820,15.0690289,-2.4085546,13.7210999,135.0992432,11.2442751,15.9007635
7830,15.4592810,-2.5115047,13.0986109,143.9160309,15.5954199,-0.8549618
7840,15.0091734,-2.9041519,12.3612003,153.1679382,18.7938938,-16.4045811
7850,14.2933111,-3.1818779,11.5088692,160.0458069,18.2366409,-25.8931293
7860,13.8599625,-3.3207407,10.7355452,165.2442780,15.4427481,-32.6335869
7870,13.4792862,-3.3805954,9.9358864,168.5419922,11.1984730,-38.2137413
7880,13.3045111,-3.3805954,9.3564920,170.8244324,4.8320613,-42.9618340
7890,12.9765072,-3.2010312,8.8896255,173.9389343,-4.2671757,-47.9083977
7900,12.9046812,-2.4660151,8.3724804,176.8549652,-14.3435116,-51.2595406
7910,13.3835192,-1.9392935,8.3940287,181.3893127,-23.4503822,-57.3511467
7920,13.5989962,-1.6902977,8.3988171,189.8396912,-30.2977104,-68.5877838
7930,13.5175934,-1.6950861,7.7811155,199.8625946,-38.3893127,-82.1297684
7940,12.8256731,-1.8363433,6.7923155,208.5954132,-48.8473282,-94.0305328
7950,11.9637651,-1.8650736,5.4826937,214.2137451,-63.2900772,-102.5725174
7960,11.3293047,-1.5131277,4.0102673,215.3816833,-80.9542007,-107.9618301
7970,10.9605989,-1.0486550,2.4708035,209.6106873,-95.6488571,-111.3206100
7980,10.5703468,-0.6344602,1.3000449,197.8625946,-105.1603088,-112.3893127
7990,10.4937325,-0.0502780,0.1364688,180.2900696,-103.0457993,-112.8778610
8000,10.3333216,0.3663110,-0.5267217,160.0915985,-97.0839691,-115.7022934
8010,10.1800938,0.7326220,-0.9888002,137.5954132,-89.2290039,-122.2442780
8020,9.6246414,0.6224893,-0.9888002,117.1221390,-86.0687027,-131.3816833
8030,8.9494801,0.5003856,-0.7589580,103.5343475,-89.9083939,-139.8931274
8040,8.2048874,0.3423691,-0.4548960,89.3511429,-98.9618301,-145.4809113
8050,7.6015515,0.1532281,-0.7110743,80.2595444,-111.0305328,-150.9694672
8060,6.9886389,-0.0742199,-0.9888002,70.4961853,-123.4885483,-156.1755676
8070,6.3469963,-0.1771700,-1.5250987,57.7633591,-131.8167877,-159.0152740
8080,5.7292953,-0.2537841,-2.2625091,38.1526718,-127.8396912,-158.7709961
8090,5.0852585,-0.3447633,-2.6934631,11.9618320,-113.2824402,-156.2519073
8100,4.1730723,-0.4309541,-2.7245877,-17.2290077,-92.7251892,-152.6870270
8110,3.1435707,-0.6105183,-2.4995339,-45.3206100,-73.0229034,-146.8320618
8120,2.1619530,-0.9169745,-2.5234756,-72.2671738,-53.6030540,-138.3053436
8130,0.9073978,-1.0295014,-2.6000898,-97.5725174,-35.5648842,-127.5725174
8140,-0.5267217,-1.3455344,-2.6790979,-121.6412201,-27.9923668,-113.9770966
8150,-1.5969244,-1.2377959,-2.3558824,-144.1832123,-36.1832047,-99.6488571
8160,-2.2984219,-1.1061156,-1.1923064,-160.2442780,-54.5267181,-84.9160309
8170,-2.5522060,-0.8212070,-0.0550664,-168.2748108,-76.0152664,-69.1450348
8180,-2.1092808,-0.3926471,0.8379663,-171.8931274,-94.1297684,-56.1297722
8190,-1.4676381,-0.1077385,1.6304430,-175.0381622,-103.0457993,-47.4503822
8200,-1.2545552,0.0071826,2.1858950,-179.5572510,-104.4503784,-43.3435097
8210,-1.4700323,0.2513899,3.0023136,-184.8778687,-96.3587799,-41.4122124
8220,-2.2864509,0.4453192,4.1850433,-189.6183167,-85.9770966,-38.5725174
8230,-2.9472473,0.8858501,5.8633699,-190.4198456,-76.6335907,-33.0458031
8240,-3.8426740,1.2377959,7.5273318,-184.3587799,-60.4809151,-25.1832066
8250,-4.9224534,1.2976507,8.4874020,-173.0992432,-42.7786255,-12.0839691
8260,-5.8897061,1.1252691,8.7411861,-160.9923706,-29.5496178,9.2748089
8270,-6.6678176,0.9026094,8.3676920,-153.6412201,-14.2442751,39.9771004
8280,-6.7252784,0.6679789,7.8122401,-154.9389343,7.2061067,76.9236679
8290,-6.1602492,0.7278336,8.0995426,-161.8396912,27.2824421,115.8549652
8300,-5.0325861,1.0055596,8.5137377,-170.2595367,46.3587799,150.3511505
8310,-3.3638363,1.1180865,8.9925756,-178.2213745,63.5648842,175.3587799
8320,-1.5825592,1.4556671,9.3660688,-186.0686951,77.0152664,188.9084015
8330,0.3687052,2.0470319,9.4211359,-197.4274750,86.1832047,189.7404633
8340,1.5801650,2.1260402,10.5655584,-207.0229034,90.9542007,179.9313049
8350,2.2816625,2.4205256,11.9853125,-206.4274750,86.8931274,161.5343475
8360,2.0087249,2.4013720,12.8591919,-200.3053436,66.9007645,141.2290039
8370,1.9345051,2.0063307,13.8384151,-192.5267181,35.8549614,127.7938919
8380,2.5953014,1.7740943,15.3108416,-180.0839691,4.0916033,120.6412201
8390,3.7828193,1.8507085,16.5199070,-162.6870270,-20.3740463,113.7022934
8400,4.9847026,2.0590029,17.3602676,-143.4427490,-34.6106873,101.5343475
8410,5.5305777,2.2385671,17.7529144,-126.1679382,-36.3511467,86.1755753
8420,5.2863703,2.4396791,17.6475697,-111.8320618,-28.1297703,69.1526718
8430,4.0509686,2.3654592,17.1687317,-100.2824402,-19.2213745,54.5419846
8440,2.5210814,1.8866212,16.5079365,-91.1908417,-13.6412210,46.2061081
8450,0.8451489,1.0845678,15.6436338,-85.9083939,-15.0534353,46.1297722
8460,-0.5386927,0.1987177,15.4544926,-79.4503784,-26.7709923,52.7175560
8470,-1.3096216,-0.8403605,15.9692440,-70.8549652,-45.1374054,69.2900772
8480,-1.0702027,-1.6088953,16.9388905,-60.1450386,-58.4580154,92.7404556
8490,0.6440369,-1.8866212,18.0976772,-45.7557259,-59.9236641,114.5114517
8500,2.6982515,-1.5801650,18.5573616,-29.0458012,-46.7175560,129.9389343
8510,4.5657191,-1.5801650,18.8207226,-9.4809160,-23.5572510,135.0076294
8520,6.3302369,-0.9050036,17.9468441,2.8320611,7.3740458,130.6412201
8530,6.5792327,-0.6631905,16.5534267,13.2900763,31.4198475,118.4122162
8540,5.3055239,-1.1659702,15.0522690,17.7099228,38.0076332,109.5190811
8550,4.7764082,-1.8076130,14.4585104,20.8854961,27.8854961,108.6793900
8560,5.2552457,-2.0997043,14.3316183,25.8549614,7.0992365,111.9542007
8570,6.3733325,-2.4324965,14.9588957,34.5267181,-13.7022905,114.2671738
8580,8.3341732,-2.5186872,15.7633438,43.3893127,-25.8702297,111.6183243
8590,10.8337069,-2.2433555,16.2924595,53.7099228,-21.8320618,103.5725174
8600,12.1553001,-2.0422437,16.9556503,66.3740463,-7.5038166,91.6946564
8610,13.4792862,-1.4532729,16.6348286,80.8931274,10.3358774,73.4198456
8620,13.3523941,-1.7740943,16.7401733,96.6717529,23.0305347,55.3511467
8630,12.6724443,-2.1835008,15.9022064,111.9923630,25.9083977,40.3129768
8640,12.4090843,-2.3199697,14.3795023,124.7709961,18.5801525,28.7786255
8650,11.8344784,-2.7533178,13.7665892,134.7480927,6.5419846,21.2977104
8660,11.4226780,-2.6623387,12.9477768,142.8549652,-8.0763359,17.0381680
8670,11.4561968,-2.6360025,12.2606440,151.8167877,-23.6946564,12.8015270
8680,11.4131012,-2.6407909,11.8512383,160.9084015,-38.1145020,7.1755724
8690,11.6501255,-2.8012016,10.8887739,169.1755676,-49.4580154,1.5496184
8700,11.5208397,-3.0885043,10.1513634,176.0076294,-54.5114517,-3.7099237
8710,12.0308018,-2.9735832,8.9901810,179.7404633,-53.0687027,-8.4351149
8720,12.5718889,-2.4181314,7.4890246,178.8931274,-44.4961815,-15.0076332
8730,12.7825775,-2.0661855,5.8801293,172.0610657,-31.7633591,-23.6030540
8740,12.8113079,-1.6567791,4.1515245,157.1755676,-20.4656487,-34.0610695
8750,12.4785156,-1.2377959,2.8203552,136.5419922,-14.3511448,-45.3358765
8760,11.9733410,-0.9888002,2.1404054,115.3587799,-17.6793900,-56.8549614
8770,11.2598734,-0.7900825,2.2002602,98.6259537,-26.8625946,-67.5496216
8780,10.4961262,-0.6775556,2.2744799,85.6946564,-39.8244286,-77.1526718
8790,9.7443514,-0.6536137,2.2864509,79.1832047,-55.8625946,-84.2671738
8800,9.2679071,-0.3519458,1.8578910,73.3435135,-72.9923630,-90.0534363
8810,8.9375095,-0.0454896,1.4628497,65.1908417,-85.3511429,-95.7328262
8820,8.4802189,0.2777260,1.1611819,55.9160309,-88.5572510,-100.4809189
8830,8.1953106,0.2873027,1.1563935,45.1221390,-81.2213745,-102.8244247
8840,7.7260494,0.4213773,0.8978211,31.9541988,-65.0916061,-103.3893127
8850,7.2112985,0.4884146,0.5650287,16.7709923,-46.2977104,-103.0916061
8860,6.7300668,0.5769997,0.2801202,0.1984733,-25.7862587,-101.7251892
8870,5.8681583,0.5219333,0.3016679,-17.2137413,-8.4885492,-100.4427490
8880,5.1427188,0.3926471,0.6488253,-31.1908398,-1.8320611,-97.9389343
8890,4.7141590,0.5961532,1.0486550,-40.8854980,-0.6412213,-96.0534363
8900,4.2401094,0.5937590,1.3718705,-48.0610695,-6.0381680,-95.1984711
8910,3.6583214,0.5075682,1.6400198,-53.6870232,-16.5801525,-94.2595444
8920,3.2632802,0.6057299,1.6879035,-61.0534363,-28.2137413,-93.3129807
8930,2.8802099,0.6895266,2.1451938,-69.0152664,-37.8167953,-91.7022934
8940,2.4660151,0.5650287,2.7581062,-76.9312973,-42.5496178,-90.0152664
8950,1.9871773,0.5147507,3.2369442,-85.0839691,-40.9236641,-87.8549652
8960,1.1109039,0.3758878,3.5242469,-92.0000000,-38.0458031,-84.1832047
8970,0.0694315,0.3950413,3.9911139,-98.9770966,-34.6946564,-79.5572510
8980,-1.3335636,0.0526722,4.7668314,-104.1450348,-33.1679382,-72.5648880
8990,-3.8929520,-0.6033357,5.9447722,-103.3053436,-36.5725174,-57.7786255
9000,-6.1291251,-0.5410868,6.6750002,-96.7633591,-54.8091621,-31.7557259
9010,-6.9048424,-0.3974355,7.3788919,-88.8625946,-74.5038147,0.2748092
9020,-6.2751703,-0.3998296,7.8912482,-81.8244247,-87.6488571,31.4961834
9030,-4.7021880,-0.0766141,8.0205345,-78.8931274,-89.1908417,58.2824440
9040,-3.1196289,0.2801202,7.6853480,-82.4274826,-75.4274826,78.4503784
9050,-1.4772149,0.8762733,8.0779953,-91.1832047,-52.4503822,92.1450348
9060,-0.1412572,1.2928623,8.8010406,-98.5038147,-29.8320618,95.7480927
9070,0.3256098,1.3263810,9.4953556,-99.8015289,-12.7633591,96.8625946
9080,0.6200951,1.3431402,9.9023676,-96.3053436,-4.7022901,99.5038147
9090,0.7469871,1.3527170,9.7611103,-91.8396912,-4.5496182,97.5954208
9100,0.8666966,1.4604555,9.8592720,-88.7175598,-12.6641226,95.8396912
9110,1.2497669,1.8291607,10.2064295,-86.7175598,-21.2366409,94.9389343
9120,1.6065011,2.2768741,10.7139978,-85.7099228,-24.0763359,92.2366409
9130,2.1356170,2.7796540,11.7123747,-85.8244247,-18.1374054,87.6030502
9140,2.3223639,3.0262554,13.0339670,-87.3053436,-1.6259542,84.7862625
9150,1.4125718,2.5976956,15.0905762,-84.5496216,7.7786260,86.0916061
9160,0.9959828,1.6974803,17.2644997,-71.9236679,-2.9694657,92.0534363
9170,1.8770446,0.5171449,19.0457764,-50.3053436,-19.9770985,102.3282471
9180,4.2736282,0.3064562,19.6126022,-23.3511448,-27.8167934,109.2366409
9190,6.9575148,0.6033357,19.6126022,5.1603055,-24.8473282,110.1984711
9200,8.8680773,0.5698171,19.6126022,32.8396950,-16.8015270,106.7862625
9210,10.8600435,0.9385223,19.3737812,55.8854980,-3.9541984,102.0916061
9220,12.1385403,0.8643024,18.3945580,72.9083939,11.0152674,94.6259537
9230,13.0842457,0.9624642,17.2836533,85.3969498,25.1832066,85.1221390
9240,13.4529505,0.7158626,16.3235836,92.4885483,36.5267181,72.5190811
9250,13.9485474,0.4261657,15.3156300,95.8015289,41.9389305,59.5648842
9260,13.9772778,0.3758878,14.4920292,100.8396912,41.1221390,47.0305328
9270,13.9485474,0.3447633,13.9198179,102.1755753,33.2213745,34.7328262
9280,13.7953196,0.2657550,13.2853575,112.1526718,18.3358784,20.9847336
9290,13.8096848,-0.1197095,12.9908724,122.8931274,0.5038168,6.7557254
9300,14.1783895,0.0215477,11.7698355,131.9313049,-13.2595415,-7.5114503
9310,14.4010496,0.0646431,10.5990763,138.8778687,-23.3206100,-22.4885502
9320,13.7857428,-0.2250538,9.9287033,142.8549652,-30.3664131,-37.2595406
9330,13.6109667,-0.1005560,8.4467001,142.9923706,-32.8625946,-49.5725174
9340,12.9334116,-0.2178712,7.3405848,139.1450348,-29.7251911,-59.1984749
9350,12.4186611,-0.2418131,6.5145893,135.2824402,-24.1374054,-66.4809189
9360,12.1145983,-0.1795642,5.5569139,128.9694672,-18.9312973,-70.4198456
9370,11.7985659,-0.3423691,4.7381010,121.3893127,-11.7557249,-73.4122162
9380,11.5735121,-0.1412572,3.7277529,111.2442780,-4.0610685,-74.1374054
9390,11.0731258,-0.2920911,3.4859397,99.5267181,-0.7557252,-74.1068726
9400,10.9007444,-0.0335187,3.2106080,90.0229034,0.4732825,-75.3206100
9410,10.9534168,0.2011119,2.9376705,80.9465637,-0.1374046,-77.3664093
9420,10.8935623,0.2466015,2.8323262,74.7862625,-1.1374046,-80.8167953
9430,10.5368280,0.3519458,2.7628946,69.8854980,-2.2671757,-84.4045792
9440,10.5655584,0.6560079,2.1619530,65.1297684,-2.1068702,-88.8625946
9450,10.1058741,0.6607963,1.8554969,59.0152664,-2.4503818,-94.4045792
9460,9.3540983,0.6368544,1.0989330,52.3969460,-4.9389315,-97.9542007
9470,8.6526003,0.7230452,0.2825144,42.9618340,-8.9083967,-100.1297684
9480,7.8194227,0.7829000,-0.1364688,30.8244267,-13.5572519,-100.3129807
9490,6.9862447,0.8499373,-0.7110743,15.5572519,-17.7938938,-99.0076370
9500,5.9950504,0.7805058,-0.9528874,-1.0305344,-21.3358784,-96.0229034
9510,5.4491754,0.8283895,-1.1731528,-17.5343513,-25.7557259,-91.2061081
9520,5.0852585,1.1085097,-0.9504932,-35.5725174,-28.5496178,-87.6030502
9530,4.4531922,0.9959828,-0.2896969,-49.5038185,-31.2824421,-85.7709961
9540,3.5242469,0.7565638,0.2825144,-59.5954208,-35.6641235,-81.3740463
9550,2.6958573,0.8643024,0.5051740,-67.1221390,-43.7633591,-74.3129807
9560,2.1308286,0.8595140,0.8714849,-73.8549652,-55.5648842,-66.7633591
9570,1.7286048,0.8619082,1.4915800,-79.3053436,-67.9694672,-59.3129768
9580,1.4987626,0.9145803,1.8985922,-84.7022934,-76.8091583,-51.3587799
9590,1.3335636,1.0031654,2.3558824,-91.8931274,-80.8625946,-44.1984749
9600,0.9696468,1.1228749,2.7964132,-100.6259537,-78.4961853,-36.6488533
9610,0.4668669,0.9983770,3.4739690,-110.7938919,-70.7099228,-28.9541988
9620,-0.1963235,0.7326220,4.4388270,-119.3358765,-59.6030540,-19.1908398
9630,-1.0654143,0.2992737,5.5832496,-124.5343475,-46.8931313,-6.9847326
9640,-2.0685797,-0.0407012,6.9407554,-125.0305328,-36.8396950,9.6946564
9650,-3.0190730,-0.4309541,7.9822278,-120.6183243,-32.6412201,31.2213745
9660,-3.1148405,-0.2777260,8.4275465,-114.0763321,-29.3816795,55.8625946
9670,-2.9544299,-0.2226596,9.0141230,-106.7786255,-24.1068707,80.6717529
9680,-2.2816625,0.0191535,9.2296000,-102.0381699,-15.8625956,102.8473282
9690,-0.9002152,0.4429250,9.2176294,-99.7022934,-4.7175574,120.3664093
9700,0.4213773,0.9002152,9.4355011,-99.5877838,11.4580154,130.3282471
9710,1.5705882,1.3646880,9.5336628,-103.4427490,29.8167934,132.2595367
9720,2.1332228,1.6448082,9.9813757,-108.0992355,38.9083977,127.2137375
9730,2.2625091,1.9153515,10.9486284,-109.5267181,35.7786255,118.0000000
9740,2.0015423,1.7501525,11.9637651,-105.8015289,22.8473282,108.8549652
9750,1.6783268,1.7405758,12.8903160,-98.1221390,3.1526718,103.3129807
9760,1.5610116,1.7740943,13.9198179,-88.7175598,-16.4885502,101.5038147
9770,1.8387375,1.8243724,14.7242651,-77.7557220,-28.5725193,100.1603088
9780,1.9321109,1.8459201,15.2797174,-73.1068726,-29.7328243,102.6183243
9790,2.1116750,1.1947005,16.5606079,-66.0076370,-24.0916023,104.8625946
9800,2.6599445,1.1516051,17.6475697,-53.7175560,-18.5954189,107.9083939
9810,3.0094962,0.7805058,18.4424419,-38.5267181,-14.9770994,112.2977066
9820,3.3015873,0.4525018,19.0960560,-23.3206100,-9.9923668,117.1297684
9830,3.5362179,0.4644727,18.7776279,-8.7404585,-4.7175574,122.6793900
9840,3.9552009,0.2035061,18.8662128,4.1221375,-2.2213740,129.0305328
9850,4.6040263,-0.0766141,18.8925495,20.0229015,-3.3435113,135.5038147
9860,5.5018473,-0.2513899,18.6986198,37.9389305,-6.3435116,139.1679382
9870,6.7109132,-0.3447633,18.0809193,52.7480927,-6.3893127,138.2900696
9880,7.6614060,-0.0861908,17.3698444,63.4580154,-0.8396947,134.1984711
9890,8.3437500,0.0550664,16.5510311,70.0457993,6.4961834,128.3893127
9900,8.6238708,-0.4908088,16.0793762,74.5572510,10.0610685,122.5877838
9910,8.7124557,-0.6344602,15.7154598,79.9618301,8.2213745,117.8778610
9920,9.1481981,-1.1252691,15.5071650,87.6183243,-0.4656489,115.2213745
9930,9.7084379,-1.8219782,15.7106714,98.0152664,-12.1297712,112.7557220
9940,10.8025827,-1.9943599,15.5622311,108.3435135,-21.6946564,109.5190811
9950,11.9446115,-2.5617826,15.8519287,121.3358765,-28.3664131,103.4351120
9960,13.3859129,-2.4779861,15.6484222,134.0229034,-28.3816795,94.6793900
9970,15.3323889,-2.3798244,15.5694141,147.5801544,-20.0992374,86.0152664
9980,16.9963512,-2.0877333,14.9062233,161.3816833,-4.5267177,69.4198456
9990,17.2333755,-2.1954718,14.0730457,171.6946564,10.3969469,48.5801544
