timestamp,acclX,acclY,acclZ,gyroX,gyroY,gyroZ
0,2.0015423,4.1371593,10.0316534,6.8244276,-27.8702297,-1.2137405
10,2.2840567,6.6702118,12.2558556,17.1603050,-35.2137413,-0.4732825
20,2.5067163,7.8026633,12.3588057,23.0687027,-39.7786255,-1.2671756
30,2.6360025,8.5281029,12.4186611,28.4656487,-47.0000000,-3.5801528
40,2.5976956,9.5025377,12.1337519,36.5190849,-59.1832047,-5.9618320
50,2.7724714,10.3476868,11.5591469,43.3587799,-71.6259537,-7.1145039
60,3.0956869,11.3388815,10.8504667,47.6335869,-82.9618301,-9.2595415
70,3.4524212,12.1433287,10.0867205,49.8015251,-94.0687027,-13.5801525
80,3.7373297,12.9477768,9.1841106,50.5267181,-97.6335907,-17.8778629
90,3.8953462,13.7043400,8.3126259,47.2519073,-98.6183243,-22.9160309
100,3.9097114,14.5806141,7.5393028,39.0228996,-98.4503784,-29.5190830
110,3.6655040,15.0450869,7.2065101,25.1068707,-92.3587799,-34.5572510
120,3.3949606,14.9205885,7.1203194,5.1908398,-75.6641235,-37.8167953
130,2.8538737,13.9270000,7.4052281,-13.1221371,-55.5038185,-40.1755714
140,2.2888451,12.3516235,7.4602942,-24.4885502,-37.7480927,-40.5725174
150,1.4796091,10.7163916,6.7635851,-30.9694653,-29.3206100,-39.5190849
160,0.8499373,9.2391768,5.8178802,-35.1984749,-31.2366409,-37.7251892
170,0.7709290,7.4219875,4.7764082,-36.7633591,-41.1832047,-35.3511467
180,1.0702027,5.0373745,3.4165084,-35.8396950,-51.4809151,-35.0076332
190,1.4125718,2.5905130,1.9105632,-36.2061081,-62.1679382,-34.8167953
200,2.1978660,-0.1819584,0.7996593,-41.2213745,-66.0229034,-34.6488533
210,3.3542595,-3.4380560,-0.1173153,-50.4427490,-56.5572510,-35.0916023
220,4.6830344,-7.3836803,-1.0654143,-66.0916061,-26.3282452,-36.0228996
230,4.9032998,-11.0779142,-1.7980363,-87.9923630,11.6717558,-33.8244286
240,5.0421629,-15.1384602,-2.2577207,-113.4351120,38.8931313,-26.1297703
250,5.3222833,-18.7967815,-2.2409613,-143.4503784,50.2824440,-14.2977095
260,5.0445571,-19.6131992,-2.6264257,-181.9770966,27.5419846,1.2519084
270,5.4324160,-19.6131992,-1.1420283,-230.1450348,-38.1526718,18.5877857
280,7.1394730,-19.6131992,3.4476328,-250.1374054,-123.1221390,32.1297722
290,9.7587166,-19.6131992,9.7730818,-250.1374054,-194.7633514,36.4427490
300,12.8711624,-19.6131992,17.1280308,-250.1374054,-232.1526642,25.7099228
310,15.2102852,-18.4591999,19.6126022,-238.3206177,-216.8396912,-2.0534351
320,15.8567171,-13.6875811,19.6126022,-163.0000000,-132.6717529,-43.5343513
330,12.5144281,-10.8504667,19.6126022,-37.4732819,6.9923663,-81.3969498
340,7.2304521,-12.7442703,19.6126022,115.9847336,127.0000000,-83.1297684
350,3.4715748,-17.0083218,19.6126022,250.1297760,208.2137451,-55.1145020
360,0.2705434,-17.5565910,10.9941177,250.1297760,197.0076294,-7.5114503
370,-0.3232156,-16.0410690,0.1244979,250.1297760,136.3129730,39.9771004
380,1.1300575,-12.9238348,-8.2647419,250.1297760,70.0610657,72.3053436
390,3.9911139,-8.7340031,-12.1122046,250.1297760,28.4580154,87.9083939
400,7.0030041,-5.1810260,-10.7068148,192.4122162,26.2595425,88.2137375
410,8.7794924,-3.4117200,-6.6606350,112.3587799,66.7175598,76.8396912
420,8.8489246,-3.0358322,-1.5083394,66.3969498,123.9847336,63.6641235
430,6.7875271,-2.8227494,2.4396791,51.5801544,164.8549652,57.9541969
440,4.3741841,-2.3223639,4.6423335,55.4045792,182.3435059,62.9541969
450,2.4324965,-1.2832855,5.5952206,70.3969498,174.7175598,76.3358765
460,1.8411317,0.3040621,5.1953912,85.5114517,156.8091583,91.4274826
470,2.1404054,1.6855093,4.3215117,90.6870193,132.8549652,102.7022934
480,2.6288199,3.0861101,3.8474624,86.1984711,109.5267181,109.3816757
490,3.7684543,4.3310885,3.8139439,76.3816757,87.5419846,110.1221390
500,5.6000090,4.9870968,4.1682839,62.8778610,79.2748108,103.8015289
510,5.7173243,8.1019373,6.5241661,-11.7099237,109.1221390,39.3969460
520,4.7859845,8.5376797,8.2168579,-20.1526718,96.2977066,26.8931293
530,4.2089849,8.8034344,9.4809904,-19.3129768,70.6183243,15.5801525
540,4.0988522,8.6478119,10.3548698,-14.2290077,43.9312973,5.3893127
550,4.0246325,8.2982607,10.5918941,-9.7862597,22.6488552,-4.0839696
560,3.7780309,8.4036045,10.8145542,-6.2595420,7.3893127,-11.6259546
570,3.6224086,8.2360115,10.7618818,-5.1755724,-0.0687023,-16.4351139
580,3.0118904,8.4251528,10.5272512,-6.1297708,-2.8396947,-16.9007626
590,2.7557120,8.5711985,10.6182299,-7.6870227,-4.0458016,-13.5267172
600,2.5138988,8.9614515,10.7930059,-6.9236641,-2.8625953,-9.4274807
610,3.0956869,10.3021975,9.6677370,-39.5877876,51.1450386,5.8396945
620,2.0206959,11.1210098,10.6230183,-46.7786255,54.9160309,3.7938931
630,1.7884595,11.1425581,11.5878773,-48.1603050,45.9160309,5.0992365
640,1.5993185,10.8265247,12.1696653,-42.7862587,27.8549614,5.2442746
650,1.8554969,11.3460636,12.7897596,-33.4045792,2.3358779,4.3206105
660,2.7221935,11.9254580,13.1417055,-21.7557259,-23.7709923,-0.3129771
670,3.8211265,12.4114780,13.1584654,-12.9160309,-42.5190849,-9.8549614
680,4.1634955,12.6173782,13.3212700,-4.2366414,-49.6717567,-20.6564884
690,4.1108232,12.2821922,13.0507269,5.7404580,-50.5877876,-29.5648861
700,3.8522508,12.1265697,12.1217813,12.7099237,-49.4809151,-35.8015251
710,3.5026991,11.8751793,11.0779142,14.2595415,-48.6488533,-40.8396950
720,3.1723011,11.3843708,10.5009146,10.9312973,-46.3816795,-43.7709923
730,2.7557120,10.9390516,10.4530315,3.8931298,-42.0992355,-44.7862587
740,2.5593886,10.3141680,11.0970678,-6.0534353,-30.9160309,-44.3435097
750,1.9345051,9.9717989,12.2702208,-14.8473282,-17.0763359,-42.6641235
760,0.9409165,9.8832140,13.8815107,-19.6488552,-8.8702288,-38.8244286
770,0.0981618,9.7132263,15.5263186,-17.5343513,-9.2290077,-34.0839691
780,-0.4620786,9.2272062,16.7593269,-6.3740458,-14.0076332,-28.4122143
790,-0.8259954,8.7818871,17.4320927,12.6564884,-24.0000000,-22.9007626
800,-0.5291159,8.4323349,16.5007534,35.3969460,-42.7328262,-19.1755733
810,-0.1843526,8.2958660,14.8535509,51.5572510,-61.6641235,-18.9007626
820,-0.2035061,8.3868456,13.2901459,61.9923668,-80.2061081,-19.9312973
830,-0.5458752,8.4251528,11.8703909,74.3740463,-101.3053436,-21.2366409
840,-0.1747758,8.8632889,9.4283180,89.9465637,-132.2366486,-24.6106873
850,0.4764437,9.5671806,6.4810710,100.2442780,-166.8320618,-32.3206100
860,1.4987626,9.8951855,2.7102225,95.6793900,-198.1526642,-44.7786255
870,2.6647329,9.5264797,-0.7493813,77.3664093,-219.9618378,-60.5496178
880,3.6200144,8.5113440,-2.9400647,44.0610695,-224.2442780,-76.1068726
890,3.7804251,6.7516141,-3.4308734,3.6335878,-211.7480927,-88.4656525
900,3.2584918,4.2999644,-2.5905130,-31.3664131,-184.5496216,-91.7251892
910,2.4420733,1.6831152,-1.4053892,-57.9083977,-152.0076294,-85.0610657
920,1.9105632,-1.0199248,-0.2274480,-75.3587799,-114.3587799,-70.9083939
930,1.6783268,-3.9504125,0.8116302,-88.0305328,-70.3893127,-50.1068687
940,1.1468167,-6.8497758,1.3263810,-96.0457993,-25.2366409,-22.7022896
950,1.8985922,-10.3261395,1.2689204,-103.1908417,15.0305347,9.6259546
960,3.0238612,-15.0235386,0.2729376,-122.3587799,52.6870232,40.7328262
970,4.5082588,-18.6291885,-0.3184272,-160.0381622,72.1526718,67.3206100
980,7.3932571,-19.6131992,1.9991482,-209.5801544,64.1984711,77.6030502
990,10.6996326,-19.6131992,7.8026633,-247.0992432,50.2900772,66.0152664
1000,11.7195578,-19.6131992,15.8686876,-250.1374054,41.7022896,38.0152664
1010,11.2455082,-19.4120884,19.6126022,-211.5801544,37.8931313,4.6717558
1020,9.2463598,-17.4249115,19.6126022,-103.6183243,52.0839691,-21.1679382
1030,4.8530221,-15.8543224,19.6126022,46.6793900,70.1068726,-19.8625946
1040,1.5729824,-15.0187502,19.6126022,188.1603088,73.9007645,6.4045801
1050,1.4724265,-13.4864693,12.6748390,250.1297760,50.9771004,31.9083977
1060,2.6240315,-11.3340931,4.0198441,250.1297760,37.1297722,47.1450386
1070,3.8761928,-8.7459745,-2.7221935,250.1297760,28.1526718,54.8015251
1080,4.8697815,-5.8825235,-7.2472115,215.3969421,26.6335869,57.5190849
1090,6.1315193,-3.4931223,-7.6374645,132.5801544,37.0687027,57.3435097
1100,7.1418672,-1.7357874,-3.7301471,60.3587799,65.6946564,52.5419846
1110,7.0389171,-0.0885850,1.2713146,22.8778629,98.8549652,45.8396950
1120,6.0644817,0.7972651,4.8649931,12.4503813,121.0687027,39.4885483
1130,4.7668314,1.5825592,6.5457139,14.0076332,131.1603088,37.1068687
1140,3.7564833,2.6048782,7.4602942,20.1679382,129.7786255,36.9618340
1150,3.5050933,3.2249732,7.3884687,22.4198475,116.2366409,37.3816795
1160,4.4029145,7.6207051,9.1888990,8.1145039,44.8625946,25.1221371
1170,4.9607606,7.7882981,10.6828737,14.0381680,57.3206100,-15.6106873
1180,4.2568688,7.3238254,9.4522600,18.0458012,60.5572510,-26.0076332
1190,3.1220231,7.1155310,7.9965930,14.1221371,62.5877876,-33.2671738
1200,0.5458752,7.7787213,7.3884687,-4.5114503,56.2671738,-28.6717548
1210,0.1963235,7.9247670,7.5871863,-12.1908398,48.9236641,-21.2137413
1220,-0.0191535,8.2623482,8.0085640,-17.8396950,40.8015251,-14.6259546
1230,0.0718257,8.6549950,8.6286592,-23.0992374,32.7557259,-9.7480917
1240,0.2274480,8.8273764,9.2535419,-26.1068707,25.5725193,-7.0229006
1250,0.2801202,9.0548248,9.7036495,-27.4274807,20.5267181,-5.3435116
1260,0.5602403,9.1745338,9.8856087,-26.7557259,18.2061062,-4.1221375
1270,0.7110743,9.5719690,9.5911226,-26.5954189,18.7633591,-4.0763359
1280,0.3950413,10.1776991,9.2607250,-29.8625946,16.4503822,-3.7633588
1290,0.3112446,10.8001890,9.0883436,-34.0839691,8.7786255,-2.8396947
1300,0.3782819,11.2215662,9.4929609,-38.7709923,-1.5419847,-2.9541984
1310,0.7014975,11.4897156,10.4147243,-42.3435097,-13.5190840,-4.5343513
1320,1.2330076,11.5064745,11.6668854,-42.4198456,-22.1145039,-7.5648856
1330,1.4867916,11.5208397,12.9310169,-38.6488533,-25.3053436,-12.1145039
1340,1.3263810,11.4561968,13.7426472,-31.1526718,-24.2213745,-14.8702288
1350,0.6296718,11.0180597,14.2573986,-18.7786255,-21.0534344,-13.6564884
1360,0.2801202,10.7690639,13.9150295,-4.4961834,-19.9694653,-9.5038166
1370,0.1628049,10.6445665,12.9190464,7.4274807,-21.0229015,-3.4122138
1380,0.1675933,10.6517487,11.9853125,14.0610685,-26.1603050,2.3358779
1390,0.5147507,10.9103212,11.5184450,15.9923668,-27.5114498,6.3969464
1400,0.3160330,11.4107065,11.4514084,15.9694653,-25.5114498,10.2366409
1410,0.0814024,11.8919392,11.5567522,18.8244267,-25.1832066,13.5038166
1420,-0.5075682,12.2438850,11.1617117,23.9160309,-30.6488552,17.9312973
1430,-0.9002152,12.9741125,10.5966825,27.7022896,-43.5419846,24.4656487
1440,-0.6248835,13.6780043,10.2878323,29.1603050,-59.0610695,31.4351139
1450,0.3543400,14.0874109,10.3117743,29.5114498,-68.4122162,37.3435097
1460,1.7357874,14.1400833,10.1178446,25.4503822,-61.6412201,40.3740463
1470,3.1028695,13.9509420,9.8233595,14.2213745,-36.1603050,39.3664131
1480,3.0861101,12.3827477,9.3540983,-7.6793895,24.1603050,36.5114517
1490,2.4779861,11.0779142,8.4730368,-13.7175570,38.5801544,33.6488533
1500,1.9680238,9.7132263,7.1897511,-14.7786255,36.4427490,29.4427490
1510,1.3910241,8.2024927,5.4180508,-13.1068707,14.3206110,22.6335869
1520,1.1731528,6.3637557,3.3207407,-12.3587790,-24.7175579,12.4656487
1530,1.4341195,3.9216824,1.3311694,-18.0763359,-69.6183243,-1.3358779
1540,0.9816177,1.3383518,-0.2681492,-32.5648842,-108.8473282,-13.1450386
1550,0.5099624,-1.1827296,-0.7062859,-49.7251892,-154.0686951,-17.6259537
1560,1.3048333,-3.3686244,-0.6464311,-63.6412201,-198.8396912,-17.0000000
1570,3.0286496,-5.4515696,-0.9361281,-81.3129807,-214.0992432,-15.0305347
1580,4.5082588,-7.7811155,-0.8690908,-106.6946564,-192.4045868,-10.8778629
1590,7.2711535,-11.0372133,-0.0814024,-139.4198456,-143.5725250,-7.9694657
1600,10.1776991,-15.8399572,0.4165890,-190.0152740,-68.6564865,-15.2900763
1610,10.2567072,-19.1056328,3.9647777,-250.1374054,6.0839696,-31.4198475
1620,9.5384512,-19.6131992,9.7970228,-250.1374054,48.7938919,-48.3664131
1630,8.8177996,-19.6131992,18.1144371,-250.1374054,58.8244286,-67.9770966
1640,7.5081782,-19.6131992,19.6126022,-221.1297760,56.6106873,-86.0457993
1650,5.0828643,-19.6131992,19.6126022,-112.1374054,62.9771004,-91.1450348
1660,2.1164634,-18.7560806,19.6126022,20.1068707,75.3893127,-74.3435135
1670,0.7876883,-16.7258072,19.6126022,132.0305328,79.1603088,-45.6870232
1680,0.6057299,-14.2190914,13.4098549,199.5648804,74.9542007,-20.4961834
1690,0.9193687,-11.6022425,5.0230093,224.5572510,73.9923630,1.0458015
1700,1.8004304,-9.1721401,-1.6855093,206.3969421,78.5190811,18.3893127
1710,2.5234756,-6.2105274,-4.9152708,154.3511505,87.7022934,29.3053436
1720,2.8610563,-3.6607156,-4.2975702,91.1984711,94.8320618,34.6183205
1730,2.6790979,-2.5091105,-0.4213773,46.7786255,97.7786255,36.2748108
1740,1.9201399,-2.1978660,3.7971845,35.0228996,92.8473282,39.9847336
1750,1.0462608,-1.6591733,6.4427638,45.0687027,71.7557220,47.6717567
1760,1.0678085,-1.1611819,7.4483232,61.8091621,52.9007645,59.4656487
1770,1.2330076,-0.4620786,7.0604649,72.4122162,48.5038185,74.9847336
1780,3.1052637,2.1308286,6.3446021,68.2290039,60.5725174,107.1755753
1790,4.9152708,3.1315999,6.1123657,52.6793900,76.7709961,114.4274826
1800,6.3015065,4.2448978,6.7276726,33.3587799,95.6259537,111.9007645
1810,7.3046722,5.1187773,8.0205345,18.9770985,109.3587799,97.6564865
1820,7.2687593,5.7843618,8.9207497,10.1068707,113.3893127,77.7175598
1830,6.0022330,5.5928264,10.3716288,22.6030540,68.1068726,24.9236641
1840,3.1723011,5.7747850,8.5017672,41.1297722,-15.9694653,-37.9083977
1850,2.1954718,5.9878678,8.2312231,34.4198456,-19.2366409,-47.7404594
1860,1.2617378,6.0932121,8.1091194,23.3206100,-13.3206110,-53.5190849
1870,0.0191535,5.8298512,8.4395180,12.1374044,-7.3740458,-53.7251892
1880,-0.8451489,5.4395986,9.1529865,7.5114503,-2.9923663,-47.1374054
1890,-1.1970947,5.8418221,8.0971489,1.1221374,14.2366409,-13.9694653
1900,-0.5913648,6.1482787,7.9774394,-5.1832061,21.5801525,-5.3664122
1910,-0.0215477,6.4786768,7.9104018,-12.1603050,29.0839691,0.0916031
1920,0.9768293,7.2304521,8.4251528,-25.5038166,40.0687027,-2.5877862
1930,0.4932030,7.6805596,8.6573887,-28.8931293,36.5954208,-8.0076332
1940,0.0119709,8.0660238,9.1505919,-29.7862587,23.8778629,-11.1374044
1950,-0.2035061,8.4538832,9.3708572,-29.2595425,8.5114508,-14.2900763
1960,-0.3399749,9.0548248,9.8089943,-29.3969460,-6.6488547,-14.9847326
1970,-0.1628049,9.9023676,10.4266949,-29.8625946,-16.9618320,-13.3969469
1980,0.4357425,10.8480721,11.2048063,-30.5419846,-19.8167934,-11.4885492
1990,1.1923064,12.1145983,12.1193867,-31.8625946,-15.8549614,-12.2748089
2000,1.6304430,13.1249466,12.9693241,-31.4732819,-10.5114508,-16.6030540
2010,1.2808913,13.7809544,13.9341822,-28.4427490,-8.3053436,-21.1679382
2020,0.8259954,14.3052816,14.6739874,-20.1145039,-13.1603050,-23.1526718
2030,0.5482694,14.1113529,14.6931410,-6.8854961,-21.2442741,-23.5114498
2040,0.1149211,14.0610743,14.0467091,6.2061067,-33.8015251,-22.2595425
2050,-0.1747758,13.9964314,13.0962162,15.6412210,-48.2748108,-20.0610695
2060,-0.7972651,14.0347385,12.6461086,23.7709923,-66.2900772,-15.5725193
2070,-1.3527170,14.2693691,12.4426022,34.3206100,-89.0000000,-8.5648851
2080,-1.1875180,15.0187502,12.0092545,46.7862587,-111.6793900,-0.9312977
2090,-0.0311245,15.8782644,10.9629936,53.4503822,-124.0687027,2.2748091
2100,0.8690908,16.7856617,9.6414013,53.3511467,-122.4732819,1.1526718
2110,1.3742647,17.1040897,8.1977043,44.9083977,-110.0916061,-2.7099237
2120,1.2976507,16.7856617,6.8713236,28.3282452,-86.9923630,-6.8549619
2130,0.7996593,16.4313221,5.9304070,8.9770994,-63.7251892,-9.2824430
2140,0.4141948,15.2868996,5.0349803,-8.1679392,-46.8854980,-11.3587790
2150,-0.0933734,13.7522240,3.8833754,-23.3893127,-41.7786255,-13.8625956
2160,-0.7541697,11.5926657,2.7413468,-36.5114517,-51.8091621,-14.4732828
2170,-1.2330076,8.8177996,2.0039365,-45.1145020,-75.3358765,-11.2900763
2180,-1.0390782,5.8657641,1.7884595,-47.3282433,-106.6106873,-4.7709923
2190,-0.4453192,1.9345051,1.4580613,-47.4580154,-127.7862625,5.9923663
2200,0.5913648,-2.5091105,0.9050036,-50.1603050,-120.4580154,20.4885502
2210,1.9009864,-6.6414814,0.1915352,-57.2366409,-87.8167953,37.5038185
2220,4.1251884,-11.3388815,-0.6919208,-71.5114517,-38.4198456,53.3206100
2230,7.0460997,-17.6140518,-3.0980811,-109.8778610,20.1526718,62.4045792
2240,7.8744893,-19.6131992,-5.3438311,-181.6793823,58.7099228,59.3435097
2250,8.9207497,-19.6131992,-2.6743097,-250.1374054,49.2213745,47.8244286
2260,10.6732969,-19.6131992,3.5673423,-250.1374054,-1.9541985,23.6259537
2270,10.5487986,-19.6131992,11.0108776,-250.1374054,-66.5114517,-8.7480917
2280,9.8712435,-19.6131992,19.6126022,-250.1374054,-130.6564941,-37.6717567
2290,9.7467451,-19.6131992,19.6126022,-234.3893127,-175.1374054,-66.0457993
2300,9.1721401,-18.3227310,19.6126022,-115.7480927,-157.2595367,-93.8931274
2310,6.1913738,-16.1488075,19.6126022,36.8473282,-72.2595444,-107.2213745
2320,2.2529323,-16.1775379,19.6126022,184.8473358,17.4656487,-92.0763321
2330,0.1508339,-16.2613354,17.0585995,250.1297760,69.0305328,-61.8473282
2340,-1.0869620,-14.8200331,6.5481081,250.1297760,94.1755753,-27.8015270
2350,-2.1619530,-12.1169930,-3.0286496,250.1297760,86.6641235,9.2595415
2360,-1.2306134,-9.2272062,-9.3038206,220.8320618,65.0305328,42.4427490
2370,1.4293311,-6.4762826,-9.5671806,129.8320618,58.1068687,63.0534363
2380,4.1563129,-4.6638808,-3.8474624,63.6946564,74.7938919,70.2213745
2390,5.3605900,-3.4260850,2.2098370,40.0152664,101.0076370,68.8854980
2400,5.1786318,-2.2026544,6.0812411,45.1984749,123.1145020,66.1068726
2410,4.5058646,-1.2976507,7.4339581,60.8625946,135.9541931,66.6030502
2420,3.8426740,-0.1843526,7.4722652,79.0534363,137.6183167,68.0687027
2430,3.5266411,0.7206510,6.6295104,94.7938919,126.6488571,70.7557220
2440,3.3231349,1.8794388,4.7548604,98.5725174,109.8778610,71.7022934
2450,4.8985114,6.0812411,7.3094602,7.4427481,50.3664131,20.3206100
2460,4.1108232,5.5617023,7.9008250,4.0229006,36.7480927,8.2671757
2470,2.7820482,5.8106980,8.3581152,1.3893130,23.7022896,3.7633588
2480,2.3965836,5.7077475,8.6334467,-3.1908398,16.0000000,4.5419846
2490,1.9919657,5.9064655,9.2080526,-7.3511453,11.8015270,5.8549619
2500,1.9943599,6.1722202,9.9598284,-10.4427481,9.3206110,9.3816795
2510,2.4372849,6.0046272,10.4937325,-11.8244276,11.3282442,11.4885492
2520,2.9711890,5.8753409,10.9390516,-10.7938929,15.1145039,11.2671757
2530,3.0118904,5.1594782,10.0244713,-1.7404580,33.3358765,-2.9312978
2540,2.9783716,4.4699516,6.8234401,-30.3587780,46.3511467,-1.9923664
2550,1.1228749,5.8083038,7.2089043,-45.0152664,41.0076332,-0.6870229
2560,2.2984219,4.7548604,8.8273764,-53.5877876,35.3511467,-3.5954199
2570,1.8602852,4.9344244,8.8489246,-54.0152664,35.2595406,-6.0076337
2580,1.6759326,5.1546898,8.6909075,-56.9236641,35.5190849,-6.4961834
2590,1.8674678,5.1475072,8.4179697,-63.0610695,39.5419846,-7.6259542
2600,2.0135133,4.9559722,8.7651272,-71.3740463,41.0000000,-11.6412210
2610,1.9177457,4.7620430,9.5169029,-76.9389343,39.6412201,-16.4045811
2620,1.6639616,4.5393834,10.2878323,-77.8931274,32.6717567,-19.7862587
2630,1.5394639,4.3670015,11.0850973,-74.9465637,24.0458012,-22.3129768
2640,1.4101776,4.2879934,11.6740675,-69.6183243,14.7557249,-25.1221371
2650,1.4197544,4.0725164,12.2606440,-61.7328262,3.8778627,-27.6106873
2660,1.2784972,4.0892754,12.7586355,-52.7862587,-5.3206105,-29.5419846
2670,0.8738791,4.3885493,13.3140879,-42.9541969,-11.4198475,-30.0916023
2680,0.6248835,4.8625989,13.3188763,-34.6793900,-12.3358774,-29.0152664
2690,0.5482694,4.9918852,13.3619709,-28.2748089,-10.7938929,-26.4427490
2700,0.7038917,5.2169390,13.1033993,-24.9083977,-6.5954199,-24.3511448
2710,0.4357425,5.0325861,13.3092995,-22.1297703,-3.9618320,-21.8625946
2720,0.5554519,5.1618724,13.2733860,-20.2061062,-0.6488550,-18.5190830
2730,0.3782819,4.9918852,13.8168669,-16.6335869,1.7786260,-14.7709923
2740,0.1340746,5.2049680,14.1951494,-9.5954199,1.2595420,-10.2824430
2750,0.1173153,5.6191626,14.2478218,14.3816795,-8.6488552,-0.7022901
2760,0.6105183,5.9663200,13.6588507,25.8931293,-14.5572519,3.3435113
2770,1.2808913,6.4786768,12.8807392,32.3587799,-18.3816795,5.2290077
2780,2.0350611,6.9934273,12.1337519,34.0305328,-21.5648861,5.9694657
2790,3.1675127,7.6422529,11.6644907,30.9160309,-24.8167934,3.0458016
2800,4.5393834,8.5233145,11.5663290,22.8396950,-28.7786255,-6.1526718
2810,4.7668314,9.4666252,11.8033543,10.2442751,-34.5725174,-20.9770985
2820,3.9791429,10.2231894,13.0818510,-4.5419846,-47.6183205,-35.6717567
2830,3.3925664,9.9358864,15.8519287,-10.7709923,-69.0381699,-46.3053436
2840,2.6647329,9.6222477,19.3689919,0.4961832,-96.0305328,-54.4656487
2850,2.2146254,9.3828287,19.6126022,30.8549614,-120.5190811,-59.6335869
2860,1.7573351,9.3469152,19.6126022,75.7938919,-132.8167877,-61.8167953
2870,1.3239868,9.5719690,19.6126022,122.0000000,-131.1374054,-59.7328262
2880,0.9313397,10.2926207,16.3427372,147.5496216,-117.6412201,-51.9618340
2890,0.4788379,11.2502966,11.0803089,149.6793823,-94.8244247,-41.7938919
2900,0.4141948,12.1409349,6.4978304,129.3129730,-70.1450348,-31.3053436
2910,0.4381367,13.1464939,3.5050933,93.8549652,-51.1832047,-24.3511448
2920,0.6344602,13.5606890,2.4684093,53.1679382,-38.7251892,-22.1679382
2930,0.3543400,13.8048964,2.7197993,17.9694653,-30.5648861,-22.8473282
2940,0.5889706,13.3907013,3.3039815,-7.0381680,-31.9007626,-26.5267181
2950,1.0869620,12.2319136,3.1986370,-23.9160309,-41.4732819,-35.7404594
2960,1.3910241,10.3093796,2.4923513,-37.1374054,-60.3511467,-49.2442741
2970,1.0438666,8.4467001,1.4963684,-49.7709923,-85.6259537,-61.5496178
2980,0.7517755,6.3900914,0.4668669,-63.4732819,-109.5877838,-69.6488571
2990,0.3280039,4.1299767,0.2035061,-78.1221390,-125.8015289,-70.1450348
3000,0.5482694,0.9337339,0.3591284,-89.6106873,-126.3206100,-63.2519073
3010,0.6440369,-2.3846128,0.5746055,-96.2290039,-112.7938919,-50.0152664
3020,1.2976507,-5.9711084,0.5961532,-95.8778610,-89.6870193,-33.7938919
3030,1.9105632,-9.6222477,0.5027798,-88.0381699,-72.6412201,-17.3587780
3040,3.0621684,-13.5966015,0.0933734,-76.4427490,-72.2519073,0.3282443
3050,4.2808108,-17.8151646,-0.9768293,-70.4961853,-84.5496216,18.8167934
3060,6.0932121,-19.6131992,-1.8195840,-74.1832047,-99.0610657,36.9236641
3070,7.0173693,-19.6131992,-3.1699069,-93.3435135,-119.8015289,55.3511467
3080,7.4100165,-19.6131992,-3.7397239,-134.0763397,-159.7786255,73.5343475
3090,7.6422529,-19.6131992,-2.1858950,-193.0915985,-222.2900696,88.4198456
3100,9.8401184,-19.6131992,2.9687948,-250.1374054,-250.1374054,101.8625946
3110,14.2645807,-18.5262375,11.4968977,-250.1374054,-250.1374054,100.4503784
3120,18.5501804,-14.5518837,19.6126022,-250.1374054,-250.1374054,65.9923630
3130,19.0457764,-10.2638903,19.6126022,-223.7480927,-138.6488495,5.0229006
3140,15.8423519,-7.7021074,19.6126022,-128.8854980,-2.1450381,-60.4274826
3150,9.0452480,-9.7036495,19.6126022,19.0992374,115.3511429,-95.0229034
3160,4.5106530,-15.2270451,19.6126022,192.4045868,182.2977142,-84.2977066
3170,2.3008161,-18.1958389,18.3801918,250.1297760,189.5038147,-48.1755714
3180,1.5825592,-17.8462887,3.7109938,250.1297760,166.8625946,-6.9160304
3190,2.4085546,-15.3395720,-7.9726510,250.1297760,141.5725250,25.2061062
3200,2.9687948,-11.1401634,-14.6572275,250.1297760,123.3282471,44.8091621
3210,3.8187323,-6.5840211,-14.2166967,146.5114441,110.8778610,55.3282433
3220,4.9056940,-4.2616572,-7.8409705,65.0457993,121.7862625,56.5648842
3230,5.1929970,-2.7389526,-1.2090657,28.7862587,127.8549652,49.8931313
3240,5.1618724,-1.9823889,3.9216824,22.7099228,123.3358765,41.3358765
3250,4.8099265,-2.2601149,7.5201492,37.0228996,110.6870193,34.4809151
3260,4.4268565,-2.2242019,9.3110027,64.4122162,98.0992355,32.0839691
3270,4.0533628,-1.7070571,9.2367830,93.2061081,97.4580154,35.7480927
3280,3.9336534,-0.2178712,7.6590118,112.0305328,97.8549652,45.3053436
3290,4.3191175,1.5825592,5.7676024,111.2290039,97.9847336,53.9007645
3300,6.4547348,3.2704628,5.5617023,78.6641235,102.8167953,50.4351158
3310,7.5632443,3.5721307,6.2775645,61.8167953,115.3206100,41.1374054
3320,8.5831690,3.3853838,7.2615767,49.3664131,129.7099304,27.8625946
3330,8.0612354,3.7229645,8.0013809,42.3664131,141.3816833,12.1984730
3340,5.7221127,4.8338685,8.9710283,37.8931313,133.8549652,-9.4885492
3350,4.3550305,5.9687142,9.3157911,42.1603050,114.6183243,-16.9007626
3360,3.5218527,6.7085190,9.3732519,48.3282433,83.8244247,-25.1984730
3370,3.2417326,6.8904772,8.8680773,49.1679382,54.2671738,-34.7557259
3380,2.7078283,7.2400289,8.7411861,46.3206100,28.2442741,-43.6412201
3390,2.3391230,6.9072366,7.9726510,40.9312973,-1.0839695,-54.8473282
3400,2.0111191,7.1346846,7.1394730,32.2519073,-0.5419847,-58.5343513
3410,0.1795642,7.9247670,5.1810260,-9.5038166,27.9160309,-45.7404594
3420,-0.2226596,8.4514885,5.5329719,-29.5114498,38.6106873,-37.4885483
3430,-0.3423691,8.4730368,6.4212160,-44.8091621,46.5801544,-29.5648861
3440,-0.2035061,8.3820572,7.0628591,-54.7862587,50.5190849,-23.7862587
3450,-0.2298422,8.2671366,7.8864598,-62.1984749,50.8320618,-21.4885502
3460,-0.6751614,8.5400734,8.7483683,-67.1526718,48.1374054,-19.4885502
3470,-0.7062859,8.5185261,9.5049324,-68.0916061,43.6412201,-17.8625946
3480,-0.7254394,8.6621771,9.6174593,-67.8931274,40.0305328,-15.9694653
3490,-0.6440369,8.6478119,10.0196829,-70.7862625,37.5648842,-13.1679392
3500,0.0095768,8.5017672,10.6804790,-75.5496216,40.3740463,-11.4427481
3510,0.0957676,8.2072811,11.9924946,-79.6564865,50.4809151,-11.3587790
3520,-0.1867468,8.0947542,13.7187052,-76.5343475,59.0381660,-10.9618320
3530,-0.5602403,8.0061693,14.9469252,-64.9007645,61.6335869,-11.7938929
3540,-1.3790531,8.0588417,15.1695843,-50.4122124,55.8396950,-12.1603050
3550,-2.1308286,8.0301113,14.9828377,-34.6564903,38.6106873,-10.7557249
3560,-2.3271523,8.1570034,14.3890781,-17.9312973,15.1832066,-10.0305347
3570,-1.8770446,8.2599535,13.4984398,-2.7480917,-7.7480917,-9.7175570
3580,-1.2401901,8.3102312,12.4114780,8.0076332,-25.3664131,-8.0839691
3590,-1.0845678,8.4131813,11.2119894,11.8702288,-39.3206100,-5.3206105
3600,-0.9097920,8.3413563,11.0539722,9.7099237,-48.9465637,0.3358779
3610,-0.1197095,8.6190825,11.6118193,7.7938933,-54.4656487,7.0610685
3620,0.9073978,8.6789370,12.1648769,7.8396945,-51.6717567,11.0916033
3630,1.1539993,8.6262646,12.6820211,11.5877867,-46.0534363,13.5648851
3640,1.0438666,8.7076674,12.9429884,19.2519093,-43.3053436,16.6946564
3650,1.3503228,9.2942438,12.6078014,27.1526718,-40.9465637,17.8549614
3660,1.2330076,10.1489687,11.7123747,29.7862587,-35.5419846,16.2442741
3670,0.5793939,11.1497402,11.0300312,26.4503822,-32.4580154,15.0610685
3680,-0.1244979,11.8967276,10.9893293,21.4580154,-33.9465637,13.5496187
3690,-0.4453192,12.6700506,11.0539722,18.6030540,-37.1755714,11.8931293
3700,-1.0271072,13.2063494,11.0060892,16.9618320,-39.4656487,10.5190840
3710,-1.3934183,13.5870247,10.6110477,16.3206100,-47.1679382,11.2442751
3720,-1.3598996,13.7043400,10.0196829,19.2824421,-63.2442741,10.8244276
3730,-0.6967092,13.8551741,8.7483683,22.8015270,-80.8931274,7.7022901
3740,0.1125269,13.6253319,6.5600791,20.4656487,-90.7328262,0.2748092
3750,-0.0143651,13.3859129,4.5561423,10.6870232,-97.1679382,-7.6030536
3760,-0.3423691,11.8943329,2.5713594,-3.4580152,-96.8167953,-11.7022905
3770,-1.1252691,9.3445215,0.8475431,-21.1755733,-90.1984711,-9.8244276
3780,-1.9033806,6.4236102,-0.9504932,-42.0916023,-85.3053436,-0.7022901
3790,-2.3271523,3.8163381,-1.9440818,-62.6717567,-84.1603088,13.6030531
3800,-2.0063307,0.5578461,-2.0518203,-80.5801544,-86.7938919,31.7786255
3810,-0.8499373,-3.1723011,-1.1779412,-92.6564865,-80.9236679,50.1374054
3820,0.4165890,-7.0149751,-0.1173153,-97.9160309,-63.4274826,68.2824402
3830,2.0494261,-10.6900558,0.2896969,-98.1603088,-40.6793900,84.2519073
3840,3.8570392,-14.2550039,0.4213773,-96.2900772,-20.0534344,96.5801544
3850,6.0213866,-17.8558655,0.3112446,-96.6946564,-7.3587785,102.0076370
3860,10.2136126,-19.6131992,-0.8403605,-108.5038147,-5.1679387,95.0839691
3870,16.2565460,-19.6131992,-2.8826041,-145.6488495,-40.1832047,53.4122124
3880,18.0976772,-19.6131992,-2.0973101,-212.8244324,-144.9465637,-28.0000000
3890,15.6029329,-19.6131992,6.1363077,-250.1374054,-250.1374054,-105.1145020
3900,11.6357603,-19.6131992,19.2971668,-250.1374054,-250.1374054,-150.6488495
3910,8.7531567,-19.6131992,19.6126022,-224.4198456,-250.1374054,-159.5801544
3920,6.5433197,-19.6131992,19.6126022,-77.8473282,-250.1374054,-149.5877838
3930,4.1036406,-18.2556953,19.6126022,130.1221313,-91.2061081,-120.1450348
3940,2.4636209,-18.8662128,19.6126022,250.1297760,32.9312973,-74.8931274
3950,2.8897867,-18.6746769,10.6421719,250.1297760,110.7251892,-36.4351158
3960,2.6312141,-15.4736462,-4.6207857,250.1297760,158.8778687,-3.1832061
3970,2.1380112,-9.8018112,-15.7178535,250.1297760,176.3358765,26.7786255
3980,2.2505381,-3.6990228,-18.5860920,147.5572510,169.4045868,44.7480927
3990,2.9903426,0.2011119,-11.5375986,27.3435116,162.3664093,54.3435097
4000,4.4244623,1.6855093,-1.6208663,-26.1450386,164.3969421,51.8931313
4010,4.4316444,2.8227494,6.2440462,-26.1832066,150.9084015,43.6259537
4020,4.1682839,3.4739690,11.0252428,4.9160304,122.1679382,36.3511467
4030,4.4531922,3.7157819,12.3827477,46.2137413,96.1679382,32.4656487
4040,5.1235652,4.1922259,11.0946741,82.3740463,91.6183243,29.7938938
4050,5.3103123,5.7149301,7.9702568,91.8396912,101.4503784,30.3893127
4060,5.6407104,6.9455438,5.6838059,75.9923630,115.5801544,28.1221371
4070,5.7484488,8.2862902,5.3414369,48.8244286,131.8167877,23.5343513
4080,5.7699966,8.6478119,6.1602492,21.6106873,141.2366486,14.5954199
4090,5.2983413,8.3198080,7.4411407,1.7022901,138.5114441,2.2366412
4100,4.1874375,7.9870162,9.2463598,-5.4885497,120.1374054,-7.6183205
4110,3.7325413,7.7667508,10.6613255,-1.1297710,93.9923630,-13.7175570
4120,3.7229645,7.3357964,11.0779142,6.5572519,75.0229034,-19.3053436
4130,3.4380560,7.3788919,10.9414454,11.9694653,63.3664131,-24.2595425
4140,3.0980811,7.4866304,10.5895004,15.2366409,59.3435097,-26.8702297
4150,2.5569944,7.4219875,10.0651722,17.1374054,59.2213745,-28.0229015
4160,1.9704180,7.2879128,9.0356712,15.3206110,62.2213745,-28.8015270
4170,0.9457048,6.8282285,7.4674768,-1.2290076,63.4122124,-28.3664131
4180,0.2202654,6.4714942,7.0844064,-14.1603050,54.1526718,-28.4885502
4190,-0.4764437,6.2033448,7.9511032,-24.4961834,33.1908379,-25.9083977
4200,-0.2944853,5.7436604,9.2319946,-26.4809170,11.4580154,-20.2061062
4210,0.1173153,5.6239510,10.1346035,-24.3358784,-2.5114503,-14.4580154
4220,0.3543400,6.0956063,10.6972389,-22.1374054,-11.5267172,-7.6870227
4230,1.0941446,6.2320752,11.3628235,-20.6564884,-15.5801525,-2.2442749
4240,2.5115047,6.2033448,11.6477318,-18.1984730,-10.4656487,-0.8473282
4250,3.7038112,6.3541789,11.6046362,-17.9541988,3.3740458,-5.2595420
4260,3.9743545,6.2727766,11.5567522,-20.3358784,17.4503822,-13.0152674
4270,3.3734128,5.8561873,11.4921093,-21.7251911,24.5419846,-20.0458012
4280,2.3534882,5.8274570,11.5783005,-21.1908398,20.2366409,-23.6259537
4290,1.6879035,5.9782910,11.9086981,-17.6106873,7.6946564,-24.9160309
4300,1.0438666,6.1315193,12.3276815,-10.9465647,-8.7938929,-23.7862587
4310,0.9289455,6.4523406,12.6963863,-2.4580152,-25.4961834,-21.8854961
4320,1.1923064,6.4882536,12.8855276,7.6488547,-36.5877876,-20.0076332
4330,1.2330076,6.6678176,12.5742826,17.0610695,-40.4122124,-17.7404575
4340,1.8052188,7.1155310,11.6573086,22.7557259,-36.4274826,-16.6030540
4350,2.0637913,7.3980455,10.6876621,22.2366409,-25.8931293,-17.7557259
4360,1.8435259,7.6230993,10.0436249,19.0916023,-16.9465656,-19.6106873
4370,1.1252691,7.6494355,9.5599985,16.7480907,-15.9923668,-20.9541988
4380,0.5003856,7.7045016,9.2655134,15.0687027,-22.4045811,-20.3740463
4390,-0.1963235,7.9630742,9.2032642,13.8931293,-33.8702278,-17.0687027
4400,-0.5291159,8.1163025,9.3947992,11.5648851,-43.9847336,-10.9465647
4410,-0.6057299,8.4419117,9.9191265,9.0534353,-49.2213745,-2.4961832
4420,-0.7326220,9.2655134,10.6278067,7.6870227,-53.4809151,6.6564884
4430,-1.0031654,10.5152798,11.1473465,7.3435116,-64.0305328,16.5877857
4440,-0.5722113,12.3037395,11.7004042,7.7786260,-81.3053436,25.3664131
4450,0.4836263,14.2837343,12.4138727,11.3206110,-108.5267181,29.5038166
4460,2.7820482,15.6412401,12.9908724,19.4045811,-137.0076294,21.7786255
4470,4.7548604,16.3571014,12.3300753,29.4351139,-158.9236603,0.2442748
4480,5.5808558,16.0913467,10.4434547,32.9618340,-177.9770966,-28.5572510
4490,3.2345500,14.9038296,7.2974896,17.1832066,-197.7938995,-72.3740463
4500,1.5753766,14.5590658,6.3781209,2.3969467,-185.0000000,-80.8015289
4510,-0.2346306,13.5271702,5.5353661,-13.9923668,-161.6564941,-81.5190811
4520,-1.7022687,11.3508520,4.6806402,-27.8320618,-133.2442780,-75.3206100
4530,-3.9671719,8.7148495,3.6319854,-34.4580154,-108.8091583,-60.6870232
4540,-5.4994531,5.8801293,2.5617826,-34.8320618,-97.8625946,-35.9083977
4550,-5.8633699,2.7174051,1.7477583,-35.0152664,-88.9847336,-7.0458016
4560,-5.2720051,-0.5889706,1.5586174,-35.7862587,-75.0381699,24.4427490
4570,-2.8155668,-5.1068063,1.4843974,-34.8702278,-49.2824440,55.3053436
4580,-0.2346306,-10.2160063,0.7948709,-35.1603050,-11.3587790,81.9312973
4590,3.0932927,-15.2557755,-0.6775556,-47.4580154,40.8625946,104.2977066
4600,7.7068958,-19.5485573,-2.0829449,-78.4427490,98.2900772,118.8167953
4610,12.6054077,-19.6131992,-3.4260850,-132.0076294,119.2595444,113.0763321
4620,14.4609041,-19.6131992,-2.5761478,-212.4503784,50.9847336,88.2595444
4630,14.5662489,-19.6131992,6.4044566,-250.1374054,-116.7633591,59.0458031
4640,16.6013088,-19.6131992,19.6126022,-250.1374054,-250.1374054,32.1679382
4650,19.6126022,-19.6131992,19.6126022,-188.2900696,-250.1374054,-4.0610685
4660,19.6126022,-16.7210197,19.6126022,-56.9160309,-250.1374054,-60.5648842
4670,19.6126022,-13.2398672,19.6126022,63.7251892,-244.2442780,-119.2366409
4680,13.5128050,-13.2039547,19.6126022,169.7557220,-67.7480927,-156.0458069
4690,5.7484488,-15.8136215,19.6126022,250.1297760,64.8167953,-149.8091583
4700,-1.3359578,-16.8742466,4.6519103,250.1297760,127.6335907,-101.2748108
4710,-6.0668759,-13.8479919,-10.6972389,250.1297760,128.6946564,-25.5496178
4720,-4.2927818,-9.1122847,-15.4042149,163.3587799,77.1984711,36.4732819
4730,0.4213773,-5.3965030,-9.4067707,84.0381699,33.8625946,66.5801544
4740,4.2065907,-3.3255291,-1.0965388,59.5114517,11.2595415,69.2519073
4750,6.5696559,-1.8219782,4.8721757,78.2442780,-18.8167934,53.9312973
4760,7.8673067,-1.0223188,7.0891948,121.3740463,-52.2671738,29.7938938
4770,7.7691450,-0.8810617,5.1283536,166.5954132,-66.8702316,6.4961834
4780,6.4427638,-0.3160330,0.7445929,186.1679382,-63.0763359,-5.8244276
4790,4.5465660,1.4221486,-3.7038112,166.5190887,-44.4732819,-5.9694657
4800,2.8131726,3.6343796,-5.0397687,120.1603088,-19.9007626,5.0534353
4810,2.3319404,5.1092005,-3.2872221,72.5648880,-0.0152672,24.1221371
4820,3.4500270,5.4276276,0.1556223,41.3358765,4.6183205,38.5954208
4830,5.0517397,6.0429344,3.4189026,31.1374054,4.3664122,45.2213745
4840,7.4507174,6.9814563,4.9104824,41.1679382,0.6946565,44.2595406
4850,9.1553802,8.0301113,5.7747850,19.6641216,4.4198475,19.2366409
4860,9.2750902,8.2431946,5.4946647,14.3740454,0.4809160,7.8549619
4870,8.9183559,8.2910776,5.1858144,5.1908398,2.4809160,-2.7480917
4880,7.6254935,7.7859039,5.4443870,-15.1221371,13.2595415,-17.4809170
4890,6.6869712,7.7643566,5.8633699,-22.1221371,17.5725193,-17.7938938
4900,5.9974446,7.9223728,6.1363077,-26.7557259,18.6183205,-13.7938929
4910,5.6670465,8.4036045,6.4667058,-29.8396950,18.6106873,-9.1679392
4920,5.6646523,8.5711985,6.6965480,-32.2900772,20.4351139,-4.7862597
4930,5.9998388,8.3389616,6.8904772,-34.7862587,23.1908398,-1.4732825
4940,6.8521700,7.6685886,7.5488791,-37.9847336,29.9847336,-0.3740458
4950,6.9766679,7.1538382,7.6398587,-36.7175560,33.0763359,-1.5877863
4960,6.8904772,6.9958215,7.6374645,-35.0076332,34.7938919,-1.2671756
4970,8.0396881,8.6142941,8.2647419,-14.8625956,16.0687027,-0.1832061
4980,7.9343438,8.7914639,8.1354561,-14.8244276,14.9618320,-3.5114503
4990,7.8146343,8.8824425,8.2910776,-15.8244276,10.8320608,-7.3969464
5000,7.6015515,9.0524302,8.7818871,-14.7557249,6.3740458,-10.9541988
5010,7.2424231,9.1266499,8.9758167,-11.7328243,1.1755725,-13.5114508
5020,6.7803445,9.1649570,8.9446917,-8.5572519,-2.2061069,-13.7557249
5030,6.4331870,9.1458035,9.0404596,-5.8854961,-7.6183205,-12.1068707
5040,6.2608056,9.1434097,9.2942438,-2.7328243,-14.8625956,-9.1679392
5050,6.4116392,10.2112179,9.8257532,8.6946564,-33.0458031,-2.6030533
5060,6.7444315,11.0994625,9.6102762,16.1374054,-42.8473282,-0.6412213
5070,6.5600791,11.8799677,8.7004843,24.0916023,-57.5572510,0.7328244
5080,5.9088597,12.9693241,7.0149751,31.8473282,-82.0457993,1.4885496
5090,4.8482337,14.1951494,4.6734576,39.0228996,-123.0152664,4.8549619
5100,4.7021880,15.8231983,1.9799947,39.2442741,-181.5801544,5.2290077
5110,5.5593081,17.1495800,-0.3639168,29.7022896,-250.1374054,0.0839695
5120,7.5057840,17.9420567,-1.8483143,9.9694653,-250.1374054,-10.1450386
5130,8.8728657,17.4105453,-2.0566087,-16.6106873,-250.1374054,-22.1068707
5140,8.8848372,15.7896795,-1.0989330,-42.9083977,-250.1374054,-31.5801525
5150,7.9151902,14.1400833,0.3591284,-64.4732819,-250.1374054,-33.9236641
5160,6.7109132,11.9853125,1.6519908,-79.1908417,-250.1374054,-29.3206100
5170,4.8841467,9.3493099,1.7429699,-87.4580154,-223.2900696,-18.1221371
5180,3.2944047,6.7372489,0.5913648,-94.8167953,-164.9389343,-2.4122138
5190,2.8419030,3.6008608,-0.4501076,-104.4198456,-116.2290039,11.5725193
5200,2.7772598,0.2442073,-0.3232156,-111.2290039,-84.9923630,19.7480907
5210,3.3183465,-4.0294209,1.1252691,-108.0534363,-64.1068726,23.7251911
5220,4.3263001,-8.8800488,3.1172347,-87.6259537,-41.0228996,24.8931293
5230,6.5624733,-15.0714226,3.9623835,-58.6641235,-11.6183205,29.0000000
5240,9.7515335,-19.6131992,4.2161674,-36.0305328,19.4274807,38.6564903
5250,10.5751352,-19.6131992,3.2584918,-37.3816795,41.7022896,63.4885483
5260,11.0467901,-19.6131992,2.1260402,-65.0839691,58.1908379,106.1526718
5270,12.5982246,-19.6131992,2.4803803,-110.7328262,53.2290077,153.0152740
5280,16.1033192,-19.6131992,6.3613615,-157.8854980,27.5954189,170.4427490
5290,19.6126022,-18.2724533,12.9501705,-175.7633514,-4.6335878,138.1450348
5300,19.6126022,-13.7139168,19.6126022,-141.5801544,-39.6183205,70.8167953
5310,19.6126022,-10.1848822,19.6126022,-51.0992355,-43.1450386,-10.1526718
5320,17.9779682,-8.2144642,19.6126022,70.5114517,-19.0839691,-79.0916061
5330,12.5599174,-8.4395180,19.6126022,177.2977142,14.8625956,-119.6793900
5340,7.5225434,-9.6054878,10.2902260,241.5267181,53.0687027,-124.4274826
5350,4.8242917,-9.7323799,0.7924767,250.1297760,92.1832047,-111.5419846
5360,2.7820482,-8.1330614,-5.2001796,227.7099304,119.8244247,-86.3053436
5370,1.9632354,-6.3326311,-8.0277176,185.7557220,128.4580078,-54.8778610
5380,2.5593886,-4.3550305,-8.7531567,138.7175598,123.9007645,-27.8091602
5390,5.9519548,0.3974355,-4.4771342,71.5572510,113.6106873,-8.0076332
5400,7.0580707,1.3958124,-2.0781565,55.4961815,105.5038147,-13.0839691
5410,7.5177550,2.5115047,-0.1915352,49.3969460,95.4961853,-21.9541988
5420,7.6590118,3.4356618,1.2330076,49.6488533,78.4351120,-32.6030540
5430,6.7923155,4.7811961,1.4101776,52.8702278,64.5114517,-37.0381660
5440,5.9902620,5.6047974,0.7374104,48.2977104,56.4198456,-33.2824440
5450,5.5928264,6.2009506,0.1268920,35.6641235,50.2977104,-24.5648861
5460,5.7939386,6.6845770,0.2082945,20.1679382,45.2977104,-15.7404585
5470,6.2512288,6.6151457,1.1923064,4.8244276,35.6335869,-5.8625956
5480,7.8601241,6.3062949,2.1547706,-6.5954199,23.4503822,0.3358779
5490,9.1960821,6.0022330,3.4907281,-12.3053436,15.4656487,-1.8015267
5500,9.7539282,6.7061248,3.3398943,-23.0763359,16.1832066,-4.5877862
5510,10.5320396,6.5193777,4.2329268,-30.9923668,27.2671757,-13.4427481
5520,10.1776991,6.3158717,5.0469513,-32.9541969,37.7786255,-23.6335869
5530,8.9542685,6.4331870,5.4659348,-32.0305328,43.3893127,-27.4961834
5540,8.3868456,6.7779503,5.7867560,-29.3664131,47.4045792,-27.6335869
5550,7.8122401,7.0245519,5.5640965,-28.4045811,48.8854980,-27.9923668
5560,6.9910331,7.4866304,5.1403246,-31.9236641,50.6412201,-25.3740463
5570,6.7994981,7.8050575,5.0972295,-37.9007645,54.6793900,-22.1603050
5580,6.8306227,7.4076223,5.2528515,-44.8320618,53.2290077,-21.7251911
5590,6.7683735,7.0030041,5.9016771,-51.1297722,44.8473282,-23.4580154
5600,6.5409255,6.6390872,6.6295104,-52.8778610,34.7175560,-25.7328243
5610,6.0764527,6.2129216,7.3693151,-51.4045792,22.6183205,-26.1068707
5620,5.2432747,6.0596933,7.8625183,-47.6106873,14.2519083,-21.2977104
5630,4.6207857,6.1243367,7.9463148,-42.6412201,13.3129768,-10.7251911
5640,4.6399393,6.6079631,8.0636301,-34.9771004,19.7175579,15.9694653
5650,5.0086441,6.9646969,8.4538832,-30.0687027,20.1908398,29.3893127
5660,6.0333576,7.6087341,8.5472565,-24.1068707,20.1221371,39.8167953
5670,6.9910331,8.5185261,8.4562769,-19.1679382,24.5419846,45.7022896
5680,7.8984308,9.4307127,8.4730368,-18.1145039,31.5801525,47.8091621
5690,8.7914639,10.3045912,8.7986460,-21.5038166,43.0381660,45.8625946
5700,9.4905672,10.9366570,9.6366129,-26.1221371,56.1145020,40.4427490
5710,9.8544836,11.2933912,10.9677820,-26.0839691,68.8320618,33.1221390
5720,9.9502516,11.3724003,12.2702208,-19.7404575,83.2977066,25.2671757
5730,9.9837704,11.2048063,13.4553452,-7.4732823,99.1526718,18.4274807
5740,10.1226330,11.2909975,13.8719339,4.8244276,118.5114517,11.6793890
5750,9.8568783,11.2814207,13.9126348,13.8167934,145.6717529,5.1603055
5760,8.8680773,11.2766323,14.2980995,21.6030540,169.7328186,0.0610687
5770,7.4052281,11.3676119,14.5590658,30.8549614,185.5648804,-1.2137405
5780,5.8992829,11.5136566,14.3076763,44.0381660,191.4809113,2.6564887
5790,4.4077029,13.2039547,10.0939026,70.7633591,162.7786255,17.9465656
5800,3.9288650,13.9605188,8.1929159,66.0916061,149.9541931,16.6946564
5810,3.7804251,14.0467091,6.8497758,55.0992355,138.1984711,13.8015270
5820,3.2680686,13.4290085,5.9926562,42.5801544,129.1908417,9.6564884
5830,2.2050486,12.7370882,4.7572546,33.1145020,117.7480927,8.7938929
5840,1.3598996,11.7722292,3.1172347,26.5038166,95.9236679,11.3206110
5850,1.2952565,10.8265247,0.6272776,17.0763359,66.3282471,14.1374044
5860,3.3494711,7.9080076,-3.8809812,-23.4732819,-10.7862597,7.9618320
5870,4.3789725,5.9495606,-4.5824785,-49.7251892,-47.9618340,-1.9541985
5880,5.4898763,3.5434003,-4.2065907,-75.5343475,-74.5725174,-12.3969469
5890,6.4164276,0.5985473,-3.6966286,-99.3129807,-81.9770966,-21.4503822
5900,6.5864153,-2.6360025,-2.3534882,-119.4885483,-80.1755753,-28.1755733
5910,6.7516141,-6.0309634,-0.6177009,-131.2824402,-68.5648880,-30.2290077
5920,7.5895805,-10.1226330,0.7996593,-138.2061005,-39.0228996,-28.5648861
5930,9.5528164,-16.1871147,1.2665262,-156.7938995,15.9236641,-29.0305347
5940,9.5839405,-19.6131992,2.3678534,-197.0458069,71.4885483,-37.9007645
5950,7.7787213,-19.6131992,6.6127515,-245.2595367,83.6946564,-52.4503822
5960,6.6007805,-19.6131992,13.5750542,-250.1374054,47.1297722,-74.7175598
5970,4.5417776,-19.6131992,19.6126022,-240.3893127,-17.4198475,-98.6564865
5980,1.8578910,-19.6131992,19.6126022,-128.6183167,-73.1908417,-115.0992355
5990,-0.3375807,-19.6131992,19.6126022,42.6488533,-91.9389343,-110.4274826
6000,-3.3063757,-19.6131992,19.6126022,214.6335907,-48.6946564,-69.7175598
6010,-2.1691356,-17.6308117,18.1288033,250.1297760,10.2213745,-18.8931293
6020,-1.0725969,-13.7043400,4.1515245,250.1297760,56.6564903,23.3816795
6030,-0.4381367,-9.4594421,-7.1059542,250.1297760,81.6564865,62.2748108
6040,0.8475431,-5.0182209,-13.6133614,226.2213745,94.2595444,94.8244247
6050,3.6080434,-1.4245427,-13.8527803,120.9618301,102.4122162,115.7786255
6060,6.1794028,1.0199248,-8.5999289,33.9618340,122.5801544,118.3740463
6070,7.1610208,2.4971397,-1.6280488,-15.5877867,153.1755676,112.0763321
6080,6.9239960,3.5290353,3.5003049,-29.8244267,177.9084015,104.4885483
6090,6.5505023,4.1587071,6.6726060,-23.0992374,190.5038147,97.6793900
6100,6.0860295,4.7883787,7.6063399,-6.8091602,192.4045868,93.1755753
6110,5.6598639,6.1889796,6.4331870,12.7175570,160.2595367,79.9542007
6120,5.9974446,6.5983863,5.8873119,10.6793890,128.9389343,69.1755753
6130,6.1841912,6.9934273,6.0333576,5.9312978,92.4045792,55.6870232
6140,6.7013364,7.0245519,6.7635851,1.3664122,53.6870232,40.8549614
6150,7.6135225,6.5576849,8.1091194,-8.3511448,5.6183205,11.8549614
6160,7.5488791,6.5217719,9.2511482,-14.5114508,-6.4503818,-2.2290077
6170,7.4339581,6.2296810,10.3069859,-15.9847326,-10.6030531,-14.1908398
6180,7.4076223,5.9782910,10.8815908,-16.6870232,-3.8167939,-25.4427490
6190,6.9287844,5.9639258,11.3364868,-17.5267181,7.9083967,-36.1450386
6200,6.0812411,5.6287394,11.6381550,-13.8244276,16.9083977,-44.3816795
6210,5.4587522,4.8290801,11.1329813,-10.2824430,23.7938938,-50.7480927
6220,4.2975702,4.6710634,10.4745789,-12.9007635,29.4580154,-55.4045792
6230,3.2776453,4.7261300,10.6062593,-13.8778629,34.6717567,-56.6259537
6240,2.7509236,4.6590929,10.5080976,-11.5648851,38.5725174,-54.3893127
6250,2.3606708,4.8051381,9.6102762,-14.1221371,44.3511467,-52.7709923
6260,1.4173602,5.2217274,9.3038206,-22.4427490,42.1755714,-52.1755714
6270,0.9073978,5.2336984,9.7347746,-28.2748089,30.8473282,-52.2977104
6280,0.7206510,4.7285242,10.0555954,-29.8473282,16.7099228,-53.7938919
6290,0.2226596,4.2640514,10.3476868,-28.8625946,1.6793894,-54.0839691
6300,-0.3639168,4.0581512,10.6589317,-26.0152664,-17.1221371,-51.9465637
6310,-0.4596844,3.9767487,10.9821472,-21.2137413,-34.6946564,-47.5343513
6320,-0.7517755,4.0988522,10.8815908,-15.8091602,-45.5419846,-40.6946564
6330,-0.9050036,4.6040263,10.5607700,-13.0000000,-49.5572510,-30.3893127
6340,-0.7421987,5.3198891,10.3979645,-13.9465647,-46.0763359,-19.0229015
6350,-0.2106887,5.6574697,10.1824875,-17.7709923,-35.8244286,-9.1450386
6360,0.4357425,5.9351954,10.2088242,-23.6641216,-21.3282452,-2.2061069
6370,0.9433106,6.0357518,10.4626083,-30.3816795,-6.7480917,-0.0305344
6380,1.5394639,5.8968887,10.9677820,-34.5267181,1.9465649,-2.5725191
6390,1.7453641,5.8035154,11.5639353,-34.5648842,3.2748091,-9.6641226
6400,1.5107336,5.7101417,12.0116482,-29.5190830,-2.5725191,-18.0152664
6410,0.6919208,5.5904322,12.2079716,-21.6641216,-11.7404585,-23.5648861
6420,-0.2226596,5.7388721,12.1912127,-13.3511448,-20.7480907,-23.1832066
6430,-0.6799498,6.0501165,11.9470053,-7.4198475,-26.5725193,-18.6259537
6440,-0.8978211,6.3182659,11.8512383,-4.8320613,-26.8549614,-11.8244276
6450,-0.9768293,6.5720501,11.8799677,-4.1984735,-21.6717548,-3.1755726
6460,-1.1492109,7.0125809,12.3372583,-4.0610685,-14.3206110,6.3053436
6470,-0.9624642,7.6039457,12.7753954,-1.3587786,-9.1832066,15.3282442
6480,-0.1053443,8.2216463,13.2278967,3.7786260,-5.4198475,22.5190830
6490,0.9744351,10.2974091,12.4138727,20.9618320,2.8473282,34.7633591
6500,1.5274929,11.1880474,12.0044661,23.0076332,-7.9465647,37.2213745
6510,2.3510940,12.2654324,12.0834742,24.1068707,-24.3358784,35.4580154
6520,3.1531475,13.1129761,12.4402084,24.3740463,-43.9771004,27.9770985
6530,4.0701222,13.4337969,13.2422619,26.7404575,-58.9083977,15.6641226
6540,3.6726866,13.9677010,14.1520538,34.6412201,-64.3587799,3.4351146
6550,2.6695213,14.5614605,14.5231533,46.8015251,-67.7404556,-0.2977099
6560,2.7820482,14.3627424,13.9054527,60.4122124,-66.8396912,-0.7633588
6570,3.0406206,13.5678720,12.1241751,72.4198456,-60.4580154,-2.0992367
6580,2.8012016,13.1249466,9.1888990,76.5496216,-55.8244286,-3.1068702
6590,2.8658447,12.9717188,6.1291251,69.7175598,-54.1526718,-2.6870229
6600,3.7085996,12.4952745,3.5050933,53.2900772,-51.7862587,-6.2977099
6610,4.1347651,12.3324699,1.7214222,30.5954189,-45.9771004,-14.7480917
6620,4.6543045,11.2766323,0.4309541,4.2213740,-40.5343513,-27.2519093
6630,4.6112089,9.2583303,-0.4429250,-22.4732819,-32.0228996,-41.1679382
6640,4.3981261,6.4307928,-0.9720409,-47.4122124,-20.4351139,-52.5648842
6650,3.9743545,3.2225790,-1.3910241,-72.7786255,-0.9236641,-61.9465637
6660,2.4277081,-0.4860204,-1.2330076,-92.3969498,15.7786255,-63.8244286
6670,0.3327923,-4.0964580,0.0311245,-101.1984711,15.6793890,-55.3587799
6680,-1.1396341,-7.6829538,1.6998745,-92.9847336,-7.3969464,-37.3435097
6690,-0.9193687,-10.4338779,2.6024840,-76.4656525,-35.3664131,-12.9465647
6700,1.8818330,-14.0179796,2.0087249,-73.2671738,-19.3664131,12.8931293
6710,5.2648225,-17.7313671,0.0550664,-103.1221390,44.6335869,26.1679382
6720,6.6151457,-19.3737812,-0.2849085,-161.5572510,102.4732819,22.7404575
6730,7.6159167,-19.6131992,3.1914546,-216.2595367,100.2519073,4.2061067
6740,7.1897511,-19.6131992,10.3955708,-240.9618378,19.9770985,-27.4885502
6750,5.0349803,-19.6131992,19.6126022,-216.4427490,-103.2900772,-51.1374054
6760,3.9982965,-19.6131992,19.6126022,-142.5419922,-231.7938995,-59.6335869
6770,5.9328012,-19.6131992,19.6126022,-39.5801544,-250.1374054,-64.5572510
6780,7.0317345,-16.3451309,19.6126022,59.5572510,-250.1374054,-64.7709961
6790,6.9766679,-13.5582952,19.6126022,130.4198456,-144.9160309,-58.6106873
6800,5.9351954,-12.0762920,18.2149925,178.7557220,-23.8244267,-47.4122124
6810,3.6990228,-10.9270811,10.4506369,202.7251892,68.1068726,-27.4656487
6820,2.2242019,-9.5647869,3.2465210,196.5572510,121.8396912,-1.7251909
6830,1.7453641,-7.7116842,-0.8283895,170.0000000,137.8167877,23.7557259
6840,2.5043221,-5.8825235,-2.4492557,135.4351196,134.0992432,42.9465637
6850,3.8163381,-4.0629396,-1.9823889,102.9542007,129.8015289,51.7709923
6860,4.9248476,-2.3917952,-0.1436514,78.3816757,130.9465637,51.5801544
6870,5.5305777,-1.0773853,1.4293311,65.3664093,138.4198456,45.9007645
6880,5.0565281,-0.0239419,2.2289903,57.9694672,142.4045868,38.7557259
6890,4.2736282,0.9289455,2.5785420,52.8854980,139.7022858,33.3893127
6900,3.3758070,2.3223639,2.5522060,47.3206100,134.0381622,32.1221390
6910,3.3734128,3.5410061,2.4708035,37.3511467,129.0000000,31.3740463
6920,3.3207407,4.3981261,2.6336083,22.0305347,122.8244247,28.3053436
6930,3.3590479,5.3581958,4.9870968,-9.8473282,104.0610657,18.5343513
6940,3.1794837,5.9495606,6.6941538,-17.2366409,86.8396912,11.7175570
6950,2.6814921,6.8210459,9.3493099,-13.5343513,61.7404594,-3.0152671
6960,1.9632354,7.1442614,9.9406748,-8.2671757,62.6335869,-10.3740454
6970,0.8355721,7.4531116,10.1561518,-1.2366412,66.3435135,-15.3282442
6980,-0.8116302,7.9391322,9.2487535,4.5343513,63.9236641,-12.9083967
6990,-1.7022687,7.8170285,8.7028790,10.0687027,61.1145020,-5.6946564
7000,-2.6431851,8.5209198,6.9192076,16.5725193,52.1984749,23.0916023
7010,-0.0814024,9.8999729,6.6726060,-13.2366409,48.0839691,44.3282433
7020,1.3910241,10.7307568,7.3956513,-38.6259537,57.0916023,43.5725174
7030,2.5761478,11.4777441,9.0045462,-64.5877838,61.8778610,32.5038185
7040,2.9999194,11.4035244,11.2766323,-82.5572510,54.4885483,10.2442751
7050,2.0422437,10.5775290,13.9557304,-86.3893127,30.7328243,-14.4427481
7060,0.3280039,9.3780403,16.1057129,-74.0610657,-6.7022901,-32.8244286
7070,-1.2689204,8.7076674,16.8335457,-53.3893127,-47.5190849,-40.5954208
7080,-2.5043221,8.9039907,16.7114429,-34.9847336,-81.0763321,-37.6412201
7090,-2.7676830,9.3301563,16.2780933,-24.5572510,-101.5725174,-28.6106873
7100,-2.4468615,9.8042059,16.1703548,-19.9083977,-107.6106873,-17.7633591
7110,-1.9560528,10.2303715,15.9931860,-18.7480907,-103.5114517,-6.9236641
7120,-1.0773853,10.7211800,15.7441902,-20.7862587,-94.2977066,1.8549619
7130,-0.4094064,11.0443964,15.8974180,-23.1908398,-82.9389343,7.9083967
7140,0.2777260,11.8847561,16.3594971,-21.0839691,-76.0457993,9.8015270
7150,1.0941446,12.8280668,16.3978043,-14.0229006,-71.6030502,7.7786260
7160,1.9057748,13.6373034,15.7753143,-8.2977095,-65.6335907,0.6106870
7170,2.2122312,13.9437590,14.8176384,-5.6946564,-58.8778610,-12.4274807
7180,1.4101776,13.5630836,13.9796724,-1.8244275,-56.3587799,-25.4656487
7190,0.2011119,13.2566271,12.8328552,4.6870227,-60.2519073,-32.3740463
7200,-0.6033357,13.0243902,11.3556404,12.8167934,-72.5801544,-35.3587799
7210,-0.9672526,12.5407648,9.5599985,20.2748089,-88.0000000,-35.6717567
7220,-1.1970947,11.7722292,7.4052281,25.0152664,-100.0916061,-31.9847336
7230,-1.0151364,10.9677820,4.7835903,22.9312973,-111.0839691,-25.9083977
7240,-0.3040621,9.9239149,2.4803803,13.1526718,-117.7938919,-16.7709923
7250,1.2713146,8.2360115,0.7565638,-0.4732825,-115.7633591,-9.0152674
7260,2.5785420,6.2799587,-0.6081241,-18.1297703,-108.3435135,-5.5038166
7270,3.6822634,3.6439564,-1.6831152,-40.7404594,-99.1068726,-4.9160304
7280,4.5992379,0.4644727,-1.8985922,-64.2900772,-88.6793900,-4.4732823
7290,5.0517397,-2.7940190,-0.8523315,-82.0610657,-81.9923630,-4.7022901
7300,5.2384863,-5.9854736,0.6775556,-89.2824402,-84.8931274,-3.9618320
7310,5.6311336,-9.1194677,1.9680238,-85.9542007,-96.3435135,-0.8854962
7320,6.6702118,-12.7275114,2.3391230,-81.0076370,-110.1145020,3.9770992
7330,8.3150196,-16.6898956,2.1308286,-90.6259537,-116.8320618,8.1679392
7340,10.7594872,-19.6131992,2.7557120,-120.9389343,-120.1526718,2.3816793
7350,12.1145983,-19.6131992,6.2847471,-163.3206177,-123.4427490,-18.6946564
7360,11.2646618,-19.6131992,13.6085730,-184.6641235,-125.0839691,-44.4656487
7370,6.9383612,-18.6579189,19.6126022,-86.5114517,-102.9618301,-72.9389343
7380,3.6032550,-16.2733059,19.6126022,31.7251911,-57.8854980,-68.8625946
7390,1.8219782,-14.9014349,19.6126022,155.4580078,-12.0305347,-48.6030540
7400,1.6304430,-14.0730457,16.8215752,242.4580078,24.3282452,-22.8320618
7410,2.3151813,-12.8831339,6.9575148,250.1297760,60.4885483,2.8625953
7420,3.5338237,-10.5392218,-1.9440818,250.1297760,98.5343475,26.0229015
7430,4.2927818,-5.6287394,-7.2759418,106.1908417,147.0763397,54.4732819
7440,4.6399393,-3.8546450,-3.0406206,47.9541969,157.5419922,61.0076332
7450,4.9416070,-2.6934631,1.3958124,26.8931293,155.2671814,60.9618340
7460,5.0493455,-1.5586174,4.5824785,28.8549614,138.7862549,59.4732819
7470,5.5090299,-0.5482694,6.2177100,41.7251892,121.9694672,54.6793900
7480,5.8035154,0.1364688,6.6319046,55.8473282,109.5801544,47.9847336
7490,5.3222833,1.0151364,6.1626434,64.8931274,107.3587799,44.1832047
7500,4.7716198,2.7868366,5.0373745,64.2290039,112.9236679,43.2061081
7510,4.3789725,4.4148855,4.2233500,50.7099228,116.9160309,44.0839691
7520,3.9240766,5.3965030,4.2520804,30.1526718,117.1068726,44.4198456
7530,3.4332676,6.5289545,5.4348102,14.2748089,108.4656525,44.9923668
7540,4.0725164,6.8689294,6.6534524,6.5267177,91.2442780,44.7328262
7550,4.9320302,6.7971039,7.4411407,2.7480917,70.8473282,37.6335869
7560,5.2456689,6.5983863,8.2312231,2.4656489,53.0610695,26.6183205
7570,4.5609307,6.9862447,8.8345594,3.9007633,40.8396950,16.3206100
7580,3.9025288,7.7763271,9.0189114,6.9389315,34.0152664,10.6564884
7590,3.3758070,8.1929159,8.8154058,8.7099237,29.6183205,6.8396945
7600,2.9448531,8.9518747,7.6111283,-5.1679387,32.1450386,6.5190840
7610,2.1284344,9.4618368,8.8824425,-34.7175560,43.8625946,-3.2824428
7620,1.8842272,8.9327211,9.7443514,-40.3893127,41.7480927,-7.2366414
7630,1.6950861,8.2096758,10.3979645,-42.6183205,36.6793900,-12.6946564
7640,1.3263810,7.5991573,10.8696203,-40.3816795,24.5343513,-18.0839691
7650,0.7829000,6.7635851,11.2479019,-34.7328262,7.0534353,-22.0076332
7660,0.2250538,5.9399838,11.1856527,-26.9847336,-9.2290077,-21.5190830
7670,-0.0742199,5.4491754,10.9366570,-20.8015270,-21.0152664,-16.9770985
7680,-0.1125269,5.2983413,10.5272512,-17.2442741,-27.5496178,-9.6641226
7690,-0.0694315,5.5353661,10.3381100,-17.0992374,-27.9770985,1.0152671
7700,0.3950413,5.8513989,10.2591019,-20.5725193,-21.9312973,12.0152674
7710,1.3383518,6.0836353,10.3883877,-26.7862587,-11.8473282,20.5801525
7720,2.3343346,6.1985564,10.9845409,-33.4122124,-1.0152671,24.0687027
7730,3.0262554,6.3110833,11.8440552,-36.4351158,5.6259542,22.3740463
7740,3.3758070,6.2608056,12.6173782,-33.0305328,6.1603055,17.5954189
7750,3.5266411,6.0620875,13.1536770,-23.3664131,1.5190840,11.6946564
7760,3.3279233,6.2368636,13.2446556,-11.7328243,-6.5572519,5.8778625
7770,2.7054341,6.8210459,12.5910425,10.3664122,-30.5190830,-0.7480916
7780,2.5953014,6.9239960,11.9517937,16.5267181,-39.9389305,0.3511450
7790,2.7485294,7.1682034,11.6046362,19.4427490,-47.7862587,1.3129771
7800,3.1435707,7.3214312,11.5974541,21.3969460,-54.0228996,1.9312977
7810,3.4739690,7.7188668,11.7267399,24.7022896,-56.1526718,2.2671757
7820,3.6319854,8.2623482,11.8751793,28.7862587,-56.0381660,1.9618320
7830,3.4811516,8.6166878,11.5256281,32.4198456,-56.1297722,2.1526718
7840,3.5098817,8.9087791,10.9773588,33.1755714,-57.2061081,3.3053436
7850,3.5314295,9.2272062,10.6685085,29.5496178,-61.5419846,4.8015265
7860,3.5888901,9.4785957,11.0635490,26.2977104,-72.3816757,5.3740458
7870,3.9504125,9.6461897,11.7434988,29.6641216,-89.8015289,3.8167939
7880,4.3622131,10.0005293,12.1409349,39.6641235,-110.7633591,0.3587786
7890,4.9320302,10.1585455,12.0882626,52.9618340,-129.4809113,-4.6641221
7900,5.5305777,10.5224628,11.2359314,66.9847336,-143.2061005,-11.8702288
7910,5.9687142,11.2766323,9.5312681,75.7175598,-147.5725250,-20.1450386
7920,6.3613615,11.8584204,7.3094602,72.9389343,-140.0381622,-28.2137413
7930,7.0413113,11.7961712,5.2983413,55.3816795,-117.7099228,-36.8244286
7940,7.3166428,11.0755205,4.5322008,28.2748089,-85.5038147,-47.0458031
7950,6.4116392,10.1633339,4.6926112,2.6641221,-51.0916023,-55.7099228
7960,5.1499014,9.1051025,5.2935529,-13.2671757,-25.5496178,-59.6030540
7970,4.2209558,7.7236552,4.9152708,-21.5801525,-7.6717558,-61.4656487
7980,3.0047078,6.4786768,4.3071470,-25.0229015,3.0152671,-61.3206100
7990,1.5634058,5.6981707,3.2848279,-24.2442741,4.8931298,-55.9160309
8000,0.8595140,4.7285242,1.9632354,-22.9618320,0.7404580,-47.0152664
8010,0.7565638,3.3758070,0.1795642,-26.1908398,-4.9236641,-37.5572510
8020,0.7805058,1.8626794,-1.0965388,-36.6870232,-9.3129768,-28.8015270
8030,1.0869620,-0.3160330,-1.0318956,-49.9312973,-13.7633591,-18.9770985
8040,1.5466464,-2.6168492,-0.4094064,-59.9847336,-7.9847326,-7.2366414
8050,3.0980811,-7.7356262,0.0790083,-83.9923630,43.8854980,22.1145039
8060,3.8522508,-11.0036945,-0.1891410,-112.9770966,86.5572510,35.9541969
8070,5.2432747,-14.0419216,0.5482694,-155.5343475,121.7633591,44.4274826
8080,7.1346846,-17.2692890,3.0166788,-205.1145020,127.1984711,36.9771004
8090,7.2376347,-19.6131992,9.3517036,-242.2519073,66.3129807,9.3206110
8100,6.0070214,-19.6131992,19.1654873,-234.1145020,-61.7633591,-22.1755733
8110,4.4819226,-19.6131992,19.6126022,-169.4732819,-211.4198456,-41.1984749
8120,5.9423780,-19.6131992,19.6126022,-52.6488533,-250.1374054,-50.8473282
8130,6.7420373,-17.4368820,19.6126022,69.3053436,-250.1374054,-50.1984749
8140,6.8880830,-14.1329002,19.6126022,151.0305328,-162.9618378,-41.8931313
8150,6.1195483,-11.9063044,18.1671104,190.9160309,-21.3435116,-28.8091602
8160,4.4651632,-10.6541433,10.5464048,199.8320618,104.6488571,-9.0000000
8170,2.3486998,-8.9710283,3.9575951,184.2671814,189.1679382,18.8244267
8180,1.3335636,-6.7851329,-1.1037214,148.1221313,219.6412201,50.9389305
8190,2.4660151,-4.6926112,-2.9999194,99.3969498,219.1526642,72.6564865
8200,3.5649481,-2.5019281,-1.7070571,59.0381660,205.2442780,79.3664093
8210,4.4244623,-0.9624642,1.1348459,36.7557259,186.0152740,77.0229034
8220,5.3486195,0.2992737,3.2967989,31.1755733,163.3587799,67.2213745
8230,5.6694407,1.3694763,4.2209558,28.3740463,148.2290039,53.0076332
8240,5.4372044,2.6096666,4.6686692,24.5267181,138.8702240,36.6488533
8250,4.5968437,3.2369442,4.8602047,19.0992374,124.7633591,21.6488552
8260,3.4859397,3.4428444,4.8602047,11.0076332,109.8091583,12.5190840
8270,2.8012016,3.7516949,5.1810260,1.5038168,95.7862625,9.3358774
8280,2.3846128,3.9719603,5.5210009,-9.5343513,83.3816757,9.4427481
8290,1.9488702,4.3957319,6.1985564,-21.5038166,72.8320618,12.8854961
8300,1.8291607,5.0254035,7.4100165,-34.3587799,63.7099228,16.8549614
8310,1.6328372,5.8561873,8.9758167,-43.0458031,51.1908379,19.9465656
8320,2.1212518,6.1889796,10.8720140,-44.4045792,32.5648842,19.6717548
8330,2.7054341,6.1267309,12.4665442,-36.9236641,16.0229015,16.1145039
8340,3.9312592,6.0788469,13.1824074,-8.1679392,3.0839694,1.4198474
8350,3.9408360,6.4978304,12.4976692,2.9770992,4.8931298,-4.4732823
8360,3.2824337,7.6398587,10.6948442,-2.1374047,21.8091602,-9.4351149
8370,2.7748656,8.5520449,10.8911676,-10.2824430,28.2900772,-9.0229006
8380,2.4157372,8.8872309,11.1784706,-13.7480917,27.7099228,-8.3358774
8390,2.1739240,9.1984758,11.1569233,-15.4580154,26.0839691,-7.9083967
8400,1.5227045,10.0340481,11.1688938,-17.7938938,23.6030540,-6.4351144
8410,1.3311694,10.5272512,11.3269100,-20.3893127,20.5877857,-4.7251906
8420,0.9097920,10.9103212,11.7363167,-22.6335869,17.1755733,-3.7251909
8430,0.5817881,11.4561968,12.1600885,-24.1526718,11.5267172,-1.2061069
8440,0.7302278,11.5830889,12.4952745,-25.0229015,5.2061067,1.5877863
8450,0.9552816,11.5256281,13.2207146,-23.5954189,-1.9236641,3.1832061
8460,1.1611819,11.3580351,13.6636391,-16.3664131,-11.6335878,4.3587785
8470,1.5274929,11.0491848,13.4984398,-5.4427481,-21.3053436,4.3893127
8480,1.7932479,10.9797525,12.7634239,4.5725193,-30.3282452,3.8778627
8490,2.2050486,11.2646618,11.7315283,9.0687027,-37.0839691,2.0305343
8500,2.6168492,11.9422169,10.5152798,5.1526718,-37.2366409,-0.9160305
8510,2.9137285,12.8496151,10.0579901,-5.5725193,-28.1374054,-5.3969464
8520,2.3391230,13.7953196,10.7139978,-17.2900772,-16.5038166,-9.6412210
8530,1.6352314,14.7027178,11.5256281,-25.3129768,-8.0916033,-12.5725193
8540,1.2904681,14.9852314,12.2343082,-27.6564884,-6.2366414,-16.6259537
8550,1.2784972,14.4369621,12.6125898,-25.0305347,-4.3206105,-20.0839691
8560,1.5777708,13.5008345,11.9805241,-23.2519093,6.7404580,-24.8549614
8570,1.0271072,12.6556854,10.7906122,-24.1145039,14.0916033,-27.5725193
8580,1.0127422,11.5854826,9.2894554,-26.0152664,9.8015270,-29.0916023
8590,1.1683644,10.8001890,7.8984308,-25.9236641,-8.7022905,-30.9618320
8600,2.9161227,9.6749191,5.9567432,-25.8778629,-35.5725174,-38.8091621
8610,4.6590929,8.1617918,4.0318151,-31.0992374,-60.9465637,-55.8091621
8620,6.1794028,5.9136481,2.9328821,-40.0305328,-87.0000000,-78.7786255
8630,7.2376347,2.8275378,2.3870070,-45.7175560,-114.1068726,-105.3664093
8640,7.3836803,-0.9073978,2.5593886,-46.4198456,-145.8549652,-130.5954132
8650,6.8162575,-5.0996237,3.1244173,-41.8320618,-171.2137451,-146.7404633
8660,5.4707227,-9.3421268,3.3877780,-34.0916023,-186.2290039,-150.0839691
8670,3.8378856,-12.9765072,2.9424589,-28.3129768,-188.5343475,-137.3587799
8680,2.8251436,-16.6491928,2.1260402,-32.2061081,-172.0915985,-106.3129807
8690,2.8921809,-19.6131992,-0.2250538,-59.3511467,-120.1832047,-63.2977104
8700,2.8514795,-19.6131992,-2.8682389,-128.1679382,-54.7480927,-21.4503822
8710,3.6271970,-19.6131992,-0.0670373,-221.3816833,-25.4961834,7.8244276
8720,5.8202744,-19.6131992,8.8130112,-250.1374054,-19.8396950,20.3435116
8730,6.9311786,-19.6131992,18.0857067,-250.1374054,-23.0000000,13.2061071
8740,6.2655940,-19.6131992,19.6126022,-216.9313049,-22.9770985,-3.4198472
8750,4.4268565,-18.4544125,19.6126022,-85.4732819,3.7938931,-13.4427481
8760,3.3351059,-16.3930149,19.6126022,85.3587799,45.6335869,-7.3511453
8770,2.9256995,-16.6276455,19.6126022,237.1832123,70.7099228,11.1145039
8780,3.3446827,-15.8734760,8.5688038,250.1297760,58.4351158,32.2442741
8790,4.1012464,-12.8208847,-4.3502421,250.1297760,39.2366409,48.0763359
8800,5.0325861,-8.8225880,-11.2502966,232.5190887,20.5725193,56.0458031
8810,6.3015065,-5.8561873,-10.2806492,135.0610657,17.2290077,58.8091621
8820,7.2903070,-4.2712340,-3.7493007,66.6488571,41.2137413,58.8778610
8830,7.0891948,-2.6982515,2.6216373,40.5190849,80.0916061,59.3816795
8840,6.4116392,-1.3742647,6.6965480,44.8167953,113.1450348,60.8015251
8850,5.3294659,-0.0742199,8.2024927,65.5648880,133.4274750,64.4122162
8860,4.3646073,1.5993185,7.3453732,86.4274826,137.8931274,68.7938919
8870,3.9671719,2.6000898,5.4419928,97.8091583,119.6412201,69.8091583
8880,5.5377603,6.8713236,9.1577749,16.4961834,82.9847336,-20.0534344
8890,3.8785870,6.4691000,9.2798786,17.9007626,80.6335907,-32.4961815
8900,2.3582766,6.1147599,9.1936874,24.1603050,68.9618301,-38.5954208
8910,1.1851238,6.2871413,8.7603388,30.9236641,54.4198456,-40.0458031
8920,0.0814024,6.6654234,8.0612354,35.1755714,38.8396950,-36.3816795
8930,0.2729376,7.0413113,6.7468257,31.7938938,27.7480907,-31.2824421
8940,0.6871324,7.5129666,5.8154860,15.2213745,25.1297703,-29.3206100
8950,1.2808913,7.8864598,6.0070214,-7.9923663,24.9618320,-32.6335869
8960,1.6950861,7.4938130,7.1466556,-28.5725193,27.6946564,-41.3664131
8970,1.4939742,7.1801744,8.5304966,-40.8167953,29.8931293,-51.1984749
8980,0.9552816,6.3829093,9.5695753,-42.0152664,29.7251911,-59.4885483
8990,0.2801202,5.5760674,9.9119444,-35.8473282,23.6488552,-64.3893127
9000,-0.4860204,5.0110383,9.7108326,-28.4580154,13.2442751,-64.5267181
9010,-0.7972651,4.5848727,9.1793222,-24.1297703,3.5114503,-61.0076332
9020,-1.1468167,4.1706781,8.7148495,-24.4198475,-3.2137403,-55.7099228
9030,-1.1300575,4.2425036,8.4993725,-29.2290077,-8.1832066,-47.7709923
9040,-1.2234308,4.3095412,8.5496502,-36.6412201,-10.6641226,-38.9312973
9050,-0.8882443,4.5896611,9.2750902,-43.2900772,-12.9160309,-30.1450386
9060,-0.2561783,4.7548604,10.0795374,-44.6793900,-13.6335878,-24.6946564
9070,0.5530578,4.8195033,10.5655584,-43.5343513,-12.8015270,-23.6488552
9080,0.7829000,4.9056940,10.9366570,-42.4961815,-12.5725193,-26.8854961
9090,0.7613522,4.6902170,11.3101511,-39.9618340,-14.2977095,-30.6793900
9100,0.5985473,4.4124913,11.7794123,-34.4427490,-19.4427490,-33.6564903
9110,0.5099624,4.1898317,11.9350348,-26.8015270,-23.7022896,-34.8320618
9120,0.3256098,4.1611013,11.6668854,-20.1374054,-25.1374054,-34.5572510
9130,0.0263361,4.3143296,11.1210098,-18.3282452,-20.7480907,-32.4656487
9140,-0.4118006,4.4555864,11.3293047,-20.2519093,-21.9389305,-25.9389305
9150,-0.0574605,4.3358769,11.8201132,-17.9083977,-15.6335878,-20.0229015
9160,-0.0502780,4.6112089,11.8033543,-14.8167934,-7.8244276,-14.2748089
9170,-0.0550664,4.8386569,11.9015160,-12.8625956,0.1145038,-9.1145039
9180,-0.0430954,4.8985114,12.0116482,-10.5343513,7.5572519,-5.0763359
9190,-0.0598547,4.9248476,12.1098099,-7.2900763,11.6946564,-1.4580153
9200,-0.3303981,5.1738434,12.2247314,-2.1832061,10.6488552,1.6259542
9210,-0.4908088,5.3749552,12.3061342,4.8396945,3.0076337,4.2748094
9220,-0.7110743,5.6598639,12.2797976,12.5801525,-5.7938933,7.4503818
9230,-0.8451489,6.1027889,12.0715036,20.6793900,-17.3893127,11.9236641
9240,-0.6536137,6.7300668,11.8991213,27.3129768,-28.4198475,16.5496178
9250,-0.2920911,7.1251078,11.6956158,32.0992355,-33.8473282,20.4503822
9260,0.0790083,7.7188668,11.3269100,33.6030540,-36.2595406,23.9236641
9270,0.8738791,8.5113440,11.1712875,31.8091602,-33.4961815,24.9541988
9280,1.3982066,9.1314383,11.1904411,30.0839691,-27.0000000,23.0229015
9290,1.5681942,9.5264797,11.1329813,28.2977104,-21.3664131,20.7557259
9300,1.9225341,9.5576038,11.1329813,28.3587780,-21.1984730,18.0305347
9310,1.8028246,9.7467451,10.8720140,29.0610695,-27.5496178,14.1603050
9320,1.5897418,9.7946291,10.4985209,26.2137413,-38.3969460,11.4198475
9330,1.6136837,9.6581602,10.8408899,19.6488552,-51.2442741,9.8396950
9340,1.6256547,9.6126709,11.8225079,17.9007626,-62.1297722,7.3511453
9350,1.4173602,9.6605549,12.6987810,24.3358784,-71.2595444,4.6335878
9360,1.0318956,9.6581602,12.7059631,34.0610695,-77.2366409,3.7786260
9370,0.2849085,9.7467451,12.2031832,43.1908379,-81.7328262,4.9770994
9380,-0.2873027,9.7371683,11.2838144,51.8625946,-86.6412201,8.0381680
9390,-0.6320660,9.6988611,9.6390066,56.9847336,-91.7328262,13.4503813
9400,-0.1221037,9.6461897,7.4914188,52.2061081,-91.0916061,18.3358784
9410,-0.1053443,9.8568783,5.5664907,36.0076332,-82.9694672,22.7328243
9420,0.1532281,9.9334917,4.7021880,14.4351149,-76.6641235,28.5877857
9430,0.8116302,9.4762020,4.4747400,-3.9923663,-75.0687027,31.6793900
9440,1.2234308,9.1362267,4.1802549,-19.0992374,-75.0763321,32.6641235
9450,1.7908537,8.6214762,3.4931223,-36.3206100,-75.0839691,32.0916023
9460,1.8411317,7.9223728,3.1411765,-54.8015251,-79.2977066,31.4732819
9470,2.0302727,7.1179252,3.3207407,-70.0916061,-89.7786255,30.5725193
9480,2.2074428,5.6957769,3.5050933,-78.4732819,-105.7328262,27.4580154
9490,2.6144550,3.8857694,3.3782012,-81.4274826,-122.5725174,23.7709923
9500,3.1746953,1.3239868,2.8945751,-84.4580154,-130.2366486,21.7862587
9510,4.0677280,-1.6400198,3.2010312,-86.8244247,-116.7480927,21.7862587
9520,4.8913293,-5.2672167,3.5649481,-85.9770966,-80.3206100,24.1145039
9530,5.0110383,-9.4642305,3.4883339,-83.7404556,-39.1068687,29.1297703
9540,5.5760674,-13.7330704,2.6767037,-83.5496216,-8.7862597,35.8320618
9550,6.1339135,-17.5948982,1.9752063,-88.2748108,-1.0534351,40.6259537
9560,6.5744443,-19.6131992,1.6639616,-100.0916061,-24.1374054,42.7328262
9570,6.5959921,-19.6131992,2.4205256,-118.6946564,-73.9465637,45.0763359
9580,7.0293403,-19.6131992,4.1395535,-146.1450348,-129.3740387,46.8702278
9590,8.4419117,-17.7624912,8.4754305,-174.4503784,-156.7022858,40.4351158
9600,9.7371683,-13.6875811,15.0498753,-186.3129730,-141.8167877,18.5725193
9610,9.6342182,-9.8592720,19.6126022,-167.6183167,-88.2061081,-21.4809170
9620,6.6630292,-8.4299412,19.6126022,-120.8931274,-24.9160309,-61.0305328
9630,1.7884595,-10.0316534,19.6126022,-45.2748108,30.5419846,-75.4198456
9640,-1.9105632,-12.0619268,19.6126022,46.8473282,63.9465637,-53.2442741
9650,-2.4684093,-12.0403786,19.6126022,129.9618378,77.8778610,-14.9847326
9660,-0.4022238,-11.5304165,14.6237087,187.2290039,72.2366409,19.0992374
9670,2.2672975,-11.1066446,7.7356262,211.0229034,68.2900772,42.5954208
9680,4.9487896,-10.2614956,3.0908985,203.3053436,71.5725174,57.8167953
9690,7.6973190,-9.6964674,1.0678085,177.8244324,84.2748108,60.0610695
9700,10.2207947,-8.8058290,0.3375807,148.7480927,100.5954208,48.2290077
9710,10.5990763,-8.0827837,0.4596844,124.9312973,122.5877838,28.6335869
9720,8.4945841,-7.2807302,1.0342898,109.3969498,128.7786255,13.3358774
9730,5.3055239,-6.3302369,1.5921360,103.3435135,117.0916061,10.4580154
9740,3.1842721,-4.9775200,1.7166338,104.8015289,94.2748108,20.2290077
9750,2.4684093,-3.1938488,1.5777708,103.7404556,67.5114517,33.2595406
9760,2.4971397,-1.0390782,1.5059452,101.8015289,47.9236641,45.0916023
9770,9.2008705,5.7316895,10.0579901,42.9160309,22.6030540,45.0839691
9780,9.2583303,5.9351954,9.9143381,47.6793900,8.0534353,27.1450386
9790,8.3365679,6.7444315,9.6533718,50.8931313,-1.1984733,1.6870229
9800,7.2352405,7.2280579,8.2288294,36.9923668,16.7175579,-22.3740463
9810,6.6726060,7.3070664,8.3940287,25.3129768,27.2900772,-30.8396950
9820,6.3781209,7.1729918,8.3772688,14.8549614,36.1603050,-41.1679382
9830,4.7452836,6.5888095,8.5137377,-5.2213740,52.8015251,-63.0839691
9840,3.6008608,5.8226686,8.6693602,-12.2442751,58.8167953,-70.6488571
9850,1.9584470,5.1331420,8.8776541,-16.3511448,58.0381660,-72.9007645
9860,0.5339043,4.6566987,9.1290445,-14.5801525,47.8549614,-68.6335907
9870,-0.4285599,4.2257442,9.1003141,-8.7022905,33.6717567,-59.0076332
9880,-1.2377959,3.9121056,8.5640154,-3.9160306,19.7633591,-42.8244286
9890,-1.8554969,4.3861551,8.2671366,-1.8473282,8.7862597,-19.6793900
9900,-1.7932479,5.3270717,8.5304966,0.0458015,-0.7709923,8.3053436
9910,0.4740495,6.8425937,8.5496502,4.3206105,-6.1374044,53.3664131
9920,2.4516499,7.7021074,8.2934723,1.3358779,-1.7404580,63.6717567
9930,4.5633249,8.4969788,8.5113440,-3.7022901,7.0763359,62.8473282
9940,6.1961622,8.9566631,8.4658537,-11.9847326,17.5267181,51.2977104
9950,6.6702118,9.0165176,8.6478119,-21.6793900,22.4122143,32.5725174
9960,6.3254485,8.7124557,9.5528164,-27.3740463,14.1679392,12.6946564
9970,5.6885943,8.0995426,10.3405046,-25.2213745,-2.2671757,-5.4503818
9980,4.7955613,7.4531116,10.4123297,-19.2519093,-21.3664131,-18.8702297
9990,3.9959023,6.7587967,9.9981356,-14.9541988,-38.9771004,-27.6641216
