timestamp,acclX,acclY,acclZ,gyroX,gyroY,gyroZ
0,1.8842272,0.6153067,9.7946291,5.3129773,-7.8320613,-0.8702290
10,2.1164634,1.0486550,9.7299862,10.6564884,-30.1908398,-10.1297712
20,2.1595588,1.0390782,9.6222477,11.2366409,-31.1679382,-11.0610685
30,2.1954718,1.0941446,9.4211359,9.9618320,-31.7862587,-11.5343513
40,2.2768741,1.0941446,9.4905672,8.0916033,-30.6641216,-11.7557249
50,2.3247581,1.1324517,9.4426832,5.8473282,-26.8625946,-12.0152674
60,2.3319404,1.1156923,9.6126709,4.2671757,-23.8244267,-12.1679392
70,2.1356170,1.0654143,9.8353300,3.3206108,-21.9007626,-12.0610685
80,2.1068866,1.0342898,10.0508070,3.7175572,-21.4122143,-11.1221371
90,2.1906834,1.0414724,10.2327662,5.0305343,-23.6488552,-10.7786255
100,2.1787124,1.0630201,10.2471304,6.8091602,-25.9770985,-10.8854961
110,2.1188576,1.0007712,10.2830439,8.6793890,-28.7404575,-11.3435116
120,2.1763182,1.0845678,10.1992474,9.8931293,-31.2977104,-11.4885492
130,2.2242019,1.0678085,9.9478569,8.9389315,-30.6564884,-11.4580154
140,2.4564383,1.0462608,10.0053177,6.8702292,-26.9236641,-11.2900763
150,2.2289903,0.9433106,10.1178446,4.4427481,-21.5267181,-11.0229006
160,2.0326669,0.9361281,10.2614956,2.3129771,-15.7633591,-8.7633591
170,1.8746504,0.8188128,10.5080976,2.0687022,-11.4503813,-6.0305343
180,1.8004304,0.8236012,10.7259684,4.0152674,-10.7328243,-3.3511450
190,1.6615674,0.8738791,10.6804790,6.4961834,-11.7022905,-0.7786260
200,1.6998745,1.2138541,10.4913378,11.0839691,-10.4122133,4.9847326
210,1.8147956,2.1332228,10.5176744,7.3282442,5.2671757,16.4732819
220,1.7501525,2.4396791,10.7187862,6.2137403,7.9923663,19.3282452
230,1.6950861,2.9759774,11.0204544,6.3358779,6.8473282,21.0610695
240,1.7238164,3.4931223,11.5950594,7.9160304,4.4503818,23.6488552
250,1.8291607,4.2903876,12.0427732,9.8931293,1.9923664,26.5343513
260,2.2457497,5.0062504,12.5503407,12.1297712,-3.0229008,29.0381680
270,2.7389526,5.8226686,13.1704359,15.8473282,-8.3816795,29.8702297
280,3.3542595,6.3996682,13.5104113,20.3664131,-13.7480917,28.1374054
290,4.0054789,7.1179252,13.8791161,26.0458012,-21.0687027,23.6870232
300,4.4771342,7.9606800,13.9437590,31.4732819,-30.6641216,17.3816795
310,4.8889351,8.9111729,13.8862991,35.7862587,-38.2824440,11.0992365
320,5.0421629,9.9454632,13.5846310,38.4122124,-44.1297722,4.7938933
330,4.4699516,10.6325951,12.7897596,38.8396950,-48.5038185,0.8320611
340,4.0366035,11.4825325,11.9781294,34.5954208,-54.0839691,-0.0076336
350,4.0533628,11.9829178,11.9565821,28.2519093,-59.4503822,-1.6030535
360,3.7397239,12.0882626,12.7586355,27.6335869,-65.2366409,-3.4656489
370,3.5745249,12.2199430,13.5559006,34.8778610,-74.0000000,-3.5267177
380,3.4643922,12.1098099,13.6205435,49.0992355,-85.0916061,-2.7786260
390,3.1507533,12.4593620,12.3779593,63.5725174,-95.5038147,-1.6259542
400,2.8323262,13.4098549,10.6493549,69.5114517,-103.8473282,-1.0152671
410,2.7533178,13.9150295,8.6238708,64.4580154,-105.5038147,1.4274809
420,2.3271523,13.9653072,6.7085190,49.4274826,-99.9618301,4.6030536
430,1.9153515,13.8168669,5.4300218,26.5954189,-97.6106873,8.5801525
440,2.2170193,13.0243902,5.1882086,2.9465649,-98.8778610,10.9389315
450,3.0980811,11.8009596,5.0876527,-20.1603050,-92.7480927,8.7251911
460,3.2896163,10.3285332,5.0589223,-42.5496178,-77.8167953,2.1984732
470,3.0358322,8.2719250,4.8362627,-59.3282433,-64.0763321,-4.2061067
480,3.0980811,5.6766233,4.2185616,-69.3740463,-52.0076332,-10.6106873
490,3.5074875,2.4037662,3.4284792,-72.5954208,-42.6335869,-18.1908398
500,4.1587071,-1.1755470,2.4396791,-69.1526718,-36.2748108,-28.5877857
510,5.4874821,-5.0421629,2.0087249,-60.4045792,-32.2595406,-42.0916023
520,7.0508881,-9.4307127,1.1683644,-45.6030540,-22.0534344,-59.1526718
530,7.9534974,-14.5925846,-0.3806761,-34.2595406,-8.7786255,-74.0229034
540,8.2384062,-19.6131992,-2.6479735,-36.9465637,7.5954199,-78.9847336
550,7.4076223,-19.6131992,-5.1522956,-62.3969460,25.1068707,-70.9007645
560,5.6742291,-19.6131992,-6.2009506,-109.5877838,33.8244286,-51.7633591
570,3.5122759,-19.6131992,-5.5808558,-174.2977142,3.2366412,-17.9847336
580,2.6886747,-19.6131992,-2.1212518,-243.9541931,-53.5648842,19.4809170
590,4.1347651,-19.6131992,4.7069764,-250.1374054,-110.1374054,42.6030540
600,6.2105274,-17.6786957,12.2797976,-250.1374054,-152.3435059,41.2900772
610,8.1977043,-14.6811695,19.6126022,-250.1374054,-177.6870270,19.3206100
620,8.8848372,-13.3883076,19.6126022,-224.0000000,-164.4961853,-10.9770994
630,7.9918046,-12.4521790,19.6126022,-116.0916061,-149.1374054,-30.4122143
640,8.3413563,-11.4514084,19.6126022,24.5190830,-123.0381699,-40.3587799
650,8.7866755,-10.9605989,19.6126022,167.3358765,-77.6641235,-47.9694672
660,8.1833391,-11.0420017,18.8207226,250.1297760,-39.4427490,-52.8702278
670,7.8074517,-11.2742386,7.4770536,250.1297760,-10.7938929,-53.2213745
680,6.5193777,-10.8887739,-0.7445929,250.1297760,14.4580154,-45.8854980
690,5.4755111,-9.8137827,-5.1211715,244.2442780,28.4274807,-29.2824421
700,6.0644817,-8.6502066,-6.8617468,193.4351196,52.1450386,-16.1526718
710,6.9144192,-7.4459291,-4.8410511,152.7099304,86.8549652,-13.7175570
720,6.2105274,-5.9782910,-1.6065011,132.8549652,107.8015289,-15.0229006
730,5.1379304,-5.1235652,0.9433106,128.8931274,117.2061081,-12.0152674
740,4.6159973,-4.1060348,2.1380112,133.5190887,125.2900772,-5.7862597
750,4.2640514,-2.5953014,2.1092808,136.0763397,132.6183167,1.3129771
760,4.1299767,-0.9672526,1.7238164,132.3893127,143.1984711,8.7633591
770,4.2305326,-0.0167593,1.7309990,122.7862625,158.1679382,16.1297703
780,3.5026991,1.4867916,1.8100072,108.6793900,169.2824402,24.3435116
790,3.1818779,2.8514795,2.2170193,91.3740463,173.9541931,34.2748108
800,3.0693510,3.7205703,3.2106080,75.4198456,167.7251892,41.7251892
810,3.6894460,4.2640514,4.2018023,63.7404594,151.1603088,45.2442741
820,4.5082588,4.3909435,5.0230093,54.6641235,129.2137451,43.0916023
830,5.0900469,4.9009056,6.1387019,48.6259537,106.7328262,36.1832047
840,3.9240766,7.8050575,9.4115591,48.7862587,45.1221390,9.7099237
850,3.3039815,8.0540533,9.7395630,51.6641235,41.5725174,7.4656487
860,3.2130022,8.9231443,6.9263902,8.0763359,73.9312973,10.1908398
870,2.4324965,9.1817169,7.2256637,1.1068702,64.3969498,7.3740458
880,2.0997043,9.0787668,7.4052281,-2.9389312,50.6412201,5.9923663
890,1.9416877,8.8824425,7.3549500,-7.2366414,37.2977104,5.3282442
900,1.6328372,8.1402445,8.0923605,-19.9312973,7.2519083,7.3358779
910,2.3965836,7.5871863,8.6669655,-20.8015270,-5.8473282,11.5038166
920,2.7964132,7.6159167,8.9351149,-23.0763359,-4.2748094,13.6717558
930,3.7469065,7.7811155,9.5983057,-25.4045811,11.5267172,18.0916023
940,3.8474624,7.7643566,9.9310980,-26.9465656,19.2977104,17.3740463
950,3.9025288,7.6183109,10.1896706,-24.9312973,21.9389305,14.6030531
960,3.8809812,7.4531116,10.3692341,-19.3282452,18.0000000,10.7099237
970,3.6966286,7.1514440,8.5616217,2.1145039,-20.7022896,-10.6793890
980,3.5505829,6.9670911,8.2407999,0.2900763,-24.7251911,-14.0687027
990,3.3614421,6.9910331,8.2671366,-0.8320611,-27.0916023,-16.5648861
1000,3.1459649,6.7947097,8.5041609,-0.2061069,-29.2824421,-17.7862587
1010,2.9520357,6.7707677,7.9582858,-0.9007633,-29.0381680,-18.1679382
1020,2.7317703,6.6654234,7.7260494,-2.8320611,-28.4580154,-17.9923668
1030,2.6503677,6.6462698,7.6446471,-5.9007635,-27.5877857,-17.3282452
1040,2.4468615,6.6103573,7.6973190,-9.7557249,-27.7786255,-16.7938938
1050,2.2768741,6.6366930,8.1210909,-13.0458012,-32.4732819,-15.8320608
1060,2.2936335,6.5959921,8.9063845,-13.9618320,-39.0687027,-14.5801525
1070,2.5426292,6.6462698,9.6629486,-12.1221371,-45.2137413,-13.2748089
1080,2.4660151,6.8521700,10.2710724,-9.2671757,-51.0458031,-10.9160309
1090,2.6527619,7.3094602,10.8768024,-5.2366414,-54.2061081,-7.3740458
1100,2.9065459,7.9247670,11.3269100,-0.3740458,-54.3587799,-3.8167939
1110,3.2010312,8.6526003,11.6285782,3.8473282,-50.8167953,-1.0534351
1120,2.7341642,10.1800938,11.0803089,11.6870232,-49.9618340,4.4961834
1130,2.3606708,10.5775290,10.6110477,13.8167934,-56.8549614,8.3435116
1140,2.2553265,11.0779142,10.2782555,15.1679392,-67.6106873,11.9312973
1150,2.0781565,11.5974541,9.7228031,17.8396950,-83.9007645,16.2290077
1160,2.6431851,12.1672707,9.2463598,18.1297703,-98.5648880,19.6564884
1170,3.7876077,12.9070749,8.9231443,15.9389315,-103.2366409,19.2442741
1180,4.4723458,13.6899757,8.6214762,9.8167934,-96.3282471,15.9847326
1190,4.2425036,14.4776640,7.9726510,-0.8320611,-83.4274826,11.9083967
1200,3.7373297,14.3699255,7.3788919,-13.4885492,-75.1755753,8.4351149
1210,3.2417326,13.6971579,6.6606350,-23.1679382,-79.4351120,4.7786260
1220,2.2553265,12.3037395,5.3342543,-29.0916023,-100.1603088,1.6870229
1230,1.2784972,11.3795824,3.8737986,-34.8167953,-135.6946564,1.8396946
1240,0.8499373,10.6900558,2.2720859,-43.4809151,-178.7175598,6.1068702
1250,1.6926919,8.7340031,0.7158626,-62.3664131,-197.5725250,15.7404585
1260,2.3056045,5.3605900,-0.2154770,-93.8091583,-171.8396912,29.0152664
1270,1.5274929,2.1260402,0.4094064,-125.2977066,-129.8854980,45.3969460
1280,0.7613522,-0.6416427,-0.0047884,-146.7862549,-84.6335907,65.7022934
1290,0.6248835,-3.6535332,-1.3048333,-164.3587799,-48.3816795,86.5725174
1300,1.6902977,-6.4714942,-2.6527619,-179.1603088,-35.1832047,96.9389343
1310,3.5769191,-9.0213060,-3.4883339,-190.9923706,-41.7862587,97.7251892
1320,6.0525107,-11.5663290,-3.7852135,-201.1984711,-56.2595406,85.9236679
1330,9.1865053,-14.1616306,-3.0310438,-213.0915985,-54.1145020,59.9312973
1340,11.1066446,-16.9484673,-1.3287752,-228.6870270,-30.4961834,25.2213745
1350,10.9797525,-19.6131992,1.8124014,-243.6793823,0.0763359,-12.6335878
1360,8.7220325,-19.6131992,5.5569139,-248.7557220,6.0076337,-41.8473282
1370,6.3206601,-19.6131992,9.6054878,-237.5801544,-25.7251911,-54.4732819
1380,4.7141590,-19.6131992,13.1895895,-215.0839691,-90.1908417,-48.7251892
1390,5.8154860,-19.6131992,19.5198269,-178.5877838,-144.1068726,-37.9771004
1400,9.0715837,-19.6131992,19.6126022,-103.8854980,-154.7786255,-40.0228996
1410,10.8432837,-16.8431225,19.6126022,1.6793894,-119.3740463,-55.2290077
1420,11.2407198,-14.8415804,19.6126022,109.4885483,-58.0610695,-72.4503784
1430,9.9119444,-14.5207586,19.6126022,192.0763397,4.7938933,-86.0916061
1440,7.3812861,-14.8320036,8.7268209,231.3893127,55.0458031,-84.0839691
1450,4.9679432,-14.2095146,0.2370248,229.4809113,89.3664093,-66.8091583
1460,3.8426740,-12.7634239,-3.6990228,203.7251892,97.6564865,-44.1755714
1470,3.7038112,-10.7642756,-3.2584918,178.2137451,93.8854980,-23.9923668
1480,4.7428894,-8.7747040,-0.6631905,168.2290039,82.5572510,-9.7480917
1490,6.2608056,-7.0437055,1.2880739,172.9313049,78.3893127,-4.1145039
1500,7.3070664,-5.5186067,1.3383518,178.3129730,88.2748108,-1.3511450
1510,7.6207051,-3.5266411,0.7541697,176.8473358,110.0610657,-2.1526718
1520,6.2033448,-1.2258250,-0.6033357,163.6488495,128.0000000,0.0534351
1530,5.1211715,0.0191535,-0.9983770,142.2137451,135.2595367,6.9465647
1540,4.1754665,1.4484847,-0.0239419,120.3358765,131.8091583,18.2671757
1550,4.2640514,2.9041519,1.2952565,101.6030502,119.6030502,29.1603050
1560,5.0828643,3.9240766,2.8131726,87.0839691,102.7022934,34.7480927
1570,6.8521700,7.9008250,7.5560617,55.8091621,27.1068707,9.7099237
1580,6.6821828,8.3868456,7.1394730,45.8625946,29.4809170,9.3587790
1590,6.6941538,9.0787668,7.2735476,34.3053436,37.6183205,8.5877867
1600,6.3015065,9.9263096,7.2855186,22.1832066,47.1603050,7.5190840
1610,5.8083038,11.1904411,7.3717093,-6.3664122,55.8244286,-8.9847326
1620,5.3198891,10.9677820,7.1777802,-14.2519083,46.3206100,-17.1374054
1630,5.0421629,10.4458485,7.5057840,-22.2824421,32.3053436,-23.0992374
1640,3.8474624,10.2734671,7.7763271,-24.6335869,12.5343513,-23.5572510
1650,3.0980811,10.5559816,7.6829538,-26.0076332,-8.8091602,-18.3435116
1660,2.9280937,10.6780853,7.5033898,-27.9541988,-30.6259537,-8.4274807
1670,4.1204000,11.3101511,7.4531116,-35.0687027,-41.0076332,1.1526718
1680,5.8897061,12.2821922,8.3078375,-44.1679382,-36.2137413,6.1832061
1690,8.0708122,12.8615856,9.3732519,-53.0228996,-10.9541988,4.7175574
1700,9.1386213,12.5455532,10.3333216,-61.4885483,32.8854980,-0.8091603
1710,7.4124107,11.6357603,11.5184450,-67.0457993,77.5267181,-4.9312978
1720,5.9854736,10.3740225,10.8959560,-60.6793900,95.8244247,1.3816794
1730,4.1730723,10.3835993,10.4219065,-57.0687027,85.1221390,1.1984733
1740,1.0031654,10.8313131,10.4769726,-63.1832047,12.9312973,11.2366409
1750,4.5250182,10.5847120,12.9693241,-46.1526718,-27.2671757,7.1603055
1760,6.3948798,10.6158361,13.0698805,-28.2748089,-49.7022896,-1.8549619
1770,6.9503322,11.2742386,13.0507269,-16.0229015,-46.6564903,-15.8931293
1780,5.5329719,11.5926657,12.1409349,-5.2824426,-50.6946564,-25.9694653
1790,4.2209558,11.7650471,10.7570934,-2.3053436,-52.2061081,-27.6183205
1800,3.4093258,12.1624823,9.8664551,-4.0381680,-50.2824440,-24.7022896
1810,2.7078283,12.3252869,9.0667953,-6.1755724,-46.3664131,-17.5725193
1820,2.0901275,12.6341381,7.7260494,-8.8702288,-45.0458031,-6.7862597
1830,2.9592183,13.0459385,5.8801293,-19.7328243,-45.4427490,1.0839695
1840,3.9959023,12.9525652,4.4436154,-36.3969460,-43.5496178,0.4045801
1850,4.6710634,12.3348637,3.7780309,-52.6717567,-49.3740463,-7.4351144
1860,4.6519103,11.1138277,3.0430148,-67.2671738,-65.3206100,-19.7099228
1870,4.6040263,9.4857788,2.7413468,-79.4732819,-84.4732819,-32.2137413
1880,4.5226240,7.4914188,2.5186872,-88.2366409,-97.2519073,-42.0076332
1890,4.9607606,5.3366485,2.2242019,-94.6870193,-92.7175598,-48.4656487
1900,5.6095858,2.8826041,1.6304430,-100.3664093,-62.0228996,-52.8931313
1910,4.9080882,-0.1436514,0.8403605,-104.4198456,-20.9618320,-52.6564903
1920,4.8602047,-3.7516949,-0.2873027,-103.2137375,5.8320613,-49.1374054
1930,5.9998388,-7.4028339,-2.0805507,-99.2137375,17.2595425,-52.3206100
1940,6.8880830,-10.9749641,-4.2257442,-99.3740463,1.5725191,-63.6412201
1950,8.0420828,-15.6364517,-7.8194227,-111.5419846,-47.4427490,-77.8320618
1960,8.0803890,-19.6131992,-12.9046812,-149.7862549,-114.7480927,-86.0381699
1970,9.3828287,-19.6131992,-15.8255920,-240.8473358,-208.2977142,-90.2442780
1980,10.7714586,-19.6131992,-8.0660238,-250.1374054,-250.1374054,-93.5114517
1990,11.0084829,-19.6131992,9.9287033,-250.1374054,-250.1374054,-85.0916061
2000,10.6661139,-19.6131992,19.6126022,-250.1374054,-250.1374054,-72.1297684
2010,19.3330803,-19.6131992,19.6126022,-230.6870270,-250.1374054,-99.8244247
2020,19.6126022,-17.6523590,19.6126022,7.7786260,-249.1908417,-157.4122162
2030,13.9437590,-19.6131992,19.6126022,250.1297760,-55.8167953,-177.7404633
2040,4.4795284,-19.6131992,16.4839935,250.1297760,51.3816795,-125.5267181
2050,1.2210367,-18.2892132,-4.1922259,250.1297760,111.3053436,-55.8244286
2060,0.8044477,-14.5183649,-16.0913467,250.1297760,129.3282471,1.0381680
2070,2.8658447,-8.9997578,-18.5501804,240.7099304,122.7175598,39.3053436
2080,5.8897061,-5.0421629,-12.4976692,99.1297684,136.4122162,54.0381660
2090,7.1777802,-4.0030847,-1.4652439,34.5114517,192.2366486,52.8091621
2100,5.8609757,-3.0693510,4.8793583,31.7938938,240.2977142,56.9236641
2110,4.8530221,-2.4851687,7.5393028,65.3358765,250.1297760,64.4580154
2120,5.1929970,-1.7070571,7.0796180,109.8549652,250.1297760,70.1755753
2130,5.6718349,-0.7541697,4.2305326,141.5190887,250.1297760,73.9542007
2140,5.0852585,0.2753318,0.7685348,148.5648804,238.3282471,81.8549652
2150,5.2121506,1.4580613,-1.1851238,135.4351196,221.7709961,93.2824402
2160,6.0165982,3.1435707,-0.9600700,109.1145020,198.1679382,103.7938919
2170,7.3310080,4.3526363,0.8978211,79.0916061,200.0839691,112.9847336
2180,7.9439206,6.9216018,3.3422885,50.1297722,180.1984711,114.7022934
2190,9.8473015,7.3190370,5.6694407,32.8320618,149.2519073,95.8931274
2200,10.9869356,7.2783360,8.0109577,28.0229015,118.3740463,60.6717567
2210,10.3740225,7.0724359,9.6078825,33.9312973,93.7404556,26.8854961
2220,9.3660688,6.3062949,9.8688488,44.2366409,74.0305328,4.6030536
2230,5.6670465,6.9239960,6.7659793,49.7480927,79.4885483,3.2366412
2240,5.5880380,6.9024482,6.1817970,32.4122124,86.8702316,0.1526718
2250,4.3526363,7.0939832,6.0884237,-2.3969467,76.9847336,-18.0305347
2260,3.8163381,6.9503322,6.5289545,-16.0610695,61.6946564,-26.3511448
2270,3.1411765,7.1490498,7.7164726,-23.1297703,29.8549614,-31.8702297
2280,3.2297616,6.3829093,8.2743187,-24.6183205,20.6488552,-35.6870232
2290,3.1028695,6.0788469,8.9111729,-24.0839691,21.4274807,-39.1221390
2300,2.3271523,5.7197185,8.9207497,-24.4122143,17.1297703,-37.2900772
2310,2.1140692,5.0158267,9.0141230,-24.9847336,12.6793890,-32.5496178
2320,2.2050486,4.7835903,9.0835552,-24.7404575,9.5419846,-29.0610695
2330,1.8147956,5.0301919,9.3732519,-24.7633591,4.2748094,-25.8396950
2340,1.6855093,5.4802995,9.7658987,-25.1374054,-3.2824428,-21.4427490
2350,1.7549409,5.8490047,9.8089943,-26.0763359,-7.0992365,-15.9465647
2360,2.1571648,5.9447722,9.7682934,-29.5190830,-4.9465647,-11.2137403
2370,2.7245877,5.6598639,9.9622221,-43.6259537,2.2213740,-10.8396950
2380,2.5210814,5.3749552,10.8887739,-51.2061081,2.4427481,-12.5496187
2390,1.9728121,5.2696109,12.1529055,-50.6183205,1.8778626,-11.8167934
2400,1.6663558,5.3294659,12.9573536,-43.1984749,-3.0610688,-6.8473282
2410,1.5897418,5.7221127,13.2733860,-34.4656487,-11.7099237,1.3969465
2420,1.8243724,6.3350253,13.4098549,-26.3435116,-20.3664131,8.6259546
2430,2.5617826,6.9335728,13.4385853,-17.6106873,-26.6564884,12.5801525
2440,3.3015873,7.2519999,13.2326851,-10.6488552,-27.9847336,13.4274807
2450,3.9719603,7.4459291,12.8376436,-7.2595420,-24.7099228,12.5954199
2460,4.2975702,7.6877422,12.8304615,-4.9389315,-20.8167934,10.9007635
2470,4.2544746,7.8481531,12.9884777,-1.0381680,-21.6183205,9.4274807
2480,4.1802549,7.7260494,13.3787308,6.2061067,-28.0076332,11.5190840
2490,4.8889351,7.6685886,13.7402534,16.7404575,-35.8167953,18.7709923
2500,5.9136481,8.4658537,14.0323448,28.7938938,-42.4503822,26.8320618
2510,6.6103573,9.2822723,13.5271702,40.4274826,-51.4885483,30.0763359
2520,7.1203194,10.0053177,12.8424320,48.2595406,-58.4656487,28.4885502
2530,7.6398587,10.9198980,12.3468351,51.8091621,-60.8854980,25.1679382
2540,7.8792777,11.5208397,12.3133163,53.0381660,-62.2061081,19.5725193
2550,8.0708122,11.6620970,12.4426022,55.7709923,-68.6183243,10.3435116
2560,8.2671366,11.7626524,12.4066896,59.0916023,-79.8244247,0.0687023
2570,8.1833391,11.9206696,12.5623121,61.8625946,-90.6183243,-12.6412210
2580,7.5871863,12.3181047,12.7131462,66.5877838,-101.6488571,-27.9312973
2590,6.5385313,12.3923244,12.2247314,73.7709961,-107.9847336,-39.1374054
2600,5.1139889,12.6101961,10.7762470,77.9312973,-107.4503784,-43.7786255
2610,3.6535332,13.1848011,9.0117292,74.8473282,-100.6412201,-41.7938919
2620,2.0590029,13.9485474,7.1658092,65.6106873,-92.4809189,-36.1297722
2630,0.8140244,14.5255470,5.3749552,51.1755714,-87.3206100,-26.7022896
2640,0.3184272,14.0850163,4.0342093,35.2519073,-85.5648880,-17.0381680
2650,-0.3351865,13.0866394,2.8610563,19.9007626,-86.9542007,-8.9236641
2660,-1.5107336,11.9589767,1.4389079,6.2061067,-93.6259537,2.2595420
2670,-1.8028246,10.4266949,-0.3064562,-9.7328243,-104.7862625,17.1450386
2680,-1.2784972,8.5711985,-1.7525467,-28.4045811,-110.4351120,30.3816795
2690,-0.3543400,5.8992829,-2.5498118,-46.8244286,-112.2595444,39.9083977
2700,1.0893562,2.4708035,-3.4428444,-64.5954208,-108.0916061,44.1832047
2710,2.6934631,-0.9816177,-4.2592630,-84.5954208,-96.5419846,41.6946564
2720,4.6782460,-4.3047528,-3.9480183,-105.7022934,-75.5801544,30.5114498
2730,6.3134775,-7.8888540,-2.8586621,-122.7251892,-47.2137413,9.2366409
2740,7.1298962,-12.2175484,-1.9177457,-134.4580078,-11.3969469,-15.0610685
2750,6.6486640,-16.6300392,-1.6543850,-146.5343475,26.2366409,-33.2442741
2760,5.2480631,-19.6131992,-1.9895715,-171.7557220,51.1908379,-36.8625946
2770,2.2960277,-19.6131992,-2.1499822,-222.0763397,48.1145020,-21.2519093
2780,-0.4620786,-19.6131992,1.3503228,-250.1374054,3.4656489,14.7175570
2790,0.1771700,-19.6131992,9.2104464,-250.1374054,-86.2519073,65.6564865
2800,3.7923961,-19.6131992,17.9803619,-250.1374054,-178.9923706,105.1297684
2810,9.6677370,-19.6131992,19.6126022,-193.9694672,-237.9007568,117.1297684
2820,15.9716377,-14.9756546,19.6126022,-94.7633591,-230.7099304,89.0687027
2830,19.6126022,-9.5791521,19.6126022,12.2290077,-152.8167877,25.7022896
2840,19.6126022,-7.9104018,19.6126022,124.6717529,-43.2442741,-50.8244286
2850,15.4377337,-10.6852674,19.6126022,222.4122162,54.2748108,-104.2366409
2860,10.1393919,-12.9884777,13.6540623,250.1297760,124.6106873,-120.9923630
2870,5.5138183,-13.6133614,3.0597742,250.1297760,160.1526642,-108.5190811
2880,1.0438666,-12.6868095,-5.8059096,250.1297760,165.5190887,-73.6259537
2890,-1.1204807,-10.5248566,-9.9406748,220.0381622,141.9160309,-24.8549614
2900,0.5099624,-7.9630742,-9.4570484,150.9618378,118.2442780,12.5419846
2910,3.6678982,-5.1379304,-5.0493455,105.9236679,108.6106873,25.1221371
2920,5.4324160,-3.1339941,-0.8451489,89.9847336,106.2748108,23.2671757
2930,6.3876977,-2.0039365,1.6065011,87.8396912,106.3053436,14.7786255
2940,6.8497758,-0.7685348,3.1315999,92.8854980,110.9694672,5.2366414
2950,6.9838505,0.6512195,3.1435707,97.9389343,124.3358765,-2.5496182
2960,6.7994981,1.9273225,2.3367288,91.8625946,145.7328186,-7.3511453
2970,6.3182659,3.2848279,1.5921360,75.3511429,169.0992432,-9.3511448
2980,5.5976148,4.3813667,1.6017127,54.6564903,184.5267181,-10.0839691
2990,4.9870968,5.2696109,2.4324965,35.4732819,182.9694672,-10.7557249
3000,4.7764082,5.4300218,3.5194585,23.8320618,166.8702240,-12.9694653
3010,4.4292507,5.2600341,4.3717899,19.2595425,147.7938995,-15.7709923
3020,3.9168940,5.4755111,4.8434453,16.0992374,127.5190811,-15.5725193
3030,3.7445123,5.7963328,5.0996237,10.1984730,109.8473282,-12.6259546
3040,3.9336534,5.7053533,5.0804701,1.3206106,102.9694672,-10.8854961
3050,3.5434003,5.7867560,5.1738434,-11.4503813,106.3664093,-10.9083967
3060,2.3870070,6.2296810,5.5497313,-25.2824421,105.3358765,-9.7633591
3070,2.0853391,6.6271162,6.4978304,-35.1679382,96.5572510,-9.1603050
3080,1.5562232,6.8354111,7.3669209,-39.8091621,87.2290039,-7.9007635
3090,1.1755470,7.0724359,7.8673067,-39.4656487,71.0992355,-2.5419848
3100,1.1875180,7.5943689,7.9774394,-43.6641235,55.3053436,15.2442751
3110,2.1523764,7.5871863,8.1617918,-54.6488533,56.8167953,20.5801525
3120,2.4851687,7.7452030,8.9327211,-66.1908417,59.9312973,22.2061062
3130,2.8442972,7.3166428,10.0747490,-73.0305328,63.0076332,21.3893127
3140,2.9209111,6.9575148,11.3029680,-70.2900772,61.8931313,19.9541988
3150,3.0310438,6.6295104,12.2007895,-59.2290077,54.4885483,18.6259537
3160,3.2465210,5.9471664,12.1050215,-45.0000000,42.7786255,17.2290077
3170,3.9480183,4.8123207,11.8488436,-27.6106873,48.0992355,13.3969469
3180,2.7964132,6.2344694,12.3444405,9.8702288,60.3893127,4.2671757
3190,2.7868366,7.1610208,11.1952295,9.2748089,30.2595425,6.4274807
3200,3.3997490,7.3645267,9.8449068,-2.1297710,12.1679392,5.2290077
3210,2.7844424,6.2105274,10.3213511,-34.7099228,3.9541984,-12.4580154
3220,2.4708035,6.1506729,10.5392218,-38.1145020,-7.8091602,-17.1832066
3230,2.3295465,5.6742291,10.6134415,-39.5343513,-13.6488552,-19.7480907
3240,2.2098370,5.1906028,11.1856527,-37.7862587,-18.0916023,-22.4198475
3250,1.8315549,5.1163831,11.3915539,-36.4045792,-28.0152664,-23.3206100
3260,1.5658000,4.6926112,11.7746239,-31.9007626,-32.0381660,-23.6106873
3270,1.4365137,4.2425036,12.2774038,-19.8167934,-34.7175560,-22.4656487
3280,1.2784972,4.0677280,12.3013458,-7.4122138,-42.9083977,-20.0000000
3290,1.3096216,4.0126615,11.8344784,3.6335878,-47.8091621,-16.6870232
3300,1.6879035,3.8283088,11.5208397,13.7786255,-44.4580154,-13.6030531
3310,1.8938038,4.1347651,11.1904411,20.3129768,-43.5190849,-8.9160309
3320,2.0973101,4.0054789,10.5392218,22.2671757,-41.2671738,-3.3129771
3330,2.5450234,3.9049230,10.3261395,23.7938938,-27.2824421,1.4961832
3340,2.8275378,4.2879934,10.1154509,19.7251911,-28.0916023,4.5267177
3350,3.3566537,4.0413918,10.0101061,12.6488552,-14.5038166,-0.8625954
3360,3.2010312,3.9719603,10.0148945,16.4656487,-4.4732823,-6.9847326
3370,3.0861101,4.0030847,9.7180147,17.2824421,1.5190840,-9.4122133
3380,2.5929072,3.9887197,8.8393478,8.8396950,25.4427490,-6.5114503
3390,2.3702476,4.0629396,8.6214762,2.7251909,31.6259537,-4.4885497
3400,2.1882892,4.1922259,9.3612804,-6.1908398,9.9083967,-1.3816794
3410,2.3343346,4.2161674,9.4378948,-5.5114503,2.0381680,-2.8091602
3420,1.8674678,4.1347651,9.5336628,-15.4122133,19.2519093,-4.2824426
3430,1.6855093,4.4029145,9.6246414,-17.8549614,24.8702297,-1.1068702
3440,1.2880739,4.4914994,9.8520899,-27.3358784,31.6106873,11.4656487
3450,1.1923064,4.8913293,10.3333216,-27.8931293,24.4961834,16.2977104
3460,1.5107336,5.1211715,10.7163916,-26.1374054,16.6183205,20.1374054
3470,1.8746504,5.4036856,11.3508520,-21.7938938,7.4045801,23.0458012
3480,2.1619530,5.8681583,11.9637651,-14.4656487,-2.9923663,25.3358784
3490,2.5785420,6.4068508,12.4545736,-5.2977099,-11.8167934,26.5190830
3500,2.8610563,6.8425937,12.8232784,4.7480917,-23.3206100,26.4809170
3510,3.5362179,7.2998838,13.4122496,15.1755724,-32.0610695,26.0534344
3520,4.3670015,7.6254935,13.6420918,27.4503822,-34.8396950,21.7099228
3530,4.9056940,7.7380204,13.6516685,38.5267181,-34.7251892,12.9541988
3540,5.0469513,7.8242111,13.5535069,49.0000000,-34.8854980,1.6793894
3550,4.7165532,7.6949248,12.9429884,58.2824440,-33.9007645,-8.2137403
3560,4.1658897,7.3525558,11.9302464,65.6488571,-29.7251911,-15.3511448
3570,3.5170643,7.4507174,10.5464048,68.6106873,-27.6335869,-18.6717548
3580,2.9807658,7.2711535,9.4785957,62.1526718,-26.5648861,-20.1374054
3590,2.5067163,7.3525558,9.1649570,50.6259537,-26.1450386,-18.7099228
3600,2.3008161,7.7906923,9.7347746,41.5954208,-27.2519093,-18.1297703
3610,1.8243724,7.9439206,10.3309278,39.1450386,-34.0763359,-17.3511448
3620,1.4317253,8.2144642,10.6613255,41.5267181,-46.9771004,-16.0534344
3630,0.8427547,8.9135675,11.0850973,46.5190849,-66.4045792,-11.8091602
3640,0.6296718,9.7754755,11.2311430,56.1526718,-87.7404556,-4.0763359
3650,0.9385223,11.2502966,11.2718439,68.1450348,-105.0839691,2.0839694
3660,1.3934183,13.2853575,10.3716288,77.4274826,-117.9083939,4.8778625
3670,1.9680238,15.0929699,9.1003141,80.0305328,-120.9770966,3.0458016
3680,2.1140692,16.8287582,7.6470413,74.8320618,-112.1908417,-0.8167939
3690,1.8914096,18.0713425,5.9136481,62.9771004,-89.1603088,-2.5877862
3700,1.7381816,18.2940025,3.7684543,43.2061081,-52.0992355,-1.8473282
3710,2.1332228,16.5582142,1.6687500,16.9007626,-13.1679392,-3.3664122
3720,2.9113343,12.8639803,-0.0047884,-8.1145039,11.2977095,-11.9389315
3730,3.3494711,8.9231443,-1.2689204,-29.5801525,20.1984730,-26.5648861
3740,4.1227942,4.8841467,-1.7884595,-47.3129768,12.6870232,-46.2366409
3750,4.9823084,-0.0454896,-1.1109039,-58.5954208,1.5572519,-68.7633591
3760,5.5736732,-4.5633249,-0.7445929,-62.9771004,-5.1068702,-90.2748108
3770,6.2967181,-9.3517036,-0.7469871,-68.7099228,-8.0534353,-110.3282471
3780,6.3254485,-14.5518837,-0.8810617,-79.6641235,-8.3053436,-126.0534363
3790,4.8578105,-19.3594151,-1.2952565,-102.4198456,-12.1603050,-126.3969498
3800,2.7868366,-19.6131992,-1.1947005,-142.0534363,-15.5725193,-105.3511429
3810,0.1651991,-19.6131992,-1.6855093,-204.7862549,-20.1374054,-70.2977066
3820,-1.7717001,-19.6131992,2.1356170,-250.1374054,-44.3816795,-25.4045811
3830,-2.2242019,-19.6131992,9.8688488,-250.1374054,-100.5114517,21.9389305
3840,-1.3527170,-19.6131992,18.3754044,-250.1374054,-182.6564941,66.7786255
3850,1.9321109,-18.2030220,19.6126022,-235.1603088,-250.1374054,98.6030502
3860,6.3565731,-15.1264887,19.6126022,-123.9847336,-250.1374054,111.6717529
3870,11.3676119,-11.2981796,19.6126022,13.3053436,-250.1374054,98.4580154
3880,14.7003231,-8.3222027,19.6126022,136.2824402,-173.0763397,65.4427490
3890,15.2629576,-7.5919747,19.6126022,215.1145020,-55.1297722,23.2595425
3900,12.8567972,-8.9710283,15.1767673,250.1297760,51.5954208,-5.6870227
3910,9.2870607,-10.5248566,5.7819676,250.1297760,115.3816757,-9.9847326
3920,6.4188218,-10.1776991,-1.7046629,228.9389343,139.4732819,5.1297708
3930,5.2241216,-8.4275465,-4.4891052,179.2977142,136.3282471,20.6717548
3940,5.0421629,-6.1147599,-3.2417326,134.7633514,113.2290039,29.1755733
3950,5.4419928,-4.3622131,-0.5386927,110.3129807,89.8931274,28.9541988
3960,5.4324160,-3.2872221,1.8363433,100.8702316,67.4809189,23.2366409
3970,5.0613165,-2.5019281,3.6248028,101.1297684,48.7862587,18.5267181
3980,4.6973996,-1.6974803,4.4699516,105.2366409,42.2137413,17.4274807
3990,4.3167233,-0.6224893,4.6159973,102.8167953,44.2290077,21.1221371
4000,4.2975702,0.1508339,4.3765783,100.0992355,51.9312973,27.0229015
4010,5.5952206,7.4267755,5.1499014,5.8396945,91.8167953,14.0305347
4020,4.3789725,7.5871863,5.2001796,-8.2748089,93.9618301,3.5954199
4030,3.6535332,7.5369086,5.4108682,-19.4045811,88.2748108,-3.2748091
4040,3.2106080,7.3022780,5.5377603,-29.1297703,72.5267181,-10.4351149
4050,3.0621684,6.9383612,6.0309634,-39.1297722,52.6030540,-16.4885502
4060,3.1651185,6.6582408,7.2304521,-47.0228996,33.1755714,-22.3511448
4070,3.2608860,6.9024482,8.3317795,-49.0381660,22.6717548,-26.9083977
4080,3.4979107,7.4076223,9.0045462,-50.6870232,25.5572510,-29.8091602
4090,4.2233500,7.7380204,9.2367830,-54.9007645,43.4580154,-32.8625946
4100,4.6016321,7.9439206,9.3588867,-60.7557259,74.0916061,-38.7251892
4110,4.3334827,8.2312231,9.1098909,-64.5954208,103.9465637,-44.7175560
4120,4.1754665,8.2024927,8.2791071,-68.3358765,127.7862625,-50.8320618
4130,3.2273674,8.4083929,7.6470413,-75.9923630,137.4580078,-56.4122124
4140,1.9799947,8.8249826,8.2910776,-82.8549652,133.0839691,-57.6412201
4150,0.7589580,10.0364418,9.5384512,-80.9007645,119.9694672,-55.2977104
4160,-0.1771700,11.4825325,10.6158361,-71.3969498,100.0534363,-51.8015251
4170,-0.5769997,12.8328552,11.1329813,-58.6946564,77.9160309,-47.2595406
4180,-0.6607963,14.1329002,11.5591469,-49.6335869,59.6641235,-44.4122124
4190,-0.3399749,14.9181948,11.9206696,-44.6641235,48.9160309,-42.4656487
4200,-0.1388630,15.2701406,12.3851423,-41.9618340,46.0000000,-39.5190849
4210,-0.5722113,15.0139618,12.7538471,-41.1068687,43.6259537,-33.6717567
4220,-1.2066715,14.5758257,13.5175934,-37.0763359,33.3969460,-23.0152664
4230,-1.6280488,13.9988260,14.2789459,-25.1908398,13.3664122,-8.4809160
4240,-1.3168042,13.2470503,14.1688128,-9.5343513,-11.9160309,8.5496187
4250,-0.4285599,12.6580801,13.8743277,6.9312978,-38.1603050,26.6641216
4260,1.3335636,12.2079716,13.3787308,21.5648861,-62.7709923,39.7175560
4270,3.0621684,12.6293497,13.2470503,35.0000000,-82.0152664,44.0610695
4280,4.9368186,13.4840746,12.8591919,44.9465637,-87.9847336,38.6488533
4290,5.8657641,14.3818960,11.8320847,48.4809151,-86.1374054,23.2595425
4300,5.4156566,14.9876261,10.8791971,45.5572510,-88.9389343,4.2519083
4310,4.8027439,14.9181948,10.4769726,41.3893127,-96.8549652,-10.6335878
4320,4.4148855,14.7889080,10.0388365,42.6641235,-110.3740463,-21.3129768
4330,4.5058646,15.2461987,9.3349447,49.6488533,-137.4045868,-34.3969460
4340,4.6351509,15.9261484,8.3868456,59.9312973,-170.1984711,-49.3969460
4350,5.7053533,15.8088331,6.5361371,69.2442780,-192.2748108,-69.0381699
4360,5.6024032,14.9517136,3.9336534,72.3282471,-202.7557220,-90.8244247
4370,4.5824785,13.0076313,0.9983770,66.9542007,-210.6259613,-108.1832047
4380,3.0501974,10.1226330,-1.3527170,58.2671738,-215.6259613,-114.9389343
4390,1.8339491,6.8641410,-3.5410061,49.1603050,-230.4503784,-112.7099228
4400,2.2696917,2.9783716,-5.6335278,30.7175579,-247.5114441,-107.3435135
4410,3.5266411,-1.8411317,-6.7109132,-4.2595420,-245.1526642,-99.4656525
4420,4.7404952,-7.1442614,-6.3182659,-55.7557259,-198.6488495,-86.2824402
4430,5.2743993,-12.8304615,-5.6550756,-119.0457993,-105.7786255,-64.8778610
4440,3.6966286,-18.2892132,-5.2911587,-197.4274750,11.5343513,-35.2061081
4450,0.8355721,-19.6131992,-2.2074428,-250.1374054,87.8625946,2.2061069
4460,0.5171449,-19.6131992,3.6295912,-250.1374054,79.0534363,39.4885483
4470,1.9153515,-19.6131992,9.5216913,-250.1374054,-3.9847329,66.1297684
4480,4.8051381,-19.6131992,16.7258072,-250.1374054,-113.6946564,83.3587799
4490,8.8225880,-19.6131992,19.6126022,-238.6335907,-210.2061005,84.9847336
4500,13.0339670,-19.6131992,19.6126022,-148.5114441,-250.1374054,70.3282471
4510,16.4217453,-15.5502605,19.6126022,-39.4427490,-250.1374054,35.6030540
4520,17.0107155,-11.9972830,19.6126022,66.0534363,-157.2671814,-10.4274807
4530,14.9708662,-11.2598734,19.6126022,154.8320618,-23.1908398,-50.2213745
4540,10.4697905,-12.4282379,19.6126022,225.8625946,99.0992355,-66.2977066
4550,6.2871413,-13.9533358,12.2367020,250.1297760,159.5038147,-55.1221390
4560,3.4069316,-13.6013899,2.3079987,250.1297760,160.9618378,-29.4045811
4570,1.8914096,-10.8049774,-5.0134325,244.4274750,119.2366409,-0.5877863
4580,2.6383967,-7.6302819,-7.7978749,191.4732819,73.3435135,18.6106873
4590,4.8218975,-5.2720051,-5.5186067,137.8931274,53.0992355,23.1908398
4600,6.6654234,-3.7133877,-1.7812769,106.0610657,65.0229034,16.0839691
4610,5.9567432,-1.5849534,1.9632354,82.9618301,117.0305328,0.7938932
4620,4.3047528,0.0430954,1.5586174,78.9542007,131.9770966,-0.4351145
4630,1.6663558,2.9640064,0.3280039,56.2442741,123.8549652,14.7786255
4640,1.1779412,4.7883787,0.7038917,44.3816795,100.2977066,24.7251911
4650,4.6566987,8.0157461,3.3758070,1.1984733,14.3053436,56.0992355
4660,5.4970589,9.1314383,4.5178356,-13.5496187,21.6641216,51.9160309
4670,5.6981707,9.7371683,5.2791877,-27.1374054,35.5648842,45.9847336
4680,5.6383162,9.7180147,6.0165982,-40.9236641,51.7862587,40.3587799
4690,5.5114241,9.5911226,6.8497758,-51.7709923,66.3511429,33.7328262
4700,5.5186067,9.0524302,7.3669209,-59.0610695,73.4351120,25.0687027
4710,5.2815819,8.2120695,8.0516596,-63.7862587,69.2366409,14.4427481
4720,3.3494711,7.1011658,10.1058741,-53.1832047,8.4656487,-0.0839695
4730,2.9448531,7.3190370,10.2423429,-46.2595406,-6.3664122,-0.7175573
4740,2.7102225,7.5536675,10.0412302,-41.7938919,-11.2595415,1.1908396
4750,3.0980811,5.1427188,10.5823174,-75.3511429,36.7709923,2.9236641
4760,2.6144550,4.7883787,11.0420017,-71.8931274,39.3206100,5.0458016
4770,2.5210814,4.6040263,11.2718439,-65.5267181,38.0000000,9.3893127
4780,2.5043221,4.6638808,11.2694502,-58.2137413,36.8625946,13.5496187
4790,2.6695213,4.8985114,10.9079275,-52.3587799,36.6488533,17.5267181
4800,2.9472473,5.0924411,10.4123297,-49.9847336,39.3282433,20.9770985
4810,3.4572096,5.1977854,10.0532017,-51.9160309,41.7786255,20.8702297
4820,3.8043671,5.3558016,9.9957409,-56.0152664,40.7786255,16.8778629
4830,3.9599893,5.3198891,10.4530315,-57.3587799,34.1984749,10.5801525
4840,4.0294209,5.1570840,10.9486284,-54.6946564,22.3587780,2.1832061
4850,3.9552009,5.0110383,11.2694502,-48.9847336,9.0381680,-7.4045801
4860,3.6248028,4.8458395,11.5423870,-41.4580154,-4.2519083,-15.7022905
4870,3.0214672,4.6351509,11.5974541,-34.0763359,-13.2061071,-20.3664131
4880,2.4851687,4.3909435,11.3005743,-28.8320618,-15.5572519,-20.2748089
4890,2.1308286,4.2592630,11.0994625,-26.3587780,-14.2061071,-16.8167934
4900,2.0111191,4.1515245,11.1473465,-26.1526718,-9.5114508,-11.4045801
4910,2.1140692,4.1706781,11.4777441,-24.8015270,-3.3435113,-6.2137403
4920,2.2696917,4.1563129,11.6812506,-21.7862587,3.1145039,-2.0305343
4930,2.4779861,4.0294209,11.5687237,-7.3206105,8.5038166,4.2671757
4940,2.5210814,3.9623835,11.3173332,-2.4503818,7.1297708,4.6106873
4950,2.5905130,3.9097114,10.9653873,0.8015267,4.9236641,4.8931298
4960,2.5689652,4.0294209,10.9270811,3.1526718,2.6412213,5.1374044
4970,2.4468615,4.2568688,10.9055328,6.5496182,0.2671756,5.6793895
4980,2.8921809,5.2791877,9.9598284,16.3893127,-7.7709923,7.5190840
4990,3.7301471,5.9926562,10.4745789,8.6030531,-6.8396945,1.0305344
5000,3.5003049,5.8873119,11.9541883,8.3664122,-17.5725193,-10.0000000
5010,3.1076579,5.7723908,12.6269550,16.3358784,-29.5572510,-12.5114508
5020,2.8682389,5.7340837,12.8376436,28.7633591,-42.5954208,-12.0458012
5030,2.6934631,5.7867560,12.8759508,42.3358765,-56.4732819,-10.4809160
5040,2.6216373,6.1985564,12.3923244,54.5419846,-69.3969498,-7.9160304
5050,2.6814921,6.5792327,11.9757357,63.0228996,-77.9923630,-5.0000000
5060,2.8826041,7.0604649,11.3963413,66.6259537,-78.5877838,-1.8167939
5070,2.7317703,7.6422529,10.7977943,64.8244247,-72.0000000,1.7709924
5080,2.7102225,8.1857338,10.3931761,57.3435097,-58.5419846,8.9007635
5090,2.8419030,8.6334467,10.5080976,47.3511467,-41.7633591,16.8931293
5100,2.8179610,9.1577749,11.3412752,40.5038185,-28.5801525,24.3664131
5110,2.5474176,9.7347746,11.8560257,39.8091621,-20.3358784,31.3358784
5120,2.1308286,10.6996326,12.3013458,43.6412201,-17.3969460,38.4198456
5130,1.9895715,12.1289635,12.1553001,50.6106873,-21.5877857,43.6488533
5140,1.8339491,13.8048964,11.6788559,56.2366409,-34.2290077,45.2900772
5150,1.9512644,15.4975882,11.1760759,60.0763359,-52.7251892,44.2977104
5160,2.6383967,16.0841656,10.6685085,67.1145020,-71.7709961,39.9465637
5170,3.4763632,15.4209747,9.1386213,74.9542007,-88.9465637,31.8320618
5180,4.3263001,14.3028879,6.8976598,77.6564865,-100.8244247,23.1297703
5190,5.2408805,12.7107515,4.6566987,74.6870193,-105.9923630,15.2442751
5200,6.1291251,10.1705170,1.5681942,59.7862587,-100.7786255,8.1984730
5210,6.7492199,7.2519999,-0.6631905,33.2366409,-87.2213745,1.6412214
5220,7.3214312,4.2712340,-1.4676381,2.2061069,-72.1221390,-5.8625956
5230,8.3245964,0.8547257,-0.7541697,-29.6259537,-54.6259537,-15.7633591
5240,9.4690189,-4.0342093,0.0909792,-58.3893127,-23.1145039,-28.9618320
5250,9.2726955,-8.8130112,0.6416427,-85.1603088,14.3740454,-42.0839691
5260,8.8345594,-12.6892042,1.9321109,-105.5190811,34.9236641,-55.0610695
5270,9.0356712,-16.4169579,3.9504125,-117.0000000,29.9618320,-69.1755753
5280,9.7826586,-19.6131992,6.0357518,-128.9389343,-12.8244276,-86.9618301
5290,9.2248116,-19.6131992,8.7603388,-138.9541931,-69.2442780,-108.2977066
5300,7.1227136,-19.6131992,12.0858688,-145.3587799,-119.8396912,-120.1145020
5310,5.2791877,-19.6131992,16.1583843,-146.6641235,-144.8244324,-120.2061081
5320,3.8163381,-19.6131992,19.6126022,-136.2290039,-128.8931274,-113.7099228
5330,3.3566537,-17.5661678,19.6126022,-106.4809189,-71.0305328,-104.6717529
5340,2.4037662,-16.0650120,19.6126022,-51.0152664,23.3664131,-94.0381699
5350,0.0287303,-14.9804430,19.6126022,29.0305347,120.1679382,-71.0839691
5360,-1.7764885,-14.1544485,19.6126022,115.0381699,187.2519073,-30.3664131
5370,-1.2521610,-13.7067347,14.7242651,184.7328186,215.4885559,20.0305347
5380,0.9792235,-12.3252869,6.9192076,218.4351196,209.9160309,64.4503784
5390,3.8522508,-10.0986910,0.7230452,215.2061005,184.4198456,95.6717529
5400,6.5792327,-7.9080076,-2.7293761,186.1832123,153.8931274,107.2442780
5410,8.8154058,-5.7364779,-3.8666160,144.8320618,138.3893127,105.9312973
5420,10.1537571,-3.8426740,-2.7820482,103.8396912,145.9389343,93.2977066
5430,9.6629486,-2.0111191,-1.1372399,71.9389343,166.4580078,76.5877838
5440,7.7260494,-0.1891410,0.5027798,51.0763359,180.6183167,61.9236641
5450,5.7676024,0.9026094,1.6424140,41.3053436,177.9389343,52.5648842
5460,3.9144998,1.2928623,2.0925217,36.3587799,159.8167877,49.3206100
5470,2.3223639,2.1068866,2.5210814,32.7480927,132.8015289,53.7786255
5480,6.2248926,8.3317795,5.8513989,1.4656489,17.6183205,82.0457993
5490,7.4004397,8.5185261,6.7372489,-19.7328243,34.3282433,47.0458031
5500,6.8282285,8.4323349,6.9790621,-28.3129768,39.1068687,26.9847336
5510,5.5162125,8.6813307,7.2017217,-36.9236641,38.4503822,11.1832066
5520,3.3063757,10.0771437,7.7811155,-54.0839691,30.7022896,0.4885496
5530,2.6048782,11.0443964,8.1570034,-64.7862625,36.9007645,0.5496183
5540,2.2002602,11.3987360,8.4562769,-75.5877838,44.7862587,0.3740458
5550,2.0230901,11.5232334,8.8201942,-86.8167953,49.3053436,-0.4045801
5560,1.8100072,11.8871508,9.6102762,-98.0457993,52.1603050,-1.8396946
5570,0.8882443,13.1321287,10.6876621,-108.4045792,52.9312973,-1.8854961
5580,0.0383070,14.7290535,12.6078014,-115.1984711,47.4045792,0.8091603
5590,-0.5147507,15.6149035,14.4704809,-113.9236679,34.1068687,6.0076337
5600,-0.7445929,15.9955797,16.3020363,-104.1526718,11.8473282,14.0381680
5610,-0.6799498,15.4904060,17.4464588,-90.4656525,-16.8702297,25.8091602
5620,-0.0071826,15.3778791,18.7465038,-73.4961853,-46.1984749,41.6259537
5630,1.8315549,15.5861731,19.6126022,-51.7633591,-70.4885483,56.5496178
5640,4.3286943,15.3874559,19.6126022,-28.8854961,-86.6030502,64.6641235
5650,7.1993275,15.8088331,19.3785686,-9.7328243,-92.4961853,61.1374054
5660,9.2343884,16.4720230,18.6842537,3.8015268,-92.4732819,45.0381660
5670,9.7060442,16.7665081,17.9899387,14.6106873,-87.5725174,22.3129768
5680,9.2104464,16.4528694,17.1783085,25.0458012,-77.7328262,1.2977099
5690,8.4371233,15.8016500,15.7106714,32.7099228,-63.7938919,-15.8625956
5700,7.7452030,14.7936964,14.0993814,36.4351158,-44.1297722,-30.4656487
5710,6.9000540,13.6899757,12.2414904,35.9541969,-24.2519093,-43.6259537
5720,6.1434903,12.6820211,10.5033092,32.4503822,-4.7099237,-55.4045792
5730,5.7029591,11.5926657,8.8704720,29.0458012,10.9770994,-70.2061081
5740,3.7708483,7.2472115,5.2959471,27.6183205,-14.8702288,-102.2595444
5750,3.4500270,5.0972295,4.2448978,30.6641216,-55.1297722,-112.6641235
5760,3.8953462,2.9256995,3.6583214,34.7251892,-96.7328262,-122.9923630
5770,4.2089849,0.5362985,3.3470769,37.9694672,-123.7480927,-131.6488495
5780,4.1730723,-2.0685797,2.5976956,40.2366409,-131.9236603,-133.9770966
5790,4.1060348,-4.7476778,1.2210367,35.0458031,-124.3969498,-130.8931274
5800,3.9192882,-7.3094602,-0.2968795,20.3511448,-104.6946564,-122.9236679
5810,3.8283088,-9.8592720,-1.1731528,-2.6564887,-79.5419846,-111.0916061
5820,3.6176202,-11.9182749,-1.3718705,-29.1984730,-57.0458031,-96.3969498
5830,3.7876077,-13.4697094,-1.3048333,-57.7480927,-40.4809151,-80.3053436
5840,4.6614871,-15.0546637,-1.2641320,-91.5496216,-29.0534344,-66.5725174
5850,6.0022330,-16.4744167,-1.2689204,-138.4122162,-14.3435116,-63.5725174
5860,6.5888095,-16.7856617,0.3375807,-193.9084015,-2.1603053,-74.0839691
5870,6.1554613,-17.1639442,4.3358769,-244.3206177,1.9236641,-92.7328262
5880,4.6638808,-17.7409439,9.9095497,-250.1374054,1.2748091,-112.1297684
5890,2.7676830,-18.3035774,16.1535969,-250.1374054,1.0076336,-127.2290039
5900,0.4285599,-17.2980194,19.6126022,-226.5496216,11.6106873,-129.7709961
5910,-0.8427547,-15.4568872,19.6126022,-141.2213745,50.2366409,-116.2137375
5920,-1.5322813,-13.9270000,19.6126022,-30.0000000,117.5343475,-90.0839691
5930,-2.9233053,-13.2446556,19.6126022,74.4809189,177.0000000,-41.3206100
5940,-2.7413468,-12.3468351,17.4273052,146.4274750,195.4427490,16.8396950
5950,-1.2665262,-10.2495251,9.8927908,183.4961853,165.6488495,66.9770966
5960,1.2856797,-7.8840661,4.1108232,191.0839691,104.6030502,99.9923630
5970,4.5537481,-5.4156566,1.2521610,177.4503784,52.9007645,112.9542007
5980,7.0891948,-3.2704628,0.7110743,153.1297760,31.9618320,108.6870193
5990,8.4730368,-1.7381816,1.5227045,127.1145020,42.0000000,95.9160309
6000,8.3389616,-0.9816177,2.9017577,107.3358765,64.6106873,83.0381699
6010,7.4698710,-0.3471575,4.1036406,98.9618301,85.7404556,74.9923630
6020,6.6366930,0.2849085,4.3957319,94.3435135,102.5954208,71.6259537
6030,5.4012914,1.4341195,3.9264708,91.2366409,114.3587799,70.9618301
6040,4.3574247,2.9472473,3.1794837,85.1908417,114.5343475,70.5877838
6050,3.2944047,4.3670015,2.9113343,75.7480927,103.8778610,67.7938919
6060,2.6719155,7.9870162,5.9639258,5.6946564,91.7480927,76.6870193
6070,3.1842721,8.9734221,6.2536230,-5.1908398,103.3282471,70.6183243
6080,3.4260850,9.7970228,6.6821828,-13.1984730,108.7328262,55.8091621
6090,3.3734128,9.6797075,6.9862447,-17.3511448,103.5954208,35.4885483
6100,3.1794837,8.8345594,7.0868006,-18.2671757,91.2900772,14.8702288
6110,2.4875629,7.8936424,7.1227136,-18.4045811,71.8549652,-3.2213740
6120,1.9273225,7.3764977,6.9982157,-18.7099228,51.4580154,-17.1603050
6130,0.9792235,7.2280579,6.8545642,-20.1984730,31.5801525,-27.2290077
6140,0.0239419,7.1753860,6.9096308,-22.7022896,13.0534353,-31.7175579
6150,-0.5458752,7.0508881,6.9120250,-28.6030540,-2.3282442,-31.4732819
6160,-1.0271072,7.1610208,7.0484939,-37.5877876,-13.5114508,-29.1984730
6170,-1.2976507,7.3022780,7.5704269,-46.1679382,-21.7404575,-24.5114498
6180,-1.1037214,6.9623032,8.1737623,-53.9618340,-26.8702297,-19.1832066
6190,-0.5434810,6.5433197,8.6741486,-59.8396950,-28.8625946,-14.9770994
6200,-0.1244979,6.1315193,9.1625633,-65.6793900,-30.2442741,-12.9160309
6210,0.1077385,5.7652082,9.8664551,-70.1297684,-31.2748089,-12.5114508
6220,0.1604107,5.6646523,10.7666702,-70.9160309,-34.0152664,-12.1679392
6230,0.3543400,5.6742291,11.2838144,-68.6641235,-33.8931313,-12.2748089
6240,0.3232156,5.8322453,11.7363167,-65.5190811,-30.8702297,-13.2595415
6250,0.2154770,5.9064655,12.0355902,-61.6335869,-28.9770985,-14.2900763
6260,0.1316804,5.7556314,12.2989511,-57.2137413,-29.2137413,-15.5572519
6270,0.1436514,5.7388721,12.3324699,-51.7709923,-28.8473282,-16.5954189
6280,0.2418131,5.7053533,12.0691090,-49.2137413,-25.7557259,-18.3206100
6290,0.2370248,5.5593081,11.9063044,-51.1755714,-17.4045811,-20.4961834
6300,-0.1412572,5.6263452,12.0667152,-55.6183205,-3.0839694,-21.3206100
6310,-0.6847382,5.9136481,12.4761209,-59.2290077,12.9236641,-21.2213745
6320,-1.0295014,6.0884237,12.9477768,-62.2137413,30.3282452,-20.1603050
6330,-1.3359578,6.0070214,13.2231083,-66.3664093,52.3587799,-19.9312973
6340,-1.8698620,5.7125359,13.6013899,-70.4351120,70.6564865,-20.5877857
6350,-2.5737536,5.1068063,14.5447006,-67.1450348,69.2595444,-21.7099228
6360,-2.5737536,4.6902170,15.3012648,-54.7709923,50.2519073,-23.0076332
6370,-2.2672975,4.5226240,15.7226419,-37.3282433,25.5648861,-25.9541988
6380,-1.8219782,4.2999644,15.7872849,-18.9312973,1.9083970,-29.5954189
6390,-1.5562232,4.1419477,15.5335016,-1.6183206,-17.6259537,-32.6259537
6400,-1.3982066,4.1347651,14.9636841,13.3206110,-29.6030540,-33.8625946
6410,-1.2784972,4.2496862,14.0251617,24.4961834,-32.3435097,-32.6870232
6420,-1.2713146,4.4507980,13.3380299,32.2900772,-31.9312973,-30.0839691
6430,-1.2425843,4.5154414,12.4449968,37.3969460,-29.4732819,-25.5572510
6440,-1.2425843,4.9918852,11.2526903,39.1068687,-26.7938938,-20.7251911
6450,-1.1156923,5.3390427,10.2926207,37.4045792,-24.4885502,-15.8091602
6460,-0.9073978,5.6646523,9.5863342,32.0916023,-24.8549614,-12.0000000
6470,-1.0127422,6.2368636,8.9303265,24.2519093,-29.9770985,-8.3435116
6480,-0.5506636,7.2472115,8.6885138,13.3740454,-36.5496178,-5.2671757
6490,-0.0287303,8.1593981,9.2822723,2.0534351,-37.7328262,-3.7099237
6500,0.4668669,8.6813307,10.1082678,-7.5648856,-36.5267181,-4.6259542
6510,0.3974355,8.6956959,11.3221216,-13.4961834,-33.1297722,-5.0458016
6520,0.0239419,8.7483683,12.3995075,-15.2824430,-34.3053436,-1.1908396
6530,-0.0167593,9.0667953,13.4385853,-11.5801525,-35.5801544,3.7480917
6540,-0.1939293,9.2870607,14.1975431,-4.8778625,-39.5190849,8.6641226
6550,-0.0335187,9.6222477,14.5470953,7.9083967,-47.9541969,13.2519083
6560,0.3447633,10.1178446,14.0347385,22.0458012,-57.1984749,14.9312973
6570,0.6536137,10.4889441,13.1345234,31.8702297,-63.5496178,16.1832066
6580,0.7637464,10.5775290,12.3516235,38.8015251,-64.7709961,16.9694653
6590,0.6847382,10.8648319,11.6668854,47.3053436,-66.8091583,17.6870232
6600,1.0127422,11.1401634,10.5655584,56.4961815,-74.2442780,16.1755733
6610,1.6591733,10.7834291,8.9829988,61.8091621,-90.5190811,10.3740454
6620,2.4181314,10.4865494,7.5345144,63.2366409,-108.2442780,1.5572519
6630,3.0406206,10.2040358,5.8777351,60.7938919,-117.2137375,-8.9923668
6640,3.6583214,9.7108326,4.5058646,53.6030540,-121.4656525,-23.4045811
6650,4.0030847,8.2360115,2.8323262,38.5496178,-117.6946564,-39.7022896
6660,3.5888901,5.8106980,1.2928623,15.8931293,-104.6564865,-52.4427490
6670,2.8323262,3.2872221,0.4094064,-6.2671757,-104.3511429,-59.8931313
6680,2.6934631,0.9552816,0.7733232,-16.7862587,-129.9847260,-66.8778610
6690,3.2321558,-1.1851238,1.5250987,-11.2366409,-182.5419922,-76.5877838
6700,4.1060348,-3.3542595,1.6232605,3.7557251,-246.6641235,-88.0534363
6710,4.5585365,-5.6502872,1.1492109,19.3511448,-250.1374054,-95.7022934
6720,4.9416070,-7.5943689,0.9672526,33.2595406,-250.1374054,-95.7709961
6730,4.9128766,-9.7323799,1.3503228,47.4274826,-250.1374054,-84.3740463
6740,5.0804701,-11.7818060,1.5921360,60.6641235,-250.1374054,-60.0534363
6750,7.0053983,-14.4369621,1.0821736,57.4809151,-250.1374054,-22.6183205
6760,11.3364868,-17.6116581,0.4932030,19.7404575,-250.1374054,23.2519093
6770,16.6132812,-19.6131992,0.3471575,-66.6488571,-250.1374054,60.8931313
6780,19.6126022,-18.4161053,3.2201848,-186.7175598,-189.4045868,72.7938919
6790,19.6126022,-15.9453020,12.5766773,-250.1374054,-13.5038166,53.5114517
6800,17.0131111,-14.1951494,19.6126022,-250.1374054,125.6641235,20.1755733
6810,11.8608141,-12.3420467,19.6126022,-193.6793823,220.9847260,-5.0152674
6820,7.7619624,-10.9079275,19.6126022,-39.7328262,250.1297760,-20.2671757
6830,4.2927818,-11.3915539,19.6126022,131.9465637,250.1297760,-18.7786255
6840,2.3702476,-12.3420467,18.2820301,250.1297760,240.9618378,-3.1068702
6850,1.7980363,-11.7698355,7.1610208,250.1297760,168.0000000,13.2748089
6860,1.6687500,-9.2415714,-1.1731528,250.1297760,90.5572510,24.3511448
6870,2.4540441,-6.7875271,-6.7252784,250.1297760,25.2442741,34.9465637
6880,4.2760224,-4.4316444,-9.3110027,222.1068726,-0.6717557,40.6641235
6890,5.7364779,-1.3862357,-9.0117292,144.0610657,12.4732828,40.6412201
6900,6.4236102,0.4596844,-6.1530671,75.4427490,45.8167953,36.7175560
6910,6.5002246,1.8626794,-2.5210814,28.5419846,81.3282471,29.7633591
6920,4.7285242,3.8761928,2.9879484,-2.4122138,112.0610657,22.9389305
6930,4.3023586,4.3334827,4.0413918,-2.7251909,104.2977066,24.9541988
6940,8.1593981,7.6781654,8.1378498,2.4427481,-1.9847329,31.3053436
6950,9.0835552,7.5345144,8.5041609,10.9007635,-13.6183205,14.8931293
6960,9.7395630,6.9072366,8.1115141,15.0687027,-17.0229015,-3.4122138
6970,9.4594421,6.4882536,7.2903070,10.6641226,-5.8778625,-20.2366409
6980,8.1761570,6.7492199,6.6438756,-0.4198473,11.7709923,-32.8167953
6990,6.7516141,6.7827387,6.4834652,-12.0458012,31.4656487,-39.1068687
7000,5.3342543,6.8689294,6.2823529,-24.7709923,47.5572510,-39.9618340
7010,4.2281384,7.1083484,6.4164276,-36.7938919,56.0000000,-38.5648842
7020,3.6966286,7.3166428,6.8856888,-44.9236641,55.6793900,-37.1908379
7030,3.4787574,7.2328463,7.1298962,-50.2366409,47.9312973,-37.7480927
7040,3.2345500,6.9192076,7.5728211,-54.0152664,35.5725174,-39.4732819
7050,2.7844424,6.4355812,7.7691450,-57.2519073,21.4885502,-40.3587799
7060,2.6120608,5.9950504,8.2719250,-60.1908379,8.2595415,-39.7709923
7070,2.3391230,5.7101417,9.0260944,-60.3664131,1.8167939,-37.4580154
7080,1.7908537,5.2696109,9.5480280,-57.2290077,-1.6641221,-32.0839691
7090,1.2713146,5.0972295,9.6940727,-52.3435097,-2.8473282,-23.0305347
7100,0.9528874,5.2600341,9.9167328,-46.0916023,-2.7786260,-9.7022905
7110,1.2354017,5.4539638,9.7228031,-42.0152664,1.4274809,6.0152674
7120,3.1986370,6.1458845,9.2343884,-43.8625946,18.4961834,32.8167953
7130,4.6016321,6.7372489,9.5240860,-49.1297722,30.5190830,38.5343513
7140,5.9184365,7.1562324,10.1824875,-53.8015251,42.1145020,36.3206100
7150,6.8593526,7.3501616,10.8073711,-55.6030540,47.9541969,26.3358784
7160,6.5935979,7.0724359,11.2455082,-55.5038185,43.4122124,12.4885492
7170,5.5904322,6.3924856,11.4298601,-52.6564903,27.9312973,0.8625954
7180,4.6447277,6.0525107,11.6668854,-47.5419846,0.9541985,-5.4351144
7190,3.9192882,5.7891502,11.5663290,-41.1221390,-29.7938938,-9.4961834
7200,3.3446827,5.7388721,11.6501255,-33.7404594,-52.0534363,-9.1908398
7210,3.1699069,5.8250628,11.5926657,-26.6259537,-64.9770966,-3.3664122
7220,3.4165084,5.8274570,11.3149395,-21.1450386,-66.8854980,3.5572519
7230,4.0342093,5.8585815,11.2095947,-20.3969460,-56.2900772,9.0076332
7240,4.7261300,5.9208307,11.2574787,-22.5267181,-36.0687027,12.1908398
7250,4.8817525,5.9471664,11.5878773,-24.0610695,-13.3893127,13.2748089
7260,4.8602047,5.8442163,11.7770176,-23.4961834,6.5343513,13.4122133
7270,4.4484038,5.7867560,12.2175484,-19.1832066,19.4885502,13.6106873
7280,3.9935081,6.0716643,12.6317434,-9.6488552,23.9694653,14.1145039
7290,3.3470769,6.6606350,12.0260134,16.4045811,15.3358774,14.6641226
7300,2.7916248,7.7691450,10.4769726,31.4351139,-1.7862595,16.0076332
7310,2.5354466,8.5735922,10.0651722,33.3129768,-8.1526718,17.2213745
7320,2.7293761,9.2894554,9.8568783,30.8931293,-11.5038166,18.1145039
7330,2.9185169,9.9885588,10.1393919,26.7099228,-10.7786255,17.1603050
7340,2.9520357,10.2662840,10.8169479,24.2290077,-9.8091602,15.2977095
7350,2.4109488,10.6206245,11.2862091,24.7709923,-14.5877867,14.6641226
7360,2.1140692,11.4274664,11.9541883,24.1221371,-18.4198475,17.8091602
7370,2.0374553,11.7506819,13.0339670,25.3358784,-16.8702297,23.1221371
7380,2.3941894,12.0164366,14.1807842,31.1068707,-11.3282442,28.3740463
7390,3.0597742,12.0810804,15.0091734,39.8320618,-3.1755726,31.2213745
7400,3.7253587,11.8129311,15.2461987,52.6946564,3.7786260,31.4961834
7410,4.2377152,11.5735121,14.4609041,68.0992355,1.7938931,30.9618320
7420,4.7452836,11.4633789,12.9693241,79.3129807,-5.0305343,30.2900772
7430,5.3222833,11.4514084,11.4873209,85.4198456,-9.0534353,28.1297703
7440,5.7412663,11.5639353,9.7275915,87.3740463,-6.5038166,24.7328243
7450,7.1418672,10.7810354,4.6399393,73.2519073,11.8167934,10.4274807
7460,7.5009956,10.2112179,2.2289903,54.6870232,22.7175579,-3.5343511
7470,7.3741035,9.2343884,0.7014975,32.7633591,27.9083977,-19.8854961
7480,7.4076223,7.9534974,-0.3351865,12.8244276,21.6030540,-38.3969460
7490,7.3788919,6.1746144,-0.7374104,-5.4580154,5.1603055,-60.0152664
7500,7.5009956,4.1180058,-0.6344602,-19.0076332,-13.7633591,-82.5954208
7510,7.1418672,1.8746504,0.0550664,-27.7557259,-31.7938938,-104.6870193
7520,6.3541789,-0.9504932,1.1611819,-29.1603050,-44.2519073,-120.6106873
7530,5.1714492,-3.8881636,2.2912393,-22.4580154,-47.6488533,-126.3129807
7540,4.0844874,-6.6582408,2.3319404,-14.0916033,-37.6488533,-121.2748108
7550,3.0669568,-9.7658987,1.3263810,-15.5725193,-19.0610695,-103.7862625
7560,2.7964132,-12.5671005,-0.6991033,-41.7557259,24.7633591,-78.1984711
7570,3.1148405,-15.8447456,-3.9863255,-106.5114517,106.0076370,-54.4198456
7580,3.5817075,-18.9500103,-6.5361371,-216.0152740,216.9541931,-42.7175560
7590,1.8531027,-19.6131992,-4.1275826,-250.1374054,250.1297760,-43.0152664
7600,-1.8722562,-19.6131992,5.6383162,-250.1374054,250.1297760,-39.5496178
7610,-4.9607606,-19.6131992,18.1742916,-250.1374054,237.8778687,-22.2824421
7620,-4.7979555,-19.6131992,19.6126022,-250.1374054,119.9083939,6.1297708
7630,-3.7493007,-19.6131992,19.6126022,-169.4045868,22.7557259,33.4503822
7640,-1.8004304,-16.1488075,19.6126022,9.9618320,-33.5190849,56.8244286
7650,1.1516051,-13.3739424,19.6126022,166.9923706,-37.9771004,71.8091583
7660,3.8402798,-12.1600885,19.6126022,250.1297760,-6.7786260,80.1450348
7670,5.7628140,-11.0396080,10.7690639,250.1297760,30.4732819,86.8931274
7680,6.7228842,-8.8632889,2.4947455,250.1297760,56.1297722,93.3740463
7690,7.0580707,-6.4068508,-3.2249732,250.1297760,65.7480927,96.0457993
7700,7.1298962,-3.6008608,-6.4164276,202.4045868,59.6564903,98.4809189
7710,7.5033898,-1.1563935,-6.1339135,137.9847260,55.2671738,93.9542007
7720,7.5871863,0.2968795,-3.5529771,84.1832047,61.2213745,81.4427490
7730,6.9862447,1.1156923,-0.5243275,45.9465637,80.9618301,69.5267181
7740,3.9097114,2.5929072,4.2640514,16.0687027,104.3893127,58.9847336
7750,2.6910689,3.0861101,5.1594782,15.4045801,103.8931274,63.8931313
7760,2.1427996,3.7301471,5.2887645,14.3053436,101.2061081,74.0839691
7770,2.5474176,4.8171091,5.2624283,10.1679392,101.2442780,84.5267181
7780,3.0501974,5.5617023,5.2815819,2.0229008,98.4809189,91.6183243
7790,4.1419477,5.8729467,5.7149301,-7.6259542,101.3893127,95.4427490
7800,5.9256191,6.1003947,6.5768385,-15.0381680,102.7022934,89.6717529
7810,7.0844064,6.2009506,7.0868006,-20.8167934,107.7938919,74.1450348
7820,7.2208753,6.2009506,7.7212610,-24.0381680,110.8778610,53.5725174
7830,6.5074067,6.2655940,8.3581152,-23.9083977,110.8244247,33.4732819
7840,5.3917146,6.5337429,8.7459745,-20.6793900,106.4732819,13.4045801
7850,4.3765783,6.5289545,8.5209198,-15.4809160,96.3816757,-6.4961834
7860,3.2776453,6.2703824,8.0564480,-11.2061071,84.2442780,-25.6030540
7870,2.2337787,5.7843618,7.4028339,-10.9618320,66.9160309,-41.6717567
7880,1.6855093,5.6598639,6.7085190,-19.4427490,54.0916023,-55.6335869
7890,1.5442522,6.1722202,6.7707677,-39.4274826,66.3435135,-66.0152664
7900,2.5138988,6.6462698,6.8234401,-71.9312973,123.1755753,-79.9694672
7910,1.5658000,6.9982157,6.4044566,-110.5877838,198.4503784,-99.8854980
7920,-1.9967541,6.9383612,7.0460997,-140.6870270,244.7862549,-114.5343475
7930,-6.1387019,6.7707677,8.5065556,-147.2061005,234.4656525,-116.0000000
7940,-9.8305416,7.1873569,9.0596132,-136.5190887,170.2213745,-104.2671738
7950,-10.8911676,8.6262646,9.7419567,-124.1297684,73.4351120,-83.8473282
7960,-9.0021524,10.4410601,11.7434988,-114.0000000,-8.7480917,-69.1221390
7970,-6.8138633,11.6620970,14.3004932,-104.9770966,-50.8549614,-62.5954208
7980,-5.2265158,12.5287933,16.4073811,-98.1297684,-51.4656487,-60.9847336
7990,-5.0732875,12.6604738,18.4304695,-90.5343475,-33.6412201,-59.2748108
8000,-6.2488346,12.2797976,19.6126022,-76.0610657,-23.2442741,-54.1526718
8010,-7.4555058,11.9972830,19.6126022,-52.7480927,-29.9618320,-40.8702278
8020,-8.0109577,11.4921093,19.6126022,-23.9007626,-50.5725174,-21.1297703
8030,-7.8266053,11.2670555,19.6126022,6.2595420,-71.7328262,1.3206106
8040,-7.1562324,11.0898857,19.6126022,37.8549614,-90.1526718,25.6259537
8050,-5.6024032,10.9103212,18.7752342,66.4122162,-105.5343475,47.1984749
8060,-2.6623387,11.0420017,16.1871147,85.4198456,-112.3816757,60.0687027
8070,1.6950861,11.9948893,13.0291786,90.3740463,-103.8091583,53.5801544
8080,4.4986820,12.8711624,9.9215212,80.3740463,-89.2442780,27.7175579
8090,5.4204450,12.9573536,7.5680327,60.5801544,-87.1297684,-6.0534353
8100,5.2935529,12.7897596,6.6534524,40.2748108,-96.6335907,-38.9694672
8110,5.2408805,12.3707771,6.6510582,23.4885502,-111.3893127,-69.7786255
8120,4.8602047,11.2024126,7.2519999,12.1145039,-122.0229034,-98.8015289
8130,3.6080434,9.2535419,8.2336178,9.9694653,-130.5648804,-119.2671738
8140,1.8435259,7.0963774,8.8201942,17.6183205,-141.5419922,-128.1297760
8150,-0.7038917,4.9583664,8.4826136,31.9847336,-157.8167877,-122.4732819
8160,-2.8490853,2.4947455,8.0325060,50.7557259,-184.7022858,-100.5190811
8170,-3.7660601,-0.3543400,7.1658092,72.0229034,-213.3664093,-63.7099228
8180,-2.4971397,-3.4021432,5.5880380,90.6870193,-225.6183167,-20.5419846
8190,0.8834559,-7.2400289,3.3710186,97.5801544,-204.5267181,20.6946564
8200,5.8825235,-13.0722742,0.3950413,79.7099228,-138.2671814,47.2061081
8210,10.5823174,-19.6131992,-2.6695213,29.7480907,-31.0763359,51.9771004
8220,14.7889080,-19.6131992,-3.6846576,-44.1297722,88.6106873,34.1832047
8230,14.4704809,-19.6131992,-3.2728570,-134.8702240,171.9313049,-18.4732819
8240,7.6877422,-19.6131992,1.4532729,-216.8702240,202.2137451,-85.3740463
8250,-3.8594334,-19.6131992,13.3547888,-230.4885559,169.2061005,-120.0992355
8260,-15.9429073,-19.6131992,19.6126022,-143.9694672,81.2061081,-84.1374054
8270,-19.6131992,-19.6131992,19.6126022,16.0839691,-11.3053436,7.2290077
8280,-16.6659527,-19.1367569,19.6126022,179.3893127,-72.0229034,111.4351120
8290,-6.4571290,-14.6883526,13.4768925,250.1297760,-76.5801544,173.6412201
8300,2.7389526,-10.0053177,2.9304879,250.1297760,-46.4656487,185.4351196
8310,8.1426382,-5.4395986,-3.2249732,212.0458069,-6.9007635,166.9541931
8320,10.4793673,-1.9009864,-5.3390427,139.5343475,29.3511448,136.8549652
8330,10.2830439,0.7805058,-3.7325413,67.8473282,59.4656487,105.2290039
8340,5.8729467,4.8147149,9.5121145,0.3664122,99.5572510,13.4351149
8350,5.2528515,5.2456689,9.8185711,5.5496182,114.5343475,0.5267175
8360,4.6543045,5.4563580,9.3086090,8.0687027,126.5648880,-11.1526718
8370,3.8594334,5.2863703,8.6597834,6.4274807,130.6106873,-21.5496178
8380,2.7509236,5.1858144,8.2360115,0.7557252,124.0305328,-29.2900772
8390,1.6208663,4.9751258,8.4251528,-5.0763359,105.5877838,-33.7557259
8400,0.8259954,4.7620430,9.3301563,-5.1297708,80.1068726,-35.7022896
8410,0.5099624,4.6638808,10.0891142,1.1297710,56.0610695,-35.8015251
8420,0.7517755,4.2688398,10.4266949,9.0076332,37.5496178,-38.7404594
8430,0.2585725,4.7189474,10.7020273,17.5877857,21.5572510,-44.1221390
8440,-0.1221037,5.0445571,10.4793673,27.3282452,8.4045801,-49.5343513
8450,-0.5746055,5.0589223,9.3540983,31.5877857,3.2290077,-54.5038185
8460,-1.1324517,5.2624283,8.1426382,27.4122143,7.7175574,-56.5954208
8470,-1.4676381,5.5617023,7.2352405,16.4427490,14.5190840,-58.8015251
8480,-2.3032103,5.6119800,6.5169835,1.4427481,22.0687027,-59.1450386
8490,-3.1746953,5.7771792,6.0740585,-15.0610685,29.5343513,-54.8396950
8500,-3.5338237,5.5640965,5.7316895,-32.6717567,35.2290077,-48.0916023
8510,-4.0629396,5.5066357,6.1913738,-49.0228996,32.7862587,-42.4961815
8520,-4.8769641,5.6287394,7.1442614,-59.0610695,19.6030540,-34.4198456
8530,-5.0062504,5.5784616,8.1139078,-60.1145020,1.7404580,-23.6030540
8540,-4.7788019,5.7652082,8.5352850,-58.4351158,-17.9083977,-13.8702288
8550,-4.1706781,5.8777351,8.9710283,-57.2595406,-37.4274826,-6.4732823
8560,-3.3494711,5.8537931,9.4714136,-55.8015251,-55.1297722,-3.2824428
8570,-2.3534882,5.5808558,9.7443514,-56.7251892,-70.0457993,-5.6946564
8580,-1.8171898,5.5042415,10.0603838,-59.8396950,-81.3969498,-11.7099237
8590,-1.4269369,5.2313042,10.7666702,-62.5190849,-93.3893127,-19.0534344
8600,-1.3575054,4.8027439,11.5399933,-61.9389305,-103.3129807,-26.6793900
8610,-1.6735384,4.4555864,12.1720591,-58.0992355,-109.8091583,-30.5267181
8620,-1.9440818,3.8594334,12.7083578,-51.1908379,-113.0305328,-29.2213745
8630,-2.2242019,3.7038112,12.9645357,-42.8473282,-112.3435135,-23.1374054
8640,-1.9201399,3.2872221,13.1800127,-32.4503822,-109.5801544,-14.4809160
8650,-1.4389079,3.1387823,13.0124197,-25.0763359,-103.1984711,-5.3587785
8660,-0.9002152,3.1914546,12.6341381,-20.4732819,-96.1145020,3.0458016
8670,-0.2657550,3.2369442,12.4042959,-18.8931293,-86.4656525,9.9923668
8680,0.4309541,3.4141142,12.6054077,-17.0229015,-78.3435135,14.7786255
8690,0.9935886,3.5841017,12.6293497,-13.5038166,-70.3358765,16.5648861
8700,1.4700323,3.7636659,12.7059631,-9.0076332,-61.7404594,16.2366409
8710,1.9297167,3.9623835,12.2390966,-3.1908398,-55.0381660,13.7175570
8720,1.8554969,3.9240766,12.0403786,0.8320611,-49.9694672,10.4580154
8730,1.5801650,3.6798692,11.3077564,13.5954199,-40.9847336,1.9847329
8740,1.3814473,3.7636659,10.6732969,15.7328243,-39.8549614,0.2900763
8750,1.1276633,3.8929520,10.2471304,15.6412210,-37.4503822,-0.6717557
8760,1.1731528,3.7469065,9.9406748,15.0534353,-33.5725174,-1.0687023
8770,1.1827296,3.8690102,9.5025377,12.8702288,-28.3206100,-1.4351145
8780,1.1563935,3.8043671,10.2303715,-7.9541984,-2.5267177,-1.9236641
8790,1.1396341,3.7205703,10.8863792,-5.2977099,-4.5648856,-3.4656489
8800,1.0486550,3.5888901,11.1497402,-0.0229008,-9.8625956,-5.1145039
8810,1.0869620,3.6295912,11.1114330,4.6793895,-15.0381680,-6.9541984
8820,0.8451489,3.7660601,11.2143831,7.7633586,-17.7557259,-8.0000000
8830,0.8595140,3.8570392,11.4538021,9.1908398,-15.7328243,-8.0534353
8840,0.5434810,3.8426740,11.4897156,9.2748089,-10.3740454,-6.4656487
8850,0.2274480,3.6224086,12.1074162,6.6793895,3.1450381,3.0839694
8860,0.2298422,3.4212968,12.4833040,8.4122133,4.7557254,9.7251911
8870,0.6991033,2.9640064,13.3835192,22.4656487,-6.7786260,27.5572510
8880,1.4173602,2.9472473,13.7043400,34.8091621,-17.9541988,33.1526718
8890,2.1571648,3.1675127,13.6109667,49.5038185,-31.2213745,35.7786255
8900,2.9089401,3.3805954,13.3164816,64.2671738,-44.5572510,35.1145020
8910,3.6942344,3.6391680,12.8687687,77.3435135,-54.8167953,31.2671757
8920,4.0820932,3.7493007,12.1936073,85.8396912,-58.5877876,25.2671757
8930,3.8450682,4.0078731,11.5112629,90.7328262,-56.9007645,20.1145039
8940,3.4907281,4.3574247,10.8337069,90.3435135,-49.8015251,17.4656487
8950,3.1363883,4.7045822,10.4769726,86.0916061,-36.9847336,18.3053436
8960,2.9137285,5.0277977,10.4338779,80.1832047,-18.7099228,20.4961834
8970,2.4803803,5.3198891,10.5511932,75.8091583,-1.3053435,23.8091602
8980,2.0111191,5.8585815,10.8121595,75.3969498,11.2824430,27.0458012
8990,1.4029950,6.5050125,10.7211800,79.6717529,11.4580154,29.9770985
9000,0.8619082,7.9534974,9.1027079,84.0763321,-12.8778629,34.0610695
9010,1.2952565,8.7292147,8.5568333,79.3206100,-28.4274807,32.8778610
9020,1.5346755,9.6174593,8.1426382,71.7022934,-47.5954208,27.3969460
9030,2.1882892,10.8911676,7.9391322,62.6946564,-61.9007645,16.8015270
9040,2.3894010,12.0810804,8.4155760,52.7709923,-65.7557220,2.8167939
9050,1.9632354,12.9765072,8.9279327,45.1374054,-61.9236641,-9.8931293
9060,1.2425843,13.6157551,9.5001440,39.5267181,-55.6335869,-18.9312973
9070,0.6871324,13.7354650,9.5528164,36.1832047,-41.6717567,-25.0229015
9080,-0.3639168,13.2829628,9.4307127,33.5343513,-30.0534344,-28.6870232
9090,-1.7094513,12.2295198,9.6006994,36.2442741,-30.8625946,-24.2213745
9100,-2.3678534,11.4322548,8.8608952,45.3053436,-39.3129768,-12.5496187
9110,-2.4205256,10.9558105,6.9072366,51.9160309,-58.0458031,1.9083970
9120,-1.6448082,10.5631638,4.6782460,52.2977104,-77.1908417,15.7862597
9130,-0.1364688,10.0795374,2.3917952,45.0687027,-88.5572510,27.3511448
9140,1.9847831,9.4929609,0.1340746,29.1679382,-85.8091583,30.8931293
9150,3.4165084,8.3198080,-1.9536586,2.0534351,-66.5725174,25.8244267
9160,3.6607156,6.2512288,-2.8251436,-32.2900772,-40.5496178,16.4885502
9170,1.7812769,2.7509236,-1.6735384,-61.1145020,-23.2519093,9.2824430
9180,-0.8475431,-0.9073978,0.9361281,-68.8778610,-28.8167934,14.2595415
9190,-2.0518203,-4.3598189,2.7197993,-56.4961815,-48.4198456,30.6946564
9200,-1.6328372,-7.3190370,3.4189026,-38.5496178,-64.0381699,52.2748108
9210,0.7278336,-11.7027979,3.2225790,-29.6259537,-67.7557220,73.4656525
9220,4.7452836,-17.4440651,1.8554969,-50.3206100,-60.2290077,85.5877838
9230,8.3509331,-19.6131992,2.3750360,-100.9083939,-49.7251892,84.5572510
9240,11.2526903,-19.6131992,6.4595232,-158.9313049,-57.4961815,66.2900772
9250,12.0044661,-19.6131992,13.9389706,-193.5725250,-91.9465637,34.2595406
9260,9.8449068,-19.6131992,19.6126022,-183.9618378,-122.4045792,8.2824430
9270,9.5504217,-19.6131992,19.6126022,-121.2748108,-121.8931274,-6.2137403
9280,7.3645267,-16.8239689,19.6126022,-16.4503822,-87.9389343,-6.4427481
9290,7.1801744,-13.3236647,19.6126022,105.2671738,-19.3435116,0.2977099
9300,7.5536675,-11.3580351,19.6126022,210.1984711,67.1679382,11.5343513
9310,8.5400734,-10.1633339,12.0331964,250.1297760,135.7709961,21.8549614
9320,8.8872309,-8.5017672,2.5905130,250.1297760,193.1297760,29.2671757
9330,8.3700867,-6.1937680,-4.3813667,238.1145020,223.5572510,32.3435097
9340,7.1035600,-3.3590479,-7.7978749,173.0000000,224.4580078,33.0992355
9350,6.3924856,-1.0414724,-7.7188668,96.7099228,203.3664093,32.2671738
9360,6.2703824,0.2178712,-3.9384418,40.3740463,180.3511505,26.5190830
9370,6.0285692,0.8978211,0.4548960,18.3053436,160.2824402,17.5038166
9380,5.3414369,1.9009864,3.0118904,20.9083977,138.6717529,10.7557249
9390,5.1020179,5.2193332,3.2920105,36.1908379,107.3435135,-4.9007635
9400,4.2161674,6.3302369,2.7581062,29.0305347,100.0534363,-10.0305347
9410,3.2704628,7.0173693,2.4516499,15.7251911,85.6488571,-10.7938929
9420,2.8059900,7.2807302,2.8873925,0.2442748,62.0763359,-9.6946564
9430,2.9209111,7.3214312,4.1587071,-11.6106873,32.0610695,-8.2442751
9440,3.2752512,7.6015515,6.8521700,-14.7633591,-26.0763359,-7.2442746
9450,3.4787574,7.8026633,7.7739329,-7.7251906,-44.1068687,-6.3282442
9460,3.8737986,7.8242111,7.8720951,-0.3129771,-50.5648842,-4.9847326
9470,5.0086441,7.8313937,6.3326311,-7.0000000,-26.6259537,-9.1297712
9480,4.8338685,7.7787213,5.8537931,-24.0534344,-6.3893127,-14.5877867
9490,4.3526363,7.8122401,6.0213866,-41.6412201,13.3816795,-18.8244267
9500,3.4500270,7.7140784,6.3446021,-59.9160309,30.3893127,-20.2824421
9510,2.4037662,7.8146343,6.9335728,-75.9694672,44.1984749,-16.3816795
9520,1.7381816,8.0348997,7.9199786,-88.8091583,53.2595406,-8.1679392
9530,2.2649033,8.1546097,9.9454632,-103.1068726,56.7175560,8.0076332
9540,3.0334380,8.0420828,11.0013008,-104.1221390,54.2977104,10.8320608
9550,3.7564833,8.3844519,11.8919392,-101.7557220,51.0839691,8.1221371
9560,4.1491303,9.3038206,12.7083578,-96.8473282,47.4732819,0.5114504
9570,4.0892754,10.4793673,13.1297350,-89.6641235,44.8167953,-9.4045801
9580,3.4524212,11.6166077,13.0172081,-83.1679382,39.1145020,-18.6259537
9590,2.3606708,12.2534618,12.6413202,-79.7099228,32.8244286,-24.8473282
9600,1.2018831,12.5335817,12.5551291,-79.2290039,20.2824421,-25.6946564
9610,0.1963235,12.6054077,13.4074612,-75.8702316,0.8854962,-20.2137413
9620,0.1197095,12.9956608,14.5063934,-66.1374054,-22.0687027,-9.6412210
9630,0.6823440,13.2829628,15.6987000,-51.1908379,-45.9083977,1.6564885
9640,2.1260402,13.8623571,17.2549229,-29.2213745,-63.3358765,9.5267172
9650,4.1299767,14.2573986,17.8271351,-2.4656489,-61.5190849,11.0610685
9660,5.4372044,14.1424770,16.8862190,23.2213745,-47.8015251,8.5114508
9670,6.1506729,14.0012197,14.8200331,39.2671738,-21.4198475,5.0839696
9680,5.1068063,14.3148584,10.3189564,31.2977104,31.5725193,0.3053435
9690,4.5824785,14.2550039,9.3684635,14.4656487,44.9389305,-2.4351146
9700,3.7445123,14.0419216,9.2918491,-2.5496182,52.3435097,-4.7328243
9710,3.1292057,13.7474356,9.7754755,-13.4885492,52.0687027,-8.2366409
9720,2.3223639,13.0219965,10.2255831,-18.0992374,44.1908379,-13.7404585
9730,1.3694763,12.6125898,10.5009146,-16.2519093,26.7251911,-16.5496178
9740,1.4053892,11.8129311,10.1992474,-9.9007635,2.9160306,-21.1832066
9750,1.3431402,11.2742386,9.2990322,-2.1603053,-27.0839691,-29.0305347
9760,1.7693061,10.5703468,7.7499914,7.1297708,-63.4503822,-37.8854980
9770,2.7748656,9.5121145,5.5712790,12.7480917,-100.1526718,-50.7099228
9780,3.4955165,7.8936424,3.5745249,11.1908398,-134.3893127,-66.3206100
9790,3.8474624,5.5090299,2.2577207,6.5877862,-170.5725250,-83.8244247
9800,3.7229645,2.7341642,1.2401901,1.9389313,-208.1832123,-97.3129807
9810,3.7947903,-0.3016679,0.2537841,-4.3053436,-241.1526642,-104.7022934
9820,3.5888901,-3.3782012,-0.4118006,-15.1526718,-250.1374054,-106.8549652
9830,3.7301471,-6.3805151,-0.2753318,-30.7404575,-250.1374054,-101.2137375
9840,4.1658897,-9.6749191,0.3423691,-48.2442741,-249.9847260,-88.5954208
9850,4.6279683,-12.9501705,1.0199248,-71.6870193,-205.3816833,-71.5267181
9860,5.2169390,-16.0841656,0.9480990,-110.4427490,-144.2442780,-52.6793900
9870,5.5018473,-19.3689919,1.8339491,-164.4885559,-86.8549652,-35.5648842
9880,5.6191626,-19.6131992,5.5569139,-213.2977142,-48.7786255,-16.3206100
9890,6.1195483,-19.6131992,10.6493549,-241.9465637,-22.8931293,-1.0763359
9900,6.2608056,-19.6131992,16.6659527,-242.8702240,0.0381679,4.7175574
9910,6.6271162,-19.6131992,19.6126022,-205.8244324,26.0152664,-3.0152671
9920,5.7532372,-17.4033623,19.6126022,-131.6641235,57.4045792,-18.8320618
9930,4.9080882,-15.0402985,19.6126022,-26.2748089,99.9618301,-34.4809151
9940,3.8019729,-13.6708221,19.6126022,89.8167953,139.3053436,-33.8778610
9950,5.0230093,-12.8232784,18.4017410,180.4503784,169.9694672,-26.3129768
9960,6.2153158,-12.2893744,9.6054878,230.3053436,190.6793823,-21.1679382
9970,5.9088597,-11.3532467,1.4556671,238.7862549,195.6106873,-17.2366409
9980,4.4029145,-8.9758167,-4.9799142,202.3053436,176.5801544,-11.3893127
9990,2.8826041,-6.3709383,-7.4746594,139.4656525,136.9007568,-4.5190840
