timestamp,acclX,acclY,acclZ,gyroX,gyroY,gyroZ
0,2.6288199,1.7597293,8.7579451,-36.7404594,-24.3740463,6.1526718
10,3.1866663,2.2936335,7.6829538,-53.2519073,-52.4809151,11.2748089
20,4.1682839,1.8818330,8.0899658,-57.5877876,-23.6412220,13.2213745
30,4.1778607,1.7214222,9.5576038,-58.6030540,-6.9618320,13.7786255
40,4.4436154,1.9799947,10.1178446,-57.2748108,3.4122138,13.3969469
50,4.4507980,1.9608412,10.5057030,-54.2366409,13.7557249,13.9007635
60,4.6112089,1.9895715,11.0779142,-49.5572510,21.3206100,13.5267172
70,4.6471219,1.9368993,11.4633789,-42.4274826,28.7557259,12.7328243
80,4.4843168,1.8890154,11.8296900,-33.0305328,33.2671738,12.5496187
90,4.1754665,1.9368993,12.1505117,-22.2824421,32.5190849,12.9541988
100,4.1563129,2.2170193,12.2175484,-10.7938929,27.5877857,12.5877867
110,4.9511838,3.6966286,11.5759058,11.4580154,27.8167934,12.3664122
120,5.0421629,4.2425036,11.1593170,10.4045801,37.2061081,13.4732828
130,4.8602047,5.1092005,10.7618818,-0.8702290,56.2519073,13.3816795
140,4.5681133,5.2887645,11.1401634,-7.8320613,57.6412201,12.1068707
150,4.6399393,5.6718349,11.9302464,-11.9236641,54.2748108,9.2213745
160,4.4531922,6.1339135,12.8256731,-11.7328243,46.7022896,5.0305343
170,3.8019729,7.3645267,16.1990852,20.0305347,7.7404580,-13.1984730
180,4.1994085,7.8409705,16.7162304,39.6717567,-5.0763359,-20.4503822
190,4.7548604,8.6837254,16.5653973,60.4351158,-13.9007635,-29.1832066
200,4.5872669,9.5743637,15.9931860,77.9312973,-26.7404575,-38.6488533
210,4.8218975,10.5248566,15.5670195,92.2977066,-38.2748108,-46.6183205
220,5.0565281,11.7698355,14.7098999,101.5572510,-33.8778610,-52.8702278
230,5.0349803,12.4737272,12.0595322,97.7404556,-12.6183205,-53.9923668
240,4.9368186,12.4641504,9.2583303,76.1068726,22.4351139,-50.3129768
250,4.8937230,12.1792421,7.5081782,43.7786255,53.4351158,-45.4503822
260,4.9894910,11.5399933,6.5528965,6.5725193,89.1145020,-43.9923668
270,4.2784166,10.2016411,6.2344694,-26.3740463,125.0457993,-45.7099228
280,3.3973548,8.4969788,5.5114241,-60.6183205,152.1374054,-46.8778610
290,2.9304879,6.9000540,5.3390427,-88.4732819,162.1755676,-50.5419846
300,2.7509236,5.0493455,5.9663200,-104.5801544,151.3206177,-60.9236641
310,2.9017577,3.1962428,7.7068958,-98.9923630,115.9312973,-78.5954208
320,3.5793133,1.2904681,9.2750902,-69.7251892,62.3893127,-101.1908417
330,3.8809812,-0.9600700,9.9837704,-22.2519093,3.2977099,-127.1297684
340,2.7676830,-3.3566537,10.0388365,31.1297703,-57.3206100,-148.7022858
350,1.5729824,-5.6191626,9.1649570,85.7633591,-111.0839691,-159.1908417
360,0.8954269,-8.6885138,5.2025738,120.7480927,-118.4580154,-153.5725250
370,-0.3950413,-12.2127600,-1.8028246,108.3816757,-72.8244247,-128.1221313
380,-2.1188576,-15.1887379,-8.0372944,42.4045792,-3.4656489,-86.6793900
390,-1.1228749,-19.6131992,-12.0547438,-61.8244286,43.0076332,-44.4045792
400,0.9696468,-19.6131992,-12.7610302,-196.3893127,61.9007645,-24.9847336
410,0.4692611,-19.6131992,-6.0453281,-250.1374054,64.2519073,-26.0152664
420,-3.0142846,-19.6131992,6.7252784,-250.1374054,58.3740463,-20.6488552
430,-7.4363523,-19.6131992,19.6126022,-250.1374054,17.3893127,6.9694657
440,-10.2375546,-19.6131992,19.6126022,-224.1526642,-36.0076332,47.9618340
450,-7.9391322,-19.6131992,19.6126022,-36.3129768,-73.1603088,89.2595444
460,-3.8187323,-19.0816898,19.6126022,172.2595367,-90.2748108,120.3129807
470,1.2880739,-16.8383350,19.6126022,250.1297760,-100.8396912,131.3740387
480,6.1794028,-14.0060081,6.2464404,250.1297760,-121.8854980,116.8167953
490,8.7866755,-10.5368280,-4.2975702,250.1297760,-138.9618378,87.0076370
500,9.8903971,-6.9000540,-9.8161764,250.1297760,-141.5343475,55.3206100
510,9.0141230,-3.6726866,-9.2894554,199.0229034,-117.8091583,31.8549614
520,7.1203194,-1.6998745,-4.7907729,127.6259537,-80.8320618,19.4656487
530,4.5800843,-0.7254394,0.7517755,86.2824402,-41.9541969,19.7404575
540,4.3167233,5.9112539,4.2784166,-11.5038166,104.7251892,94.5954208
550,4.0557570,6.2368636,5.9232249,-38.3282433,115.1679382,84.7862625
560,3.4619980,6.2488346,8.1809454,-55.2977104,113.1679382,75.0076370
570,2.7245877,6.1434903,10.5871058,-58.2748108,100.4122162,66.0763321
580,2.2002602,5.9160423,12.3827477,-46.7480927,79.2748108,57.1679382
590,1.7645177,5.8106980,13.3763361,-26.8396950,58.1603050,51.2061081
600,1.6088953,5.8154860,13.4960461,-2.5496182,40.7480927,47.6106873
610,2.0901275,5.7604198,12.4258432,19.2900772,30.3664131,44.4961815
620,1.8746504,6.1794028,10.5272512,30.5496178,25.2061062,41.3893127
630,2.8490853,8.0899658,7.2807302,-2.1603053,15.0152674,9.0152674
640,2.5546002,8.5711985,7.5057840,-15.3740454,6.5190840,0.7328244
650,2.2864509,8.8273764,8.0995426,-28.1450386,-2.1755726,-3.9770992
660,2.2649033,8.9997578,9.2128410,-36.9083977,-6.7022901,-5.1832061
670,2.3606708,9.5767574,10.2782555,-43.7633591,-8.2748089,-2.9007633
680,2.5713594,10.2950144,11.0850973,-48.6870232,-3.1297710,1.1679389
690,2.7174051,10.8456783,11.6190014,-56.8931313,9.6870232,6.9465647
700,3.2608860,11.4250717,12.5886478,-63.9389305,24.6793900,11.0076332
710,3.8330972,12.2175484,13.5726604,-68.3893127,40.1603050,10.9389315
720,4.0078731,12.6652622,14.2669754,-70.9312973,52.4885483,6.8931298
730,3.8690102,13.1441002,14.9900198,-71.1450348,54.7633591,0.0992366
740,3.5218527,13.1153698,15.8806591,-65.3893127,49.5496178,-7.9236641
750,3.0885043,12.6915979,16.8024216,-51.3053436,34.6717567,-15.3282442
760,2.9927368,12.4402084,17.5039196,-29.2595425,10.1832066,-23.3129768
770,3.0549858,12.5551291,17.3818150,-3.2748091,-18.7251911,-33.5343513
780,3.1579359,13.1321287,16.8838234,21.4274807,-47.9771004,-46.5725174
790,3.5386121,13.4529505,16.1296539,42.6183205,-73.6946564,-60.0534363
800,3.9719603,13.8144732,15.2988710,60.6183205,-91.7938919,-76.0000000
810,4.1299767,13.9246063,13.9174232,74.3435135,-104.3053436,-92.4427490
820,3.6319854,14.0778341,12.1313581,82.3511429,-112.1221390,-104.7328262
830,3.6559272,14.2406387,9.9239149,80.6870193,-107.9312973,-111.6335907
840,3.8522508,13.7665892,7.4148049,66.9312973,-94.3740463,-117.2671738
850,4.0653338,12.7035694,5.5880380,43.9312973,-78.5496216,-123.0687027
860,4.0749106,10.9198980,4.8625989,23.0000000,-66.0687027,-129.4656525
870,3.5098817,8.9662399,4.4244623,7.8244276,-57.6030540,-133.8015289
880,1.9297167,6.4260044,4.3119354,0.6106870,-57.3282433,-133.0992432
890,-0.0407012,3.6008608,4.3837609,1.5572519,-67.9618301,-126.2671738
900,-2.2649033,0.3495516,4.4891052,9.5572519,-86.2137375,-109.0916061
910,-4.0222383,-3.7373297,3.9815371,22.7938938,-90.4503784,-72.6259537
920,-4.4938936,-8.2096758,1.3766589,22.8473282,-57.7557259,-17.0000000
930,-2.5689652,-14.5638542,-2.9209111,-12.0381680,3.1526718,45.4809151
940,1.5562232,-19.6131992,-7.4579000,-99.5954208,73.0610657,91.6259537
950,5.4755111,-19.6131992,-8.9351149,-228.4045868,153.2519073,97.1450348
960,5.8729467,-19.6131992,-2.5522060,-250.1374054,199.6259613,62.4045792
970,2.3630650,-19.6131992,10.7307568,-250.1374054,165.1679382,19.1755733
980,-1.5179161,-19.6131992,19.6126022,-250.1374054,44.2137413,-20.5801525
990,-4.8554163,-19.6131992,19.6126022,-150.8549652,-101.4885483,-41.0610695
1000,-7.8098459,-19.6131992,19.6126022,61.2900772,-213.6412201,-31.6946564
1010,-5.2217274,-18.9308567,19.6126022,249.8015289,-248.0686951,0.0381679
1020,0.7398046,-14.5806141,13.3380299,250.1297760,-217.2061005,22.1297703
1030,4.8458395,-10.1705170,-1.1539993,250.1297760,-152.9923706,28.1145039
1040,6.6342988,-5.3773494,-10.2686787,250.1297760,-100.5419846,27.8778629
1050,6.6103573,-1.8938038,-11.4346485,149.3893127,-54.9618340,27.9923668
1060,5.7604198,-0.0622489,-6.1387019,59.6717567,-5.8625956,30.5572510
1070,1.3287752,2.4755919,8.0684185,1.1755725,85.0000000,77.3740463
1080,1.6663558,3.5912843,7.8792777,9.0458012,78.2366409,86.8473282
1090,5.0876527,6.0094156,6.5816269,-20.3053436,48.7328262,57.4961815
1100,5.0684991,5.9280128,7.5776095,-39.7557259,53.6793900,46.8778610
1110,4.3933377,6.0237808,9.1984758,-52.7022896,54.3816795,36.9465637
1120,3.4667864,6.2679882,11.0755205,-56.6870232,42.0687027,27.0610695
1130,2.5306582,6.5672617,12.9429884,-49.3893127,21.3587780,19.5801525
1140,2.4372849,6.8617468,14.3004932,-31.3206100,2.2137403,16.0229015
1150,3.2249732,7.3908629,14.1400833,-10.1755724,-3.0916030,15.1145039
1160,3.8666160,8.5257082,12.2271252,0.1526718,9.4580154,13.5190840
1170,3.7205703,10.1657286,9.8784256,-9.0152674,23.9923668,10.8015270
1180,3.1555417,11.9901009,8.9327211,-32.9236641,35.0381660,6.7022901
1190,2.6743097,13.6851873,9.5264797,-62.1832047,37.5038185,-0.7633588
1200,2.1044924,14.8248215,11.5232334,-87.2213745,36.4122124,-10.0152674
1210,1.1228749,15.4281569,13.7163115,-106.4045792,35.8244286,-18.1221371
1220,-0.5578461,16.0721931,16.4696293,-118.4045792,33.5648842,-19.6946564
1230,-1.8554969,16.3666782,19.0242290,-122.7099228,28.1603050,-13.4274807
1240,-3.2896163,16.7449608,19.6126022,-114.8931274,23.0763359,2.8320611
1250,-2.3726418,17.4057579,19.6126022,-88.2900772,18.4656487,25.3740463
1260,0.2370248,17.3171730,19.6126022,-52.4809151,21.6335869,38.9541969
1270,3.2560976,17.0155048,19.3115330,-24.9389305,16.4809170,38.5877876
1280,6.3493905,16.5151196,15.4592810,-11.9007635,12.3282442,22.6946564
1290,8.8010406,15.4209747,12.6820211,-10.3587790,10.9465647,-6.7099237
1300,10.0723553,13.8743277,10.8432837,-14.3969469,4.5801525,-46.3816795
1310,9.9358864,11.8129311,10.1489687,-13.8167934,-4.5954199,-86.1679382
1320,9.4450769,9.6390066,9.8856087,-3.9770992,-20.1068707,-121.7480927
1330,8.3724804,6.9503322,9.1003141,11.4961834,-28.5496178,-151.6717529
1340,5.4180508,4.1658897,8.2910776,26.2519093,-34.0228996,-167.9923706
1350,1.4532729,1.4389079,7.7571740,42.2213745,-46.9465637,-162.3664093
1360,-2.4181314,-1.0079538,7.5273318,61.4503822,-62.1603050,-134.1908417
1370,-4.7811961,-3.4332676,6.6630292,85.8167953,-74.2442780,-86.9465637
1380,-4.7620430,-6.8282285,4.2999644,105.2213745,-74.8931274,-27.3969460
1390,-1.5873476,-12.0212250,0.5434810,106.7786255,-44.9618340,34.1221390
1400,3.2153964,-18.2149925,-5.0996237,60.8931313,3.7404580,79.3511429
1410,8.6142941,-19.6131992,-9.4905672,-30.2519093,20.6488552,84.9542007
1420,16.3978043,-19.6131992,-9.8880024,-134.0305328,-1.1221374,33.8396950
1430,17.7744617,-19.6131992,-3.8402798,-228.0305328,-6.4274807,-61.3816795
1440,9.0620070,-19.6131992,8.9877872,-250.1374054,-36.3511467,-140.7022858
1450,-2.3103929,-19.6131992,19.6126022,-237.2900696,-101.8396912,-161.6564941
1460,-11.0013008,-19.6131992,19.6126022,-99.1908417,-119.2748108,-118.2900772
1470,-15.0450869,-19.6131992,19.6126022,102.5496216,-77.5267181,-31.1374054
1480,-11.2072010,-17.6739063,19.6126022,250.1297760,-52.5267181,57.4122124
1490,-4.0701222,-13.5846310,8.5999289,250.1297760,-59.0916023,107.3740463
1500,2.0446377,-8.2719250,-4.3909435,250.1297760,-73.7633591,127.5954208
1510,7.1897511,-4.0413918,-11.2048063,231.9313049,-79.3816757,130.0152740
1520,10.9462337,-0.8643024,-11.4011297,117.5725174,-49.8091621,121.1984711
1530,11.6908274,1.2617378,-5.3079181,16.3053436,19.7480907,108.4656525
1540,9.5384512,2.0398495,3.2106080,-41.6564903,88.9465637,101.0076370
1550,6.4643116,2.3343346,10.0484133,-54.6946564,132.6335907,100.5572510
1560,3.7660601,2.9280937,13.2207146,-34.2519073,154.7099304,109.8320618
1570,3.1220231,3.2153964,13.5487185,-1.2900764,152.7099304,118.5801544
1580,3.5793133,3.9911139,11.5806942,33.3206100,129.9084015,116.7099228
1590,4.2544746,4.8362627,8.6190825,47.8625946,100.2366409,103.6870193
1600,2.9520357,6.1913738,7.0939832,12.5343513,3.1374047,17.3816795
1610,1.6663558,6.2105274,8.3174143,5.1832061,-26.3129768,7.9312978
1620,0.6727672,6.6223278,11.9613705,6.5267177,-71.1221390,14.3893127
1630,1.9201399,6.8018923,12.8711624,12.9847326,-70.5496216,21.9236641
1640,3.6607156,7.2879128,13.2350798,19.3435116,-49.8778610,28.3282452
1650,5.4970589,8.2264347,12.6365318,22.8167934,-11.9923668,30.3969460
1660,6.1698260,8.7459745,10.8600435,18.7022896,24.3664131,25.7633591
1670,5.6598639,8.9518747,9.3277617,6.7480917,43.4580154,16.9083977
1680,4.8673873,8.8944139,8.7435799,-6.9847326,41.0839691,8.2366409
1690,4.4484038,8.2719250,9.2559366,-17.5114498,27.3053436,-0.5648855
1700,4.2425036,7.5249376,10.2806492,-20.7557259,15.1832066,-8.0916033
1710,4.0030847,6.8090749,10.8504667,-18.4656487,11.1679392,-13.8244276
1720,3.4500270,5.8418221,10.9055328,-17.0381680,16.3969460,-15.7786255
1730,2.6623387,4.8697815,10.6373835,-16.7480907,22.2595425,-14.5038166
1740,1.7477583,4.0198441,10.6732969,-15.6564884,22.7328243,-10.9618320
1750,0.9935886,3.2824337,10.7307568,-12.1450386,18.0458012,-4.5496182
1760,0.4141948,2.3750360,10.5847120,-6.7557254,9.3816795,3.5572519
1770,0.2849085,1.4436963,10.5751352,-1.0381680,-0.0763359,12.5572519
1780,1.3790531,0.2537841,9.9837704,5.0152674,-7.5954199,25.0076332
1790,2.0781565,0.1221037,9.4738073,4.7938933,-8.2137403,24.6030540
1800,3.5553713,-0.0622489,9.1793222,-0.7786260,9.6183205,2.3129771
1810,2.6120608,-0.3519458,8.5855637,1.6183206,16.2824421,-14.5496187
1820,2.2098370,-0.2777260,8.2431946,2.3816793,18.6335869,-19.7709923
1830,1.8866212,-0.2322364,7.8218169,0.9694657,22.4351139,-22.5190830
1840,1.7094513,-0.2130829,7.3717093,-4.0839696,28.0610695,-24.3435116
1850,1.3120158,-0.0167593,7.5560617,-11.6870232,33.2290077,-25.1832066
1860,0.9911944,0.1149211,8.0684185,-18.3206100,36.1526718,-24.3511448
1870,1.0438666,0.1221037,8.4275465,-22.5267181,39.8473282,-21.9236641
1880,1.2330076,0.1819584,8.8848372,-26.1679382,45.9236641,-19.7557259
1890,1.0366840,0.4405309,9.0979195,-28.9312973,50.9618340,-17.8473282
1900,0.6871324,0.7326220,9.6030941,-28.9007626,51.3206100,-14.9847326
1910,0.6296718,0.8714849,10.1441803,-24.8167934,48.7862587,-11.8244276
1920,0.4812321,0.9265513,10.2998028,-18.3893127,45.9923668,-7.9160304
1930,0.4955972,1.1156923,10.0723553,-12.4885492,43.2519073,-4.8473282
1940,0.9600700,1.9752063,8.8704720,-4.0229006,28.8549614,-13.9847326
1950,0.7374104,1.8914096,8.5711985,-4.4809160,26.5038166,-19.0534344
1960,0.2729376,1.9799947,8.6549950,-4.7480917,21.3969460,-23.2824421
1970,-0.2705434,2.0135133,8.8968077,-4.4427481,13.0000000,-24.0000000
1980,-0.3663110,2.0446377,9.1146793,-2.8931298,4.2290077,-21.8854961
1990,-0.2346306,2.3127871,9.0859489,-1.3511450,-1.7938931,-18.5572510
2000,0.0742199,2.5953014,8.7483683,-2.4122138,-2.6335878,-15.1068707
2010,0.6775556,3.7397239,8.7747040,-23.4961834,16.2213745,-3.6870229
2020,0.8068419,4.0820932,8.7747040,-33.3587799,23.0534344,-1.3816794
2030,0.9959828,4.8721757,10.0508070,-51.5343513,21.4122143,4.1221375
2040,0.9624642,5.4348102,11.3484583,-54.6717567,15.1297712,6.3435116
2050,0.9768293,6.6797886,13.3643656,-48.1450386,-1.0534351,10.8931293
2060,1.8531027,7.3310080,13.9964314,-41.4656487,-8.8473282,13.5038166
2070,3.5793133,8.0301113,14.1759958,-34.9771004,-6.2900763,12.5572519
2080,4.2688398,9.3493099,14.1352949,-40.5725174,1.9389313,-2.3816793
2090,3.8330972,9.4546537,15.5454721,-44.0687027,-5.6564884,-12.6106873
2100,3.2249732,9.4019823,17.2836533,-39.5038185,-18.4427490,-18.2671757
2110,2.9999194,9.5073261,18.6866493,-27.1450386,-36.0458031,-18.9465656
2120,3.3303175,9.9454632,19.6126022,-8.8244276,-48.8854980,-17.7786255
2130,3.9480183,10.1896706,19.6126022,15.2595415,-56.5267181,-19.5572510
2140,4.5034704,10.8097658,19.6126022,44.4809151,-65.8167953,-27.7175579
2150,5.5617023,11.7411051,19.6126022,77.3511429,-81.7480927,-44.9007645
2160,6.4978304,12.4258432,18.5908813,106.8244247,-95.4656525,-69.7709961
2170,6.8545642,12.9429884,16.1823273,124.7862625,-105.5190811,-95.2061081
2180,7.1131368,12.8328552,13.4002781,132.2137451,-101.6259537,-115.1221390
2190,7.0173693,12.2678270,10.3524752,127.4045792,-89.9847336,-129.2595367
2200,6.1530671,11.4609852,7.5440907,112.4274826,-75.0000000,-137.9313049
2210,4.9152708,10.0915089,5.3342543,89.5496216,-56.6412201,-139.8015289
2220,3.1292057,8.0157461,3.9767487,64.3740463,-41.5343513,-132.7862549
2230,1.1132981,5.2001796,3.2944047,47.6793900,-38.8091621,-119.0457993
2240,-1.1109039,1.9943599,2.9544299,42.2366409,-46.0381660,-97.0916061
2250,-2.3750360,-1.1563935,1.6041069,43.1068687,-58.3435097,-66.3893127
2260,-2.4588325,-4.6351509,-0.4525018,40.5496178,-62.9771004,-33.6564903
2270,-1.7142396,-8.3030491,-2.7581062,27.7557259,-58.0687027,-0.0992366
2280,0.7469871,-12.6078014,-5.8106980,-6.0687022,-43.1908379,28.1832066
2290,4.6231799,-18.0114880,-8.5951405,-72.5038147,-23.4809170,37.0152664
2300,7.8649125,-19.6131992,-9.6581602,-169.1221313,-11.6793890,12.9236641
2310,9.6533718,-19.6131992,-5.6191626,-250.1374054,-14.0229006,-36.7557259
2320,8.0181408,-19.6131992,4.7835903,-250.1374054,-48.8473282,-95.1908417
2330,1.0510491,-19.6131992,19.2923794,-250.1374054,-137.5267181,-126.7251892
2340,-3.1938488,-19.6131992,19.6126022,-241.4351196,-227.7022858,-118.1832047
2350,-5.3079181,-19.6131992,19.6126022,-47.2213745,-233.2061005,-82.7175598
2360,-5.1882086,-19.6131992,19.6126022,176.1297760,-143.8320618,-32.3206100
2370,-3.4117200,-19.6131992,19.6126022,250.1297760,-49.8244286,24.0916023
2380,0.8666966,-17.3722382,10.2567072,250.1297760,4.2061067,63.6488533
2390,4.2927818,-13.1967726,-3.1770895,250.1297760,27.7022896,81.1374054
2400,6.1051831,-8.6023226,-12.8903160,250.1297760,27.1908398,88.5496216
2410,7.1993275,-4.2903876,-16.5917320,173.4122162,23.4427490,86.9923630
2420,8.0372944,-1.6687500,-12.4689388,55.4045792,45.4732819,75.9923630
2430,7.1897511,-0.6081241,-4.0150557,-22.4732819,85.5572510,62.9541969
2440,5.1642666,-0.6224893,3.2632802,-51.0000000,118.3129807,56.4274826
2450,2.7748656,-0.5458752,7.9965930,-45.4580154,131.2671814,59.2213745
2460,1.2330076,-0.0814024,9.9933472,-21.3206100,133.1145020,69.6259537
2470,1.0295014,2.2170193,7.7236552,23.2900772,115.1603088,94.8015289
2480,2.3223639,3.6295912,5.9208307,28.1679382,94.8473282,100.8244247
2490,5.2289100,5.0206151,4.6471219,1.6030535,56.3816795,86.2061081
2500,5.5377603,5.7221127,5.5018473,-18.3893127,48.4809151,73.3816757
2510,5.2049680,6.3302369,7.1466556,-33.4122124,43.7022896,61.4503822
2520,4.8649931,6.7540083,8.6741486,-40.5877876,40.1603050,51.0534363
2530,4.6375451,6.6079631,9.7419567,-41.8549614,40.5190849,41.5190849
2540,3.8737986,6.5433197,10.6349897,-39.4961815,41.0839691,34.2290077
2550,3.3422885,6.1243367,11.1593170,-34.4427490,41.7099228,30.4580154
2560,2.6527619,5.1499014,11.1353750,-27.1679382,44.8320618,31.3053436
2570,3.2824337,5.7604198,11.0396080,-17.6259537,38.2748108,32.6335869
2580,3.3470769,5.3007355,10.9222927,-8.5114508,26.0916023,26.9694653
2590,2.6144550,5.4348102,11.0252428,2.1450381,9.7328243,18.8396950
2600,2.0949159,5.9208307,10.9103212,9.9847326,0.3893130,13.7328243
2610,1.7788827,6.3422079,10.3883877,10.8244276,-1.0305344,12.6946564
2620,1.7717001,6.3062949,9.7156210,3.8167939,2.4580152,14.6564884
2630,2.3774302,5.4874821,9.2272062,-23.3129768,22.5725193,21.8625946
2640,2.6743097,5.6742291,10.0555954,-37.2595406,30.9236641,23.2824421
2650,3.1914546,5.8537931,10.8504667,-47.7633591,39.5114517,22.8091602
2660,3.3087699,5.8609757,11.4322548,-54.5572510,48.6641235,20.8702297
2670,3.2010312,6.1961622,11.6836443,-57.8167953,56.4274826,15.8244276
2680,2.9233053,6.5744443,12.2486734,-56.1755714,54.1374054,8.1221371
2690,2.6934631,6.7180958,12.4904861,-52.5954208,44.9694672,0.3893130
2700,2.6958573,6.7971039,12.6485033,-47.2595406,31.3129768,-3.8015268
2710,2.9137285,6.8904772,12.8256731,-41.7099228,16.3969460,-6.2290077
2720,3.1890604,6.9838505,12.8759508,-36.5190849,4.0916033,-8.1297712
2730,3.3853838,7.1466556,13.1345234,-31.9465656,-4.9083967,-10.0152674
2740,3.6918402,7.2831244,13.3476067,-25.1984730,-14.2900763,-13.6030531
2750,4.1658897,7.3453732,13.1824074,-16.4198475,-21.7862587,-20.8931293
2760,4.2544746,7.2065101,12.6939926,-9.0152674,-23.3969460,-29.1984730
2770,3.7469065,6.8856888,12.2606440,-2.9847329,-25.5648861,-36.0076332
2780,3.1220231,6.6965480,11.7267399,3.1832061,-30.6488552,-39.8244286
2790,2.7916248,6.5145893,11.0874910,5.9465647,-35.6564903,-40.6717567
2800,2.5665710,6.6654234,10.6158361,4.5877862,-38.5801544,-40.0610695
2810,2.6503677,6.7444315,10.4458485,-1.6717557,-37.4961815,-39.1145020
2820,2.5426292,6.9599090,11.0300312,-7.9083967,-35.3358765,-37.7175560
2830,2.4420733,7.3741035,11.9661589,-10.4045801,-37.9083977,-36.5038185
2840,2.5761478,7.8673067,12.8520088,-6.6412215,-45.7480927,-35.6488533
2850,3.3063757,8.2958660,13.4457684,1.0687023,-52.4809151,-35.7786255
2860,3.8618276,8.4658537,13.4457684,9.5190840,-54.9618340,-37.5267181
2870,4.2329268,8.8680773,13.3140879,17.0381680,-56.0228996,-40.6564903
2880,4.4675574,9.5695753,12.7322998,19.6030540,-52.7709923,-43.0305328
2890,4.9799142,9.5839405,11.9877062,15.9007635,-41.3587799,-45.7557259
2900,4.8434453,9.5959110,11.1401634,5.7633586,-20.3740463,-48.1374054
2910,4.4364328,9.3373384,10.6110477,-6.5725193,1.1068702,-48.9847336
2920,3.8067613,8.7244263,10.2207947,-17.9618320,14.5801525,-49.5496178
2930,3.5434003,8.1785507,10.0579901,-24.6946564,14.7938929,-49.5419846
2940,3.8330972,7.3812861,10.2734671,-24.1374054,2.1526718,-52.4122124
2950,4.3191175,6.6893654,10.7594872,-13.9007635,-18.8702297,-58.2977104
2960,4.8218975,5.7340837,10.8959560,4.6564884,-42.9541969,-66.9923630
2970,4.1850433,4.4699516,10.1082678,27.3511448,-68.5267181,-75.3664093
2980,3.2417326,2.6407909,9.2104464,52.8931313,-100.0763321,-79.1526718
2990,2.5426292,0.5578461,7.6997132,80.4122162,-130.3587799,-79.4503784
3000,2.0470319,-1.9392935,6.0094156,105.5267181,-151.1450348,-76.1297684
3010,1.4724265,-4.3909435,3.7157819,125.6259537,-150.9160309,-66.3893127
3020,1.8866212,-7.8313937,0.4165890,126.7328262,-120.4732819,-48.4198456
3030,2.6647329,-12.8879223,-4.7668314,87.0305328,-58.4503822,-21.9541988
3040,3.7038112,-16.9149494,-9.7132263,-4.9465647,23.6335869,-3.1374047
3050,5.9375896,-19.6131992,-10.6541433,-129.4427490,91.1526718,-5.8015265
3060,6.8569584,-19.6131992,-5.9639258,-250.1374054,98.4732819,-34.0992355
3070,3.3159523,-19.6131992,4.6159973,-250.1374054,49.6488533,-67.1068726
3080,-0.9935886,-19.6131992,18.1096497,-250.1374054,-44.7862587,-79.1221390
3090,-3.1938488,-19.6131992,19.6126022,-223.5877838,-156.4427490,-66.2519073
3100,-2.6312141,-19.6131992,19.6126022,-66.5114517,-203.0763397,-44.6641235
3110,-2.2529323,-18.9763451,19.6126022,102.2977066,-171.9313049,-9.0839691
3120,1.1827296,-15.8231983,19.6126022,231.5343475,-90.1450348,29.0458012
3130,5.4563580,-13.2278967,13.2087431,250.1297760,4.1526718,52.0458031
3140,7.5153608,-10.1369982,1.9704180,250.1297760,84.5954208,62.5954208
3150,7.2065101,-6.7947097,-6.2943239,213.0076294,133.1908417,69.5343475
3160,6.1746144,-3.7469065,-8.8608952,132.7786255,148.3053436,73.4045792
3170,5.2289100,-1.1539993,-7.0149751,58.6564903,140.0534363,75.5877838
3180,4.8697815,0.5123565,-2.4660151,9.2824430,125.4885483,73.3511429
3190,4.6279683,1.6831152,2.2194135,-15.3358774,114.1221390,68.0534363
3200,3.7971845,2.7365584,6.0836353,-19.8473282,103.7862625,61.7328262
3210,3.0023136,3.3997490,8.4059992,-11.6412210,91.6946564,58.2824440
3220,2.8466914,3.9336534,9.3301563,3.5496182,84.3664093,58.3129768
3230,3.5745249,6.2895355,7.1155310,8.0152674,44.2366409,67.1679382
3240,5.0661049,6.9192076,8.8608952,-10.7938929,45.8778610,48.8549614
3250,4.3382711,6.7109132,9.9765873,-13.0610685,33.4656487,38.2442741
3260,4.0413918,5.8729467,10.4147243,-10.4045801,29.4732819,25.3664131
3270,2.9975252,5.3677726,11.0156660,-10.6412210,22.4809170,20.0305347
3280,2.6575503,5.0134325,11.0946741,14.9770994,-7.9541984,10.0305347
3290,2.5689652,5.2001796,10.7283630,11.9618320,-19.4351139,12.8778629
3300,2.7006457,5.3127065,10.2231894,11.5267172,-27.3893127,14.8091602
3310,2.5258698,5.4539638,9.9741936,14.5648851,-35.7404594,15.2595415
3320,2.8897867,5.6478930,9.5336628,16.1068707,-46.7480927,13.4503813
3330,4.2113791,5.6981707,10.8552551,3.3511450,-52.8320618,-2.7786260
3340,4.3957319,5.8274570,11.3795824,-1.8396946,-51.6641235,-4.7938933
3350,4.2592630,5.5904322,11.8296900,-4.1526718,-50.1526718,-4.9465647
3360,4.3263001,5.5545197,12.1337519,-2.3587787,-50.9160309,-4.3893127
3370,4.6088147,5.8753409,12.2438850,3.0763359,-53.2442741,-4.4427481
3380,4.7620430,6.0333576,12.0547438,8.9541988,-57.0458031,-6.5496182
3390,4.8673873,6.4260044,12.1313581,12.5572519,-61.0534363,-7.7099237
3400,4.9727316,6.7468257,12.2031832,15.2137403,-63.6717567,-8.4809160
3410,5.3318601,6.9766679,12.4856977,18.5267181,-64.6412201,-11.2519083
3420,5.5305777,7.0197635,12.3971128,21.9236641,-63.2671738,-16.7480907
3430,5.1929970,7.1514440,12.3133163,23.9312973,-61.9847336,-21.1221371
3440,4.5034704,7.0915890,12.4330254,26.7557259,-62.8167953,-21.3969460
3450,4.2281384,7.0820122,12.3635941,32.2061081,-67.0992355,-19.8167934
3460,4.1922259,7.0939832,11.8416615,37.6488533,-72.6946564,-17.4274807
3470,4.5202298,7.5584559,11.0515785,40.6259537,-75.3740463,-14.8473282
3480,4.5513539,7.8936424,10.1537571,40.3129768,-73.1984711,-12.6106873
3490,4.2089849,8.0684185,9.3445215,36.3206100,-69.7099228,-8.7022905
3500,4.7955613,7.5105724,9.7563219,35.7175560,-72.0457993,-13.0076332
3510,3.2824337,9.8927908,9.2128410,34.4961815,-78.9083939,-0.6564885
3520,4.2161674,10.6852674,8.9614515,32.4045792,-89.8778610,13.4580154
3530,5.9304070,10.8193426,9.2415714,26.7633591,-90.4045792,17.4274807
3540,6.7085190,11.7123747,10.3907824,24.9694653,-88.0839691,14.7862597
3550,7.0077925,12.4952745,10.7235746,33.3893127,-89.4809189,8.4045801
3560,6.8114691,13.6588507,9.7012558,40.1603050,-95.2748108,0.8931298
3570,6.3302369,14.9612904,9.0883436,41.7480927,-113.5190811,-6.5725193
3580,6.4140334,15.9883976,8.7076674,42.6870232,-133.9389343,-14.0992365
3590,6.3469963,15.6699696,7.4866304,43.0992355,-148.4427490,-18.5877857
3600,6.2775645,15.0115681,5.7843618,37.2061081,-159.0763397,-19.4122143
3610,6.6534524,14.7769375,4.8578105,25.5343513,-167.2824402,-20.8244267
3620,6.9192076,14.9205885,4.0102673,12.1832066,-170.6030579,-25.1068707
3630,6.0668759,15.5358953,3.0597742,-6.8015265,-170.0000000,-27.1679382
3640,5.3558016,15.1097298,2.6982515,-28.9083977,-168.7175598,-25.7099228
3650,3.9911139,13.4721041,2.4947455,-43.6717567,-162.6564941,-21.3969460
3660,3.7540891,11.1186161,0.7350162,-54.2137413,-165.1603088,-19.3282452
3670,2.8706331,7.6973190,-1.7262106,-68.0610657,-183.8625946,-18.7328243
3680,1.6567791,3.7708483,-4.0677280,-85.2900772,-210.5648804,-10.6412210
3690,1.9632354,-0.4453192,-6.0189924,-107.2748108,-225.5496216,3.9312978
3700,4.0677280,-5.3270717,-6.8856888,-135.7709961,-224.2595367,14.1374044
3710,4.5154414,-10.6469603,-2.6240315,-153.6488495,-191.9541931,17.9923668
3720,9.7180147,-17.0514164,-5.8801293,-171.0534363,-165.0381622,8.1526718
3730,11.5447817,-19.6131992,-2.3870070,-180.6335907,-139.0458069,-7.9312978
3740,13.8192616,-19.6131992,1.0199248,-172.5496216,-124.7404556,-15.3664122
3750,13.2685976,-19.6131992,2.5617826,-151.8778687,-110.9083939,6.4427481
3760,10.2926207,-19.6131992,-2.4324965,-157.8396912,-81.8396912,70.8320618
3770,12.8113079,-19.6131992,-5.7029591,-250.1374054,-34.8244286,117.4351120
3780,19.4671535,-16.3427372,0.1580165,-250.1374054,15.9236641,73.7862625
3790,19.6126022,-11.6213961,17.3267498,-250.1374054,71.4274826,-36.8167953
3800,13.2805691,-10.3428984,19.6126022,-250.1374054,82.6564865,-124.4045792
3810,7.7380204,-7.8481531,19.6126022,-182.0152740,58.4122124,-163.2900696
3820,3.2321558,-12.0738974,19.6126022,113.8778610,101.3129807,-152.8931274
3830,-1.2808913,-17.9133263,19.6126022,250.1297760,131.8931274,-87.9923630
3840,0.5171449,-18.3825874,1.4532729,250.1297760,127.5496216,-23.3969460
3850,4.2448978,-14.5375185,-12.9334116,250.1297760,135.6335907,6.0381680
3860,6.6678176,-10.4434547,-17.0585995,250.1297760,148.5419922,16.5038166
3870,8.4490948,-8.4275465,-12.9573536,170.3282471,182.9465637,28.4732819
3880,9.4881725,-6.8832946,-7.5776095,124.4580154,224.3969421,34.9541969
3890,9.6054878,-5.1403246,-3.4691806,114.9694672,241.5343475,38.2442741
3900,9.5408449,-3.8426740,-1.3958124,122.8396912,237.5419922,38.8015251
3910,9.7778702,-2.7174051,-0.8092360,132.7328186,225.3282471,34.5572510
3920,9.2152348,-2.1380112,-0.5291159,136.3969421,224.7328186,28.2366409
3930,7.0197635,-0.1340746,-1.0295014,135.7099304,216.7557220,32.5190849
3940,6.1889796,1.2282192,-1.1396341,128.4045868,193.2595367,39.8473282
3950,7.6374645,2.3917952,-0.1005560,114.1908417,172.9389343,40.5267181
3960,8.5113440,3.4165084,1.3622938,99.8702316,158.0686951,31.9923668
3970,8.5999289,4.1587071,2.4109488,93.2213745,146.6946564,21.1450386
3980,8.5376797,4.2927818,3.1220231,84.1755753,143.2671814,12.7099237
3990,6.7252784,6.2655940,4.6375451,55.0228996,153.4656525,13.1374044
4000,6.1794028,6.8162575,4.7045822,43.7175560,151.7938995,14.2748089
4010,5.8011212,7.1729918,5.8083038,20.4045811,122.1297684,-3.8167939
4020,5.2887645,7.1418672,6.4523406,14.9389315,102.7709961,-23.2137413
4030,4.1491303,7.1634150,6.9527264,14.9083967,82.4580154,-41.5267181
4040,2.9616125,7.7571740,7.4267755,15.5725193,65.2824402,-50.5496178
4050,1.8171898,8.2647419,7.6733770,13.8549614,59.6030540,-50.7938919
4060,1.1516051,8.8154058,7.6350703,-6.5114503,74.9618301,-34.4885483
4070,1.5107336,8.1186962,7.7380204,-17.6259537,88.6946564,-32.2137413
4080,1.2593436,7.4626884,8.5065556,-26.3206100,98.6793900,-30.8167934
4090,-0.0933734,7.5081782,9.0907373,-29.5648861,107.8931274,-25.3740463
4100,-1.0318956,7.7380204,9.2918491,-26.8549614,107.0534363,-13.4503813
4110,-1.2856797,8.3126259,8.7794924,-24.3816795,97.4885483,-0.7099237
4120,-0.8666966,8.8273764,8.3078375,-25.7786255,77.8167953,10.4122133
4130,0.1268920,8.7459745,8.2360115,-30.0152664,60.2061081,17.6259537
4140,1.2090657,8.7316093,8.8896255,-33.5648842,48.0228996,19.3358784
4150,2.4492557,8.6526003,9.5911226,-33.2900772,43.5496178,17.2900772
4160,3.1076579,8.6118994,9.4809904,-30.4732819,45.2671738,11.2366409
4170,2.5115047,8.9853926,7.8481531,-35.3435097,57.7480927,-2.0381680
4180,1.6807210,9.2774839,7.6015515,-46.0152664,59.0763359,-2.6335878
4190,0.7829000,9.4115591,8.0612354,-56.4351158,54.5190849,-0.5190840
4200,0.5722113,8.5999289,10.5535870,-62.9312973,40.2519073,11.9923668
4210,1.5035510,8.7842808,11.6884327,-58.6183205,38.1374054,16.4274807
4220,2.4492557,9.1984758,12.2390966,-52.9541969,46.4274826,16.2900772
4230,2.6575503,9.5121145,12.2031832,-50.3511467,62.8320618,13.4580154
4240,2.2768741,9.8137827,12.5671005,-47.5419846,76.3282471,10.1984730
4250,1.4604555,10.1034794,12.3109226,-41.9541969,79.3129807,7.1221375
4260,0.9193687,9.9933472,11.7195578,-36.4732819,69.0076370,5.0992365
4270,0.7565638,10.1106625,11.3388815,-34.9465637,55.0839691,3.3969467
4280,0.7062859,10.2519188,11.6932211,-35.3282433,47.4885483,1.2213740
4290,0.2513899,10.6254129,12.7945480,-34.1450386,38.8625946,0.7251908
4300,-0.2801202,10.7738523,14.3076763,-26.5343513,28.4122143,2.7328243
4310,-0.9097920,11.0539722,15.2461987,-13.6641226,18.0839691,7.8702292
4320,-0.9504932,11.3388815,15.1504307,-1.1526718,11.9923668,15.8167934
4330,-0.8331779,11.4418316,14.2669754,7.8625956,12.0305347,25.1526718
4340,-0.6320660,11.7171631,12.6604738,11.4503813,15.5343513,34.6793900
4350,-0.7948709,12.0571384,11.0803089,8.8854961,12.7480917,43.3511467
4360,-0.7757174,12.5886478,10.2638903,2.0152671,3.4122138,50.7557259
4370,-0.5434810,13.3236647,10.5080976,1.6793894,-25.5648861,51.4732819
4380,1.1324517,14.3483772,10.3764172,8.9389315,-66.3740463,39.5801544
4390,2.2265961,14.9397421,10.2447367,16.0534344,-109.5343475,17.5038166
4400,2.5210814,15.0881815,9.9837704,26.0534344,-159.1450348,-5.3053436
4410,3.4524212,15.0163565,9.2487535,36.6259537,-205.3282471,-26.7938938
4420,4.3693957,15.0402985,7.8170285,40.2824440,-232.9160309,-48.5572510
4430,4.8817525,14.3603487,5.5712790,33.4427490,-241.4122162,-68.9160309
4440,4.1754665,12.8663740,3.3327117,15.7175570,-235.0763397,-84.8625946
4450,2.2672975,10.7666702,1.2617378,-8.6870232,-225.0229034,-87.7251892
4460,0.8307837,7.7092900,-0.1101327,-34.6564903,-218.0915985,-76.3206100
4470,-0.3208214,4.0892754,-1.0725969,-60.3053436,-206.9770966,-53.6259537
4480,-0.4860204,-0.0742199,-0.9169745,-80.1679382,-192.0381622,-21.0839691
4490,0.6679789,-4.6710634,-0.9911944,-89.8854980,-176.3587799,13.8320608
4500,3.2010312,-9.4402885,-2.1044924,-98.5267181,-150.1145020,44.3282433
4510,6.8210459,-14.2262735,-2.5162930,-110.0381699,-119.1679382,62.5343513
4520,11.2886028,-18.6196117,-1.9057748,-122.7480927,-83.7557220,59.1526718
4530,14.7170830,-19.6131992,-0.7493813,-131.9313049,-55.1068687,31.4656487
4540,16.5749741,-19.6131992,0.4189832,-140.3358765,-51.7557259,-10.4045801
4550,15.5143480,-19.6131992,1.3455344,-158.2366486,-82.7938919,-49.2290077
4560,12.2103662,-19.6131992,3.0334380,-190.4580078,-140.0686951,-70.2824402
4570,10.3835993,-19.6131992,7.0293403,-230.9389343,-185.0152740,-78.4732819
4580,10.4195127,-15.7154598,12.9621420,-250.1374054,-175.4809113,-99.8320618
4590,7.9582858,-12.3851423,19.6126022,-250.1374054,-126.6946564,-134.3511505
4600,2.5330524,-11.8344784,19.6126022,-241.4732819,-71.1297684,-151.6106873
4610,-2.8778157,-11.2838144,19.6126022,-125.0457993,-16.8625946,-130.3282471
4620,-4.3981261,-11.3101511,19.6126022,49.4961815,43.9923668,-83.2061081
4630,-2.5737536,-13.5391417,19.6126022,211.4732819,93.9847336,-31.5114498
4640,-0.2849085,-15.8112268,15.2294388,250.1297760,104.8931274,14.5877867
4650,1.6615674,-16.2876701,-0.6392486,250.1297760,91.7557220,50.3511467
4660,3.5936785,-14.2717638,-10.5416164,250.1297760,94.1908417,78.5114517
4670,5.4539638,-11.1210098,-11.7770176,179.4961853,118.6870193,99.5496216
4680,6.9862447,-8.7938576,-7.6877422,112.1374054,155.3053436,112.4656525
4690,7.8529415,-6.8904772,-2.7509236,79.0610657,186.2900696,116.3435135
4700,7.7428088,-5.2959471,0.9888002,71.5725174,200.5267181,114.0305328
4710,7.5800037,-4.0389977,2.2481439,75.1603088,199.9847260,107.4885483
4720,6.9910331,-2.8921809,2.9328821,82.1374054,188.9007568,98.7175598
4730,6.0022330,-1.1444225,2.8059900,80.8931274,174.8320618,94.7786255
4740,5.4779053,-0.2609667,3.0501974,74.2442780,155.1068726,90.8702316
4750,5.9256191,0.2346306,4.0629396,67.4045792,131.5343475,88.4198456
4760,7.0077925,0.9959828,5.4419928,64.9007645,112.8244247,84.2977066
4770,7.9941988,1.9177457,6.3829093,64.2137375,102.6793900,76.3587799
4780,8.7435799,2.9951310,7.0580707,63.6946564,106.6335907,65.3816757
4790,8.7268209,4.6351509,7.5464849,61.3664131,124.1679382,53.5267181
4800,8.0660238,6.0740585,7.6039457,58.1068687,142.0992432,38.9236641
4810,6.7061248,6.7516141,7.6183109,56.3282433,141.3740387,20.5190830
4820,3.8330972,6.5121951,7.0652533,56.4427490,105.3435135,-7.2442746
4830,3.6487448,5.8585815,6.7492199,54.0839691,82.8931274,-17.2366409
4840,3.3231349,5.4707227,6.5912037,47.0687027,72.7404556,-26.3969460
4850,2.3702476,5.6957769,6.5648675,37.5572510,70.7099228,-30.7175579
4860,1.6208663,6.2296810,6.5098009,25.0305347,74.9618301,-30.1832066
4870,0.6871324,7.3405848,6.8809004,11.1679392,81.3053436,-28.5496178
4880,-0.0574605,8.6717539,7.8553357,-3.1832061,75.4732819,-29.8549614
4890,-0.3495516,8.2216463,7.6542239,-9.7709923,68.8396912,-33.2824440
4900,-1.0007712,7.6877422,7.7954807,-17.7938938,59.6259537,-34.2977104
4910,-1.0558375,6.9790621,8.0732069,-22.6412220,47.7328262,-33.4351158
4920,-1.3215926,6.5241661,8.2671366,-26.5190830,38.0610695,-31.4198475
4930,-1.9728121,6.2488346,8.7316093,-30.2366409,27.3511448,-26.1297703
4940,-2.4827745,6.1458845,9.4426832,-30.4351139,16.7022896,-16.4122143
4950,-2.6407909,6.4188218,9.8065996,-28.3206100,6.9694657,-2.9083970
4960,-2.7652888,7.1011658,10.0747490,-26.4503822,2.4885497,12.2213745
4970,-2.3630650,7.7978749,10.0723553,-26.5877857,3.5877862,26.8854961
4980,-1.4484847,8.6095057,9.7012558,-30.9618320,9.0000000,37.2442741
4990,-0.3806761,9.0667953,9.4355011,-42.2977104,17.8854961,41.3664131
5000,0.3232156,9.3421268,9.7994175,-58.1145020,29.9694653,41.2671738
5010,0.9457048,9.5121145,10.8887739,-69.9007645,38.0839691,39.4274826
5020,1.4843974,9.7323799,12.4473906,-73.5648880,38.3206100,34.5267181
5030,1.6448082,10.4817610,13.4553452,-73.0152664,38.6946564,29.0076332
5040,1.6065011,10.8959560,14.4393568,-70.3816757,39.5267181,23.6564884
5050,1.3359578,11.0970678,15.7561607,-64.5877838,42.0381660,18.5877857
5060,0.6512195,11.6956158,16.8119984,-54.3206100,40.1603050,15.2900763
5070,-0.4094064,11.6118193,17.4871597,-39.8702278,29.8931293,16.6793900
5080,-0.8595140,11.3269100,17.7864342,-24.2748089,15.2290077,22.8091602
5090,-0.3902529,11.1066446,17.7313671,-7.4732823,-1.2977099,31.3282452
5100,0.7182568,10.9342632,17.3818150,8.6106873,-13.9694653,36.4274826
5110,1.6304430,10.8265247,16.6467991,25.1984730,-27.1297703,36.5954208
5120,2.8897867,11.0922794,15.1815557,39.0381660,-45.1603050,28.3664131
5130,3.9959023,11.3293047,13.5822372,47.1145020,-70.3816757,10.1679392
5140,4.4053087,11.3771887,12.3468351,50.8091621,-96.0687027,-13.2595415
5150,3.7780309,10.7379398,11.4609852,51.4732819,-115.9847336,-36.1145020
5160,2.5593886,10.1920643,11.1688938,50.5190849,-129.9160309,-52.4961815
5170,1.0295014,9.7898407,11.3029680,50.2519073,-138.2595367,-61.5877876
5180,-0.5099624,9.3229742,11.4418316,53.3053436,-142.0610657,-62.0305328
5190,-1.6424140,8.8058290,11.1162214,59.1374054,-144.0686951,-53.8702278
5200,-2.1308286,8.4897957,10.4554253,63.8549614,-140.3969421,-39.3969460
5210,-1.6807210,8.7268209,8.9829988,63.7557259,-129.0610657,-21.7099228
5220,-0.5746055,9.4690189,7.0891948,51.1984749,-107.3129807,-7.7633586
5230,0.5865764,10.1298151,5.7747850,26.6259537,-76.8702316,-0.7938932
5240,1.3575054,10.1250277,6.2320752,-12.4198475,-41.2748108,-0.5114504
5250,0.8810617,10.1346035,6.6079631,-16.5648861,-55.4274826,-2.3969467
5260,0.9073978,10.3452930,6.6606350,-11.8549614,-92.1374054,-4.0076337
5270,1.9608412,10.3596573,6.0836353,-4.5572519,-135.9847260,-8.6946564
5280,3.6391680,10.3333216,4.9152708,-0.1221374,-170.5954132,-18.8854961
5290,4.5944495,9.5097208,3.7564833,-1.5267175,-192.9313049,-32.1145020
5300,4.3981261,8.4203644,2.3702476,-7.6564884,-206.4961853,-42.0381660
5310,4.0677280,6.5098009,1.2856797,-17.7938938,-217.1908417,-45.2137413
5320,3.9671719,3.7014170,0.4309541,-29.5725193,-219.7786255,-42.4122124
5330,4.4005203,0.6536137,0.0646431,-42.2824440,-210.8320618,-34.3053436
5340,5.2384863,-2.5474176,-0.0119709,-56.6183205,-177.6335907,-25.1755733
5350,5.8944945,-6.6726060,1.0342898,-67.9770966,-129.0763397,-17.4580154
5360,5.5832496,-10.9390516,2.0877333,-70.2213745,-81.5190811,-11.1832066
5370,5.0038562,-14.5901909,2.6647329,-66.1832047,-38.2900772,-2.5648854
5380,3.8857694,-17.1783085,1.8243724,-67.6259537,-1.6946565,9.8931293
5390,2.9664006,-18.7345333,0.2585725,-86.5572510,16.2290077,26.7404575
5400,2.0805507,-19.3713875,-0.8906385,-125.0992355,9.5343513,48.8244286
5410,1.9823889,-18.9188843,-0.2489957,-169.3206177,-29.7480907,72.6717529
5420,3.8115497,-17.3937855,2.7245877,-206.8625946,-97.8244247,89.6717529
5430,6.7180958,-14.8415804,7.5728211,-224.4580078,-155.7099304,88.6717529
5440,9.1553802,-11.7219515,12.9453821,-219.2977142,-185.9084015,66.2977066
5450,10.1130562,-9.4307127,18.2030220,-195.1908417,-190.9847260,28.7633591
5460,9.7946291,-8.1641865,19.6126022,-151.6030579,-164.3053436,-10.8244276
5470,8.0061693,-8.6956959,19.6126022,-82.9465637,-111.5877838,-39.9007645
5480,6.3709383,-9.8496952,19.6126022,12.4961834,-61.7175560,-51.2977104
5490,5.3031297,-11.4729557,19.6126022,119.5038147,-25.4732819,-50.3587799
5500,4.8027439,-12.6532917,17.1567612,203.3282471,-8.4198475,-40.0152664
5510,5.2624283,-13.0507269,9.0476418,248.1755676,-3.2748091,-26.2442741
5520,6.1865854,-12.1912127,2.3343346,250.1297760,8.4732828,-14.1603050
5530,7.2280579,-10.6086531,-1.5538290,224.8625946,26.7328243,-5.4885497
5540,7.9678626,-9.0380650,-2.7916248,184.6946564,45.6488533,-0.9694657
5550,8.6214762,-8.0253229,-1.6232605,148.5419922,68.4656525,0.9541985
5560,8.6142941,-6.9934273,0.1364688,127.6793900,93.0763321,2.9389312
5570,8.5376797,-5.2983413,1.5993185,117.7709961,118.5954208,8.0992365
5580,8.7340031,-3.5386121,2.4947455,111.8015289,143.4427490,13.5038166
5590,8.8848372,-1.8674678,3.2393384,107.1374054,159.9007568,15.5725193
5600,9.1649570,-0.7421987,3.7684543,104.7099228,165.7709961,14.8320608
5610,9.2966375,0.2035061,3.7828193,100.7022934,165.9923706,11.6183205
5620,9.1505919,2.6216373,3.8761928,72.4503784,154.2671814,-1.0381680
5630,8.2886839,4.0150557,4.5920553,58.5114517,157.7099304,-6.7786260
5640,7.7164726,5.4946647,5.4060798,49.1374054,153.0610657,-12.2824430
5650,7.4267755,6.3757267,6.0309634,44.1603050,140.2595367,-23.1984730
5660,6.8306227,6.8832946,6.2584114,41.7633591,127.2671738,-36.8473282
5670,5.7747850,7.5105724,6.2751703,38.1526718,116.0839691,-51.0305328
5680,4.8290801,7.8002691,5.8011212,31.1374054,108.9083939,-63.3816795
5690,3.1746953,7.9175844,5.4707227,19.6564884,106.7175598,-72.6335907
5700,1.3359578,8.0157461,5.5186067,7.3053436,106.1068726,-74.3816757
5710,-0.3016679,8.3964224,5.7149301,-4.3282442,104.7099228,-68.3740463
5720,-1.3120158,8.8177996,5.8849177,-12.2671757,102.1450348,-57.8396950
5730,-1.5322813,8.8345594,5.8561873,-18.6641216,96.3969498,-47.7786255
5740,-2.1212518,8.9399033,5.4850879,-28.5496178,84.2061081,-38.9389305
5750,-2.2792683,9.1481981,5.4731169,-39.9694672,67.4961853,-30.1603050
5760,-2.3127871,9.0859489,6.0884237,-50.2442741,47.1068687,-24.0992374
5770,-2.7988074,9.4738073,6.9599090,-55.7099228,26.3206100,-16.1832066
5780,-3.1579359,9.8736372,7.6135225,-59.3282433,11.8473282,-3.1832061
5790,-2.8466914,10.3261395,7.9487090,-64.0839691,7.5419846,13.2977095
5800,-1.8411317,10.8528605,8.5927458,-71.6183243,11.4198475,29.6488552
5810,-0.1771700,10.8576488,9.3517036,-80.3129807,20.0076332,39.6793900
5820,1.2138541,10.9222927,10.4769726,-89.1603088,26.5877857,42.4274826
5830,2.0350611,10.8648319,12.0906563,-91.7709961,25.6564884,38.9923668
5840,2.1260402,11.3029680,13.8168669,-86.6259537,19.3816795,32.5496178
5850,1.6687500,12.0331964,15.3036594,-73.2519073,9.4809160,28.1526718
5860,0.9097920,12.6485033,16.2326050,-55.3358765,-3.1755726,26.6106873
5870,0.4716553,13.1919842,16.5749741,-37.2977104,-17.1068707,28.7404575
5880,0.4908088,13.0411501,16.7305965,-21.4045811,-29.5419846,32.3740463
5890,0.4285599,12.2055779,16.9891682,-5.1679387,-39.0381660,37.5343513
5900,0.5386927,11.1305866,17.2644997,16.8473282,-50.3740463,46.7557259
5910,1.1803354,9.9670105,16.6659527,44.1679382,-61.8625946,56.7404594
5920,2.0015423,9.4187412,14.4776640,62.0458031,-66.8473282,65.9007645
5930,3.0645626,9.3876171,12.5766773,69.4045792,-67.8778610,73.2213745
5940,4.1994085,9.3971939,11.0707321,71.5954208,-72.6488571,74.0305328
5950,5.2217274,9.2774839,9.6701307,70.5954208,-81.0457993,67.6335907
5960,5.8106980,9.4115591,8.3222027,64.7862625,-95.3587799,56.2442741
5970,6.2201042,9.6270361,7.9798336,58.2748108,-113.3358765,40.9694672
5980,6.2536230,9.7778702,7.7045016,54.6793900,-130.2824402,25.1221371
5990,5.9711084,9.7658987,7.2304521,51.5801544,-144.5801544,11.6335878
6000,5.3007355,9.6366129,6.9144192,48.5267181,-156.8473358,4.5954199
6010,4.6590929,9.4498653,6.9096308,46.7709923,-168.5954132,3.4198472
6020,4.5322008,9.6078825,6.8186517,48.4427490,-178.7557220,7.5877862
6030,4.9655490,9.9670105,6.6821828,49.7862587,-183.5572510,13.7328243
6040,5.3438311,10.7068148,6.3853035,49.7022896,-180.9084015,19.5648861
6050,6.5265603,11.6573086,5.7053533,43.9083977,-164.5419922,27.0916023
6060,8.1953106,12.1768475,5.6622581,31.7328243,-128.8015289,27.7251911
6070,9.3110027,12.4641504,5.6215568,17.7480907,-81.8167953,20.5190830
6080,9.2726955,12.0786858,5.4084740,2.9083970,-38.2519073,11.6641226
6090,7.0796180,11.6644907,4.0557570,-21.4732819,0.2290076,-0.2671756
6100,6.2775645,11.6573086,3.1579359,-31.9541988,-12.9541988,-3.6412213
6110,6.5959921,11.6884327,2.5019281,-40.3511467,-41.3435097,-11.3511448
6120,7.3286138,11.4945040,1.3407460,-51.7709923,-75.4351120,-26.9160309
6130,7.6278877,10.3668404,0.0454896,-67.8396912,-102.7022934,-47.3969460
6140,6.8449879,8.5568333,-1.2186425,-87.6793900,-125.7862625,-65.6030502
6150,6.2081332,6.2871413,-2.0111191,-109.3053436,-147.1297760,-77.9847336
6160,5.1211715,3.7564833,-2.4420733,-129.9160309,-165.9160309,-85.4961853
6170,4.9440012,1.1013272,-2.6407909,-147.3511505,-180.9770966,-88.6564865
6180,5.3294659,-1.7405758,-2.6695213,-166.6259613,-178.8320618,-90.2824402
6190,6.1219425,-5.0301919,-2.1763182,-188.5801544,-149.8854980,-93.0839691
6200,6.7061248,-8.9303265,-0.3591284,-208.1221313,-95.6564865,-95.3587799
6210,7.1107426,-13.2973280,1.6424140,-219.4427490,-11.4809160,-91.8091583
6220,6.6319046,-17.6308117,2.7030399,-220.1984711,87.2137375,-80.3358765
6230,5.7269011,-19.6131992,2.7509236,-215.9007568,162.5114441,-56.7786255
6240,4.8649931,-19.6131992,1.6759326,-215.2213745,196.9007568,-19.3511448
6250,3.8139439,-19.6131992,-0.3256098,-223.4732819,168.3664093,24.8625946
6260,5.5712790,-19.6131992,-1.3551112,-250.1374054,87.3587799,52.1832047
6270,9.3181858,-17.9971218,2.9520357,-250.1374054,4.2061067,44.0763359
6280,11.8488436,-13.0483322,11.3532467,-250.1374054,-27.4427490,0.9312977
6290,10.2112179,-9.9622221,19.6126022,-250.1374054,-34.2061081,-55.7557259
6300,6.4858594,-9.4450769,19.6126022,-238.8320618,-44.9541969,-91.6717529
6310,3.2489152,-9.5647869,19.6126022,-117.1526718,-33.4961815,-94.6641235
6320,2.1427996,-10.5152798,19.6126022,48.2290077,13.8167934,-69.5114517
6330,1.9105632,-12.5407648,19.6126022,190.7862549,63.8549614,-24.6564884
6340,3.0621684,-12.7131462,13.6803989,250.1297760,97.1374054,19.8625946
6350,5.5928264,-11.9637651,3.4715748,250.1297760,127.7404556,49.1755714
6360,7.5464849,-10.7570934,-2.6814921,241.8167877,161.1526642,61.9160309
6370,8.4730368,-8.8656836,-4.9176650,181.1908417,186.3129730,63.6106873
6380,8.2360115,-6.6773944,-3.7469065,122.3816757,197.5496216,57.2977104
6390,7.5488791,-5.4539638,-0.6895266,88.1755753,186.8320618,46.7480927
6400,6.6773944,-5.7077475,2.4109488,78.9923630,163.4580078,36.8778610
6410,5.4611464,-5.5473371,4.0342093,83.4961853,132.5267181,33.5114517
6420,4.2903876,-5.0182209,5.5904322,93.9236679,98.6106873,38.1068687
6430,4.0030847,-4.0030847,6.8880830,109.2137375,71.7328262,46.5725174
6440,4.2903876,-2.6982515,7.1203194,125.5877838,57.3587799,57.4198456
6450,5.4515696,-0.8595140,6.5241661,135.9618378,64.1832047,67.3893127
6460,6.5241661,1.0247130,5.5664907,134.7099304,80.4809189,71.1450348
6470,7.2232695,2.6886747,4.5705075,120.7099228,99.3664093,66.4122162
6480,7.0604649,4.0533628,4.1826491,97.8244247,110.2519073,56.7786255
6490,6.2919297,4.4986820,5.0038562,75.5343475,102.1526718,45.7633591
6500,5.3486195,7.0365229,9.4881725,83.1374054,9.2977095,22.3587780
6510,5.0038562,8.5735922,8.2695303,81.1679382,25.4427490,6.0229006
6520,4.2281384,8.0803890,7.2424231,60.4427490,36.4351158,-10.1603050
6530,3.5242469,7.5919747,7.0987716,47.0076332,28.9389305,-15.9847326
6540,3.7947903,7.3142486,7.8074517,33.7709923,15.0229006,-20.9312973
6550,4.3478479,6.7109132,9.2918491,25.3969460,-3.3435113,-29.6717548
6560,4.3167233,6.4954362,11.1569233,27.0916023,-30.9465656,-40.6793900
6570,4.1587071,6.4427638,12.4737272,42.8015251,-60.3206100,-51.8625946
6580,3.3303175,6.6390872,12.2558556,65.6106873,-85.0152664,-60.2061081
6590,2.5258698,7.3142486,10.3165627,84.3053436,-101.8702316,-63.9618340
6600,2.1260402,7.7140784,7.6542239,89.3816757,-107.2366409,-62.8167953
6610,1.7884595,7.8098459,5.3893204,76.5038147,-99.7709961,-59.0992355
6620,1.4197544,8.3030491,4.2760224,53.7099228,-83.1374054,-53.5419846
6630,1.0702027,8.5041609,4.3693957,29.6106873,-60.1450386,-46.5267181
6640,0.5362985,8.5328913,5.1594782,13.2824430,-37.5267181,-36.1679382
6650,-0.3327923,8.9925756,5.9591374,2.8625953,-15.5954199,-22.1679382
6660,-1.4820032,10.5655584,6.9646969,-10.0229006,24.3816795,13.8625956
6670,-1.1085097,10.8648319,7.3070664,-13.3664122,39.1450386,28.4732819
6680,-0.7781116,11.0994625,7.6709828,-14.5114508,45.2061081,38.2519073
6690,0.1125269,11.3484583,8.1953106,-12.6870232,40.7480927,43.7557259
6700,1.4484847,11.7027979,8.2575598,-8.3129768,32.4885483,42.4045792
6710,2.5306582,12.0858688,7.8936424,-6.5190840,27.9236641,34.7099228
6720,3.2848279,12.6532917,7.8218169,-6.9618320,23.8091602,22.5038166
6730,1.0414724,11.8991213,7.2783360,10.4656487,-37.7786255,3.4656489
6740,0.9864060,11.6525202,6.8976598,14.0229006,-50.0839691,9.3740454
6750,1.6328372,11.6668854,6.6797886,15.1068707,-54.2519073,16.0229015
6760,2.6407909,11.8847561,6.8090749,14.7099237,-47.7633591,20.9618320
6770,3.0549858,12.2606440,6.7300668,12.6488552,-35.2442741,24.2442741
6780,3.1435707,12.7753954,6.7133074,9.0992365,-21.9236641,27.2824421
6790,3.1531475,13.3069048,7.0101867,7.0610685,-14.4809160,29.3129768
6800,3.0621684,13.6516685,6.6989422,9.1145039,-14.2671757,29.1603050
6810,2.7724714,13.7953196,5.8633699,10.4045801,-24.5038166,29.2290077
6820,2.3606708,14.0491037,5.0756817,9.2137403,-43.3206100,29.9236641
6830,2.4396791,14.3938665,4.9320302,6.4580154,-71.9160309,32.1450386
6840,3.3255291,14.8990412,4.9535780,3.5190840,-93.0763321,33.1679382
6850,4.3071470,15.3898497,4.8602047,-0.1832061,-102.6564865,30.4122143
6860,4.6566987,15.6603928,4.5226240,-6.9083967,-105.9694672,24.3664131
6870,4.4005203,15.5430775,3.6487448,-16.7557259,-108.5954208,19.1755733
6880,3.6200144,15.3180237,3.1986370,-29.1374054,-112.4274826,17.8396950
6890,3.5098817,14.2957048,2.6024840,-40.7175560,-117.9160309,18.7786255
6900,3.2944047,12.6724443,1.6783268,-51.5038185,-122.0992355,19.2671757
6910,2.3271523,11.0563669,0.2346306,-63.0992355,-128.8396912,22.3511448
6920,2.0709739,9.1625633,-1.2042773,-77.3664093,-138.5190887,26.8931293
6930,2.3606708,6.3158717,-2.5306582,-95.8244247,-145.8702240,29.8931293
6940,2.6264257,3.1866663,-3.1890604,-117.4961853,-152.4885559,33.3816795
6950,3.6248028,-0.1747758,-2.8251436,-140.3435059,-144.9313049,36.8473282
6960,5.1163831,-4.1634955,-1.0678085,-159.7633514,-119.9618301,37.3969460
6970,6.4906478,-7.9798336,0.6368544,-173.7557220,-76.1297684,31.8473282
6980,6.7707677,-11.8584204,2.0997043,-178.2519073,-32.9083977,25.7404575
6990,6.7061248,-15.6579990,3.2225790,-172.1145020,-7.0458016,24.9083977
7000,7.0772243,-19.1846409,3.8450682,-159.2748108,1.6946565,33.7938919
7010,8.6885138,-19.6131992,3.9959023,-152.5954132,9.9160309,52.8473282
7020,12.4545736,-19.6131992,4.5178356,-159.5038147,22.4732819,70.3740463
7030,15.3084478,-19.6131992,5.5042415,-179.4732819,15.0458012,71.7709961
7040,17.1567612,-18.6507359,8.5592270,-205.8702240,-22.5648861,58.9083977
7050,19.3354740,-14.8152447,13.7163115,-221.5190887,-55.2977104,29.0992374
7060,19.6126022,-10.7307568,19.2612534,-215.2595367,-53.4580154,-24.9160309
7070,17.3866043,-8.1043310,19.6126022,-184.6335907,-34.5496178,-94.1679382
7080,11.2191715,-8.3293848,19.6126022,-120.7938919,-11.0916033,-149.1221313
7090,3.4308734,-10.9151096,19.6126022,-25.9465656,3.6183207,-158.6259613
7100,-2.5067163,-13.0124197,19.6126022,85.7251892,18.5343513,-124.2671738
7110,-4.8434453,-14.1975431,19.6126022,183.4427490,20.6717548,-63.0610695
7120,-3.5577655,-14.3388004,11.6477318,243.5954132,10.5954199,1.4122137
7130,0.0407012,-13.0052376,3.8785870,250.1297760,3.0763359,48.8702278
7140,4.8458395,-11.0874910,-0.0167593,235.9694672,8.9770994,72.0305328
7150,8.5640154,-9.2463598,-1.3024391,206.5648804,26.5877857,71.6564865
7160,10.3117743,-7.5345144,-1.1085097,180.3587799,49.8702278,56.6106873
7170,10.4578199,-6.2727766,0.0383070,163.8702240,66.9694672,38.6259537
7180,10.0148945,-5.4802995,0.9145803,157.1755676,75.0687027,22.1374054
7190,8.5735922,-4.7835903,0.9050036,154.9694672,73.5725174,11.2213745
7200,7.0197635,-3.1842721,0.5123565,151.2748108,68.0457993,11.0381680
7210,6.4571290,-1.7309990,0.3806761,141.5801544,63.3511467,16.8015270
7220,6.5361371,0.7374104,0.6655847,126.2977066,65.4274826,23.0687027
7230,7.2160869,3.0286496,1.5107336,110.2824402,67.8167953,23.7786255
7240,8.6885138,4.9847026,2.5426292,89.0305328,68.9618301,6.0534353
7250,7.4746594,5.5664907,3.1794837,69.5343475,61.2900772,-14.7480917
7260,6.7635851,6.3876977,3.5936785,62.0534363,56.9541969,-15.8931293
7270,6.4403696,7.7954807,3.8737986,53.3969460,55.1984749,-15.8473282
7280,6.3182659,9.3995876,4.2999644,43.4885483,52.1221390,-18.8931293
7290,6.2488346,10.3955708,4.8506279,35.4045792,45.2671738,-27.0000000
7300,5.8609757,10.6397781,5.1546898,29.2900772,34.7938919,-38.0534363
7310,5.3031297,10.3548698,5.2696109,23.2137413,23.2671757,-48.2748108
7320,4.5705075,9.8808203,5.2001796,17.2213745,14.3282442,-55.5954208
7330,2.2888451,9.9382801,5.1139889,3.2213740,6.0534353,-50.1832047
7340,1.8698620,11.1832590,5.2935529,-5.5190840,6.4580154,-36.7938919
7350,2.3439114,12.0331964,5.8418221,-14.7480917,14.4045801,-24.2824421
7360,3.1675127,12.6844158,6.6342988,-19.8854961,21.7099228,-16.4198475
7370,3.8067613,12.9908724,7.2927012,-19.8931293,24.5038166,-14.5343513
7380,3.8905578,12.9789009,7.4100165,-16.2671757,23.9160309,-14.3893127
7390,3.7876077,12.5671005,6.8258343,-14.2824430,21.9389305,-12.2213745
7400,3.4907281,12.4042959,6.2416520,-18.5419846,20.5572510,-6.8167939
7410,3.1052637,12.9046812,6.7348547,-23.7251911,13.1526718,0.9694657
7420,4.0605454,13.4553452,8.5927458,-19.4045811,-14.4732828,12.7709923
7430,4.7189474,13.4577389,9.2439651,-9.5877867,-32.4809151,12.3740454
7440,5.3510137,13.6851873,9.4474716,1.8091604,-49.0916023,10.3664122
7450,6.0429344,14.0227680,9.1865053,12.1374044,-61.6717567,5.2061067
7460,6.5528965,13.8527803,8.0205345,17.1908398,-67.1297684,-2.9389312
7470,6.3996682,13.3691540,7.2136927,17.1374054,-65.2748108,-8.9236641
7480,5.9088597,12.9812956,6.6750002,15.6870232,-62.5343513,-11.7786255
7490,5.4443870,12.3827477,6.6199336,14.3511448,-63.8473282,-12.2290077
7500,4.7117648,12.1098099,6.9263902,16.2442741,-74.7709961,-11.4274807
7510,3.6846576,12.0667152,7.1179252,24.2290077,-97.9389343,-8.0305347
7520,2.9831600,12.3396521,6.8617468,35.8854980,-130.3511505,-1.4351145
7530,3.0118904,12.8352499,5.6143742,46.1755714,-163.4961853,6.1297708
7540,3.6511390,13.4912577,3.9001346,47.9541969,-188.7328186,10.8625956
7550,4.8482337,14.3340120,2.4420733,42.2290077,-200.8549652,11.9083967
7560,6.0549049,14.7721491,1.1827296,30.0610695,-194.5267181,9.6335878
7570,6.3062949,15.1121235,-0.0215477,11.0992365,-168.1984711,6.0152674
7580,5.2456689,15.6340570,-0.7278336,-12.1450386,-128.9847260,5.9160304
7590,3.7947903,15.9860029,-1.1468167,-37.6946564,-89.1221390,12.5496187
7600,3.1268115,15.2294388,-1.3814473,-62.3587799,-57.5954208,21.3129768
7610,2.5354466,13.6396971,-1.5179161,-81.8167953,-38.4809151,28.3664131
7620,1.7166338,11.7004042,-1.7477583,-96.1450348,-36.1679382,37.3435097
7630,1.2952565,9.3397331,-2.3151813,-109.1145020,-40.7099228,47.6564903
7640,1.3335636,7.1251078,-3.0932927,-124.4198456,-42.0458031,58.0305328
7650,2.0206959,4.0006905,-3.4763632,-143.3206177,-33.8549614,66.0305328
7660,3.3375001,0.0095768,-3.0908985,-164.7022858,-9.6030531,70.9465637
7670,4.7979555,-4.4795284,-1.5274929,-186.9923706,35.1374054,72.4885483
7680,5.6598639,-8.4419117,0.2585725,-200.2061005,83.7633591,67.1068726
7690,6.2129216,-12.1744537,2.2002602,-197.2977142,113.9465637,57.9618340
7700,6.7468257,-15.6268749,2.9807658,-183.1450348,123.3816757,49.4732819
7710,6.9623032,-19.4599724,2.5761478,-170.2442780,114.7251892,46.1145020
7720,6.9120250,-19.6131992,2.2122312,-163.1221313,74.6030502,48.5114517
7730,6.7468257,-19.6131992,2.8682389,-156.9465637,-7.7480917,58.9694672
7740,7.3573442,-19.6131992,4.2448978,-149.2977142,-115.9160309,76.5419846
7750,9.5145092,-19.6131992,6.0620875,-149.6259613,-225.7251892,90.6335907
7760,13.5654774,-16.9819851,8.9470863,-156.0076294,-250.1374054,87.5190811
7770,17.4320927,-13.8623571,12.7346935,-164.9847260,-250.1374054,60.2442741
7780,19.6126022,-11.3412752,18.9380379,-166.3893127,-250.1374054,12.0381680
7790,19.6126022,-10.1824875,19.6126022,-135.1908417,-250.1374054,-48.7709923
7800,19.6126022,-8.8848372,19.6126022,-38.9007645,-170.7633514,-124.1908417
7810,19.2995605,-10.6589317,19.6126022,114.2900772,-61.7938919,-183.7404633
7820,15.1145182,-14.8631277,19.6126022,243.8167877,23.8854961,-200.1526642
7830,12.4186611,-18.6818600,14.2143030,250.1297760,140.9770966,-191.9770966
7840,7.8337879,-18.5836983,1.7956421,250.1297760,230.3816833,-152.5267181
7850,5.1403246,-17.3171730,-9.5456333,250.1297760,250.1297760,-94.8702316
7860,2.4324965,-13.7282820,-16.5318775,250.1297760,250.1297760,-38.9312973
7870,1.7429699,-6.4020624,-18.7512913,180.1984711,250.1297760,2.6870229
7880,3.8714044,0.2059003,-14.5063934,70.2137375,189.8625946,15.4503813
7890,6.4786768,2.0470319,-6.1387019,11.6641226,152.1832123,12.1603050
7900,8.9734221,2.9592183,0.8978211,-2.6793892,137.4732819,-1.1068702
7910,9.3612804,4.3741841,4.9320302,4.6488547,135.5648804,-17.7786255
7920,8.6645718,5.2767935,6.8545642,23.6259537,136.9465637,-27.9541988
7930,7.7116842,5.1977854,7.1442614,45.3587799,138.5954132,-29.2900772
7940,6.9359670,5.2672167,6.0022330,62.2671738,146.4351196,-20.6564884
7950,6.4355812,6.1841912,4.1850433,66.1450348,156.7786255,-7.1374044
7960,6.6079631,7.9630742,1.3958124,33.6870232,175.2213745,10.2748089
7970,6.8928714,8.4562769,0.9959828,6.7938933,172.6946564,9.0916033
7980,7.1849627,8.5951405,2.2002602,-16.6488552,157.7633514,-0.2977099
7990,6.5169835,8.9375095,3.8570392,-28.0992374,137.4885559,-12.1450386
8000,5.7269011,9.5552101,5.0589223,-31.2671757,115.2900772,-22.5190830
8010,4.9080882,9.8473015,5.6191626,-32.7480927,94.7709961,-31.8015270
8020,4.0126615,10.2423429,6.1578555,-34.7709923,73.5496216,-38.0534363
8030,3.3518653,10.1250277,6.5983863,-36.9771004,58.0305328,-41.5190849
8040,2.8897867,9.9694052,7.1275020,-38.2061081,48.8778610,-42.5496178
8050,2.5186872,9.5719690,7.3669209,-40.2290077,44.6335869,-41.3816795
8060,2.1835008,9.1529865,7.7547798,-43.3282433,42.6870232,-37.6259537
8070,1.5969244,9.0979195,8.3820572,-45.4427490,42.9389305,-30.3816795
8080,0.9145803,9.4690189,8.9997578,-45.0228996,44.5496178,-18.8167934
8090,0.8355721,10.1393919,9.4905672,-44.3435097,47.2824440,-4.6335878
8100,1.1516051,10.7954006,9.8927908,-44.0458031,52.8931313,7.9618320
8110,2.0254843,10.9127159,10.2591019,-46.1145020,57.9694672,17.3664131
8120,2.8395088,10.9965124,10.9582052,-47.2824440,58.7404594,21.2290077
8130,3.4643922,11.3125448,11.8847561,-42.8091621,57.6030540,21.4809170
8140,3.8714044,11.6429434,12.4138727,-35.7099228,57.3587799,19.2977104
8150,4.0389977,12.0116482,12.6700506,-30.2671757,60.6488533,16.9007626
8160,4.0749106,12.2199430,12.8663740,-28.7786255,73.3511429,15.2748089
8170,3.5625539,12.0810804,12.8280668,-30.7328243,87.8167953,14.9312973
8180,2.9113343,11.9805241,13.0962162,-30.2213745,93.0229034,14.5801525
8190,2.6000898,11.6022425,13.2566271,-23.0152664,77.3740463,13.3893127
8200,3.0262554,11.0156660,13.1345234,-11.8625956,40.8549614,7.0992365
8210,3.3686244,10.6158361,13.0196018,2.8473282,-12.3740454,-4.1068702
8220,3.7085996,10.5033092,13.1800127,20.5419846,-71.5038147,-18.0229015
8230,3.9791429,10.3476868,13.2422619,42.0305328,-131.8244324,-32.2290077
8240,4.7835903,10.4889441,12.3899307,60.9694672,-182.8778687,-47.7480927
8250,5.2528515,10.7977943,11.6261835,70.8931274,-218.6335907,-63.3206100
8260,5.5186067,10.5966825,11.4681673,75.3358765,-230.5572510,-74.7786255
8270,4.9368186,10.1441803,11.2239599,78.3816757,-217.8167877,-77.9923630
8280,3.6511390,10.0053177,10.5918941,82.3664093,-189.2824402,-71.4961853
8290,1.9680238,10.4386663,9.6437950,89.1374054,-157.5725250,-55.1908379
8300,0.3016679,11.3293047,7.7691450,94.7786255,-137.3816833,-36.0076332
8310,-0.7852941,12.1624823,5.4108682,96.6870193,-129.1679382,-15.3282442
8320,-0.9816177,12.9214401,2.9448531,90.0763321,-134.7709961,2.7862597
8330,-0.3495516,13.5295649,0.7014975,77.3664093,-146.3358765,15.9389315
8340,0.2753318,14.1329002,-1.5131277,58.3740463,-160.6106873,24.4503822
8350,1.2737088,13.5511122,-3.0478032,30.9083977,-178.1450348,30.1374054
8360,2.7078283,12.2654324,-3.2608860,1.4809160,-191.6946564,32.7022896
8370,3.5362179,11.2909975,-2.9017577,-25.0229015,-191.9770966,33.9389305
8380,4.0437860,10.2662840,-2.6599445,-48.9160309,-181.5648804,36.6717567
8390,4.6830344,8.1977043,-2.1284344,-71.9923630,-162.4809113,38.5267181
8400,4.5729017,5.6407104,-1.4149660,-89.0381699,-141.5419922,41.3587799
8410,4.3239059,3.5984666,-0.7876883,-96.7404556,-121.9160309,45.0152664
8420,4.9607606,0.9265513,-0.2585725,-101.2671738,-103.2366409,49.0610695
8430,5.8681583,-2.5162930,0.2082945,-104.6488571,-75.2595444,51.4122124
8440,6.3517847,-6.0357518,0.9600700,-102.7251892,-45.1526718,54.7328262
8450,7.0030041,-9.3133974,1.6950861,-93.3664093,-27.3053436,59.3358765
8460,7.7667508,-11.9517937,1.8890154,-81.2442780,-13.2442751,64.8244247
8470,8.2431946,-14.0898046,1.4389079,-73.5114517,8.1221371,71.6946564
8480,8.5304966,-15.6939116,0.8499373,-75.4274826,26.6793900,80.8396912
8490,8.8273764,-16.0458584,0.3256098,-88.1603088,36.4351158,89.3129807
8500,8.9734221,-15.2342272,0.3854645,-108.5343475,29.7557259,95.5343475
8510,9.4091644,-13.9557304,1.3359578,-131.6870270,5.9160304,94.7557220
8520,10.3285332,-12.3396521,3.0573800,-153.4122162,-22.5648861,86.2671738
8530,11.3987360,-10.7954006,5.3366485,-173.4198456,-48.2442741,70.2748108
8540,12.3731709,-9.5791521,8.4730368,-187.4198456,-64.0763321,47.9083977
8550,12.8807392,-8.7459745,11.9182749,-189.2748108,-69.7786255,21.4809170
8560,13.5726604,-8.3676920,16.6563759,-170.6564941,-62.5648842,-7.3206105
8570,13.9509420,-8.0947542,19.6126022,-125.8473282,-42.0992355,-36.9007645
8580,13.6229382,-7.8050575,19.6126022,-56.1908379,-2.9770992,-66.8320618
8590,12.1768475,-8.2431946,19.6126022,27.8167934,58.0228996,-89.9083939
8600,10.1944590,-9.3828287,19.6126022,109.6641235,119.8244247,-100.7022934
8610,8.4395180,-10.7690639,16.8718529,177.2977142,169.8931274,-98.2748108
8620,6.8449879,-11.4131012,11.2191715,222.6412201,201.0763397,-83.2213745
8630,6.4499464,-11.5543585,6.3829093,247.4351196,212.0610657,-62.8396950
8640,6.3661499,-10.8169479,2.2649033,250.1297760,207.1832123,-40.8473282
8650,6.9718795,-8.9279327,-1.3479286,249.5954132,190.9541931,-21.8854961
8660,7.9391322,-6.6726060,-3.9839313,225.7786255,171.4732819,-10.9007635
8670,8.5376797,-4.0030847,-5.8537931,185.9007568,156.4427490,-6.2900763
8680,8.9925756,-1.6663558,-5.9974446,137.2977142,150.5572510,-6.0992365
8690,8.9063845,0.6775556,-4.5417776,91.7557220,151.8091583,-10.8015270
8700,8.0899658,1.8243724,-2.1020982,54.3969460,149.9160309,-18.1832066
8710,6.7300668,3.0166788,0.6153067,31.7862587,138.0534363,-22.2442741
8720,5.4348102,4.0150557,3.0478032,21.1221371,117.3969498,-23.2442741
8730,4.7692256,4.5226240,4.7811961,22.3129768,96.3435135,-21.3282452
8740,4.5202298,5.0828643,5.9304070,29.7022896,79.5496216,-16.7709923
8750,4.2784166,5.6215568,6.2272868,35.2442741,72.1832047,-10.4732828
8760,4.1419477,6.8832946,5.3677726,28.9007626,77.6259537,1.9465649
8770,4.0749106,8.1354561,5.5162125,19.0534344,84.3358765,3.5038168
8780,3.9360476,8.9015961,5.5904322,9.8320608,86.0152664,1.3587786
8790,3.6343796,9.2391768,5.8083038,0.8778626,80.8931274,-2.5267177
8800,2.9137285,9.2391768,6.4643116,-16.2519093,59.4885483,-13.3511448
8810,2.0853391,8.8297710,7.1849627,-21.9312973,45.2595406,-14.9618320
8820,1.2808913,8.3988171,7.8385763,-24.0687027,36.9312973,-9.5267172
8830,0.9911944,8.0277176,8.3174143,-22.6946564,32.3969460,15.8244276
8840,1.1779412,8.3341732,8.2647419,-24.7022896,36.3053436,29.0076332
8850,2.0709739,8.4395180,8.4131813,-29.5190830,43.4503822,40.6335869
8860,2.9616125,8.4610653,8.5281029,-36.7786255,52.0305328,47.1679382
8870,3.8402798,8.7124557,9.0548248,-43.3053436,61.7862587,48.3358765
8880,4.5537481,8.5448618,9.3804340,-48.0000000,64.2061081,43.9389305
8890,4.6375451,8.2551651,9.5743637,-50.3206100,60.2748108,37.3587799
8900,4.4747400,8.2360115,9.7228031,-50.8396950,55.4732819,31.6946564
8910,4.4986820,8.1593981,9.7156210,-50.7480927,55.1297722,28.2213745
8920,4.5465660,8.1450329,9.5695753,-53.0687027,61.3740463,25.1374054
8930,4.1706781,8.2407999,9.7132263,-56.0916023,66.3206100,22.2824421
8940,3.4404502,8.3198080,10.2591019,-56.4809151,59.4732819,18.0534344
8950,2.9592183,8.2599535,10.9510221,-49.9389305,34.9007645,12.1908398
8960,3.0358322,7.7715387,10.2495251,-29.6717548,-42.5801544,-8.2442751
8970,2.9520357,7.7260494,9.9023676,-27.6259537,-87.9465637,-21.3816795
8980,2.8035958,7.8625183,10.1274214,-29.7022896,-116.9847336,-31.9541988
8990,2.6695213,7.7787213,10.7259684,-34.2061081,-116.0000000,-33.9007645
9000,2.5091105,7.7188668,11.1545286,-40.6564903,-84.6183243,-26.2061062
9010,2.2960277,7.6422529,11.5112629,-48.9694672,-36.0763359,-10.3206110
9020,2.6024840,7.7954807,12.2510672,-54.6106873,36.4427490,26.8931293
9030,3.1268115,8.3796635,11.8967276,-50.2824440,51.9541969,39.9771004
9040,3.9647777,8.9111729,11.3460636,-46.6641235,53.6030540,45.4809151
9050,5.0325861,9.2942438,11.0420017,-37.2748108,40.9541969,45.9236641
9060,5.2552457,9.8401184,10.8025827,-23.8396950,21.3816795,40.8320618
9070,5.9040713,10.1298151,10.2758608,-10.3969469,-1.8320611,30.5496178
9080,6.0501165,10.7307568,9.7467451,-2.2213740,-25.3664131,16.9160309
9090,6.0261750,11.5519638,9.0428534,-4.8549619,-61.2137413,2.3511450
9100,6.6630292,11.0013008,9.4450769,-7.6183205,-65.1755753,-11.8091602
9110,6.1219425,10.7068148,10.5895004,-4.3053436,-69.1832047,-20.8167934
9120,6.1746144,10.4434547,10.7451220,-1.3435115,-65.1679382,-25.0534344
9130,5.8609757,10.2495251,11.6333666,2.5801528,-58.4198456,-27.1374054
9140,5.5593081,9.9167328,12.5599174,12.4274807,-49.6412201,-26.4274807
9150,4.3909435,10.2686787,12.9142580,24.3282452,-33.4656487,-19.3282452
9160,3.7684543,10.2734671,12.8496151,35.0152664,-10.0916033,-6.9618320
9170,2.2696917,10.5344334,11.3700056,52.6412201,17.3587780,16.7404575
9180,2.2912393,10.7259684,9.7778702,55.0305328,17.4732819,28.7633591
9190,3.0047078,10.9175043,8.1570034,52.0916023,15.4580154,36.3511467
9200,3.5745249,11.4490137,6.4236102,42.8549614,13.9236641,39.1297722
9210,5.3629842,11.7530756,4.0964580,8.8091602,5.1832061,29.9236641
9220,6.2177100,10.9127159,2.0422437,-27.6259537,2.1984732,-3.3129771
9230,6.3015065,10.0125008,1.2449785,-46.6335869,-9.5572519,-24.5572510
9240,6.2440462,8.0229292,0.9552816,-60.9465637,-28.5343513,-48.9389305
9250,5.8753409,5.5904322,0.5698171,-71.1679382,-48.9236641,-70.3435135
9260,5.8944945,2.9328821,0.3208214,-77.9007645,-64.5267181,-86.9618301
9270,5.6071916,-0.0239419,0.3543400,-82.0076370,-71.8854980,-98.7633591
9280,4.8961172,-3.0669568,0.3471575,-85.6030502,-61.1297722,-100.0839691
9290,4.2855992,-6.3039007,0.0957676,-88.0534363,-30.1068707,-89.2671738
9300,3.6463506,-9.8975792,-0.6847382,-90.9007645,9.1984730,-67.8091583
9310,3.2201848,-13.5798426,-2.1499822,-103.0000000,57.8854980,-35.8091621
9320,3.0741394,-16.2733059,-3.6822634,-131.8625946,99.7251892,-2.3435113
9330,3.1459649,-18.4280758,-4.1587071,-172.7633514,110.0381699,24.0152664
9340,3.9121056,-19.6131992,-2.7796540,-213.3129730,73.8854980,39.6335869
9350,4.9176650,-19.6131992,-0.4285599,-247.5801544,-6.2671757,39.1832047
9360,5.5976148,-19.6131992,4.8362627,-250.1374054,-130.6488495,25.8702297
9370,6.3853035,-19.6131992,11.6070309,-250.1374054,-250.1374054,11.8473282
9380,8.2695303,-19.0816898,18.8686066,-220.8167877,-250.1374054,-0.5343512
9390,11.1114330,-16.5869446,19.6126022,-163.3435059,-250.1374054,-20.0076332
9400,10.8504667,-14.1879663,19.6126022,-89.5267181,-234.2442780,-35.8625946
9410,9.5073261,-12.5216112,19.6126022,-4.9770994,-74.0534363,-41.4503822
9420,6.4140334,-12.5048513,19.6126022,95.1755753,97.8473282,-29.7786255
9430,4.6088147,-14.0706511,19.6126022,193.3282471,215.3893127,0.6259542
9440,4.5465660,-14.5662489,16.6922894,250.1297760,250.1297760,35.4732819
9450,4.2975702,-13.1536770,6.5696559,250.1297760,250.1297760,65.8396912
9460,4.9056940,-10.6541433,-2.2026544,250.1297760,223.2900696,87.3587799
9470,5.9830794,-7.6350703,-8.1737623,248.3664093,148.8473358,91.5877838
9480,7.4459291,-5.0996237,-9.9263096,184.8549652,86.4122162,82.0381699
9490,8.4514885,-2.9975252,-8.3317795,114.6488571,58.5114517,64.0305328
9500,8.8800488,-2.1020982,-3.1507533,67.4580154,60.2137413,41.4503822
9510,7.5919747,-1.7884595,1.5490406,48.5038185,70.5877838,23.9541988
9520,5.4395986,-1.4676381,4.8961172,47.1450386,79.0687027,18.3282452
9530,3.4811516,-0.7014975,6.7133074,56.7480927,85.1908417,23.4274807
9540,2.5426292,-0.0502780,7.2304521,70.3206100,83.7633591,35.4580154
9550,2.3894010,5.8035154,8.6861191,-7.0839696,-8.7786255,-51.0763359
9560,1.7046629,6.1985564,8.7723103,-14.3206110,-6.8778625,-45.1221390
9570,1.2641320,6.4499464,9.0452480,-21.3358784,-0.8931298,-35.2213745
9580,1.1707586,6.7587967,9.2894554,-27.5572510,8.0152674,-24.1221371
9590,1.5777708,7.4650826,9.3828287,-35.1908379,19.3053436,-13.9770994
9600,2.1308286,8.1139078,9.6892843,-43.6412201,33.1297722,-9.5648851
9610,2.2840567,8.6214762,10.4554253,-49.3664131,41.2977104,-10.3893127
9620,1.9967541,9.1912937,11.1928358,-49.4885483,40.5267181,-13.2366409
9630,1.6831152,9.7563219,11.7075863,-45.2366409,31.8854961,-17.1679382
9640,1.2856797,10.0268650,12.0068598,-39.0000000,14.8702288,-19.4274807
9650,0.9983770,10.4338779,12.3468351,-32.0000000,-5.3664122,-20.3206100
9660,1.0247130,10.6493549,12.6820211,-24.0229015,-25.9923668,-19.2748089
9670,1.4843974,10.7044210,12.9334116,-15.9389315,-42.7328262,-18.9923668
9680,1.9249283,10.8648319,13.1943779,-8.0458012,-53.7938919,-20.3664131
9690,1.9895715,10.6685085,13.3930960,0.5877863,-59.9083977,-21.6259537
9700,1.9273225,10.4147243,13.2733860,10.9160309,-61.3358765,-19.8320618
9710,2.1691356,10.0484133,12.3516235,17.4809170,-57.1755714,-16.0610695
9720,2.2960277,9.4714136,11.5830889,19.4351139,-48.8931313,-12.0839691
9730,2.3223639,9.1912937,10.8791971,18.8778629,-40.8778610,-8.8320608
9740,2.0925217,8.9015961,10.4482431,17.6412220,-38.4580154,-5.8854961
9750,1.7501525,8.7675219,10.2471304,16.9007626,-45.2519073,-3.7480917
9760,1.5394639,8.8752604,10.1561518,17.8244267,-61.7786255,-2.6183207
9770,1.2210367,9.2822723,10.2184010,19.5343513,-89.4122162,-3.8167939
9780,1.0247130,10.0077124,10.8791971,23.6183205,-127.5648880,-5.3511453
9790,1.4436963,11.0922794,11.7746239,33.2442741,-169.8549652,-4.2977099
9800,2.6048782,12.6461086,12.2917690,48.7099228,-203.2977142,-0.0992366
9810,4.1970143,14.8942528,11.2048063,64.6870193,-207.6946564,4.8473282
9820,6.1099715,16.6515884,7.7930865,66.6793900,-182.1526642,8.5496187
9830,7.4339581,17.3794212,4.3789725,46.4961815,-133.7099304,8.0534353
9840,7.3980455,16.5175133,0.0000000,-32.5648842,-58.5419846,-9.2519083
9850,6.8569584,14.8200331,-0.0454896,-67.6793900,-58.9236641,-25.8320618
9860,5.8657641,12.6461086,1.0773853,-89.3206100,-81.3358765,-43.8625946
9870,4.7381010,10.3500814,2.5138988,-93.8473282,-120.0534363,-59.6793900
9880,4.2065907,7.5967631,2.4875629,-88.0992355,-159.9465637,-70.0534363
9890,3.7062054,4.8841467,1.3934183,-86.3816757,-185.0610657,-72.3511429
9900,2.9041519,2.0254843,0.8786675,-91.9312973,-182.8625946,-61.5954208
9910,2.7628946,-1.0366840,0.8858501,-101.1908417,-143.2748108,-36.1526718
9920,3.2441268,-4.8338685,0.2585725,-115.3893127,-70.0305328,-3.7175572
9930,3.9791429,-8.9901810,-0.5410868,-133.4122162,8.1145039,27.0992374
9940,5.1499014,-12.7753954,-0.7709290,-150.0152740,66.6641235,51.8625946
9950,7.0748301,-16.2924595,-0.3998296,-162.9313049,95.1832047,66.5267181
9960,8.8513184,-18.9595871,-0.2944853,-177.5801544,102.9007645,67.0992355
9970,9.5911226,-19.6131992,0.2418131,-198.2671814,71.3816757,53.8854980
9980,10.1202393,-19.6131992,3.2249732,-213.5038147,-2.9618320,29.1450386
9990,10.4051476,-18.8231182,7.4148049,-209.3129730,-99.3282471,1.7480916
