timestamp,acclX,acclY,acclZ,gyroX,gyroY,gyroZ
0,1.5011568,1.4053892,9.8496952,5.2290077,-5.5114503,1.9847329
10,1.4867916,1.4484847,9.7419567,4.6717558,-5.2671757,1.6717557
20,1.5059452,1.4580613,9.5647869,3.1984732,-4.9770994,1.0076336
30,1.5298871,1.4700323,9.5983057,1.9618320,-3.9923663,0.8091603
40,1.5825592,1.5298871,9.5528164,0.2748092,-3.0229008,0.4274809
50,1.5753766,1.6232605,9.5552101,-1.4274809,-1.2442749,0.2824427
60,1.5394639,1.4772149,9.8113880,-3.5725191,0.3587786,-0.5419847
70,1.5059452,1.5035510,9.9239149,-3.2748091,0.5343512,-0.8854962
80,1.5370697,1.4556671,9.9981356,-2.7633588,1.0763359,-1.3969465
90,1.3359578,1.4628497,9.9430685,-2.4809160,1.1603054,-1.1297710
100,1.3263810,1.3910241,9.9933472,-1.6030535,1.0305344,-0.5190840
110,1.2473727,1.3335636,9.9430685,-0.9312977,0.5725191,-0.0076336
120,1.2114599,1.3287752,9.9454632,-0.7633588,0.0839695,0.3358779
130,1.1468167,1.3622938,9.8927908,-0.4580153,-0.6030535,1.2748091
140,1.2186425,1.3479286,9.9287033,0.1603053,-1.3587786,1.6183206
150,1.2545552,1.3718705,10.1322098,1.4198474,-2.8473282,1.8778626
160,1.2976507,1.3982066,10.1489687,2.8473282,-4.1145039,1.7328244
170,1.3479286,1.3742647,10.3333216,4.6259542,-5.0687022,1.8625954
180,1.4149660,1.2784972,10.5823174,6.4503818,-7.0381680,1.4580153
190,1.1923064,0.9409165,11.3532467,17.3969460,-13.3893127,1.3435115
200,1.1587877,0.7206510,11.2191715,24.8778629,-19.2137413,1.3358779
210,1.0295014,0.6703730,11.0803089,31.0458012,-24.7480907,1.6030535
220,0.9097920,0.5410868,10.8337069,36.1450386,-28.2671757,3.0458016
230,1.1923064,0.4094064,10.0699606,37.5877876,-18.5954189,1.5954199
240,0.3519458,-0.2561783,10.0077124,18.5343513,19.6412220,17.1526718
250,0.3806761,-0.3280039,10.5511932,11.9541988,40.8625946,21.4274807
260,0.1484398,-0.2873027,10.9749641,7.9236641,63.1526718,26.7786255
270,-0.2705434,-0.3950413,11.1473465,4.1068702,85.8091583,32.9771004
280,-0.5530578,-0.4548960,11.3700056,2.7862597,99.1068726,39.7251892
290,-0.7900825,-0.4285599,11.3269100,3.1755726,107.1908417,45.4503822
300,-1.1061156,-0.1675933,11.4968977,4.3282442,97.4427490,49.5572510
310,-0.9528874,0.3327923,12.0308018,8.7480917,80.1221390,51.2442741
320,-0.8643024,0.8355721,12.0403786,16.1374054,60.5877876,50.3511467
330,-0.5458752,1.5658000,11.6860390,21.4503822,39.9389305,47.9694672
340,0.0550664,2.2337787,11.3556404,24.5343513,23.4885502,43.4503822
350,0.3112446,2.7245877,11.1377697,23.8778629,15.6488552,39.0534363
360,0.4501076,3.1028695,10.9414454,21.4885502,14.0992365,35.6412201
370,0.4022238,3.6439564,10.5224628,17.5419846,17.3206100,33.6412201
380,0.1460456,4.0581512,10.4578199,12.4198475,20.1679382,33.3206100
390,1.2042773,5.9974446,10.7858238,7.9923663,7.6259542,25.8778629
400,1.2952565,6.3493905,11.0156660,8.4885492,2.9770992,21.2366409
410,0.9624642,7.4100165,10.9653873,9.3893127,0.2290076,15.9312973
420,0.6991033,7.9654684,11.0372133,8.7709923,2.3816793,15.8320608
430,0.5219333,8.6118994,10.9414454,5.7709923,3.4580152,16.8320618
440,0.5075682,9.0356712,11.2766323,2.3358779,5.2748094,17.7938938
450,0.3519458,9.3995876,11.9158812,1.4198474,5.0916033,17.0381680
460,0.0909792,9.8449068,12.7299051,4.7404580,2.2213740,15.8549614
470,0.0957676,10.2614956,12.7299051,10.4045801,1.1679389,13.4274807
480,-0.5291159,10.9151096,12.6772327,15.4503813,-1.5801526,12.6412210
490,-0.4788379,11.5423870,11.8081427,14.5343513,-4.6641221,12.2671757
500,-0.9050036,12.1912127,10.9031391,-9.5725193,2.0839694,5.0076337
510,-1.6543850,12.4617558,12.1505117,-16.3969460,-17.7251911,1.7709924
520,-1.7645177,12.5048513,13.1895895,-11.4045801,-45.4122124,-0.5419847
530,-1.9009864,12.7538471,13.9054527,2.7862597,-78.6564865,-2.0000000
540,-1.8100072,13.1895895,13.8432035,23.4885502,-111.4198456,-3.7633588
550,-1.0271072,13.0555153,13.3547888,49.8473282,-146.4580078,-11.6030531
560,-0.6344602,14.1783895,10.6852674,72.8396912,-177.6717529,-22.6870232
570,-0.2561783,14.3890781,4.4148855,51.1832047,-155.4503784,-14.2748089
580,1.8650736,12.3468351,1.8842272,12.2824430,-92.0839691,-16.7709923
590,1.0055596,11.0850973,0.7589580,-29.8320618,-38.8244286,-23.9312973
600,-0.0861908,8.4155760,0.2609667,-67.3740463,1.2671756,-26.0076332
610,-0.0790083,5.0445571,0.5554519,-91.5038147,25.7480907,-29.0076332
620,0.0622489,1.0558375,0.3256098,-103.5267181,33.5725174,-35.1450386
630,0.2370248,-3.6176202,0.0622489,-106.8702316,28.8702297,-40.8396950
640,0.3327923,-9.5480280,1.4820032,-97.9694672,3.0763359,-43.6717567
650,1.0223188,-12.7873659,1.5418580,-82.8320618,-27.7251911,-44.4961815
660,1.5825592,-18.4089222,1.4053892,-68.1450348,-50.2290077,-37.3511467
670,1.3694763,-19.6131992,0.6871324,-55.6488533,-67.9923630,-15.3969469
680,0.5937590,-19.6131992,-1.0271072,-64.7404556,-89.0000000,24.3129768
690,1.6208663,-19.6131992,-1.2066715,-96.9083939,-119.7022934,74.2442780
700,4.4914994,-19.6131992,1.3215926,-136.9007568,-169.6946564,119.4809189
710,9.3588867,-19.6131992,6.5433197,-171.8473358,-215.3206177,143.6106873
720,13.1776190,-17.5398312,11.8560257,-184.8396912,-225.3053436,135.6106873
730,16.1559906,-13.1943779,18.3370972,-173.9770966,-207.0686951,98.4198456
740,17.4009686,-10.0939026,19.6126022,-137.7175598,-151.7938995,39.4656487
750,15.6987000,-9.4498653,19.6126022,-74.1984711,-76.4885483,-20.4045811
760,11.8584204,-10.6302013,19.6126022,15.4961834,1.6793894,-61.9465637
770,7.0508881,-12.2390966,19.6126022,124.4503784,61.0305328,-73.0381699
780,3.1315999,-13.1919842,18.4161053,224.1221313,88.5419846,-57.4809151
790,1.2952565,-13.2231083,8.7986460,250.1297760,85.6335907,-31.1450386
800,0.4836263,-11.7626524,0.4118006,250.1297760,70.6641235,-6.1450381
810,0.3639168,-9.6749191,-5.3558016,250.1297760,59.0534363,17.3435116
820,1.0247130,-6.9742737,-7.7547798,202.7251892,50.1603050,37.0687027
830,2.1811066,-4.5896611,-6.4236102,136.3587799,49.1297722,48.1374054
840,3.2776453,-3.1483591,-2.7988074,91.8778610,55.1221390,52.7938919
850,3.7277529,-1.8985922,0.7709290,69.2748108,64.4885483,51.1984749
860,3.8091555,-0.9816177,3.3614421,64.1526718,70.4045792,49.6259537
870,3.4596038,-0.0718257,4.9727316,66.6259537,76.3664093,47.9160309
880,2.8921809,6.8545642,9.9047613,17.8702297,38.8015251,8.5572519
890,0.9648584,7.4124107,9.9574337,29.7938938,1.7251909,9.6030531
900,1.2210367,8.0660238,9.4833841,31.0687027,3.0534351,15.8625956
910,1.8866212,7.9989872,7.8313937,5.9389315,42.9312973,24.6793900
920,1.2258250,7.3501616,7.4387465,-12.1908398,37.5496178,20.7862587
930,1.1899122,7.1251078,8.2312231,-15.1450386,18.1526718,17.8320618
940,1.0821736,7.0604649,8.6430235,-12.5114508,-12.2900763,18.3129768
950,1.6304430,7.1993275,8.8872309,-14.0763359,-13.2824430,20.4427490
960,2.0733681,7.1035600,8.9399033,-19.7251911,-8.8702288,20.0458012
970,2.4492557,6.9407554,9.3157911,-27.4198475,-1.6259542,17.1374054
980,2.4995339,6.6486640,10.0148945,-33.7175560,4.7938933,12.9083967
990,2.4995339,6.4786768,10.8887739,-37.4809151,11.8778629,7.8931298
1000,2.0398495,6.2272868,11.7698355,-35.9541969,18.0076332,3.2900763
1010,1.4796091,6.0788469,12.2750092,-29.0381680,22.1908398,1.9007634
1020,0.9864060,6.0549049,12.3085279,-18.7633591,21.4580154,3.2671757
1030,3.1100521,6.0165982,8.1593981,-3.7862597,-17.9541988,22.1679382
1040,3.3518653,5.9998388,8.5664101,-6.8244276,-20.2366409,15.2366409
1050,3.7732425,5.9591374,8.9518747,-2.7022901,-38.9312973,-1.0381680
1060,3.8474624,5.8753409,8.7363977,-0.5954198,-47.4274826,-9.7328243
1070,3.5434003,5.8274570,8.6478119,-0.5038168,-55.5572510,-17.2213745
1080,3.1004753,6.0165982,8.7627335,-1.3587786,-62.6870232,-23.0916023
1090,2.4492557,6.6941538,8.8872309,-4.2061067,-68.9160309,-24.7633591
1100,2.0302727,7.5704269,8.7220325,-12.3740454,-67.7938919,-19.5419846
1110,1.9512644,8.4610653,8.8273764,-27.3664131,-48.8244286,-8.1984730
1120,2.1212518,9.6725254,9.9167328,-42.2900772,-21.1755733,3.2442749
1130,1.6926919,11.2670555,11.2550850,-51.2519073,0.3206107,13.0381680
1140,1.6783268,12.6389265,12.2151546,-55.2824440,12.5725193,21.4198475
1150,2.2984219,13.0962162,13.1345234,-55.1526718,19.2519093,25.0458012
1160,2.7628946,13.0100250,13.8336267,-49.9389305,16.5572510,24.0687027
1170,3.2872221,12.8065195,13.9605188,-38.7022896,5.1984735,20.2671757
1180,3.7014170,12.8735571,13.0076313,-26.4961834,-14.9465647,14.1603050
1190,4.1347651,12.9884777,11.4514084,-19.6717548,-39.4885483,4.6488547
1200,4.7955613,12.8160963,9.6797075,-20.8778629,-59.4809151,-7.6106873
1210,5.2576399,12.9453821,8.2886839,-29.6946564,-75.1832047,-21.7251911
1220,5.7795734,12.9238348,7.2663651,-44.6793900,-78.4961853,-36.8015251
1230,5.8968887,12.2821922,6.6079631,-64.7099228,-75.3893127,-54.8854980
1240,5.5856438,11.1018562,6.4451580,-83.4732819,-70.9160309,-73.8015289
1250,4.9847026,9.1027079,6.0716643,-95.9923630,-66.5114517,-91.9236679
1260,3.9336534,7.0077925,5.4994531,-102.3664093,-63.0916023,-105.6946564
1270,3.0861101,4.5298066,4.5513539,-104.5648880,-62.8702278,-113.6030502
1280,2.8395088,1.5610116,3.6391680,-104.5419846,-60.7404594,-116.7251892
1290,3.0166788,-1.7357874,2.1044924,-104.6488571,-42.2900772,-115.2442780
1300,3.1148405,-5.5736732,1.1396341,-108.1374054,-16.2671757,-106.6183243
1310,4.5872669,-10.4434547,1.2066715,-109.8854980,4.2519083,-97.0076370
1320,5.8083038,-15.6891232,1.5490406,-104.0839691,18.4427490,-88.4885483
1330,6.3015065,-19.6131992,1.1228749,-95.3969498,16.7633591,-77.2366409
1340,6.6941538,-19.6131992,0.2777260,-96.9923630,0.9236641,-60.9541969
1350,7.5512733,-19.6131992,0.0837966,-118.6259537,-38.0458031,-43.6564903
1360,8.5616217,-19.6131992,1.0127422,-164.7480927,-80.3893127,-37.2442741
1370,9.4474716,-19.6131992,5.4874821,-218.5877838,-97.7557220,-49.9389305
1380,9.2463598,-18.3586445,13.1393118,-247.7022858,-77.8854980,-82.0839691
1390,5.6862001,-17.9683914,19.6126022,-231.1374054,-46.1068687,-115.7557220
1400,-1.1923064,-17.9133263,19.6126022,-162.5877838,-8.3435116,-119.7251892
1410,-6.5672617,-17.7720680,19.6126022,-41.5419846,35.8702278,-77.2519073
1420,-7.3836803,-17.4608231,19.6126022,110.4580154,97.8702316,-7.8244276
1430,-4.0485744,-16.9293137,19.3450508,235.4961853,127.7099228,59.1755714
1440,0.4908088,-14.9134064,5.7173243,250.1297760,133.8015289,98.4122162
1450,3.5026991,-12.0355902,-3.9312592,250.1297760,142.7175598,120.6488571
1460,5.3103123,-8.9446917,-9.3229742,204.6259613,139.4198456,131.0458069
1470,7.0389171,-5.7005649,-10.0029240,119.7251892,136.2442780,130.3587799
1480,7.9822278,-3.7516949,-5.9758968,46.3587799,143.3664093,120.2824402
1490,7.3669209,-2.3989778,-0.5817881,5.4656487,143.5954132,108.4045792
1500,6.1794028,-1.3287752,3.7876077,-7.2671757,131.0000000,96.4961853
1510,4.9200592,-0.0933734,7.1921453,0.2595420,107.8931274,89.8778610
1520,4.6327567,2.1332228,10.0771437,42.4732819,57.2671738,80.3816757
1530,2.4372849,5.9495606,10.8791971,25.6564884,53.6488533,-5.2290077
1540,1.3263810,5.2935529,11.4107065,29.7175579,36.2748108,-18.3664131
1550,0.8475431,4.1491303,11.6166077,39.3282433,15.9007635,-30.1908398
1560,-0.4764437,4.8578105,11.3077564,48.4274826,-5.5114503,-35.9083977
1570,-1.0582317,5.6718349,10.8408899,51.1450386,-22.8702297,-37.3816795
1580,-1.0151364,6.3469963,10.7523050,51.9007645,-34.4274826,-38.4809151
1590,-1.0318956,6.7348547,11.2095947,56.3587799,-46.2061081,-42.5419846
1600,-1.3096216,6.8354111,10.9893293,63.2977104,-62.3435097,-49.3969460
1610,-1.3694763,6.8473821,10.2255831,66.8396912,-78.4198456,-55.0534363
1620,-1.4101776,6.2368636,9.3397331,63.2595406,-84.5572510,-59.2061081
1630,-1.8985922,5.7053533,8.8896255,54.3816795,-86.1297684,-58.4045792
1640,-2.0039365,4.9176650,8.9662399,45.9465637,-85.4198456,-52.9389305
1650,-2.0733681,4.2879934,9.2080526,38.7557259,-80.2213745,-44.3740463
1660,-1.7956421,4.0725164,9.0524302,30.8778629,-63.5954208,-32.0992355
1670,-1.8698620,3.9336534,8.4490948,17.5267181,-33.4732819,-15.7938929
1680,-2.0925217,3.9839313,8.3293848,2.3740458,-1.4045801,3.4656489
1690,-1.9656296,4.2089849,8.3078375,-7.9770994,24.0610695,21.6717548
1700,-1.6663558,4.1634955,8.2024927,-14.6488552,38.5267181,35.2824440
1710,-1.3168042,4.5657191,7.6685886,-21.3511448,46.2442741,46.4961815
1720,-0.3878587,4.4316444,7.3046722,-31.0152664,51.8702278,53.6259537
1730,0.4788379,4.0485744,7.4315639,-42.7404594,51.4961815,54.3358765
1740,1.1659702,4.3167233,8.2599535,-51.5190849,40.5725174,48.6717567
1750,1.6017127,4.4077029,9.7156210,-52.1145020,25.6641216,38.6030540
1760,1.8914096,4.3550305,10.8839855,-44.7862587,11.0076332,28.6030540
1770,2.0422437,4.6734576,11.6477318,-31.6870232,0.7938932,19.2290077
1780,2.2457497,5.0230093,11.7219515,-17.8931293,-4.9923663,10.1145039
1790,1.8985922,4.7572546,10.3213511,-2.0610688,-5.8091602,-4.1908398
1800,1.7070571,4.4579806,9.2511482,-10.5114508,-2.5496182,-12.3816795
1810,1.3479286,4.0389977,9.6533718,-14.8931293,-2.7099237,-14.0152674
1820,1.2401901,3.8737986,10.1226330,-15.4351149,-3.2748091,-14.3053436
1830,1.0366840,3.6846576,10.6302013,-13.1832066,-1.1526718,-12.9541988
1840,0.7996593,3.5888901,10.1585455,3.0152671,8.9312973,-2.2137403
1850,0.7278336,3.6966286,9.4714136,1.8167939,13.8854961,2.6412213
1860,0.8236012,3.6248028,9.1625633,-2.2290077,15.1297712,6.4732823
1870,1.1611819,3.5601597,9.0308828,-7.4580154,12.9694653,7.8931298
1880,1.3862357,3.6511390,9.4450769,-11.9770994,9.7480917,5.9236641
1890,1.4053892,3.8283088,10.4817610,-13.0992365,3.3435113,-0.7404580
1900,1.0031654,3.8737986,10.6373835,-10.9465647,-0.7709923,-3.7557251
1910,0.7134684,4.0413918,10.6325951,-8.3893127,-5.0381680,-4.9847326
1920,0.3830703,4.2927818,10.4889441,-7.2519083,-10.4809160,-4.1145039
1930,0.4908088,4.6997938,10.4314833,-7.2595420,-11.8854961,-2.5496182
1940,0.8547257,5.1858144,10.6254129,-10.0839691,-9.8015270,-2.0229008
1950,0.6679789,5.8849177,10.7499104,-14.4198475,-7.9007635,-1.6259542
1960,0.2561783,7.0676475,11.3316984,-19.1984730,-8.4274807,-0.0763359
1970,0.1053443,8.4155760,12.3612003,-22.1145039,-10.2213745,-0.8320611
1980,-0.1915352,9.4474716,13.4170380,-21.1145039,-21.3816795,-4.6870227
1990,-0.3232156,10.0196829,14.3076763,-15.4427481,-37.7251892,-9.5496187
2000,-0.3016679,10.2854376,14.7960911,-5.0916033,-58.2595406,-11.7557249
2010,0.4429250,10.5679522,14.6428623,7.5801525,-76.6412201,-12.0763359
2020,1.7812769,11.4274664,13.7402534,17.7557259,-85.5725174,-14.2213745
2030,2.7964132,12.4114780,13.0100250,21.4503822,-86.8091583,-19.9007626
2040,3.1938488,13.2326851,12.2750092,20.0305347,-80.6030502,-28.8015270
2050,3.1723011,13.2039547,11.7554703,16.0305347,-77.2213745,-38.6412201
2060,2.4037662,13.1848011,11.2000179,12.2977095,-74.2442780,-46.6335869
2070,1.6376256,13.2446556,10.2423429,7.5419846,-69.5496216,-50.2290077
2080,1.1659702,13.4625273,9.1194677,-1.1984733,-62.6106873,-50.2366409
2090,0.8355721,13.3188763,8.3126259,-12.6106873,-54.5725174,-52.4122124
2100,0.1244979,12.5096397,7.6709828,-20.5954189,-57.9618340,-58.3587799
2110,-0.9888002,11.2287483,6.6845770,-24.2977104,-69.7251892,-60.9923668
2120,-2.4013720,9.4091644,4.9631548,-24.7328243,-83.1145020,-56.2213745
2130,-2.8299320,6.5385313,2.8754215,-26.3282452,-88.3358765,-44.0152664
2140,-3.1292057,3.0932927,0.3950413,-35.4885483,-81.0839691,-23.0229015
2150,-2.0159075,-1.0869620,-1.7501525,-57.6106873,-48.2290077,4.3664122
2160,-0.0167593,-5.8298512,-2.7796540,-87.1832047,10.6488552,29.0229015
2170,2.0374553,-11.1162214,-2.6719155,-118.0457993,79.3435135,47.9083977
2180,4.3167233,-16.3954086,-1.5538290,-140.2977142,127.1526718,56.8091621
2190,6.7396431,-19.6131992,-0.4620786,-153.9923706,137.3129730,53.0152664
2200,10.1609402,-19.6131992,0.5291159,-167.5648804,107.7633591,33.8625946
2210,12.2079716,-19.6131992,1.9632354,-190.5267181,20.7480907,-5.1603055
2220,12.3803539,-19.6131992,7.1514440,-216.4809113,-109.8549652,-54.1374054
2230,11.6166077,-19.6131992,15.9716377,-216.5496216,-206.2213745,-95.7709961
2240,10.1824875,-19.6131992,19.6126022,-179.5496216,-250.1374054,-124.4122162
2250,7.8361821,-19.6131992,19.6126022,-103.1679382,-214.7099304,-138.6030579
2260,3.5529771,-18.9811344,19.6126022,-2.1221373,-107.5190811,-129.0458069
2270,-1.5418580,-18.4113178,19.6126022,116.6106873,9.9389315,-88.9007645
2280,-3.8690102,-17.8917770,19.6126022,226.8015289,89.7633591,-28.0229015
2290,-2.9975252,-16.9269199,7.0460997,250.1297760,106.8091583,28.8320618
2300,-0.6536137,-13.7857428,-5.7604198,250.1297760,96.5343475,69.3816757
2310,2.1116750,-9.4642305,-13.1895895,199.1374054,81.1526718,91.6870193
2320,4.8027439,-5.8154860,-12.8424320,96.7099228,79.0839691,94.1679382
2330,5.6933827,-4.2233500,-6.2871413,21.2824421,92.8931274,86.3053436
2340,5.2360926,-3.3805954,0.2585725,-6.9770994,104.8931274,78.5572510
2350,4.2640514,-2.3774302,4.8769641,-1.1679389,104.6183243,75.3053436
2360,3.7900019,-1.3790531,6.9359670,21.2061062,95.8549652,73.4427490
2370,4.9655490,7.3429790,9.2343884,-21.2290077,64.6030502,53.2748108
2380,4.3717899,7.3741035,11.4490137,-21.6183205,64.3664093,42.5496178
2390,3.9791429,7.3549500,12.4521790,-15.0229006,62.9007645,33.0228996
2400,3.4596038,6.6654234,12.9070749,-2.5190840,49.5954208,20.7251911
2410,1.6472024,5.9208307,11.0372133,23.3740463,-25.8549614,-3.6335878
2420,2.0183017,6.1434903,10.4961262,21.1984730,-33.4580154,-6.4274807
2430,2.3295465,6.6079631,10.0867205,12.1984730,-23.0610695,-8.3816795
2440,1.7669119,7.2807302,10.1776991,-1.6946565,-1.5038168,-9.5572519
2450,1.2377959,7.4148049,10.5104914,-15.5114508,19.6564884,-9.2900763
2460,0.8259954,6.9144192,11.1234045,-26.1679382,28.9923668,-10.9618320
2470,0.4046180,6.0980005,11.9853125,-30.8854961,26.7480907,-13.4732828
2480,-0.1963235,5.1929970,12.8759508,-26.7022896,16.9465656,-13.7633591
2490,-0.5410868,4.6423335,13.3045111,-16.3969460,1.9465649,-9.9618320
2500,-0.4884146,4.9224534,13.3643656,-3.8549619,-15.5801525,-3.7557251
2510,-0.0047884,5.9208307,12.9884777,5.3282442,-25.4809170,2.4732823
2520,3.5960727,8.3485384,11.6836443,-15.2595415,6.3740458,-7.6641221
2530,3.1387823,8.4275465,12.4282379,-22.8854961,17.5190830,-16.2213745
2540,2.0422437,8.1929159,13.3715477,-21.4732819,15.0687027,-21.0229015
2550,1.1228749,8.2958660,14.0131912,-12.6488552,-0.5572519,-20.9770985
2560,1.0582317,8.5903521,14.0969877,-2.2213740,-20.6946564,-17.3435116
2570,1.8219782,8.7579451,13.9461536,6.2213740,-33.4656487,-13.9923668
2580,2.6982515,9.3325500,12.6963863,7.9694657,-37.9618340,-11.9847326
2590,3.4260850,10.2998028,11.3867655,-1.1755725,-37.2519073,-14.1526718
2600,3.6439564,11.2909975,11.1353750,-15.3969469,-42.1832047,-19.6488552
2610,4.2568688,12.3971128,10.8600435,-30.4580154,-64.1068726,-29.7709923
2620,4.5130472,13.1776190,11.3915539,-45.0839691,-82.6183243,-42.6412201
2630,4.0749106,13.7426472,13.2135315,-54.3206100,-94.8778610,-55.1145020
2640,3.7109938,13.7881374,16.1009235,-48.2442741,-112.5801544,-69.9923630
2650,2.8227494,12.9741125,18.7704449,-13.8549614,-148.0686951,-88.5877838
2660,1.8171898,14.2310619,15.2198620,17.0152664,-192.7938995,-93.9465637
2670,3.1603301,13.5391417,10.3333216,6.8931298,-185.6183167,-89.2671738
2680,3.6248028,13.1081877,8.6765423,-1.2290076,-175.7022858,-95.5114517
2690,2.3032103,11.8536320,6.9287844,-11.7938929,-167.9236603,-92.4351120
2700,1.7142396,9.0931320,5.1427188,-30.0229015,-119.8015289,-75.3206100
2710,0.6823440,5.5880380,3.4284792,-51.4274826,-43.8854980,-48.1984749
2720,-0.0574605,1.6208663,2.1116750,-69.3969498,26.0916023,-18.3358784
2730,0.4979914,-2.6695213,1.1899122,-78.7786255,70.2519073,3.6870229
2740,2.1978660,-7.2160869,1.0366840,-77.9083939,84.3587799,14.0229006
2750,4.8937230,-12.2989511,1.4101776,-65.7328262,80.8854980,12.2977095
2760,7.7715387,-18.2365417,1.4293311,-47.4045792,73.6946564,1.8625954
2770,9.0476418,-19.6131992,-0.3663110,-43.6793900,62.0534363,-12.2137403
2780,7.9894104,-19.6131992,-3.0765336,-77.2213745,39.4351158,-23.5648861
2790,5.8035154,-19.6131992,-2.6048782,-142.9770966,-18.9083977,-32.5267181
2800,4.6231799,-19.6131992,4.1491303,-207.1145020,-97.8015289,-39.2519073
2810,5.0206151,-19.6131992,14.4489336,-222.3358765,-153.4885559,-51.3587799
2820,4.3239059,-18.9236736,19.6126022,-181.7557220,-179.0686951,-65.3435135
2830,3.6367738,-17.9731808,19.6126022,-88.6870193,-162.8320618,-71.8244247
2840,1.8531027,-16.4887829,19.6126022,32.6412201,-98.3206100,-63.2900772
2850,1.0079538,-15.1193066,19.6126022,144.0839691,-15.0916033,-41.4274826
2860,1.2210367,-14.0514975,15.9453020,216.6717529,52.6412201,-17.7633591
2870,1.1516051,-12.7538471,5.2911587,245.9923706,87.5954208,3.3511450
2880,0.8116302,-10.7235746,-3.5242469,232.3664093,89.6183243,26.4732819
2890,2.0015423,-7.9439206,-8.2910776,180.0381622,78.7862625,46.0305328
2900,3.7612717,-5.0134325,-7.8697009,113.2519073,77.5954208,53.3969460
2910,4.4388270,-3.1914546,-3.6726866,63.1603050,90.7633591,52.1145020
2920,3.6295912,-2.0661855,-0.0287303,39.8625946,100.4580154,49.2748108
2930,2.5641768,-1.5059452,2.8107784,33.6335869,100.1603088,49.7251892
2940,1.5538290,-0.9816177,4.7716198,39.4274826,74.2671738,53.3435097
2950,1.9512644,-0.3136388,5.8801293,49.9236641,45.0839691,58.6412201
2960,6.0908179,5.8346395,8.4059992,9.3435116,72.4122162,22.9694653
2970,5.6526814,4.9775200,9.4690189,9.0534353,60.3664131,9.6259546
2980,3.3183465,5.9854736,11.1353750,16.0992374,53.2824440,-0.0610687
2990,2.9065459,6.0022330,10.8839855,17.7786255,58.4045792,-3.8091602
3000,2.7102225,5.3342543,10.2423429,16.7557259,60.5496178,-8.8854961
3010,2.3750360,4.3167233,9.8425131,11.8396950,58.2671738,-14.8015270
3020,1.8866212,3.8043671,10.0939026,6.1832061,50.0610695,-21.9083977
3030,1.1396341,3.3494711,10.5655584,4.0381680,40.6106873,-27.7251911
3040,0.2992737,3.0071020,10.9342632,6.4351144,35.1450386,-28.8702297
3050,-0.5578461,3.1315999,10.8624372,10.1221371,30.3129768,-24.8854961
3060,-0.9696468,3.6750808,10.6038647,12.7099237,26.0687027,-18.0305347
3070,-0.9026094,3.7109938,10.2447367,12.7938929,22.7786255,-12.1603050
3080,-0.0957676,3.4428444,9.6198530,-1.2900764,32.6793900,-0.7862595
3090,-0.3902529,3.3590479,9.6533718,2.3129771,23.1145039,0.2366412
3100,-0.4836263,3.8235207,9.2894554,8.3664122,8.1984730,-0.3816794
3110,0.8283895,4.6088147,7.0269461,3.5648854,-4.8854961,-7.4656487
3120,0.9169745,4.2664456,6.2177100,-25.4045811,10.6106873,-21.2977104
3130,0.3208214,3.9073172,6.9168134,-40.4961815,14.5648851,-29.1145039
3140,-0.6224893,3.5553713,7.8074517,-51.1297722,13.2519083,-33.9312973
3150,-1.6256547,3.1794837,8.5185261,-57.7328262,8.7633591,-33.2137413
3160,-2.5522060,2.7245877,9.7299862,-60.2519073,2.7480917,-24.7862587
3170,-3.0430148,2.7820482,10.9558105,-57.9847336,-3.8473282,-8.8320608
3180,-2.5522060,2.9783716,12.0667152,-50.9083977,-6.3053436,9.3740454
3190,-1.3239868,3.2991931,12.7155399,-41.4580154,-5.3511453,25.0076332
3200,0.1843526,3.7349355,12.8855276,-33.3206100,2.6183207,35.3816795
3210,1.4053892,4.3215117,13.0291786,-27.5114498,13.5343513,38.5801544
3220,2.1260402,4.8673873,12.8615856,-23.6106873,22.1450386,36.4809151
3230,2.2984219,5.2384863,12.7969427,-20.7786255,20.1755733,29.8167934
3240,2.4372849,5.3677726,12.7370882,-18.2366409,10.0839691,19.8854961
3250,2.2792683,5.3629842,13.0579090,-14.9312973,-4.1908398,10.6106873
3260,2.1140692,5.3390427,13.7306767,-10.3053436,-19.6030540,3.2671757
3270,2.0901275,5.2480631,14.2741575,-2.1832061,-34.7022896,-2.7480917
3280,2.0877333,5.0852585,14.8224268,8.5496187,-46.0763359,-7.3282442
3290,1.9728121,5.0996237,14.9972029,18.4045811,-51.0687027,-9.1832066
3300,1.8195840,5.2815819,14.6811695,26.7099228,-51.6870232,-8.9236641
3310,1.7932479,5.4012914,14.1807842,31.3664131,-50.4427490,-7.3435116
3320,1.9297167,5.3941088,13.4409800,32.2748108,-47.2290077,-4.9007635
3330,2.1068866,5.3270717,13.0435438,29.6717548,-40.8320618,-1.4732825
3340,2.2313845,5.2432747,13.1201582,28.0458012,-31.9847336,1.0992366
3350,2.1882892,5.3869262,13.2709923,31.5419846,-26.2671757,1.8549619
3360,1.4748207,5.6742291,12.5287933,39.3435097,-33.1221390,0.0381679
3370,0.4812321,6.3996682,11.5304165,46.8091621,-52.5343513,-1.3664122
3380,0.0933734,7.1897511,10.9558105,53.1755714,-80.9542007,-1.3511450
3390,0.3782819,8.2168579,10.1681223,56.4656487,-111.4961853,-2.1145039
3400,0.9888002,9.3349447,9.5743637,56.3282433,-134.9160309,-3.9160306
3410,1.6376256,10.4195127,9.2918491,51.4656487,-148.6641235,-7.2290077
3420,2.2529323,11.0276365,9.1529865,40.5496178,-145.5877838,-9.0152674
3430,2.1811066,11.1904411,9.4378948,25.5038166,-124.4961853,-6.1984735
3440,2.0039365,11.0922794,9.6677370,10.0152674,-94.2748108,3.0916030
3450,1.5490406,11.0108776,9.7323799,-2.9389312,-65.0381699,17.4961834
3460,1.2928623,11.0731258,10.4266949,-5.8702292,-51.5343513,32.2748108
3470,1.9345051,11.7291346,10.2160063,-2.6335878,-54.5954208,42.1068687
3480,3.1507533,12.1074162,9.1386213,-3.7022901,-56.5877876,45.8702278
3490,4.4843168,11.5854826,8.1617918,-4.7633586,-55.7557259,42.1374054
3500,5.0254035,10.2998028,6.7228842,-3.4656489,-59.6183205,29.5343513
3510,4.8242917,7.8768835,4.9368186,-1.8320611,-75.3435135,17.8015270
3520,5.2767935,5.2552457,3.4212968,-2.1755726,-88.6793900,10.9694653
3530,7.1801744,-1.1779412,0.7278336,-13.8320608,-44.7557259,6.2137403
3540,8.2551651,-5.1355362,-0.1795642,-23.3206100,-8.4961834,-0.5801527
3550,9.0021524,-9.2487535,-0.4261657,-28.6488552,5.1603055,-15.5343513
3560,9.6126709,-13.9126348,-0.1460456,-28.5572510,-6.4885497,-35.0534363
3570,9.3660688,-17.7481270,-0.4668669,-30.1297703,-33.1374054,-55.6717567
3580,7.5704269,-19.6131992,-1.3072275,-50.0458031,-62.1603050,-68.2061081
3590,5.2289100,-19.6131992,-1.5777708,-92.4198456,-77.8473282,-68.4961853
3600,2.5976956,-19.4863071,0.2777260,-148.8931274,-85.0839691,-61.4580154
3610,0.8164186,-18.2628765,5.6071916,-201.5038147,-91.2671738,-52.3206100
3620,-0.4572902,-17.2022514,13.2614155,-218.9847260,-96.8320618,-49.1908379
3630,-1.9776005,-16.8622761,19.6126022,-187.9541931,-107.9160309,-43.1145020
3640,-1.8818330,-16.7401733,19.6126022,-109.6030502,-108.2595444,-30.1068707
3650,-0.4932030,-15.8519287,19.6126022,-4.9541984,-82.3206100,-11.4580154
3660,1.8147956,-14.6452570,19.6126022,98.1526718,-36.9618340,8.2748089
3670,4.6830344,-13.0148134,17.3889980,174.2824402,15.5419846,19.5267181
3680,6.4523406,-11.2407198,10.6589317,212.2748108,63.3053436,19.7022896
3690,7.0460997,-9.6916790,5.1211715,221.1832123,95.5267181,15.0687027
3700,6.4858594,-7.5129666,0.7781116,205.7251892,108.4961853,12.9160309
3710,5.8370337,-5.0230093,-1.4293311,178.3206177,112.5877838,10.7251911
3720,4.9176650,-2.5474176,-2.3319404,150.0000000,107.7480927,8.1374044
3730,3.8761928,-0.0167593,-2.7150109,119.7328262,98.9083939,8.0305347
3740,2.7796540,2.5593886,-2.3295465,88.2290039,86.0305328,10.2366409
3750,2.3534882,4.2425036,-1.3335636,54.3129768,74.9083939,14.4503813
3760,2.4253139,5.4036856,-0.1460456,20.4122143,66.3511429,17.5419846
3770,2.6527619,5.4802995,4.7309184,-26.4503822,53.0000000,32.1984749
3780,3.3422885,5.9160423,7.1490498,-30.7633591,42.2137413,40.2748108
3790,4.5130472,6.5528965,8.7244263,-26.4580154,33.2290077,47.0763359
3800,5.8490047,7.1514440,9.5192976,-21.0152664,33.3358765,50.2595406
3810,6.8138633,7.5895805,9.9167328,-18.2824421,41.6870232,48.8015251
3820,7.5991573,7.5297260,9.9622221,-18.6793900,53.0687027,41.2366409
3830,7.7811155,7.1346846,10.0172882,-20.0305347,55.4809151,27.7786255
3840,7.6494355,6.4164276,9.9334917,-21.0610695,50.1068687,10.7938929
3850,7.1873569,4.9416070,10.1753054,-20.7709923,40.6793900,-6.8396945
3860,5.7843618,5.2672167,10.0651722,-17.6488552,28.6412220,-22.1526718
3870,4.6064205,4.7357068,9.8784256,-15.1679392,12.9541988,-30.5190830
3880,3.4356618,4.3741841,9.9358864,-14.1908398,-0.1145038,-35.4427490
3890,2.4803803,4.6734576,10.1585455,-12.1832066,-8.1526718,-34.6335869
3900,1.7262106,5.1499014,10.0723553,-10.7251911,-13.4351149,-28.5496178
3910,1.7884595,4.9823084,9.9215212,-13.4198475,-18.8167934,-23.1450386
3920,1.9297167,4.9416070,10.3189564,-17.6564884,-24.1221371,-20.9847336
3930,2.1571648,4.6351509,10.8049774,-20.7328243,-28.3969460,-19.0152664
3940,2.3439114,3.9504125,11.2287483,-22.8015270,-28.2671757,-17.4961834
3950,2.5354466,3.5960727,11.6381550,-22.2595425,-24.9236641,-14.6946564
3960,2.5881188,3.0717452,11.8823624,-19.8167934,-23.0992374,-12.2290077
3970,2.2553265,2.7461352,12.1241751,-14.1221371,-22.3129768,-7.9923663
3980,1.9201399,2.6383967,12.0379848,-6.5419846,-20.8549614,-0.0610687
3990,1.9752063,2.6743097,11.8727856,2.0610688,-16.7557259,10.2824430
4000,3.0501974,3.7277529,9.7754755,5.6946564,11.0763359,42.6793900
4010,4.0389977,4.0461802,9.6797075,0.2977099,25.2366409,49.0916023
4020,5.8609757,4.7883787,9.6054878,-11.5267172,49.2290077,42.7022896
4030,6.1506729,4.8314743,9.6054878,-16.6106873,57.1526718,31.9083977
4040,5.9615316,4.7117648,9.6844959,-21.5419846,58.4274826,18.8015270
4050,4.7381010,4.4914994,10.4793673,-22.3053436,49.8320618,-0.5038168
4060,4.9392128,4.6471219,10.9318695,-16.9389305,45.6641235,-8.0076332
4070,4.9176650,4.6758518,10.8073711,-11.0381680,44.0458031,-17.1603050
4080,4.2353210,4.3334827,10.4027529,-6.9007635,39.6564903,-26.9541988
4090,3.4117200,3.9552009,9.8712435,-6.8396945,29.3282452,-33.6106873
4100,2.4372849,3.3782012,9.6821022,-8.7404585,15.5343513,-36.5419846
4110,1.6232605,2.7988074,9.6533718,-11.1603050,0.6488550,-33.9694672
4120,1.2449785,2.3199697,10.1322098,-12.0534353,-11.9236641,-27.0000000
4130,1.5634058,1.9416877,10.5272512,-10.4198475,-17.0381680,-17.7938938
4140,1.9201399,1.7764885,10.9510221,-6.4580154,-15.9083967,-9.7175570
4150,2.2577207,1.8100072,11.0132713,-2.0534351,-9.7022905,-2.9770992
4160,2.5306582,1.7525467,10.9989061,2.4198472,0.8778626,4.2824426
4170,2.9927368,4.0773048,10.6110477,20.1450386,-16.7404575,-7.1374044
4180,2.3941894,4.5178356,9.9526453,16.7022896,-30.7099228,-7.0610685
4190,2.7437410,5.7556314,11.0611553,-2.6106870,-8.1297712,-12.3206110
4200,4.4172797,10.1489687,12.6532917,32.0839691,-5.0687022,14.7328243
4210,5.4156566,10.5727406,12.1648769,35.0000000,-20.0839691,-2.1221373
4220,5.3462253,10.8480721,11.3532467,30.3511448,-41.0228996,-17.9847336
4230,5.1882086,11.0108776,11.4131012,21.1068707,-60.1221390,-32.7175560
4240,4.5705075,11.3724003,12.3971128,12.7786255,-69.5725174,-40.7709923
4250,4.1060348,11.8608141,13.5175934,6.9694657,-69.6259537,-42.3893127
4260,4.0868812,12.0810804,14.4968176,2.2366412,-55.8167953,-41.9465637
4270,3.4380560,12.3875360,15.7130651,1.8778626,-31.4809170,-39.2671738
4280,2.6958573,12.5718889,16.7401733,9.2442751,-7.1755724,-32.5496178
4290,2.4420733,11.7674408,16.9412842,25.7404575,13.7633591,-24.9618320
4300,2.1212518,11.5471754,15.3611193,43.1068687,24.9618320,-16.0305347
4310,1.4125718,11.3915539,14.5470953,80.8625946,4.8244276,-18.2137413
4320,1.7190280,12.2869806,7.6805596,75.3969498,-14.2137403,-10.5725193
4330,3.6295912,10.8384953,5.0086441,60.6946564,-13.4503813,-16.4198475
4340,3.6918402,11.2407198,2.6383967,45.7175560,-21.1221371,-29.1755733
4350,4.2209558,9.5863342,-0.8643024,18.4198475,-25.6488552,-39.8015251
4360,4.4962878,6.4978304,-2.6000898,-14.2137403,-19.5267181,-52.2442741
4370,4.0557570,3.6702924,-3.6678982,-45.5954208,-18.1755733,-65.2900772
4380,3.5769191,-0.0454896,-3.9815371,-73.6641235,-26.7786255,-75.7938919
4390,2.9831600,-4.3023586,-3.7971845,-98.4198456,-37.1297722,-82.6793900
4400,2.2960277,-8.1953106,-2.5091105,-114.7328262,-51.1068687,-85.2290039
4410,1.2928623,-12.4258432,-0.3734936,-122.0000000,-55.4198456,-77.3893127
4420,0.3687052,-16.6491928,0.8499373,-129.1526642,-36.0228996,-55.4045792
4430,-0.5506636,-19.6131992,1.5203103,-147.0305328,5.3435116,-24.1603050
4440,-1.8195840,-19.6131992,2.7102225,-169.2061005,43.6106873,11.5801525
4450,-2.2026544,-19.6131992,5.2528515,-187.7175598,43.3587799,47.4045792
4460,-1.4891858,-19.6131992,9.5121145,-193.4809113,1.1679389,78.2290039
4470,0.7326220,-19.6131992,14.8152447,-174.6641235,-51.2671738,98.0763321
4480,4.2401094,-19.6131992,19.6126022,-124.8473282,-92.5190811,102.1908417
4490,7.4842362,-18.1240139,19.6126022,-48.4427490,-101.4045792,86.3664093
4500,8.9446917,-14.8679161,19.6126022,43.3969460,-69.6412201,63.0152664
4510,9.1697454,-13.0100250,19.6126022,137.2748108,-11.2213745,42.9923668
4520,8.0947542,-11.6620970,14.8128500,209.3053436,38.2519073,33.2213745
4530,7.3884687,-10.6325951,6.5098009,243.1526642,69.9618301,29.1450386
4540,6.0165982,-8.7435799,-0.0047884,236.8396912,83.3053436,29.9847336
4550,4.8099265,-6.1123657,-3.6607156,199.3511505,79.2290039,34.7557259
4560,4.4747400,-3.9480183,-4.1922259,148.6183167,74.0687027,39.8091621
4570,4.2041965,-1.9440818,-2.5785420,103.2671738,79.9389343,43.6641235
4580,4.1180058,-0.6536137,-0.0909792,75.1068726,91.8091583,47.3129768
4590,3.8307030,0.6296718,1.3910241,51.3358765,102.0992355,51.7404594
4600,3.8594334,1.6831152,2.9280937,34.8778610,108.8396912,51.6793900
4610,3.4404502,2.8634505,4.2472920,25.2137413,106.0610657,51.3053436
4620,3.8211265,6.5337429,8.1570034,4.4351144,32.7404594,48.2137413
4630,4.4795284,6.5720501,10.3859940,-1.4885496,23.7557259,38.2213745
4640,5.0493455,6.9144192,11.0084829,10.2977095,36.0076332,17.1297703
4650,4.7261300,7.0317345,10.3788109,7.3282442,51.1221390,8.8931293
4660,2.3247581,5.7101417,10.2064295,-9.2061071,38.4122124,-15.8854961
4670,1.9345051,5.2528515,10.6134415,-6.9083967,20.4198475,-22.5648861
4680,1.6424140,4.5058646,10.8025827,-0.6030535,1.5801526,-28.2977104
4690,1.2761030,3.9791429,10.7834291,6.7022901,-15.0458012,-31.2748089
4700,0.8547257,4.1132174,10.8121595,14.4045801,-25.3511448,-30.2519093
4710,0.8116302,4.3909435,10.3764172,20.2595425,-24.7633591,-25.2442741
4720,1.0079538,4.4723458,9.1505919,18.6106873,-14.3206110,-18.0534344
4730,1.2186425,4.8913293,8.5352850,7.2519083,3.4427481,-11.6870232
4740,1.1180865,5.4874821,9.0787668,-18.0763359,34.2671738,-1.9236641
4750,1.2593436,5.4874821,9.6509781,-21.0076332,38.6870232,-0.0229008
4760,1.4724265,5.7029591,9.7706871,-20.2442741,37.0610695,-0.1221374
4770,1.4245427,6.2320752,9.8137827,-18.9236641,31.9770985,-1.6488550
4780,1.1252691,7.1466556,9.7395630,-18.5648861,25.4961834,-2.4961832
4790,1.3239868,7.9056134,9.9526453,-19.8320618,20.2977104,-2.0458016
4800,2.1092808,8.3820572,10.1393919,-22.7557259,19.2061062,-4.9465647
4810,2.4396791,8.7603388,10.2303715,-26.4580154,20.1145039,-10.4809160
4820,2.6336083,8.8082228,10.6709023,-29.2977104,20.1068707,-18.2519093
4830,2.8586621,8.8608952,11.5950594,-29.5343513,21.4045811,-25.8244267
4840,2.0206959,9.5384512,11.9661589,-23.9694653,11.5572519,-33.6793900
4850,1.6328372,9.9909525,11.3364868,-26.3435116,5.3053436,-37.5648842
4860,1.2066715,9.8688488,12.2319136,-26.6335869,2.2061069,-40.5648842
4870,0.7182568,9.7802639,12.8951044,-21.4885502,-3.5954199,-41.1450386
4880,0.4572902,9.2726955,12.9286232,-16.5877857,-5.6412215,-37.9465637
4890,0.5626345,8.6621771,12.9645357,-11.7938929,-8.2290077,-34.9465637
4900,0.6272776,8.4323349,13.1560707,-9.2061071,-14.0992365,-32.2137413
4910,0.7230452,8.3724804,13.8144732,-6.8549619,-22.0916023,-30.2824421
4920,1.3383518,8.8944139,14.7146883,-3.7175572,-34.6870232,-32.3511467
4930,2.1332228,9.4857788,15.5718079,-0.7251908,-42.1297722,-40.3664131
4940,2.3941894,10.0603838,16.5821552,3.5267177,-43.4274826,-52.3587799
4950,2.2505381,10.0292597,17.4895535,14.3129768,-45.4427490,-67.0839691
4960,1.2449785,9.7850523,17.6810894,32.9541969,-52.9618340,-79.2290039
4970,0.5626345,10.0723553,16.1559906,55.1450386,-63.8778610,-84.6641235
4980,0.2298422,10.7283630,13.7546186,69.7633591,-77.3511429,-90.6412201
4990,0.1316804,11.5184450,11.4777441,75.4580154,-91.5419846,-96.7404556
5000,0.4572902,12.5503407,8.8824425,71.2824402,-97.8931274,-102.2595444
5010,0.8571198,13.3500004,6.4762826,55.5343513,-85.8091583,-106.5572510
5020,1.1587877,13.1512823,3.7708483,27.6717548,-53.4198456,-109.2977066
5030,0.8236012,12.5096397,1.0151364,-11.9007635,-13.3969469,-107.3969498
5040,0.4309541,11.4178896,-0.9528874,-54.2290077,19.9694653,-103.7938919
5050,0.1268920,9.5336628,-2.1499822,-94.5190811,40.2366409,-101.3053436
5060,0.3399749,7.0293403,-2.8179610,-127.7938919,47.9312973,-101.7175598
5070,0.5674229,3.5026991,-2.7796540,-154.4809113,44.6106873,-104.5648880
5080,0.5769997,-0.5075682,-1.8195840,-169.0610657,29.9312973,-105.4351120
5090,1.0941446,-4.3167233,-0.6655847,-171.5343475,7.4351144,-101.6106873
5100,1.4317253,-8.4897957,0.9169745,-161.3893127,-15.0305347,-92.3816757
5110,1.4149660,-13.1752243,1.5993185,-143.7099304,-31.6946564,-73.3206100
5120,1.6088953,-16.9484673,1.6041069,-125.9083939,-45.4656487,-44.1603050
5130,2.2170193,-19.6131992,0.9241571,-115.9694672,-50.2977104,-6.5038166
5140,2.8969693,-19.6131992,-0.4429250,-127.1145020,-55.6030540,31.7175579
5150,3.0765336,-19.6131992,-0.5650287,-165.9694672,-82.7175598,64.4045792
5160,4.4938936,-19.6131992,3.1100521,-214.3893127,-129.2137451,87.4274826
5170,6.2296810,-19.6131992,9.8664551,-240.7404633,-159.9770966,96.2824402
5180,7.9127960,-19.6131992,18.2652721,-230.1297760,-166.8320618,94.0076370
5190,9.5336628,-17.4177284,19.6126022,-169.6183167,-138.9389343,76.2366409
5200,10.1154509,-13.7833490,19.6126022,-60.3511467,-70.6793900,50.2290077
5210,8.5616217,-12.2941628,19.6126022,78.5648880,17.6412220,30.8015270
5220,6.0980005,-12.3659887,19.6126022,205.4427490,79.6030502,28.7404575
5230,5.0469513,-12.1840305,13.3236647,250.1297760,96.6564865,33.1297722
5240,4.3119354,-10.4650021,3.9288650,250.1297760,93.0916061,34.6183205
5250,3.2872221,-7.6183109,-3.1411765,250.1297760,78.7786255,35.7786255
5260,2.4205256,-4.6734576,-7.4387465,221.7022858,56.7022896,37.3282433
5270,1.7070571,-2.2170193,-7.3501616,143.5496216,45.0305328,37.9236641
5280,1.0845678,-1.1037214,-3.3063757,81.4961853,44.6335869,42.0763359
5290,0.7709290,-0.2322364,0.8499373,47.7099228,52.0381660,49.7557259
5300,4.3143296,4.4867110,10.4266949,35.9389305,36.7251892,47.6183205
5310,2.9879484,4.5250182,10.7738523,38.2595406,25.0000000,37.2213745
5320,2.2098370,4.6854286,10.8480721,39.4885483,16.9160309,34.3740463
5330,1.7597293,5.0493455,10.7427282,37.9083977,19.5954189,36.4274826
5340,2.1835008,5.1020179,10.4123297,33.5419846,32.1603050,39.6335869
5350,2.6288199,4.7524662,10.3045912,25.1832066,47.8015251,39.2748108
5360,2.5761478,4.7045822,10.6397781,16.7862587,63.1221390,36.5190849
5370,2.6072724,4.2209558,11.0515785,12.2366409,72.6717529,28.3969460
5380,1.7070571,3.5338237,11.7746239,14.9007635,70.9618301,20.7480907
5390,0.9624642,3.1459649,11.8201132,22.3129768,59.0992355,13.8244276
5400,-0.0215477,2.5569944,12.0643206,34.3816795,36.5419846,8.5954199
5410,-1.0534433,2.8323262,11.9398232,50.3816795,10.2137403,9.1832066
5420,-1.3479286,3.2944047,11.2024126,63.7328262,-14.6793890,13.8854961
5430,-0.8259954,3.8522508,10.0555954,69.4961853,-29.6106873,18.5801525
5440,0.0095768,4.2832050,8.8776541,65.3129807,-32.9007645,20.8702297
5450,0.8930327,4.4029145,8.0301113,51.7557259,-27.4885502,20.1526718
5460,1.5179161,4.3071470,7.7523856,33.1832047,-18.4198475,16.7175579
5470,1.4556671,4.3598189,9.2511482,5.2366414,-0.1832061,7.9312978
5480,0.7302278,4.5106530,10.0675669,3.0534351,4.5190840,6.2595420
5490,0.0550664,4.7859845,10.5703468,7.2366414,3.9160306,9.6335878
5500,-0.1292862,5.1163831,10.3093796,11.6488552,-0.5572519,13.1603050
5510,0.0191535,5.5952206,10.3117743,15.2442751,-6.7709923,15.3053436
5520,0.4022238,5.8849177,10.0699606,14.6946564,-10.4503813,17.0305347
5530,1.4293311,6.7396431,10.0532017,11.4580154,-6.4274807,15.4580154
5540,1.7142396,7.3764977,10.1393919,11.7786255,-2.3816793,11.8702288
5550,2.0230901,8.2120695,10.0699606,12.4351149,3.0076337,6.4809160
5560,2.0949159,8.8489246,9.6270361,11.5114508,6.7175574,0.1679389
5570,1.9584470,9.4977493,9.1218615,7.7022901,10.5267172,-6.4198475
5580,0.6703730,9.7563219,10.1609402,-5.1145039,-12.5877867,-17.6564884
5590,0.8283895,9.9550400,10.7163916,-1.3740458,-27.8396950,-16.2519093
5600,1.5179161,10.0268650,11.0683374,3.7633588,-38.9007645,-15.6259546
5610,2.2529323,10.0244713,11.1353750,8.0076332,-39.7099228,-15.9847326
5620,2.8826041,9.7730818,10.9845409,9.8015270,-31.9694653,-16.5267181
5630,3.5122759,9.6605549,10.4003592,6.8854961,-18.0916023,-18.0381680
5640,3.9144998,9.2726955,9.9717989,-2.0076337,-3.8320611,-21.3664131
5650,3.6224086,8.9111729,10.3381100,-11.2977095,3.0229008,-27.0076332
5660,3.1004753,8.5281029,11.0922794,-16.9389305,0.5038168,-32.5343513
5670,2.1930776,8.4562769,11.6956158,-17.5725193,-8.9847326,-35.9007645
5680,1.7549409,8.9087791,12.3779593,-14.4580154,-23.1984730,-38.7328262
5690,1.7525467,9.1362267,13.0052376,-8.1526718,-38.1603050,-42.1526718
5700,1.8531027,9.3110027,13.3763361,2.0992367,-49.9236641,-46.4656487
5710,1.5083394,9.7682934,13.1081877,16.3053436,-65.7022934,-50.2290077
5720,1.4580613,10.7139978,11.9063044,29.0305347,-84.5190811,-52.2366409
5730,2.2050486,11.9877062,10.2495251,33.7862587,-96.2824402,-55.6793900
5740,3.4189026,13.3116932,8.6382351,29.0152664,-98.3129807,-63.9083977
5750,5.0756817,13.8336267,6.8928714,14.5877867,-87.6183243,-79.2748108
5760,5.8059096,13.3763361,4.9847026,-8.0305347,-63.9694672,-100.5496216
5770,5.2456689,12.3348637,3.6535332,-34.4198456,-42.9312973,-123.6259537
5780,4.2951760,10.5942879,3.1124463,-57.8854980,-38.5954208,-146.4503784
5790,2.8203552,8.6118994,3.1914546,-72.2595444,-55.0458031,-166.4045868
5800,1.3311694,6.1985564,3.6200144,-76.8931274,-85.2824402,-178.9923706
5810,0.2322364,3.3590479,4.3382711,-73.8702316,-118.6412201,-183.5419922
5820,-0.5051740,0.5123565,5.2049680,-61.5343513,-142.4961853,-179.3816833
5830,-1.0486550,-3.0023136,5.3773494,-44.5496178,-142.9389343,-163.2519073
5840,-1.7573351,-6.7851329,5.0756817,-27.9236641,-120.4198456,-133.4351196
5850,-2.3558824,-10.7116032,3.5362179,-18.3587780,-69.8396912,-90.1297684
5860,-2.7796540,-15.1432486,0.6368544,-28.5954189,-0.4580153,-32.9694672
5870,-2.7557120,-19.2301292,-2.3606708,-72.2061081,56.2442741,30.6717548
5880,-1.2641320,-19.6131992,-3.8857694,-150.8320618,65.8702316,83.3587799
5890,1.7573351,-19.6131992,0.1843526,-234.3816833,6.3282442,106.6259537
5900,4.6566987,-19.6131992,9.6629486,-250.1374054,-91.6412201,105.5954208
5910,7.4387465,-19.6131992,19.6126022,-250.1374054,-185.6564941,93.9847336
5920,11.9733410,-19.6131992,19.6126022,-159.9160309,-223.3053436,65.9160309
5930,14.1544485,-16.0506458,19.6126022,-7.7099237,-169.8167877,26.7175579
5940,12.5024576,-13.0339670,19.6126022,151.7557220,-59.2824440,2.3129771
5950,9.4929609,-12.0882626,19.6126022,250.1297760,44.0916023,-4.5114503
5960,6.9718795,-11.3101511,8.7411861,250.1297760,99.0687027,-4.3893127
5970,4.5202298,-8.7938576,-1.7046629,250.1297760,114.2519073,-2.9160306
5980,2.0613971,-4.2329268,-10.0268650,250.1297760,101.7251892,1.8167939
5990,0.3902529,-0.1436514,-13.9916430,171.8778687,74.3206100,11.3511448
6000,0.7948709,1.9656296,-10.9055328,65.2137375,60.8244286,20.7633591
6010,1.5394639,2.4133430,-4.2879934,-4.6488547,79.5343475,28.3587780
6020,1.3814473,3.0813217,1.3622938,-40.4809151,102.5267181,35.9618340
6030,0.6703730,4.2808108,5.9304070,-51.3969460,119.0381699,45.0381660
6040,0.4740495,4.8649931,8.8752604,-42.9083977,123.8931274,55.2900772
6050,0.9888002,4.8625989,10.2327662,-23.9541988,125.5190811,65.0687027
6060,1.3431402,5.1906028,10.4099360,-4.5877862,118.9007645,71.2137375
6070,4.3286943,7.9822278,10.1609402,20.0152664,29.7099228,41.4732819
6080,4.8625989,7.7499914,10.1537571,16.6564884,36.4580154,25.5038166
6090,4.3646073,7.1083484,9.8760319,10.4351149,49.7862587,9.2595415
6100,2.8730273,6.1650376,9.7898407,4.6717558,57.9160309,-0.9923664
6110,1.6831152,5.1738434,9.9310980,3.1297710,55.9771004,-3.8015268
6120,0.6607963,4.9296360,9.9526453,6.0534353,49.4274826,-2.7022901
6130,0.1939293,6.7013364,9.8880024,12.9007635,23.9312973,3.8091602
6140,0.5650287,7.2208753,10.0675669,12.9694653,15.4045801,-0.0152672
6150,0.4644727,5.7532372,9.4498653,-1.3511450,26.4198475,-13.8320608
6160,-0.2489957,5.5521255,9.5408449,-7.5801525,29.6564884,-11.0076332
6170,-1.0749911,6.0644817,10.3788109,-10.9770994,24.9618320,-4.5114503
6180,-1.4125718,6.7157016,11.3556404,-6.4732823,15.7938929,2.5954199
6190,-0.7398046,7.6590118,10.4219065,10.4656487,2.1755726,17.5801525
6200,-0.3639168,7.7523856,9.7467451,11.8015270,-4.3511453,20.0992374
6210,0.4764437,8.0205345,9.0380650,8.1679392,-5.9541984,20.7862587
6220,1.1970947,8.4969788,8.8441362,-1.3129771,3.8625953,19.6183205
6230,1.1587877,8.7435799,9.1074963,-12.6335878,15.4656487,18.0916023
6240,0.8403605,8.9446917,9.7563219,-19.4961834,21.0229015,16.6946564
6250,0.5674229,9.0524302,10.3500814,-21.3435116,20.6717548,15.5648851
6260,0.2920911,9.0691900,10.7068148,-18.5954189,12.8931293,13.2366409
6270,0.0670373,8.8992023,10.9989061,-11.1908398,-3.8167939,10.1984730
6280,-0.0694315,9.0883436,10.9318695,-2.6641221,-25.9312973,7.1832061
6290,0.9409165,10.0699606,10.4458485,7.2061067,-58.9160309,0.3664122
6300,1.7046629,11.1449518,9.8736372,3.1984732,-57.9923668,-5.9770994
6310,2.0230901,11.9278517,9.6318245,-6.7022901,-51.2824440,-14.6259546
6320,1.6328372,12.4426022,9.9598284,-15.7022905,-48.8778610,-23.0534344
6330,0.7038917,13.1177645,10.4458485,-20.2366409,-50.0992355,-27.2748089
6340,-0.3064562,14.4776640,10.8648319,-22.8778629,-54.9541969,-26.6030540
6350,-0.3734936,15.9333305,11.3125448,-25.0458012,-60.3435097,-25.7480907
6360,0.2466015,16.3882275,11.1569233,-27.9618320,-60.7633591,-31.1068707
6370,0.4860204,16.2182388,10.2878323,-30.6259537,-59.9847336,-39.6793900
6380,0.1484398,15.4090033,9.5504217,-29.1221371,-59.1984749,-48.4503822
6390,-0.4405309,14.5351238,7.5488791,-31.3358784,-56.4809151,-53.6793900
6400,-1.0845678,13.1010046,5.2791877,-42.1755714,-51.1603050,-54.0916023
6410,-1.7381816,11.0539722,3.7421181,-56.5801544,-45.3282433,-50.6183205
6420,-2.1356170,8.4347296,2.2888451,-70.0763321,-37.2442741,-41.3358765
6430,-1.8483143,5.2743993,0.8786675,-83.1908417,-23.8702297,-28.2977104
6440,-0.6847382,1.3287752,0.2082945,-96.4885483,-10.8854961,-15.6870232
6450,1.3646880,-3.5697365,0.7206510,-101.5648880,-1.4122137,-10.1603050
6460,2.9879484,-8.7866755,1.6663558,-91.2061081,2.9923663,-10.3053436
6470,4.3334827,-14.7697544,2.3630650,-68.0610657,-10.8320608,-10.4351149
6480,5.2743993,-19.6131992,1.6136837,-50.4122124,-41.7022896,-5.1908398
6490,5.3462253,-19.6131992,-0.6991033,-57.1374054,-78.2595444,4.2824426
6500,5.6095858,-19.6131992,-2.0542145,-97.6412201,-125.7251892,14.0763359
6510,6.7971039,-19.6131992,0.2896969,-164.8396912,-184.7862549,19.5190830
6520,8.8345594,-19.6131992,8.3245964,-224.8015289,-221.7175598,15.9847326
6530,11.3149395,-17.6260223,19.3929348,-236.8015289,-206.7022858,-2.9618320
6540,11.7722292,-16.5246964,19.6126022,-187.3740387,-137.6106873,-35.1374054
6550,7.4842362,-15.7633438,19.6126022,-78.1145020,-23.7251911,-56.6641235
6560,2.1068866,-14.8822813,19.6126022,56.0763359,72.9083939,-44.5954208
6570,-0.6416427,-14.5231533,19.6126022,174.5801544,130.9084015,-12.0839691
6580,-0.8499373,-13.4266148,12.3061342,241.7022858,147.2213745,21.8702297
6590,-0.2537841,-10.7451220,2.2409613,250.1297760,139.1450348,50.8702278
6600,0.8307837,-7.2663651,-5.1020179,223.8625946,117.3358765,70.3129807
6610,2.2936335,-3.9575951,-8.6980906,153.7022858,97.5343475,78.9465637
6620,3.5314295,-1.7046629,-7.3405848,74.3206100,89.9923630,79.0152664
6630,4.2209558,-1.3910241,-2.5378408,16.2824421,98.8320618,75.3664093
6640,3.6128318,-0.9050036,1.5394639,-12.8854961,109.7633591,72.9847336
6650,2.6934631,0.1819584,4.9248476,-24.3969460,112.0763321,75.8702316
6660,2.3965836,1.3144100,7.4890246,-23.5648861,109.3435135,81.2137375
6670,2.2385671,2.1547706,9.2296000,-14.3129768,103.2061081,86.8702316
6680,3.1387823,4.1611013,10.4865494,12.3206110,88.4427490,89.0229034
6690,3.7181761,4.8410511,10.2016411,20.3969460,81.7633591,84.4351120
6700,4.7883787,4.7931671,10.0196829,22.5419846,63.0687027,64.3358765
6710,5.1020179,4.9056940,10.1322098,20.5877857,58.3282433,51.7175560
6720,4.7764082,5.2696109,10.4075413,18.9465656,56.6793900,39.5343513
6730,4.3670015,5.9926562,10.5942879,18.5419846,60.4885483,28.5725193
6740,3.8905578,6.2608056,10.4721851,17.6946564,62.6259537,15.7251911
6750,1.6831152,5.4779053,9.8042059,14.5419846,45.1679382,-11.1832066
6760,0.8403605,4.7045822,9.8975792,13.2824430,22.9694653,-20.7251911
6770,0.3375807,4.3119354,10.2974091,15.1068707,0.5419847,-26.2900772
6780,0.1101327,4.1994085,10.6302013,19.5572510,-11.1145039,-28.3129768
6790,-0.2705434,4.5274124,10.6732969,22.5419846,-9.6106873,-26.2977104
6800,-0.3854645,4.9894910,10.2399483,20.8473282,3.1221373,-20.5496178
6810,-0.1867468,5.2480631,9.7563219,13.3129768,27.0687027,-16.0534344
6820,-0.7996593,6.0237808,9.6437950,2.2519083,50.9312973,-13.2366409
6830,-1.9273225,6.0429344,9.9095497,-5.1374044,61.0228996,-11.8778629
6840,-2.7605004,5.3677726,9.9957409,-5.8091602,55.7175560,-10.0534353
6850,-3.4500270,5.1546898,9.9119444,-3.0458016,34.1832047,-6.8625956
6860,-1.3287752,5.1906028,10.1178446,-1.0610687,21.2213745,27.3129768
6870,-0.7565638,5.0708933,10.1896706,-8.1145039,43.8015251,35.5343513
6880,-0.2322364,5.0732875,10.4003592,-14.3053436,60.0000000,40.2748108
6890,-0.1364688,4.9368186,10.9749641,-16.1221371,65.2137375,42.3664131
6900,0.0167593,4.7117648,11.3460636,-13.3740454,63.0305328,40.6106873
6910,-0.0335187,4.8745699,11.2742386,-10.6946564,49.4961815,35.5496178
6920,-0.0383070,4.7093706,11.5328102,-4.6335878,28.7480907,28.3282452
6930,0.0574605,4.5609307,11.6357603,5.2900763,5.4809160,20.6793900
6940,0.0095768,4.6782460,11.2072010,15.2366409,-15.6870232,13.9923668
6950,0.1628049,4.8530221,10.4051476,19.0916023,-28.3740463,8.3282442
6960,-0.6536137,4.2879934,9.9239149,-2.8778627,-2.5038168,-0.2213740
6970,-0.9313397,4.3741841,10.4410601,-5.3206105,-0.4427481,1.0076336
6980,-1.1420283,4.2736282,10.7930059,-3.8702290,-0.8931298,3.6412213
6990,-1.2018831,4.1371593,11.1042509,-0.2900763,-3.6488550,6.8549619
7000,-1.1085097,4.1491303,11.0108776,5.3740458,-9.1526718,10.6488552
7010,-0.6009415,4.3957319,10.5344334,10.7786255,-17.5419846,13.1450386
7020,0.1484398,5.0134325,9.9430685,13.1145039,-20.7938938,13.4198475
7030,1.0821736,5.7436604,9.3181858,10.7938929,-17.1832066,11.0381680
7040,1.6160779,6.5050125,8.9686337,3.3664122,-6.6946564,5.3053436
7050,1.4413021,6.8689294,9.0835552,-5.2519083,1.6641221,-2.2900763
7060,0.7685348,6.9838505,9.4881725,-10.4656487,2.1832061,-10.0000000
7070,-0.1963235,6.8401995,9.8520899,-10.1068707,-8.8702288,-15.3664122
7080,-0.8140244,6.6151457,10.1585455,-6.9618320,-24.0839691,-16.6564884
7090,-1.1683644,6.6797886,10.9582052,-1.7480916,-35.0152664,-12.1755724
7100,-1.0103480,7.0245519,11.3580351,3.9083970,-34.1221390,-5.5648856
7110,-0.5482694,7.4411407,11.3460636,4.9083967,-27.7175579,0.3053435
7120,-0.2681492,7.8457589,10.9151096,0.0000000,-19.9236641,5.0458016
7130,0.6033357,8.4371233,10.3357162,-10.0839691,-12.6106873,6.5267177
7140,1.0007712,8.9327211,10.2495251,-22.5190830,-7.7633586,3.3511450
7150,0.6799498,9.4474716,10.6278067,-33.9541969,-8.4732828,-1.8702290
7160,-0.1005560,9.8185711,11.5495701,-40.3053436,-11.6870232,-6.7404580
7170,-0.5578461,10.0771437,11.7674408,-42.6870232,-21.4580154,-9.0763359
7180,-0.7469871,10.2854376,11.6142130,-41.8854980,-38.4503822,-13.0534353
7190,-0.2394189,10.5847120,11.0300312,-40.3969460,-67.1374054,-19.9618320
7200,0.5889706,10.5535870,10.4650021,-40.0534363,-95.3664093,-29.7175579
7210,1.1731528,10.6230183,10.0771437,-38.7328262,-122.4580154,-40.1297722
7220,1.8650736,10.4458485,9.6246414,-37.5801544,-145.7862549,-52.2366409
7230,2.6024840,9.9167328,8.8680773,-40.7251892,-151.6870270,-65.1526718
7240,2.3391230,9.0332766,7.8361821,-51.4274826,-139.7022858,-74.1221390
7250,1.2784972,8.4059992,7.3310080,-65.8473282,-120.6183243,-75.0687027
7260,0.4788379,7.5488791,7.1945391,-78.3816757,-104.1679382,-70.0457993
7270,0.0933734,6.0405402,7.2424231,-83.5038147,-102.5038147,-67.3740463
7280,-0.4932030,4.3574247,7.7595682,-75.4503784,-122.8015289,-67.4274826
7290,-0.4429250,2.4348907,7.8936424,-54.1603050,-159.8396912,-63.7557259
7300,0.1532281,0.0191535,7.2663651,-27.0992374,-200.9160309,-56.4122124
7310,1.3670821,-2.7245877,6.5409255,0.1984733,-234.9313049,-44.8473282
7320,3.0454090,-6.0381460,5.9375896,25.2595425,-239.6488495,-29.5419846
7330,4.5537481,-9.7946291,4.5010762,44.7022896,-220.1755676,-9.4351149
7340,6.3302369,-14.4369621,2.1308286,51.6183205,-169.0000000,14.1526718
7350,7.1705976,-18.4041348,-1.0055596,36.2977104,-101.7862625,40.1068687
7360,7.4435349,-19.6131992,-3.8642218,-7.8396945,-51.8931313,69.2519073
7370,8.3916340,-19.6131992,-4.7428894,-81.8549652,-34.7404594,88.6183243
7380,10.0029240,-17.0873299,-3.0669568,-176.1221313,-39.9694672,82.5954208
7390,11.1545286,-13.1225519,3.1675127,-250.1374054,-38.2595406,46.6106873
7400,10.7642756,-12.2821922,12.7706070,-250.1374054,-27.4503822,-15.0610685
7410,6.6726060,-12.5072460,19.6126022,-250.1374054,-12.6564884,-74.7709961
7420,0.5315101,-13.6396971,19.6126022,-181.9618378,-22.2137413,-98.1832047
7430,-2.7485294,-13.9916430,19.6126022,-40.1984749,-51.6946564,-80.5038147
7440,-1.9895715,-13.2997227,19.6126022,125.9847336,-26.9083977,-49.8320618
7450,-0.4955972,-12.7418766,19.6126022,250.1297760,23.6030540,-16.1603050
7460,1.3383518,-11.2263546,9.3612804,250.1297760,63.5496178,12.0000000
7470,3.2513094,-8.6789370,0.3256098,250.1297760,95.9465637,29.6030540
7480,4.3047528,-5.8154860,-5.2576399,245.3129730,109.5190811,37.8854980
7490,3.9049230,-4.1587071,-7.6733770,175.8625946,123.5496216,47.8702278
7500,3.8330972,-2.8586621,-6.2248926,107.8854980,129.6870270,58.9618340
7510,4.2688398,-1.6807210,-2.4492557,63.3435097,113.5572510,69.8091583
7520,4.8099265,-0.3615226,0.5602403,41.5267181,96.3740463,73.5954208
7530,4.9607606,4.1898317,7.9846220,42.1526718,25.1221371,2.7480917
7540,3.2920105,5.6909885,8.3796635,8.4580154,55.3664131,-3.2290077
7550,2.8730273,5.9208307,9.9789820,-8.0076332,41.0687027,-17.4656487
7560,2.8395088,5.8681583,10.7977943,-7.9083967,27.2900772,-25.5496178
7570,2.6982515,5.7245069,11.1736822,-4.0992365,16.5343513,-32.9160309
7580,0.9672526,5.2935529,10.2998028,9.9160309,10.6488552,-35.5496178
7590,0.6655847,4.9894910,8.9135675,-1.2061069,9.8854961,-5.0152674
7600,1.8435259,4.7644372,9.7970228,-17.1832066,8.7938929,5.6717558
7610,2.8610563,4.9104824,11.0156660,-9.0610685,5.8167939,4.7099237
7620,1.5705882,4.7045822,10.2399483,-2.6793892,7.8473282,8.0534353
7630,1.6232605,5.0876527,10.3069859,0.3664122,-1.8625954,8.5954199
7640,2.1882892,6.1363077,9.8592720,2.4961832,-18.5419846,5.0534353
7650,2.1906834,7.5105724,9.6054878,-5.0305343,-18.2366409,-3.1984732
7660,1.7717001,8.0037756,9.8089943,-9.1679392,-19.0534344,-7.3358779
7670,1.5634058,8.3844519,9.9622221,-12.5954199,-23.4122143,-10.2519083
7680,1.4556671,8.4107876,10.2327662,-15.4503813,-30.5877857,-11.9160309
7690,1.4700323,8.3700867,10.5320396,-19.2290077,-34.4656487,-12.3893127
7700,1.4604555,8.3748751,11.1712875,-22.0458012,-31.8167934,-10.1603050
7710,1.3670821,8.5903521,11.5208397,-22.5877857,-24.2137413,-6.1374044
7720,1.2952565,8.7244263,11.7770176,-20.5648861,-15.9465647,-2.6946564
7730,1.1109039,8.5424681,11.5375986,-15.7099237,-13.2671757,-0.4580153
7740,1.1803354,8.2958660,11.0396080,-7.7022901,-18.7328243,1.1145039
7750,2.5426292,7.8146343,6.6175399,10.1145039,-102.0076370,-2.5572519
7760,3.5026991,7.4986014,4.9966736,-7.4351144,-147.3282471,-11.9160309
7770,4.6902170,7.7404146,5.4731169,-38.2900772,-182.7862549,-22.1984730
7780,5.2073622,7.1849627,7.6901364,-66.3816757,-193.7022858,-29.2900772
7790,4.8961172,6.7252784,11.1066446,-75.2137375,-197.2290039,-29.5572510
7800,4.9583664,7.1155310,13.7163115,-59.1145020,-195.3129730,-27.8244267
7810,5.0684991,7.6039457,13.8623571,-28.6030540,-185.1984711,-28.1221371
7820,5.3510137,7.6614060,11.6812506,-2.6106870,-173.8778687,-30.8549614
7830,5.7221127,7.0820122,8.6382351,10.0534353,-153.2290039,-35.2519073
7840,5.7939386,5.6502872,5.8777351,9.3969469,-132.6641235,-39.5496178
7850,5.8130918,3.8666160,4.0150557,1.8549619,-116.6641235,-43.6717567
7860,5.7460546,1.5083394,2.5713594,-8.2671757,-105.8702316,-47.4961815
7870,5.6071916,-1.1420283,1.7166338,-19.7099228,-93.1374054,-46.7480927
7880,6.0716643,-3.9719603,1.4652439,-30.2824421,-83.4045792,-40.3740463
7890,6.6462698,-7.0556765,0.4046180,-39.0763359,-54.6870232,-38.5572510
7900,6.5840211,-10.4889441,-0.1819584,-52.5343513,-31.6870232,-37.3587799
7910,5.9567432,-13.3476067,-0.5937590,-70.2366409,-17.0534344,-29.1755733
7920,4.8937230,-15.4784346,-1.1420283,-99.0534363,-9.0305347,-12.9312973
7930,3.5338237,-15.7585554,-0.8547257,-139.4045868,-6.0763359,6.0839696
7940,3.0573800,-14.8942528,1.2545552,-186.3893127,-14.3282442,24.1984730
7950,4.2975702,-13.7594070,5.7029591,-229.3893127,-32.6793900,34.3435097
7960,6.0237808,-12.9525652,11.2718439,-250.1374054,-50.1679382,28.3816795
7970,9.0284882,-12.1313581,16.5007534,-250.1374054,-40.4961815,5.9618320
7980,9.5743637,-13.1153698,19.6126022,-233.6412201,-55.7404594,-28.6488552
7990,9.2008705,-13.3571825,19.6126022,-138.5190887,-9.4885492,-58.9083977
8000,5.4587522,-12.8472204,19.6126022,14.5954199,67.5572510,-59.6488533
8010,2.3151813,-13.5798426,19.6126022,156.3587799,105.7251892,-36.0763359
8020,1.5131277,-13.4290085,16.3954086,248.8778687,104.8931274,-11.0687027
8030,1.6328372,-11.8249016,7.1873569,250.1297760,86.8931274,9.8320608
8040,2.0087249,-9.4402885,0.4668669,250.1297760,62.1908379,28.2290077
8050,2.9304879,-6.6702118,-4.1371593,250.1297760,45.6564903,43.2519073
8060,4.4220681,-4.1946201,-6.1171541,206.7022858,37.9083977,55.1068687
8070,6.0620875,-1.8650736,-6.7611909,153.3129730,69.8167953,57.6030540
8080,6.9287844,0.2585725,-5.0613165,101.0839691,112.4045792,55.4122124
8090,6.7276726,1.4676381,-4.4244623,51.5267181,141.9847260,46.9083977
8100,5.7077475,2.9927368,-3.2417326,7.2671757,170.5572510,38.5572510
8110,4.5202298,3.7852135,-1.6232605,-32.0839691,182.6717529,33.4274826
8120,3.4763632,3.8522508,0.1053443,-69.5267181,174.9847260,31.9847336
8130,-0.1508339,4.5226240,7.9606800,-74.2595444,130.7786255,47.8091621
8140,4.5130472,3.0047078,8.2623482,-73.0305328,101.6259537,49.7022896
8150,3.7301471,4.0006905,11.4681673,-53.1450386,88.2671738,53.6564903
8160,4.9320302,4.5872669,12.5886478,-35.3129768,84.9389343,48.7251892
8170,5.2959471,4.8793583,13.1393118,-17.8549614,82.1374054,40.2213745
8180,5.3151007,4.4651632,13.2925396,-2.3129771,79.0152664,28.3053436
8190,4.9607606,3.7085996,13.3092995,12.8244276,73.5419846,19.0076332
8200,4.2879934,3.2465210,13.3500004,28.3664131,69.3511429,15.0152674
8210,3.7421181,3.3470769,13.2973280,41.1221390,66.0076370,15.8778629
8220,3.3997490,3.4524212,13.2446556,53.3664131,68.9465637,16.9007626
8230,3.0669568,4.3670015,12.8544035,66.0992355,66.7557220,14.0381680
8240,1.3239868,5.0182209,8.0013809,55.9083977,27.2366409,-11.4503813
8250,0.8690908,5.0661049,7.6566176,36.2442741,15.6488552,-10.8396950
8260,1.1516051,4.8673873,8.3293848,18.6106873,2.1603053,-5.9541984
8270,2.1380112,4.9751258,9.2655134,5.9465647,-5.7480917,-0.5954198
8280,2.8155668,5.9088597,10.4554253,-2.6106870,5.0839696,4.5267177
8290,3.3853838,7.3046722,11.1425581,-10.7557249,53.0992355,9.1145039
8300,3.0645626,7.8673067,10.7403336,-17.6106873,77.6870193,8.0839691
8310,2.0422437,8.4107876,10.3620520,-25.7786255,87.3511429,5.8702292
8320,0.2346306,8.9470863,10.4362717,-48.7557259,20.2213745,12.9694653
8330,0.9672526,9.4929609,11.5136566,-53.8320618,-8.4351149,16.1297703
8340,2.1571648,9.7658987,12.7969427,-55.6946564,-28.7786255,14.6793890
8350,3.1770895,10.4027529,14.2813396,-51.9618340,-39.9541969,9.1526718
8360,4.0389977,10.7499104,15.3635139,-42.3282433,-43.2366409,0.8473282
8370,4.7788019,10.6972389,15.6891232,-27.4351139,-44.9389305,-9.2748089
8380,4.9487896,10.6565371,14.8583393,-13.6488552,-47.0534363,-19.1603050
8390,5.2959471,10.5224628,13.0555153,-11.0305347,-44.1145020,-26.7022896
8400,5.2480631,10.4865494,11.9302464,-22.1832066,-32.8091621,-34.0381660
8410,4.6950054,10.7211800,12.3276815,-37.6793900,-15.9541988,-40.5267181
8420,3.2872221,10.8791971,13.5367470,-47.5114517,-1.3358779,-44.4732819
8430,1.9560528,11.6046362,14.6548338,-47.0458031,7.8625956,-45.3282433
8440,0.9169745,11.8871508,14.2166967,-40.5419846,16.0992374,-44.4580154
8450,-0.2681492,11.8153248,12.6820211,-34.6564903,20.2137413,-42.4045792
8460,-1.5873476,12.3899307,10.7642756,-30.0534344,9.9389315,-38.5725174
8470,-1.3407460,11.6525202,7.9271612,-33.9465637,-11.7786255,-36.4122124
8480,-0.8212070,10.0723553,5.6574697,-49.4809151,-33.1145020,-38.2824440
8490,-0.1436514,7.6470413,4.5752959,-70.0839691,-51.1221390,-40.4427490
8500,-0.1077385,5.1594782,4.7381010,-84.9770966,-73.1145020,-41.5267181
8510,0.3040621,2.4612267,5.6478930,-86.0534363,-110.0152664,-43.3740463
8520,1.4341195,-0.4213773,6.2512288,-72.0763321,-146.2366486,-43.8396950
8530,3.0693510,-3.2872221,5.0014620,-59.3664131,-145.1908417,-39.1984749
8540,4.7069764,-6.6797886,3.5194585,-56.2213745,-105.3282471,-31.5648861
8550,5.4204450,-10.4626083,2.6383967,-58.2900772,-54.6564903,-24.4198475
8560,5.8585815,-14.6284971,2.2289903,-59.6717567,-22.8473282,-14.8167934
8570,6.0788469,-17.7984047,1.9081690,-66.8244247,-21.4809170,-5.1679387
8580,6.3230543,-18.1934452,2.0733681,-86.2213745,-42.1145020,0.8091603
8590,7.6302819,-17.7409439,4.0342093,-111.2595444,-62.1832047,3.9236641
8600,9.3397331,-16.8981895,7.2065101,-133.9694672,-64.6259537,-3.0381680
8610,10.5080976,-15.5335016,11.8584204,-140.9465637,-38.5343513,-26.0305347
8620,9.7371683,-14.6284971,16.9101601,-118.7251892,4.5725193,-58.9236641
8630,6.2009506,-14.0921993,19.6126022,-63.7099228,46.8473282,-85.0152664
8640,1.6041069,-13.9365768,19.6126022,17.9847336,73.0229034,-89.8931274
8650,-2.0422437,-13.9246063,19.4264526,110.1374054,65.3587799,-73.8167953
8660,-3.1004753,-13.3332415,13.7929258,192.7404633,31.7404575,-46.6717567
8670,-2.0350611,-12.3779593,6.6558466,239.7709961,-4.2137403,-22.9312973
8680,-0.6488253,-10.7044210,0.8690908,249.3129730,-22.0152664,-3.8549619
8690,0.8547257,-8.4083929,-2.8442972,229.3740387,-14.7709923,14.3053436
8700,2.1260402,-5.8633699,-4.3071470,192.1679382,7.9236641,29.0687027
8710,2.8251436,-3.8857694,-4.3646073,147.3816833,30.4122143,36.7633591
8720,2.5569944,-2.8419030,-3.0478032,107.5114517,46.1984749,43.5190849
8730,2.0015423,-1.5370697,-0.9959828,78.2442780,49.5419846,53.4427490
8740,2.0925217,-0.2609667,0.7685348,59.1603050,51.1755714,64.7938919
8750,4.0509686,4.0318151,6.2775645,-11.4122133,69.2290039,94.4885483
8760,4.9487896,3.6056492,7.9870162,-14.0610685,55.0534363,85.3282471
8770,6.3422079,4.9128766,11.0060892,14.9007635,24.7938938,32.2748108
8780,6.0165982,5.6766233,10.6732969,16.7633591,28.7709923,18.1984730
8790,4.3047528,4.9918852,10.1465750,11.1755724,18.4427490,-15.0229006
8800,2.4899571,4.4172797,11.0563669,10.5190840,-13.7099237,-30.7480907
8810,2.1835008,4.9823084,11.3340931,12.8167934,-19.8854961,-30.2213745
8820,2.2242019,5.5042415,10.9031391,12.1755724,-10.3053436,-25.7862587
8830,2.2122312,5.8729467,10.6637201,3.5725191,11.9007635,-20.0076332
8840,2.2481439,5.9375896,11.1042509,-7.0000000,38.0228996,-16.0152664
8850,1.9416877,5.4012914,11.4083128,-14.3664122,58.3511467,-15.3282442
8860,1.4987626,4.5681133,11.8249016,-17.2519093,65.7099228,-16.6564884
8870,0.7685348,4.1539187,12.1122046,-12.7557249,60.2900772,-17.6412220
8880,0.1412572,3.6439564,12.0643206,-2.1297710,46.3053436,-15.6412210
8890,-0.3375807,3.4428444,11.4514084,6.7862597,28.0687027,-11.0992365
8900,-0.4189832,3.7516949,10.6086531,12.4503813,15.0305347,-4.2900763
8910,0.1819584,3.7732425,9.7970228,13.0839691,6.3740458,2.5267177
8920,0.6320660,3.9216824,9.2367830,7.4122138,7.0305343,7.2213740
8930,1.2282192,4.3622131,9.3325500,-16.9770985,31.4503822,20.5343513
8940,1.5035510,4.1491303,9.8496952,-22.9083977,37.3740463,21.9847336
8950,1.6328372,3.8570392,10.2231894,-25.0687027,38.1908379,21.3969460
8960,1.7429699,3.6894460,10.7307568,-23.0458012,33.9083977,19.8015270
8970,1.5370697,3.7995787,10.9103212,-19.1068707,26.9541988,17.7251911
8980,1.6543850,3.9144998,10.9510221,-15.0839691,19.0000000,14.7099237
8990,1.7645177,4.0701222,10.8696203,-11.3740454,10.5954199,10.8167934
9000,1.6280488,4.2305326,10.8289185,-9.2900763,3.8244274,7.2900763
9010,1.5083394,3.4955165,10.9845409,-10.1984730,-9.3969469,2.1908398
9020,1.6376256,3.2393384,11.3532467,-7.8244276,-16.1603050,1.4809160
9030,1.6041069,2.9520357,11.6046362,-4.1374044,-22.1984730,1.2061069
9040,1.6495966,3.1770895,11.2479019,10.9847326,-27.9389305,9.0687027
9050,1.8267666,3.3111639,10.7307568,11.9160309,-23.7175579,11.8625956
9060,1.9033806,3.4955165,10.2902260,9.9160309,-18.0916023,14.4885492
9070,2.0183017,3.8570392,10.1058741,6.1221375,-11.4122133,17.3664131
9080,2.1380112,4.0581512,10.6254129,-2.5648854,-1.6946565,21.5648861
9090,2.2002602,4.0389977,11.2048063,-2.4732823,-3.0916030,20.7175579
9100,2.1882892,4.0270267,11.8751793,6.1908398,-19.0534344,14.8625956
9110,2.3151813,4.1443419,11.9134865,13.0534353,-30.2671757,11.7557249
9120,2.5641768,4.2855992,11.5639353,18.8015270,-41.3206100,8.7633591
9130,2.8059900,4.5154414,11.1449518,20.8549614,-49.0916023,5.7328243
9140,3.0358322,4.6231799,11.0420017,19.3587780,-53.4732819,2.7099237
9150,3.1507533,4.6878228,11.3843708,17.4732819,-53.3282433,0.3893130
9160,3.1148405,5.0373745,11.4897156,16.2137413,-48.7480927,1.0916030
9170,3.3207407,5.9543490,11.6261835,13.1755724,-42.7633591,3.1221373
9180,3.5529771,8.3892403,12.5647058,4.7709923,-6.2366414,5.5648856
9190,1.3670821,9.8185711,14.4872408,0.9007633,16.4122143,9.0152674
9200,0.6847382,10.5966825,14.9205885,11.6488552,1.3053435,15.6183205
9210,0.9337339,11.9541883,14.2526102,23.5038166,-15.6030531,22.3435116
9220,1.8866212,13.4553452,12.3276815,28.9923668,-32.0992355,25.4045811
9230,4.4771342,14.4585104,10.0196829,23.8778629,-40.1755714,20.0000000
9240,6.6319046,14.6021614,5.5617023,-14.6946564,-31.4427490,-26.8625946
9250,6.1817970,13.6229382,4.1204000,-40.6793900,-52.8091621,-56.4122124
9260,5.8130918,12.3324699,3.7014170,-64.8091583,-82.0992355,-84.7633591
9270,5.3151007,10.2184010,4.0677280,-82.2442780,-111.8167953,-109.4045792
9280,4.4196739,7.4267755,4.8458395,-86.8091583,-141.0992432,-127.3893127
9290,3.8378856,5.1522956,4.8697815,-80.7938919,-163.9389343,-137.7022858
9300,3.6319854,2.5354466,3.7253587,-76.3969498,-158.0381622,-139.4580078
9310,3.3303175,-1.0749911,2.4013720,-75.8473282,-114.6030502,-132.1603088
9320,2.2529323,-5.6670465,0.8738791,-78.8702316,-53.2137413,-115.0763321
9330,1.0773853,-10.5871058,0.1077385,-81.7404556,0.4351145,-88.2748108
9340,1.1803354,-15.1600075,-0.4070122,-80.9923630,36.6030540,-54.3282433
9350,1.9823889,-19.2157650,-1.0414724,-81.6641235,51.2366409,-20.3587780
9360,3.5194585,-19.6131992,-1.6400198,-90.2824402,37.7480927,9.7251911
9370,5.5904322,-19.6131992,-1.9368993,-111.7786255,-3.0229008,29.7022896
9380,7.5369086,-19.6131992,-1.1085097,-152.2595367,-70.5954208,36.0763359
9390,9.3828287,-19.6131992,3.3901722,-202.7709961,-148.0152740,22.6259537
9400,11.3293047,-19.6131992,11.4897156,-232.4580078,-191.1450348,-7.5801525
9410,11.1712875,-19.6131992,19.6126022,-218.1145020,-189.9007568,-49.3587799
9420,8.3126259,-18.6962261,19.6126022,-138.8931274,-125.3969498,-85.3816757
9430,3.6415622,-16.3594971,19.6126022,6.3969464,-20.7251911,-91.8320618
9440,-0.1508339,-15.8064384,19.6126022,184.2213745,76.1221390,-60.3358765
9450,-1.3311694,-16.5414543,18.5693340,250.1297760,116.6183243,-4.0763359
9460,0.1029501,-15.1695843,6.2296810,250.1297760,111.5343475,42.5954208
9470,2.3247581,-11.6405487,-4.0150557,250.1297760,85.4885483,70.2366409
9480,4.2448978,-7.2136927,-11.0850973,250.1297760,50.4809151,80.4580154
9490,6.0596933,-3.3973548,-13.2374735,239.5038147,43.5190849,79.4656525
9500,6.7779503,-0.1604107,-10.8432837,151.1221313,69.2290039,72.0305328
9510,6.6510582,1.8195840,-6.5457139,85.5801544,100.2213745,64.7709961
9520,5.5329719,3.1004753,-2.2433555,41.5572510,130.7480927,58.2824440
9530,3.9360476,4.2041965,1.6088953,17.9312973,141.3893127,57.0763359
9540,2.9903426,4.5968437,4.6159973,10.7022905,135.0534363,62.1603050
9550,2.6240315,4.9392128,6.7779503,12.1526718,120.3282471,72.0992355
9560,2.9711890,5.8154860,8.0229292,20.4045811,104.2900772,81.6717529
9570,7.0053983,6.9455438,10.3405046,30.1068707,79.8396912,75.2213745
9580,7.3764977,6.9479380,10.4650021,33.9160309,73.7557220,59.7557259
9590,7.4100165,6.5505023,10.3117743,36.8320618,68.7557220,42.2366409
9600,6.3565731,6.6750002,10.0532017,36.6106873,65.4427490,26.5343513
9610,4.8290801,6.4738884,9.5097208,31.9389305,57.9236641,5.2824426
9620,3.4572096,5.8873119,8.8177996,25.7480907,50.9923668,-10.1603050
9630,2.9185169,5.7245069,8.5999289,20.3435116,47.6564903,-15.5648851
9640,2.4708035,5.4012914,8.3581152,14.2900763,43.5343513,-20.7175579
9650,0.3495516,5.5497313,8.6071110,-4.1068702,26.2061062,-28.0076332
9660,-0.1843526,5.4731169,8.8680773,-6.5496182,19.5038166,-25.6412220
9670,-0.3902529,5.2336984,9.0428534,-5.7251906,12.0916033,-21.9770985
9680,-0.5219333,4.9440012,8.8273764,-4.2442746,5.3969464,-16.1145039
9690,-0.4333483,5.1977854,8.0444765,-11.5038166,-0.4122137,2.5877862
9700,-0.0502780,5.6598639,8.3078375,-19.7786255,3.3969467,12.4427481
9710,0.6368544,6.0836353,8.7555504,-29.7938938,12.5114508,20.1679382
9720,1.1228749,6.7372489,9.3373384,-40.2595406,21.4656487,24.7786255
9730,1.7788827,7.0987716,10.1393919,-48.2977104,29.5496178,25.0229015
9740,2.2409613,7.1658092,10.7642756,-52.6717567,35.4198456,20.7786255
9750,2.3726418,7.1514440,11.4466200,-53.4198456,36.4045792,13.6259546
9760,2.2242019,6.9287844,11.8943329,-51.3740463,31.0305347,5.2748094
9770,1.5705882,6.7133074,12.2678270,-47.7404594,19.7709923,-1.6870229
9780,0.8762733,6.8330169,12.8065195,-42.7480927,3.6564887,-4.1984735
9790,0.7062859,6.9814563,13.3547888,-36.3129768,-7.8244276,-1.5877863
9800,0.8619082,7.0317345,13.6109667,-31.2061062,-5.9618320,3.6641221
9810,1.4077834,7.9032192,14.0419216,-29.6183205,14.3893127,15.6641226
9820,1.1803354,9.0500364,14.2717638,-33.9618340,31.3664131,22.4427490
9830,1.3670821,10.5583754,14.5806141,-42.9847336,46.7862587,29.6183205
9840,2.5162930,11.7770176,14.9277716,-58.2213745,62.2137413,27.5877857
9850,3.4356618,12.4785156,16.8957958,-69.9694672,57.1908379,10.2977095
9860,4.1754665,12.0786858,19.6126022,-65.4580154,28.2671757,-19.1832066
9870,4.6327567,10.9031391,19.6126022,-42.1603050,-15.8015270,-53.0381660
9880,4.1754665,10.1489687,19.6126022,-4.7709923,-58.3129768,-83.4961853
9890,3.0190730,9.7802639,19.6126022,37.0839691,-91.8625946,-103.9542007
9900,2.0135133,9.7587166,19.6126022,73.0763321,-111.3816757,-113.9083939
9910,0.7613522,9.7946291,17.2908363,95.8091583,-111.9236679,-114.2213745
9920,-0.7685348,10.0196829,14.1233234,101.2748108,-98.8091583,-103.8854980
9930,-2.4348907,10.4458485,11.1497402,102.2137375,-81.3664093,-82.5419846
9940,-2.7676830,10.7283630,8.0253229,100.3511429,-72.1068726,-57.0916023
9950,-2.2409613,10.9893293,4.6997938,90.1984711,-67.5877838,-37.4885483
9960,-0.8020535,11.0563669,1.1109039,70.8091583,-63.7709923,-23.7404575
9970,1.2162483,10.4171181,-2.3127871,36.9771004,-49.5954208,-18.1526718
9980,2.5306582,9.1841106,-4.6590929,-9.8244276,-29.3511448,-22.1603050
9990,2.7389526,7.1610208,-5.1570840,-60.9160309,-11.0839691,-33.9923668
