timestamp,acclX,acclY,acclZ,gyroX,gyroY,gyroZ
0,2.0278785,0.3663110,9.5408449,0.3282443,-1.6793894,0.8396947
10,1.9919657,0.4285599,9.6485834,-1.0687023,-1.5267175,0.2900763
20,1.8315549,0.2250538,9.9670105,-1.3740458,0.2137405,-0.9694657
30,1.7405758,0.2753318,10.0627785,0.1145038,-1.9770992,0.5725191
40,1.8531027,0.2992737,10.0148945,1.3816794,-3.0458016,0.4503817
50,1.9488702,0.2681492,9.9047613,1.5419847,-3.8931298,0.3129771
60,1.9225341,0.2298422,9.7994175,1.3511450,-4.9007635,-0.3206107
70,1.9776005,0.2753318,9.8089943,0.8091603,-4.4656487,-1.3435115
80,1.9033806,0.3782819,9.7946291,0.7633588,-5.1526718,-1.3511450
90,1.9009864,0.4237715,9.7467451,0.6641222,-6.4580154,-1.0152671
100,1.8722562,0.3399749,9.7874460,0.1603053,-6.7022901,-0.7709923
110,1.8387375,0.4094064,9.7563219,0.0381679,-7.4732823,0.0152672
120,1.8195840,0.4501076,9.8185711,-0.3282443,-8.5877867,0.9694657
130,2.0230901,0.3471575,9.8473015,-0.4274809,-9.4274807,2.0534351
140,2.0087249,0.3495516,9.8233595,-0.3129771,-8.7251911,2.1679389
150,1.9680238,0.3758878,9.9071560,-0.2213740,-8.1374044,2.7328243
160,2.0398495,0.4692611,9.6653433,-0.3664122,-8.1526718,2.9312978
170,2.1260402,0.3998296,9.7012558,-0.5725191,-8.7251911,3.0000000
180,2.1978660,0.2896969,9.7012558,-1.4503816,-9.1603050,2.2900763
190,2.1978660,0.4141948,9.6414013,-2.0992367,-9.5801525,1.6412214
200,2.2074428,0.2920911,9.8161764,-0.2900763,-9.5267172,3.4427481
210,2.2649033,0.3184272,9.8113880,-0.2213740,-8.8702288,3.5801528
220,2.3989778,0.3423691,9.7635050,-0.4274809,-8.7633591,3.5877862
230,2.4612267,0.3639168,9.6246414,-1.1984733,-8.0000000,3.1603053
240,2.4899571,0.4309541,9.5719690,-1.9618320,-8.0076332,2.1145039
250,2.5091105,0.4668669,9.5480280,-3.0076337,-7.8625956,1.0763359
260,2.5043221,0.4405309,9.5935173,-4.0229006,-7.2442746,0.0229008
270,2.4899571,0.3471575,9.5719690,-5.6335878,-10.2290077,-2.6412213
280,2.6072724,0.3782819,9.5288744,-6.6946564,-10.5954199,-3.9389312
290,2.5569944,0.2753318,9.6222477,-7.4045801,-11.4122133,-4.8778625
300,2.4875629,0.2370248,9.7204094,-7.7175574,-12.4961834,-5.2442746
310,2.5426292,0.2394189,9.7658987,-7.9618320,-13.0305347,-5.5190840
320,2.5881188,0.2873027,9.6892843,-8.0839691,-13.9007635,-5.5572519
330,2.6192431,0.2466015,9.5959110,-8.6335878,-16.4580154,-6.5190840
340,2.7197993,0.2849085,9.4163475,-9.8091602,-19.2824421,-7.3740458
350,2.8706331,0.4237715,9.3038206,-11.8625956,-22.8167934,-9.1450386
360,2.9879484,0.4261657,9.2296000,-14.3053436,-27.2366409,-11.8778629
370,3.0214672,0.5195391,9.3469152,-16.6946564,-29.7022896,-15.2213745
380,2.9975252,0.4596844,9.6078825,-18.6870232,-29.9541988,-18.3969460
390,2.8610563,0.2298422,9.7395630,-19.4274807,-32.0076332,-20.8854961
400,2.7126167,0.0909792,9.9574337,-19.0458012,-35.3435097,-21.3053436
410,2.9927368,-0.1436514,9.7491398,-19.4274807,-39.9847336,-19.3969460
420,3.6583214,-0.0311245,9.5336628,-23.0916023,-45.6793900,-17.7862587
430,4.0581512,0.2705434,9.3756456,-29.7480907,-53.4045792,-18.0381680
440,4.0796990,0.3471575,9.6030941,-36.8167953,-67.8091583,-20.4961834
450,4.0701222,0.3806761,10.1393919,-40.3435097,-89.0534363,-22.8167934
460,4.1156116,0.4525018,10.5224628,-41.1984749,-112.9618301,-23.8320618
470,4.3741841,0.4141948,10.7906122,-39.6259537,-137.1984711,-24.2671757
480,4.7644372,0.4453192,11.5232334,-37.3511467,-159.0992432,-25.2824421
490,5.3222833,0.2250538,12.3755655,-30.6793900,-180.0763397,-26.4809170
500,6.2847471,0.0454896,12.8137016,-19.2671757,-198.4885559,-26.3587780
510,8.1953106,0.3040621,12.2869806,-10.6412210,-195.4809113,-28.5496178
520,10.2255831,0.5746055,11.7818060,-11.6564884,-165.8931274,-35.4809151
530,11.5950594,0.5003856,11.4873209,-19.0763359,-128.6641235,-48.9312973
540,12.7299051,0.1053443,11.6812506,-28.3969460,-96.3206100,-69.2519073
550,13.4936514,-0.5027798,12.4234495,-33.4122124,-79.5496216,-96.6641235
560,14.1951494,-1.1276633,13.8575687,-27.0229015,-79.8549652,-133.0534363
570,14.6189203,-2.0087249,15.4544926,-8.6106873,-99.1450348,-179.7557220
580,14.2957048,-3.1339941,16.7377777,20.7099228,-132.0763397,-230.6564941
590,13.6780043,-4.3646073,17.0562057,55.6870232,-172.2671814,-250.1374054
600,12.6676559,-5.5425487,17.0705700,88.9160309,-219.2137451,-250.1374054
610,10.7786407,-6.4930420,16.9795914,119.3816757,-250.1374054,-250.1374054
620,8.5592270,-6.8904772,16.1272602,144.5572510,-250.1374054,-250.1374054
630,6.6342988,-6.8258343,15.1887379,162.5190887,-250.1374054,-250.1374054
640,4.8985114,-6.1626434,13.9748840,175.0381622,-250.1374054,-250.1374054
650,4.1563129,-5.7197185,12.2630386,180.9618378,-249.1603088,-250.1374054
660,4.2161674,-4.7285242,11.1688938,182.7404633,-225.0763397,-250.1374054
670,4.7883787,-4.0270267,10.7403336,185.6412201,-210.2824402,-250.1374054
680,4.9056940,-3.4811516,10.5559816,194.1603088,-205.3053436,-250.1374054
690,4.7859845,-3.2010312,9.8544836,206.0305328,-203.6488495,-250.1374054
700,4.4651632,-2.8466914,9.1912937,217.9541931,-206.0458069,-250.1374054
710,4.1204000,-2.5857246,8.0540533,228.1603088,-205.9313049,-250.1374054
720,3.9432299,-2.2768741,6.9216018,235.4809113,-198.3664093,-250.1374054
730,3.3470769,-1.6519908,6.1147599,241.7022858,-189.8854980,-250.1374054
740,2.6934631,-1.3982066,4.9248476,247.7633514,-176.6106873,-250.1374054
750,2.3032103,-1.0055596,3.7900019,250.1297760,-167.6793823,-250.1374054
760,1.5179161,-0.5267217,2.8227494,250.1297760,-165.8931274,-250.1374054
770,1.3168042,-0.2011119,1.3215926,250.1297760,-172.4274750,-250.1374054
780,1.0079538,0.4884146,0.0119709,250.1297760,-181.8015289,-250.1374054
790,0.2154770,0.9361281,-2.0350611,250.1297760,-183.6717529,-250.1374054
800,-1.4915800,1.5538290,-4.6519103,249.7786255,-184.2290039,-250.1374054
810,-4.5896611,2.3151813,-6.4379754,235.3816833,-199.2366486,-250.1374054
820,-8.8656836,2.8179610,-8.3461447,217.4045868,-227.3816833,-250.1374054
830,-14.0443153,3.4212968,-10.0053177,195.0839691,-250.1374054,-250.1374054
840,-19.6131992,3.9121056,-11.6836443,167.7786255,-250.1374054,-250.1374054
850,-19.6131992,5.2217274,-13.1608591,130.2671814,-250.1374054,-250.1374054
860,-19.6131992,6.2320752,-13.9677010,84.7709961,-250.1374054,-211.1908417
870,-19.6131992,6.4595232,-14.6093445,24.3053436,-250.1374054,-118.2213745
880,-19.6131992,6.0956063,-13.8048964,-45.9236641,-147.5725250,-17.0381680
890,-19.6131992,5.2648225,-10.9366570,-111.0916061,-51.0228996,84.6030502
900,-19.6131992,4.4364328,-6.6869712,-149.5725250,5.2824426,172.9847260
910,-19.6131992,3.5338237,-3.0908985,-154.6412201,18.3664131,245.9465637
920,-19.6131992,2.6479735,-0.9792235,-137.2595367,3.8320611,250.1297760
930,-17.4416695,2.0997043,-0.7421987,-115.5877838,-7.2137403,250.1297760
940,-13.0267849,1.6160779,-1.8914096,-103.0229034,2.1374047,250.1297760
950,-8.7531567,0.9480990,-3.4404502,-105.1221390,42.3511467,250.1297760
960,-5.3055239,0.0550664,-4.9559722,-125.7099228,103.0610657,250.1297760
970,-1.9105632,-1.1372399,-5.4611464,-162.4961853,171.0763397,250.1297760
980,1.7717001,-2.8442972,-5.0565281,-211.2442780,237.7480927,250.1297760
990,6.5864153,-4.2065907,-2.7748656,-250.1374054,250.1297760,250.1297760
1000,13.3500004,-4.8362627,1.5370697,-250.1374054,250.1297760,250.1297760
1010,19.6126022,-4.2520804,7.5728211,-250.1374054,247.1145020,250.1297760
1020,19.6126022,-1.6112895,14.6548338,-250.1374054,132.7022858,250.1297760
1030,19.6126022,0.4740495,19.6126022,-216.4580078,3.0687022,105.2442780
1040,19.6126022,-0.3375807,19.6126022,-129.4274750,-98.0687027,-83.5648880
1050,19.6126022,-2.7724714,19.6126022,-44.7099228,-167.2748108,-226.3053436
1060,19.6126022,-3.8857694,19.1894283,18.3587780,-204.6641235,-250.1374054
1070,19.6126022,-4.2496862,17.9659977,62.6259537,-198.8091583,-250.1374054
1080,18.1000729,-3.8426740,17.0585995,97.7099228,-142.4885559,-250.1374054
1090,15.4353390,-3.5673423,15.9357252,129.9007568,-54.9236641,-250.1374054
1100,12.6389265,-3.1052637,14.8224268,165.6335907,31.9160309,-250.1374054
1110,10.2327662,-3.1651185,13.3787308,205.5038147,100.1755753,-250.1374054
1120,8.5328913,-2.9831600,10.4985209,246.1221313,146.4122162,-250.1374054
1130,8.4299412,-2.3415172,7.2927012,250.1297760,180.1679382,-250.1374054
1140,8.5376797,-2.2074428,2.9999194,250.1297760,206.9847260,-250.1374054
1150,8.5257082,-2.9089401,-2.1260402,250.1297760,215.7633514,-250.1374054
1160,6.9287844,-4.3215117,-7.5536675,250.1297760,189.8702240,-250.1374054
1170,1.2162483,-6.2727766,-11.6166077,250.1297760,113.1603088,-250.1374054
1180,-10.9989061,-7.4842362,-15.9764261,250.1297760,-36.2595406,-250.1374054
1190,-19.6131992,-5.7292953,-18.9883175,250.1297760,-241.1374054,-250.1374054
1200,-19.6131992,-1.2904681,-19.6131992,250.1297760,-250.1374054,-250.1374054
1210,-19.6131992,2.4157372,-19.6131992,178.8625946,-250.1374054,-250.1374054
1220,-19.6131992,2.8658447,-19.6131992,57.2824440,-212.5190887,-235.6183167
1230,-19.6131992,2.9137285,-18.0186691,-65.9389343,7.3969464,-86.8015289
1240,-19.6131992,3.0430148,-11.0827026,-141.4274750,143.3893127,38.7862587
1250,-19.6131992,3.3398943,-5.1738434,-150.7099304,146.5267181,127.8778610
1260,-19.6131992,2.1188576,-2.7868366,-123.5725174,83.8015289,195.9694672
1270,-19.6131992,2.9113343,-2.3822186,-86.7480927,4.2366414,246.5648804
1280,-19.6131992,2.4205256,-2.8490853,-61.4961815,-57.6870232,250.1297760
1290,-19.2253418,2.0542145,-4.1419477,-45.5419846,-86.8396912,250.1297760
1300,-15.9213600,1.5945302,-5.7747850,-44.5954208,-84.7022934,250.1297760
1310,-12.6413202,1.0055596,-7.3070664,-55.0076332,-62.4503822,250.1297760
1320,-9.2679071,0.4548960,-8.8848372,-79.8625946,-18.9465656,250.1297760
1330,-6.1482787,-0.5578461,-9.8664551,-122.5648880,44.6259537,250.1297760
1340,-3.0071020,-1.8770446,-9.5121145,-179.0686951,119.9236679,250.1297760
1350,-0.1173153,-3.6248028,-7.7475972,-239.1068726,191.3664093,250.1297760
1360,3.4619980,-5.7197185,-4.8602047,-250.1374054,249.8244324,250.1297760
1370,8.4443064,-7.4219875,-1.2880739,-250.1374054,250.1297760,250.1297760
1380,16.2828827,-7.5800037,3.9552009,-250.1374054,236.7251892,250.1297760
1390,19.6126022,-5.5186067,11.4538021,-250.1374054,142.4656525,250.1297760
1400,19.6126022,-1.7645177,19.6126022,-250.1374054,25.1984730,250.1297760
1410,19.6126022,0.7709290,19.6126022,-186.6412201,-56.0916023,83.5877838
1420,19.6126022,0.2466015,19.6126022,-71.7862625,-87.8473282,-94.8091583
1430,19.6126022,-1.4484847,19.6126022,34.5267181,-118.4961853,-227.2900696
1440,19.6126022,-2.6743097,19.6126022,113.6183243,-166.8702240,-250.1374054
1450,17.6834831,-2.9783716,17.3866043,167.2519073,-194.8091583,-250.1374054
1460,13.5175934,-2.2337787,13.7881374,198.5648804,-172.2519073,-250.1374054
1470,10.7259684,-1.0821736,10.6038647,214.4198456,-110.9465637,-250.1374054
1480,8.3293848,-0.3758878,7.3094602,218.9541931,-39.0992355,-250.1374054
1490,6.4643116,0.7086801,4.7428894,218.4503784,31.0458012,-250.1374054
1500,5.4108682,1.5658000,3.2225790,218.0610657,94.9083939,-250.1374054
1510,4.6902170,1.9105632,1.8435259,223.4503784,139.8549652,-250.1374054
1520,4.2544746,1.5394639,-0.1244979,235.7099304,163.8549652,-250.1374054
1530,3.4619980,0.9217629,-2.8586621,248.7938995,167.1832123,-250.1374054
1540,2.0063307,-0.1819584,-5.3869262,250.1297760,142.8778687,-250.1374054
1550,-0.3806761,-1.6112895,-7.5895805,250.1297760,87.4656525,-250.1374054
1560,-2.7006457,-2.4324965,-10.0340481,250.1297760,18.1984730,-250.1374054
1570,-7.2472115,-2.7796540,-12.3588057,250.1297760,-36.3587799,-250.1374054
1580,-15.7824965,-2.3870070,-13.6588507,231.7099304,-89.5496216,-250.1374054
1590,-19.6131992,-1.2617378,-13.7019463,196.6488495,-153.7251892,-250.1374054
1600,-19.6131992,0.9576758,-13.3835192,157.4961853,-202.8167877,-250.1374054
1610,-19.6131992,2.7293761,-14.8224268,107.7404556,-197.3969421,-218.0229034
1620,-19.6131992,3.4045374,-16.2421818,39.6717567,-123.6488571,-84.7862625
1630,-19.6131992,2.9137285,-16.2948532,-36.2290077,-8.2977095,33.6259537
1640,-19.6131992,2.8347204,-14.0251617,-103.3129807,80.6030502,113.9847336
1650,-19.6131992,2.6312141,-10.8145542,-143.5648804,108.1374054,159.5114441
1660,-19.6131992,2.1739240,-7.8792777,-150.8473358,82.1679382,186.8473358
1670,-19.6131992,2.3175755,-6.0381460,-136.1068726,18.5267181,207.5648804
1680,-17.8774128,2.5641768,-5.4132624,-115.5572510,-41.7175560,229.1908417
1690,-16.1105003,2.8442972,-5.9974446,-103.3435135,-75.7251892,250.1297760
1700,-13.9677010,3.1483591,-6.5648675,-103.9694672,-79.4809189,250.1297760
1710,-12.2486734,3.2393384,-6.5217719,-114.6259537,-60.6870232,250.1297760
1720,-10.8815908,2.7844424,-6.1722202,-130.9160309,-30.7862587,250.1297760
1730,-8.9901810,2.0590029,-5.5090299,-147.7099304,1.2213740,250.1297760
1740,-6.2751703,1.3670821,-5.0301919,-165.6030579,39.8702278,250.1297760
1750,-3.4260850,0.7086801,-4.6279683,-187.7328186,84.9083939,250.1297760
1760,-0.8954269,0.0191535,-4.2353210,-216.1374054,131.3969421,250.1297760
1770,1.1899122,-0.8930327,-3.7229645,-248.2519073,175.7862549,250.1297760
1780,3.3446827,-1.8315549,-2.3032103,-250.1374054,207.3511505,250.1297760
1790,6.0285692,-2.9065459,0.2418131,-250.1374054,209.1221313,250.1297760
1800,10.2447367,-3.6271970,3.3422885,-250.1374054,166.8320618,250.1297760
1810,17.1280308,-2.5450234,8.1043310,-250.1374054,75.5419846,250.1297760
1820,19.6126022,-0.0167593,13.9246063,-248.8473358,-40.0000000,250.1297760
1830,19.6126022,2.8586621,18.8135414,-174.3511505,-120.8320618,119.4580154
1840,19.6126022,3.9336534,19.6126022,-96.2519073,-127.8473282,-15.4809160
1850,19.6126022,3.1555417,19.6126022,-29.7633591,-89.7175598,-138.8396912
1860,19.6126022,1.5298871,19.0649300,25.7938938,-71.9389343,-232.1297760
1870,19.6126022,0.1723816,18.5382080,82.2519073,-93.2213745,-250.1374054
1880,15.8830528,-0.3303981,17.0849361,138.9236603,-117.5648880,-250.1374054
1890,13.0363617,0.2801202,13.9078465,187.4122162,-115.4961853,-250.1374054
1900,10.7259684,1.3455344,9.7060442,215.1145020,-85.0457993,-250.1374054
1910,9.2032642,2.6168492,6.3829093,224.0763397,-37.5725174,-250.1374054
1920,8.3676920,3.1842721,4.2927818,226.7328186,13.3282442,-250.1374054
1930,7.7954807,2.7461352,2.3439114,233.7862549,54.2213745,-250.1374054
1940,6.6773944,1.1061156,0.3375807,247.7404633,75.3282471,-250.1374054
1950,3.3255291,-1.7501525,-2.1451938,250.1297760,56.7633591,-250.1374054
1960,-2.4947455,-5.1858144,-4.5609307,250.1297760,-17.1755733,-250.1374054
1970,-9.1721401,-6.9742737,-6.9168134,250.1297760,-122.1374054,-250.1374054
1980,-16.7665081,-6.1267309,-9.5312681,250.1297760,-207.2595367,-250.1374054
1990,-19.6131992,-3.9695661,-11.7195578,238.2824402,-250.1374054,-250.1374054
2000,-19.6131992,0.4668669,-11.2311430,183.6870270,-250.1374054,-250.1374054
2010,-19.6131992,2.2481439,-13.1704359,115.9923630,-250.1374054,-250.1374054
2020,-19.6131992,2.7197993,-15.1552191,19.4122143,-203.7862549,-86.2900772
2030,-19.6131992,2.6719155,-13.8264437,-90.7251892,-21.4809170,67.8244247
2040,-19.6131992,2.1882892,-8.1067257,-161.9236603,99.9542007,175.1374054
2050,-19.6131992,1.5658000,-3.5745249,-186.6106873,131.6641235,241.6488495
2060,-19.6131992,0.9480990,-0.8020535,-178.8778687,95.6335907,250.1297760
2070,-19.4575768,1.1324517,0.8858501,-150.1450348,30.3893127,250.1297760
2080,-15.5909615,1.3694763,0.3854645,-119.4885483,-19.1603050,250.1297760
2090,-13.2422619,1.0175306,-1.1587877,-103.6259537,-33.2213745,250.1297760
2100,-10.5248566,0.4501076,-2.2170193,-106.8320618,-20.2290077,250.1297760
2110,-7.4938130,-0.4453192,-3.1339941,-125.4351120,19.0381680,250.1297760
2120,-4.4795284,-1.3527170,-3.4452386,-157.0992432,81.2824402,250.1297760
2130,-1.4843974,-2.7150109,-3.2920105,-200.4122162,158.5496216,250.1297760
2140,1.1444225,-4.1587071,-1.8722562,-250.1374054,238.2519073,250.1297760
2150,3.5817075,-5.8537931,0.6009415,-250.1374054,250.1297760,250.1297760
2160,7.7212610,-7.0030041,4.9272418,-250.1374054,250.1297760,250.1297760
2170,15.8016500,-5.7963328,11.5232334,-250.1374054,216.2442780,250.1297760
2180,19.6126022,-2.4731977,19.5078564,-250.1374054,103.7786255,250.1297760
2190,19.6126022,1.5083394,19.6126022,-166.8091583,10.6259546,186.1908417
2200,19.6126022,3.2273674,19.6126022,-52.7786255,-31.1984730,14.3664122
2210,19.6126022,1.9345051,19.6126022,50.6870232,-49.9771004,-134.4045868
2220,19.6126022,1.0271072,19.6126022,134.5725250,-98.1908417,-245.4809113
2230,17.5637741,-0.0478838,16.4863892,195.7404633,-150.2061005,-250.1374054
2240,12.7993364,0.0359128,12.2941628,236.9770966,-172.1603088,-250.1374054
2250,9.4355011,0.8140244,8.4251528,250.1297760,-152.3053436,-250.1374054
2260,6.8138633,1.7094513,4.7500720,250.1297760,-109.5419846,-250.1374054
2270,4.7500720,2.8826041,1.7142396,248.5725250,-52.1145020,-250.1374054
2280,3.0980811,3.2417326,-0.1963235,229.4122162,9.1068707,-250.1374054
2290,2.0781565,3.1124463,-1.2138541,212.9160309,56.3282433,-250.1374054
2300,0.9768293,2.6383967,-2.3103929,204.2748108,90.5496216,-250.1374054
2310,-0.7302278,1.5203103,-3.6439564,201.1603088,104.2900772,-250.1374054
2320,-3.0334380,0.5315101,-4.8697815,200.2900696,95.2442780,-250.1374054
2330,-7.4219875,-0.4094064,-6.5576849,198.6335907,58.3511467,-250.1374054
2340,-14.1041698,-0.8523315,-7.6374645,195.6641235,-22.3282452,-250.1374054
2350,-19.6131992,-0.1771700,-8.2000990,192.0305328,-145.8473358,-250.1374054
2360,-19.6131992,1.8171898,-9.8065996,179.9847260,-250.1374054,-250.1374054
2370,-19.6131992,3.7708483,-13.1967726,138.3893127,-250.1374054,-243.0534363
2380,-19.6131992,3.9863255,-15.7633438,61.0992355,-176.0992432,-137.5801544
2390,-19.6131992,3.4189026,-15.8806591,-39.6030540,-26.7709923,-18.0839691
2400,-19.6131992,3.1220231,-11.9996777,-126.1984711,100.0305328,87.7557220
2410,-19.6131992,2.5330524,-6.9886389,-169.6488495,157.4351196,165.2137451
2420,-19.6131992,1.9081690,-3.3231349,-175.4503784,144.5648804,220.9236603
2430,-19.6131992,2.2744799,-1.1587877,-158.2290039,93.3511429,250.1297760
2440,-18.9500103,2.3319404,-0.3567342,-136.1297760,42.0992355,250.1297760
2450,-16.5677910,2.2337787,-0.6057299,-120.2977066,11.6870232,250.1297760
2460,-13.9437590,2.1044924,-0.8307837,-114.2442780,8.9007635,250.1297760
2470,-10.9079275,1.7118455,-1.2138541,-116.7251892,29.1145039,250.1297760
2480,-7.8218169,1.2354017,-1.7405758,-129.2671814,67.2442780,250.1297760
2490,-4.9224534,0.8283895,-2.0853391,-150.8549652,115.6717529,250.1297760
2500,-2.3151813,0.0383070,-1.7621235,-179.7328186,162.7480927,250.1297760
2510,0.4548960,-0.7350162,-0.6344602,-209.1068726,197.7709961,250.1297760
2520,3.8833754,-1.6184721,1.0390782,-232.7938995,209.3435059,250.1297760
2530,8.8537130,-1.9943599,3.8809812,-243.2824402,184.5038147,250.1297760
2540,16.2804890,-0.5602403,8.3150196,-230.3587799,116.8244247,250.1297760
2550,19.6126022,2.2577207,13.6827927,-187.4045868,31.7862587,250.1297760
2560,19.6126022,5.3725610,18.2652721,-118.4503784,-27.3969460,173.2977142
2570,19.6126022,6.6462698,19.6126022,-37.3587799,-44.3740463,24.7862587
2580,19.6126022,6.0716643,19.1415443,40.5801544,-47.0763359,-109.4122162
2590,19.6126022,5.1044121,16.3403435,110.3587799,-79.1984711,-215.2213745
2600,16.9532547,4.1275826,13.5630836,168.0000000,-124.4961853,-250.1374054
2610,11.9278517,3.5721307,10.0364418,211.1908417,-153.1221313,-250.1374054
2620,8.6549950,4.1706781,6.2512288,234.7480927,-152.2595367,-250.1374054
2630,6.4403696,4.9703374,3.0645626,238.0534363,-125.7709961,-250.1374054
2640,4.5369892,5.1451130,0.4165890,226.7175598,-83.2977066,-250.1374054
2650,2.7245877,5.0732875,-1.6831152,207.4198456,-32.1450386,-250.1374054
2660,0.9385223,4.7165532,-2.6767037,189.9084015,7.4198475,-250.1374054
2670,-2.7676830,3.5984666,-3.7732425,181.2213745,15.7251911,-250.1374054
2680,-8.4036045,2.6958573,-5.1475072,178.8167877,-23.4274807,-250.1374054
2690,-15.1480370,2.5067163,-6.9311786,176.4885559,-107.9236679,-250.1374054
2700,-19.6131992,3.6152260,-8.5185261,167.9389343,-207.7251892,-250.1374054
2710,-19.6131992,5.8226686,-10.8313131,140.5267181,-250.1374054,-250.1374054
2720,-19.6131992,6.7971039,-12.9956608,84.2748108,-218.9923706,-196.8396912
2730,-19.6131992,6.7587967,-13.7618008,5.4503818,-107.6488571,-96.2213745
2740,-19.6131992,6.3039007,-12.0858688,-75.2213745,20.8931293,6.3740458
2750,-19.6131992,5.7771792,-8.1761570,-134.0076294,108.8015289,96.7557220
2760,-19.6131992,4.9942794,-4.2975702,-155.2137451,141.4732819,170.0534363
2770,-19.6131992,4.3263001,-2.1116750,-158.9770966,136.3893127,228.0305328
2780,-17.3985748,4.0940638,-0.3040621,-153.5114441,119.1297684,250.1297760
2790,-13.8503857,3.8618276,0.5339043,-143.6717529,109.8625946,250.1297760
2800,-10.3835993,3.5625539,0.3208214,-136.2519073,111.7251892,250.1297760
2810,-6.8569584,3.4045374,-0.7781116,-135.8244324,121.2595444,250.1297760
2820,-3.9025288,3.3327117,-1.8938038,-145.6335907,132.0458069,250.1297760
2830,-0.8331779,3.0597742,-2.6695213,-165.2748108,140.6946564,250.1297760
2840,2.5019281,2.4708035,-2.1451938,-187.2824402,128.0076294,250.1297760
2850,6.8258343,2.1260402,-0.1268920,-198.6259613,80.4351120,250.1297760
2860,12.0236197,2.5905130,2.8897867,-191.1221313,6.3129773,250.1297760
2870,17.5039196,3.8690102,6.0596933,-167.4961853,-66.0457993,200.8091583
2880,19.6126022,5.3103123,9.2535419,-133.4351196,-114.6183243,113.2977066
2890,19.6126022,6.1434903,11.8464499,-94.9923630,-122.7099228,23.6259537
2900,19.6126022,6.4068508,14.2502155,-52.7251892,-91.0076370,-61.9618340
2910,19.6126022,6.0740585,16.0530396,-5.8091602,-47.6717567,-136.2519073
2920,16.7760849,5.2648225,16.3978043,51.3053436,-23.0458012,-192.5572510
2930,12.1433287,4.3741841,14.8583393,111.5877838,-26.4961834,-229.5801544
2940,8.4131813,3.9288650,11.8967276,165.1221313,-42.7862587,-250.1374054
2950,6.2344694,4.1443419,8.2384062,201.4656525,-45.4656487,-250.1374054
2960,4.9583664,4.4795284,4.7309184,218.3435059,-27.6412220,-250.1374054
2970,3.8259149,4.4555864,1.9728121,220.3206177,4.3893127,-250.1374054
2980,2.4109488,3.8522508,0.1077385,216.1832123,38.6259537,-250.1374054
2990,0.9313397,3.0837159,-1.0414724,213.3740387,62.9694672,-250.1374054
3000,-1.5011568,2.1188576,-2.3008161,213.7328186,71.6946564,-250.1374054
3010,-4.8602047,1.1300575,-3.6463506,215.0839691,60.2595406,-250.1374054
3020,-8.9614515,0.7134684,-5.2767935,214.0686951,26.0229015,-250.1374054
3030,-13.7019463,1.0247130,-7.1897511,207.2519073,-17.0839691,-250.1374054
3040,-19.6131992,1.5466464,-9.1194677,189.4885559,-81.0534363,-250.1374054
3050,-19.6131992,2.7724714,-10.1609402,166.5114441,-160.0686951,-227.3129730
3060,-19.6131992,4.2999644,-12.0906563,132.7862549,-186.9313049,-143.7633514
3070,-19.6131992,5.4922705,-14.4944229,74.7328262,-130.6641235,-52.4503822
3080,-19.6131992,5.4970589,-15.1887379,-0.9007633,-16.8091602,44.4580154
3090,-19.6131992,5.1810260,-13.1967726,-77.4351120,90.1984711,131.3740387
3100,-19.6131992,4.7811961,-9.0572186,-125.6946564,147.2290039,197.7480927
3110,-19.4527893,4.3670015,-5.7915444,-140.6793823,154.1755676,243.5648804
3120,-16.8167858,4.4723458,-3.9480183,-136.7480927,129.6793823,250.1297760
3130,-14.1975431,4.6112089,-3.3949606,-127.5114517,99.4732819,250.1297760
3140,-11.2694502,4.6136031,-4.0030847,-124.8702316,84.6412201,250.1297760
3150,-8.5520449,4.6519103,-4.7285242,-134.0534363,86.5572510,250.1297760
3160,-5.7819676,4.5274124,-5.1163831,-153.3129730,101.0763321,250.1297760
3170,-3.5218527,4.1515245,-5.0134325,-179.2900696,126.0381699,250.1297760
3180,-1.1587877,3.4428444,-4.2305326,-207.1984711,144.2824402,250.1297760
3190,1.6687500,2.5210814,-2.4875629,-230.3129730,140.6564941,250.1297760
3200,5.3701668,2.0925217,-0.2082945,-240.0076294,109.2595444,250.1297760
3210,9.4929609,2.3606708,2.3774302,-231.7099304,51.2595406,250.1297760
3220,13.9174232,3.3422885,5.4467812,-206.6259613,-18.7022896,250.1297760
3230,18.5286331,4.9416070,8.4179697,-168.4885559,-78.9847336,205.3206177
3240,19.6126022,6.9359670,11.1760759,-122.1297684,-108.3587799,122.1145020
3250,19.6126022,8.2671366,13.2231083,-73.6259537,-91.9694672,34.6793900
3260,19.6126022,8.6430235,14.0754395,-25.4656487,-42.7480927,-50.2442741
3270,18.7153797,7.8170285,13.9413652,22.1526718,-1.6412214,-119.7328262
3280,13.6756105,6.8330169,12.8783455,74.0534363,2.2366412,-170.9847260
3290,9.5815458,6.1147599,10.9486284,123.9542007,-17.4351139,-205.7557220
3300,6.4451580,5.6191626,8.3676920,164.0305328,-34.5725174,-227.1374054
3310,4.0677280,5.7484488,5.2767935,190.5267181,-39.4809151,-239.7328186
3320,2.3941894,6.0716643,2.4923513,200.0686951,-29.4885502,-247.0305328
3330,0.2226596,6.0692701,0.2777260,198.9160309,-17.4198475,-250.1374054
3340,-2.8371146,5.9950504,-1.7621235,194.5572510,-19.4427490,-250.1374054
3350,-5.7005649,6.1147599,-3.6128318,189.7328186,-40.8396950,-241.6106873
3360,-9.0045462,6.6965480,-5.9758968,181.2595367,-78.5267181,-222.6793823
3370,-11.8656025,7.5369086,-8.6597834,163.2977142,-119.7633591,-192.4045868
3380,-13.3883076,8.6023226,-10.8169479,131.8778687,-142.3053436,-152.1068726
3390,-13.6875811,9.6557665,-12.1744537,86.8854980,-124.1145020,-106.3282471
3400,-14.1879663,10.0771437,-12.9501705,31.4961834,-66.1068726,-55.0305328
3410,-15.2174683,9.6222477,-12.1098099,-24.9007626,7.9389315,-0.3053435
3420,-15.9548788,9.2942438,-10.2519188,-72.5267181,67.3587799,55.0076332
3430,-15.7010946,8.5496502,-7.8792777,-102.8244247,97.0000000,103.1145020
3440,-14.5925846,7.9798336,-5.9902620,-119.3969498,103.0076370,145.8244324
3450,-12.4521790,7.6757712,-4.5489597,-125.5648880,96.6946564,178.9694672
3460,-10.1489687,7.4962072,-3.9575951,-128.3740387,88.6488571,203.5648804
3470,-8.2671366,7.2424231,-3.5122759,-133.4274750,83.8167953,221.9313049
3480,-6.1961622,6.9503322,-3.1986370,-139.9313049,83.9389343,236.7633514
3490,-4.3286943,6.6534524,-2.8849983,-148.2137451,91.0305328,248.6564941
3500,-2.7485294,6.1410961,-2.4923513,-159.1679382,101.2213745,250.1297760
3510,-1.0175306,5.6478930,-1.8028246,-171.5343475,109.8778610,250.1297760
3520,0.9576758,5.1594782,-0.5865764,-181.1908417,109.7709961,250.1297760
3530,3.1603301,4.6255741,0.7278336,-185.9541931,97.8320618,250.1297760
3540,6.0046272,4.5322008,2.2816625,-183.5725250,73.5343475,236.5954132
3550,9.4690189,5.1427188,4.5920553,-170.7709961,36.2519073,202.0381622
3560,12.6556854,5.8106980,6.9239960,-147.4580078,-0.4885496,153.2900696
3570,14.5830078,6.3206601,8.8992023,-116.2900772,-24.0152664,98.7709961
3580,15.2150736,6.5720501,10.2662840,-80.0534363,-32.0763359,46.2366409
3590,14.7482071,6.6893654,11.1569233,-42.0610695,-32.1450386,-1.2900764
3600,13.1536770,6.7180958,11.4011297,-2.7022901,-30.1984730,-40.9083977
3610,10.9414454,6.6534524,10.5464048,35.0839691,-29.8396950,-68.7175598
3620,9.0620070,6.6031747,9.2152348,68.1221390,-32.0763359,-86.6335907
3630,7.5512733,6.6175399,7.4650826,93.2748108,-31.6946564,-97.0076370
3640,6.1841912,6.7396431,5.5904322,107.9694672,-22.5038166,-101.1526718
3650,5.0613165,7.1203194,3.9480183,115.5954208,-5.3129773,-101.9389343
3660,4.0222383,7.4626884,2.7126167,117.1374054,11.9312973,-100.6030502
3670,3.1794837,7.7619624,1.6950861,116.0381699,24.2595425,-98.4351120
3680,2.2050486,8.1426382,1.0031654,114.9618301,30.6412220,-96.2595444
3690,1.3838415,8.4706421,0.3088504,114.7938919,30.7251911,-95.1832047
3700,0.6272776,8.6980906,-0.4046180,115.2366409,23.6412220,-94.5725174
3710,0.0526722,8.9901810,-1.3024391,115.3129807,10.6641226,-94.1450348
3720,-0.3303981,9.2942438,-2.1212518,113.7022934,-2.0381680,-94.2748108
3730,-0.6967092,9.6868906,-3.2513094,107.9160309,-10.7633591,-94.1068726
3740,-1.3263810,9.8544836,-4.1084290,97.7099228,-14.4656487,-91.9847336
3750,-2.1044924,10.1034794,-4.7189474,81.9312973,-13.7404585,-86.1679382
3760,-2.8897867,10.1226330,-4.9487896,65.7786255,-8.7022905,-75.9083939
3770,-3.5960727,10.1944590,-5.0134325,49.6412201,-3.4961832,-62.2442741
3780,-4.0916696,10.3021975,-4.8530221,34.8244286,0.1679389,-45.6793900
3790,-4.1108232,10.2734671,-4.5202298,21.4809170,6.0000000,-28.3511448
3800,-3.9144998,10.3692341,-4.3239059,9.3206110,14.1603050,-11.1221371
3810,-3.5577655,10.4027529,-3.9121056,-2.3511450,25.8702297,4.5038166
3820,-3.1507533,10.3500814,-3.6295912,-12.5877867,36.6106873,17.5877857
3830,-2.7437410,10.3668404,-3.2560976,-20.2137413,42.4198456,26.9923668
3840,-2.0997043,10.4243011,-3.0310438,-25.2748089,43.7175560,32.8167953
3850,-1.4413021,10.4482431,-2.8849983,-28.1984730,39.9541969,34.6641235
3860,-0.9241571,10.4985209,-2.8873925,-30.4351139,34.0152664,33.3587799
3870,-0.5410868,10.6110477,-3.0094962,-32.2366409,27.5496178,30.0992374
3880,-0.6895266,10.6780853,-3.3853838,-34.2900772,17.8854961,25.7938938
3890,-1.2808913,10.7786407,-3.9695661,-36.7175560,-0.4122137,22.1297703
3900,-1.5442522,11.0060892,-4.6758518,-39.9618340,-22.1526718,20.1755733
3910,-1.8435259,11.0659437,-5.4348102,-46.8854980,-35.5343513,20.6717548
3920,-2.8203552,11.1856527,-6.2560172,-59.1603050,-43.5954208,26.7862587
3930,-3.6750808,10.9031391,-6.7037306,-76.4809189,-48.2061081,39.3511467
3940,-4.1084290,10.6828737,-6.6079631,-95.6183243,-44.4351158,58.6259537
3950,-4.4938936,9.7922344,-6.5672617,-121.6183243,-25.4122143,88.8473282
3960,-4.3263001,7.7930865,-6.1291251,-158.8854980,5.0458016,129.6793823
3970,-2.3079987,5.1546898,-4.4053087,-203.7786255,33.6793900,172.0763397
3980,1.9608412,3.3015873,-0.3447633,-238.0915985,39.4122124,197.5267181
3990,8.0540533,2.0805507,5.0206151,-246.9389343,22.9847336,193.5038147
4000,15.5574427,2.7365584,12.2462788,-222.8625946,-5.7709923,149.4274750
4010,19.6126022,4.4651632,19.6126022,-163.3358765,-31.2519093,68.4045792
4020,19.6126022,5.5976148,19.6126022,-72.0381699,-28.6717548,-35.9083977
4030,19.6126022,5.1451130,19.6126022,34.8015251,-6.6717558,-149.4198456
4040,19.6126022,3.1866663,19.6126022,141.5343475,-8.6717558,-249.2595367
4050,17.2429523,1.6352314,18.6914368,231.0000000,-54.9312973,-250.1374054
4060,13.0698805,0.1747758,11.9948893,250.1297760,-100.5190811,-250.1374054
4070,9.8760319,-0.3758878,4.7979555,250.1297760,-119.2977066,-250.1374054
4080,8.1019373,-0.2178712,-1.4532729,250.1297760,-109.1297684,-250.1374054
4090,6.3972740,-0.6440369,-5.8825235,250.1297760,-75.6564865,-250.1374054
4100,3.5290353,-1.9153515,-8.3245964,247.4656525,-37.7709923,-250.1374054
4110,-1.5753766,-3.7277529,-9.4259243,210.6030579,-18.2977104,-250.1374054
4120,-11.0515785,-4.7596488,-9.5863342,185.1374054,-38.7328262,-250.1374054
4130,-19.6131992,-3.9384418,-9.5719690,170.8473358,-117.5343475,-250.1374054
4140,-19.6131992,-0.6296718,-12.0044661,154.8015289,-201.1450348,-250.1374054
4150,-19.6131992,3.0885043,-17.3985748,95.4427490,-193.2366486,-250.1374054
4160,-19.6131992,2.1787124,-19.5078564,-6.4656487,-88.8091583,-112.7404556
4170,-19.6131992,2.0542145,-17.8798065,-114.7938919,50.7633591,64.5190811
4180,-19.6131992,1.3431402,-12.1241751,-199.9007568,149.0915985,211.9847260
4190,-19.6131992,0.0311245,-6.3015065,-238.5419922,179.4427490,250.1297760
4200,-19.6131992,-0.5410868,-2.5641768,-247.2213745,172.7175598,250.1297760
4210,-19.2828026,-0.4860204,0.0742199,-239.5419922,149.0381622,250.1297760
4220,-13.9270000,-0.9361281,1.3910241,-225.0686951,127.2442780,250.1297760
4230,-8.4131813,-1.0295014,1.9991482,-211.2442780,111.7938919,250.1297760
4240,-1.9895715,-1.1204807,2.6695213,-198.2366486,88.0305328,250.1297760
4250,5.4874821,-0.2370248,3.6439564,-179.7404633,42.3282433,250.1297760
4260,13.3643656,1.5921360,4.3789725,-152.6717529,-18.8015270,250.1297760
4270,19.6126022,3.8690102,4.9894910,-125.2900772,-73.4656525,250.1297760
4280,19.6126022,6.2871413,7.0915890,-98.2366409,-106.5114517,157.6030579
4290,19.6126022,7.5728211,9.7156210,-68.9312973,-104.8549652,40.1221390
4300,19.6126022,7.5656385,11.9278517,-34.5648842,-79.6564865,-68.8854980
4310,19.6126022,6.6055689,13.5247765,9.4732828,-62.9541969,-160.5114441
4320,15.2653522,5.8873119,13.5654774,62.1145020,-67.4961853,-225.5877838
4330,10.2207947,5.1187773,11.8584204,113.2671738,-78.3053436,-250.1374054
4340,6.7037306,4.8841467,8.7220325,150.6717529,-75.5877838,-250.1374054
4350,3.6918402,4.8171091,5.5928264,170.4351196,-55.6946564,-250.1374054
4360,0.3710994,4.1634955,2.8826041,177.7404633,-33.3664131,-250.1374054
4370,-3.9192882,3.6032550,0.2442073,180.3587799,-21.0763359,-250.1374054
4380,-10.2088242,3.5194585,-2.6719155,179.1221313,-26.9923668,-250.1374054
4390,-17.4296989,4.4172797,-5.8897061,169.2900696,-59.3969460,-250.1374054
4400,-19.6131992,5.6526814,-10.0077124,145.2519073,-89.9542007,-192.5038147
4410,-19.6131992,6.8904772,-14.1400833,95.2671738,-82.0763321,-83.0687027
4420,-19.6131992,7.7045016,-16.0195217,17.9160309,-25.3206100,40.0381660
4430,-19.6131992,7.0939832,-15.0905762,-69.7404556,67.0229034,157.6564941
4440,-19.6131992,5.7891502,-11.2502966,-147.3053436,158.4580078,250.1297760
4450,-19.6131992,4.4531922,-7.0868006,-196.2748108,209.0229034,250.1297760
4460,-16.1512012,3.7133877,-2.8419030,-217.9923706,217.9160309,250.1297760
4470,-12.5311880,3.4548154,-0.2035061,-217.8167877,199.4809113,250.1297760
4480,-8.6693602,3.0789278,1.1444225,-207.3893127,171.6488495,250.1297760
4490,-4.1898317,2.6144550,1.2784972,-196.7557220,138.0686951,250.1297760
4500,1.6208663,2.5785420,1.6017127,-188.5648804,95.1221390,250.1297760
4510,8.2312231,2.7605004,2.1643472,-179.3587799,43.1374054,250.1297760
4520,15.7561607,3.8139439,3.7995787,-166.1679382,-17.1297703,250.1297760
4530,19.6126022,5.5617023,6.9479380,-145.6564941,-70.0229034,206.0381622
4540,19.6126022,6.9527264,10.6086531,-115.7022934,-94.2595444,93.0687027
4550,19.6126022,7.1083484,14.5542774,-77.2824402,-81.8931274,-23.0687027
4560,19.6126022,6.1506729,17.5565910,-25.4274807,-53.5343513,-126.5877838
4570,19.6126022,5.0804701,18.9715576,38.7633591,-36.0000000,-205.5267181
4580,14.5399122,4.2353210,18.1766872,110.1984711,-41.3587799,-250.1374054
4590,10.2734671,3.4643922,15.4832230,174.3816833,-59.4045792,-250.1374054
4600,7.2519999,2.9951310,11.5759058,225.1908417,-71.7480927,-250.1374054
4610,5.4084740,2.7461352,7.5943689,250.1297760,-69.8091583,-250.1374054
4620,3.7876077,2.1739240,3.7038112,250.1297760,-55.2061081,-250.1374054
4630,1.9416877,1.0510491,0.3782819,250.1297760,-35.2061081,-250.1374054
4640,-0.9026094,-0.1675933,-2.2768741,250.1297760,-20.4885502,-250.1374054
4650,-5.1044121,-1.3407460,-4.4172797,250.1297760,-17.7862587,-250.1374054
4660,-13.2877512,-1.6041069,-6.7707677,239.1068726,-39.6946564,-250.1374054
4670,-19.6131992,-0.2250538,-9.5025377,220.4274750,-102.2748108,-250.1374054
4680,-19.6131992,2.3486998,-12.4402084,192.0992432,-174.0610657,-250.1374054
4690,-19.6131992,5.1187773,-17.4320927,135.7557220,-175.6870270,-140.4274750
4700,-19.6131992,5.3486195,-19.6131992,40.2595406,-77.6030502,16.9007626
4710,-19.6131992,4.6303625,-19.6131992,-77.6946564,65.1755753,165.4045868
4720,-19.6131992,3.8737986,-14.6931410,-177.1755676,185.3358765,250.1297760
4730,-19.6131992,2.8897867,-8.6741486,-232.3969421,240.2137451,250.1297760
4740,-19.5198269,1.9560528,-4.1204000,-248.7175598,239.5190887,250.1297760
4750,-15.7513723,1.7549409,-1.3982066,-239.8854980,200.3740387,250.1297760
4760,-11.3101511,1.9632354,-0.5841822,-220.8931274,149.4045868,250.1297760
4770,-7.3286138,2.2050486,-1.2497669,-206.1832123,113.1984711,250.1297760
4780,-3.5481887,1.8315549,-2.5761478,-207.0076294,97.7557220,250.1297760
4790,0.0718257,1.1204807,-3.1459649,-222.7633514,97.6030502,250.1297760
4800,4.3478479,0.1699875,-2.1882892,-244.5267181,86.9542007,250.1297760
4810,9.0524302,-0.3950413,-0.1005560,-250.1374054,47.7099228,250.1297760
4820,15.8327751,0.2106887,3.4069316,-250.1374054,-21.8396950,250.1297760
4830,19.6126022,2.5809362,8.8106174,-218.7709961,-102.2366409,223.0915985
4840,19.6126022,4.9152708,14.2047262,-165.5648804,-149.4503784,105.1603088
4850,19.6126022,5.7197185,17.9803619,-102.8244247,-134.0763397,-18.0381680
4860,19.6126022,5.4084740,19.6126022,-38.4809151,-81.7251892,-128.9770966
4870,19.6126022,4.2185616,19.6126022,32.2900772,-48.7557259,-219.2977142
4880,17.4129391,2.9735832,19.6126022,108.7557220,-53.4274826,-250.1374054
4890,13.2231083,1.9368993,17.0705700,182.7175598,-77.9312973,-250.1374054
4900,10.1729107,1.3958124,13.0531206,241.2977142,-97.5267181,-250.1374054
4910,7.3310080,1.2928623,8.1378498,250.1297760,-99.0916061,-250.1374054
4920,5.1882086,1.2856797,3.4691806,250.1297760,-77.5954208,-250.1374054
4930,3.5026991,0.8882443,0.0766141,250.1297760,-41.2900772,-250.1374054
4940,1.3646880,-0.2801202,-1.9823889,250.1297760,1.6564885,-250.1374054
4950,-1.9799947,-1.7094513,-3.8498566,247.0686951,41.7862587,-250.1374054
4960,-10.1968527,-2.8993635,-6.0429344,234.1374054,52.4580154,-250.1374054
4970,-19.6131992,-2.1068866,-7.7499914,223.1908417,-3.4961832,-250.1374054
4980,-19.6131992,0.8116302,-10.2399483,215.8549652,-109.4732819,-250.1374054
4990,-19.6131992,3.1579359,-14.6500454,187.6030579,-185.5801544,-234.4656525
5000,-19.6131992,5.0182209,-19.6131992,112.6183243,-160.2442780,-96.5725174
5010,-19.6131992,5.3749552,-19.6131992,-0.3664122,-46.9923668,50.6946564
5020,-19.6131992,4.5489597,-18.6674957,-116.7709961,107.4045792,184.6259613
5030,-19.6131992,3.7421181,-13.1153698,-206.4351196,231.8778687,250.1297760
5040,-19.6131992,2.9448531,-7.9463148,-250.1374054,250.1297760,250.1297760
5050,-19.6131992,2.1763182,-3.7780309,-250.1374054,250.1297760,250.1297760
5060,-15.8878412,1.6352314,-1.1587877,-250.1374054,223.7709961,250.1297760
5070,-10.9605989,0.8355721,-0.4261657,-244.8167877,169.7022858,250.1297760
5080,-4.9128766,0.2059003,-0.4405309,-237.1603088,122.4580154,250.1297760
5090,1.5250987,-0.5410868,-0.0646431,-236.2748108,79.2366409,250.1297760
5100,8.9231443,-0.1771700,1.8124014,-230.7251892,18.7251911,250.1297760
5110,16.2541523,1.5322813,4.7811961,-210.5267181,-51.9618340,250.1297760
5120,19.6126022,4.4484038,8.9949694,-172.7709961,-112.3587799,232.1145020
5130,19.6126022,7.7499914,13.3763361,-118.7786255,-139.8244324,107.1450348
5140,19.6126022,9.3708572,16.4408989,-57.8015251,-110.4274826,-26.1526718
5150,19.6126022,8.6813307,17.3387203,3.1297710,-47.7862587,-152.8931274
5160,19.1774578,6.7731619,16.6683464,67.9770966,-14.6946564,-249.8854980
5170,13.1345234,4.9511838,14.7027178,136.0305328,-29.1526718,-250.1374054
5180,7.5800037,3.0382264,11.2526903,197.0763397,-63.0381660,-250.1374054
5190,2.7245877,2.0230901,7.5129666,238.8015289,-88.0152664,-250.1374054
5200,-2.0135133,1.7094513,3.9360476,250.1297760,-95.8778610,-250.1374054
5210,-8.1929159,2.4372849,0.4716553,250.1297760,-86.1450348,-250.1374054
5220,-16.6013088,4.2353210,-4.5154414,238.5954132,-54.2442741,-250.1374054
5230,-19.6131992,6.4236102,-10.3045912,201.5572510,-8.2595415,-199.2213745
5240,-19.6131992,8.4562769,-15.7394018,138.3129730,39.4885483,-52.7099228
5250,-19.6131992,7.9104018,-19.6131992,50.2748108,97.2442780,108.2213745
5260,-19.6131992,7.0844064,-19.6131992,-57.2366409,172.2748108,250.1297760
5270,-17.5685616,6.6773944,-19.3570213,-162.0610657,250.1297760,250.1297760
5280,-11.1018562,5.4683285,-14.8655224,-247.4427490,250.1297760,250.1297760
5290,-6.0046272,3.8761928,-8.9039907,-250.1374054,250.1297760,250.1297760
5300,-0.4884146,3.4141142,-2.8562679,-250.1374054,243.5648804,250.1297760
5310,5.0254035,3.7612717,1.6400198,-250.1374054,153.0152740,250.1297760
5320,10.3644457,4.8697815,5.2839761,-248.7709961,56.9160309,250.1297760
5330,15.1217003,5.9447722,8.2671366,-200.6183167,-26.8396950,177.9160309
5340,18.9093075,6.8617468,10.5511932,-151.2824402,-76.5267181,89.7938919
5350,19.6126022,7.4267755,12.3181047,-102.5572510,-84.5725174,-1.5877863
5360,19.6126022,7.5297260,13.4481621,-56.6564903,-57.8625946,-90.0076370
5370,16.6922894,7.1729918,14.2119083,-7.5801525,-20.7938938,-169.9236603
5380,11.9637651,6.1794028,14.0107965,49.2519073,-2.3435113,-233.1297760
5390,7.7188668,5.1546898,12.7203283,108.0000000,-7.7480917,-250.1374054
5400,3.7852135,4.0509686,10.5559816,162.1908417,-22.9923668,-250.1374054
5410,0.4453192,3.0023136,7.6853480,204.7099304,-40.7633591,-250.1374054
5420,-2.7557120,2.4851687,4.8745699,236.7328186,-61.6946564,-250.1374054
5430,-7.7787213,2.5019281,1.3598996,250.1297760,-87.0610657,-250.1374054
5440,-14.6907463,3.1555417,-2.8945751,250.1297760,-120.9236679,-250.1374054
5450,-19.6131992,4.9679432,-7.9678626,250.1297760,-158.5801544,-250.1374054
5460,-19.6131992,7.2448173,-14.6141329,215.6412201,-156.8396912,-162.2366486
5470,-19.6131992,7.6183109,-19.6131992,130.6335907,-96.8244247,-26.9083977
5480,-19.6131992,7.8936424,-19.6131992,23.0076332,-15.9847326,113.1450348
5490,-19.6131992,7.6326761,-18.9045200,-88.0610657,90.8625946,233.5877838
5500,-17.6691189,6.2272868,-14.6356802,-176.0763397,190.2137451,250.1297760
5510,-13.4337969,4.5609307,-10.2519188,-236.4503784,248.8244324,250.1297760
5520,-9.3277617,3.4189026,-6.0261750,-250.1374054,250.1297760,250.1297760
5530,-4.8458395,3.1411765,-2.1260402,-250.1374054,222.3129730,250.1297760
5540,-0.5171449,2.9448531,0.6536137,-250.1374054,158.8091583,250.1297760
5550,5.2552457,3.2704628,3.2489152,-245.2595367,71.6183243,250.1297760
5560,11.6022425,4.4867110,5.2959471,-208.3740387,-16.8320618,250.1297760
5570,17.5374374,5.6814117,7.1777802,-170.3053436,-82.5648880,190.4809113
5580,19.6126022,7.0245519,9.7754755,-129.9541931,-119.2595444,95.1221390
5590,19.6126022,8.5975342,12.7658186,-85.9542007,-117.8244247,-13.0992365
5600,19.6126022,9.1074963,15.0594521,-36.4045792,-82.9389343,-126.5572510
5610,19.6126022,7.6374645,16.4480820,20.8854961,-48.7480927,-222.1679382
5620,15.0426922,6.4451580,16.0362816,89.6030502,-43.6870232,-250.1374054
5630,9.9430685,4.9224534,14.0036144,157.3587799,-67.7175598,-250.1374054
5640,6.0525107,3.6415622,10.9486284,212.7862549,-94.4198456,-250.1374054
5650,3.2537034,2.4109488,7.8433647,250.1297760,-111.9847336,-250.1374054
5660,0.3303981,0.7781116,4.8003497,250.1297760,-120.1374054,-250.1374054
5670,-5.2528515,-1.2976507,1.6807210,250.1297760,-131.4274750,-250.1374054
5680,-13.3260584,-2.3247581,-1.6998745,250.1297760,-164.5954132,-250.1374054
5690,-19.6131992,-1.1061156,-5.7101417,250.1297760,-220.5801544,-250.1374054
5700,-19.6131992,3.0190730,-11.4346485,250.1297760,-250.1374054,-250.1374054
5710,-19.6131992,4.4244623,-17.2022514,210.5190887,-250.1374054,-209.7328186
5720,-19.6131992,3.6942344,-19.6131992,112.4656525,-250.1374054,-7.3816795
5730,-19.6131992,4.5034704,-19.6131992,-10.2290077,-129.5801544,183.9236603
5740,-19.6131992,4.2951760,-16.5366669,-124.1755753,42.0381660,250.1297760
5750,-19.6131992,2.5976956,-11.1688938,-204.5343475,160.6641235,250.1297760
5760,-19.0433826,0.1268920,-6.8449879,-250.1374054,206.8473358,250.1297760
5770,-15.1121235,-1.7836711,-3.2106080,-250.1374054,202.6412201,250.1297760
5780,-10.8384953,-3.6583214,-1.0462608,-250.1374054,177.6106873,250.1297760
5790,-5.2767935,-5.6742291,0.5003856,-250.1374054,151.6412201,250.1297760
5800,1.0438666,-7.2783360,1.5083394,-250.1374054,130.0229034,250.1297760
5810,8.3581152,-7.7763271,3.2776453,-250.1374054,92.9694672,250.1297760
5820,17.7505207,-6.4260044,8.0612354,-250.1374054,26.8396950,250.1297760
5830,19.6126022,-3.2321558,15.6627874,-249.6641235,-53.4274826,250.1297760
5840,19.6126022,0.3112446,19.6126022,-176.5343475,-81.0457993,220.0229034
5850,19.6126022,2.9831600,19.6126022,-91.5877838,-46.6259537,44.3206100
5860,19.6126022,0.9935886,19.6126022,-7.5496182,-14.1679392,-119.6564865
5870,19.6126022,-0.3495516,19.6126022,82.3129807,-43.9465637,-239.9541931
5880,19.6126022,-1.5466464,19.6126022,165.4580078,-104.3358765,-250.1374054
5890,14.6907463,-2.1475880,16.2948532,230.6717529,-141.6412201,-250.1374054
5900,11.5783005,-1.7477583,12.3061342,250.1297760,-133.4809113,-250.1374054
5910,9.4594421,-0.5985473,8.1186962,250.1297760,-86.7709961,-250.1374054
5920,7.5823979,-0.3471575,4.9559722,250.1297760,-28.7251911,-250.1374054
5930,5.6407104,-0.8140244,1.7118455,250.1297760,26.5572510,-250.1374054
5940,3.9528067,-2.3870070,-0.7158626,250.1297760,68.6488571,-250.1374054
5950,0.3806761,-5.5880380,-3.4117200,250.1297760,89.7557220,-250.1374054
5960,-6.7372489,-8.1546097,-6.8473821,250.1297760,64.2977066,-250.1374054
5970,-16.5031471,-8.5089493,-9.5695753,250.1297760,-26.8854961,-250.1374054
5980,-19.6131992,-5.6071916,-13.1273403,250.1297760,-150.0534363,-250.1374054
5990,-19.6131992,-1.9321109,-17.5996876,234.0992432,-247.1832123,-250.1374054
6000,-19.6131992,0.7398046,-19.6131992,145.0229034,-236.0686951,-234.7557220
6010,-19.6131992,2.1811066,-19.6131992,17.2748089,-107.3587799,-48.9541969
6020,-19.6131992,2.0230901,-19.0290184,-111.9618301,68.2977066,125.0000000
6030,-19.6131992,1.1085097,-11.5519638,-201.7099304,198.5648804,249.2137451
6040,-19.6131992,0.1819584,-5.1403246,-235.7709961,239.7786255,250.1297760
6050,-19.6131992,-0.0023942,-1.1468167,-233.7709961,219.9923706,250.1297760
6060,-18.6291885,0.0646431,0.8666966,-213.3664093,179.0152740,250.1297760
6070,-15.3371773,-0.0311245,0.6033357,-194.0458069,143.0610657,250.1297760
6080,-11.8608141,-0.5554519,-0.6679789,-186.5954132,122.3053436,250.1297760
6090,-7.3118544,-0.8643024,-2.1619530,-195.7251892,127.6030502,250.1297760
6100,-3.4141142,-1.5011568,-3.1699069,-224.3206177,162.5343475,250.1297760
6110,-0.1268920,-3.0238612,-2.5713594,-250.1374054,204.9236603,250.1297760
6120,4.0294209,-4.4148855,-0.0622489,-250.1374054,227.8015289,250.1297760
6130,10.2543135,-4.3550305,5.6095858,-250.1374054,196.4045868,250.1297760
6140,19.4432125,-2.2792683,13.4912577,-250.1374054,105.7709961,250.1297760
6150,19.6126022,2.0039365,19.6126022,-199.5725250,-6.1221375,250.1297760
6160,19.6126022,5.4491754,19.6126022,-80.1679382,-72.7251892,104.1068726
6170,19.6126022,5.8106980,19.6126022,38.0534363,-77.0687027,-67.5267181
6180,19.6126022,4.6662750,19.6126022,135.0152740,-82.5267181,-200.5190887
6190,19.6126022,3.2153964,17.5374374,211.7175598,-124.6488571,-250.1374054
6200,16.6228580,1.5825592,12.0331964,250.1297760,-157.2748108,-250.1374054
6210,12.2726154,0.9457048,6.9934273,250.1297760,-166.1755676,-250.1374054
6220,8.9183559,0.6153067,2.5330524,250.1297760,-158.8931274,-250.1374054
6230,6.3350253,0.3232156,-1.1061156,250.1297760,-131.0305328,-250.1374054
6240,3.9839313,-0.5339043,-4.0246325,250.1297760,-83.8778610,-250.1374054
6250,1.8890154,-2.4516499,-4.6590929,236.2213745,-40.4656487,-250.1374054
6260,-0.9385223,-4.7740140,-4.9368186,218.7251892,-8.7862597,-250.1374054
6270,-6.4643116,-6.7875271,-5.6670465,212.3511505,-0.1450382,-250.1374054
6280,-14.5782194,-7.5393028,-6.8186517,206.7938995,-21.6106873,-250.1374054
6290,-19.6131992,-7.0101867,-7.6997132,197.5114441,-87.6564865,-250.1374054
6300,-19.6131992,-4.9655490,-8.0301113,188.1374054,-210.2977142,-250.1374054
6310,-19.6131992,-2.1595588,-11.1784706,172.3053436,-250.1374054,-242.9618378
6320,-19.6131992,-0.3974355,-16.4385052,105.1450348,-238.1984711,-85.4961853
6330,-19.6131992,-0.4764437,-17.8151646,-10.8778629,-60.1221390,58.7938919
6340,-19.6131992,-0.8236012,-12.7466650,-114.9923630,109.9236679,171.0152740
6350,-19.6131992,-0.9265513,-7.1586266,-164.9160309,188.2595367,232.9618378
6360,-19.6131992,-1.2808913,-3.0908985,-169.6183167,171.7862549,250.1297760
6370,-19.6131992,-1.0318956,-0.6584021,-139.9618378,91.0152664,250.1297760
6380,-19.4863071,-0.1580165,-1.2258250,-96.6259537,8.9007635,250.1297760
6390,-17.3219604,0.7589580,-3.9288650,-71.1832047,-35.3206100,250.1297760
6400,-15.1695843,1.2761030,-6.2608056,-72.7175598,-43.0534363,250.1297760
6410,-12.5623121,1.2808913,-7.7882981,-92.6564865,-16.1832066,250.1297760
6420,-9.7228031,0.9002152,-8.6837254,-125.0610657,32.5038185,250.1297760
6430,-7.0772243,0.1532281,-8.5065556,-164.8931274,80.7786255,250.1297760
6440,-4.0916696,-0.5650287,-7.8170285,-206.2900696,121.1908417,250.1297760
6450,-1.3431402,-1.4508789,-6.7827387,-247.2290039,159.1603088,250.1297760
6460,1.1468167,-2.9592183,-4.9511838,-250.1374054,182.0610657,250.1297760
6470,5.0804701,-4.0916696,-1.8291607,-250.1374054,173.4580078,250.1297760
6480,11.0850973,-4.7452836,2.1260402,-250.1374054,124.8167953,250.1297760
6490,19.6126022,-3.3877780,7.5680327,-250.1374054,33.2595406,250.1297760
6500,19.6126022,0.6488253,14.9253769,-248.5877838,-74.6793900,250.1297760
6510,19.6126022,4.5417776,19.6126022,-168.1374054,-126.1755753,135.5419922
6520,19.6126022,5.2504573,19.6126022,-89.3053436,-105.5572510,-25.3053436
6530,19.6126022,3.7062054,19.6126022,-22.2213745,-77.0381699,-160.2824402
6540,19.6126022,2.4061604,19.6126022,44.0534363,-98.1145020,-250.1374054
6550,19.6126022,0.7589580,17.3746338,106.3740463,-138.4656525,-250.1374054
6560,14.9660778,0.1915352,13.8575687,156.7328186,-157.7328186,-250.1374054
6570,12.3444405,0.7398046,10.4027529,186.3893127,-147.9770966,-250.1374054
6580,10.3716288,1.2186425,6.9479380,198.2366486,-115.7404556,-250.1374054
6590,8.2719250,1.4341195,3.9240766,199.0686951,-75.0305328,-250.1374054
6600,6.6773944,1.4508789,1.7908537,194.8320618,-32.2824440,-250.1374054
6610,5.2552457,0.9457048,0.2370248,188.1145020,8.0000000,-250.1374054
6620,3.6152260,-0.6967092,-0.7302278,183.6793823,30.5801525,-250.1374054
6630,-0.0837966,-3.3135581,-1.9871773,184.0381622,28.6946564,-250.1374054
6640,-5.4012914,-5.4276276,-3.2608860,188.4656525,-7.1068702,-250.1374054
6650,-11.9637651,-6.5600791,-3.8067613,193.9541931,-72.0457993,-250.1374054
6660,-19.6131992,-6.6199336,-4.9918852,191.3053436,-165.2977142,-250.1374054
6670,-19.6131992,-4.2784166,-5.6766233,183.7022858,-250.1374054,-250.1374054
6680,-19.6131992,-0.9696468,-8.6095057,155.9465637,-250.1374054,-250.1374054
6690,-19.6131992,0.5123565,-12.6556854,81.1145020,-239.6335907,-201.2519073
6700,-19.6131992,0.1819584,-12.8615856,-30.2137413,-63.0763359,-44.4198456
6710,-19.6131992,-0.4740495,-8.2000990,-118.3587799,95.4656525,103.2671738
6720,-19.6131992,-0.7900825,-3.6535332,-158.0152740,182.1145020,205.4503784
6730,-19.6131992,-1.2162483,-0.6751614,-167.9160309,195.2442780,250.1297760
6740,-19.6131992,-0.7254394,1.5059452,-154.6870270,159.2900696,250.1297760
6750,-19.6131992,-0.0071826,1.4700323,-128.1297760,112.7557220,250.1297760
6760,-17.9827576,0.4836263,-0.3854645,-107.0534363,77.7786255,250.1297760
6770,-15.4401274,0.5578461,-2.6168492,-104.2290039,63.9923668,250.1297760
6780,-12.4210548,0.2059003,-4.3693957,-121.2213745,79.5801544,250.1297760
6790,-9.0021524,-0.4046180,-5.0924411,-153.2213745,114.3969498,250.1297760
6800,-6.0596933,-1.3000449,-5.0277977,-192.6870270,157.9160309,250.1297760
6810,-3.2034254,-2.6407909,-3.6822634,-235.1068726,199.1374054,250.1297760
6820,-0.2489957,-4.6207857,-1.6448082,-250.1374054,221.1603088,250.1297760
6830,4.2736282,-5.8921003,1.9967541,-250.1374054,200.6488495,250.1297760
6840,11.0898857,-5.7604198,6.5098009,-250.1374054,130.2137451,250.1297760
6850,19.6126022,-3.0310438,12.4473906,-250.1374054,20.2519093,250.1297760
6860,19.6126022,2.0302727,18.9931049,-177.8625946,-83.0229034,250.1297760
6870,19.6126022,4.3574247,19.6126022,-80.7862625,-131.8549652,129.4427490
6880,19.6126022,6.4379754,19.6126022,8.1145039,-110.7862625,-34.1679382
6890,19.6126022,5.4539638,19.4408188,73.4122162,-95.8473282,-180.6793823
6900,19.6126022,3.5290353,16.4672356,131.4198456,-119.7862625,-250.1374054
6910,18.9140968,1.7166338,13.1177645,182.1526642,-139.6488495,-250.1374054
6920,13.8551741,1.1420283,9.3612804,217.5190887,-144.5725250,-250.1374054
6930,10.0843258,1.3551112,5.8298512,234.7557220,-132.1526642,-250.1374054
6940,7.1705976,1.5897418,2.8658447,234.9923706,-106.4809189,-250.1374054
6950,5.2289100,1.5801650,0.4596844,224.1526642,-66.3435135,-250.1374054
6960,3.5769191,1.2449785,-1.3982066,205.8015289,-21.6106873,-250.1374054
6970,2.3367288,0.2394189,-1.9536586,188.4198456,16.2442741,-250.1374054
6980,0.2202654,-1.9680238,-2.7844424,178.2900696,41.1526718,-250.1374054
6990,-2.9855542,-3.9671719,-3.7684543,175.5343475,47.6030540,-250.1374054
7000,-8.1378498,-5.2576399,-4.6973996,173.2900696,38.8931313,-250.1374054
7010,-16.1392307,-5.6119800,-5.0900469,167.2290039,5.7786260,-250.1374054
7020,-19.6131992,-4.8290801,-4.2544746,163.1908417,-63.7709923,-250.1374054
7030,-19.6131992,-3.0621684,-4.0749106,162.8320618,-142.1908417,-250.1374054
7040,-19.6131992,-1.5873476,-7.0963774,149.1145020,-174.0610657,-243.9847260
7050,-19.6131992,-0.1101327,-11.4681673,99.9847336,-113.7022934,-113.0687027
7060,-19.6131992,0.5746055,-13.7115231,14.9618320,4.2519083,12.6106873
7070,-19.6131992,0.7445929,-12.1792421,-69.7404556,117.5114517,109.5572510
7080,-19.6131992,0.5650287,-8.5185261,-123.5877838,187.5343475,169.8473358
7090,-19.6131992,0.6727672,-5.5569139,-145.3511505,202.8091583,202.0610657
7100,-18.1910515,0.8236012,-3.6104376,-146.7480927,179.8320618,222.6488495
7110,-17.0753593,1.3982066,-2.9089401,-136.9313049,142.0000000,240.2061005
7120,-17.9971218,1.7357874,-3.6559272,-126.9389343,101.5190811,250.1297760
7130,-17.1783085,1.9488702,-5.4563580,-129.8854980,75.9542007,250.1297760
7140,-16.0769825,2.0494261,-6.7994981,-150.2671814,76.8015289,250.1297760
7150,-14.6500454,1.7453641,-6.5409255,-177.9694672,87.7328262,250.1297760
7160,-11.5830889,0.9409165,-6.0046272,-207.0992432,104.8931274,250.1297760
7170,-8.3389616,-0.1628049,-4.9631548,-235.6946564,124.7480927,250.1297760
7180,-4.4124913,-2.0087249,-3.8043671,-250.1374054,138.0076294,250.1297760
7190,0.0047884,-3.5218527,-1.5250987,-250.1374054,125.7633591,250.1297760
7200,5.8106980,-4.3909435,2.0254843,-250.1374054,64.3206100,250.1297760
7210,12.5168228,-3.2967989,5.7340837,-243.6641235,-34.8320618,250.1297760
7220,19.6126022,0.2777260,9.2367830,-186.0534363,-139.6259613,250.1297760
7230,19.6126022,5.5162125,12.6987810,-122.2442780,-202.3893127,250.1297760
7240,19.6126022,8.8082228,15.4497042,-57.3587799,-181.6793823,115.1297684
7250,19.6126022,10.7930059,15.6675758,-1.8931298,-99.0687027,-38.2290077
7260,19.6126022,8.5568333,14.7793312,46.4122124,-54.0228996,-185.9618378
7270,19.6126022,5.8370337,13.6013899,102.9007645,-85.6564865,-250.1374054
7280,17.5901108,3.3973548,11.6956158,160.0915985,-138.3129730,-250.1374054
7290,12.0308018,2.0685797,8.1091194,204.0534363,-179.5267181,-250.1374054
7300,7.9798336,2.0494261,4.2161674,221.7862549,-182.5267181,-250.1374054
7310,4.8314743,1.8243724,0.7637464,212.5648804,-143.7938995,-250.1374054
7320,2.8921809,1.8411317,-1.6711442,186.2519073,-87.9236679,-250.1374054
7330,1.6639616,1.3024391,-2.8826041,156.2290039,-23.7938938,-250.1374054
7340,0.0239419,-0.0287303,-3.3686244,133.5038147,35.7709923,-250.1374054
7350,-4.5393834,-1.6879035,-3.9432299,121.3358765,71.5648880,-250.1374054
7360,-13.2183199,-2.5833304,-4.6183915,116.9847336,54.2595406,-250.1374054
7370,-19.6131992,-2.4420733,-4.9775200,123.2519073,-35.0916023,-250.1374054
7380,-19.6131992,-1.4365137,-6.0094156,132.9465637,-160.5419922,-250.1374054
7390,-19.6131992,0.4764437,-9.3660688,122.6641235,-235.2213745,-244.9618378
7400,-19.6131992,1.6208663,-12.2678270,69.6641235,-214.7557220,-142.9847260
7410,-19.6131992,1.2306134,-12.3731709,-8.1984730,-110.9694672,-29.9694653
7420,-19.6131992,0.5339043,-9.7682934,-87.4580154,23.3053436,76.8167953
7430,-19.6131992,0.4692611,-4.8913293,-135.1297760,101.3893127,156.5648804
7440,-19.6131992,-0.1460456,-0.6105183,-143.2442780,116.3740463,210.5419922
7450,-19.6131992,-0.0598547,1.4820032,-124.1374054,86.5801544,250.1297760
7460,-19.6131992,0.2609667,2.0877333,-93.6106873,43.7251892,250.1297760
7470,-17.5685616,0.9792235,1.1970947,-68.1908417,15.2748089,250.1297760
7480,-14.9995966,1.2138541,-0.2178712,-56.0381660,12.5267172,250.1297760
7490,-12.6006193,1.3646880,-1.8674678,-57.9007645,31.8244267,250.1297760
7500,-9.9837704,1.3287752,-3.2441268,-72.9465637,66.6183243,250.1297760
7510,-7.4219875,0.8666966,-4.1371593,-99.2519073,105.8320618,250.1297760
7520,-4.9296360,0.4070122,-4.3095412,-131.6564941,142.3435059,250.1297760
7530,-1.9895715,-0.3854645,-3.5074875,-165.7099304,165.9007568,250.1297760
7540,1.6974803,-1.2880739,-1.7884595,-193.6564941,166.3587799,250.1297760
7550,6.4930420,-1.4508789,0.9169745,-205.7557220,131.2290039,250.1297760
7560,12.5671005,-0.4788379,3.9240766,-196.2061005,65.6030502,250.1297760
7570,19.6126022,1.7453641,7.3621325,-169.1832123,-10.1221371,250.1297760
7580,19.6126022,4.6423335,11.3412752,-126.9312973,-75.6412201,249.5190887
7590,19.6126022,7.1275020,14.4968176,-74.5190811,-97.3893127,123.5954208
7600,19.6126022,7.6709828,14.9876261,-15.5725193,-80.1221390,-5.0534353
7610,19.6126022,6.8186517,13.4481621,42.5419846,-64.7862625,-118.2519073
7620,19.6126022,5.9375896,11.3388815,94.2519073,-88.1145020,-208.3816833
7630,18.4639893,5.2672167,9.1505919,134.1068726,-128.6870270,-250.1374054
7640,14.4465389,4.8745699,6.0908179,164.0000000,-144.8702240,-250.1374054
7650,11.7482872,5.1092005,2.5354466,176.3587799,-126.0152664,-250.1374054
7660,9.3684635,5.4802995,0.1532281,169.9770966,-90.8473282,-250.1374054
7670,7.0341287,5.3653784,-1.6112895,152.1145020,-48.4122124,-250.1374054
7680,4.9607606,4.7237358,-2.5953014,132.4503784,-4.0000000,-250.1374054
7690,3.5936785,3.9192882,-3.2728570,115.3664093,27.5343513,-250.1374054
7700,1.3598996,2.5019281,-3.5122759,104.6870193,34.2061081,-250.1374054
7710,-2.3439114,0.3303981,-3.7852135,100.4351120,18.1297703,-250.1374054
7720,-7.8409705,-0.7493813,-4.2640514,100.4198456,-22.6412220,-250.1374054
7730,-14.7529955,-1.2593436,-4.5896611,101.2137375,-87.3969498,-250.1374054
7740,-19.6131992,-0.7924767,-4.8027439,98.8396912,-166.2290039,-250.1374054
7750,-19.6131992,0.4261657,-4.5058646,90.2595444,-236.4961853,-250.1374054
7760,-19.6131992,1.8914096,-5.8657641,69.5572510,-246.0229034,-223.0686951
7770,-19.6131992,2.3534882,-7.2615767,24.8702297,-168.4656525,-108.2977066
7780,-19.6131992,2.2912393,-6.9455438,-36.6335869,-48.4885483,8.4122133
7790,-19.6131992,1.9680238,-4.7931671,-90.9083939,57.2595406,107.0305328
7800,-19.6131992,1.5155219,-1.2306134,-115.2595444,112.8625946,175.2900696
7810,-19.6131992,1.2569494,1.2832855,-111.4580154,114.4274826,219.1450348
7820,-19.3163204,1.4676381,2.8035958,-88.6106873,74.2595444,250.1297760
7830,-17.2740765,1.5442522,2.8419030,-56.2977104,28.7633591,250.1297760
7840,-14.4297800,2.0374553,1.1037214,-31.8015270,4.0305343,250.1297760
7850,-12.1026278,2.5737536,-0.9552816,-22.1068707,3.9083970,250.1297760
7860,-9.9574337,2.8586621,-2.5498118,-29.4580154,26.0992374,250.1297760
7870,-8.0588417,2.9640064,-3.3734128,-48.8244286,62.5801544,250.1297760
7880,-5.9088597,2.6360025,-3.5888901,-73.2442780,101.7404556,250.1297760
7890,-3.2967989,2.0685797,-3.3518653,-98.8091583,132.9618378,250.1297760
7900,0.0670373,1.6759326,-2.3702476,-120.3969498,145.8549652,250.1297760
7910,4.3047528,1.6831152,-1.0773853,-134.4961853,137.4503784,250.1297760
7920,9.5599985,2.0230901,0.4405309,-138.4351196,101.2061081,250.1297760
7930,16.1416245,3.2704628,3.3542595,-123.5572510,28.1068707,250.1297760
7940,19.6126022,6.1961622,6.2871413,-90.8244247,-48.5877876,250.1297760
7950,19.6126022,9.0189114,7.9415264,-51.9083977,-90.9923630,143.2366486
7960,19.6126022,10.1968527,8.2886839,-18.6870232,-90.3969498,19.8854961
7970,19.6126022,9.5336628,8.1713686,8.0076332,-69.2519073,-84.2671738
7980,19.6126022,8.3245964,8.0995426,36.2977104,-54.9160309,-163.6793823
7990,17.7457314,6.7947097,7.5393028,67.9236679,-55.6412201,-222.0458069
8000,13.2925396,5.8513989,6.0525107,98.9312973,-61.3206100,-250.1374054
8010,9.8784256,5.3438311,4.1563129,120.4122162,-58.8015251,-250.1374054
8020,7.4267755,4.9751258,2.3534882,131.0839691,-46.2519073,-250.1374054
8030,5.3246775,4.6710634,0.6368544,130.2366486,-24.0152664,-250.1374054
8040,3.7923961,4.3334827,-0.4979914,122.9312973,2.9770992,-250.1374054
8050,2.5713594,3.5601597,-1.0342898,115.3893127,28.2366409,-250.1374054
8060,0.5506636,2.2792683,-1.6879035,111.2137375,44.2595406,-250.1374054
8070,-2.3941894,1.1180865,-2.4061604,110.7328262,46.4809151,-250.1374054
8080,-5.5569139,0.1795642,-3.1435707,110.2519073,34.0610695,-250.1374054
8090,-10.9055328,-0.4932030,-4.0509686,108.8015289,13.8931293,-250.1374054
8100,-18.8973370,-0.5961532,-4.4196739,105.6717529,-37.8625946,-250.1374054
8110,-19.6131992,0.7230452,-4.2975702,108.7938919,-118.8625946,-250.1374054
8120,-19.6131992,2.2170193,-6.4020624,106.3206100,-156.0610657,-201.7709961
8130,-19.6131992,2.5138988,-8.9710283,71.1145020,-104.3969498,-98.1068726
8140,-19.6131992,3.1842721,-9.5959110,9.2442751,-2.5801528,15.6106873
8150,-19.6131992,3.7995787,-8.1426382,-55.3816795,108.3893127,113.7251892
8160,-19.6131992,3.6367738,-4.9392128,-97.7633591,190.4809113,188.7480927
8170,-19.6131992,3.1435707,-1.9201399,-111.3816757,220.6870270,245.2137451
8180,-19.6131992,2.9448531,0.0526722,-102.8702316,204.7251892,250.1297760
8190,-17.6619358,2.8897867,0.3016679,-83.0610657,175.0458069,250.1297760
8200,-13.8479919,3.1651185,-1.2497669,-66.7480927,151.8320618,250.1297760
8210,-9.9622221,3.3829896,-3.0837159,-66.6259537,141.6183167,250.1297760
8220,-6.0477223,3.4572096,-4.4244623,-82.2748108,145.4122162,250.1297760
8230,-2.5115047,3.2537034,-4.6423335,-105.7175598,153.0915985,250.1297760
8240,1.8698620,2.8538737,-3.8809812,-125.9542007,135.8473358,250.1297760
8250,8.3557215,4.0078731,-2.3726418,-130.4427490,66.5190811,250.1297760
8260,15.5861731,6.0932121,-0.1149211,-110.6870193,-43.3206100,250.1297760
8270,19.6126022,9.2918491,2.2481439,-73.6870193,-156.3664093,179.2519073
8280,19.6126022,11.8009596,4.1180058,-34.4961815,-239.5954132,42.5877876
8290,19.6126022,13.7881374,4.6734576,0.0076336,-250.1374054,-98.9847336
8300,19.6126022,13.0196018,5.2672167,18.6946564,-247.7099304,-223.5801544
8310,19.6126022,10.4482431,5.3629842,29.1908398,-214.4885559,-250.1374054
8320,13.5870247,8.3916340,5.7963328,43.6335869,-189.8244324,-250.1374054
8330,8.0157461,6.1889796,5.7556314,59.1603050,-161.3740387,-250.1374054
8340,4.0126615,5.4443870,4.7500720,77.3664093,-111.4045792,-250.1374054
8350,1.2761030,4.7788019,2.9472473,84.7709961,-59.4732819,-250.1374054
8360,-0.9768293,4.3885493,0.6703730,81.6412201,-8.2061071,-250.1374054
8370,-2.5402350,3.8283088,-1.8147956,72.1603088,45.5801544,-250.1374054
8380,-5.2001796,2.7485294,-3.5649481,59.2061081,89.4045792,-250.1374054
8390,-10.8744087,1.8890154,-5.1355362,48.6106873,95.9007645,-250.1374054
8400,-16.6372223,1.6735384,-5.8274570,42.6335869,37.6564903,-250.1374054
8410,-19.6131992,1.9249283,-6.0884237,45.6946564,-63.5038185,-249.0305328
8420,-19.6131992,2.6072724,-6.8832946,48.2671738,-135.5190887,-184.8854980
8430,-19.6131992,2.2553265,-8.1857338,33.1526718,-140.0534363,-108.3816757
8440,-19.6131992,2.9304879,-8.0348997,1.6641221,-101.2442780,-18.1145039
8450,-19.6131992,3.5122759,-7.4004397,-43.9007645,-25.0916023,59.4274826
8460,-19.6131992,3.3853838,-5.5545197,-89.4503784,56.8396950,123.4809189
8470,-19.6131992,2.8395088,-2.4420733,-115.4732819,98.4732819,175.0381622
8480,-18.0162754,2.7796540,-0.4692611,-118.3053436,98.3816757,209.5496216
8490,-16.8790359,2.4372849,1.0031654,-98.9847336,85.7633591,242.6870270
8500,-15.8950233,2.4827745,1.3407460,-74.6106873,62.0305328,250.1297760
8510,-13.9126348,2.7796540,0.4884146,-52.6106873,41.6488533,250.1297760
8520,-11.4418316,2.9304879,-1.0007712,-43.3358765,39.9083977,250.1297760
8530,-8.9063845,3.1315999,-2.6240315,-48.2290077,58.1068687,250.1297760
8540,-6.5313487,3.2920105,-3.7421181,-64.3358765,86.8778610,250.1297760
8550,-4.5322008,3.1411765,-4.0916696,-87.6641235,112.8244247,250.1297760
8560,-2.0637913,2.9041519,-3.4811516,-109.7709961,121.3435135,250.1297760
8570,1.7118455,2.9951310,-2.2672975,-122.0916061,99.2366409,250.1297760
8580,5.7053533,3.5745249,-1.4389079,-127.7862625,37.6946564,250.1297760
8590,11.4609852,4.8817525,-0.9385223,-122.1374054,-28.6564884,250.1297760
8600,17.8798065,6.5074067,0.0095768,-106.1755753,-85.4351120,250.1297760
8610,19.6126022,8.4467001,1.0510491,-86.8931274,-118.2442780,157.9770966
8620,19.6126022,9.1386213,2.0805507,-68.9160309,-126.5801544,54.6793900
8630,19.6126022,10.1944590,3.4883339,-51.1526718,-121.0687027,-37.9465637
8640,19.6126022,9.4714136,4.7716198,-33.7786255,-109.7480927,-117.1832047
8650,19.6126022,8.5161324,5.7771792,-13.9160309,-98.0687027,-174.0992432
8660,16.7425671,7.4986014,6.0309634,8.2824430,-81.5496216,-213.8473358
8670,13.4337969,6.6582408,5.4515696,30.7175579,-57.9007645,-239.7175598
8680,10.8504667,6.0620875,3.8283088,49.1145020,-27.2595425,-250.1374054
8690,8.6909075,5.7580256,2.3989778,61.2366409,16.1755733,-250.1374054
8700,6.9287844,5.4443870,0.8092360,67.7175598,68.5190811,-250.1374054
8710,5.6454988,5.0373745,-0.4118006,69.1679382,113.9007645,-250.1374054
8720,4.1156116,4.3310885,-1.1994889,68.2137375,143.5648804,-250.1374054
8730,2.6288199,3.1435707,-2.1380112,63.6412201,152.6564941,-250.1374054
8740,0.5865764,1.7309990,-2.7102225,60.7862587,148.8396912,-250.1374054
8750,-2.0254843,0.2274480,-2.9400647,64.1297684,137.2977142,-250.1374054
8760,-5.8130918,-1.0079538,-3.0621684,73.6793900,116.3816757,-250.1374054
8770,-12.8951044,-1.8866212,-3.3925664,84.7862625,77.4732819,-250.1374054
8780,-19.6131992,-1.8483143,-3.5697365,96.6717529,2.8473282,-250.1374054
8790,-19.6131992,-0.6009415,-3.7923961,108.2366409,-95.4732819,-250.1374054
8800,-19.6131992,1.3455344,-5.9088597,118.1908417,-158.9541931,-210.1450348
8810,-19.6131992,2.1356170,-9.5216913,98.3969498,-141.4961853,-100.9923630
8820,-19.6131992,2.0853391,-11.6237898,41.4274826,-62.9236641,19.5038166
8830,-19.6131992,2.7557120,-12.0116482,-33.7175560,38.9618340,130.1221313
8840,-19.6131992,2.8969693,-10.3021975,-107.8015289,131.7786255,208.5190887
8850,-19.6131992,2.4779861,-6.5816269,-153.8396912,177.1221313,250.1297760
8860,-19.6131992,2.3702476,-3.1052637,-166.0915985,168.8778687,250.1297760
8870,-19.5437679,1.8578910,-0.9768293,-152.6717529,127.6641235,250.1297760
8880,-17.9971218,1.7645177,-0.4309541,-124.9083939,77.9847336,250.1297760
8890,-15.3850613,2.2098370,-1.4532729,-99.9160309,41.2824440,250.1297760
8900,-12.5431585,2.0877333,-3.1435707,-92.9770966,25.4503822,250.1297760
8910,-9.2200232,1.7166338,-4.4579806,-103.3511429,33.7328262,250.1297760
8920,-6.0189924,1.4556671,-5.1594782,-126.1450348,68.9923630,250.1297760
8930,-3.7828193,0.5578461,-4.8793583,-158.9618378,114.5267181,250.1297760
8940,-1.5011568,-0.4884146,-3.7636659,-191.6183167,144.5725250,250.1297760
8950,1.9105632,-1.2856797,-1.5083394,-215.5496216,152.3587799,250.1297760
8960,5.9232249,-1.7621235,0.7134684,-225.6106873,138.4122162,250.1297760
8970,11.3700056,-1.3910241,3.0262554,-222.4198456,96.4732819,250.1297760
8980,19.1918221,1.1180865,6.4068508,-202.8778687,23.4732819,250.1297760
8990,19.6126022,3.6990228,9.8784256,-166.0076294,-37.7022896,250.1297760
9000,19.6126022,5.5545197,12.0954447,-120.9770966,-55.0305328,131.8320618
9010,19.6126022,6.4499464,13.4960461,-74.8396912,-43.7175560,15.2213745
9020,19.6126022,5.9687142,14.2166967,-25.3206100,-36.7022896,-92.2519073
9030,19.6126022,4.6519103,13.9581242,26.8778629,-51.9465637,-176.8625946
9040,17.2190113,3.5697365,12.6006193,77.4656525,-81.2366409,-234.4885559
9050,13.2685976,3.1052637,10.8001890,122.0000000,-105.5114517,-250.1374054
9060,10.4458485,3.2824337,8.8201942,157.1297760,-113.0305328,-250.1374054
9070,8.1641865,3.7995787,6.1051831,180.1374054,-102.8625946,-250.1374054
9080,6.4355812,4.3310885,3.3901722,190.2824402,-74.1908417,-250.1374054
9090,5.0924411,5.0565281,0.9600700,188.5877838,-29.8549614,-250.1374054
9100,3.9073172,5.3845320,-1.1396341,175.8702240,13.0152674,-250.1374054
9110,3.1172347,5.3965030,-2.6000898,159.3053436,46.9236641,-250.1374054
9120,2.1811066,4.8075323,-3.7636659,144.0610657,70.0610657,-250.1374054
9130,0.6775556,3.8115497,-5.0996237,133.1832123,75.0916061,-250.1374054
9140,-1.5801650,2.5138988,-5.9878678,125.1603088,63.5877876,-250.1374054
9150,-5.6862001,1.4436963,-6.2416520,118.4961853,35.8015251,-250.1374054
9160,-11.8344784,0.8858501,-6.3134775,114.7022934,-17.0763359,-250.1374054
9170,-17.9181137,1.1611819,-5.8274570,114.4274826,-99.5343475,-250.1374054
9180,-19.6131992,2.1547706,-5.5401545,115.0229034,-185.4427490,-250.1374054
9190,-19.6131992,3.6080434,-6.4523406,106.2671738,-226.9389343,-250.1374054
9200,-19.6131992,4.6399393,-8.3988171,77.3435135,-193.1374054,-170.1679382
9210,-19.6131992,4.9559722,-9.6294298,24.6106873,-99.1526718,-71.8854980
9220,-19.6131992,4.5345950,-9.7970228,-41.5114517,18.0763359,28.3358784
9230,-19.6131992,4.0701222,-7.8673067,-99.0992355,107.4885483,113.3969498
9240,-19.6131992,3.5026991,-5.1283536,-130.2824402,146.3053436,174.3129730
9250,-18.7393208,3.0717452,-3.1100521,-137.3206177,145.2442780,211.8244324
9260,-16.9412842,3.0190730,-1.7860653,-130.7862549,118.9618301,238.6564941
9270,-15.1240950,3.1770895,-1.7262106,-118.7709961,79.3053436,250.1297760
9280,-12.8687687,3.6702924,-1.8938038,-106.2900772,45.7404594,250.1297760
9290,-10.7020273,3.9887197,-2.2672975,-100.9389343,33.1450386,250.1297760
9300,-9.8999729,3.9647777,-2.4492557,-103.9465637,35.9618340,250.1297760
9310,-8.7531567,3.5314295,-2.1404054,-109.0457993,36.8396950,250.1297760
9320,-6.6031747,3.2393384,-1.7621235,-112.4198456,41.2977104,250.1297760
9330,-4.1515245,3.0214672,-1.8459201,-118.3053436,59.2519073,250.1297760
9340,-1.7788827,2.4803803,-1.9991482,-131.4198456,87.2519073,250.1297760
9350,0.7829000,1.8052188,-1.6208663,-150.0839691,104.6793900,250.1297760
9360,4.8171091,1.6184721,-0.1915352,-163.4198456,90.7404556,250.1297760
9370,10.0460186,2.4133430,1.5274929,-163.1526642,52.0076332,250.1297760
9380,15.5239248,3.8019729,3.6655040,-150.8473358,8.0916033,250.1297760
9390,19.6126022,5.5305777,6.1003947,-129.7404633,-33.4427490,222.3206177
9400,19.6126022,7.1753860,8.8417416,-99.8778610,-60.0305328,126.5954208
9410,19.6126022,7.9606800,11.4777441,-59.7251892,-69.6106873,29.5267181
9420,19.6126022,7.8673067,12.6892042,-9.9083967,-75.8015289,-52.6564903
9430,18.4615955,7.6661944,12.5263996,47.8244286,-89.2519073,-113.2519073
9440,14.1017761,7.2759418,10.5464048,103.9770966,-107.4885483,-147.6183167
9450,11.4825325,7.1634150,7.3477674,145.6793823,-121.6412201,-164.3282471
9460,10.1465750,6.9646969,4.0389977,172.4122162,-121.6030502,-173.1374054
9470,9.2056589,7.1370788,0.2537841,180.7480927,-111.8778610,-179.9618378
9480,8.5759869,7.9534974,-2.6599445,168.0076294,-89.3206100,-191.2977142
9490,7.4794478,8.4993725,-4.5082588,140.2977142,-65.5343475,-205.4198456
9500,6.1219425,8.9614515,-5.4850879,107.3969498,-36.2366409,-221.8702240
9510,5.1929970,9.4211359,-5.6909885,79.6488571,0.4580153,-242.7480927
9520,4.2999644,8.8154058,-5.6478930,54.9541969,34.2900772,-250.1374054
9530,3.0501974,7.8170285,-5.1522956,34.5954208,45.4198456,-250.1374054
9540,1.0630201,6.2512288,-4.2903876,22.1755733,32.8244286,-250.1374054
9550,-1.3694763,4.2425036,-3.4356618,18.9007626,9.7633591,-250.1374054
9560,-4.5537481,2.3558824,-2.7293761,20.6793900,-20.0687027,-250.1374054
9570,-7.6135225,1.3551112,-2.1691356,24.9083977,-47.8625946,-250.1374054
9580,-10.6613255,0.9744351,-2.1619530,25.2900772,-53.5877876,-250.1374054
9590,-14.3723192,1.2138541,-2.2649033,16.9236641,-34.1374054,-250.1374054
9600,-19.3689919,1.3934183,-2.1451938,3.2671757,-6.5877862,-250.1374054
9610,-19.6131992,1.4939742,-1.4867916,-6.0458016,6.2213740,-235.3435059
9620,-19.6131992,1.9321109,-1.5083394,-5.1145039,-3.6564887,-146.2442780
9630,-19.6131992,2.3582766,-2.8969693,-7.7709923,-10.5496187,-54.4885483
9640,-19.6131992,2.6168492,-4.2425036,-24.8244267,-13.6106873,27.9541988
9650,-19.6131992,2.9424589,-4.4005203,-49.7251892,-3.2442749,100.6946564
9660,-19.6131992,2.9711890,-3.7636659,-72.6717529,31.4656487,157.9007568
9670,-17.9971218,2.8658447,-2.9807658,-90.3664093,72.2900772,203.5114441
9680,-16.5462437,2.8873925,-1.5442522,-101.7862625,98.7862625,243.5419922
9690,-15.0163565,2.9424589,-0.1221037,-102.0076370,100.6564865,250.1297760
9700,-13.0746689,3.0454090,0.3232156,-92.5496216,95.9923630,250.1297760
9710,-10.8552551,3.1411765,-0.4261657,-83.1221390,86.6030502,250.1297760
9720,-8.4251528,3.3805954,-1.6088953,-80.1908417,80.9923630,250.1297760
9730,-5.5712790,3.4021432,-2.6575503,-86.5954208,85.9007645,250.1297760
9740,-2.8730273,3.3829896,-3.3997490,-101.9312973,98.8625946,250.1297760
9750,-0.6177009,3.0861101,-3.5314295,-122.9542007,109.1450348,250.1297760
9760,2.1547706,2.4420733,-2.8706331,-143.4274750,105.4961853,250.1297760
9770,5.7676024,2.2098370,-1.5394639,-155.6793823,76.6793900,250.1297760
9780,9.9215212,2.8419030,0.2801202,-155.3664093,24.2137413,250.1297760
9790,14.6356802,4.0174499,2.5043221,-143.0076294,-42.0381660,250.1297760
9800,19.6126022,5.7245069,4.6878228,-122.4580154,-97.8931274,219.6488495
9810,19.6126022,7.3908629,6.8904772,-96.2519073,-118.1526718,134.4122162
9820,19.6126022,7.9630742,8.7675219,-69.2900772,-96.5801544,47.7862587
9830,19.6126022,8.2072811,10.2926207,-43.4427490,-48.2213745,-33.7633591
9840,19.6126022,7.4315639,11.9470053,-9.3511448,-13.7404585,-101.5114517
9850,16.7449608,6.5217719,12.4258432,37.3740463,-6.7099237,-149.7786255
9860,13.3476067,5.7699966,11.2886028,88.1526718,-16.8473282,-186.4427490
9870,10.2399483,5.3366485,8.9279327,131.9313049,-31.4122143,-212.9160309
9880,8.2168579,5.6047974,5.9758968,163.2671814,-38.9312973,-234.4427490
9890,6.6558466,6.1674318,2.9640064,177.7709961,-34.9847336,-250.1374054
9900,5.2097564,6.4906478,0.1460456,176.4885559,-26.5496178,-250.1374054
9910,4.0533628,6.1961622,-1.8914096,165.7404633,-17.2824421,-250.1374054
9920,2.7461352,5.3629842,-3.0525916,153.4274750,-7.7633586,-250.1374054
9930,0.8259954,4.3861551,-3.8546450,143.2213745,-1.0076336,-250.1374054
9940,-1.5035510,3.5314295,-4.7620430,134.2061005,-1.3816794,-250.1374054
9950,-4.2879934,2.9640064,-5.4826937,123.3511429,-8.2061071,-250.1374054
9960,-7.8984308,2.6288199,-5.6550756,111.2366409,-19.0610695,-250.1374054
9970,-12.4449968,2.5402350,-5.7005649,101.1374054,-35.1068687,-250.1374054
9980,-18.2844257,2.8634505,-5.1044121,89.2290039,-61.9160309,-250.1374054
9990,-19.6131992,3.6295912,-5.1403246,82.2519073,-102.1908417,-250.1374054
