timestamp,acclX,acclY,acclZ,gyroX,gyroY,gyroZ
0,10.1681223,2.7030399,6.3733325,-7.5190840,-51.1221390,-84.7404556
10,9.9191265,2.4444675,6.5576849,-12.1450386,-36.6030540,-98.8549652
20,8.5831690,2.8706331,7.0748301,-14.0763359,-32.4961815,-106.7709961
30,7.7715387,2.8442972,7.5153608,-13.5419846,-40.3816795,-108.2824402
40,7.3908629,2.6264257,7.3669209,-11.1908398,-53.2213745,-108.6641235
50,7.4962072,2.7317703,7.0891948,-9.4580154,-61.0916023,-108.8167953
60,7.4243813,2.9137285,6.6654234,-10.0687027,-65.5038147,-108.8778610
70,7.7212610,3.0478032,6.2296810,-14.1908398,-71.4045792,-109.4045792
80,8.1258793,3.2082138,5.6478930,-20.4122143,-76.7633591,-111.6183243
90,8.5424681,3.1052637,5.3270717,-28.1832066,-78.7404556,-116.0687027
100,8.7627335,3.0071020,5.0421629,-37.6870232,-78.7480927,-123.5267181
110,9.0236998,2.7652888,5.0996237,-46.8625946,-83.7862625,-132.7938995
120,9.6581602,2.5833304,5.5210009,-54.5343513,-98.3511429,-144.9847260
130,10.6110477,2.1547706,5.9256191,-58.6030540,-119.6717529,-161.4732819
140,11.6836443,1.9823889,6.6127515,-59.9389305,-150.5648804,-186.0000000
150,12.6652622,1.7118455,8.0492649,-56.1755714,-188.1068726,-217.0305328
160,13.4840746,1.1563935,9.4714136,-46.0534363,-218.7938995,-250.1374054
170,14.6213150,0.3878587,10.0579901,-33.3816795,-239.5954132,-250.1374054
180,15.1408539,-0.2489957,10.7666702,-21.5801525,-250.1374054,-250.1374054
190,14.3340120,-0.9600700,11.6716738,-9.4045801,-250.1374054,-250.1374054
200,13.3787308,-1.7812769,12.3372583,4.4274807,-250.1374054,-250.1374054
210,13.2111378,-2.1451938,13.2039547,20.7786255,-250.1374054,-250.1374054
220,12.3755655,-2.1763182,14.0778341,41.8549614,-250.1374054,-250.1374054
230,11.3340931,-2.2601149,14.1113529,66.2137375,-250.1374054,-250.1374054
240,10.0316534,-2.0326669,13.0555153,88.2290039,-250.1374054,-250.1374054
250,8.8393478,-1.6160779,11.6884327,103.6259537,-250.1374054,-250.1374054
260,7.3046722,-0.8906385,10.2088242,116.3740463,-242.5801544,-250.1374054
270,5.8513989,-0.3926471,8.5999289,124.0916061,-221.5572510,-250.1374054
280,4.9416070,0.3974355,7.4555058,130.1145020,-210.4656525,-250.1374054
290,3.6894460,0.8978211,6.3422079,135.5267181,-207.3053436,-250.1374054
300,1.1731528,0.8834559,4.5034704,138.2519073,-202.6412201,-250.1374054
310,-1.5538290,0.8212070,2.6288199,136.3511505,-204.4503784,-250.1374054
320,-3.9480183,1.1180865,0.7900825,128.2061005,-219.3053436,-250.1374054
330,-6.4571290,1.6424140,-1.0271072,112.1832047,-235.6488495,-250.1374054
340,-9.8401184,2.4085546,-2.5210814,90.3435135,-246.3740387,-250.1374054
350,-13.5702658,3.3422885,-3.1579359,62.2748108,-245.3129730,-250.1374054
360,-17.0969067,4.3909435,-3.5817075,29.6488552,-227.8091583,-250.1374054
370,-19.6131992,5.4611464,-3.6248028,-4.9694657,-183.5419922,-244.0305328
380,-19.6131992,6.4906478,-3.4117200,-39.3358765,-120.3053436,-145.4732819
390,-19.6131992,6.4020624,-3.6008608,-76.0992355,-33.0381660,-32.3358765
400,-19.6131992,5.8681583,-3.0478032,-113.0534363,41.5190849,84.8778610
410,-19.6131992,5.4587522,-1.9368993,-143.2519073,86.6412201,191.0229034
420,-19.6131992,4.5992379,-0.9145803,-161.1221313,113.6564865,250.1297760
430,-17.3147774,3.1842721,0.0981618,-174.0763397,136.9084015,250.1297760
440,-12.4066896,2.4372849,1.1994889,-186.5725250,155.1755676,250.1297760
450,-7.5823979,1.6783268,2.4995339,-197.3282471,167.6564941,250.1297760
460,-2.4516499,1.1348459,4.6495161,-200.5877838,162.8244324,250.1297760
470,3.3877780,0.9888002,7.0772243,-189.7557220,135.6564941,250.1297760
480,9.4522600,1.1611819,9.6964674,-165.2671814,93.2442780,250.1297760
490,16.3978043,2.3941894,12.3803539,-129.8931274,43.9541969,250.1297760
500,19.6126022,3.7995787,14.0347385,-82.7022934,-5.5648856,227.0152740
510,19.6126022,5.1714492,14.4010496,-31.9236641,-35.0763359,114.0457993
520,19.6126022,5.4276276,13.5367470,11.5648851,-54.1603050,-1.8854961
530,19.6126022,5.0756817,12.4426022,47.8625946,-71.1984711,-107.0534363
540,19.6126022,4.3047528,11.0707321,78.0152664,-83.1908417,-192.3282471
550,17.1854916,3.5721307,9.4857788,101.3206100,-85.9618301,-250.1374054
560,12.9789009,3.2297616,8.1929159,116.0534363,-74.7099228,-250.1374054
570,9.4785957,3.4236910,6.8856888,126.6106873,-50.4351158,-250.1374054
580,6.4283986,3.8163381,5.8226686,134.1374054,-28.1526718,-250.1374054
590,4.0437860,4.2879934,4.5034704,141.5725250,-9.8320608,-250.1374054
600,1.6352314,4.4148855,3.1627243,146.7557220,2.9465649,-250.1374054
610,-1.0342898,4.2305326,1.7645177,149.2137451,4.3435116,-250.1374054
620,-4.0509686,3.8857694,0.2849085,149.1832123,-6.1984735,-250.1374054
630,-7.6518297,3.6463506,-1.2449785,145.8778687,-26.5114498,-250.1374054
640,-11.9661589,3.5769191,-2.6551561,138.1755676,-55.0458031,-250.1374054
650,-16.9029770,4.0749106,-3.8115497,124.9542007,-91.1908417,-250.1374054
660,-19.6131992,5.0900469,-4.6112089,106.0687027,-123.5267181,-250.1374054
670,-19.6131992,6.1554613,-5.0661049,79.6793900,-127.3893127,-180.8778687
680,-19.6131992,6.7276726,-5.2073622,44.2900772,-91.8854980,-90.8473282
690,-19.6131992,6.9048424,-4.8314743,3.7480917,-25.5954189,4.0839696
700,-19.6131992,6.6869712,-3.0214672,-30.0839691,29.6564884,91.6183243
710,-19.6131992,6.3589673,-0.8690908,-48.0381660,53.1145020,163.1374054
720,-19.6131992,5.7532372,0.8619082,-49.6641235,55.1984749,220.6259613
730,-17.3674507,5.2672167,1.9081690,-41.9465637,44.4045792,250.1297760
740,-14.6763811,4.9655490,1.8938038,-32.7786255,34.9236641,250.1297760
750,-11.9613705,4.3286943,1.3646880,-28.2366409,35.9923668,250.1297760
760,-9.3133974,3.7804251,0.8283895,-30.6564884,50.7328262,250.1297760
770,-6.8234401,3.0597742,0.0909792,-40.4198456,72.4580154,250.1297760
780,-4.1132174,2.4109488,-0.1053443,-55.4122124,95.8244247,250.1297760
790,-0.8044477,1.6328372,0.1388630,-73.1450348,118.3282471,250.1297760
800,3.4500270,1.0893562,0.9552816,-89.7480927,129.7557220,250.1297760
810,9.6414013,1.2904681,2.5426292,-100.1374054,119.5267181,250.1297760
820,17.4033623,2.7174051,5.3534074,-97.5267181,85.0000000,250.1297760
830,19.6126022,4.4436154,8.2527714,-80.8167953,43.5038185,250.1297760
840,19.6126022,5.9687142,10.8169479,-51.4198456,4.6030536,178.2442780
850,19.6126022,6.4188218,12.3540173,-11.3053436,-28.5877857,55.4427490
860,19.6126022,6.4283986,12.3947191,35.5419846,-59.0076332,-63.1374054
870,19.6126022,5.4324160,10.8720140,80.5496216,-90.5648880,-167.0534363
880,19.6126022,4.9320302,9.0117292,114.1068726,-118.6717529,-241.2824402
890,17.9492378,4.5154414,7.1586266,137.0915985,-130.2213745,-250.1374054
900,14.4345684,4.6207857,4.9511838,150.5572510,-114.4809189,-250.1374054
910,11.0467901,4.9248476,2.4708035,152.7557220,-76.6564865,-250.1374054
920,7.8146343,5.3079181,0.4860204,144.4809113,-36.4198456,-250.1374054
930,5.3677726,5.5114241,-0.7637464,130.2900696,-2.1068702,-250.1374054
940,2.9185169,4.8362627,-1.7836711,115.7328262,21.6946564,-250.1374054
950,0.4572902,3.8546450,-2.6910689,102.3053436,37.4732819,-250.1374054
960,-2.4875629,2.7365584,-3.1124463,95.1984711,40.1984749,-250.1374054
970,-6.0333576,1.8387375,-3.4548154,88.6106873,26.1374054,-250.1374054
980,-9.5240860,1.3838415,-3.6798692,83.5572510,6.5572519,-250.1374054
990,-12.9597473,1.7860653,-4.2616572,74.7786255,-1.1755725,-250.1374054
1000,-16.8263626,2.5498118,-4.8913293,58.2061081,6.7938933,-250.1374054
1010,-19.6131992,3.4596038,-5.0684991,35.7786255,26.2213745,-250.1374054
1020,-19.6131992,4.2544746,-5.2600341,11.7633591,48.1068687,-191.3206177
1030,-19.6131992,4.5537481,-5.4850879,-11.0534353,57.5954208,-96.6564865
1040,-19.6131992,5.0517397,-5.3749552,-29.1068707,52.0534363,0.0687023
1050,-19.6131992,5.4419928,-6.0309634,-43.5648842,54.4198456,83.4732819
1060,-19.6131992,5.4395986,-6.7899213,-65.4274826,73.6335907,150.7480927
1070,-19.1056328,5.4324160,-6.1985564,-90.3053436,83.9312973,204.1603088
1080,-16.0817699,5.0062504,-4.4867110,-106.1603088,84.0305328,244.4503784
1090,-13.0243902,5.3725610,-3.3566537,-115.4503784,84.7480927,250.1297760
1100,-10.7187862,5.3007355,-2.4588325,-121.3893127,83.0152664,250.1297760
1110,-8.4227581,4.9511838,-1.7501525,-127.3282471,77.9770966,250.1297760
1120,-5.4946647,4.3933377,-1.2904681,-131.9847260,69.7862625,250.1297760
1130,-2.2170193,4.0270267,-1.0366840,-134.4045868,56.6335869,250.1297760
1140,1.7357874,3.4284792,-0.7469871,-136.4503784,35.0152664,250.1297760
1150,5.3653784,3.2489152,0.0311245,-135.3206177,-1.0992366,250.1297760
1160,9.1625633,3.4284792,1.1516051,-127.9847336,-44.8931313,250.1297760
1170,12.6915979,4.1395535,2.8179610,-115.1221390,-76.9160309,250.1297760
1180,16.8215752,5.6526814,5.3127065,-98.5267181,-90.1450348,202.9084015
1190,19.6126022,7.6685886,8.2288294,-76.2366409,-79.8091583,129.2290039
1200,19.6126022,9.2607250,11.1904411,-46.2748108,-41.6183205,39.0305328
1210,19.6126022,9.3540983,13.2733860,-7.5954199,2.6412213,-55.0610695
1220,18.3035774,8.2551651,13.7043400,42.6030540,16.8854961,-140.9465637
1230,14.3986549,7.0532823,12.6006193,98.2061081,-10.0229006,-214.0458069
1240,10.4554253,5.9184365,10.4554253,152.2595367,-51.2137413,-250.1374054
1250,7.1466556,5.0589223,7.3788919,192.1526642,-81.1297684,-250.1374054
1260,3.6463506,4.4843168,4.1060348,211.0152740,-92.8625946,-250.1374054
1270,0.9097920,3.9384418,1.4748207,213.0229034,-87.8320618,-250.1374054
1280,-3.5529771,2.5713594,-0.6895266,204.5877838,-67.0457993,-250.1374054
1290,-10.8959560,2.2553265,-2.2337787,193.8396912,-63.7862587,-250.1374054
1300,-19.1535149,3.8785870,-4.3382711,185.2824402,-98.5725174,-250.1374054
1310,-19.6131992,4.7692256,-6.1554613,180.1908417,-182.4274750,-250.1374054
1320,-19.6131992,3.9384418,-8.6813307,173.6870270,-250.1374054,-141.9923706
1330,-19.6131992,6.4212160,-11.8919392,137.0305328,-226.1068726,-11.6412210
1340,-19.6131992,6.6247220,-12.4138727,70.9007645,-133.7328186,100.4351120
1350,-19.6131992,6.3398137,-10.3740225,-0.2213740,-26.1755733,192.6946564
1360,-19.6131992,5.9974446,-6.4930420,-49.5343513,64.7175598,250.1297760
1370,-18.5597572,5.0852585,-2.3654592,-70.9542007,102.3206100,250.1297760
1380,-15.6867294,3.8283088,0.4812321,-67.7862625,103.0839691,250.1297760
1390,-11.8057480,3.0214672,1.4484847,-52.3893127,88.0916061,250.1297760
1400,-6.7707677,2.5043221,0.2657550,-38.2977104,80.2671738,250.1297760
1410,-2.4660151,2.6503677,-1.7788827,-38.8473282,91.7862625,250.1297760
1420,1.1492109,3.0142846,-2.8778157,-56.8473282,110.7328262,250.1297760
1430,5.5928264,3.2441268,-2.7533178,-84.0839691,128.4427490,250.1297760
1440,10.6445665,3.8833754,-1.1875180,-108.3206100,138.0000000,250.1297760
1450,15.4113979,4.5034704,1.1156923,-123.4122162,136.4885559,250.1297760
1460,19.6126022,5.2049680,3.5170643,-126.0916061,119.2290039,250.1297760
1470,19.6126022,5.8106980,5.4635406,-113.9312973,82.5725174,182.5114441
1480,19.6126022,6.2727766,7.0628591,-89.1832047,30.7175579,87.0534363
1490,19.6126022,6.2631998,8.4610653,-55.1374054,-26.5877857,-11.1450386
1500,19.6126022,6.1578555,8.6885138,-19.9160309,-69.9389343,-94.3435135
1510,19.6126022,5.9950504,8.4371233,11.4961834,-92.6641235,-161.5419922
1520,18.1958389,5.6646523,7.9582858,36.4351158,-96.7175598,-209.1984711
1530,15.3276005,5.4587522,7.3214312,59.6564903,-84.7099228,-241.1832123
1540,12.8998928,5.4731169,6.1889796,80.6183243,-58.1908379,-250.1374054
1550,10.2447367,5.4826937,4.7740140,97.3282471,-25.8244267,-250.1374054
1560,7.3190370,5.3869262,3.0573800,108.0457993,-0.7099237,-250.1374054
1570,5.4300218,5.2720051,1.5969244,115.0763321,16.9694653,-250.1374054
1580,3.9863255,4.7644372,0.1053443,119.0839691,24.9083977,-250.1374054
1590,2.3965836,3.5074875,-1.4341195,118.9770966,26.3816795,-250.1374054
1600,0.3663110,1.8483143,-2.5450234,116.3893127,20.9770985,-250.1374054
1610,-3.5026991,0.1628049,-3.4141142,112.5572510,3.4656489,-250.1374054
1620,-9.3947992,-0.8499373,-3.6487448,109.5954208,-24.8244267,-250.1374054
1630,-17.4943428,-0.7661406,-3.7708483,105.9312973,-65.1908417,-250.1374054
1640,-19.6131992,0.4932030,-4.4819226,100.2519073,-122.4427490,-250.1374054
1650,-19.6131992,2.6216373,-5.0206151,91.0610657,-183.4809113,-250.1374054
1660,-19.6131992,3.8714044,-6.6319046,72.6870193,-200.6030579,-121.8091583
1670,-19.6131992,3.8426740,-8.3676920,35.6488533,-142.3664093,15.6488552
1680,-19.6131992,4.2377152,-9.0117292,-19.7175579,-22.3587780,135.3664093
1690,-19.6131992,4.1874375,-6.8593526,-78.0763321,97.8625946,224.8015289
1700,-19.6131992,3.7804251,-3.2106080,-112.7328262,163.3664093,250.1297760
1710,-18.5645447,2.9041519,-0.0694315,-116.8244247,178.0000000,250.1297760
1720,-15.9883976,2.3941894,1.4413021,-101.2900772,158.8473358,250.1297760
1730,-12.2941628,1.9895715,1.1300575,-79.3282471,132.3206177,250.1297760
1740,-8.1498213,1.8411317,-1.3790531,-69.0305328,125.6870193,250.1297760
1750,-4.2209558,2.0254843,-3.7588775,-82.0534363,145.0915985,250.1297760
1760,-0.8307837,1.6567791,-5.1187773,-116.0305328,177.4503784,250.1297760
1770,2.5833304,0.8499373,-4.6638808,-157.3740387,204.3969421,250.1297760
1780,6.6079631,0.0790083,-2.8275378,-191.5038147,202.6259613,250.1297760
1790,11.5830889,0.1556223,-0.0191535,-207.2824402,154.2671814,250.1297760
1800,19.4647598,2.0039365,4.0485744,-198.7022858,73.1679382,250.1297760
1810,19.6126022,4.7596488,8.3293848,-168.1832123,-7.6946564,244.9465637
1820,19.6126022,7.1083484,12.1409349,-121.7175598,-46.0916023,113.9083939
1830,19.6126022,7.4602942,14.2621870,-67.6183243,-40.5648842,-12.9694653
1840,19.6126022,6.5552907,15.1408539,-8.4732828,-30.6488552,-119.9312973
1850,19.6126022,5.7676024,14.5518837,53.4885483,-47.4656487,-202.3435059
1860,16.7234135,4.7165532,12.2199430,110.8702316,-81.3511429,-250.1374054
1870,11.9517937,4.0820932,9.4307127,154.4809113,-106.6259537,-250.1374054
1880,7.9894104,3.8953462,6.0142040,182.3511505,-115.1068726,-250.1374054
1890,5.4539638,4.2999644,2.9664006,191.9694672,-105.9542007,-250.1374054
1900,3.2896163,4.3334827,0.1292862,185.1908417,-83.3740463,-250.1374054
1910,1.2784972,3.7876077,-1.8267666,168.3435059,-51.0763359,-250.1374054
1920,-1.2306134,2.8347204,-2.9496415,150.4809113,-16.8396950,-250.1374054
1930,-5.7269011,1.9967541,-3.6128318,137.3053436,0.1984733,-250.1374054
1940,-11.7171631,1.7669119,-4.4053087,129.1679382,-8.2137403,-250.1374054
1950,-18.8566360,2.4324965,-5.2767935,123.5190811,-55.7251892,-250.1374054
1960,-19.6131992,3.9073172,-6.1937680,118.3511429,-126.9542007,-250.1374054
1970,-19.6131992,5.6862001,-7.7763271,105.7328262,-174.3969421,-184.6641235
1980,-19.6131992,7.1825686,-9.6892843,72.7328262,-155.8778687,-94.3206100
1990,-19.6131992,7.4938130,-10.7618818,18.9541988,-70.1984711,-0.3282443
2000,-19.6131992,7.1825686,-10.1082678,-42.8473282,36.9694672,88.0381699
2010,-19.6131992,6.8282285,-7.3812861,-91.5114517,116.5267181,160.3129730
2020,-18.3131542,5.9758968,-4.3574247,-112.9923630,150.5038147,213.9313049
2030,-16.6300392,5.2911587,-2.1715298,-115.5877838,145.4351196,250.1297760
2040,-13.9078465,4.8985114,-0.9217629,-107.9847336,127.4503784,250.1297760
2050,-10.7762470,4.5872669,-1.2042773,-100.6946564,115.2213745,250.1297760
2060,-7.7739329,4.6830344,-2.3510940,-102.4351120,119.8320618,250.1297760
2070,-5.4922705,4.2018023,-2.9065459,-115.2061081,139.0305328,250.1297760
2080,-2.8179610,3.7133877,-3.5577655,-138.2748108,169.4351196,250.1297760
2090,-0.6033357,3.0621684,-3.4356618,-168.9313049,204.2366486,250.1297760
2100,1.7381816,2.1116750,-1.9129574,-200.0305328,229.9313049,250.1297760
2110,4.7021880,1.4963684,0.6655847,-220.7633514,227.2137451,250.1297760
2120,9.3732519,1.5394639,3.9216824,-222.1297760,183.1832123,250.1297760
2130,16.2349987,3.1076579,8.4874020,-199.1908417,102.5877838,250.1297760
2140,19.6126022,5.1163831,12.5407648,-148.2900696,15.4198475,209.7251892
2150,19.6126022,7.4387465,15.5382900,-77.5114517,-39.6488533,90.0152664
2160,19.6126022,8.0444765,16.0578289,-4.9465647,-61.1145020,-28.9847336
2170,19.6126022,7.5776095,14.6500454,59.2595406,-72.4656525,-131.1603088
2180,19.6126022,6.9838505,12.3635941,111.2290039,-99.2137375,-210.9770966
2190,16.0721931,5.8178802,9.5552101,153.8396912,-128.5648804,-250.1374054
2200,11.5974541,5.2959471,5.9950504,182.0381622,-144.2671814,-250.1374054
2210,7.9463148,5.3055239,3.0358322,194.4503784,-136.3358765,-250.1374054
2220,4.6375451,5.3821378,0.2920911,189.4198456,-117.8015289,-250.1374054
2230,2.0925217,5.6047974,-1.5227045,172.0763397,-85.9542007,-250.1374054
2240,-0.3184272,5.5545197,-2.8538737,150.6259613,-44.3435097,-250.1374054
2250,-3.2991931,5.1906028,-3.6367738,131.3740387,-12.9923668,-250.1374054
2260,-6.7635851,4.9009056,-4.0940638,118.9312973,-6.5801525,-250.1374054
2270,-11.7770176,4.8147149,-5.0086441,111.8244247,-22.1526718,-250.1374054
2280,-18.9188843,4.9990678,-6.4044566,101.9236679,-73.2213745,-250.1374054
2290,-19.6131992,6.2536230,-7.2591825,95.5801544,-154.3358765,-193.8778687
2300,-19.6131992,7.8529415,-8.8489246,78.7633591,-190.9847260,-120.1984711
2310,-19.6131992,8.3006544,-10.4123297,39.1832047,-152.3206177,-45.1755714
2320,-19.1750641,8.1809454,-10.2184010,-16.2061062,-70.3893127,30.4809170
2330,-17.6260223,7.8050575,-8.5185261,-68.6335907,22.9923668,97.3587799
2340,-16.2134514,7.1705976,-5.4874821,-103.3664093,88.7938919,152.7099304
2350,-15.2797174,6.2248926,-2.7078283,-115.8549652,109.9694672,195.6870270
2360,-13.4433737,5.6742291,-0.4477134,-110.7633591,95.3206100,230.2442780
2370,-10.3213511,5.4659348,0.3303981,-95.8854980,75.3893127,250.1297760
2380,-7.1394730,5.5832496,-0.5434810,-85.0381699,66.8320618,250.1297760
2390,-4.5968437,5.8394279,-1.7453641,-85.8091583,74.2442780,250.1297760
2400,-2.2936335,5.7340837,-2.5450234,-97.8931274,91.4503784,250.1297760
2410,-0.4572902,5.5640965,-2.5186872,-115.8549652,115.1832047,250.1297760
2420,1.1707586,4.9176650,-2.0829449,-135.8778687,138.5801544,250.1297760
2430,3.5625539,4.4627690,-0.2537841,-151.0458069,143.3435059,250.1297760
2440,6.6965480,4.3646073,2.1667414,-153.6488495,126.6259537,250.1297760
2450,10.7068148,4.7165532,4.6495161,-143.3587799,96.7709961,250.1297760
2460,14.3435888,5.4204450,6.9311786,-122.5648880,68.5114517,206.6717529
2470,17.3554802,5.9902620,8.7148495,-95.0229034,46.0381660,151.3435059
2480,19.6126022,6.5145893,10.3189564,-63.5419846,30.4656487,89.3282471
2490,19.6126022,6.9527264,11.6213961,-26.4198475,16.7938938,19.6030540
2500,19.6126022,6.9120250,12.2654324,15.8778629,2.7938931,-50.4503822
2510,19.4695492,6.5672617,11.9972830,60.3587799,-13.9312973,-114.3969498
2520,16.8694592,6.2081332,10.3381100,103.5801544,-35.2595406,-170.9847260
2530,14.0179796,5.8873119,7.8385763,137.4885559,-52.4427490,-218.7938995
2540,11.2766323,5.8992829,5.1307478,161.4656525,-60.4122124,-250.1374054
2550,8.7866755,5.9232249,2.6958573,174.3664093,-59.6641235,-250.1374054
2560,6.2847471,5.9280128,0.1221037,175.8320618,-50.0763359,-250.1374054
2570,4.0222383,5.5042415,-1.9392935,169.0152740,-37.2061081,-250.1374054
2580,1.4963684,4.8865409,-3.3087699,158.0381622,-35.0076332,-250.1374054
2590,-1.3814473,4.0892754,-4.1108232,148.1068726,-46.1374054,-250.1374054
2600,-4.3526363,3.4356618,-4.7692256,138.5648804,-59.4580154,-250.1374054
2610,-8.0803890,3.0430148,-5.4467812,125.3282471,-70.7862625,-250.1374054
2620,-11.8560257,3.2872221,-5.7005649,108.1450348,-86.1068726,-250.1374054
2630,-15.1863441,3.9049230,-5.3677726,90.9389343,-101.5801544,-250.1374054
2640,-17.7888279,4.5298066,-5.3127065,74.4198456,-112.7938919,-250.1374054
2650,-19.6131992,5.0397687,-5.3198891,57.1297722,-115.7022934,-219.1908417
2660,-19.6131992,5.3941088,-5.4419928,37.4961815,-108.5877838,-157.0763397
2670,-19.6131992,5.7628140,-5.5736732,17.3587780,-85.6030502,-89.1832047
2680,-19.6131992,5.6981707,-5.8849177,-5.7099237,-50.0381660,-20.3893127
2690,-19.6131992,5.4419928,-5.4491754,-29.1221371,-15.9770994,50.1832047
2700,-19.6131992,5.2265158,-4.8314743,-46.5496178,6.7938933,115.6335907
2710,-19.6131992,4.8889351,-4.4962878,-59.2900772,23.8167934,175.0686951
2720,-18.1886578,4.5417776,-3.9695661,-70.3816757,37.4351158,228.6335907
2730,-15.6795464,4.3478479,-3.3351059,-79.3969498,50.2748108,250.1297760
2740,-13.1033993,4.1970143,-2.8155668,-86.3664093,66.1526718,250.1297760
2750,-10.7930059,3.9312592,-2.8442972,-93.8244247,84.7557220,250.1297760
2760,-8.3940287,3.7780309,-2.9448531,-104.8549652,103.6793900,250.1297760
2770,-5.8944945,3.5074875,-3.0789278,-118.5572510,121.8854980,250.1297760
2780,-3.5290353,3.2656744,-3.1220231,-135.8931274,141.3740387,250.1297760
2790,-1.3024391,2.4229198,-2.7054341,-155.8015289,161.3435059,250.1297760
2800,1.6472024,1.8626794,-1.4149660,-175.9618378,168.0534363,250.1297760
2810,5.5066357,1.1947005,0.5602403,-186.6793823,152.5877838,250.1297760
2820,11.0276365,1.3982066,3.1842721,-184.1145020,110.5954208,250.1297760
2830,17.9683914,2.7197993,6.2560172,-165.1755676,46.5801544,250.1297760
2840,19.6126022,4.9296360,9.5001440,-131.2977142,-15.6717558,228.2442780
2850,19.6126022,6.5935979,11.9134865,-88.1221390,-52.1755714,113.9847336
2860,19.6126022,6.9742737,13.3500004,-42.8473282,-54.7099228,0.3969466
2870,19.6126022,6.4954362,14.2573986,4.9160304,-49.8167953,-104.5038147
2880,19.6126022,5.7173243,14.0227680,56.6030540,-59.5954208,-189.7862549
2890,19.4599724,4.7835903,11.9948893,107.7557220,-82.0229034,-250.1374054
2900,15.1791611,4.1754665,9.6294298,147.3587799,-99.0534363,-250.1374054
2910,11.5088692,4.0366035,6.5888095,173.8931274,-101.3511429,-250.1374054
2920,8.4850073,4.2401094,3.6032550,187.0229034,-92.2290039,-250.1374054
2930,6.0285692,4.5561423,0.7613522,186.5572510,-71.8015289,-250.1374054
2940,3.6918402,4.3119354,-1.7549409,174.2290039,-47.2213745,-250.1374054
2950,1.5227045,3.3231349,-2.8706331,156.6564941,-25.0687027,-250.1374054
2960,-1.3479286,1.9225341,-3.4428444,141.9618378,-15.7099237,-250.1374054
2970,-6.1387019,0.7110743,-4.2448978,131.6183167,-21.8473282,-250.1374054
2980,-11.9230633,0.4955972,-4.4603748,124.6946564,-51.0763359,-250.1374054
2990,-18.4280758,0.9528874,-4.6231799,117.9465637,-103.6183243,-250.1374054
3000,-19.6131992,2.3032103,-4.9296360,110.7251892,-163.3435059,-250.1374054
3010,-19.6131992,3.9192882,-6.0453281,98.1832047,-199.7709961,-250.1374054
3020,-19.6131992,5.2408805,-8.0085640,68.1450348,-173.6793823,-153.9007568
3030,-19.6131992,5.3270717,-9.5288744,17.6106873,-89.8931274,-51.2061081
3040,-19.6131992,5.1690550,-8.9375095,-42.8625946,7.7251906,50.3129768
3050,-19.6131992,4.4627690,-6.7683735,-90.0763321,83.0457993,135.1145020
3060,-19.6131992,3.6271970,-4.1491303,-113.9389343,116.3969498,201.5114441
3070,-19.6131992,3.0861101,-1.7453641,-117.2824402,105.8625946,250.1297760
3080,-17.3195667,2.9879484,-0.6560079,-107.0457993,80.5190811,250.1297760
3090,-14.8774929,2.9927368,-0.4812321,-95.8167953,65.6335907,250.1297760
3100,-12.6844158,2.8227494,-0.8092360,-91.4809189,62.5419846,250.1297760
3110,-10.3213511,2.6216373,-1.2784972,-93.3511429,70.6259537,250.1297760
3120,-8.1881275,2.2792683,-2.0278785,-100.7709961,87.7251892,250.1297760
3130,-5.8466105,1.8650736,-2.5976956,-115.7022934,109.8625946,250.1297760
3140,-3.1770895,1.4796091,-3.1220231,-137.8549652,139.7786255,250.1297760
3150,-0.9337339,0.7398046,-2.8634505,-167.2061005,175.1679382,250.1297760
3160,1.0486550,-0.4812321,-1.3670821,-197.1755676,204.6183167,250.1297760
3170,4.5633249,-1.4556671,1.3551112,-218.7938995,205.3664093,250.1297760
3180,10.5009146,-1.0917504,5.3103123,-221.3282471,166.1679382,250.1297760
3190,18.4089222,0.6368544,9.9382801,-198.7862549,97.0076370,250.1297760
3200,19.6126022,3.1315999,14.7170830,-151.5190887,31.0992374,250.1297760
3210,19.6126022,5.0948353,17.6643295,-86.6564865,-17.3740463,148.8396912
3220,19.6126022,5.8849177,18.0833130,-13.0076332,-42.4580154,14.1374044
3230,19.6126022,5.2408805,16.4648399,58.4732819,-68.9312973,-114.9389343
3240,19.6126022,4.5968437,13.2255030,118.2519073,-115.3587799,-215.9770966
3250,19.1678810,3.7157819,10.6709023,162.9923706,-161.7022858,-250.1374054
3260,14.7817259,3.5481887,7.4722652,193.4351196,-185.3893127,-250.1374054
3270,11.2407198,3.9168940,4.0629396,207.5954132,-176.7251892,-250.1374054
3280,8.1977043,4.5058646,1.2856797,205.6030579,-154.8320618,-250.1374054
3290,5.4779053,5.0158267,-1.0031654,191.1908417,-123.8167953,-250.1374054
3300,2.9951310,5.0325861,-2.5761478,169.7480927,-89.2824402,-250.1374054
3310,0.8762733,4.7811961,-3.4691806,146.7862549,-57.8702278,-250.1374054
3320,-1.1851238,4.0988522,-3.4763632,127.4503784,-36.3969460,-250.1374054
3330,-4.2472920,3.1076579,-3.8402798,114.1755753,-29.7022896,-250.1374054
3340,-7.3884687,2.7628946,-3.9025288,104.4580154,-38.5114517,-250.1374054
3350,-10.9893293,2.6455793,-4.0892754,98.2137375,-54.0458031,-250.1374054
3360,-15.5909615,2.9879484,-4.2712340,86.0534363,-79.2824402,-250.1374054
3370,-19.5772877,3.5984666,-4.0342093,75.5190811,-112.4122162,-250.1374054
3380,-19.6131992,4.4460096,-3.9025288,67.0534363,-141.7022858,-223.9389343
3390,-19.6131992,5.5090299,-4.8578105,54.9312973,-138.2137451,-149.0686951
3400,-19.6131992,5.9471664,-6.1339135,29.7709923,-93.4503784,-70.7328262
3410,-19.6131992,5.9495606,-6.6151457,-7.4656487,-24.9847336,8.5572519
3420,-19.6131992,5.6311336,-6.0213866,-44.5267181,37.1603050,80.9160309
3430,-18.9619808,5.2193332,-4.3286943,-67.7938919,72.5114517,139.4732819
3440,-16.4911766,4.9583664,-2.8466914,-75.0610657,81.7022934,181.6717529
3450,-14.3052816,4.7740140,-2.2098370,-74.7938919,76.1908417,212.9465637
3460,-12.1576939,4.9559722,-2.2696917,-73.6564865,64.4503784,236.4045868
3470,-10.3931761,5.1044121,-2.3415172,-73.4809189,53.0381660,250.1297760
3480,-8.6430235,5.1570840,-2.3295465,-74.9312973,47.8091621,250.1297760
3490,-6.8018923,5.2624283,-2.5330524,-79.4503784,55.0839691,250.1297760
3500,-4.8865409,5.2720051,-2.7557120,-89.5190811,73.8931274,250.1297760
3510,-2.7868366,5.1283536,-2.7724714,-104.1679382,94.7022934,250.1297760
3520,-0.7661406,4.5992379,-2.3606708,-118.4580154,117.3969498,250.1297760
3530,1.6663558,4.2999644,-1.5131277,-132.7175598,124.4274826,250.1297760
3540,5.0541339,4.2113791,0.0861908,-139.1679382,104.9312973,250.1297760
3550,9.2056589,4.6973996,1.9799947,-132.1908417,61.5343513,250.1297760
3560,13.9126348,5.8585815,4.2018023,-113.3893127,5.4656487,248.0992432
3570,18.3059731,7.1418672,6.2943239,-84.0687027,-46.0381660,178.8549652
3580,19.6126022,8.4012108,7.9271612,-51.1068687,-71.6641235,99.1145020
3590,19.6126022,9.2056589,9.1577749,-16.9770985,-63.4122124,13.9389315
3600,19.6126022,8.9686337,9.3924055,16.4427490,-41.9236641,-66.0992355
3610,17.8917770,8.2144642,8.9303265,51.7099228,-37.2290077,-133.5114441
3620,14.4106264,7.5033898,7.8457589,87.5496216,-56.0610695,-188.8091583
3630,11.0156660,6.8425937,6.2320752,119.0000000,-78.6793900,-232.3206177
3640,8.4203644,6.6989422,3.9887197,140.8473358,-90.3587799,-250.1374054
3650,6.2560172,6.9096308,1.6687500,148.9313049,-88.9083939,-250.1374054
3660,3.7971845,6.6941538,-0.5267217,144.6183167,-75.4732819,-250.1374054
3670,1.7142396,6.4236102,-1.7214222,131.8473358,-52.4503822,-250.1374054
3680,-0.1699875,5.9758968,-2.3151813,118.6183243,-32.0839691,-250.1374054
3690,-2.3463056,5.3127065,-3.0047078,107.8320618,-16.9847336,-250.1374054
3700,-5.6694407,4.6902170,-3.5481887,99.8244247,-12.5954199,-250.1374054
3710,-10.6876621,4.3885493,-3.9336534,90.8778610,-28.0000000,-250.1374054
3720,-16.4552650,4.5417776,-4.4124913,84.1832047,-69.4351120,-250.1374054
3730,-19.6131992,5.2360926,-4.7955613,81.0229034,-121.1679382,-220.1984711
3740,-19.6131992,6.2440462,-6.6295104,71.1450348,-147.2290039,-150.7328186
3750,-19.6131992,6.9646969,-8.8201942,41.6717567,-123.9389343,-72.0839691
3760,-19.6131992,7.2855186,-9.9239149,-5.6641221,-57.2748108,10.2213745
3770,-19.6131992,6.7827387,-9.3181858,-61.6870232,36.7938919,90.3282471
3780,-18.4496231,6.3086891,-6.9383612,-108.4503784,114.7022934,158.1984711
3790,-16.5223007,5.6431046,-4.0773048,-133.9465637,159.1755676,208.7022858
3800,-15.0402985,5.2384863,-2.1451938,-141.8702240,172.0534363,247.5725250
3810,-13.0435438,4.9272418,-0.5362985,-139.2290039,165.1755676,250.1297760
3820,-10.1824875,4.7093706,-0.1268920,-132.0076294,154.0381622,250.1297760
3830,-7.4674768,4.8003497,-0.6224893,-128.1145020,148.7175598,250.1297760
3840,-4.9942794,4.7428894,-1.0079538,-132.0305328,147.3816833,250.1297760
3850,-2.5689652,4.3933377,-1.0869620,-141.1984711,150.2977142,250.1297760
3860,-0.0119709,3.7133877,-1.0079538,-152.6870270,153.5267181,250.1297760
3870,3.2728570,3.4069316,-0.0239419,-161.4274750,134.5496216,250.1297760
3880,7.2160869,3.5553713,1.8698620,-158.2671814,86.4045792,250.1297760
3890,12.3157110,4.6279683,4.0318151,-140.5267181,16.4045811,250.1297760
3900,17.6379929,6.4786768,6.5481081,-109.8931274,-50.7022896,183.9618378
3910,19.6126022,8.1234846,8.6526003,-71.4122162,-93.5038147,97.1908417
3920,19.6126022,9.0189114,9.8736372,-31.0839691,-93.5114517,5.6946564
3930,19.6126022,9.0548248,10.4458485,6.0839696,-68.8320618,-80.3587799
3940,18.4831429,8.2862902,10.2064295,43.7786255,-55.1068687,-157.0000000
3950,14.1759958,7.3070664,9.2319946,83.2137375,-70.4503784,-217.2595367
3960,10.6756907,6.5552907,7.4052281,121.7099228,-96.2366409,-250.1374054
3970,7.5608501,6.0405402,4.8625989,150.8167877,-111.6488571,-250.1374054
3980,4.7045822,5.9184365,2.0853391,162.8625946,-114.7099228,-250.1374054
3990,2.6096666,5.9280128,0.1077385,158.3664093,-106.8549652,-250.1374054
4000,0.6775556,5.4970589,-1.3000449,145.6259613,-92.1221390,-250.1374054
4010,-1.1132981,4.8027439,-2.3726418,131.7099304,-71.5954208,-250.1374054
4020,-3.8737986,4.1012464,-3.1818779,119.3282471,-55.4427490,-250.1374054
4030,-10.3069859,3.2560976,-3.6343796,106.7404556,-59.7786255,-250.1374054
4040,-17.8630466,3.2177906,-3.2991931,100.8473282,-106.5419846,-250.1374054
4050,-19.6131992,4.1611013,-3.1315999,103.9236679,-174.1068726,-250.1374054
4060,-19.6131992,5.4276276,-5.2767935,103.9083939,-217.1374054,-162.7099304
4070,-19.6131992,6.4667058,-8.0708122,82.0305328,-197.9770966,-58.6183205
4080,-19.6131992,6.7540083,-10.1609402,30.0152664,-100.9389343,50.7022896
4090,-19.6131992,6.3900914,-9.8568783,-38.3206100,22.4503822,152.1679382
4100,-19.6131992,6.0261750,-7.1514440,-96.8320618,120.6641235,237.1908417
4110,-18.2892132,4.9583664,-4.0677280,-128.0381622,181.4274750,250.1297760
4120,-16.2086620,4.0389977,-1.9728121,-141.1526642,209.3969421,250.1297760
4130,-13.1991663,3.3135581,-1.0247130,-145.2290039,215.8167877,250.1297760
4140,-9.8473015,2.8706331,-0.8786675,-147.2137451,215.1374054,250.1297760
4150,-6.2033448,2.2768741,-1.3598996,-154.6870270,215.0686951,250.1297760
4160,-2.1787124,1.5394639,-1.7070571,-167.9618378,210.1221313,250.1297760
4170,1.6160779,1.0917504,-1.3527170,-183.4656525,186.1832123,250.1297760
4180,6.3469963,1.2761030,0.1125269,-192.7175598,139.1374054,250.1297760
4190,11.5064745,1.7956421,2.2313845,-190.8473358,69.6106873,250.1297760
4200,17.8391056,3.3662305,5.5521255,-173.3358765,-12.2442751,250.1297760
4210,19.6126022,5.3797436,8.9327211,-138.6793823,-77.6106873,184.9084015
4220,19.6126022,6.8809004,11.4945040,-95.9770966,-94.3587799,79.6030502
4230,19.6126022,7.1825686,12.7083578,-54.2213745,-76.0305328,-19.4045811
4240,19.6126022,6.8832946,13.4361916,-12.4045801,-56.4961815,-104.9236679
4250,19.4887028,6.1219425,13.3164816,32.7633591,-55.8244286,-170.0229034
4260,15.3323889,5.4922705,12.1385403,80.1297684,-70.5877838,-218.9465637
4270,11.7698355,5.0565281,9.8209648,121.5114517,-83.8015289,-250.1374054
4280,8.9901810,5.2001796,6.9551206,152.6870270,-91.0839691,-250.1374054
4290,7.1538382,5.5976148,3.8043671,168.9389343,-87.5725174,-250.1374054
4300,5.5736732,5.9519548,1.2856797,169.5496216,-78.9160309,-250.1374054
4310,3.6655040,5.8729467,-0.7302278,160.4503784,-63.7022896,-250.1374054
4320,1.7860653,5.2169390,-2.0015423,146.2442780,-44.5343513,-250.1374054
4330,-0.5482694,4.1060348,-2.4636209,132.9236603,-32.8396950,-250.1374054
4340,-5.4515696,2.8442972,-2.9831600,124.2290039,-39.6183205,-250.1374054
4350,-13.7689838,2.0997043,-3.4380560,117.7938919,-86.5267181,-250.1374054
4360,-19.6131992,2.5976956,-2.7748656,122.4961853,-180.5343475,-250.1374054
4370,-19.6131992,4.6112089,-3.6439564,131.3358765,-250.1374054,-250.1374054
4380,-19.6131992,5.9447722,-6.4691000,120.3740463,-250.1374054,-175.0458069
4390,-19.6131992,6.4475522,-8.5664101,81.2900772,-247.2748108,-58.9618340
4400,-19.6131992,6.2823529,-9.4546537,19.9083977,-114.0152664,70.9618301
4410,-19.6131992,5.2289100,-8.5017672,-49.0076332,37.8778610,194.7480927
4420,-19.6131992,4.4436154,-4.8362627,-101.5725174,141.2290039,250.1297760
4430,-18.7680511,3.4667864,-1.2210367,-126.1984711,190.2366486,250.1297760
4440,-14.8248215,2.5593886,1.4365137,-129.4503784,203.8702240,250.1297760
4450,-10.8121595,2.2529323,2.6264257,-121.4045792,197.1374054,250.1297760
4460,-7.2950954,2.1571648,2.6336083,-111.3129807,185.1832123,250.1297760
4470,-3.7947903,1.9129574,1.8961980,-106.6030502,178.8473358,250.1297760
4480,-0.3663110,1.7118455,1.1516051,-110.3435135,175.7709961,250.1297760
4490,3.8307030,1.3479286,0.8738791,-118.8320618,166.3740387,250.1297760
4500,10.3668404,2.0063307,1.6304430,-125.4809189,132.9923706,250.1297760
4510,18.8326950,3.9647777,3.5960727,-120.0457993,69.7328262,250.1297760
4520,19.6126022,6.4188218,5.8777351,-99.9847336,5.0839696,233.7404633
4530,19.6126022,7.5273318,7.6566176,-70.3435135,-42.3587799,111.6641235
4540,19.6126022,7.7021074,8.8345594,-35.5267181,-68.5038147,-3.2137403
4550,19.6126022,7.4674768,9.1314383,3.2824428,-83.6412201,-103.8244247
4560,19.6126022,6.8018923,8.6645718,40.5496178,-95.4198456,-181.5648804
4570,19.5078564,6.1770086,7.4602942,69.7862625,-104.9007645,-234.8091583
4580,15.6125097,5.6191626,6.2823529,91.9160309,-104.0839691,-250.1374054
4590,12.0954447,5.2863703,5.0349803,106.9236679,-91.2595444,-250.1374054
4600,8.7986460,5.2217274,3.4691806,115.9160309,-71.3282471,-250.1374054
4610,6.6534524,5.3797436,2.0206959,117.6641235,-44.3129768,-250.1374054
4620,4.6064205,4.9775200,1.1156923,114.9694672,-19.9923668,-250.1374054
4630,2.4181314,4.1323709,0.3040621,111.7709961,1.5114504,-250.1374054
4640,0.3040621,2.9448531,0.0095768,111.7557220,11.5343513,-250.1374054
4650,-2.3654592,1.6160779,-0.8307837,114.6335907,9.7862597,-250.1374054
4660,-6.0860295,0.6344602,-2.0661855,116.3282471,-5.8091602,-250.1374054
4670,-11.6237898,0.3184272,-2.8897867,113.1908417,-36.2824440,-250.1374054
4680,-17.0370522,0.8882443,-2.9089401,107.9770966,-86.6564865,-250.1374054
4690,-19.6131992,1.9895715,-2.8610563,102.7862625,-138.0458069,-250.1374054
4700,-19.6131992,3.1699069,-3.4931223,99.3129807,-168.4503784,-243.3664093
4710,-19.6131992,4.2568688,-4.9511838,81.3740463,-154.9007568,-153.6641235
4720,-19.6131992,4.8769641,-6.6079631,49.0763359,-91.5648880,-56.9465637
4730,-19.6131992,4.9894910,-7.4483232,3.2213740,-6.4885497,38.7022896
4740,-19.6131992,4.7333126,-6.6702118,-40.5801544,59.5877876,120.1221390
4750,-19.6131992,4.4627690,-4.5992379,-66.1679382,92.2977066,180.3664093
4760,-18.2676659,3.9504125,-3.4332676,-78.0534363,97.2442780,225.5648804
4770,-16.4624462,3.5673423,-2.0470319,-80.0687027,88.3358765,250.1297760
4780,-14.1017761,3.4428444,-1.3598996,-76.8320618,69.3740463,250.1297760
4790,-11.5543585,3.7636659,-1.2784972,-72.5801544,59.6183205,250.1297760
4800,-9.0691900,3.9528067,-1.8938038,-72.0839691,65.2366409,250.1297760
4810,-6.6462698,4.0078731,-2.7174051,-78.5648880,78.7480927,250.1297760
4820,-4.1658897,3.7612717,-3.5410061,-93.2900772,99.8015289,250.1297760
4830,-1.7669119,3.3255291,-3.5649481,-113.8549652,123.2290039,250.1297760
4840,1.5969244,2.5450234,-2.9065459,-133.8091583,134.0000000,250.1297760
4850,6.0980005,2.3247581,-1.7884595,-147.1374054,117.3435135,250.1297760
4860,11.8177195,2.9592183,0.0837966,-146.5648804,64.9083939,250.1297760
4870,18.5094795,4.7955613,2.3008161,-132.7175598,-4.3206105,250.1297760
4880,19.6126022,7.0101867,5.1666608,-107.7709961,-61.6106873,225.7022858
4890,19.6126022,8.4610653,7.7763271,-75.9618301,-81.5648880,122.3740463
4900,19.6126022,9.7802639,9.1649570,-44.7175560,-58.7022896,12.0610685
4910,19.6126022,9.1122847,10.2016411,-12.6183205,-31.3587780,-93.3358765
4920,19.6126022,7.8553357,10.6517487,28.9465656,-29.3816795,-176.9084015
4930,18.3945580,6.4547348,9.4833841,75.1984711,-51.7938919,-243.8625946
4940,13.4505568,5.3486195,7.2783360,112.6870193,-75.5954208,-250.1374054
4950,9.5121145,4.9990678,4.4316444,136.4122162,-88.9465637,-250.1374054
4960,6.6582408,5.1522956,1.8147956,142.8244324,-83.8854980,-250.1374054
4970,4.2808108,5.0708933,-0.2705434,134.6946564,-64.9618301,-250.1374054
4980,2.0901275,4.5298066,-1.5993185,119.5725174,-41.4503822,-250.1374054
4990,-0.2059003,3.7876077,-1.8626794,104.8320618,-21.8931293,-250.1374054
5000,-2.8730273,2.8610563,-2.0159075,96.4732819,-14.2671757,-250.1374054
5010,-6.7037306,2.1332228,-2.2601149,92.4580154,-18.3969460,-250.1374054
5020,-15.3491488,1.2401901,-2.8490853,86.8549652,-50.7557259,-250.1374054
5030,-19.6131992,2.0590029,-1.4939742,90.9236679,-141.4351196,-250.1374054
5040,-19.6131992,3.6128318,-1.8339491,106.9465637,-219.6641235,-250.1374054
5050,-19.6131992,5.0924411,-4.8817525,103.0687027,-213.1145020,-184.1297760
5060,-19.6131992,5.7101417,-7.2903070,58.8702278,-133.9313049,-95.3511429
5070,-19.6131992,5.5545197,-7.1921453,1.0992366,-26.2213745,-2.9618320
5080,-19.6131992,5.2313042,-5.3366485,-44.1145020,58.1984749,78.9694672
5090,-19.6131992,4.8865409,-3.0071020,-65.0381699,98.6564865,139.1297760
5100,-19.0481720,4.3957319,-1.2808913,-67.5572510,95.4580154,185.4503784
5110,-16.7856617,3.8594334,-0.2322364,-58.0992355,69.0610657,222.2900696
5120,-13.6636391,4.4651632,-0.4429250,-46.9007645,47.3435097,250.0458069
5130,-11.2455082,4.7716198,-1.3072275,-41.5496178,41.5801544,250.1297760
5140,-9.2272062,5.0277977,-2.5282640,-46.7633591,55.1526718,250.1297760
5150,-7.1466556,5.1451130,-3.2106080,-59.9771004,79.1450348,250.1297760
5160,-5.2959471,5.0421629,-3.6032550,-78.6106873,109.0076370,250.1297760
5170,-4.5585365,4.1802549,-3.4189026,-100.8320618,138.1450348,250.1297760
5180,-2.3343346,3.4524212,-2.2696917,-118.8396912,145.9847260,250.1297760
5190,1.1300575,3.0741394,-0.9193687,-128.0610657,141.1603088,250.1297760
5200,4.7117648,3.1723011,0.2489957,-131.6641235,135.5419922,250.1297760
5210,7.7859039,3.4356618,1.6926919,-133.0305328,134.7938995,250.1297760
5220,10.9821472,3.8259149,3.6248028,-131.6564941,132.8702240,250.1297760
5230,14.2765512,4.9631548,6.3876977,-119.8167953,123.5038147,250.1297760
5240,15.7657375,5.5664907,8.7747040,-94.3435135,120.1908417,245.9389343
5250,15.3491488,5.3988972,9.7946291,-60.5572510,124.6183243,200.9618378
5260,17.0155048,5.9064655,9.6414013,-24.4198475,110.2137375,157.1755676
5270,19.5341911,6.7540083,9.5576038,14.8473282,66.8015289,94.2366409
5280,19.6126022,7.2783360,8.4562769,54.1755714,12.5343513,13.2366409
5290,19.6126022,7.8026633,6.6941538,89.8549652,-41.3740463,-73.2671738
5300,19.6126022,7.9343438,4.6614871,117.0992355,-82.7633591,-156.2366486
5310,16.6348286,7.8098459,2.3103929,132.3358765,-107.7786255,-223.6717529
5320,13.1297350,7.9511032,0.0407012,136.2519073,-116.2061081,-250.1374054
5330,9.2559366,7.8074517,-1.5681942,130.8625946,-113.7404556,-250.1374054
5340,5.4659348,7.6278877,-2.4995339,120.4045792,-111.4045792,-250.1374054
5350,2.2649033,7.1658092,-3.1315999,107.5190811,-112.2824402,-250.1374054
5360,-0.4213773,6.5672617,-3.1507533,94.0763321,-116.5648880,-250.1374054
5370,-4.2688398,5.6287394,-2.6503677,81.3816757,-129.8091583,-250.1374054
5380,-8.1737623,5.1977854,-1.9704180,74.3511429,-165.9694672,-250.1374054
5390,-10.4841557,5.4012914,-1.4173602,74.2061081,-205.3893127,-250.1374054
5400,-12.0355902,5.9830794,-1.9991482,70.2137375,-218.7633514,-250.1374054
5410,-14.3100700,6.3302369,-2.6599445,54.4503822,-201.9923706,-250.1374054
5420,-16.6467991,6.6797886,-2.7940190,31.4732819,-169.0839691,-218.4580078
5430,-18.9260674,6.8018923,-2.8131726,10.0381680,-124.9389343,-153.7938995
5440,-19.6131992,6.6917596,-2.5953014,-8.6106873,-76.7786255,-80.7175598
5450,-19.6131992,6.4331870,-2.3056045,-24.6717548,-34.7633591,-1.9312977
5460,-19.6131992,6.2799587,-1.7453641,-35.3511467,0.1450382,75.8473282
5470,-19.3378677,6.2584114,-1.2832855,-42.5267181,30.5419846,144.1145020
5480,-17.0705700,5.9615316,-0.7876883,-47.8778610,55.8625946,203.1374054
5490,-14.3795023,5.5257893,-0.6153067,-52.0763359,84.4885483,250.1297760
5500,-11.5615406,5.1642666,-0.8834559,-59.7557259,118.4961853,250.1297760
5510,-8.7627335,4.7548604,-1.1635761,-71.8473282,152.6946564,250.1297760
5520,-5.8825235,4.3502421,-1.5945302,-86.9312973,184.5496216,250.1297760
5530,-3.1100521,3.7421181,-1.7932479,-106.2595444,211.2442780,250.1297760
5540,0.3303981,2.9113343,-1.3766589,-126.7633591,215.5954132,250.1297760
5550,6.1530671,2.7988074,0.2442073,-136.9847260,178.1145020,250.1297760
5560,13.9030581,4.5752959,2.7221935,-130.2900696,97.5801544,250.1297760
5570,19.6126022,6.5289545,5.4228392,-106.0839691,12.9847326,241.7709961
5580,19.6126022,7.8505473,7.4531116,-72.8091583,-47.1526718,130.4274750
5590,19.6126022,8.8920193,8.5281029,-36.4122124,-68.8549652,18.2595425
5600,19.6126022,8.7220325,9.0069408,-1.2366412,-79.1374054,-88.2061081
5610,19.6126022,7.7332320,8.6286592,33.4656487,-93.0992355,-173.9389343
5620,18.8183289,6.6702118,7.6015515,65.0305328,-107.1832047,-236.5572510
5630,14.8272152,5.6981707,6.4355812,91.0610657,-112.6641235,-250.1374054
5640,10.7618818,5.2456689,4.6830344,109.7557220,-104.6870193,-250.1374054
5650,7.8744893,5.3462253,2.6168492,119.3206100,-81.3511429,-250.1374054
5660,5.6526814,5.6550756,0.8044477,117.5877838,-48.5496178,-250.1374054
5670,3.8019729,5.6981707,-0.6919208,106.6106873,-9.8396950,-250.1374054
5680,2.4277081,5.2552457,-1.6088953,93.0534363,29.7862587,-250.1374054
5690,1.2425843,4.2927818,-1.9464760,83.0076370,60.7175560,-250.1374054
5700,-0.7829000,2.9113343,-2.2433555,79.0610657,77.0916061,-250.1374054
5710,-4.7165532,1.1994889,-2.7413468,79.1221390,73.2900772,-250.1374054
5720,-11.2024126,0.1699875,-2.8179610,81.3893127,37.1679382,-250.1374054
5730,-19.6131992,0.0670373,-2.5809362,87.2977066,-31.0000000,-250.1374054
5740,-19.6131992,1.3407460,-2.7772598,95.8931274,-128.8473358,-250.1374054
5750,-19.6131992,2.5258698,-4.5776901,100.9083939,-205.5038147,-204.4427490
5760,-19.6131992,2.8059900,-7.6925306,83.0381699,-194.4122162,-79.8091583
5770,-19.6131992,3.8666160,-9.8880024,28.1221371,-90.3587799,42.1145020
5780,-19.6131992,4.3119354,-9.2726955,-48.6412201,45.4732819,142.8167877
5790,-19.6131992,4.0461802,-5.8849177,-107.1297684,148.8091583,211.6870270
5800,-19.6131992,3.4907281,-2.2744799,-130.3740387,191.4351196,250.1297760
5810,-18.3227310,3.0813217,0.5650287,-123.9236679,181.3129730,250.1297760
5820,-15.9524841,3.1555417,1.7214222,-99.0534363,144.6717529,250.1297760
5830,-13.0531206,3.2010312,0.9241571,-73.4427490,109.5801544,250.1297760
5840,-9.6030941,3.2034254,-1.1156923,-61.7557259,95.7480927,250.1297760
5850,-6.1770086,3.2776453,-3.5410061,-70.1908417,106.5877838,250.1297760
5860,-2.8873925,3.1148405,-5.1187773,-97.1755753,134.2137451,250.1297760
5870,0.1699875,2.5665710,-5.4108682,-134.4351196,158.6564941,250.1297760
5880,3.5841017,1.5011568,-4.2855992,-167.8244324,159.2519073,250.1297760
5890,8.0037756,1.5466464,-1.8028246,-185.5877838,118.4656525,250.1297760
5900,13.6037846,2.5234756,1.1683644,-182.0992432,42.6641235,250.1297760
5910,19.6126022,4.4531922,4.4675574,-159.4045868,-40.8396950,250.1297760
5920,19.6126022,6.8785062,7.2567883,-126.5267181,-96.5496216,166.2900696
5930,19.6126022,8.6023226,9.4546537,-90.9465637,-97.6106873,54.5496178
5940,19.6126022,8.6526003,10.8337069,-57.8473282,-59.0916023,-49.5877876
5950,19.6126022,7.5632443,12.2534618,-19.9083977,-29.1068707,-133.5190887
5960,18.5669384,6.5696559,12.4856977,29.3129768,-30.0687027,-198.6259613
5970,13.9078465,5.4779053,11.0252428,80.1374054,-49.0152664,-248.4656525
5980,10.1298151,4.8266859,8.6909075,121.6106873,-66.6183243,-250.1374054
5990,6.8665352,4.8985114,5.7292953,148.8549652,-75.5648880,-250.1374054
6000,4.8075323,5.1906028,3.0286496,158.5496216,-66.9618301,-250.1374054
6010,2.9137285,5.2097564,0.9385223,154.4656525,-46.5343513,-250.1374054
6020,1.3120158,4.5226240,-0.5315101,144.4580078,-22.3816795,-250.1374054
6030,-0.3280039,3.8809812,-1.3120158,135.8854980,-4.5419846,-250.1374054
6040,-2.4612267,3.0693510,-1.8435259,131.6488495,-0.1526718,-250.1374054
6050,-5.2743993,2.7557120,-2.3606708,129.1832123,-10.9847326,-250.1374054
6060,-8.5831690,3.0908985,-2.6551561,126.0381699,-29.2671757,-250.1374054
6070,-11.8320847,3.6631098,-3.4739690,119.1526718,-42.0076332,-250.1374054
6080,-14.8343983,4.6159973,-4.5082588,105.3358765,-39.5114517,-250.1374054
6090,-17.1304264,5.4850879,-5.5329719,83.1068726,-18.2442741,-217.9465637
6100,-19.0002880,5.9351954,-6.4643116,55.4045792,13.8854961,-150.2442780
6110,-19.4480019,6.2296810,-6.8330169,26.3664131,49.6335869,-78.3816757
6120,-18.1503506,6.4738884,-6.7635851,-0.8625954,83.2061081,-13.8778629
6130,-16.0362816,6.3972740,-6.4762826,-24.4809170,110.2137375,34.9389305
6140,-13.7713776,6.3350253,-6.0932121,-42.5801544,124.8167953,69.4885483
6150,-12.0403786,6.5074067,-5.7412663,-55.0992355,123.7175598,92.4045792
6160,-10.6469603,6.7252784,-5.2360926,-63.7328262,109.5267181,110.2366409
6170,-8.9494801,6.9168134,-4.5633249,-69.5648880,87.0000000,124.8167953
6180,-6.7947097,7.3525558,-3.8115497,-72.6641235,61.4580154,136.5114441
6190,-4.5585365,7.7116842,-3.2656744,-73.7404556,39.4122124,144.8625946
6200,-2.2361729,7.9846220,-2.6360025,-73.8931274,22.7404575,149.1221313
6210,0.1723816,8.3341732,-2.2026544,-73.2595444,12.3282442,147.4656525
6220,2.7581062,8.5759869,-1.9512644,-71.4351120,8.9465647,137.0686951
6230,5.1666608,8.9279327,-1.8914096,-70.6030502,15.7251911,116.0000000
6240,6.7635851,9.2272062,-1.3407460,-70.1221390,31.3511448,83.4732819
6250,7.6111283,9.5312681,-0.0742199,-66.3206100,46.6412201,40.0381660
6260,7.6614060,9.5192976,1.3359578,-54.9847336,58.3969460,-12.0610685
6270,6.5744443,8.9399033,2.5282640,-35.6106873,60.3587799,-67.4122162
6280,4.6686692,8.0588417,3.0142846,-10.0076332,49.6183205,-120.2900772
6290,2.8203552,7.1107426,3.2225790,18.5801525,27.2442741,-170.7938995
6300,0.4118006,5.9064655,2.7126167,47.1297722,3.7709923,-213.9923706
6310,-2.9161227,4.7476778,1.7740943,69.8778610,-16.3816795,-245.8702240
6320,-7.9702568,3.8067613,0.5793939,85.3358765,-38.2137413,-250.1374054
6330,-14.3555603,3.3925664,-0.6871324,95.6488571,-66.7862625,-247.7862549
6340,-19.6131992,3.3231349,-2.2720859,101.1755753,-96.2442780,-203.7099304
6350,-19.6131992,3.6870518,-4.3023586,96.6717529,-121.6641235,-124.3816757
6360,-19.6131992,3.7349355,-6.8186517,80.7633591,-111.7480927,-25.2977104
6370,-19.6131992,4.3334827,-9.6006994,46.0839691,-43.4656487,76.8015289
6380,-19.6131992,4.8266859,-11.2287483,-16.3129768,62.3511467,168.3206177
6390,-19.0266228,4.9032998,-9.7132263,-81.5114517,149.0305328,238.5725250
6400,-15.7896795,4.6327567,-6.8018923,-122.2748108,203.9313049,250.1297760
6410,-13.1560707,4.5226240,-4.7692256,-140.6412201,226.6106873,250.1297760
6420,-10.2998028,4.6423335,-3.3159523,-146.4580078,215.5801544,250.1297760
6430,-7.1658092,4.9032998,-2.6814921,-142.7175598,184.9465637,250.1297760
6440,-3.8737986,4.8602047,-2.7628946,-137.0839691,147.7633514,250.1297760
6450,-0.1364688,5.2432747,-2.7892308,-132.4885559,94.7557220,250.1297760
6460,3.4284792,5.6047974,-2.2265961,-126.5801544,32.6030540,250.1297760
6470,6.8378053,6.1123657,-1.2593436,-114.3282471,-40.1526718,250.1297760
6480,9.6773138,6.8258343,-0.2681492,-96.9312973,-108.0534363,210.1221313
6490,11.7626524,7.3549500,0.3782819,-77.9542007,-157.8702240,162.3969421
6500,14.2047262,8.4395180,0.8547257,-62.8167953,-181.5496216,113.6717529
6510,16.1942978,9.5073261,1.6950861,-53.9541969,-179.6564941,58.4961815
6520,17.3315372,10.2088242,3.0238612,-48.0381660,-154.7022858,-1.3358779
6530,17.3171730,10.4099360,4.7165532,-39.7022896,-112.3664093,-65.5496216
6540,15.1217003,9.6605549,6.3326311,-23.5954189,-74.3969498,-124.1450348
6550,11.8584204,8.6933022,7.2639709,3.2595420,-55.4961815,-173.1679382
6560,9.0308828,7.6925306,7.0772243,35.6106873,-55.5343513,-213.1221313
6570,6.7468257,7.0053983,6.0692701,65.7022934,-66.6030502,-246.5190887
6580,4.6614871,6.4786768,4.6423335,89.3816757,-73.9847336,-250.1374054
6590,3.2106080,6.0118098,3.2560976,103.8549652,-80.6717529,-250.1374054
6600,1.4820032,4.8266859,1.9919657,115.5343475,-83.7099228,-250.1374054
6610,-0.1675933,3.8737986,0.4884146,120.2442780,-79.5648880,-250.1374054
6620,-2.0685797,3.5003049,-1.0965388,118.7480927,-70.2977066,-250.1374054
6630,-4.2808108,3.0813217,-2.1404054,111.1755753,-56.9007645,-250.1374054
6640,-7.5273318,2.8299320,-2.8155668,99.5954208,-42.4580154,-250.1374054
6650,-12.1050215,2.6072724,-3.2656744,87.2748108,-35.3969460,-250.1374054
6660,-18.1311970,2.6862805,-3.1411765,77.2824402,-43.8625946,-250.1374054
6670,-19.6131992,2.7413468,-2.8514795,72.2137375,-70.7099228,-179.4351196
6680,-19.6131992,3.0837159,-3.3710186,71.1297684,-99.3129807,-92.6183243
6690,-19.6131992,3.5912843,-4.6495161,66.4961853,-105.4122162,-2.2748091
6700,-19.6131992,4.1587071,-6.3757267,46.3129768,-73.2671738,81.5725174
6710,-19.6131992,4.5345950,-7.5847921,9.7938929,-15.1908398,150.2061005
6720,-16.4456882,4.6662750,-7.1322904,-29.5343513,40.1221390,200.9160309
6730,-13.8216553,4.5896611,-5.6766233,-59.5419846,77.2748108,234.4351196
6740,-12.4761209,4.5824785,-4.0820932,-76.7328262,91.6793900,250.1297760
6750,-11.6980095,4.6854286,-2.5785420,-81.7480927,85.1755753,250.1297760
6760,-10.8576488,4.6351509,-1.5083394,-77.3740463,63.3358765,250.1297760
6770,-9.4570484,4.7285242,-0.9768293,-67.4198456,37.0610695,250.1297760
6780,-7.1203194,4.5872669,-1.4029950,-58.1679382,19.2900772,250.1297760
6790,-3.9623835,4.5944495,-2.3486998,-56.4656487,16.2290077,250.1297760
6800,-0.4525018,4.6614871,-3.4093258,-65.6183243,26.5954189,250.1297760
6810,3.2896163,4.5944495,-3.8354914,-81.5801544,38.2442741,250.1297760
6820,7.2927012,4.7548604,-3.3351059,-98.3435135,38.1068687,250.1297760
6830,11.6261835,5.7053533,-1.7333932,-107.9083939,22.5419846,250.1297760
6840,16.3307667,6.8880830,0.5722113,-107.9236679,0.0916031,250.1297760
6850,19.6126022,9.1625633,3.2465210,-99.6183243,-15.4503813,187.7175598
6860,19.6126022,10.6325951,5.8537931,-83.1145020,-15.0381680,92.8778610
6870,19.6126022,10.8432837,7.6997132,-58.6946564,-6.5877862,-4.8549619
6880,19.6126022,10.3692341,9.0931320,-23.6641216,-5.8778625,-94.8702316
6890,16.9915619,8.9710283,8.9901810,18.8931293,-27.2290077,-172.0610657
6900,12.9693241,7.7260494,7.4986014,58.1984749,-64.4656525,-233.3893127
6910,9.2559366,6.8761120,5.4372044,87.5496216,-90.7480927,-250.1374054
6920,6.0333576,6.4164276,2.9975252,102.6030502,-93.8625946,-250.1374054
6930,3.5362179,6.0094156,0.9504932,100.4045792,-75.7709961,-250.1374054
6940,1.6448082,5.4707227,-0.3399749,89.4503784,-45.0687027,-250.1374054
6950,-0.2418131,4.8697815,-1.0869620,76.9847336,-8.7709923,-250.1374054
6960,-2.6479735,3.9168940,-1.4029950,67.4351120,24.5114498,-250.1374054
6970,-6.8210459,3.1124463,-1.6184721,61.4351158,44.4809151,-250.1374054
6980,-14.7482071,2.1068866,-1.5179161,58.9771004,30.7175579,-250.1374054
6990,-19.6131992,2.2553265,-0.7517755,70.1679382,-41.1679382,-250.1374054
7000,-19.6131992,3.2225790,-1.3000449,97.3969498,-138.9313049,-200.4656525
7010,-19.6131992,4.3071470,-4.2113791,108.4961853,-188.6488495,-117.9694672
7020,-19.6131992,5.6574697,-7.2256637,83.9312973,-159.7862549,-29.6564884
7030,-19.6131992,6.3924856,-7.8385763,33.2290077,-63.5419846,55.9389305
7040,-19.6131992,6.1267309,-7.3525558,-18.4656487,47.6641235,132.3587799
7050,-18.6938305,6.1698260,-5.3079181,-58.2366409,123.3587799,193.0763397
7060,-16.5318775,5.4515696,-2.4324965,-76.7709961,149.2900696,235.6335907
7070,-14.7242651,4.8985114,-0.6153067,-75.5267181,143.9160309,250.1297760
7080,-12.0810804,4.8530221,-0.1268920,-65.2824402,123.6946564,250.1297760
7090,-9.1577749,4.9703374,-0.9480990,-56.9694672,107.2748108,250.1297760
7100,-6.5050125,5.1092005,-2.2672975,-59.0458031,104.7862625,250.1297760
7110,-3.9144998,5.3941088,-3.1411765,-70.5114517,115.1297684,250.1297760
7120,-1.7932479,5.4419928,-2.9999194,-86.7938919,126.8091583,250.1297760
7130,0.4453192,5.2360926,-2.0183017,-99.8320618,122.9389343,250.1297760
7140,4.2113791,5.4348102,-0.3854645,-100.0992355,82.2366409,250.1297760
7150,10.1896706,6.3278427,1.1156923,-83.9160309,7.6488547,250.1297760
7160,16.6060982,7.9415264,2.1619530,-57.4351158,-71.8015289,190.3587799
7170,19.6126022,10.1824875,2.8682389,-33.5190849,-128.6564941,100.7251892
7180,19.6126022,11.3843708,3.3422885,-19.8320618,-153.6870270,2.6488550
7190,19.6126022,11.3173332,4.2544746,-12.4580154,-161.9313049,-88.5954208
7200,19.6126022,10.4745789,5.0637107,-1.3206106,-160.6641235,-167.2519073
7210,16.2397861,9.2990322,5.2743993,16.7480907,-158.0229034,-227.3893127
7220,12.1816359,7.9702568,4.9679432,38.9694672,-155.4427490,-250.1374054
7230,8.5688038,6.8090749,4.1275826,58.5725174,-140.8320618,-250.1374054
7240,5.2767935,6.3853035,2.6479735,73.1068726,-113.1450348,-250.1374054
7250,2.8371146,6.3230543,1.0893562,77.0229034,-78.7022934,-250.1374054
7260,1.1492109,5.8346395,-0.2681492,71.2900772,-44.3816795,-250.1374054
7270,-0.5889706,5.4659348,-1.3455344,59.1374054,-11.7709923,-250.1374054
7280,-2.3941894,4.8027439,-1.9847831,46.2595406,10.1374044,-250.1374054
7290,-4.5202298,4.0413918,-2.7700772,35.7557259,21.0305347,-250.1374054
7300,-8.0492649,3.5146701,-3.1052637,26.3816795,19.5267181,-250.1374054
7310,-14.1017761,2.9113343,-2.6455793,18.7251911,-6.1145039,-250.1374054
7320,-19.6131992,2.7413468,-1.3239868,19.3816795,-65.7404556,-249.8473358
7330,-19.6131992,3.0980811,-0.5554519,29.6183205,-127.9083939,-186.4427490
7340,-19.6131992,3.7588775,-1.4724265,37.7404594,-154.4427490,-106.6488571
7350,-19.6131992,3.8857694,-2.8323262,30.1603050,-132.6564941,-15.7557249
7360,-19.6131992,4.5729017,-4.1180058,7.8244276,-45.4427490,77.7251892
7370,-19.6131992,4.8314743,-4.1156116,-25.7099228,60.2671738,159.5267181
7380,-17.5063133,4.4891052,-2.4588325,-59.2290077,136.0076294,221.7404633
7390,-15.3204184,4.0725164,-0.6177009,-77.6793900,174.0839691,250.1297760
7400,-13.4433737,3.8977404,0.1843526,-80.8091583,178.8854980,250.1297760
7410,-11.5447817,3.8642218,0.1484398,-76.1297684,167.3129730,250.1297760
7420,-9.0907373,4.0725164,-0.7158626,-70.8625946,154.7557220,250.1297760
7430,-6.7276726,4.3622131,-1.5250987,-71.2442780,151.4885559,250.1297760
7440,-4.6590929,4.4005203,-2.2289903,-79.0152664,152.9923706,250.1297760
7450,-2.4157372,4.0892754,-2.1763182,-89.9542007,149.0839691,250.1297760
7460,0.0646431,3.7540891,-1.4843974,-100.4045792,136.8320618,250.1297760
7470,3.0454090,3.3039815,-0.8379663,-105.0000000,109.3893127,250.1297760
7480,7.0484939,3.4428444,-0.0407012,-99.6717529,55.3969460,250.1297760
7490,12.2702208,4.5992379,1.1396341,-85.4198456,-15.1526718,250.1297760
7500,17.5613804,6.2320752,2.3367288,-64.6030502,-80.5954208,217.3282471
7510,19.6126022,8.1905222,2.9496415,-44.5801544,-116.1984711,133.2748108
7520,19.6126022,10.4003592,4.3957319,-28.4961834,-114.7786255,35.0152664
7530,19.6126022,10.3524752,5.5497313,-11.8625956,-85.1908417,-58.1679382
7540,19.6126022,9.7443514,6.4212160,6.7175574,-61.7175560,-136.7862549
7550,17.2597122,8.4299412,6.4571290,30.1221371,-68.9618301,-199.4732819
7560,13.4673157,6.9814563,5.6311336,57.2442741,-83.4045792,-250.1374054
7570,9.3181858,6.0213866,3.9528067,81.0305328,-89.3053436,-250.1374054
7580,6.1027889,5.8035154,2.2505381,93.9694672,-91.8167953,-250.1374054
7590,3.9432299,5.6119800,0.7158626,93.0000000,-87.8702316,-250.1374054
7600,2.0398495,5.0637107,-0.6296718,82.7557220,-66.6793900,-250.1374054
7610,-0.0119709,4.7452836,-1.2066715,68.0534363,-42.4274826,-250.1374054
7620,-2.0853391,3.8977404,-1.2761030,55.3664131,-20.5954189,-250.1374054
7630,-5.4372044,3.1770895,-1.2665262,47.6030540,-0.7633588,-250.1374054
7640,-11.0635490,2.3582766,-1.2713146,43.3740463,-2.7709923,-250.1374054
7650,-17.0466290,2.2888451,-1.0079538,45.6870232,-41.2977104,-250.1374054
7660,-19.6131992,2.8155668,-0.9121862,56.0763359,-100.1068726,-250.1374054
7670,-19.6131992,3.6559272,-2.0111191,63.7709923,-141.0229034,-190.7404633
7680,-19.6131992,4.3358769,-3.6391680,55.9541969,-145.9160309,-106.6946564
7690,-19.6131992,5.1187773,-5.0996237,31.5267181,-97.4961853,-19.9083977
7700,-19.6131992,5.5688848,-5.4850879,-6.0916033,-6.1679387,61.1297722
7710,-19.6131992,5.4443870,-4.2305326,-43.7709923,71.2366409,128.0381622
7720,-18.2580891,5.0134325,-2.0039365,-64.1068726,108.7633591,177.3358765
7730,-16.1607780,4.8051381,-0.1987177,-64.5038147,107.7786255,210.3740387
7740,-13.8120794,4.7548604,0.5961532,-53.2061081,85.5725174,232.7099304
7750,-11.7530756,4.9200592,0.4884146,-39.5114517,67.1374054,250.1297760
7760,-9.7395630,5.0254035,-0.2873027,-32.7938919,62.8625946,250.1297760
7770,-7.8673067,5.3605900,-1.1731528,-35.3129768,71.2137375,250.1297760
7780,-5.9735026,5.4779053,-1.5993185,-44.2213745,90.7251892,250.1297760
7790,-4.3071470,5.4898763,-1.4508789,-55.5267181,111.9160309,250.1297760
7800,-2.1404054,5.0708933,-0.9552816,-65.2977066,120.5419846,250.1297760
7810,0.9409165,4.7644372,-0.2609667,-67.7557220,109.8015289,250.1297760
7820,5.0637107,4.8290801,0.0790083,-62.0458031,84.0076370,250.1297760
7830,10.2854376,6.1291251,0.2082945,-50.8549614,40.9312973,250.1297760
7840,15.5526543,8.1019373,0.8954269,-35.9465637,-9.0992365,227.9389343
7850,19.6126022,9.9310980,1.3958124,-21.9007626,-45.7938919,145.2137451
7860,19.6126022,11.3963413,2.6360025,-9.4961834,-61.8244286,50.7404594
7870,19.6126022,12.0260134,4.2592630,3.7633588,-67.1679382,-46.4274826
7880,19.6126022,10.7020273,4.9966736,22.2366409,-68.8625946,-139.5954132
7890,17.6116581,9.1697454,4.7907729,46.0839691,-86.8625946,-218.5496216
7900,13.1464939,7.5512733,3.6080434,67.9618301,-110.9770966,-250.1374054
7910,8.7914639,6.7180958,1.9129574,81.4580154,-121.0687027,-250.1374054
7920,5.1977854,5.9591374,0.3136388,82.0381699,-120.0381699,-250.1374054
7930,2.6000898,5.4826937,-0.6272776,72.8244247,-109.8167953,-250.1374054
7940,0.1963235,4.8362627,-1.1372399,61.0916023,-87.4351120,-250.1374054
7950,-2.3175755,4.2903876,-1.9321109,48.7862587,-55.8320618,-250.1374054
7960,-5.5928264,3.6918402,-2.3463056,34.2595406,-34.1145020,-250.1374054
7970,-9.0428534,3.2441268,-1.8866212,23.0381680,-28.5267181,-250.1374054
7980,-12.5096397,3.2800395,-1.5681942,17.8244267,-29.5801525,-250.1374054
7990,-17.4344883,3.0741394,-1.1755470,15.4198475,-37.6717567,-250.1374054
8000,-19.6131992,2.9376705,-0.5530578,14.3587790,-63.0763359,-210.1221313
8010,-19.6131992,2.7485294,-0.0574605,19.6946564,-100.9007645,-122.0916061
8020,-19.6131992,3.5888901,-1.3311694,29.0763359,-109.9694672,-26.9389305
8030,-19.6131992,4.1515245,-4.1706781,18.8778629,-58.1374054,63.4045792
8040,-19.6131992,4.6854286,-5.5162125,-13.9465647,25.7175579,144.7480927
8050,-18.7536869,4.7452836,-4.6638808,-51.3969460,100.6870193,209.9694672
8060,-16.1751442,4.6136031,-2.6886747,-78.0229034,145.3129730,250.1297760
8070,-14.7146883,4.4891052,-1.0199248,-88.7709961,162.8931274,250.1297760
8080,-13.2781744,4.0342093,0.1173153,-87.1221390,157.4961853,250.1297760
8090,-10.7666702,3.8809812,-0.0119709,-79.0534363,135.7557220,250.1297760
8100,-7.6614060,4.0533628,-1.5418580,-73.5267181,124.6641235,250.1297760
8110,-5.5305777,3.8953462,-2.3846128,-77.1984711,135.1450348,250.1297760
8120,-3.2513094,3.7995787,-2.9711890,-94.9465637,146.5801544,250.1297760
8130,-1.4867916,3.1076579,-2.3917952,-116.1603088,145.8549652,250.1297760
8140,0.9145803,2.3654592,-1.1731528,-136.8778687,120.7938919,250.1297760
8150,4.7572546,2.0183017,0.5506636,-144.7022858,67.1526718,250.1297760
8160,10.4506369,2.4684093,2.3822186,-133.1984711,-8.4503813,250.1297760
8170,17.0945129,4.2329268,4.1060348,-104.8778610,-87.7938919,250.1297760
8180,19.6126022,6.4403696,5.4252334,-66.7786255,-151.0839691,181.7938995
8190,19.6126022,8.2910776,5.7149301,-30.9465656,-176.2519073,71.8244247
8200,19.6126022,10.3309278,5.3414369,-6.9465647,-154.4656525,-36.4427490
8210,19.6126022,10.6900558,4.7716198,7.4885497,-121.9542007,-133.1526642
8220,19.3282909,8.7172441,4.3191175,18.5877857,-101.0534363,-201.8702240
8230,14.7673607,7.5440907,3.4931223,29.6335869,-88.5419846,-249.9465637
8240,10.6493549,6.5744443,2.5043221,41.7099228,-75.1221390,-250.1374054
8250,7.3908629,6.3086891,1.3503228,51.0687027,-55.5190849,-250.1374054
8260,4.5657191,6.3254485,0.3016679,56.3129768,-31.0229015,-250.1374054
8270,2.2720859,5.9088597,-0.2226596,54.7709923,-6.1068702,-250.1374054
8280,0.4740495,5.6095858,-0.7302278,47.6793900,12.8167934,-250.1374054
8290,-1.0103480,4.9679432,-1.0390782,40.4656487,26.7404575,-250.1374054
8300,-3.0047078,4.0940638,-0.8475431,34.8320618,37.3587799,-250.1374054
8310,-7.8313937,2.9113343,-0.0622489,32.6030540,32.4274826,-250.1374054
8320,-13.6612453,2.5138988,1.1899122,36.0381660,-8.5877867,-250.1374054
8330,-19.6131992,2.2744799,2.2672975,48.8244286,-76.4732819,-250.1374054
8340,-19.6131992,2.9783716,2.5043221,71.0610657,-152.2900696,-244.3129730
8350,-19.6131992,4.0054789,0.8954269,94.8015289,-190.5114441,-170.5190887
8360,-19.6131992,5.0038562,-1.9704180,100.6564865,-164.2366486,-86.5343475
8370,-19.6131992,5.6550756,-4.5657191,78.4580154,-77.0152664,7.9541984
8380,-19.6131992,5.9926562,-6.0357518,30.3664131,35.0534363,105.4274826
8390,-19.6131992,5.8130918,-5.4731169,-28.7175579,122.2519073,191.6183167
8400,-17.0873299,5.4970589,-3.3758070,-72.5114517,169.6717529,249.3587799
8410,-15.0091734,5.0541339,-0.9768293,-91.6335907,194.5954132,250.1297760
8420,-13.1704359,4.6830344,0.4022238,-92.3435135,200.1145020,250.1297760
8430,-10.5679522,4.4771342,0.8619082,-83.4885483,192.5267181,250.1297760
8440,-7.7116842,4.6423335,0.5267217,-73.7099228,181.4198456,250.1297760
8450,-5.0900469,4.2832050,-0.4932030,-71.6335907,175.9236603,250.1297760
8460,-2.3606708,4.0988522,-1.5155219,-79.4732819,176.4732819,250.1297760
8470,0.2346306,3.5074875,-1.5586174,-93.6183243,170.7328186,250.1297760
8480,3.1028695,3.1866663,-1.0223188,-107.0534363,143.8854980,250.1297760
8490,7.2831244,3.2656744,0.2992737,-112.3129807,92.7633591,250.1297760
8500,12.5982246,4.2137733,2.2242019,-102.4809189,21.2366409,250.1297760
8510,19.0361996,6.1674318,3.9647777,-80.1450348,-58.7557259,229.4351196
8520,19.6126022,8.3413563,5.1882086,-52.2442741,-116.5648880,124.2519073
8530,19.6126022,9.6222477,5.9184365,-26.7633591,-132.6412201,7.3053436
8540,19.6126022,9.7994175,6.3613615,-6.1984735,-119.7938919,-97.3893127
8550,19.6126022,9.2487535,6.4738884,13.7022905,-107.5648880,-178.0992432
8560,16.6898956,8.0109577,5.8944945,35.2671738,-109.3816757,-234.9084015
8570,12.4354200,6.6797886,4.5992379,55.9160309,-106.4198456,-250.1374054
8580,8.1905222,6.0237808,2.8395088,71.7709961,-91.1679382,-250.1374054
8590,4.9511838,6.1363077,1.6926919,81.6106873,-66.3587799,-250.1374054
8600,2.0398495,6.0956063,0.4118006,82.5496216,-40.0152664,-250.1374054
8610,0.0574605,6.1961622,-0.6895266,76.3358765,-7.3664122,-250.1374054
8620,-1.7118455,6.0668759,-1.2282192,66.2290039,26.0610695,-250.1374054
8630,-3.8211265,5.4946647,-1.6328372,55.7022896,51.6488533,-250.1374054
8640,-7.0604649,4.9847026,-1.6567791,49.2061081,64.4809189,-250.1374054
8650,-11.9134865,4.6183915,-1.5873476,48.6412201,55.0381660,-250.1374054
8660,-17.3291435,4.7476778,-1.5610116,53.3511467,20.1145039,-239.0763397
8670,-19.6131992,5.1690550,-2.1284344,60.6030540,-25.0839691,-181.5038147
8680,-19.6131992,6.0908179,-3.4524212,63.2061081,-56.5572510,-111.1603088
8690,-19.6131992,6.9431496,-5.5760674,50.3129768,-51.4122124,-37.0381660
8700,-19.4168758,7.4363523,-6.9910331,19.8091602,-10.6564884,31.5725193
8710,-17.0394459,7.4938130,-7.1873569,-21.3893127,47.1679382,94.6183243
8720,-14.7146883,7.2328463,-5.8729467,-58.0916023,95.7480927,142.0686951
8730,-12.9693241,6.8737178,-4.0701222,-80.2748108,116.8778610,175.4351196
8740,-11.0994625,6.5361371,-2.4779861,-87.7480927,108.4351120,195.4427490
8750,-9.1673517,6.5145893,-1.4341195,-85.1984711,87.7786255,207.2366486
8760,-7.2735476,6.5169835,-1.2377959,-78.9770966,67.3969498,215.0839691
8770,-5.6838059,6.5409255,-1.3072275,-74.8396912,47.1832047,220.8244324
8780,-3.7325413,6.5648675,-1.1324517,-73.4427490,21.5419846,223.7862549
8790,-1.2569494,6.4738884,-0.5674229,-72.0152664,-8.0687027,222.5267181
8800,1.5897418,6.6151457,0.0742199,-67.3129807,-42.9083977,213.9923706
8810,4.5417776,6.9910331,0.5937590,-59.1984749,-75.0457993,197.3740387
8820,7.4674768,7.4124107,0.6200951,-49.8931313,-99.7022934,173.1526642
8830,10.6302013,8.4083929,0.8882443,-41.1068687,-115.4732819,139.2137451
8840,13.9270000,9.4019823,1.6902977,-32.8854980,-119.4427490,92.2061081
8850,16.2421818,10.3955708,2.5929072,-26.5801525,-100.8320618,38.1603050
8860,17.7696743,11.3005743,4.1970143,-20.2977104,-60.7175560,-24.7175579
8870,17.6834831,11.4921093,5.7843618,-10.5343513,-25.3435116,-91.5954208
8880,15.7992563,10.1944590,6.9814563,9.2442751,-15.7709923,-159.4045868
8890,13.4840746,8.4155760,7.0317345,40.5954208,-18.8015270,-226.3358765
8900,10.9127159,6.9646969,5.2839761,73.2290039,-25.3664131,-250.1374054
8910,7.6350703,5.5257893,2.6862805,96.4198456,-34.0916023,-250.1374054
8920,4.2736282,4.4388270,-0.1029501,101.4732819,-45.6030540,-250.1374054
8930,1.2856797,3.4045374,-2.0470319,95.9083939,-67.0000000,-250.1374054
8940,-2.7892308,2.3032103,-3.6391680,79.6564865,-80.2366409,-250.1374054
8950,-9.4426832,1.5586174,-3.6080434,60.9312973,-98.3816757,-250.1374054
8960,-16.4241390,1.4556671,-2.4540441,48.4656487,-130.0915985,-250.1374054
8970,-19.6131992,1.9919657,-1.6280488,45.0534363,-158.4122162,-250.1374054
8980,-19.6131992,2.9951310,-1.8531027,44.4961815,-163.5648804,-240.7786255
8990,-19.6131992,3.6535332,-2.8419030,36.4427490,-121.5954208,-144.0839691
9000,-19.6131992,4.1658897,-3.4117200,14.2442751,-47.1374054,-43.0000000
9010,-19.6131992,4.1802549,-3.3446827,-16.3053436,34.7786255,51.0610695
9020,-19.6131992,4.0150557,-2.2912393,-47.6641235,94.2595444,127.3740463
9030,-19.6131992,4.0653338,-0.6607963,-66.2290039,114.5877838,181.8625946
9040,-17.8414993,4.0054789,0.3280039,-67.7251892,126.7557220,220.7175598
9050,-16.3810444,4.0078731,1.1109039,-59.8396950,131.1832123,250.1297760
9060,-14.4202032,3.8929520,0.7589580,-49.6183205,123.6870193,250.1297760
9070,-11.6309719,4.0964580,-0.3136388,-43.0228996,120.0000000,250.1297760
9080,-9.1362267,4.1323709,-0.9385223,-41.3282433,129.7099304,250.1297760
9090,-6.7468257,3.7493007,-1.7453641,-49.9465637,143.7786255,250.1297760
9100,-4.1227942,3.4931223,-2.2218077,-68.0610657,158.4809113,250.1297760
9110,-1.3598996,3.2321558,-2.1068866,-88.8473282,168.8854980,250.1297760
9120,1.7597293,2.7796540,-1.0893562,-105.2442780,160.5648804,250.1297760
9130,5.7939386,2.8083842,0.0837966,-112.1832047,121.4961853,250.1297760
9140,11.5998478,4.1706781,1.4724265,-106.5648880,49.1832047,250.1297760
9150,17.7002430,5.7412663,2.7030399,-89.1908417,-28.7480907,250.1297760
9160,19.6126022,8.9973640,3.5122759,-66.3282471,-80.7175598,142.3816833
9170,19.6126022,10.6565371,4.0820932,-46.6564903,-102.9542007,17.6870232
9180,19.6126022,10.3261395,4.5776901,-31.1755733,-115.0610657,-90.5190811
9190,18.6651001,10.2160063,4.5489597,-12.2137403,-135.9236603,-173.4198456
9200,14.6715927,8.3700867,4.2712340,8.3969469,-160.8244324,-242.6793823
9210,11.1377697,7.4171991,3.3303175,25.6335869,-171.0534363,-250.1374054
9220,7.2519999,6.8042865,2.6360025,36.9160309,-162.0458069,-250.1374054
9230,3.9336534,6.1913738,2.2265961,41.7099228,-141.6641235,-250.1374054
9240,1.3359578,5.5808558,1.9680238,40.3893127,-114.3816757,-250.1374054
9250,-0.9217629,5.1906028,1.9009864,36.3740463,-80.8549652,-250.1374054
9260,-2.9424589,4.5872669,2.0590029,32.7022896,-43.6412201,-250.1374054
9270,-6.6366930,3.9049230,2.2840567,31.9083977,-8.7175570,-250.1374054
9280,-12.3348637,3.3279233,2.8826041,35.5954208,2.7328243,-250.1374054
9290,-17.4871597,3.3949606,3.3470769,47.5496178,-22.0687027,-245.3740387
9300,-19.6131992,3.9839313,2.5115047,67.9007645,-55.3664131,-180.3664093
9310,-19.6131992,4.6471219,0.8020535,86.3511429,-71.3511429,-101.9465637
9320,-19.6131992,5.4132624,-1.8124014,92.7175598,-58.1145020,-15.8091602
9330,-19.6131992,6.2224984,-4.5776901,75.2977066,0.9236641,69.2519073
9340,-19.1128139,6.4020624,-6.2248926,31.3435116,84.7557220,153.3664093
9350,-16.4648399,6.5002246,-5.7843618,-25.1755733,152.5267181,224.7480927
9360,-13.9868546,6.2608056,-3.7157819,-70.6106873,198.2900696,250.1297760
9370,-12.1098099,5.5880380,-1.2545552,-90.2824402,222.1450348,250.1297760
9380,-10.2974091,5.2743993,0.3710994,-92.1679382,219.4580078,250.1297760
9390,-8.4275465,4.9942794,1.1132981,-83.9542007,199.4809113,250.1297760
9400,-5.9328012,4.6590929,1.0845678,-73.5190811,175.3664093,250.1297760
9410,-3.0789278,4.5441718,0.6631905,-66.9847336,153.3053436,250.1297760
9420,0.0837966,4.4579806,-0.1053443,-67.0992355,134.3206177,250.1297760
9430,3.2345500,3.9575951,-0.1436514,-71.2977066,105.4580154,250.1297760
9440,7.9056134,4.6159973,0.0598547,-73.0610657,55.3206100,250.1297760
9450,13.5271702,6.1075773,0.7493813,-69.7862625,-4.8854961,250.1297760
9460,18.8302994,8.0636301,1.9057748,-61.5954208,-54.2824440,204.3893127
9470,19.6126022,9.7204094,3.0861101,-50.5648842,-78.3969498,112.1145020
9480,19.6126022,10.0388365,4.5154414,-37.5648842,-80.3053436,18.7557259
9490,19.6126022,10.9055328,5.4587522,-24.3664131,-66.1603088,-67.5419846
9500,19.6126022,9.9765873,6.2057390,-4.7938933,-63.8778610,-146.1450348
9510,15.5598373,8.6358414,6.2464404,22.3969460,-72.6030502,-208.5725250
9520,11.5639353,7.4124107,4.7285242,50.8931313,-81.3511429,-250.1374054
9530,8.1043310,6.8521700,3.0621684,72.5496216,-78.6106873,-250.1374054
9540,5.1403246,6.7300668,1.5203103,85.5954208,-63.1908379,-250.1374054
9550,2.7868366,6.5912037,-0.1244979,87.7175598,-38.2366409,-250.1374054
9560,0.8738791,6.5409255,-1.3551112,78.7251892,-8.6488552,-250.1374054
9570,-0.3878587,6.1554613,-1.9129574,63.2748108,18.8702297,-250.1374054
9580,-2.5474176,5.4779053,-2.0230901,49.1145020,40.3816795,-250.1374054
9590,-5.7652082,4.6423335,-1.8746504,41.1755714,48.2748108,-250.1374054
9600,-10.5128860,4.0054789,-1.1563935,41.8473282,31.7099228,-250.1374054
9610,-16.8742466,3.6918402,-0.6416427,50.1374054,-19.2900772,-250.1374054
9620,-19.6131992,4.1251884,-0.3998296,65.4656525,-98.1984711,-231.2519073
9630,-19.6131992,5.1020179,-1.6424140,80.4732819,-162.2977142,-169.0534363
9640,-19.6131992,5.6862001,-3.7516949,80.5648880,-170.7328186,-95.6641235
9650,-19.6131992,6.7013364,-6.1746144,54.6564903,-104.7709961,-15.7633591
9660,-19.5605278,6.8952656,-6.6055689,9.1755724,0.2900763,61.5114517
9670,-18.1958389,6.7109132,-5.3845320,-42.9083977,79.0687027,132.2213745
9680,-16.4432926,6.1794028,-2.9256995,-78.7480927,133.0686951,184.3969421
9690,-15.0546637,5.3390427,-0.2873027,-87.1068726,154.4885559,222.3129730
9700,-13.4026728,4.9511838,0.9744351,-78.4809189,146.3358765,250.1297760
9710,-11.1210098,5.0421629,1.2737088,-63.6564903,130.7404633,250.1297760
9720,-8.7244263,5.1187773,0.7134684,-51.7175560,119.9236679,250.1297760
9730,-6.5385313,5.1379304,-0.2082945,-49.0076332,117.1603088,250.1297760
9740,-4.4124913,4.8841467,-0.8283895,-54.8931313,123.2213745,250.1297760
9750,-2.3870070,4.6471219,-1.0749911,-65.5801544,131.0381622,250.1297760
9760,0.2944853,4.2592630,-0.8714849,-76.0839691,132.4045868,250.1297760
9770,3.3303175,4.0581512,-0.3088504,-82.1374054,118.0000000,250.1297760
9780,7.1107426,4.4340386,0.2825144,-82.4274826,82.2595444,250.1297760
9790,11.8703909,5.4276276,1.4053892,-74.2061081,29.6259537,250.1297760
9800,17.2429523,7.2136927,2.2936335,-60.2213745,-22.1221371,210.9847260
9810,19.6126022,8.7627335,3.2728570,-42.2213745,-58.2671738,124.0152664
9820,19.6126022,10.3620520,4.2760224,-23.4122143,-67.8549652,26.1297703
9830,19.6126022,10.3500814,5.2480631,-2.0381680,-66.7328262,-68.6564865
9840,19.6126022,9.6222477,5.4563580,22.9312973,-70.6030502,-149.9770966
9850,15.4497042,8.8824425,4.6495161,48.8396950,-84.7022934,-212.1908417
9860,11.5687237,7.8936424,3.2201848,70.8549652,-101.8778610,-250.1374054
9870,7.9918046,7.2208753,1.6424140,84.7404556,-107.6564865,-250.1374054
9880,4.1036406,7.0173693,0.1340746,89.0992355,-102.5267181,-250.1374054
9890,0.9888002,6.8737178,-1.1587877,82.4961853,-87.8931274,-250.1374054
9900,-1.3575054,6.5600791,-1.8842272,68.2595444,-67.6030502,-250.1374054
9910,-3.4835455,6.2536230,-2.0805507,53.3435097,-40.6183205,-250.1374054
9920,-7.2591825,5.7173243,-2.1236460,41.6870232,-10.9160309,-250.1374054
9930,-11.5016861,5.5329719,-1.8291607,33.2061081,-2.2519083,-250.1374054
9940,-15.9788208,5.6095858,-1.3431402,32.5648842,-26.3969460,-225.4122162
9950,-19.3809643,5.9639258,-1.6687500,39.3282433,-61.1145020,-166.6717529
9960,-19.6131992,6.4379754,-2.7365584,44.4045792,-89.2213745,-99.6183243
9970,-19.6131992,6.9072366,-4.2472920,37.9083977,-89.9694672,-27.7251911
9980,-18.7776279,7.5823979,-5.7269011,15.4427481,-50.2748108,43.0687027
9990,-16.5103302,7.6350703,-5.9256191,-19.2824421,23.8015270,107.1755753
