timestamp,acclX,acclY,acclZ,gyroX,gyroY,gyroZ
0,2.6790979,-1.7309990,9.6222477,-1.3206106,0.4885496,0.7404580
10,2.6240315,-1.7788827,9.5360565,-1.1297710,0.7022901,0.7557252
20,2.6647329,-1.6591733,9.5863342,-1.0229008,0.5801527,0.4961832
30,2.7293761,-1.7429699,9.5504217,-1.1832061,0.8244275,0.6030535
40,2.6647329,-1.6950861,9.4618368,-1.6488550,1.5343511,0.9312977
50,2.6264257,-1.7166338,9.4618368,-2.2824428,1.8778626,1.0152671
60,2.5857246,-1.7357874,9.4833841,-2.7022901,2.2366412,1.1450381
70,2.6575503,-1.7980363,9.4977493,-3.1755726,2.3358779,1.2595420
80,2.6096666,-1.8554969,9.6030941,-3.2595420,1.8396946,1.0152671
90,2.6048782,-1.8602852,9.6844959,-3.1145039,0.4885496,0.3129771
100,2.6336083,-1.8985922,9.7275915,-2.4580152,-2.2137403,-0.9847328
110,2.5809362,-1.9943599,9.8640604,-1.5038168,-4.4885497,-2.3053436
120,2.4923513,-1.8890154,9.7299862,-0.8167939,-6.4427481,-3.2137403
130,2.7485294,-1.5825592,9.4402885,4.6793895,-6.6793895,0.3282443
140,2.8538737,-1.5562232,9.3397331,4.3129773,-3.7480917,1.2595420
150,2.9640064,-1.5370697,9.0021524,1.5725191,-2.0687022,2.0763359
160,2.4612267,-1.8866212,9.7802639,-4.7709923,-11.7786255,2.0763359
170,2.6838863,-2.0901275,9.8305416,-4.9007635,-14.4274807,5.0381680
180,2.6312141,-2.3822186,9.8353300,-3.9236641,-14.1832066,7.8549619
190,2.6743097,-2.3415172,9.5983057,-1.8778626,-16.7862587,11.8778629
200,2.9568241,-1.8890154,9.6030941,-1.8015267,-18.1450386,13.7786255
210,3.4691806,-1.7214222,9.3397331,-2.5801528,-15.2366409,11.1374044
220,3.4165084,-1.5466464,9.3229742,-3.4961832,-13.2824430,5.5114503
230,3.3087699,-1.3934183,9.3588867,-4.7175574,-15.1603050,0.0152672
240,3.3758070,-1.6256547,9.0859489,-7.3435116,-14.3206110,-3.6793892
250,3.1603301,-1.8650736,8.9925756,-10.4045801,-12.7175570,-5.4427481
260,3.0789278,-2.0781565,9.1146793,-14.5419846,-14.4961834,-6.2748094
270,2.9831600,-2.1930776,9.2918491,-18.4045811,-18.6259537,-6.8091602
280,2.9233053,-2.2960277,9.5336628,-21.2442741,-21.2748089,-7.4656487
290,2.6886747,-2.5354466,9.9406748,-22.7633591,-22.0992374,-6.8396945
300,2.4372849,-2.6886747,10.5799236,-22.3282452,-22.4656487,-4.3893127
310,2.4684093,-2.7700772,11.1712875,-19.6717548,-21.9618320,-0.9847328
320,2.7174051,-2.8227494,11.5016861,-15.4885492,-19.1450386,3.2442749
330,2.9711890,-3.0166788,11.6453371,-11.9465647,-15.8778629,9.8015270
340,3.5050933,-2.9999194,11.7123747,-9.3206110,-10.7786255,17.3206100
350,4.4053087,-2.8227494,11.8177195,-8.0992365,-4.6335878,22.9694653
360,5.5114241,-2.5210814,11.8823624,-6.9541984,2.4045801,25.0992374
370,6.5217719,-2.3989778,11.9805241,-6.7938933,9.1145039,23.4351139
380,7.3908629,-2.2194135,12.0331964,-6.8015265,13.5038166,17.5877857
390,8.5783806,-2.1643472,11.9685535,-6.2519083,13.5038166,5.7099237
400,10.0364418,-2.0853391,12.4138727,-2.7022901,8.9694653,-15.7251911
410,11.0108776,-2.0781565,13.5918131,7.8473282,4.7633586,-46.9694672
420,11.0420017,-2.4827745,14.6380739,28.0076332,-10.6564884,-86.1755753
430,10.8624372,-3.3734128,15.7441902,56.4122124,-48.7557259,-130.2748108
440,10.8983507,-4.3478479,17.3004131,94.0916061,-113.9160309,-182.1603088
450,11.4131012,-5.4539638,19.6126022,142.8091583,-199.7709961,-244.5343475
460,11.0659437,-6.5409255,19.6126022,204.0992432,-250.1374054,-250.1374054
470,9.9334917,-7.9534974,19.6126022,250.1297760,-250.1374054,-250.1374054
480,7.9630742,-9.4498653,19.5581341,250.1297760,-250.1374054,-250.1374054
490,6.5193777,-10.5511932,17.7744617,250.1297760,-250.1374054,-250.1374054
500,4.7907729,-10.9917240,16.2445755,250.1297760,-250.1374054,-250.1374054
510,3.7349355,-11.4011297,16.1966915,250.1297760,-250.1374054,-250.1374054
520,3.8809812,-11.1497402,18.0330353,250.1297760,-250.1374054,-250.1374054
530,4.5178356,-10.8193426,19.4887028,250.1297760,-250.1374054,-250.1374054
540,4.9966736,-10.6134415,19.5988350,250.1297760,-250.1374054,-250.1374054
550,5.3246775,-10.3141680,17.6667233,250.1297760,-250.1374054,-250.1374054
560,5.2887645,-9.5959110,14.6165266,250.1297760,-250.1374054,-250.1374054
570,4.0749106,-8.4107876,11.0827026,250.1297760,-250.1374054,-250.1374054
580,2.7605004,-7.6398587,7.7571740,250.1297760,-240.9923706,-250.1374054
590,1.9273225,-6.3350253,5.2384863,250.1297760,-215.9847260,-250.1374054
600,2.0063307,-5.2049680,2.8634505,250.1297760,-190.6106873,-250.1374054
610,1.7166338,-4.8817525,0.1460456,250.1297760,-146.2213745,-250.1374054
620,1.0941446,-4.8578105,-2.3032103,250.1297760,-110.9618301,-250.1374054
630,0.5674229,-4.9200592,-4.7835903,250.1297760,-86.1145020,-250.1374054
640,-0.3710994,-5.6742291,-6.9168134,250.1297760,-60.1526718,-250.1374054
650,-1.6950861,-6.3302369,-8.8704720,250.1297760,-30.0229015,-250.1374054
660,-4.3933377,-6.8066807,-10.3979645,250.1297760,-5.4961834,-250.1374054
670,-9.0189114,-7.0389171,-12.0427732,250.1297760,19.9312973,-250.1374054
680,-17.1974621,-6.7372489,-15.3204184,246.1374054,39.5190849,-250.1374054
690,-19.6131992,-4.8147149,-18.9954987,207.8549652,2.5038168,-250.1374054
700,-19.6131992,-2.3247581,-19.6131992,145.8854980,-51.4122124,-250.1374054
710,-19.6131992,-0.6105183,-19.6131992,60.5114517,-65.1145020,-192.1526642
720,-19.6131992,-0.2944853,-19.6131992,-44.1221390,-42.6870232,-103.5496216
730,-19.6131992,-1.1923064,-19.6131992,-139.9847260,-7.3435116,-20.0687027
740,-19.6131992,-1.3575054,-17.2118282,-198.0839691,8.6412210,50.8167953
750,-19.6131992,-0.9097920,-13.1991663,-221.8625946,0.4198473,108.2671738
760,-19.0290184,-0.4740495,-11.0659437,-226.0534363,-30.5496178,154.4274750
770,-17.0226879,0.3184272,-10.5224628,-225.7022858,-69.4427490,196.1374054
780,-15.2677460,0.9864060,-10.8624372,-230.9770966,-105.6030502,239.0000000
790,-13.2350798,1.0702027,-11.5208397,-248.7022858,-126.1068726,250.1297760
800,-11.3867655,0.7038917,-11.5160513,-250.1374054,-125.9694672,250.1297760
810,-9.2056589,-0.3208214,-10.6924505,-250.1374054,-106.6183243,250.1297760
820,-7.0532823,-2.1882892,-9.1721401,-250.1374054,-66.9694672,250.1297760
830,-4.8530221,-4.3741841,-7.1275020,-250.1374054,-13.2595415,250.1297760
840,-2.7197993,-6.8210459,-4.5202298,-250.1374054,44.4198456,250.1297760
850,-0.3591284,-9.1434097,-1.7836711,-250.1374054,106.0687027,250.1297760
860,1.3670821,-11.6237898,1.3072275,-250.1374054,160.3893127,250.1297760
870,3.7540891,-12.8567972,5.5760674,-250.1374054,193.0229034,250.1297760
880,6.7037306,-12.9956608,12.6724443,-250.1374054,198.2748108,250.1297760
890,11.1664991,-12.5287933,19.6126022,-250.1374054,156.3282471,250.1297760
900,19.6126022,-8.8704720,19.6126022,-250.1374054,43.4885483,250.1297760
910,19.6126022,-2.8969693,19.6126022,-198.3435059,-89.2824402,190.7175598
920,19.6126022,-1.7884595,19.6126022,39.4580154,-143.8015289,33.1679382
930,19.6126022,-5.6143742,19.6126022,243.3587799,-169.8702240,-111.2366409
940,19.6126022,-6.4930420,19.6126022,250.1297760,-163.2824402,-245.5954132
950,19.6126022,-7.7380204,19.6126022,250.1297760,-166.8015289,-250.1374054
960,17.3937855,-9.1601686,13.8384151,250.1297760,-188.0458069,-250.1374054
970,11.9493999,-9.0811605,7.1849627,250.1297760,-198.0686951,-250.1374054
980,8.0396881,-8.3054428,2.5809362,250.1297760,-176.0992432,-250.1374054
990,5.1810260,-8.5448618,-1.6615674,250.1297760,-132.9007568,-250.1374054
1000,2.5857246,-9.3133974,-5.1427188,250.1297760,-82.0152664,-250.1374054
1010,-0.5746055,-10.2207947,-8.4275465,250.1297760,-34.5648842,-250.1374054
1020,-6.2703824,-10.6254129,-13.1010046,250.1297760,2.5954199,-250.1374054
1030,-13.3140879,-8.9399033,-18.3658276,250.1297760,6.7557254,-250.1374054
1040,-19.6131992,-5.0517397,-19.6131992,250.1297760,-21.4885502,-250.1374054
1050,-19.6131992,-1.0295014,-19.6131992,250.1297760,-33.7557259,-250.1374054
1060,-19.6131992,1.3694763,-19.6131992,204.0610657,2.6564887,-234.7480927
1070,-19.6131992,1.4053892,-19.6131992,36.2061081,72.0305328,-155.7328186
1080,-19.6131992,1.0582317,-19.6131992,-106.2824402,133.9007568,-82.5954208
1090,-19.6131992,0.6224893,-19.6131992,-198.0076294,164.2900696,-22.2290077
1100,-19.6131992,0.4261657,-18.4400463,-235.0229034,146.9694672,22.4427490
1110,-18.7919922,1.0151364,-13.1393118,-234.9618378,94.5725174,53.8778610
1120,-16.4504757,1.7501525,-9.5121145,-214.1603088,29.2900772,76.8549652
1130,-14.9062233,2.5019281,-7.8313937,-186.6564941,-23.4122143,99.5190811
1140,-13.9030581,3.3470769,-7.6015515,-162.7099304,-60.0992355,124.5190811
1150,-13.2398672,4.0366035,-9.1146793,-149.8702240,-80.0839691,155.2366486
1160,-12.3468351,4.2855992,-11.0324249,-159.6412201,-90.3282471,190.8396912
1170,-10.8791971,4.3215117,-11.9086981,-187.4961853,-87.1832047,229.5954132
1180,-8.9853926,4.0030847,-11.8368731,-224.9236603,-67.8473282,250.1297760
1190,-6.9048424,3.1675127,-11.5184450,-250.1374054,-43.2213745,250.1297760
1200,-4.3047528,1.8076130,-10.5655584,-250.1374054,-22.3816795,250.1297760
1210,-1.3958124,0.4740495,-9.2080526,-250.1374054,-3.0076337,250.1297760
1220,0.6057299,-0.5817881,-7.4435349,-250.1374054,24.8854961,250.1297760
1230,1.9704180,-1.8147956,-4.9344244,-250.1374054,61.1297722,250.1297760
1240,2.4133430,-3.3949606,-2.1930776,-250.1374054,101.9007645,250.1297760
1250,3.1507533,-4.8051381,0.4572902,-250.1374054,141.0610657,250.1297760
1260,4.0366035,-5.5880380,4.3670015,-250.1374054,168.9541931,250.1297760
1270,4.9487896,-5.5760674,9.2679071,-250.1374054,180.1984711,250.1297760
1280,5.8083038,-5.4683285,14.0826225,-250.1374054,184.3282471,250.1297760
1290,6.9958215,-5.2408805,18.6435528,-250.1374054,166.0458069,250.1297760
1300,9.6988611,-4.3358769,19.6126022,-250.1374054,115.2900772,238.7328186
1310,13.2709923,-2.6431851,19.6126022,-230.5877838,44.0763359,177.7404633
1320,16.6755295,-1.7453641,19.6126022,-96.9923630,-13.8778629,109.3969498
1330,17.6810894,-1.5083394,19.6126022,40.9236641,-47.9694672,38.4198456
1340,16.9005833,-1.1396341,19.6126022,155.5419922,-69.2442780,-26.0229015
1350,15.0786057,-1.0773853,19.6126022,239.8854980,-94.9847336,-81.7862625
1360,13.1393118,-1.2018831,17.0490227,250.1297760,-125.7404556,-127.2671738
1370,11.2143831,-0.9409165,13.9772778,250.1297760,-151.0915985,-158.8473358
1380,9.8880024,-0.4357425,11.9470053,250.1297760,-160.2061005,-177.7557220
1390,9.9502516,0.3399749,10.6828737,250.1297760,-152.4961853,-194.7709961
1400,9.9358864,0.9768293,8.8585014,250.1297760,-134.2595367,-217.2137451
1410,9.5169029,0.8427547,5.8897061,250.1297760,-111.4122162,-245.2290039
1420,8.7244263,0.8379663,2.3726418,250.1297760,-85.2519073,-250.1374054
1430,7.7667508,0.1795642,-1.0462608,250.1297760,-62.3587799,-250.1374054
1440,6.7587967,-0.8283895,-3.9025288,250.1297760,-55.5419846,-250.1374054
1450,4.9056940,-2.5450234,-6.2536230,250.1297760,-70.3511429,-250.1374054
1460,2.0111191,-4.2664456,-8.0229292,250.1297760,-98.8473282,-250.1374054
1470,-1.3311694,-5.4587522,-9.7850523,250.1297760,-125.5496216,-250.1374054
1480,-5.1690550,-5.7077475,-12.4641504,250.1297760,-128.7251892,-250.1374054
1490,-11.1305866,-5.0804701,-16.7880573,250.1297760,-108.5190811,-250.1374054
1500,-18.9428272,-2.8802099,-19.6131992,250.1297760,-87.9618301,-250.1374054
1510,-19.6131992,0.8188128,-19.6131992,250.1297760,-69.4503784,-250.1374054
1520,-19.6131992,2.9831600,-19.6131992,147.0992432,-29.6870232,-194.7251892
1530,-19.6131992,3.2872221,-19.6131992,7.5114503,16.9312973,-100.2671738
1540,-19.6131992,2.8993635,-19.6131992,-112.0229034,36.4045792,-7.1908398
1550,-19.6131992,1.8052188,-19.6131992,-192.2748108,35.0610695,66.9312973
1560,-18.9547977,1.0893562,-19.6131992,-241.6030579,27.4656487,119.5801544
1570,-16.1105003,1.0247130,-16.0650120,-250.1374054,11.1832066,156.6183167
1580,-13.9246063,1.3048333,-13.1393118,-250.1374054,-11.9770994,184.8854980
1590,-12.1098099,1.8985922,-11.4226780,-250.1374054,-35.9465637,210.0458069
1600,-10.8552551,2.3439114,-11.1712875,-250.1374054,-59.3816795,234.8244324
1610,-9.8042059,2.3630650,-11.5447817,-250.1374054,-79.1145020,250.1297760
1620,-8.5209198,1.8507085,-12.2247314,-250.1374054,-88.5648880,250.1297760
1630,-6.3062949,0.7134684,-12.0260134,-250.1374054,-80.9694672,250.1297760
1640,-3.6846576,-0.5219333,-11.2191715,-250.1374054,-54.3511467,250.1297760
1650,-1.0821736,-2.0518203,-9.7156210,-250.1374054,-16.8091602,250.1297760
1660,1.2521610,-3.6750808,-7.3118544,-250.1374054,27.2366409,250.1297760
1670,2.6551561,-5.3534074,-4.9080882,-250.1374054,79.2137375,250.1297760
1680,3.2321558,-7.3597383,-2.1092808,-250.1374054,129.2442780,250.1297760
1690,3.8690102,-8.9566631,1.6855093,-250.1374054,163.0305328,250.1297760
1700,5.5018473,-9.6605549,8.0564480,-250.1374054,170.7557220,250.1297760
1710,8.3245964,-9.7228031,14.9876261,-250.1374054,153.1908417,250.1297760
1720,12.8567972,-8.1833391,19.6126022,-250.1374054,91.2137375,250.1297760
1730,19.6126022,-4.9032998,19.6126022,-250.1374054,-4.0916033,189.1221313
1740,19.6126022,-2.4277081,19.6126022,-172.4274750,-89.4351120,71.1908417
1750,19.6126022,-2.7269819,19.6126022,14.7251911,-129.6564941,-48.6183205
1760,19.6126022,-3.7876077,19.6126022,178.5267181,-147.8091583,-153.5038147
1770,19.6126022,-3.6918402,19.6126022,250.1297760,-166.1145020,-235.6564941
1780,15.5885677,-4.3358769,19.6126022,250.1297760,-193.0381622,-250.1374054
1790,11.4274664,-4.0892754,15.8638992,250.1297760,-206.6412201,-250.1374054
1800,9.0500364,-3.0932927,11.1473465,250.1297760,-191.8396912,-250.1374054
1810,7.8912482,-2.0254843,7.6709828,250.1297760,-153.6335907,-250.1374054
1820,6.8354111,-1.5945302,4.5729017,250.1297760,-104.1450348,-250.1374054
1830,5.8322453,-1.5083394,0.5865764,250.1297760,-53.1908379,-250.1374054
1840,5.1570840,-1.7740943,-2.6024840,250.1297760,-15.3587790,-250.1374054
1850,3.7229645,-3.0190730,-4.5848727,250.1297760,-1.6335878,-250.1374054
1860,0.7565638,-4.7931671,-6.8234401,250.1297760,-9.5343513,-250.1374054
1870,-3.9121056,-5.9543490,-9.4881725,250.1297760,-45.0152664,-250.1374054
1880,-9.1051025,-5.6143742,-12.2917690,250.1297760,-96.0687027,-250.1374054
1890,-14.4417505,-3.6439564,-16.1248665,250.1297760,-136.0000000,-250.1374054
1900,-19.2253418,-0.5889706,-19.6131992,250.1297760,-143.0152740,-250.1374054
1910,-19.6131992,1.9201399,-19.6131992,247.1145020,-91.5496216,-250.1374054
1920,-19.6131992,2.8395088,-19.6131992,108.8702316,1.8320611,-197.7862549
1930,-19.6131992,3.1387823,-19.6131992,-21.1526718,71.8320618,-95.6488571
1940,-19.6131992,3.3734128,-19.6131992,-116.4580154,87.5038147,0.2213740
1950,-19.6131992,2.8945751,-19.6131992,-178.3740387,63.5419846,78.8167953
1960,-19.6131992,2.5186872,-15.9453020,-213.4045868,22.5572510,137.8320618
1970,-17.9612083,2.2098370,-12.7275114,-230.4351196,-4.1603055,182.6870270
1980,-14.7841196,2.1763182,-10.6732969,-238.9389343,-18.4045811,216.8244324
1990,-12.8472204,2.4779861,-9.3756456,-245.2442780,-30.6564884,245.8854980
2000,-10.8744087,2.6096666,-8.5879574,-250.1374054,-40.9618340,250.1297760
2010,-8.8465300,2.5306582,-8.1186962,-250.1374054,-47.4885483,250.1297760
2020,-6.6534524,2.2026544,-8.0779953,-250.1374054,-44.3282433,250.1297760
2030,-4.2089849,1.6663558,-7.9056134,-250.1374054,-28.9847336,250.1297760
2040,-1.5250987,0.8307837,-7.6901364,-250.1374054,-4.6412215,250.1297760
2050,0.9193687,0.0071826,-6.7587967,-250.1374054,28.8091602,250.1297760
2060,2.4995339,-1.2186425,-5.1762376,-250.1374054,69.9465637,250.1297760
2070,3.2273674,-2.7389526,-3.1555417,-250.1374054,115.9389343,250.1297760
2080,3.6559272,-4.0701222,-0.2298422,-250.1374054,152.5801544,250.1297760
2090,4.5322008,-5.1092005,4.3430595,-250.1374054,167.7099304,250.1297760
2100,7.0724359,-5.6814117,10.3045912,-250.1374054,151.7786255,250.1297760
2110,12.0451670,-4.9440012,18.3394909,-250.1374054,97.4274826,250.1297760
2120,19.2085819,-2.5713594,19.6126022,-250.1374054,15.8625956,203.7022858
2130,19.6126022,0.3663110,19.6126022,-205.3816833,-44.6946564,96.4656525
2140,19.6126022,0.4908088,19.6126022,-40.9389305,-53.7022896,-17.3664131
2150,19.6126022,-0.3184272,19.6126022,104.1068726,-35.8778610,-120.1221390
2160,19.6126022,-0.1963235,19.6126022,218.9007568,-39.4427490,-211.3435059
2170,19.6126022,-1.4365137,19.6126022,250.1297760,-70.6793900,-250.1374054
2180,14.0443153,-1.9991482,16.3642845,250.1297760,-96.7251892,-250.1374054
2190,9.2679071,-1.9129574,12.6197729,250.1297760,-103.0534363,-250.1374054
2200,6.5337429,-1.2761030,9.2272062,250.1297760,-84.9770966,-250.1374054
2210,4.7692256,-0.8379663,5.5856438,250.1297760,-40.7786255,-250.1374054
2220,3.5888901,-0.7661406,2.1978660,250.1297760,13.6106873,-250.1374054
2230,3.1052637,-0.9073978,-0.7158626,250.1297760,60.9389305,-250.1374054
2240,1.9392935,-1.9033806,-3.0861101,250.1297760,96.8320618,-250.1374054
2250,-0.0909792,-2.9711890,-4.9344244,250.1297760,114.0000000,-250.1374054
2260,-2.9520357,-3.8043671,-7.5009956,250.1297760,106.9236679,-250.1374054
2270,-5.8921003,-3.8977404,-9.5192976,250.1297760,78.6335907,-250.1374054
2280,-8.6238708,-3.2058196,-12.0571384,250.1297760,47.0305328,-250.1374054
2290,-12.1050215,-2.2026544,-14.8583393,250.1297760,27.7328243,-250.1374054
2300,-17.6403885,-1.2066715,-17.7912216,250.1297760,16.5877857,-250.1374054
2310,-19.6131992,0.6129125,-19.6131992,222.5648804,2.7022901,-242.9313049
2320,-19.6131992,2.2146254,-19.6131992,142.9007568,-3.0152671,-160.6564941
2330,-19.6131992,3.1028695,-19.6131992,48.1984749,7.3435116,-75.4351120
2340,-19.6131992,3.0238612,-19.6131992,-45.5038185,27.7557259,0.5954198
2350,-19.6131992,2.5953014,-19.6131992,-124.2061081,32.6259537,66.0916061
2360,-18.2269650,2.1835008,-18.5813046,-178.5648804,34.1297722,113.3816757
2370,-15.7729197,2.0494261,-15.2438040,-213.9847260,31.2748089,147.7175598
2380,-14.2550039,2.2074428,-13.0626974,-236.0000000,20.8244267,174.8549652
2390,-13.2302914,2.5833304,-11.9110928,-250.1374054,5.1450381,200.9236603
2400,-12.2606440,2.6503677,-11.3245163,-250.1374054,-9.7328243,227.2366486
2410,-11.4059181,2.4133430,-10.8337069,-250.1374054,-28.6641216,250.1297760
2420,-9.7730818,1.9895715,-9.8425131,-250.1374054,-49.6412201,250.1297760
2430,-7.3980455,1.4029950,-8.7603388,-250.1374054,-59.8473282,250.1297760
2440,-4.9966736,0.3974355,-7.5967631,-250.1374054,-54.5190849,250.1297760
2450,-2.9568241,-0.5674229,-6.2775645,-250.1374054,-34.4580154,250.1297760
2460,-1.3287752,-1.8459201,-4.3526363,-250.1374054,-5.3053436,250.1297760
2470,-0.2968795,-3.3853838,-2.0398495,-250.1374054,23.8625946,250.1297760
2480,1.0055596,-4.8721757,1.3407460,-250.1374054,42.5801544,250.1297760
2490,2.6575503,-5.7484488,5.5449429,-250.1374054,42.6488533,250.1297760
2500,4.7572546,-5.7340837,10.5440102,-250.1374054,27.5496178,250.1297760
2510,7.8673067,-4.9440012,15.9812145,-250.1374054,-6.1221375,250.1297760
2520,13.5918131,-3.0837159,19.6126022,-250.1374054,-43.6183205,250.1297760
2530,18.3035774,-0.0550664,19.6126022,-212.7862549,-68.7709961,209.6106873
2540,19.6126022,1.5107336,19.6126022,-96.8091583,-66.8473282,127.3893127
2550,19.6126022,1.9057748,19.6126022,22.2977104,-62.6335869,37.5267181
2560,19.6126022,1.4604555,19.6126022,137.1145020,-79.9694672,-50.5801544
2570,19.6126022,0.9265513,19.6126022,240.4503784,-112.3893127,-130.0229034
2580,17.3530846,0.5793939,19.6126022,250.1297760,-146.5801544,-188.2977142
2590,14.8200331,0.5530578,14.0395269,250.1297760,-161.1679382,-226.9541931
2600,13.3571825,1.2761030,8.9782104,250.1297760,-144.1297760,-250.1374054
2610,11.6764622,1.8339491,5.2504573,250.1297760,-107.5725174,-250.1374054
2620,9.7706871,2.0997043,2.8826041,250.1297760,-69.5572510,-250.1374054
2630,7.8744893,2.1427996,0.5650287,250.1297760,-27.8778629,-250.1374054
2640,6.2129216,1.8243724,-1.1731528,250.1297760,14.2519083,-250.1374054
2650,4.3478479,0.5793939,-2.8083842,250.1297760,42.0152664,-250.1374054
2660,1.4700323,-1.0223188,-4.1563129,250.1297760,49.1603050,-250.1374054
2670,-1.9991482,-2.0829449,-5.8873119,250.1297760,25.1679382,-250.1374054
2680,-4.7069764,-2.4851687,-7.9175844,250.1297760,-14.1832066,-250.1374054
2690,-6.8282285,-1.8459201,-10.2638903,250.1297760,-42.6870232,-250.1374054
2700,-8.9758167,-0.8666966,-12.8160963,250.1297760,-45.4274826,-250.1374054
2710,-11.2550850,0.3232156,-14.9038296,250.1297760,-15.3435116,-250.1374054
2720,-13.5918131,1.1923064,-17.0370522,188.1755676,51.2061081,-250.1374054
2730,-17.0849361,1.5705882,-18.7608681,117.4885483,129.9847260,-232.1755676
2740,-19.6131992,1.6519908,-19.6108055,53.4885483,174.5190887,-171.6030579
2750,-19.6131992,2.2529323,-19.6131992,0.4809160,155.1679382,-98.1755753
2760,-19.6131992,2.8395088,-19.6131992,-42.3587799,94.5114517,-24.1984730
2770,-19.6131992,3.1890604,-18.8159351,-80.3129807,30.8244267,37.5267181
2780,-18.0450058,3.3087699,-18.3035774,-117.2671738,5.3358779,83.3893127
2790,-15.8255920,3.2082138,-17.4225159,-155.6183167,9.8396950,118.6106873
2800,-14.5231533,3.5314295,-15.6053267,-190.0000000,12.9923668,148.6564941
2810,-13.7953196,3.9504125,-13.5463238,-213.7404633,6.6641221,176.4122162
2820,-13.3212700,4.2855992,-12.2630386,-229.3206177,-9.5419846,205.7328186
2830,-12.5359764,4.2472920,-11.9110928,-245.8015289,-30.6030540,238.3587799
2840,-10.5895004,3.6846576,-11.6501255,-250.1374054,-52.2442741,250.1297760
2850,-8.3198080,3.1627243,-10.7499104,-250.1374054,-66.4274826,250.1297760
2860,-5.9112539,2.1882892,-9.4522600,-250.1374054,-65.9160309,250.1297760
2870,-3.0789278,0.9744351,-8.1258793,-250.1374054,-47.3893127,250.1297760
2880,-0.2298422,0.1436514,-6.8593526,-250.1374054,-12.5572519,250.1297760
2890,1.9153515,-0.6560079,-5.1187773,-250.1374054,34.2519073,250.1297760
2900,2.7030399,-1.7429699,-2.8969693,-250.1374054,80.8091583,250.1297760
2910,2.2984219,-2.9209111,-0.2609667,-250.1374054,116.2137375,250.1297760
2920,1.7333932,-3.7636659,2.5306582,-250.1374054,139.1603088,250.1297760
2930,1.0749911,-4.3574247,5.5281835,-250.1374054,155.6030579,250.1297760
2940,0.3184272,-4.7668314,8.3054428,-250.1374054,168.7709961,250.1297760
2950,-0.1675933,-5.7915444,10.4985209,-250.1374054,168.1526642,250.1297760
2960,2.2936335,-6.7731619,13.3428183,-250.1374054,135.0381622,250.1297760
2970,7.8313937,-5.7676024,19.3258972,-250.1374054,63.7709923,250.1297760
2980,16.6875000,-3.6798692,19.6126022,-250.1374054,-21.1755733,220.3282471
2990,19.6126022,-1.0797794,19.6126022,-142.5648804,-75.7786255,127.2366409
3000,19.6126022,-0.1819584,19.6126022,0.5114504,-97.5954208,21.3511448
3010,19.6126022,-0.4070122,19.6126022,131.6259613,-110.0763321,-79.6717529
3020,19.6126022,-0.4525018,19.6126022,238.0610657,-133.1908417,-162.4122162
3030,18.6794662,-0.6512195,19.6126022,250.1297760,-163.0076294,-221.6488495
3040,14.8487625,-0.6631905,17.5901108,250.1297760,-168.0076294,-250.1374054
3050,12.3444405,0.1532281,13.5343533,250.1297760,-147.5954132,-250.1374054
3060,10.5104914,0.6655847,10.5535870,250.1297760,-118.1526718,-250.1374054
3070,8.7794924,0.7589580,7.8649125,250.1297760,-88.2366409,-250.1374054
3080,7.4100165,0.8259954,5.5832496,250.1297760,-63.5725174,-250.1374054
3090,6.7300668,0.7733232,3.0693510,250.1297760,-53.3282433,-250.1374054
3100,5.7125359,-0.0742199,0.6248835,250.1297760,-59.1297722,-250.1374054
3110,3.9935081,-1.3814473,-1.3383518,250.1297760,-88.1603088,-250.1374054
3120,1.6448082,-3.0286496,-2.6862805,250.1297760,-122.5648880,-250.1374054
3130,-1.2665262,-4.5800843,-4.3263001,250.1297760,-148.7175598,-250.1374054
3140,-5.6862001,-5.6790175,-6.4882536,250.1297760,-172.0763397,-250.1374054
3150,-10.8552551,-5.3007355,-8.8106174,250.1297760,-190.9007568,-250.1374054
3160,-16.0506458,-3.6750808,-12.3827477,250.1297760,-187.8778687,-250.1374054
3170,-19.6131992,-1.5490406,-16.9053726,250.1297760,-143.9160309,-250.1374054
3180,-19.6131992,0.2346306,-19.6131992,220.2213745,-63.0687027,-250.1374054
3190,-19.6131992,1.5801650,-19.6131992,107.4961853,18.0763359,-173.0686951
3200,-19.6131992,2.2888451,-19.6131992,3.6488550,46.1603050,-51.9083977
3210,-19.6131992,2.6431851,-19.6131992,-74.6564865,34.9847336,56.8167953
3220,-19.6131992,2.6336083,-18.8662128,-137.3740387,26.4885502,137.6106873
3230,-18.8422718,2.2864509,-15.7513723,-187.7862549,20.0076332,194.8854980
3240,-14.7913027,1.9943599,-13.0698805,-225.7633514,27.4732819,236.2671814
3250,-12.0810804,2.1811066,-10.7762470,-250.1374054,38.2519073,250.1297760
3260,-9.7132263,2.4779861,-8.8968077,-250.1374054,42.7480927,250.1297760
3270,-7.6470413,2.8586621,-7.6518297,-250.1374054,37.4198456,250.1297760
3280,-5.7197185,2.9879484,-7.1897511,-250.1374054,27.7480907,250.1297760
3290,-3.7133877,2.9568241,-6.7157016,-250.1374054,22.6106873,250.1297760
3300,-1.8459201,2.5258698,-6.3374195,-250.1374054,27.4732819,250.1297760
3310,-0.0047884,1.6495966,-5.3486195,-250.1374054,39.0000000,250.1297760
3320,1.7142396,0.4548960,-4.4148855,-250.1374054,57.3053436,250.1297760
3330,3.1651185,-1.0127422,-2.0805507,-250.1374054,74.1603088,250.1297760
3340,4.8721757,-2.2744799,1.6208663,-250.1374054,79.8549652,250.1297760
3350,7.7643566,-3.1315999,6.9096308,-250.1374054,56.7862587,250.1297760
3360,13.3308468,-1.8339491,14.9828377,-250.1374054,-5.0076337,250.1297760
3370,19.6126022,1.3598996,19.6126022,-250.1374054,-75.3664093,206.2748108
3380,19.6126022,4.5154414,19.6126022,-155.3893127,-100.1679382,103.8931274
3390,19.6126022,5.2097564,19.6126022,-15.1603050,-86.7328262,-10.3664122
3400,19.6126022,4.4555864,19.6126022,111.3740463,-69.8244247,-111.3893127
3410,19.6126022,3.2991931,19.6126022,219.1832123,-66.4656525,-193.7709961
3420,17.9420567,1.9249283,19.6126022,250.1297760,-81.3358765,-250.1374054
3430,14.3268299,0.6081241,13.7258883,250.1297760,-98.8549652,-250.1374054
3440,11.0324249,-0.0933734,8.8776541,250.1297760,-108.6488571,-250.1374054
3450,8.2958660,-0.7565638,4.2855992,250.1297760,-97.6717529,-250.1374054
3460,5.7149301,-1.2114599,0.4022238,250.1297760,-73.4351120,-250.1374054
3470,3.4715748,-1.7501525,-2.4085546,250.1297760,-40.8931313,-250.1374054
3480,1.2952565,-2.4540441,-4.6112089,250.1297760,-2.2442749,-250.1374054
3490,-0.6919208,-3.2153964,-6.8330169,250.1297760,39.1679382,-250.1374054
3500,-3.8546450,-3.9480183,-9.6126709,250.1297760,80.5572510,-250.1374054
3510,-9.4331064,-3.8666160,-12.7730007,250.1297760,94.8625946,-250.1374054
3520,-15.5526543,-2.6503677,-16.2038746,250.1297760,77.2213745,-250.1374054
3530,-19.6131992,-0.5913648,-19.6131992,231.6946564,42.7557259,-250.1374054
3540,-19.6131992,1.5777708,-19.6131992,158.6030579,14.5648851,-207.2442780
3550,-19.6131992,2.8442972,-19.6131992,60.1603050,1.1068702,-109.3435135
3560,-19.6131992,2.9233053,-19.6131992,-50.1068687,17.8625946,-11.2977095
3570,-19.6131992,2.3894010,-19.6131992,-145.6564941,53.8167953,69.5114517
3580,-19.6131992,1.7262106,-18.0593719,-209.8320618,84.8015289,128.0229034
3590,-16.4528694,1.5442522,-13.3284531,-243.3435059,88.4122162,164.9694672
3600,-13.7210999,2.0015423,-9.9622221,-250.1374054,68.1526718,185.9694672
3610,-12.1648769,2.8371146,-7.8936424,-242.2900696,35.1832047,199.6106873
3620,-11.2718439,3.2345500,-7.5488791,-227.8625946,-2.5267177,214.1984711
3630,-10.4290895,3.5721307,-7.8002691,-220.4427490,-42.4045792,232.1603088
3640,-9.0644016,4.0342093,-8.0851774,-224.5267181,-70.4351120,250.1297760
3650,-7.4866304,4.0054789,-8.2599535,-238.5343475,-72.3053436,250.1297760
3660,-6.3302369,3.3183465,-8.3533268,-250.1374054,-56.1984749,250.1297760
3670,-4.3741841,2.4947455,-8.0396881,-250.1374054,-40.2977104,250.1297760
3680,-1.9871773,1.6184721,-7.2855186,-250.1374054,-20.0305347,250.1297760
3690,-0.0909792,0.4860204,-5.9351954,-250.1374054,9.0839691,250.1297760
3700,1.5418580,-0.8140244,-3.9121056,-250.1374054,42.6564903,250.1297760
3710,2.8658447,-2.1092808,-1.0486550,-250.1374054,67.2748108,250.1297760
3720,4.8817525,-2.9280937,2.9017577,-250.1374054,74.9236679,250.1297760
3730,8.1809454,-2.9640064,8.5807753,-250.1374054,55.1603050,250.1297760
3740,13.6780043,-1.9368993,15.3252068,-250.1374054,6.7175574,250.1297760
3750,18.9140968,0.3112446,19.6126022,-250.1374054,-57.3053436,209.8396912
3760,19.6126022,2.7078283,19.6126022,-173.2977142,-107.0763321,108.9007645
3770,19.6126022,3.9528067,19.6126022,-42.4351158,-116.3053436,-5.8702292
3780,19.6126022,2.9951310,19.6126022,81.1603088,-106.7099228,-111.3129807
3790,19.6126022,1.9991482,19.6126022,187.9389343,-110.5190811,-202.2595367
3800,19.3402615,1.2306134,19.6126022,250.1297760,-126.7480927,-250.1374054
3810,14.5063934,0.5027798,15.2054968,250.1297760,-138.2900696,-250.1374054
3820,10.8504667,0.3998296,10.1465750,250.1297760,-130.7175598,-250.1374054
3830,8.4299412,0.3591284,6.3637557,250.1297760,-99.1297684,-250.1374054
3840,7.1179252,1.2162483,3.4596038,250.1297760,-61.3816795,-250.1374054
3850,6.2248926,1.1851238,0.4525018,250.1297760,-15.3358774,-250.1374054
3860,5.0349803,0.4477134,-1.8674678,250.1297760,28.3206100,-250.1374054
3870,3.9935081,-0.4836263,-3.8307030,250.1297760,63.2137413,-250.1374054
3880,2.0566087,-2.0590029,-5.1307478,250.1297760,81.7480927,-250.1374054
3890,-1.0893562,-3.7253587,-6.6750002,250.1297760,82.1679382,-250.1374054
3900,-4.9296360,-4.6950054,-8.2551651,250.1297760,66.6030502,-250.1374054
3910,-10.0172882,-5.0373745,-10.2184010,250.1297760,49.3893127,-250.1374054
3920,-16.2110577,-4.4867110,-12.8783455,250.1297760,30.7862587,-250.1374054
3930,-19.6131992,-2.6743097,-17.1016960,247.4809113,8.2213745,-250.1374054
3940,-19.6131992,-0.1388630,-19.6131992,180.0763397,1.9312977,-247.3740387
3950,-19.6131992,1.1803354,-19.6131992,80.1984711,19.2977104,-138.5114441
3960,-19.6131992,1.2090657,-19.6131992,-27.6488552,45.2824440,-25.4809170
3970,-19.6131992,0.9720409,-19.6131992,-119.3358765,63.1145020,77.5419846
3980,-19.6131992,0.9888002,-18.7297440,-180.1450348,70.6259537,152.7175598
3990,-19.5605278,1.2018831,-14.9421368,-215.6488495,62.1908379,200.8931274
4000,-15.5215302,1.8674678,-12.5096397,-236.1068726,45.6946564,229.8320618
4010,-12.6915979,2.5665710,-10.8839855,-247.0839691,25.1221371,247.1145020
4020,-10.8145542,2.7509236,-10.0532017,-250.1374054,-0.4274809,250.1297760
4030,-10.0460186,2.6048782,-9.4115591,-250.1374054,-21.5038166,250.1297760
4040,-7.8218169,3.0430148,-8.8872309,-250.1374054,-48.1145020,250.1297760
4050,-6.0860295,2.7820482,-8.1091194,-250.1374054,-49.2977104,250.1297760
4060,-4.7261300,1.4772149,-7.6159167,-250.1374054,-49.3587799,250.1297760
4070,-2.8921809,0.4261657,-6.9838505,-250.1374054,-50.1145020,250.1297760
4080,-0.8403605,-0.3375807,-5.8106980,-250.1374054,-40.3664131,250.1297760
4090,1.2497669,-1.8100072,-4.5010762,-250.1374054,-17.1145039,250.1297760
4100,3.1770895,-3.4308734,-2.3726418,-250.1374054,4.6106873,250.1297760
4110,5.3773494,-4.7596488,1.5346755,-250.1374054,4.3206105,250.1297760
4120,8.8728657,-5.2959471,7.2496057,-250.1374054,-25.6870232,250.1297760
4130,13.8001080,-4.1922259,14.6524391,-250.1374054,-78.6259537,250.1297760
4140,19.6126022,-1.2737088,19.6126022,-250.1374054,-135.3053436,226.6183167
4150,19.6126022,1.7022687,19.6126022,-185.3282471,-152.6488495,125.4732819
4160,19.6126022,3.1435707,19.6126022,-52.6946564,-121.6946564,10.5877867
4170,19.6126022,2.9328821,19.6126022,69.8320618,-89.1145020,-97.6488571
4180,19.6126022,2.2864509,19.6126022,181.3664093,-84.3435135,-187.6717529
4190,18.5765152,1.3431402,19.6126022,250.1297760,-103.1374054,-249.4503784
4200,15.2390156,0.5147507,16.4792061,250.1297760,-122.7786255,-250.1374054
4210,12.7322998,0.5698171,10.7546988,250.1297760,-121.2900772,-250.1374054
4220,10.8959560,0.7781116,5.5353661,250.1297760,-97.9847336,-250.1374054
4230,8.7555504,0.8786675,1.6855093,250.1297760,-63.5954208,-250.1374054
4240,6.6558466,0.8116302,-1.3383518,250.1297760,-28.7633591,-250.1374054
4250,5.3342543,0.4979914,-3.1148405,250.1297760,4.4809160,-250.1374054
4260,3.7876077,-0.4453192,-4.1347651,250.1297760,34.6946564,-250.1374054
4270,2.0542145,-1.7621235,-5.2121506,250.1297760,60.9771004,-250.1374054
4280,-0.5722113,-3.3758070,-6.3661499,250.1297760,78.3053436,-250.1374054
4290,-4.7764082,-4.6806402,-7.7045016,250.1297760,79.6946564,-250.1374054
4300,-10.0867205,-5.1475072,-9.2607250,250.1297760,71.1450348,-250.1374054
4310,-16.7377777,-4.4747400,-12.1193867,250.1297760,60.8396950,-250.1374054
4320,-19.6131992,-2.6814921,-16.1296539,238.3664093,37.6488533,-250.1374054
4330,-19.6131992,-0.2394189,-19.6131992,174.9160309,9.1297712,-240.4732819
4340,-19.6131992,1.2377959,-19.6131992,83.6106873,-9.1832066,-121.5648880
4350,-19.6131992,1.8985922,-19.6131992,-18.9541988,-8.0152674,0.6717557
4360,-19.6131992,1.9201399,-19.6131992,-103.5114517,14.8549614,100.0534363
4370,-19.6131992,2.0350611,-15.8926296,-160.6946564,33.5038185,168.8091583
4380,-16.9173431,2.1092808,-11.6429434,-190.5419922,35.4503822,206.7099304
4390,-13.0459385,2.2050486,-9.0667953,-198.7328186,26.2366409,227.5877838
4400,-11.3412752,2.5665710,-8.0253229,-195.9236603,6.1984735,240.7709961
4410,-10.2806492,2.9927368,-7.6853480,-193.0458069,-22.0687027,250.1297760
4420,-9.3157911,3.2489152,-7.6853480,-197.7709961,-46.1603050,250.1297760
4430,-8.4514885,3.1627243,-7.6039457,-211.5343475,-55.1908379,250.1297760
4440,-7.5536675,2.4660151,-7.0796180,-232.6488495,-47.7022896,250.1297760
4450,-6.3996682,1.4724265,-6.1410961,-250.1374054,-31.2671757,250.1297760
4460,-4.5489597,0.3064562,-5.0110383,-250.1374054,-6.2290077,250.1297760
4470,-2.5689652,-1.0773853,-3.6128318,-250.1374054,26.2519093,250.1297760
4480,-1.1228749,-2.3941894,-1.8411317,-250.1374054,66.1984711,250.1297760
4490,0.2705434,-3.7900019,0.7302278,-250.1374054,99.1603088,250.1297760
4500,2.6455793,-4.3263001,5.2576399,-250.1374054,102.7328262,250.1297760
4510,5.8968887,-3.7445123,10.8480721,-250.1374054,82.5190811,250.1297760
4520,11.2622671,-2.4564383,16.9293137,-250.1374054,38.5648842,250.1297760
4530,18.6603127,0.8116302,19.6126022,-210.9313049,-25.5648861,250.1297760
4540,19.6126022,4.3047528,19.6126022,-93.6870193,-81.2442780,207.3053436
4550,19.6126022,5.9471664,19.6126022,30.9236641,-115.1145020,80.9083939
4560,19.6126022,6.2631998,19.6126022,143.1603088,-134.1832123,-58.1374054
4570,19.6126022,4.9870968,18.6866493,227.6412201,-148.9923706,-188.9313049
4580,19.6126022,3.6224086,13.4792862,250.1297760,-179.1526642,-250.1374054
4590,19.6126022,2.6695213,9.3062143,250.1297760,-208.8396912,-250.1374054
4600,16.2062683,2.1978660,6.1243367,250.1297760,-214.0992432,-250.1374054
4610,13.6133614,1.8387375,4.0126615,250.1297760,-195.0992432,-250.1374054
4620,10.8624372,0.7709290,2.2242019,250.1297760,-162.7938995,-250.1374054
4630,6.8904772,-1.2545552,0.0981618,250.1297760,-122.8625946,-250.1374054
4640,2.3822186,-3.4907281,-2.1787124,250.1297760,-85.6717529,-250.1374054
4650,-1.6519908,-5.1187773,-4.4771342,250.1297760,-45.3129768,-250.1374054
4660,-5.7149301,-5.9615316,-6.8497758,250.1297760,4.5343513,-250.1374054
4670,-10.8097658,-5.9806852,-9.5264797,226.6106873,59.2442741,-250.1374054
4680,-17.4033623,-5.4683285,-11.9781294,185.7709961,107.5954208,-250.1374054
4690,-19.6131992,-3.8259149,-14.1257181,145.0915985,122.4503784,-250.1374054
4700,-19.6131992,-1.7357874,-15.4951944,103.7251892,89.1297684,-250.1374054
4710,-19.6131992,-0.4453192,-17.3794212,53.7480927,45.2595406,-154.0076294
4720,-19.6131992,0.4477134,-18.4017410,-10.7022905,31.6106873,-46.5267181
4730,-19.6131992,0.7565638,-16.5917320,-80.4198456,43.3053436,40.0916023
4740,-19.6131992,0.5315101,-12.9525652,-132.0610657,68.5496216,103.6335907
4750,-18.3490677,0.9050036,-9.8113880,-156.7557220,82.2977066,142.5267181
4760,-15.2078915,1.5538290,-6.9383612,-158.9770966,70.2824402,161.4961853
4770,-13.2829628,2.0709739,-5.0110383,-142.7099304,33.9465637,170.1755676
4780,-13.1417055,2.5737536,-4.7644372,-117.9542007,-9.7251911,182.1984711
4790,-14.0347385,2.3702476,-6.1722202,-102.9389343,-47.6870232,207.6564941
4800,-12.6508970,3.1507533,-7.5967631,-103.2824402,-87.0839691,239.7404633
4810,-10.6948442,3.4117200,-8.3269911,-115.4732819,-96.3511429,250.1297760
4820,-9.8137827,2.9951310,-8.7818871,-137.6259613,-82.4580154,250.1297760
4830,-8.5352850,2.4157372,-8.3006544,-165.6488495,-68.2213745,250.1297760
4840,-5.5329719,2.0063307,-7.4507174,-192.5114441,-53.7175560,250.1297760
4850,-3.0430148,1.4939742,-6.3182659,-217.6259613,-27.4732819,250.1297760
4860,-1.2401901,1.0462608,-4.9176650,-239.7557220,-0.7404580,250.1297760
4870,0.7182568,0.6296718,-2.9687948,-250.1374054,24.8091602,250.1297760
4880,2.5306582,-0.1005560,-0.2513899,-250.1374054,38.1526718,250.1297760
4890,5.2121506,-0.4405309,3.2177906,-250.1374054,19.0992374,250.1297760
4900,9.5025377,0.0766141,7.5991573,-242.2061005,-26.2671757,250.1297760
4910,14.7075062,0.9911944,11.2167778,-202.1374054,-81.9083939,250.1297760
4920,19.6126022,2.7437410,15.4497042,-144.2977142,-128.2595367,250.1297760
4930,19.6126022,5.4204450,19.6126022,-74.4885483,-129.0229034,166.8778687
4940,19.6126022,7.2256637,19.6126022,-4.0534353,-73.4580154,57.8015251
4950,19.6126022,6.9216018,19.6126022,63.8244286,-7.4351144,-54.1297722
4960,19.6126022,5.8657641,19.6126022,133.7251892,16.5114498,-149.1068726
4970,19.6126022,4.1922259,18.5358143,208.1603088,-3.8625953,-228.9770966
4980,19.6126022,2.3295465,13.7402534,250.1297760,-36.4656487,-250.1374054
4990,16.1559906,1.3551112,7.7380204,250.1297760,-49.0916023,-250.1374054
5000,12.6508970,0.8451489,2.0135133,250.1297760,-37.5496178,-250.1374054
5010,9.7275915,0.6272776,-3.0262554,250.1297760,-11.3053436,-250.1374054
5020,6.8689294,0.1388630,-6.9168134,250.1297760,20.2061062,-250.1374054
5030,3.8402798,-0.9480990,-9.7467451,250.1297760,53.7480927,-250.1374054
5040,0.1340746,-2.3774302,-11.1545286,247.7328186,72.4274826,-250.1374054
5050,-4.7835903,-3.4859397,-12.2319136,224.0534363,60.5114517,-250.1374054
5060,-10.0795374,-3.7852135,-13.2374735,206.9923706,32.4274826,-250.1374054
5070,-15.1671906,-3.3805954,-14.7793312,188.0152740,2.4198472,-250.1374054
5080,-18.5860920,-2.3415172,-16.5558205,154.7022858,-17.0916023,-250.1374054
5090,-19.6131992,-1.2617378,-18.1838684,99.2290039,-2.7786260,-250.1374054
5100,-19.6131992,-0.7924767,-19.0888729,27.7862587,51.1221390,-246.0610657
5110,-19.6131992,-0.9313397,-18.1120434,-41.5114517,106.3893127,-170.9770966
5120,-19.6131992,-1.0941446,-15.3970327,-89.6030502,119.1221390,-89.2671738
5130,-19.6131992,-1.0510491,-12.5048513,-111.9847336,96.9542007,-15.2061071
5140,-19.6131992,-0.8044477,-9.7826586,-116.7328262,61.0610695,44.4580154
5150,-19.6131992,-0.5410868,-7.4339581,-107.1603088,14.5725193,89.3511429
5160,-19.6131992,-0.0335187,-6.0333576,-85.7480927,-34.6412201,122.0152664
5170,-17.3842087,0.6392486,-5.7652082,-64.6259537,-78.5038147,145.2748108
5180,-15.6987000,1.1899122,-6.0357518,-49.5343513,-111.4198456,165.7022858
5190,-15.2629576,1.3048333,-6.1961622,-39.7709923,-131.1755676,189.5801544
5200,-14.1688128,1.7357874,-6.6319046,-34.3587799,-150.6641235,219.3129730
5210,-12.9717188,1.8171898,-7.3357964,-32.4885483,-160.7099304,250.1297760
5220,-12.0140429,2.0159075,-8.0756006,-37.7709923,-155.3206177,250.1297760
5230,-10.4147243,2.0446377,-8.8992023,-52.5877876,-134.7709961,250.1297760
5240,-8.5233145,2.1595588,-9.8496952,-77.2519073,-98.4809189,250.1297760
5250,-6.3350253,1.5969244,-10.7187862,-114.1832047,-46.5267181,250.1297760
5260,-3.5529771,0.7445929,-11.0779142,-162.6030579,10.9847326,250.1297760
5270,-0.5889706,-0.4405309,-10.5631638,-218.1984711,72.6641235,250.1297760
5280,2.4516499,-1.9440818,-8.9087791,-250.1374054,140.3053436,250.1297760
5290,5.2480631,-3.3829896,-5.4898763,-250.1374054,198.0076294,250.1297760
5300,8.7675219,-4.3861551,-0.0909792,-250.1374054,217.6717529,250.1297760
5310,13.7641954,-3.4332676,7.2687593,-250.1374054,192.9007568,250.1297760
5320,19.2325230,-1.1635761,15.3563309,-250.1374054,149.1145020,250.1297760
5330,19.6126022,1.6280488,19.6126022,-250.1374054,99.2595444,250.1297760
5340,19.6126022,4.1634955,19.6126022,-144.7786255,49.7862587,180.7633514
5350,19.6126022,5.2791877,19.6126022,-20.9160309,-10.5725193,64.8778610
5360,19.6126022,5.2049680,19.6126022,101.5114517,-73.2442780,-48.5877876
5370,19.6126022,4.7189474,19.6126022,202.1145020,-129.4198456,-146.1450348
5380,19.6126022,3.6200144,12.7706070,250.1297760,-175.4274750,-221.6030579
5390,18.7536869,3.5314295,7.0269461,250.1297760,-196.8320618,-250.1374054
5400,15.4520988,3.5649481,2.7820482,250.1297760,-178.0381622,-250.1374054
5410,12.3420467,3.6319854,-0.1101327,250.1297760,-134.9236603,-250.1374054
5420,9.0284882,3.5194585,-2.1475880,250.1297760,-83.6106873,-250.1374054
5430,6.4978304,3.2537034,-3.2944047,235.0839691,-42.1603050,-250.1374054
5440,4.3119354,2.4492557,-3.6152260,222.6030579,-17.6946564,-250.1374054
5450,2.2218077,1.1132981,-4.3215117,217.1603088,-3.1832061,-250.1374054
5460,-1.1516051,-0.3399749,-5.5904322,215.0458069,1.4274809,-250.1374054
5470,-6.0022330,-1.5083394,-7.4435349,210.7022858,-4.7862597,-250.1374054
5480,-11.7961712,-1.7645177,-9.6725254,200.8549652,-24.6259537,-250.1374054
5490,-18.2724533,-0.7733232,-12.3157110,180.4961853,-47.2748108,-250.1374054
5500,-19.6131992,1.0199248,-14.3531656,143.7633514,-73.0610657,-250.1374054
5510,-19.6131992,2.9855542,-16.4385052,90.4198456,-77.4045792,-204.4656525
5520,-19.6131992,3.6870518,-17.8630466,18.2213745,-27.7480907,-107.7786255
5530,-19.6131992,3.7157819,-16.8048153,-61.7786255,38.1068687,-11.1832066
5540,-19.6131992,3.1292057,-13.9557304,-124.4198456,83.7786255,72.0763321
5550,-19.6131992,2.4995339,-11.4992924,-162.9160309,105.1526718,139.7557220
5560,-18.6986198,2.1930776,-9.2750902,-185.0000000,100.3969498,189.2900696
5570,-15.5837793,2.3127871,-7.4267755,-194.6030579,73.0457993,223.2595367
5580,-13.2159262,2.4444675,-6.0764527,-195.2366486,40.2061081,245.0915985
5590,-11.9230633,2.5282640,-4.6686692,-190.7633514,13.2442751,250.1297760
5600,-10.5440102,2.6455793,-3.4093258,-183.9923706,-1.4809160,250.1297760
5610,-8.8273764,2.6168492,-2.7796540,-179.8625946,-4.3358779,250.1297760
5620,-6.8162575,2.2146254,-2.5809362,-181.2519073,-0.8244275,250.1297760
5630,-4.2209558,1.4580613,-2.2912393,-188.6335907,10.3129768,250.1297760
5640,-1.1563935,0.5650287,-1.9368993,-200.3893127,25.1603050,250.1297760
5650,2.9592183,-0.1963235,-0.6703730,-211.4809113,24.1450386,250.1297760
5660,8.9806042,0.6033357,2.7006457,-208.2290039,-10.2213745,250.1297760
5670,16.2421818,2.4468615,6.6319046,-182.7404633,-58.1832047,250.1297760
5680,19.6126022,4.8985114,10.0627785,-138.8625946,-86.0763321,250.1297760
5690,19.6126022,8.0157461,13.2063494,-79.2595444,-87.6412201,178.1145020
5700,19.6126022,10.4219065,14.4872408,-14.1832066,-63.6717567,67.8625946
5710,19.6126022,9.9598284,14.2765512,45.6412201,-46.5877876,-46.3587799
5720,19.6126022,8.8513184,12.2582502,103.1603088,-58.9389305,-139.6259613
5730,19.6126022,7.7715387,9.5719690,151.3206177,-85.6793900,-208.6793823
5740,16.6683464,6.7635851,6.8018923,188.9465637,-109.1374054,-250.1374054
5750,12.8927097,5.8729467,3.4955165,210.4427490,-109.6183243,-250.1374054
5760,9.3660688,5.3701668,0.3495516,215.2290039,-89.6106873,-250.1374054
5770,6.2703824,4.8985114,-2.1020982,208.0152740,-61.1526718,-250.1374054
5780,4.0006905,4.1611013,-3.7277529,193.6030579,-30.8320618,-250.1374054
5790,2.1092808,3.2967989,-4.6566987,177.6488495,-8.7175570,-250.1374054
5800,0.2896969,2.2218077,-5.5042415,164.4198456,9.9618320,-250.1374054
5810,-2.1523764,0.9457048,-6.2871413,154.8015289,27.1221371,-250.1374054
5820,-5.1427188,0.6799498,-7.0173693,146.6793823,33.3129768,-250.1374054
5830,-8.5688038,0.4141948,-7.6374645,138.3282471,29.2366409,-250.1374054
5840,-13.8791161,0.4884146,-8.5855637,125.9542007,27.5725193,-250.1374054
5850,-19.6131992,0.9935886,-9.9382801,106.5801544,20.8778629,-250.1374054
5860,-19.6131992,2.0781565,-10.7666702,81.2061081,-9.0000000,-210.7175598
5870,-19.6131992,3.1387823,-12.4282379,51.4961815,-31.5954189,-115.9389343
5880,-19.6131992,3.1076579,-14.5207586,5.7328243,-14.2061071,-20.0076332
5890,-19.6131992,3.1220231,-14.2980995,-50.5267181,8.8854961,67.9770966
5900,-19.6131992,2.9328821,-13.0028429,-100.8778610,27.6793900,141.7251892
5910,-18.2868195,2.4013720,-11.7818060,-141.3587799,58.0076332,194.1145020
5920,-15.4999828,2.2433555,-9.4259243,-173.0839691,73.6870193,232.5038147
5930,-13.2685976,2.2074428,-7.0772243,-190.2595367,74.9542007,250.1297760
5940,-11.9589767,2.0518203,-5.7269011,-193.4503784,64.0992355,250.1297760
5950,-10.5799236,2.1787124,-4.5872669,-188.6564941,31.7709923,250.1297760
5960,-8.3245964,2.4636209,-3.9264708,-180.3740387,-0.4809160,250.1297760
5970,-6.5265603,2.5210814,-3.9240766,-176.9313049,-9.2137403,250.1297760
5980,-4.5369892,2.0063307,-3.7947903,-183.5648804,-1.0687023,250.1297760
5990,-1.8554969,1.2354017,-3.3446827,-198.5496216,15.2748089,250.1297760
6000,1.6855093,0.5793939,-1.7309990,-212.7633514,30.7938938,250.1297760
6010,5.8921003,0.4764437,0.5817881,-219.3587799,35.6106873,250.1297760
6020,9.9478569,0.5769997,3.2034254,-215.0000000,27.8015270,250.1297760
6030,15.8806591,2.4492557,7.7356262,-193.7480927,0.6564885,250.1297760
6040,19.6126022,5.3079181,12.7897596,-150.1221313,-37.5419846,250.1297760
6050,19.6126022,7.5345144,16.3379498,-84.2671738,-51.7175560,173.6946564
6060,19.6126022,9.2511482,17.7744617,-9.3282442,-38.1984749,64.1068726
6070,19.6126022,9.4666252,17.4129391,67.7862625,-23.9236641,-45.8167953
6080,19.6126022,8.2958660,15.5239248,140.5725250,-52.3816795,-145.7862549
6090,19.6126022,6.5337429,12.6844158,207.9847260,-109.6183243,-232.8931274
6100,18.7321377,5.0804701,9.0835552,250.1297760,-162.4198456,-250.1374054
6110,15.0402985,3.7756367,4.7213416,250.1297760,-180.2519073,-250.1374054
6120,11.6692791,2.7652888,0.2873027,250.1297760,-173.1832123,-250.1374054
6130,8.2599535,1.7836711,-3.3758070,250.1297760,-145.4198456,-250.1374054
6140,5.0852585,0.8212070,-6.0477223,250.1297760,-110.1374054,-250.1374054
6150,2.1882892,-0.2011119,-7.1514440,234.2900696,-73.6030502,-250.1374054
6160,-0.5147507,-1.4029950,-7.3166428,203.4427490,-32.6259537,-250.1374054
6170,-3.9001346,-2.5378408,-7.7164726,179.2595367,9.3511448,-250.1374054
6180,-7.9606800,-2.8921809,-8.8010406,158.2595367,50.7404594,-250.1374054
6190,-12.0547438,-2.5378408,-10.4434547,135.5038147,86.0152664,-250.1374054
6200,-17.9947281,-1.9225341,-11.9733410,108.0076370,107.7709961,-250.1374054
6210,-19.6131992,-1.0534433,-12.8328552,79.9923630,100.9770966,-250.1374054
6220,-19.6131992,0.0000000,-13.7187052,50.4580154,65.1908417,-195.9618378
6230,-19.6131992,0.9026094,-15.5335016,17.7175579,26.3893127,-84.0305328
6240,-19.6131992,1.3503228,-17.0753593,-27.5572510,17.6564884,20.3740463
6250,-19.6131992,1.6902977,-18.2461185,-89.0763321,48.0992355,103.8015289
6260,-19.6131992,1.4197544,-17.0633888,-154.2671814,98.4809189,165.9694672
6270,-17.8845959,1.3742647,-14.9277716,-203.8931274,141.0152740,207.8167877
6280,-16.3906212,1.5274929,-13.1345234,-240.3282471,169.5419922,239.8091583
6290,-15.3252068,1.6687500,-11.5471754,-250.1374054,173.2748108,250.1297760
6300,-14.0443153,1.5921360,-10.7666702,-250.1374054,160.7175598,250.1297760
6310,-12.3707771,1.1659702,-9.7204094,-250.1374054,149.7709961,250.1297760
6320,-10.0340481,0.6799498,-8.4251528,-250.1374054,140.4122162,250.1297760
6330,-7.5081782,-0.1029501,-6.9599090,-250.1374054,141.1450348,250.1297760
6340,-4.9463954,-1.0893562,-5.3749552,-250.1374054,147.3740387,250.1297760
6350,-2.4396791,-2.2672975,-3.7708483,-250.1374054,148.7557220,250.1297760
6360,-0.0837966,-3.7397239,-1.6615674,-250.1374054,144.6488495,250.1297760
6370,3.0238612,-4.4484038,2.4301023,-250.1374054,111.9923630,250.1297760
6380,7.3717093,-3.8283088,7.7715387,-250.1374054,34.9618340,250.1297760
6390,12.8974981,-1.6232605,13.9820662,-250.1374054,-75.8778610,250.1297760
6400,19.6126022,1.9416877,19.2564659,-215.8931274,-168.3587799,250.1297760
6410,19.6126022,5.0397687,19.6126022,-112.8167953,-203.2137451,161.8778687
6420,19.6126022,7.2974896,19.6126022,-13.3816795,-191.7251892,52.1908379
6430,19.6126022,7.5009956,19.6126022,66.9465637,-157.4503784,-57.5343513
6440,19.6126022,6.9455438,18.6746769,129.5419922,-136.5877838,-152.5343475
6450,19.6126022,5.3246775,15.7657375,188.0992432,-145.1755676,-225.2595367
6460,15.0043850,3.8235207,12.4809093,239.8778687,-160.1374054,-250.1374054
6470,11.0324249,3.1723011,9.3014259,250.1297760,-170.3816833,-250.1374054
6480,8.4347296,2.9304879,5.7053533,250.1297760,-165.1526642,-250.1374054
6490,6.7803445,3.0454090,1.6711442,250.1297760,-141.7099304,-250.1374054
6500,5.2313042,3.0406206,-1.6735384,250.1297760,-103.9542007,-250.1374054
6510,3.7181761,2.8083842,-3.7421181,250.1297760,-71.6564865,-250.1374054
6520,2.5641768,2.3367288,-4.7644372,250.1297760,-45.8091621,-250.1374054
6530,1.4556671,1.4580613,-5.4850879,241.6870270,-23.4809170,-250.1374054
6540,-0.3184272,0.4094064,-6.2081332,233.8244324,-8.7175570,-250.1374054
6550,-2.4157372,-0.3734936,-7.2950954,228.5343475,-6.4885497,-250.1374054
6560,-5.5329719,-1.0199248,-8.5879574,220.0152740,-12.6183205,-250.1374054
6570,-9.4474716,-1.2234308,-9.6485834,207.6030579,-24.2595425,-250.1374054
6580,-13.5966015,-0.9935886,-10.4626083,191.2442780,-37.3511467,-250.1374054
6590,-19.3833580,-0.2657550,-12.1217813,169.2748108,-49.1755714,-250.1374054
6600,-19.6131992,0.8259954,-14.2957048,136.7175598,-61.3435097,-223.1374054
6610,-19.6131992,2.0326669,-17.0226879,88.4198456,-56.0839691,-135.2442780
6620,-19.6131992,2.1044924,-18.9428272,21.6564884,-23.4427490,-43.7862587
6630,-19.6131992,1.7717001,-18.9332504,-50.3969460,20.3816795,48.2442741
6640,-19.6131992,1.9871773,-17.1376076,-113.3893127,61.7022896,124.9007645
6650,-19.2181587,1.9273225,-14.7194767,-161.1221313,90.6488571,178.4809113
6660,-16.6779232,1.6304430,-12.2295198,-194.2595367,102.2061081,219.1374054
6670,-14.4202032,1.7501525,-10.0962973,-212.9389343,99.9236679,250.1297760
6680,-12.4282379,1.9081690,-8.6430235,-223.8167877,96.2213745,250.1297760
6690,-10.4626083,2.1212518,-7.7452030,-231.2442780,83.4961853,250.1297760
6700,-8.3820572,2.1116750,-7.1490498,-238.0305328,71.5572510,250.1297760
6710,-5.8585815,2.1427996,-6.4475522,-244.8854980,64.2061081,250.1297760
6720,-3.2656744,2.1547706,-6.1339135,-250.1374054,61.6793900,250.1297760
6730,-1.1348459,1.7238164,-5.6790175,-250.1374054,65.9312973,250.1297760
6740,0.9313397,1.0941446,-4.6566987,-250.1374054,76.8015289,250.1297760
6750,2.8395088,0.5291159,-3.1315999,-250.1374054,91.3664093,250.1297760
6760,5.1451130,-0.1221037,-0.8212070,-250.1374054,98.1984711,250.1297760
6770,8.1186962,-0.6105183,2.5498118,-250.1374054,75.3053436,250.1297760
6780,12.4833040,0.6679789,7.6733770,-250.1374054,17.5954189,250.1297760
6790,17.8630466,3.0717452,13.5319586,-238.0381622,-47.2824440,238.2595367
6800,19.6126022,5.7364779,18.5286331,-163.2595367,-83.7862625,156.5877838
6810,19.6126022,7.7906923,19.6126022,-73.8473282,-89.2671738,54.1603050
6820,19.6126022,8.0660238,19.6126022,15.6946564,-69.3816757,-48.3893127
6830,19.6126022,7.2280579,19.6126022,98.1450348,-50.7251892,-139.9313049
6840,18.9619808,5.9687142,16.4935703,170.3740387,-62.2213745,-210.9084015
6850,14.6524391,4.3693957,12.6101961,232.0229034,-86.4274826,-250.1374054
6860,10.9917240,3.2872221,8.6717539,250.1297760,-102.7709961,-250.1374054
6870,8.0348997,2.4229198,4.5537481,250.1297760,-101.6488571,-250.1374054
6880,5.4108682,1.6448082,1.0151364,250.1297760,-89.8854980,-250.1374054
6890,3.5864959,1.0534433,-1.9608412,250.1297760,-79.0763321,-250.1374054
6900,1.8698620,0.2633608,-4.1491303,250.1297760,-65.9923630,-250.1374054
6910,0.2561783,-0.4716553,-5.7029591,250.1297760,-50.0534363,-250.1374054
6920,-2.0685797,-1.2569494,-7.3908629,250.1297760,-32.8320618,-250.1374054
6930,-5.4108682,-1.6807210,-8.7890692,250.1297760,-26.9694653,-250.1374054
6940,-9.6773138,-1.4317253,-10.2734671,236.9389343,-27.2290077,-250.1374054
6950,-15.4856176,-0.7350162,-11.9063044,212.0992432,-32.3664131,-250.1374054
6960,-19.6131992,0.4884146,-13.7977142,180.1679382,-48.3893127,-250.1374054
6970,-19.6131992,1.9512644,-15.7346134,137.8931274,-65.9542007,-198.1221313
6980,-19.6131992,3.0932927,-18.1671104,80.6641235,-50.6793900,-113.6106873
6990,-19.6131992,3.3494711,-19.2109756,7.5114503,-4.1297708,-33.6564903
7000,-19.6131992,3.0669568,-18.1144371,-62.9236641,44.2213745,37.0839691
7010,-19.0481720,2.7724714,-15.7896795,-117.9465637,78.2977066,96.3053436
7020,-16.0434628,2.7030399,-13.3452120,-153.8320618,94.1603088,136.1145020
7030,-13.6588507,2.8969693,-11.1186161,-176.4580078,89.4503784,164.3206177
7040,-11.9996777,3.3087699,-9.6174593,-188.4198456,77.6106873,184.4122162
7050,-10.7044210,3.5434003,-8.5472565,-194.2595367,64.8320618,202.2748108
7060,-9.7443514,3.9456241,-7.9534974,-199.5267181,52.0458031,221.7633514
7070,-8.5807753,4.0342093,-7.6230993,-207.8625946,44.0381660,241.9694672
7080,-7.2639709,3.9815371,-7.4267755,-220.8167877,43.1984749,250.1297760
7090,-5.5425487,3.8330972,-6.9623032,-237.0992432,47.7709923,250.1297760
7100,-3.5625539,3.4907281,-6.3302369,-250.1374054,57.3587799,250.1297760
7110,-1.7597293,2.7796540,-5.3462253,-250.1374054,72.6030502,250.1297760
7120,0.0766141,2.1835008,-3.8235207,-250.1374054,87.4198456,250.1297760
7130,1.6328372,1.1276633,-1.6088953,-250.1374054,89.5877838,250.1297760
7140,4.0078731,0.3112446,1.8004304,-250.1374054,64.1755753,250.1297760
7150,7.6805596,0.8020535,6.3422079,-250.1374054,7.7099237,250.1297760
7160,12.2414904,2.4923513,11.2407198,-232.4198456,-62.2442741,250.1297760
7170,16.8407288,5.0924411,15.0139618,-164.0305328,-112.5038147,196.5038147
7180,19.6126022,7.1801744,17.6595421,-89.4427490,-117.7786255,124.8473282
7190,19.6126022,8.3509331,18.7177734,-19.5419846,-86.1221390,42.4351158
7200,19.6126022,8.4802189,18.3299141,46.9236641,-41.2366409,-40.2519073
7210,19.1008434,7.7547798,17.0035343,112.3358765,-21.3893127,-111.5954208
7220,15.8375635,6.4786768,14.3699255,179.6564941,-29.7251911,-170.7404633
7230,13.0411501,5.1882086,10.9438400,239.3816833,-44.4809151,-218.5801544
7240,10.5009146,4.1682839,6.7587967,250.1297760,-55.1984749,-250.1374054
7250,8.7794924,3.4739690,2.8921809,250.1297760,-57.7251892,-250.1374054
7260,6.9862447,2.7413468,-0.9193687,250.1297760,-58.0610695,-250.1374054
7270,5.3390427,2.0302727,-3.3111639,250.1297760,-56.9465637,-250.1374054
7280,3.7493007,1.0366840,-5.1666608,250.1297760,-45.6183205,-250.1374054
7290,2.4013720,-0.0670373,-6.4188218,250.1297760,-26.0610695,-250.1374054
7300,-0.0263361,-1.2689204,-7.2974896,250.1297760,-4.0076337,-250.1374054
7310,-3.7516949,-1.4269369,-9.1290445,250.1297760,32.8473282,-250.1374054
7320,-9.5456333,-1.6448082,-13.1848011,233.3282471,108.4198456,-250.1374054
7330,-17.7481270,-1.4173602,-17.3052006,181.8320618,186.0686951,-250.1374054
7340,-19.6131992,-0.1891410,-19.6131992,119.9923630,216.0763397,-232.3206177
7350,-19.6131992,0.7182568,-19.6131992,58.2671738,199.0000000,-117.4274826
7360,-19.6131992,2.0542145,-19.6131992,5.0458016,163.4656525,-12.8778629
7370,-19.6131992,3.2704628,-19.6131992,-50.4045792,134.2213745,59.8473282
7380,-15.8112268,3.3375001,-19.6131992,-110.0610657,110.2824402,98.9389343
7390,-12.1289635,3.1315999,-17.3099899,-161.9618378,88.5725174,125.0457993
7400,-9.4426832,2.9161227,-14.5303354,-194.2519073,92.0381699,140.6259613
7410,-8.4036045,3.4643922,-12.0547438,-210.0000000,97.5419846,149.7404633
7420,-8.0325060,4.1251884,-10.0819321,-214.0076294,83.4580154,158.2671814
7430,-7.8984308,4.7644372,-8.8082228,-210.3358765,56.9083977,169.7328186
7440,-7.6614060,4.9248476,-8.2599535,-202.7709961,16.4122143,185.4885559
7450,-6.3254485,5.3270717,-7.9918046,-197.2519073,-26.0152664,206.1374054
7460,-4.2425036,5.6957769,-7.9606800,-199.6717529,-50.7786255,223.4580078
7470,-2.2409613,5.6143742,-7.9870162,-210.7175598,-59.3816795,238.0763397
7480,-0.1987177,5.0876527,-7.7332320,-228.3511505,-51.2824440,250.1297760
7490,1.4101776,4.6207857,-7.2160869,-249.7633514,-29.2824421,250.1297760
7500,2.3630650,3.8881636,-6.1075773,-250.1374054,-1.0076336,250.1297760
7510,3.3542595,2.9664006,-4.3693957,-250.1374054,25.5954189,250.1297760
7520,3.5673423,1.9033806,-1.7908537,-250.1374054,40.6488533,250.1297760
7530,4.9607606,1.0678085,1.6041069,-250.1374054,33.9541969,250.1297760
7540,7.4195933,1.4748207,5.9806852,-250.1374054,0.0839695,247.2748108
7550,11.0539722,3.0238612,11.1904411,-250.1374054,-59.3206100,215.9770966
7560,15.8447456,5.4300218,15.8327751,-187.7786255,-119.5267181,171.5877838
7570,19.6126022,8.1139078,19.6126022,-108.0916061,-146.7938995,101.1603088
7580,19.6126022,8.5233145,19.6126022,-23.2671757,-119.9465637,16.3816795
7590,19.6126022,8.5089493,19.6126022,57.4656487,-68.1832047,-71.0076370
7600,19.6126022,7.7380204,18.0234585,128.6564941,-44.7099228,-147.6030579
7610,17.4296989,6.2296810,14.8655224,197.0381622,-57.8167953,-214.2748108
7620,14.4369621,4.5393834,11.2790270,250.1297760,-85.1526718,-250.1374054
7630,11.3580351,3.2082138,6.9335728,250.1297760,-109.5877838,-250.1374054
7640,8.5520449,2.1380112,2.8131726,250.1297760,-128.7557220,-250.1374054
7650,6.3374195,1.6065011,-0.4908088,250.1297760,-139.7480927,-250.1374054
7660,4.4986820,1.0055596,-3.1076579,250.1297760,-135.1603088,-250.1374054
7670,2.4923513,0.1795642,-4.8410511,250.1297760,-117.0457993,-250.1374054
7680,0.0335187,-0.7206510,-6.3062949,250.1297760,-86.5572510,-250.1374054
7690,-3.2513094,-1.4149660,-7.5440907,250.1297760,-55.7404594,-250.1374054
7700,-7.1131368,-1.6448082,-8.8465300,249.7099304,-29.9618320,-250.1374054
7710,-12.7011747,-1.2090657,-10.7259684,222.8320618,-7.6641221,-250.1374054
7720,-19.1918221,-0.2130829,-12.8137016,188.7480927,5.3893127,-250.1374054
7730,-19.6131992,0.9552816,-15.9141769,144.6793823,7.6564884,-250.1374054
7740,-19.6131992,1.7956421,-18.2868195,90.9847336,-1.3511450,-168.2290039
7750,-19.6131992,2.3439114,-19.6131992,25.2213745,-6.7709923,-66.1755753
7760,-19.6131992,2.5426292,-19.6131992,-44.4274826,5.5419846,23.3435116
7770,-19.6131992,2.2385671,-18.7441101,-108.5267181,28.5267181,92.8854980
7780,-16.4049854,1.6974803,-16.1033192,-159.6412201,48.4503822,138.3816833
7790,-12.8376436,1.8195840,-12.9094696,-191.0686951,53.8931313,163.2595367
7800,-10.8193426,2.2601149,-9.8808203,-203.5877838,46.4732819,173.9389343
7810,-10.1513634,2.6192431,-7.7021074,-203.3129730,35.5190849,181.1526642
7820,-9.8999729,2.9448531,-6.1458845,-195.8167877,20.6259537,191.7022858
7830,-9.5121145,3.6726866,-5.4515696,-187.6488495,3.1908398,206.0152740
7840,-9.0308828,4.2113791,-5.3055239,-182.7633514,-9.0916033,223.5572510
7850,-8.3293848,4.1204000,-5.3534074,-184.3129730,-14.3206110,245.5496216
7860,-6.7611909,3.8091555,-5.4922705,-192.2519073,-13.2671757,250.1297760
7870,-4.6255741,3.5410061,-5.4755111,-205.6870270,-4.6793895,250.1297760
7880,-2.2481439,3.2800395,-5.0349803,-222.0152740,11.4274807,250.1297760
7890,-0.2561783,2.6383967,-4.4962878,-240.4885559,35.0610695,250.1297760
7900,1.6184721,2.1691356,-3.2776453,-250.1374054,55.2061081,250.1297760
7910,3.3853838,1.7860653,-1.5825592,-250.1374054,66.3358765,250.1297760
7920,5.1403246,1.1300575,0.6703730,-250.1374054,67.8320618,250.1297760
7930,7.3836803,0.9840119,4.1826491,-250.1374054,47.5419846,250.1297760
7940,10.8361015,2.1236460,9.1817169,-243.1374054,0.0610687,250.1297760
7950,15.0355101,4.0318151,14.4273853,-186.9694672,-58.1755714,220.4351196
7960,19.5365868,6.3685441,18.9140968,-112.7175598,-94.9083939,154.2595367
7970,19.6126022,7.5464849,19.6126022,-30.0916023,-91.0687027,76.6488571
7980,19.6126022,7.7715387,19.6126022,47.7404594,-51.4427490,0.6412213
7990,19.6126022,7.3334022,18.0234585,117.6412201,-11.9465647,-66.6412201
8000,17.8271351,6.4451580,14.2597923,180.2366486,-9.9007635,-125.0610657
8010,15.5167418,5.3174949,10.2519188,234.5725250,-25.6870232,-179.8702240
8020,12.9501705,4.5417776,5.9663200,250.1297760,-47.0228996,-227.4198456
8030,10.3955708,4.1706781,1.6950861,250.1297760,-64.1374054,-250.1374054
8040,8.1809454,3.9791429,-1.7740943,250.1297760,-73.7709961,-250.1374054
8050,6.6055689,3.8498566,-4.2233500,250.1297760,-79.4656525,-250.1374054
8060,5.1738434,3.2776453,-5.7412663,250.1297760,-76.0229034,-250.1374054
8070,3.2896163,2.2050486,-6.4954362,250.1297760,-63.6870232,-250.1374054
8080,1.3096216,1.3455344,-6.8809004,250.1297760,-50.7633591,-250.1374054
8090,-1.5059452,0.3734936,-7.2998838,246.1145020,-37.6183205,-250.1374054
8100,-5.6694407,-0.1460456,-8.2551651,233.4732819,-20.8473282,-250.1374054
8110,-11.0276365,0.0263361,-9.8520899,214.5801544,-2.9465649,-250.1374054
8120,-16.9436779,0.7086801,-11.8081427,187.4809113,8.8320608,-250.1374054
8130,-19.6131992,1.9081690,-13.8815107,151.5725250,11.3587790,-250.1374054
8140,-19.6131992,3.0908985,-16.3738613,106.6717529,0.2595420,-174.0381622
8150,-19.6131992,3.9288650,-18.9069138,53.1603050,-10.3664122,-76.0763321
8160,-19.6131992,4.1658897,-19.6131992,-16.5190830,3.7862597,15.4122133
8170,-19.6131992,3.9982965,-19.6131992,-94.7175598,45.5343513,89.0381699
8180,-17.8582592,3.0789278,-18.5022964,-169.2137451,95.4885483,145.5038147
8190,-14.8655224,2.5761478,-14.8966465,-223.1908417,129.8091583,185.0992432
8200,-13.0555153,2.4851687,-12.1122046,-250.1374054,151.1679382,212.7862549
8210,-11.5567522,2.4372849,-9.5456333,-250.1374054,161.1984711,231.8320618
8220,-10.4865494,2.5378408,-7.1873569,-250.1374054,158.6946564,247.7862549
8230,-9.4522600,2.5067163,-5.2767935,-250.1374054,148.7328186,250.1297760
8240,-8.3078375,2.5426292,-3.8953462,-250.1374054,128.4885559,250.1297760
8250,-6.2488346,2.3534882,-2.7437410,-250.1374054,102.4580154,250.1297760
8260,-3.7421181,2.1116750,-2.2457497,-250.1374054,81.7175598,250.1297760
8270,-0.4022238,1.1204807,-1.6639616,-250.1374054,63.5725174,250.1297760
8280,3.9671719,1.1013272,0.4477134,-250.1374054,26.8702297,250.1297760
8290,8.2719250,1.4796091,3.5505829,-250.1374054,-37.8091621,250.1297760
8300,12.9238348,2.9161227,6.9479380,-208.3206177,-117.9770966,244.5419922
8310,17.0490227,5.6095858,10.2184010,-149.9923706,-185.3511505,191.2366486
8320,19.6126022,8.1019373,13.2853575,-90.1221390,-210.0686951,120.3511429
8330,19.6126022,9.8137827,15.1073351,-31.0992374,-188.1526642,40.7480927
8340,19.6126022,10.3931761,15.6244802,24.5343513,-130.4045868,-41.8244286
8350,19.6126022,9.7251978,15.0211449,82.0457993,-73.5648880,-122.9847336
8360,17.2429523,8.2527714,13.1608591,142.4580078,-54.1908379,-189.9618378
8370,12.7897596,6.5169835,10.4195127,198.8015289,-62.6259537,-241.7251892
8380,9.0859489,5.2576399,7.0676475,243.8091583,-80.7862625,-250.1374054
8390,6.5912037,4.1754665,3.3422885,250.1297760,-91.6488571,-250.1374054
8400,4.9224534,3.4596038,-0.2130829,250.1297760,-93.7938919,-250.1374054
8410,3.3973548,2.7030399,-2.7221935,250.1297760,-96.3587799,-250.1374054
8420,2.2265961,2.1619530,-4.2879934,250.1297760,-97.3816757,-250.1374054
8430,0.8954269,1.2880739,-5.5018473,250.1297760,-84.5267181,-250.1374054
8440,-0.6703730,0.5913648,-6.7731619,239.8320618,-60.0839691,-250.1374054
8450,-2.4684093,0.0646431,-8.3772688,219.1221313,-28.4503822,-250.1374054
8460,-4.9272418,-0.1268920,-9.9933472,193.7099304,1.3511450,-250.1374054
8470,-8.2551651,-0.1867468,-11.5136566,164.9389343,26.5496178,-250.1374054
8480,-13.1441002,0.0909792,-12.6628675,134.8549652,45.7175560,-250.1374054
8490,-18.9236736,0.6775556,-13.7378588,101.8931274,46.0534363,-250.1374054
8500,-19.6131992,1.0965388,-15.4664640,66.4503784,24.4732819,-203.6030579
8510,-19.6131992,1.6184721,-17.2285881,23.8778629,-4.7938933,-117.6870193
8520,-19.6131992,1.8124014,-18.6028519,-32.1450386,-12.1832066,-29.7786255
8530,-19.6131992,1.6112895,-18.1311970,-97.5343475,8.5038166,44.1297722
8540,-18.9117031,1.3575054,-15.6029329,-155.7251892,37.2366409,101.4885483
8550,-16.0171280,1.2521610,-13.2805691,-196.5114441,60.8473282,142.6412201
8560,-14.8248215,1.3790531,-11.1904411,-224.1908417,75.1908417,173.7480927
8570,-14.0203733,1.4149660,-9.0859489,-240.0458069,71.0381699,202.3129730
8580,-12.8424320,1.5610116,-7.5273318,-246.2595367,56.6183205,229.7404633
8590,-11.6644907,1.8554969,-6.4523406,-246.4427490,37.7557259,250.1297760
8600,-10.2878323,2.1547706,-5.6574697,-245.0000000,23.3206100,250.1297760
8610,-8.6310530,2.0853391,-5.2097564,-248.1374054,21.1374054,250.1297760
8620,-6.6438756,1.7238164,-4.4364328,-250.1374054,25.2977104,250.1297760
8630,-4.1323709,1.0702027,-3.7133877,-250.1374054,32.1145020,250.1297760
8640,-1.0558375,0.6272776,-3.2560976,-250.1374054,48.4656487,250.1297760
8650,1.1276633,-0.1005560,-2.4396791,-250.1374054,69.4732819,250.1297760
8660,3.6607156,-0.6823440,-0.3136388,-250.1374054,74.4198456,250.1297760
8670,6.2919297,-1.1252691,2.7652888,-250.1374054,62.7557259,250.1297760
8680,10.1274214,-0.4165890,7.1610208,-250.1374054,21.5877857,250.1297760
8690,15.9189653,2.2361729,13.9461536,-245.4045868,-46.3664131,250.1297760
8700,19.6126022,5.2887645,19.2085819,-167.4885559,-98.7480927,175.7251892
8710,19.6126022,7.5919747,19.6126022,-74.1908417,-103.6564865,74.7786255
8720,19.6126022,7.9127960,19.6126022,19.6335869,-73.8167953,-24.9160309
8730,19.6126022,7.2376347,19.6126022,103.1068726,-39.4351158,-109.5114517
8740,15.5167418,6.4930420,16.3738613,172.4122162,-42.8854980,-170.7099304
8750,11.9230633,5.3965030,13.3595772,234.1908417,-62.0305328,-216.9923706
8760,8.9973640,4.4771342,9.7539282,250.1297760,-81.1374054,-249.8320618
8770,7.3645267,3.8618276,5.7652082,250.1297760,-91.8091583,-250.1374054
8780,5.8490047,3.2273674,1.4772149,250.1297760,-93.6641235,-250.1374054
8790,4.3382711,2.6144550,-2.2888451,250.1297760,-95.5725174,-250.1374054
8800,3.1435707,2.2218077,-5.0301919,250.1297760,-99.3587799,-250.1374054
8810,1.9105632,1.3263810,-6.5935979,250.1297760,-94.3511429,-250.1374054
8820,0.4094064,0.3543400,-7.5895805,250.1297760,-72.8702316,-250.1374054
8830,-1.6639616,-0.3256098,-8.4490948,250.1297760,-43.5038185,-250.1374054
8840,-5.2504573,-0.9600700,-9.6150646,243.7480927,-5.9465647,-250.1374054
8850,-10.5392218,-0.9648584,-11.0946741,217.3053436,27.7709923,-250.1374054
8860,-16.9436779,-0.3327923,-12.2678270,186.9541931,41.2290077,-250.1374054
8870,-19.6131992,0.6392486,-14.1281118,153.0152740,32.7480927,-250.1374054
8880,-19.6131992,1.7333932,-16.2661228,113.7404556,4.5572519,-167.2748108
8890,-19.6131992,2.6958573,-18.3418846,61.0458031,-15.6259546,-72.2519073
8900,-19.6131992,3.0789278,-19.2636490,-6.7022901,-2.6183207,11.0763359
8910,-19.6131992,2.8826041,-18.2173882,-76.4351120,39.7557259,75.5038147
8920,-16.4528694,2.5282640,-15.7561607,-133.3511505,88.9923630,120.7099228
8930,-13.4792862,2.3798244,-12.6700506,-168.6946564,116.6412201,148.6717529
8940,-11.4370432,2.6814921,-10.4961262,-184.1832123,118.0000000,163.8015289
8950,-10.3333216,3.2656744,-9.2200232,-185.7938995,99.4580154,172.1145020
8960,-10.2351599,3.7469065,-8.7627335,-183.4580078,69.4961853,181.1984711
8970,-10.5559816,4.1299767,-9.0404596,-184.2290039,44.1908379,198.1908417
8980,-10.5775290,4.2951760,-9.4690189,-195.4351196,33.4961815,223.6412201
8990,-9.5049324,4.1323709,-9.2774839,-216.2748108,31.6870232,250.1297760
9000,-7.7691450,3.8187323,-8.4514885,-240.6412201,42.1374054,250.1297760
9010,-6.0644817,3.1268115,-6.9000540,-250.1374054,63.2442741,250.1297760
9020,-4.5178356,2.4253139,-5.2815819,-250.1374054,87.0000000,250.1297760
9030,-2.5809362,1.5418580,-3.7277529,-250.1374054,109.4732819,250.1297760
9040,-0.5147507,0.6440369,-2.4157372,-250.1374054,130.4351196,250.1297760
9050,1.7405758,-0.0454896,-0.7972651,-250.1374054,146.6030579,250.1297760
9060,3.7732425,-0.8786675,1.5442522,-250.1374054,150.6793823,250.1297760
9070,6.3134775,-1.2497669,5.3821378,-250.1374054,123.2061081,250.1297760
9080,10.2830439,0.0383070,11.3819771,-250.1374054,53.7404594,250.1297760
9090,14.7098999,2.1643472,16.6779232,-236.0305328,-32.8854980,243.8091583
9100,19.6126022,5.2696109,19.6126022,-139.5267181,-101.3206100,165.2748108
9110,19.6126022,6.5888095,19.6126022,-25.3587780,-124.6412201,77.8931274
9120,19.6126022,6.7707677,19.6126022,80.9007645,-116.3587799,-3.6488550
9130,19.6126022,6.4786768,19.6126022,171.3358765,-99.6335907,-73.0610657
9140,17.4871597,5.7316895,14.9205885,239.5496216,-95.5877838,-130.2442780
9150,15.0570574,4.9440012,9.7682934,250.1297760,-101.6412201,-181.4045868
9160,12.9884777,4.6495161,5.4395986,250.1297760,-111.6106873,-225.0915985
9170,11.3963413,4.2425036,1.3694763,250.1297760,-118.1145020,-250.1374054
9180,9.3900108,4.0461802,-2.4731977,250.1297760,-114.0839691,-250.1374054
9190,7.1777802,3.6391680,-5.2313042,250.1297760,-109.9083939,-250.1374054
9200,5.5473371,3.3638363,-6.7180958,250.1297760,-112.0000000,-250.1374054
9210,4.0629396,2.4037662,-7.0269461,250.1297760,-104.8549652,-250.1374054
9220,2.4612267,1.2593436,-6.6773944,250.1297760,-91.0534363,-250.1374054
9230,-0.3208214,0.1125269,-7.0508881,250.1297760,-74.6030502,-250.1374054
9240,-4.5824785,-0.7445929,-8.1689749,250.1297760,-61.8473282,-250.1374054
9250,-10.1274214,-0.8666966,-9.8425131,235.9770966,-54.9847336,-250.1374054
9260,-16.4217453,-0.2825144,-12.2390966,211.9313049,-52.1068687,-250.1374054
9270,-19.6131992,0.7781116,-14.8008795,176.5190887,-73.2442780,-250.1374054
9280,-19.6131992,2.5306582,-16.7521439,128.8015289,-110.9542007,-186.0076294
9290,-19.6131992,3.5984666,-18.6339760,68.1832047,-108.0610657,-103.7022934
9300,-19.6131992,3.3925664,-19.6131992,-6.5877862,-51.9618340,-30.7251911
9310,-19.6131992,2.8203552,-18.5741215,-82.7938919,13.0305347,30.9847336
9320,-16.8287582,2.2888451,-15.4305506,-141.8244324,58.3435097,79.5114517
9330,-14.7482071,1.6879035,-12.7514534,-176.4732819,72.6106873,110.7633591
9340,-13.0531206,1.6543850,-10.0819321,-191.4427490,46.3816795,131.4580078
9350,-11.6525202,2.0470319,-8.1402445,-190.4503784,4.1679387,148.0076294
9360,-10.8289185,2.3750360,-7.4650826,-185.0152740,-18.3358784,162.9541931
9370,-11.5998478,2.5593886,-6.8569584,-182.8931274,-30.0534344,180.5877838
9380,-11.0013008,3.0262554,-5.7077475,-180.3282471,-52.9694672,206.2442780
9390,-9.7706871,3.4691806,-4.9032998,-176.5572510,-66.2061081,231.2900696
9400,-8.5089493,3.5362179,-4.5226240,-173.5190887,-62.7099228,250.1297760
9410,-7.0389171,3.3734128,-4.3478479,-174.0686951,-50.6335869,250.1297760
9420,-5.4563580,3.1315999,-4.4220681,-178.3969421,-38.4274826,250.1297760
9430,-2.9137285,2.9879484,-4.5920553,-187.3282471,-19.4809170,250.1297760
9440,-0.1604107,2.9089401,-4.6207857,-203.2977142,13.4656487,250.1297760
9450,2.1068866,2.5593886,-4.2377152,-225.3664093,59.5190849,250.1297760
9460,3.7301471,1.9919657,-2.9903426,-250.1374054,105.1984711,250.1297760
9470,5.7580256,1.8961980,-0.1316804,-250.1374054,135.4427490,250.1297760
9480,8.2336178,1.7453641,4.4675574,-250.1374054,142.9694672,250.1297760
9490,11.3604288,2.1523764,9.3157911,-250.1374054,131.8778687,250.1297760
9500,15.9237537,3.3398943,14.6476507,-218.6870270,96.7633591,238.8244324
9510,19.6126022,5.0804701,19.5054607,-144.9084015,45.5190849,165.1221313
9520,19.6126022,6.4283986,19.6126022,-49.0687027,-1.4961832,76.6335907
9530,19.6126022,6.8401995,19.6126022,50.6488533,-35.7022896,-17.5419846
9540,19.6126022,6.2775645,18.9404335,142.6641235,-69.5801544,-102.4580154
9550,19.2492828,5.7173243,14.6596222,217.3969421,-104.8167953,-172.3740387
9560,16.3355541,4.8218975,10.2327662,250.1297760,-135.8778687,-228.2595367
9570,13.6971579,4.3310885,6.3805151,250.1297760,-149.6488495,-250.1374054
9580,11.1880474,3.8714044,2.9759774,250.1297760,-141.9313049,-250.1374054
9590,8.8465300,3.1746953,0.1101327,250.1297760,-120.8167953,-250.1374054
9600,6.4212160,2.3032103,-2.9855542,250.1297760,-95.6030502,-250.1374054
9610,4.4819226,1.3431402,-4.7788019,250.1297760,-73.2061081,-250.1374054
9620,2.2098370,0.0933734,-5.5066357,250.1297760,-59.7175560,-250.1374054
9630,-0.8259954,-1.7166338,-6.4307928,250.1297760,-46.8702278,-250.1374054
9640,-5.5569139,-2.7509236,-7.3908629,250.1297760,-44.8091621,-250.1374054
9650,-11.3173332,-2.7748656,-8.7603388,249.5343475,-62.0152664,-250.1374054
9660,-18.3227310,-1.9536586,-11.2024126,234.9770966,-84.4580154,-250.1374054
9670,-19.6131992,0.1101327,-15.0283270,203.2824402,-109.4045792,-250.1374054
9680,-19.6131992,1.7453641,-19.6131992,142.9694672,-111.4198456,-200.9541931
9690,-19.6131992,2.5115047,-19.6131992,51.6870232,-81.3893127,-87.3816757
9700,-19.6131992,2.2457497,-19.6131992,-53.3587799,-12.5954199,21.5725193
9710,-19.6131992,1.5322813,-19.4072990,-149.6335907,74.1374054,117.7480927
9720,-19.6131992,0.4884146,-14.1568422,-214.3129730,143.2290039,189.1526642
9730,-19.5485573,0.2968795,-9.3708572,-246.7022858,169.8244324,237.2900696
9740,-16.3618908,0.8259954,-5.9375896,-250.1374054,159.0076294,250.1297760
9750,-13.9485474,1.3431402,-3.9049230,-236.7709961,127.4885483,250.1297760
9760,-11.9709473,1.7908537,-3.2489152,-214.4961853,90.9847336,250.1297760
9770,-9.4259243,2.0853391,-3.4859397,-194.3053436,61.7404594,250.1297760
9780,-6.5912037,2.4827745,-4.2257442,-183.5572510,45.5801544,250.1297760
9790,-3.6152260,2.8347204,-4.9751258,-185.7251892,40.1297722,250.1297760
9800,-0.9121862,2.8035958,-5.6622581,-197.9389343,45.4427490,250.1297760
9810,1.5969244,2.5857246,-5.7173243,-217.3435059,58.2824440,250.1297760
9820,3.6631098,2.2050486,-4.6997938,-240.1145020,71.4580154,250.1297760
9830,5.7676024,1.9153515,-2.8107784,-250.1374054,81.5419846,250.1297760
9840,8.5161324,1.6352314,-0.0694315,-250.1374054,80.5038147,250.1297760
9850,12.3899307,2.3032103,4.0102673,-250.1374054,60.9007645,250.1297760
9860,16.4935703,3.6559272,8.1737623,-247.4885559,27.1832066,232.8396912
9870,19.6126022,5.0230093,12.3875360,-205.7175598,-3.2366412,166.7633514
9880,19.6126022,6.1865854,15.9931860,-144.5877838,-22.6335869,90.7099228
9890,19.6126022,6.7971039,17.9899387,-71.2442780,-28.3969460,13.8396950
9900,19.6126022,6.7492199,18.0043049,6.8931298,-25.2442741,-54.8320618
9910,17.1998577,6.4020624,16.2924595,78.8931274,-33.4503822,-109.3664093
9920,14.2143030,6.0070214,14.0227680,139.3893127,-57.1374054,-148.6641235
9930,12.1193867,5.4611464,11.2431135,188.1374054,-78.6870193,-177.9618378
9940,10.5727406,5.2336984,8.3150196,223.6488495,-86.1832047,-204.0534363
9950,9.0763721,4.8410511,5.4515696,246.7404633,-83.2213745,-227.9770966
9960,7.4315639,4.5537481,2.6934631,250.1297760,-73.9083939,-248.1297760
9970,6.0142040,4.3119354,-0.0814024,250.1297760,-63.1450386,-250.1374054
9980,4.8673873,4.0174499,-2.5976956,250.1297760,-48.4274826,-250.1374054
9990,3.6224086,3.6631098,-4.1036406,245.9694672,-37.1374054,-250.1374054
