timestamp,acclX,acclY,acclZ,gyroX,gyroY,gyroZ
0,6.9239960,2.2553265,7.1035600,-1.4961832,0.2748092,0.3129771
10,6.9814563,2.2577207,7.2160869,-1.5877863,0.8167939,0.5877863
20,6.9742737,2.2601149,7.1538382,-1.2137405,0.9541985,0.8167939
30,6.9359670,2.2912393,7.1729918,-1.0229008,0.9618320,0.6106870
40,6.9120250,2.2768741,7.2591825,-0.7175573,0.8396947,0.6259542
50,6.8856888,2.2433555,7.1442614,-0.5954198,0.6564885,0.5267175
60,6.9024482,2.2265961,7.2496057,-0.6564885,0.4351145,0.3511450
70,6.8713236,2.1571648,7.2208753,-0.3282443,0.2137405,0.7862595
80,6.8401995,2.1978660,7.1825686,-0.1908397,-0.0992366,0.6870229
90,6.8785062,2.2672975,7.1969333,0.0687023,-0.5572519,0.6870229
100,6.9216018,2.1811066,7.1705976,0.3206107,-0.6488550,0.6793893
110,6.9575148,2.2625091,7.1490498,0.0839695,-0.8320611,0.3282443
120,6.9551206,2.2840567,7.0484939,0.0152672,-0.9923664,0.0763359
130,6.9718795,2.2768741,7.0197635,-0.3206107,-0.5954198,0.1832061
140,6.9718795,2.2385671,7.1155310,-0.6259542,-0.1068702,0.3358779
150,6.9599090,2.2840567,7.0365229,-1.2290076,-0.1526718,0.4503817
160,6.9311786,2.3175755,7.1035600,-1.3053435,0.5419847,0.5496183
170,6.9646969,2.2433555,7.1275020,-1.5267175,0.9618320,0.6946565
180,6.9886389,2.2505381,7.1370788,-1.3435115,0.9083970,0.6870229
190,6.8785062,2.2218077,7.1873569,-1.0763359,0.8091603,0.3053435
200,6.9383612,2.2481439,7.1514440,-0.6946565,0.3969466,0.3740458
210,6.9072366,2.2625091,7.1705976,-0.6030535,0.2519084,0.4885496
220,6.8809004,2.2768741,7.1179252,-0.6641222,0.0916031,0.0076336
230,6.8521700,2.2625091,7.1059542,-0.4656489,0.0076336,0.4198473
240,6.9886389,2.2529323,7.1753860,-0.5190840,-0.4351145,0.4045801
250,6.9216018,2.2313845,7.1729918,-0.4198473,-0.1526718,0.3664122
260,6.9814563,2.2888451,7.0963774,-0.4427481,-0.3587786,0.3129771
270,6.9814563,2.2625091,7.0796180,-0.5190840,-0.4351145,0.3740458
280,6.9503322,2.2864509,7.1011658,-0.6488550,0.0687023,0.1374046
290,6.9838505,2.2361729,7.0197635,-0.5877863,0.6717557,0.2977099
300,6.9575148,2.2505381,7.0844064,-0.9389313,0.6106870,0.3587786
310,6.9096308,2.3175755,7.2256637,-1.0229008,0.7938932,0.1526718
320,6.9048424,2.2672975,7.1466556,-1.2061069,0.7480916,0.1832061
330,6.9503322,2.2744799,7.1131368,-0.9465649,0.7557252,0.1450382
340,6.8856888,2.2481439,7.2232695,-0.9007633,0.2900763,0.1679389
350,6.8904772,2.2744799,7.2112985,-0.8244275,-0.0229008,0.2137405
360,6.9503322,2.2409613,7.0772243,-0.9541985,0.2137405,0.1221374
370,6.9263902,2.2385671,7.1107426,-1.1297710,0.2671756,-0.0458015
380,6.8545642,2.2601149,7.1322904,-1.0839695,0.4045801,-0.1755725
390,6.8545642,2.2577207,7.1586266,-0.6870229,0.3587786,0.0305344
400,6.8928714,2.2553265,7.2448173,-0.9618320,0.3816794,0.1832061
410,6.9239960,2.2529323,7.1705976,-1.0000000,0.7404580,0.2366412
420,6.8785062,2.2744799,7.2448173,-0.5038168,0.2977099,0.0000000
430,6.9670911,2.2313845,7.2256637,-0.1984733,0.0992366,-0.0152672
440,6.9239960,2.2433555,7.1203194,-0.1603053,-0.5648855,0.0839695
450,6.9527264,2.2457497,7.1466556,-0.4198473,-0.6793893,0.4809160
460,6.9192076,2.2577207,7.1729918,-0.1908397,-0.4351145,0.1755725
470,6.9311786,2.3271523,7.1107426,-0.1908397,-0.7557252,0.1755725
480,6.9144192,2.2768741,7.0772243,-0.4045801,-0.4885496,0.1603053
490,6.9790621,2.2960277,7.1155310,-0.4961832,-0.0610687,0.0305344
500,6.9048424,2.2672975,7.1035600,-0.5572519,0.1679389,0.2595420
510,6.9048424,2.2481439,7.1514440,-0.4351145,-0.0152672,0.2366412
520,6.9072366,2.2553265,7.1418672,-0.0305344,-0.0458015,0.0763359
530,6.9072366,2.2361729,7.1562324,0.0000000,0.0152672,0.0152672
540,6.9216018,2.3606708,7.2112985,0.3053435,-0.2137405,0.0152672
550,6.9311786,2.2960277,7.2472115,0.3358779,-0.5496183,0.2671756
560,6.9383612,2.2888451,7.1777802,0.5419847,-0.7251908,-0.0152672
570,6.9263902,2.3199697,6.9982157,0.4580153,-0.5648855,-0.0305344
580,6.8976598,2.2984219,7.0700417,0.1374046,-0.9312977,-0.1603053
590,6.9192076,2.2792683,7.1562324,-1.3511450,0.2061069,-0.3664122
600,6.9096308,2.2649033,7.0939832,-1.0152671,0.5114504,-0.3893130
610,6.8378053,2.3702476,7.1179252,-1.2748091,0.6488550,-0.4885496
620,6.8473821,2.3415172,7.1179252,-1.1603054,0.6870229,-0.0992366
630,6.8665352,2.2481439,7.1586266,-0.9007633,0.5190840,0.0687023
640,6.9096308,2.2888451,7.1682034,-0.9465649,0.5419847,0.1450382
650,6.9359670,2.3199697,7.1131368,-1.1679389,0.3740458,0.2595420
660,6.9359670,2.2122312,7.1011658,-1.1450381,0.2137405,-0.0229008
670,6.8952656,2.2313845,7.1873569,-0.8625954,0.1526718,-0.3358779
680,6.9599090,2.2864509,7.0173693,-1.5038168,0.1221374,-0.4274809
690,6.9096308,2.3702476,7.0724359,-2.0305343,0.3511450,-0.6641222
700,6.8545642,2.2744799,7.0891948,-2.4045801,0.4122137,-0.6870229
710,6.9096308,2.3319404,7.1705976,-2.9083970,0.2748092,-0.4503817
720,6.9287844,2.3247581,7.1945391,-2.8549619,0.8091603,-0.3816794
730,6.8378053,2.2696917,7.0580707,-3.2824428,1.1603054,-0.1755725
740,6.8952656,2.2361729,7.0676475,-3.8091602,1.9541985,0.0381679
750,7.0125809,2.1739240,6.9431496,-4.6106873,2.5725191,0.0305344
760,7.0748301,2.2649033,6.9096308,-5.1603055,3.5038168,-0.4885496
770,6.9910331,2.2242019,7.0389171,-6.1984735,5.7557254,-1.1221374
780,6.7372489,2.1380112,7.2496057,-6.1755724,6.2442746,-1.6488550
790,6.2919297,2.0757623,7.0437055,-5.8473282,5.5038166,0.1908397
800,6.3493905,2.2984219,7.0556765,-7.6717558,4.4885497,1.7938931
810,6.5600791,2.4301023,7.0221577,-8.4809160,3.2900763,3.3664122
820,6.7731619,2.6216373,6.4810710,-11.0458012,3.8778627,2.4503818
830,6.6630292,3.2177906,5.8178802,-17.0763359,0.3664122,1.3282443
840,6.2440462,4.2185616,4.6279683,-41.3435097,3.7709923,2.9312978
850,6.0716643,5.5497313,4.0030847,-80.0534363,10.0458012,40.6183205
860,8.1139078,5.4348102,4.4986820,-101.6030502,17.9923668,68.6717529
870,12.6700506,5.7484488,5.5090299,-132.2213745,41.6106873,90.0687027
880,19.2157650,5.0062504,8.2503767,-166.5114441,98.4122162,91.9770966
890,19.6126022,3.1746953,13.1177645,-185.0992432,155.0381622,63.1908379
900,19.6126022,0.9864060,18.4591999,-180.8396912,159.1755676,-3.8167939
910,19.6126022,-0.7206510,19.6126022,-145.8549652,74.8091583,-116.3587799
920,19.6126022,-2.0709739,19.6126022,-79.0076370,-54.5267181,-250.1374054
930,19.6126022,-3.9049230,19.6126022,14.0992365,-201.5877838,-250.1374054
940,19.6126022,-6.1841912,19.6126022,107.5725174,-250.1374054,-250.1374054
950,19.6126022,-8.6717539,19.6126022,181.4885559,-250.1374054,-250.1374054
960,15.7968616,-10.9534168,19.6126022,226.8015289,-250.1374054,-250.1374054
970,11.5806942,-12.2151546,19.6126022,238.9084015,-250.1374054,-250.1374054
980,8.0372944,-12.9142580,17.4368820,228.8702240,-250.1374054,-250.1374054
990,5.9543490,-13.8264437,17.0178986,215.2748108,-250.1374054,-250.1374054
1000,4.5705075,-14.0898046,17.6595421,207.5496216,-250.1374054,-250.1374054
1010,2.8490853,-14.6117382,17.6116581,203.5801544,-250.1374054,-250.1374054
1020,1.2258250,-14.0754395,17.4392757,198.7938995,-250.1374054,-250.1374054
1030,0.6296718,-13.7641954,16.8191814,188.3206177,-250.1374054,-250.1374054
1040,0.6464311,-13.1225519,17.4344883,188.8473358,-250.1374054,-250.1374054
1050,-0.4094064,-12.7346935,16.9748039,201.8320618,-198.2900696,-250.1374054
1060,-1.7573351,-12.3851423,15.5023766,220.5267181,-119.9007645,-250.1374054
1070,-2.9496415,-11.7937775,12.8687687,241.4961853,-52.6030540,-250.1374054
1080,-4.7788019,-11.2718439,9.0763721,250.1297760,-1.7709924,-250.1374054
1090,-6.4188218,-9.9143381,4.0940638,250.1297760,17.8931293,-250.1374054
1100,-7.4004397,-8.0995426,-1.6543850,250.1297760,7.9770994,-250.1374054
1110,-8.9015961,-5.9471664,-6.9192076,250.1297760,-44.2137413,-250.1374054
1120,-13.1680422,-4.3670015,-12.6101961,250.1297760,-132.0381622,-250.1374054
1130,-18.8781834,-2.3702476,-16.4169579,250.1297760,-233.5114441,-250.1374054
1140,-19.6131992,-0.0143651,-17.7241840,210.8931274,-250.1374054,-250.1374054
1150,-19.6131992,2.0206959,-16.7832680,163.5343475,-250.1374054,-250.1374054
1160,-19.6131992,3.8259149,-16.0602226,131.5267181,-250.1374054,-246.3893127
1170,-19.6131992,5.2600341,-16.9532547,101.6793900,-248.6793823,-168.0458069
1180,-19.6131992,6.3972740,-17.9205074,61.0763359,-191.8778687,-62.8167953
1190,-19.6131992,6.5648675,-18.4639893,13.1374044,-123.3969498,58.1984749
1200,-19.6131992,6.0692701,-18.7058029,-37.5496178,-64.4732819,176.8549652
1210,-19.6131992,5.2193332,-17.6786957,-87.8091583,-15.3358774,250.1297760
1220,-19.6131992,4.0892754,-15.7896795,-134.7633514,24.1908398,250.1297760
1230,-18.3634338,2.2888451,-12.9789009,-170.4503784,49.0763359,250.1297760
1240,-14.0778341,0.5506636,-10.1010857,-192.8015289,63.5190849,250.1297760
1250,-10.0986910,-1.1827296,-7.4028339,-205.2900696,72.9236679,250.1297760
1260,-5.7819676,-2.3726418,-5.3558016,-210.8473358,75.1755753,250.1297760
1270,-1.0630201,-3.2225790,-3.6343796,-211.8931274,68.9618301,250.1297760
1280,4.1204000,-3.9504125,-2.2050486,-208.3893127,53.7328262,250.1297760
1290,9.9047613,-4.5298066,-1.3191984,-203.0992432,35.1526718,250.1297760
1300,16.4265347,-4.1922259,-0.3615226,-198.3206177,17.7938938,250.1297760
1310,19.6126022,-3.1507533,1.5155219,-194.9847260,-1.0152671,250.1297760
1320,19.6126022,-2.1954718,4.6926112,-190.0992432,-17.9312973,250.1297760
1330,19.6126022,-1.5514348,8.8896255,-173.4274750,-35.4351158,197.5496216
1340,19.6126022,-1.6567791,12.4186611,-142.1145020,-60.9236641,90.8396912
1350,19.6126022,-2.1092808,15.2940826,-102.3740463,-91.4274826,0.0687023
1360,19.6126022,-2.0374553,17.6475697,-56.7633591,-112.8931274,-74.2748108
1370,19.6126022,-2.0039365,19.2349186,-8.6335878,-106.5038147,-131.9160309
1380,19.6126022,-2.2840567,19.3426571,43.1832047,-72.1221390,-178.4580078
1390,19.6126022,-2.6527619,17.8606529,94.5725174,-29.3816795,-215.2671814
1400,19.6126022,-3.0094962,15.0977583,142.5801544,2.4732823,-245.4961853
1410,17.7696743,-3.1842721,11.4657736,182.1908417,29.4198475,-250.1374054
1420,15.4281569,-3.7732425,6.6893654,209.4351196,55.0305328,-250.1374054
1430,13.5678720,-3.6271970,2.1044924,226.5877838,84.7557220,-250.1374054
1440,11.2574787,-3.9815371,-2.0805507,229.2824402,114.7480927,-250.1374054
1450,9.8401184,-4.0605454,-4.7788019,225.0915985,138.4503784,-250.1374054
1460,8.5496502,-4.3478479,-6.3398137,220.5419922,152.8473358,-250.1374054
1470,6.7085190,-5.0924411,-7.5033898,220.1832123,155.3206177,-250.1374054
1480,3.8330972,-6.3254485,-9.3373384,224.6641235,138.8396912,-250.1374054
1490,-2.6096666,-7.8002691,-12.1265697,230.1984711,92.2137375,-250.1374054
1500,-11.4538021,-7.8122401,-14.3986549,233.9770966,-0.5648855,-250.1374054
1510,-19.6131992,-5.8585815,-16.5821552,230.3664093,-106.9389343,-250.1374054
1520,-19.6131992,-2.9807658,-18.9739513,201.2977142,-182.6183167,-250.1374054
1530,-19.6131992,0.1532281,-19.6131992,142.7404633,-222.3435059,-250.1374054
1540,-19.6131992,2.5210814,-19.6131992,73.6488571,-208.8931274,-250.1374054
1550,-19.6131992,3.9240766,-19.1750641,-0.4427481,-109.7862625,-191.5496216
1560,-19.6131992,3.7229645,-16.1464138,-74.6259537,21.3358784,-31.5572510
1570,-19.6131992,3.2034254,-10.6158361,-120.8625946,97.3129807,101.3435135
1580,-19.6131992,1.5155219,-5.4084740,-121.4656525,83.3587799,194.2366486
1590,-19.6131992,1.9081690,-3.7756367,-91.4045792,21.8931293,250.1297760
1600,-19.6131992,2.2313845,-4.6040263,-58.8625946,-41.7099228,250.1297760
1610,-19.6131992,1.7884595,-6.9455438,-38.5190849,-84.8778610,250.1297760
1620,-19.6131992,0.9265513,-9.6174593,-37.7786255,-93.0610657,250.1297760
1630,-18.1551380,0.2011119,-12.1026278,-55.1068687,-69.0916061,250.1297760
1640,-14.1376886,-1.0582317,-14.3100700,-90.3435135,-24.7709923,250.1297760
1650,-10.2447367,-2.5354466,-15.0187502,-137.8625946,37.2748108,250.1297760
1660,-6.9862447,-4.6303625,-14.1472654,-194.3893127,105.2137375,250.1297760
1670,-3.0406206,-7.0006099,-12.1002331,-249.7862549,156.4809113,250.1297760
1680,1.8578910,-9.0763721,-9.0452480,-250.1374054,170.0229034,250.1297760
1690,8.4754305,-10.2495251,-5.3893204,-250.1374054,140.4045868,250.1297760
1700,16.7593269,-10.2902260,-0.0718257,-250.1374054,80.3282471,250.1297760
1710,19.6126022,-9.0308828,6.7013364,-250.1374054,9.4809160,250.1297760
1720,19.6126022,-6.9168134,12.6125898,-250.1374054,-43.2824440,250.1297760
1730,19.6126022,-5.6766233,17.0011387,-198.7251892,-70.5343475,168.7862549
1740,19.6126022,-5.8753409,18.7800217,-133.4656525,-88.4274826,33.3053436
1750,19.6126022,-5.9280128,19.3187141,-75.0000000,-116.0992355,-65.2900772
1760,19.6126022,-5.5257893,19.6126022,-22.8015270,-135.6793823,-129.8702240
1770,19.6126022,-5.3510137,19.6126022,24.3129768,-116.4198456,-172.4885559
1780,19.6126022,-5.2408805,19.6126022,68.4809189,-59.0381660,-202.1679382
1790,19.6126022,-5.1906028,18.5597572,113.6488571,12.3969469,-226.2213745
1800,19.6126022,-5.5497313,16.2134514,162.5419922,66.2519073,-250.1374054
1810,17.0538120,-5.8897061,12.5527353,209.1526642,96.0305328,-250.1374054
1820,14.0921993,-6.4068508,8.3054428,250.0915985,110.2671738,-250.1374054
1830,11.8129311,-6.1865854,3.6224086,250.1297760,116.4045792,-250.1374054
1840,9.7156210,-6.0094156,-0.8188128,250.1297760,122.9770966,-250.1374054
1850,8.5304966,-5.5712790,-4.2999644,250.1297760,123.2213745,-250.1374054
1860,6.4403696,-6.1291251,-8.2719250,250.1297760,116.9389343,-250.1374054
1870,2.2601149,-7.2352405,-12.6652622,250.1297760,89.9465637,-250.1374054
1880,-5.8897061,-8.5855637,-15.5526543,250.1297760,27.8244267,-250.1374054
1890,-18.4496231,-8.6334467,-17.1735210,250.1297760,-65.8396912,-250.1374054
1900,-19.6131992,-5.2456689,-18.3466740,250.1297760,-171.7022858,-250.1374054
1910,-19.6131992,0.2992737,-19.1678810,214.6106873,-240.5496216,-250.1374054
1920,-19.6131992,4.2640514,-19.6131992,142.7557220,-211.9694672,-250.1374054
1930,-19.6131992,6.4691000,-19.6131992,61.7938919,-88.7786255,-170.0610657
1940,-19.6131992,5.9926562,-19.6131992,-25.8702297,64.7938919,-15.7099237
1950,-19.6131992,4.8338685,-15.7753143,-94.2900772,157.3053436,104.8702316
1960,-19.6131992,4.0581512,-10.8480721,-120.1603088,159.3969421,184.7633514
1970,-19.6131992,3.6583214,-6.9551206,-108.2213745,93.6946564,227.7862549
1980,-19.6131992,3.9264708,-5.3917146,-80.2137375,16.7099228,250.1297760
1990,-19.6131992,3.9504125,-5.4204450,-54.9541969,-35.7557259,250.1297760
2000,-19.6131992,3.4380560,-6.5864153,-40.6870232,-57.0534363,250.1297760
2010,-17.3411140,2.7820482,-8.2647419,-39.3358765,-50.7938919,250.1297760
2020,-13.6708221,2.3151813,-10.5535870,-53.4198456,-23.8473282,250.1297760
2030,-10.0101061,1.6639616,-12.2989511,-84.0916061,22.1297703,250.1297760
2040,-7.1562324,0.5386927,-12.5671005,-127.2061081,79.5725174,250.1297760
2050,-4.2257442,-0.9241571,-11.1641054,-175.0000000,136.0076294,250.1297760
2060,-0.9193687,-2.4396791,-8.8872309,-216.4122162,170.3587799,250.1297760
2070,2.9041519,-3.9456241,-5.9950504,-245.1908417,159.7022858,250.1297760
2080,8.1737623,-4.5441718,-2.8179610,-250.1374054,91.8167953,250.1297760
2090,15.3850613,-4.2832050,0.4046180,-244.6488495,-3.2519083,250.1297760
2100,19.6126022,-2.8419030,3.8666160,-214.1221313,-82.6870193,250.1297760
2110,19.6126022,-0.5291159,6.3062949,-179.2366486,-109.7862625,250.1297760
2120,19.6126022,0.6871324,8.1139078,-144.4198456,-91.4961853,142.8015289
2130,19.6126022,0.3519458,9.4498653,-117.9312973,-63.4732819,51.1908379
2140,19.6126022,-0.5123565,10.7594872,-89.3816757,-62.8931313,-8.7938929
2150,19.6126022,-0.9409165,11.9158812,-58.6793900,-77.5419846,-41.3816795
2160,19.6126022,-0.7398046,12.9214401,-28.2519093,-72.1526718,-63.8167953
2170,19.6126022,-0.5674229,13.7665892,2.5572519,-33.8396950,-88.3282471
2180,19.6126022,-0.6440369,14.3866844,35.0687027,18.9389305,-118.9007645
2190,19.6126022,-1.4173602,14.2406387,75.1984711,54.2595406,-155.6183167
2200,19.6126022,-2.2888451,12.9382000,120.5648880,58.2213745,-194.9236603
2210,17.0801468,-2.7293761,10.2303715,163.9313049,43.6564903,-237.2442780
2220,15.2390156,-2.8562679,6.8689294,197.5267181,28.3206100,-250.1374054
2230,13.7857428,-2.7724714,3.5434003,221.1984711,20.3511448,-250.1374054
2240,11.6716738,-2.8730273,-0.2130829,235.3511505,23.1145039,-250.1374054
2250,9.7491398,-2.4301023,-3.7804251,241.3129730,41.8625946,-250.1374054
2260,7.8385763,-2.6120608,-6.9527264,240.2977142,61.3969460,-250.1374054
2270,5.3414369,-3.7828193,-10.7139978,231.4122162,62.0763359,-250.1374054
2280,-1.2066715,-5.5066357,-13.7665892,216.8396912,34.7404594,-250.1374054
2290,-12.1217813,-6.7947097,-14.9588957,200.8931274,-43.9618340,-250.1374054
2300,-19.6131992,-6.1099715,-14.5638542,182.4809113,-160.4274750,-250.1374054
2310,-19.6131992,-2.0015423,-14.3316183,157.1679382,-250.1374054,-250.1374054
2320,-19.6131992,3.1483591,-15.3850613,118.5114517,-250.1374054,-250.1374054
2330,-19.6131992,6.2177100,-17.5757446,56.0228996,-229.2137451,-238.6564941
2340,-19.6131992,6.6007805,-19.4312420,-30.5572510,-27.3206100,-67.7251892
2350,-19.6131992,4.9272418,-17.7720680,-128.2061005,168.6870270,90.8473282
2360,-19.6131992,2.8227494,-11.5998478,-189.2824402,250.1297760,219.0992432
2370,-19.6131992,1.1970947,-6.0453281,-195.9236603,218.9236603,250.1297760
2380,-19.6131992,1.0941446,-3.6343796,-168.2442780,130.4732819,250.1297760
2390,-19.6131992,1.2545552,-3.7157819,-138.0229034,62.2213745,250.1297760
2400,-19.6131992,0.5865764,-4.8889351,-121.8931274,30.8091602,250.1297760
2410,-16.5294838,-0.0837966,-6.4523406,-119.4198456,30.3511448,250.1297760
2420,-11.9948893,-0.6799498,-8.1641865,-131.9847260,52.8778610,250.1297760
2430,-8.2575598,-1.6256547,-9.3086090,-157.6030579,81.4351120,250.1297760
2440,-4.9583664,-2.6934631,-8.7723103,-189.0076294,100.2519073,250.1297760
2450,-0.6751614,-3.8474624,-7.5297260,-219.0458069,107.5572510,250.1297760
2460,4.2425036,-4.7596488,-5.9423780,-241.7709961,97.4885483,250.1297760
2470,10.4362717,-4.7141590,-3.8307030,-250.1374054,50.3740463,250.1297760
2480,18.4615955,-3.9240766,-0.8044477,-250.1374054,-18.2748089,250.1297760
2490,19.6126022,-2.6838863,2.3439114,-235.5572510,-69.2290039,250.1297760
2500,19.6126022,-1.7142396,5.0996237,-210.6564941,-88.8396912,228.5954132
2510,19.6126022,-2.0685797,7.0891948,-183.4656525,-96.0229034,127.4198456
2520,19.6126022,-2.3175755,9.1601686,-153.1450348,-107.4809189,40.0152664
2530,19.6126022,-2.3391230,11.0563669,-121.0305328,-114.8396912,-23.8549614
2540,19.6126022,-1.9680238,12.7921543,-90.2748108,-100.8396912,-68.5114517
2550,19.6126022,-1.8866212,14.4968176,-60.7633591,-62.9236641,-102.3893127
2560,19.6126022,-2.3822186,16.5079365,-17.9923668,-13.9312973,-126.5496216
2570,19.6126022,-2.1978660,16.4863892,26.2748089,29.2900772,-147.2900696
2580,19.6126022,-2.4947455,15.6939116,76.7862625,61.2290077,-171.1068726
2590,17.5709572,-2.8347204,13.7091284,128.5190887,71.6259537,-197.6717529
2600,15.4927998,-2.6862805,10.0148945,170.4885559,72.1297684,-227.8778687
2610,13.8408089,-2.3343346,6.6295104,198.6335907,70.0534363,-250.1374054
2620,12.6604738,-2.2098370,3.4883339,220.5648804,75.3816757,-250.1374054
2630,11.3388815,-1.8435259,-0.1651991,235.8091583,86.9312973,-250.1374054
2640,9.7419567,-1.3000449,-2.6048782,248.7709961,97.2824402,-250.1374054
2650,7.4267755,-1.7645177,-5.6766233,250.1297760,96.5572510,-250.1374054
2660,4.0030847,-2.7772598,-9.6030941,250.1297760,70.9236679,-250.1374054
2670,-0.8762733,-4.1419477,-12.7993364,250.1297760,11.6335878,-250.1374054
2680,-6.7899213,-5.4946647,-14.4441452,238.9541931,-62.3664131,-250.1374054
2690,-12.2271252,-5.6287394,-15.3730907,210.1221313,-112.3816757,-250.1374054
2700,-16.8742466,-5.0541339,-15.5143480,169.3816833,-117.0916061,-250.1374054
2710,-19.6131992,-4.2568688,-14.6596222,122.7404556,-72.9312973,-250.1374054
2720,-19.6131992,-1.4173602,-12.8256731,84.7786255,-29.1221371,-250.1374054
2730,-19.6131992,2.1260402,-12.8160963,53.0839691,-16.6564884,-250.1374054
2740,-19.6131992,2.9233053,-13.3859129,15.1068707,-46.6488533,-45.6870232
2750,-19.6131992,2.2074428,-16.4313221,-38.0458031,-8.5190840,112.7557220
2760,-19.6131992,2.2984219,-16.1679611,-99.0916061,57.6335869,203.0076294
2770,-19.6131992,1.7645177,-12.4402084,-144.6641235,88.5419846,243.4809113
2780,-19.6131992,1.1037214,-8.0253229,-154.1145020,53.9771004,250.1297760
2790,-19.6131992,0.7948709,-5.3510137,-134.7022858,-18.5572510,250.1297760
2800,-19.6131992,0.8954269,-5.4779053,-111.0305328,-74.1450348,250.1297760
2810,-16.8981895,1.0654143,-6.9287844,-101.2671738,-89.0381699,250.1297760
2820,-13.8503857,0.9624642,-7.5153608,-104.6564865,-68.7557220,250.1297760
2830,-11.2143831,-0.1460456,-7.1921453,-113.9083939,-34.3664131,250.1297760
2840,-7.1993275,-1.3503228,-8.0325060,-128.0992432,2.3511450,250.1297760
2850,-3.5362179,-2.4037662,-8.7986460,-149.6488495,33.4274826,250.1297760
2860,0.8379663,-3.6870518,-9.1793222,-180.1221313,58.4656487,250.1297760
2870,5.4994531,-5.3222833,-7.8433647,-214.2977142,66.0992355,250.1297760
2880,10.4051476,-6.2608056,-5.0828643,-241.3129730,53.8320618,250.1297760
2890,17.8774128,-6.4475522,-0.3399749,-250.1374054,30.8167934,250.1297760
2900,19.6126022,-5.2959471,5.4779053,-249.2213745,16.7709923,250.1297760
2910,19.6126022,-2.7126167,12.0116482,-220.8549652,25.3358784,250.1297760
2920,19.6126022,-1.4843974,18.4041348,-163.3282471,40.4045792,158.6946564
2930,19.6126022,-2.4492557,19.6126022,-83.8702316,3.0610688,-0.3358779
2940,19.6126022,-3.4069316,19.6126022,0.6183206,-84.1145020,-125.7099228
2950,19.6126022,-2.6886747,16.7617207,72.7786255,-165.5419922,-206.5496216
2960,19.6126022,-1.9201399,12.5192165,113.9465637,-180.2137451,-250.1374054
2970,19.6126022,-0.7757174,8.8585014,129.2290039,-124.0763321,-250.1374054
2980,17.1615505,-0.1053443,6.4236102,132.6641235,-40.9389305,-250.1374054
2990,14.2430334,-0.1723816,5.4539638,134.3511505,26.8854961,-250.1374054
3000,11.6740675,-0.1963235,5.0062504,149.0152740,70.6183243,-250.1374054
3010,9.7228031,-0.0215477,4.0174499,171.5419922,92.3129807,-250.1374054
3020,8.2527714,0.2968795,2.2720859,196.8167877,89.6488571,-250.1374054
3030,7.2136927,0.2178712,-0.4572902,223.4656525,74.0839691,-250.1374054
3040,5.0277977,-0.7565638,-4.2616572,242.8473358,44.3129768,-250.1374054
3050,1.9273225,-1.9847831,-8.6142941,247.1145020,-3.6946564,-250.1374054
3060,-2.1787124,-3.5673423,-11.8871508,234.2900696,-66.5496216,-250.1374054
3070,-8.5161324,-4.8195033,-13.4337969,207.0610657,-115.4122162,-250.1374054
3080,-19.6131992,-5.0182209,-12.8831339,169.7786255,-163.4656525,-250.1374054
3090,-19.6131992,-2.4995339,-10.0795374,138.4427490,-233.2977142,-250.1374054
3100,-19.6131992,2.2792683,-8.5328913,117.1679382,-250.1374054,-250.1374054
3110,-19.6131992,5.5952206,-11.0755205,80.4885483,-221.4122162,-215.2366486
3120,-19.6131992,6.3134775,-14.0610743,13.6259546,-63.9007645,-47.1603050
3130,-19.6131992,5.1594782,-14.1712074,-66.7633591,101.5877838,94.3206100
3140,-19.6131992,3.6008608,-11.1210098,-124.7633591,181.2213745,192.4198456
3150,-19.6131992,2.7509236,-7.3549500,-148.4274750,173.6870270,247.0305328
3160,-19.6131992,2.2936335,-4.3693957,-142.9084015,117.0076370,250.1297760
3170,-19.6131992,2.2409613,-3.1507533,-124.4732819,57.8625946,250.1297760
3180,-17.2477417,2.4947455,-3.4236910,-109.1679382,27.4809170,250.1297760
3190,-15.4497042,2.6431851,-3.9192882,-102.4656525,22.7099228,250.1297760
3200,-13.8001080,2.5665710,-4.2401094,-101.3740463,34.8625946,250.1297760
3210,-11.5328102,2.0302727,-4.7237358,-105.8854980,57.7404594,250.1297760
3220,-8.1115141,1.1420283,-5.7412663,-119.2366409,93.5038147,250.1297760
3230,-4.4340386,0.4548960,-6.6486640,-144.8320618,140.7404633,250.1297760
3240,-1.2593436,-0.4692611,-7.0556765,-182.5343475,193.6412201,250.1297760
3250,0.7972651,-1.8578910,-6.0237808,-225.7328186,231.2061005,250.1297760
3260,3.8546450,-4.2832050,-3.4045374,-250.1374054,229.5267181,250.1297760
3270,8.6933022,-6.1889796,0.8140244,-250.1374054,161.5496216,250.1297760
3280,19.0816898,-6.5050125,7.0724359,-250.1374054,28.1984730,250.1297760
3290,19.6126022,-4.3263001,14.7266598,-224.5190887,-102.8702316,250.1297760
3300,19.6126022,-0.9289455,19.6126022,-137.1832123,-136.3740387,118.5343475
3310,19.6126022,-2.4708035,19.6126022,-41.7633591,-74.3282471,-77.6717529
3320,19.6126022,-6.2727766,19.6126022,46.6793900,-65.1526718,-223.0000000
3330,19.6126022,-5.9854736,19.6126022,131.8778687,-130.0534363,-250.1374054
3340,17.9300842,-5.5449429,16.0482521,201.9923706,-180.0076294,-250.1374054
3350,14.6524391,-3.9168940,9.7323799,240.0915985,-166.6870270,-250.1374054
3360,12.6844158,-1.9153515,3.8211265,250.1297760,-102.5572510,-250.1374054
3370,9.5791521,-1.3120158,-0.3974355,243.5954132,-27.5648861,-250.1374054
3380,7.3908629,-0.2537841,-3.3231349,237.1297760,31.2366409,-250.1374054
3390,6.5337429,0.3854645,-6.3039007,226.3816833,59.8167953,-250.1374054
3400,4.3382711,-0.4453192,-8.8058290,216.0152740,53.3282433,-250.1374054
3410,1.1444225,-1.4820032,-10.9605989,202.9465637,9.5267172,-250.1374054
3420,-3.1339941,-2.7892308,-11.7722292,188.8244324,-58.7022896,-250.1374054
3430,-8.8896255,-3.9528067,-11.6453371,171.6870270,-123.7633591,-250.1374054
3440,-18.2102051,-2.8921809,-11.2742386,145.2366486,-177.5801544,-250.1374054
3450,-19.6131992,-1.7908537,-8.7052727,118.5496216,-247.3282471,-250.1374054
3460,-19.6131992,0.8020535,-6.6989422,102.3053436,-250.1374054,-250.1374054
3470,-19.6131992,3.9336534,-7.6278877,88.8778610,-250.1374054,-250.1374054
3480,-19.6131992,6.1722202,-11.1186161,48.2748108,-180.3358765,-115.8320618
3490,-19.6131992,4.6973996,-13.5535069,-21.7709923,-13.3053436,46.4809151
3500,-19.6131992,2.7317703,-12.6389265,-103.1603088,120.3053436,177.0839691
3510,-19.6131992,1.5059452,-7.8625183,-152.5343475,161.3206177,250.1297760
3520,-19.6131992,-0.0646431,-3.9647777,-158.1374054,127.1374054,250.1297760
3530,-19.6131992,-0.0837966,-2.0542145,-140.8015289,66.2900772,250.1297760
3540,-19.6131992,-0.0909792,-1.5203103,-120.8931274,21.2290077,250.1297760
3550,-17.2621059,-0.5674229,-1.7693061,-106.9389343,3.7175572,250.1297760
3560,-14.1520538,-1.0295014,-2.2409613,-98.6335907,13.1908398,250.1297760
3570,-10.3979645,-1.1372399,-3.7349355,-98.7328262,43.2366409,250.1297760
3580,-7.1705976,-1.4341195,-5.2791877,-111.4503784,85.2290039,250.1297760
3590,-4.4077029,-2.1404054,-6.4116392,-139.5038147,133.1755676,250.1297760
3600,-1.3742647,-3.2225790,-6.4691000,-178.3206177,178.5648804,250.1297760
3610,1.8985922,-5.0469513,-5.0852585,-219.3206177,206.5877838,250.1297760
3620,5.5066357,-6.8306227,-2.0470319,-250.1374054,204.6870270,250.1297760
3630,10.7235746,-7.7116842,2.2696917,-250.1374054,158.3053436,250.1297760
3640,19.6126022,-6.9168134,7.7811155,-250.1374054,85.5572510,250.1297760
3650,19.6126022,-4.7620430,13.0243902,-220.7251892,33.4045792,250.1297760
3660,19.6126022,-2.8275378,17.6164455,-162.8854980,33.0763359,208.4427490
3670,19.6126022,-3.0501974,19.6126022,-96.5419846,33.2595406,45.7938919
3680,19.6126022,-3.7205703,19.6126022,-21.4274807,-22.9160309,-79.8015289
3690,19.6126022,-4.0677280,19.6126022,60.1679382,-107.1755753,-164.1908417
3700,19.6126022,-3.5026991,16.8383350,126.1755753,-151.0610657,-216.1526642
3710,19.5006733,-2.2194135,12.3755655,163.2213745,-129.7633514,-241.9694672
3720,16.2948532,-1.8914096,9.4211359,186.0381622,-62.3511467,-243.7480927
3730,14.0036144,-1.2114599,6.7564025,200.2900696,6.9541984,-240.3282471
3740,12.2917690,-0.2681492,4.7237358,217.1145020,59.8167953,-245.7404633
3750,10.5104914,0.1436514,2.4899571,234.2290039,88.1603088,-250.1374054
3760,8.7890692,0.3136388,0.0095768,250.1297760,89.0763321,-250.1374054
3770,7.1179252,0.4836263,-2.9376705,250.1297760,77.0610657,-250.1374054
3780,5.6981707,0.5961532,-6.8042865,250.1297760,60.0076332,-250.1374054
3790,4.0773048,0.5841822,-11.3700056,250.1297760,36.0152664,-250.1374054
3800,1.6376256,0.1053443,-14.8607340,242.7633514,4.6106873,-250.1374054
3810,-2.0566087,-1.3120158,-16.3810444,207.6335907,-21.5190830,-250.1374054
3820,-6.2799587,-1.3168042,-16.5007534,169.3129730,-34.9771004,-250.1374054
3830,-13.1321287,-2.0685797,-14.7051115,134.1755676,-48.6870232,-250.1374054
3840,-19.6131992,-1.7884595,-12.0188313,110.1603088,-69.0992355,-250.1374054
3850,-19.6131992,0.0957676,-9.3732519,100.2061081,-106.9389343,-250.1374054
3860,-19.6131992,2.5162930,-9.1936874,99.7328262,-138.8167877,-250.1374054
3870,-19.6131992,4.9870968,-11.7770176,81.5725174,-134.4503784,-157.4961853
3880,-19.6131992,5.8657641,-14.7338419,37.6641235,-78.0916061,-30.8015270
3890,-19.6131992,5.7915444,-15.6508169,-20.6564884,3.5572519,76.0076370
3900,-19.6131992,5.0038562,-13.4744978,-72.6717529,69.0916061,157.8549652
3910,-19.6131992,3.6774750,-10.2184010,-103.3969498,80.8854980,220.5954132
3920,-19.6131992,2.8395088,-7.1993275,-110.4961853,51.8167953,250.1297760
3930,-19.6131992,2.3391230,-5.9974446,-102.9847336,12.5648851,250.1297760
3940,-19.0457764,2.2864509,-6.2823529,-92.2519073,-17.3740463,250.1297760
3950,-15.2845058,2.1308286,-7.1059542,-89.2519073,-23.4045811,250.1297760
3960,-12.1409349,1.7549409,-8.4179697,-95.5496216,-9.4198475,250.1297760
3970,-9.2176294,1.4772149,-9.7467451,-110.7404556,13.4732828,250.1297760
3980,-6.5409255,0.9600700,-11.0827026,-135.9770966,43.5419846,250.1297760
3990,-3.5960727,0.1388630,-11.2694502,-169.0915985,78.3664093,250.1297760
4000,-0.6727672,-1.0534433,-10.8193426,-207.2824402,113.7022934,250.1297760
4010,2.5138988,-2.3870070,-9.2846670,-244.4732819,133.4122162,250.1297760
4020,6.5912037,-3.5553713,-6.7133074,-250.1374054,127.0916061,250.1297760
4030,11.6237898,-4.0126615,-3.0765336,-250.1374054,94.2824402,250.1297760
4040,18.6627064,-3.5864959,1.9392935,-250.1374054,36.1908379,250.1297760
4050,19.6126022,-2.3678534,6.9886389,-250.1374054,-21.5419846,250.1297760
4060,19.6126022,-1.3168042,10.9749641,-215.8778687,-54.1145020,189.5114441
4070,19.6126022,-1.1276633,12.9046812,-159.6183167,-74.8549652,75.6946564
4080,19.6126022,-1.0654143,12.6748390,-106.0916061,-101.6488571,-12.9083967
4090,19.6126022,-1.5969244,11.8201132,-63.2977104,-133.0686951,-69.0992355
4100,19.6126022,-0.7733232,10.5416164,-37.5725174,-141.6183167,-94.7175598
4110,19.2492828,-0.7685348,10.6876621,-21.9007626,-113.6259537,-103.2748108
4120,19.2157650,-0.5626345,11.6692791,-4.7480917,-61.1526718,-106.2748108
4130,18.7393208,-0.7086801,12.6365318,17.3893127,-1.1297710,-110.8702316
4140,17.7984047,-1.0414724,13.5104113,46.6412201,45.3587799,-122.5648880
4150,16.8000278,-1.2258250,13.5271702,86.2595444,65.4580154,-145.0229034
4160,14.9995966,-1.8124014,12.6245613,132.3282471,63.0076332,-174.3358765
4170,13.5128050,-1.8339491,10.2207947,175.6335907,53.1984749,-205.1450348
4180,12.5718889,-1.4245427,7.6614060,211.2061005,43.6564903,-239.3282471
4190,11.3580351,-1.1156923,4.3813667,239.4045868,44.4809151,-250.1374054
4200,9.7922344,-0.7086801,0.8331779,250.1297760,51.6793900,-250.1374054
4210,8.0013809,-0.3639168,-2.0566087,250.1297760,64.2977066,-250.1374054
4220,6.1626434,-0.3854645,-5.3246775,250.1297760,75.4122162,-250.1374054
4230,4.2832050,-0.8523315,-9.2726955,250.1297760,74.1755753,-250.1374054
4240,1.1300575,-1.5490406,-12.8041248,250.1297760,52.1832047,-250.1374054
4250,-6.1817970,-2.4085546,-15.2605639,250.1297760,4.4122138,-250.1374054
4260,-16.2637291,-1.5490406,-16.7736912,230.7328186,-71.6717529,-250.1374054
4270,-19.6131992,1.0127422,-16.7018661,193.4580078,-163.9313049,-250.1374054
4280,-19.6131992,3.9935081,-15.5622311,152.4809113,-250.1374054,-250.1374054
4290,-19.6131992,6.6319046,-15.3012648,112.3893127,-250.1374054,-250.1374054
4300,-19.6131992,7.9965930,-16.8957958,60.7328262,-175.9541931,-133.0534363
4310,-19.6131992,7.9415264,-18.1718979,-10.1297712,-31.9465656,-5.2061067
4320,-19.6131992,6.7492199,-16.0865593,-81.8778610,83.8167953,99.6488571
4330,-19.6131992,5.1283536,-11.7315283,-124.3053436,123.3435135,173.4274750
4340,-19.6131992,3.7684543,-8.2671366,-136.8473358,93.1297684,226.5343475
4350,-19.6131992,3.3183465,-5.5664907,-129.1450348,41.7862587,250.1297760
4360,-19.6131992,3.0310438,-4.4867110,-113.7022934,1.2061069,250.1297760
4370,-16.5438499,2.9903426,-4.1395535,-100.6946564,-13.5648851,250.1297760
4380,-14.3842907,2.9544299,-4.3717899,-92.0076370,-8.8549614,250.1297760
4390,-11.8823624,2.3247581,-5.1235652,-90.2519073,4.2595420,250.1297760
4400,-8.7723103,1.6687500,-6.3086891,-95.7328262,27.0076332,250.1297760
4410,-5.3462253,1.1228749,-7.6230993,-110.9542007,57.5877876,250.1297760
4420,-2.5498118,0.3112446,-8.4706421,-136.3969421,84.2977066,250.1297760
4430,0.2298422,-1.0630201,-8.1833391,-165.7404633,77.5877838,250.1297760
4440,5.4755111,-2.2601149,-6.7707677,-190.4198456,34.3587799,250.1297760
4450,12.4880924,-2.5091105,-3.9552009,-203.5877838,-19.4351139,250.1297760
4460,19.6126022,-2.3415172,-0.3830703,-202.6183167,-58.8778610,250.1297760
4470,19.6126022,-1.4173602,3.6032550,-193.4427490,-59.1221390,250.1297760
4480,19.6126022,0.3710994,7.6925306,-171.8778687,-28.5114498,188.3893127
4490,19.6126022,-0.2346306,11.0898857,-143.0000000,-6.6106873,68.9160309
4500,19.6126022,-0.9480990,13.1297350,-97.4732819,-34.8320618,-30.1450386
4510,19.6126022,-1.1923064,13.9844608,-44.7862587,-90.8320618,-96.3816757
4520,19.6126022,-0.5267217,13.1273403,2.9236641,-115.2671738,-134.8167877
4530,19.6126022,0.1197095,11.8895445,40.0839691,-87.3358765,-153.5267181
4540,18.4065285,0.7278336,10.1369982,66.5038147,-30.0534344,-161.4351196
4550,15.9860029,0.8307837,8.8632889,89.5114517,27.0687027,-168.0381622
4560,13.7785606,1.0175306,7.6422529,113.1832047,59.1679382,-179.5801544
4570,11.6692791,1.0773853,6.2464404,140.5343475,69.6030502,-196.6564941
4580,9.8927908,1.1300575,4.3215117,165.1526642,67.7786255,-216.9694672
4590,8.7747040,1.8722562,1.9129574,186.1145020,61.5648842,-242.0458069
4600,7.7260494,2.5522060,-0.7302278,203.0000000,56.0534363,-250.1374054
4610,6.5385313,2.9352763,-3.5362179,214.6564941,51.8015251,-250.1374054
4620,5.3869262,2.9424589,-6.6917596,217.2824402,48.4732819,-250.1374054
4630,3.4835455,2.5546002,-9.9287033,209.3129730,43.6183205,-250.1374054
4640,0.9409165,1.5514348,-12.0810804,191.7175598,26.4732819,-250.1374054
4650,-2.6431851,-0.1101327,-12.7825775,171.5114441,1.6488550,-250.1374054
4660,-7.7619624,-0.7637464,-12.1816359,155.3435059,-18.9770985,-250.1374054
4670,-11.8632088,-0.7972651,-11.2431135,142.1832123,-20.3969460,-250.1374054
4680,-16.5893383,0.0311245,-10.0699606,131.1908417,10.9312973,-250.1374054
4690,-19.6131992,1.9177457,-8.9997578,123.8625946,60.5343513,-250.1374054
4700,-19.6131992,3.8714044,-8.6885138,118.0839691,106.5572510,-250.1374054
4710,-19.6131992,5.3534074,-9.6892843,108.2748108,122.0610657,-127.7709961
4720,-19.6131992,5.9519548,-12.9741125,91.0305328,107.6412201,-2.9083970
4730,-19.6131992,6.1913738,-16.6755295,60.8244286,89.0152664,77.9770966
4740,-15.0833931,6.3469963,-19.6131992,6.8778625,66.8473282,108.1679382
4750,-11.1186161,6.3781209,-19.6131992,-59.3206100,61.4427490,106.0763321
4760,-12.6317434,5.6838059,-16.6276455,-111.7862625,65.5725174,104.7709961
4770,-15.4880114,4.9894910,-12.5551291,-142.3358765,59.2900772,123.3511429
4780,-17.6212349,4.4771342,-9.0715837,-153.2824402,41.8091621,156.9541931
4790,-17.5877151,4.1347651,-6.8809004,-151.3511505,18.8702297,201.2977142
4800,-15.5837793,4.0342093,-5.9495606,-144.2900696,1.8320611,246.1984711
4810,-13.3595772,4.0030847,-6.1147599,-138.3206177,-8.9618320,250.1297760
4820,-10.5871058,3.8594334,-6.7133074,-135.2519073,-16.3435116,250.1297760
4830,-7.9367380,3.6224086,-7.1969333,-138.9465637,-10.8625956,250.1297760
4840,-5.3510137,2.8945751,-7.6829538,-149.7709961,11.5114508,250.1297760
4850,-2.8107784,2.2313845,-7.7284436,-166.7786255,47.4045792,250.1297760
4860,-0.4070122,1.6879035,-7.3238254,-187.7251892,86.9160309,250.1297760
4870,1.4197544,0.8978211,-6.5528965,-211.9313049,123.7480927,250.1297760
4880,3.0980811,-0.2944853,-4.8410511,-236.9770966,149.7099304,250.1297760
4890,5.1331420,-1.7070571,-2.3319404,-250.1374054,152.0381622,250.1297760
4900,8.8273764,-2.3271523,0.9528874,-250.1374054,113.3740463,250.1297760
4910,15.1336718,-1.8842272,4.7333126,-250.1374054,32.7404594,250.1297760
4920,19.6126022,-0.9217629,9.2631187,-231.2595367,-59.5725174,250.1297760
4930,19.6126022,0.6224893,12.9358053,-179.8320618,-117.2824402,140.1450348
4940,19.6126022,1.2976507,14.5063934,-122.0305328,-117.4580154,11.6030531
4950,19.6126022,0.6105183,14.9995966,-63.4503822,-91.8854980,-95.8396912
4960,19.6126022,-0.3854645,14.0443153,-5.2137403,-92.9312973,-164.3358765
4970,17.5039196,-0.2609667,11.9781294,42.5343513,-131.5343475,-198.2748108
4980,15.6723642,0.5195391,10.0148945,76.8244247,-160.8702240,-217.1450348
4990,15.6388454,1.2521610,7.9582858,100.0687027,-155.0915985,-231.1297760
5000,15.6220865,1.9752063,6.0118098,119.0381699,-116.5419846,-244.2748108
5010,14.3388004,2.1451938,4.3023586,129.3435059,-64.8931274,-250.1374054
5020,12.6341381,2.2505381,2.7461352,134.1679382,-19.3282452,-250.1374054
5030,10.2136126,2.1212518,1.6639616,139.9847260,7.3053436,-250.1374054
5040,8.0851774,2.1188576,0.9504932,150.8091583,14.3740454,-250.1374054
5050,6.7875271,1.9273225,-0.1029501,166.8244324,15.0381680,-250.1374054
5060,5.2911587,1.5370697,-2.2768741,183.2671814,13.9541988,-250.1374054
5070,2.9424589,0.4046180,-4.8793583,193.0458069,-11.5648851,-250.1374054
5080,-0.5195391,-1.5155219,-7.2711535,194.4427490,-65.2595444,-250.1374054
5090,-7.2017217,-2.9735832,-8.6310530,188.2213745,-129.1145020,-250.1374054
5100,-18.6962261,-2.3271523,-9.2319946,175.1603088,-219.2442780,-250.1374054
5110,-19.6131992,-0.2011119,-8.7579451,155.7480927,-250.1374054,-250.1374054
5120,-19.6131992,2.7605004,-8.5831690,131.4198456,-250.1374054,-250.1374054
5130,-19.6131992,5.6526814,-10.1729107,98.8625946,-250.1374054,-250.1374054
5140,-19.6131992,7.0700417,-12.9956608,47.5419846,-202.0839691,-137.4961853
5150,-19.6131992,5.7676024,-14.4010496,-35.1221390,-2.2366412,22.3435116
5160,-19.6131992,3.5481887,-10.8480721,-114.5496216,144.6106873,164.8778687
5170,-19.6131992,2.2601149,-5.0852585,-145.9541931,180.7099304,250.1297760
5180,-19.6131992,1.3168042,-1.2808913,-137.3206177,141.3435059,250.1297760
5190,-19.6131992,1.4915800,-0.1340746,-109.4656525,84.8931274,250.1297760
5200,-16.7329903,1.4484847,-0.1963235,-78.6488571,43.9847336,250.1297760
5210,-13.1464939,1.6759326,-1.5203103,-54.8854980,28.5114498,250.1297760
5220,-10.0077124,1.9009864,-3.7900019,-44.7938919,37.0763359,250.1297760
5230,-7.1442614,2.0015423,-5.8657641,-51.5877876,63.6412201,250.1297760
5240,-4.6159973,2.1020982,-7.3477674,-73.8473282,103.9618301,250.1297760
5250,-2.8969693,1.1348459,-7.5584559,-106.2824402,151.3435059,250.1297760
5260,-0.4046180,0.0454896,-7.0437055,-141.5572510,192.6259613,250.1297760
5270,2.2553265,-1.3670821,-5.9974446,-177.5114441,221.5801544,250.1297760
5280,6.1051831,-2.6407909,-4.2041965,-212.0763397,218.8778687,250.1297760
5290,12.3228931,-3.0741394,-1.1516051,-238.0381622,168.3740387,250.1297760
5300,19.6126022,-2.4827745,2.6838863,-245.8625946,83.5572510,250.1297760
5310,19.6126022,-1.0821736,7.0269461,-230.3893127,4.5496182,250.1297760
5320,19.6126022,0.4501076,10.9893293,-192.0458069,-35.6870232,127.8549652
5330,19.6126022,-0.0239419,12.8376436,-143.4732819,-36.8320618,-8.6412210
5340,19.6126022,-1.1204807,14.3699255,-89.0687027,-54.8015251,-107.8931274
5350,19.6126022,-1.3982066,14.2645807,-34.1145020,-81.5114517,-161.1755676
5360,19.1319675,-0.9121862,13.4529505,11.2442751,-94.9312973,-187.1374054
5370,17.4416695,-0.0574605,12.3635941,49.2824440,-74.3969498,-200.0915985
5380,15.6579990,0.3758878,10.5727406,82.2213745,-26.9007626,-209.3282471
5390,13.3811245,0.8403605,8.7483683,108.3816757,27.0076332,-216.0534363
5400,11.2431135,1.2306134,7.2400289,131.0152740,66.2061081,-225.1984711
5410,9.7371683,1.5993185,5.7699966,156.1526642,90.6870193,-241.0915985
5420,8.2000990,1.8219782,3.6774750,184.6412201,97.5419846,-250.1374054
5430,6.9790621,2.3798244,1.0462608,213.2213745,89.9542007,-250.1374054
5440,5.5760674,2.5833304,-2.1571648,234.0686951,71.1297684,-250.1374054
5450,3.2489152,1.5658000,-5.8346395,243.9847260,36.8473282,-250.1374054
5460,-0.4716553,0.2130829,-9.0787668,240.2366486,-15.9770994,-250.1374054
5470,-5.1283536,-0.8523315,-11.3077564,223.9236603,-80.6030502,-250.1374054
5480,-9.8616667,-0.4836263,-12.2965574,196.4885559,-133.1832123,-250.1374054
5490,-17.9109306,0.6153067,-11.8727856,162.4809113,-166.3053436,-250.1374054
5500,-19.6131992,2.9400647,-10.5320396,130.0610657,-201.9465637,-250.1374054
5510,-19.6131992,5.8466105,-9.4666252,106.6717529,-230.3969421,-250.1374054
5520,-19.6131992,7.1298962,-11.1377697,75.9083939,-195.9389343,-180.5267181
5530,-19.6131992,7.7116842,-13.6301203,26.2442741,-87.7557220,-44.3435097
5540,-19.6131992,7.2519999,-13.8599625,-40.9618340,47.7480927,74.8854980
5550,-19.6131992,6.0812411,-11.6094246,-97.6183243,134.0534363,165.0458069
5560,-19.6131992,5.0804701,-8.2216463,-126.2366409,154.9694672,225.8931274
5570,-19.6131992,4.6902170,-5.5952206,-129.0000000,126.7175598,250.1297760
5580,-17.0178986,4.6231799,-4.0102673,-118.1603088,88.8549652,250.1297760
5590,-14.0060081,4.4819226,-3.6607156,-104.9236679,61.3587799,250.1297760
5600,-11.4178896,4.7189474,-4.4484038,-99.3511429,50.7328262,250.1297760
5610,-8.9351149,4.5130472,-5.1522956,-101.4885483,54.4351158,250.1297760
5620,-6.1123657,4.2951760,-5.6981707,-111.9312973,75.3664093,250.1297760
5630,-1.6615674,3.8594334,-6.3158717,-155.4045868,146.7404633,250.1297760
5640,-0.4333483,3.1675127,-5.8825235,-182.3740387,180.7480927,250.1297760
5650,0.6344602,2.2960277,-5.0230093,-209.6488495,210.8091583,250.1297760
5660,2.1595588,1.2425843,-3.7540891,-236.2290039,236.3511505,250.1297760
5670,3.9671719,-0.0622489,-1.6783268,-250.1374054,250.1297760,250.1297760
5680,6.1865854,-1.0678085,0.9241571,-250.1374054,246.4198456,250.1297760
5690,9.1027079,-1.8387375,4.0198441,-250.1374054,217.2671814,250.1297760
5700,13.9653072,-2.1451938,7.8050575,-250.1374054,152.9160309,250.1297760
5710,19.6126022,-1.5418580,12.0738974,-248.9770966,60.7099228,241.6106873
5720,19.6126022,-0.7805058,15.7705259,-195.4656525,-26.7786255,124.6259537
5730,19.6126022,-0.6775556,17.4320927,-129.6259613,-70.5496216,7.5954199
5740,19.6126022,-0.9073978,17.7026367,-65.8167953,-75.8778610,-89.4198456
5750,19.6126022,-1.3814473,17.4512463,-8.8549614,-71.3129807,-156.2061005
5760,16.8910065,-1.0007712,16.0745888,39.7862587,-80.5877838,-193.5496216
5770,13.3284531,-0.6464311,14.7027178,85.8854980,-92.5038147,-210.9160309
5780,11.2862091,-0.3256098,13.0722742,127.7709961,-89.3358765,-216.2671814
5790,10.1633339,0.8954269,10.5942879,161.0305328,-63.5190849,-215.2900696
5800,9.0284882,1.1851238,8.3820572,184.9770966,-29.6717548,-209.8320618
5810,8.4802189,2.3558824,6.1770086,201.4809113,10.7557249,-205.1908417
5820,7.6781654,2.8873925,4.0820932,216.2137451,48.7938919,-206.9618378
5830,7.0628591,3.5266411,2.0781565,230.0000000,74.2061081,-217.2061005
5840,6.5265603,4.0413918,-0.0047884,242.6870270,83.3129807,-236.9770966
5850,6.1506729,4.2377152,-2.1739240,250.1297760,80.0000000,-250.1374054
5860,5.4300218,3.8330972,-4.4627690,250.1297760,64.4656525,-250.1374054
5870,4.3502421,3.1196289,-6.8976598,250.1297760,32.3053436,-250.1374054
5880,2.4229198,2.0326669,-8.6645718,250.1297760,-13.0152674,-250.1374054
5890,-1.3263810,1.2473727,-9.4522600,245.0839691,-58.0228996,-250.1374054
5900,-6.9934273,1.6184721,-9.4450769,229.0992432,-89.0763321,-250.1374054
5910,-12.2845860,2.7150109,-9.3564920,210.2366486,-114.3358765,-250.1374054
5920,-19.1774578,4.4555864,-9.8664551,185.2366486,-130.5038147,-250.1374054
5930,-19.6131992,6.4547348,-10.4817610,152.6183167,-140.3587799,-250.1374054
5940,-19.6131992,8.5735922,-11.4346485,116.4885483,-152.0458069,-216.8702240
5950,-19.6131992,9.2391768,-13.1560707,77.7480927,-140.4198456,-100.7633591
5960,-19.6131992,9.2535419,-15.1911325,28.4656487,-95.0916061,4.9160304
5970,-19.6131992,8.5328913,-15.9812145,-32.8473282,-22.8549614,95.8854980
5980,-19.6131992,7.3334022,-14.8200331,-95.3129807,44.3816795,166.8931274
5990,-18.8207226,5.9471664,-11.4657736,-140.9541931,78.3511429,220.1068726
6000,-16.7449608,5.1044121,-8.0995426,-161.4656525,79.1450348,250.1297760
6010,-14.5183649,4.6399393,-6.0405402,-166.1755676,65.3587799,250.1297760
6020,-12.5120344,4.5130472,-4.5920553,-156.8015289,31.1603050,250.1297760
6030,-10.4793673,4.7045822,-4.2544746,-145.4122162,5.7099237,250.1297760
6040,-8.0995426,4.6327567,-4.8195033,-139.8931274,-2.6717558,250.1297760
6050,-5.4132624,4.2233500,-5.2839761,-144.4732819,11.0916033,250.1297760
6060,-3.3015873,3.6607156,-5.2863703,-157.8702240,45.5725174,250.1297760
6070,-1.2521610,2.6240315,-5.1235652,-179.9541931,94.0916061,250.1297760
6080,0.9792235,1.0821736,-4.5489597,-207.9160309,147.2366486,250.1297760
6090,2.8826041,-0.1747758,-3.4739690,-240.7557220,195.7862549,250.1297760
6100,4.7261300,-2.1020982,-1.2880739,-250.1374054,224.2519073,250.1297760
6110,7.8409705,-3.4332676,1.6256547,-250.1374054,207.1908417,250.1297760
6120,14.9373484,-3.6439564,6.1961622,-250.1374054,138.7709961,250.1297760
6130,19.6126022,-2.6240315,11.8320847,-250.1374054,49.3129768,250.1297760
6140,19.6126022,-1.7070571,17.1016960,-217.8244324,-17.9923668,143.5648804
6150,19.6126022,-1.3910241,19.6126022,-138.4885559,-39.2671738,6.3587785
6160,19.6126022,-2.0518203,19.6126022,-50.8625946,-40.7557259,-106.0839691
6170,19.6126022,-2.4253139,19.6126022,33.2748108,-66.9083939,-181.8549652
6180,15.9668493,-2.1763182,17.7816448,104.3358765,-112.1603088,-227.5419922
6190,12.8687687,-1.1348459,14.8200331,160.3587799,-146.0152740,-250.1374054
6200,11.6261835,0.0790083,11.5830889,202.3282471,-150.4274750,-250.1374054
6210,10.4123297,1.3886299,8.2671366,231.7938995,-121.0916061,-250.1374054
6220,8.8704720,2.1044924,5.0206151,247.9694672,-76.2213745,-250.1374054
6230,7.2400289,2.4971397,1.9847831,250.1297760,-37.8549614,-250.1374054
6240,6.0309634,2.9664006,-0.4094064,250.1297760,-14.6793890,-250.1374054
6250,5.1834202,3.1651185,-2.6240315,250.1297760,-0.7862595,-250.1374054
6260,4.1730723,2.6767037,-4.6447277,245.8167877,7.1297708,-250.1374054
6270,2.2242019,1.8674678,-6.1626434,239.1450348,-1.2824427,-250.1374054
6280,-0.0263361,0.8451489,-7.7188668,231.7862549,-17.6183205,-250.1374054
6290,-3.4476328,0.2633608,-8.7531567,219.8320618,-29.4122143,-250.1374054
6300,-9.4426832,0.5530578,-9.3493099,203.5190887,-43.6259537,-250.1374054
6310,-17.8702297,2.3415172,-9.6270361,182.7786255,-78.0839691,-250.1374054
6320,-19.6131992,4.2975702,-9.1793222,160.4427490,-141.6030579,-250.1374054
6330,-19.6131992,6.4858594,-9.4067707,137.4351196,-200.4503784,-250.1374054
6340,-19.6131992,8.5257082,-11.1832590,112.5114517,-221.7404633,-158.4809113
6350,-19.6131992,9.4067707,-13.6349087,72.3358765,-171.9618378,-49.7251892
6360,-19.6131992,9.4498653,-15.6244802,13.5343513,-60.3587799,49.8167953
6370,-19.6131992,8.6118994,-15.8064384,-58.9847336,62.3511467,134.2366486
6380,-19.3857517,7.4818420,-13.1369171,-123.4198456,132.4885559,201.9160309
6390,-17.5685616,6.8976598,-9.2535419,-154.5419922,142.7633514,249.0686951
6400,-15.2773228,6.5121951,-7.0389171,-162.2519073,121.5725174,250.1297760
6410,-12.4928808,6.1578555,-5.8130918,-161.3435059,94.0381699,250.1297760
6420,-9.6485834,5.6718349,-5.2600341,-162.3511505,75.4045792,250.1297760
6430,-6.8665352,5.1977854,-5.0325861,-169.1068726,76.1450348,250.1297760
6440,-4.2089849,4.6399393,-4.7596488,-181.3740387,93.5648880,250.1297760
6450,-2.2888451,4.0413918,-4.3239059,-197.2671814,119.5877838,250.1297760
6460,-0.3998296,3.2944047,-3.7732425,-217.5267181,148.3358765,250.1297760
6470,1.2593436,2.0733681,-2.5569944,-240.0839691,175.2824402,250.1297760
6480,3.2201848,0.8499373,-0.1268920,-250.1374054,190.5801544,250.1297760
6490,5.8466105,-0.6320660,2.5641768,-250.1374054,180.2977142,250.1297760
6500,9.8688488,-1.2737088,6.4164276,-250.1374054,130.9313049,250.1297760
6510,16.7258072,-0.8571198,11.5806942,-215.9618378,48.8549614,250.1297760
6520,19.6126022,0.2154770,16.4744167,-152.9847260,-34.0381660,170.1221313
6530,19.6126022,0.8834559,19.0792961,-75.7175598,-70.0610657,61.7938919
6540,19.6126022,1.6160779,19.6126022,-2.0305343,-61.6641235,-43.9160309
6550,19.6126022,1.3766589,18.1335907,62.1984749,-40.5801544,-134.4809113
6560,19.6126022,0.9480990,14.6835642,114.1755753,-37.3893127,-202.0534363
6570,15.9764261,1.1085097,11.6022425,158.4122162,-54.8244286,-250.1374054
6580,12.8711624,1.6783268,8.2886839,194.2442780,-68.7022934,-250.1374054
6590,10.1705170,2.4061604,4.8075323,217.8320618,-67.9847336,-250.1374054
6600,7.8385763,3.2249732,0.7637464,226.5648804,-56.3053436,-250.1374054
6610,6.2464404,4.2161674,-3.0861101,220.9313049,-35.4274826,-250.1374054
6620,4.3263001,4.8554163,-5.8418221,203.2137451,-11.4427481,-250.1374054
6630,1.2521610,4.4340386,-7.0939832,180.4351196,-6.2900763,-250.1374054
6640,-2.4971397,4.1180058,-7.7308378,161.8702240,-27.5038166,-250.1374054
6650,-6.5265603,4.2784166,-8.2767134,147.3816833,-75.9923630,-250.1374054
6660,-10.5392218,4.6327567,-8.3365679,132.2748108,-132.4961853,-250.1374054
6670,-14.8774929,5.6933827,-8.7028790,111.7862625,-175.8854980,-250.1374054
6680,-18.1096497,6.6199336,-8.5185261,85.5725174,-189.2824402,-250.1374054
6690,-19.6131992,7.5512733,-8.6933022,55.2748108,-159.5343475,-250.1374054
6700,-19.6131992,8.2216463,-9.1098909,18.3816795,-93.6946564,-181.8702240
6710,-19.6131992,7.9989872,-8.6669655,-16.8854961,-32.8167953,-84.4885483
6720,-19.6131992,7.3932571,-7.8074517,-45.9847336,9.0992365,16.6870232
6730,-19.6131992,7.0269461,-7.2759418,-70.8625946,36.8396950,102.9542007
6740,-19.6131992,5.7125359,-5.4443870,-83.5801544,34.6183205,173.5725250
6750,-19.6131992,5.7652082,-4.5776901,-85.6412201,21.1221371,225.6793823
6760,-16.4648399,5.4467812,-3.8977404,-84.8625946,8.3511448,250.1297760
6770,-13.6899757,5.0277977,-3.9599893,-81.9312973,1.5496184,250.1297760
6780,-11.3843708,5.0301919,-4.4005203,-83.2519073,0.2748092,250.1297760
6790,-9.4163475,4.8051381,-4.8649931,-89.9007645,5.9465647,250.1297760
6800,-6.9431496,4.4603748,-4.8745699,-100.7786255,23.7328243,250.1297760
6810,-4.3406653,4.0389977,-5.0421629,-115.7328262,51.4198456,250.1297760
6820,-2.4420733,3.7469065,-5.1235652,-135.3740387,87.9465637,250.1297760
6830,-0.3232156,2.8131726,-4.4436154,-159.8702240,128.8854980,250.1297760
6840,1.7357874,1.3048333,-2.5976956,-184.1755676,162.9541931,250.1297760
6850,5.1187773,-0.6033357,0.1867468,-201.5190887,168.1755676,250.1297760
6860,10.2614956,-2.2840567,3.9935081,-205.8320618,138.1908417,250.1297760
6870,19.6126022,-2.3941894,8.4682484,-195.9847260,77.9694672,250.1297760
6880,19.6126022,-1.6208663,13.6564569,-156.5419922,1.2748091,222.8778687
6890,19.6126022,-1.0558375,16.8048153,-104.9694672,-28.8931293,88.9389343
6900,19.6126022,-0.9050036,19.6126022,-53.0152664,-40.1374054,-33.5572510
6910,19.6126022,-1.1587877,19.6126022,12.8091602,-49.0381660,-132.2213745
6920,19.6126022,-1.2617378,19.6126022,83.4961853,-54.0381660,-196.5725250
6930,17.9612083,-0.8188128,16.3858318,144.5267181,-50.2442741,-228.5801544
6940,14.6500454,0.2896969,12.2606440,188.5801544,-25.3053436,-239.1374054
6950,12.6221666,1.5442522,8.1354561,216.9084015,17.0610695,-242.3435059
6960,11.2550850,2.7197993,4.3286943,232.3740387,64.4732819,-250.0229034
6970,9.3062143,3.3734128,0.6248835,240.6717529,103.6335907,-250.1374054
6980,7.0628591,3.7876077,-2.2098370,244.0610657,118.7709961,-250.1374054
6990,5.0325861,3.2441268,-3.8714044,249.4580078,105.5190811,-250.1374054
7000,1.9752063,2.5115047,-5.7556314,250.1297760,73.3511429,-250.1374054
7010,-4.2113791,1.6543850,-8.6406298,250.1297760,9.2824430,-250.1374054
7020,-11.0036945,1.6041069,-11.1305866,250.1297760,-106.1755753,-250.1374054
7030,-17.2980194,3.2034254,-12.8472204,238.2595367,-238.1297760,-250.1374054
7040,-19.6131992,5.6119800,-13.9557304,204.2900696,-250.1374054,-250.1374054
7050,-19.6131992,6.1339135,-14.6404686,152.7786255,-250.1374054,-250.1374054
7060,-19.6131992,8.3605099,-15.5861731,88.4580154,-237.8778687,-236.0763397
7070,-19.6131992,8.3150196,-14.3268299,16.7175579,-104.1679382,-130.6106873
7080,-19.6131992,7.5033898,-11.4633789,-39.9771004,12.3206110,-23.2748089
7090,-19.6131992,6.3086891,-7.8002691,-66.9770966,56.4961815,71.8931274
7100,-19.6131992,5.6838059,-5.4395986,-68.1450348,39.7251892,141.6793823
7110,-19.6131992,5.6000090,-4.6207857,-58.7633591,8.2442751,185.7175598
7120,-17.1854916,5.4898763,-4.9416070,-51.5648842,-15.4961834,211.5877838
7130,-14.8080616,5.2384863,-5.4826937,-49.2671738,-33.0839691,231.4045868
7140,-12.4330254,5.0445571,-6.1626434,-50.3816795,-49.4809151,250.1297760
7150,-10.1609402,5.0014620,-6.6821828,-54.3740463,-58.5190849,250.1297760
7160,-8.0899658,4.8434453,-6.7827387,-62.5801544,-58.6106873,250.1297760
7170,-6.3829093,4.4819226,-6.6151457,-72.4732819,-52.1374054,250.1297760
7180,-4.6327567,4.1251884,-6.3637557,-83.2748108,-45.2366409,250.1297760
7190,-1.9943599,3.6822634,-5.5736732,-93.6488571,-45.9389305,250.1297760
7200,1.8004304,3.4117200,-4.3981261,-99.4122162,-53.7633591,250.1297760
7210,5.7580256,3.4787574,-2.9376705,-98.9542007,-61.1374054,250.1297760
7220,8.8249826,3.6224086,-1.5011568,-95.1832047,-64.0839691,250.1297760
7230,12.0978394,3.5769191,-0.3256098,-91.1984711,-67.3664093,250.1297760
7240,15.5574427,3.7421181,0.9145803,-85.3435135,-71.2977066,229.3740387
7250,18.6938305,3.8498566,1.8985922,-77.3587799,-68.0534363,190.6793823
7260,19.6126022,4.1132174,2.9807658,-71.7862625,-51.0610695,150.5648804
7270,19.6126022,3.9336534,4.7811961,-65.7786255,-30.1145039,109.6412201
7280,19.6126022,4.0198441,6.8210459,-52.3206100,-11.5190840,62.8549614
7290,19.6126022,4.0533628,8.4395180,-35.0076332,14.5877867,9.8625956
7300,19.6126022,3.5960727,9.6605549,-8.6335878,29.9847336,-42.5877876
7310,19.6126022,3.3925664,9.9119444,26.1450386,38.4656487,-90.2748108
7320,18.6100349,3.3542595,8.9015961,62.6946564,40.8473282,-133.2824402
7330,15.7729197,3.5122759,7.0293403,94.7251892,43.3587799,-170.3816833
7340,13.2542324,3.9695661,4.6159973,119.6335907,53.9389305,-204.6870270
7350,10.8600435,4.3143296,1.6950861,136.2442780,65.1908417,-240.1832123
7360,8.2072811,4.5513539,-1.5155219,143.0076294,65.1526718,-250.1374054
7370,6.2608056,5.0637107,-3.8785870,142.5038147,56.2900772,-250.1374054
7380,4.4340386,4.8817525,-5.8035154,137.0763397,46.3893127,-250.1374054
7390,1.7860653,3.3566537,-7.0939832,128.6717529,35.0534363,-250.1374054
7400,-1.6088953,2.1236460,-8.2623482,117.6335907,14.7251911,-250.1374054
7410,-6.2416520,0.7517755,-8.5017672,105.2061081,-8.8931293,-250.1374054
7420,-12.5144281,0.1340746,-7.9558916,94.2519073,-35.5648842,-250.1374054
7430,-19.6131992,0.6895266,-6.8306227,84.2290039,-65.5954208,-250.1374054
7440,-19.6131992,2.3965836,-5.5329719,76.6870193,-109.9694672,-250.1374054
7450,-19.6131992,3.9097114,-5.1642666,75.5725174,-169.5877838,-248.9847260
7460,-19.6131992,5.5281835,-7.0939832,69.2213745,-185.7709961,-115.4427490
7470,-19.6131992,6.5888095,-10.4650021,43.3206100,-111.5114517,10.9312973
7480,-19.6131992,6.1434903,-12.1145983,-15.4427481,11.1908398,113.9083939
7490,-19.6131992,5.4683285,-9.8616667,-77.0305328,100.6488571,185.5343475
7500,-19.6131992,4.7021880,-5.3534074,-105.9007645,125.6030502,233.4122162
7510,-19.2229462,3.9408360,-2.4396791,-99.6030502,94.1145020,250.1297760
7520,-16.1679611,3.9791429,-1.6472024,-76.2442780,48.0381660,250.1297760
7530,-12.9477768,4.2353210,-2.9664006,-56.8854980,17.7480907,250.1297760
7540,-10.0555954,4.4460096,-4.9176650,-53.0992355,7.8015265,250.1297760
7550,-7.3501616,4.7452836,-6.3230543,-62.5954208,21.7251911,250.1297760
7560,-5.4036856,4.6447277,-7.2328463,-82.7480927,49.5190849,250.1297760
7570,-3.5960727,4.2233500,-7.6757712,-108.8778610,77.7099228,250.1297760
7580,-1.4125718,3.5218527,-7.0748301,-137.5496216,105.7099228,250.1297760
7590,1.0151364,2.5043221,-6.0261750,-166.7251892,135.7633514,250.1297760
7600,3.2417326,1.1875180,-4.4891052,-193.4961853,157.9160309,250.1297760
7610,5.6646523,0.1484398,-2.3606708,-215.5572510,169.8854980,250.1297760
7620,8.3030491,-0.4189832,0.4716553,-230.9465637,177.0686951,250.1297760
7630,10.6349897,-0.8523315,3.7995787,-237.8473358,188.2519073,250.1297760
7640,12.7634239,-1.6472024,7.0891948,-233.8778687,197.7480927,250.1297760
7650,15.9046001,-2.1332228,10.8600435,-218.1450348,179.1984711,250.1297760
7660,19.6126022,-1.7142396,14.7841196,-185.1068726,115.6488571,250.1297760
7670,19.6126022,-0.7805058,18.2820301,-131.3053436,39.7709923,151.9694672
7680,19.6126022,-0.6248835,19.6126022,-63.7786255,-21.3511448,39.0305328
7690,19.6126022,-1.0869620,19.6126022,7.0458016,-67.5725174,-62.1603050
7700,19.6126022,-1.1300575,17.5039196,69.4045792,-99.7557220,-137.6335907
7710,18.5645447,-0.2681492,14.3435888,118.0916061,-123.3740463,-189.1374054
7720,15.7250366,0.4668669,11.0491848,151.6641235,-124.6488571,-222.4732819
7730,13.6420918,0.9840119,8.5568333,173.5648804,-101.4580154,-243.3129730
7740,11.5759058,1.9847831,6.0525107,187.7251892,-64.5725174,-250.1374054
7750,9.5360565,3.1363883,3.8402798,197.9160309,-26.9923668,-250.1374054
7760,8.0277176,4.1443419,1.3790531,204.4274750,2.4274809,-250.1374054
7770,6.7252784,4.9200592,-1.0989330,207.4351196,23.5877857,-250.1374054
7780,5.5018473,5.5688848,-3.6631098,206.0076294,28.5877857,-250.1374054
7790,4.2736282,5.7316895,-5.9543490,197.5648804,20.7404575,-250.1374054
7800,2.7940190,5.0421629,-7.8218169,183.3511505,3.6412213,-250.1374054
7810,0.9935886,4.2113791,-8.6861191,167.4732819,-20.3587780,-250.1374054
7820,-1.2976507,3.0142846,-8.5209198,153.1526642,-47.4580154,-250.1374054
7830,-4.7596488,2.0326669,-7.4100165,143.6030579,-69.3587799,-250.1374054
7840,-9.4498653,1.7333932,-6.1123657,137.5114441,-90.8778610,-250.1374054
7850,-14.7793312,2.0973101,-4.9703374,132.1984711,-110.1374054,-250.1374054
7860,-19.6131992,3.0310438,-3.9480183,126.3893127,-125.4732819,-250.1374054
7870,-19.6131992,4.0916696,-3.5553713,118.4809189,-141.6335907,-250.1374054
7880,-19.6131992,5.1953912,-4.2760224,110.5725174,-151.1755676,-208.5038147
7890,-19.6131992,6.3541789,-6.8545642,98.3893127,-127.5648880,-109.7099228
7900,-19.6131992,7.4435349,-9.8281479,67.9770966,-63.1526718,-23.2442741
7910,-18.0833130,8.0372944,-12.3252869,17.8244267,30.6183205,51.2442741
7920,-16.8287582,7.7978749,-13.0531206,-45.6488533,120.0687027,117.0457993
7930,-15.6484222,7.2472115,-11.6980095,-105.0152664,178.2519073,171.8167877
7940,-14.3579540,6.7827387,-9.0428534,-144.2061005,203.5343475,215.3053436
7950,-12.1936073,6.3254485,-6.4475522,-163.6641235,203.3816833,248.1068726
7960,-9.6916790,6.1243367,-4.7620430,-171.2824402,187.9465637,250.1297760
7970,-7.5033898,6.1506729,-3.0262554,-170.4122162,164.9084015,250.1297760
7980,-5.4659348,6.3685441,-1.9273225,-165.0076294,132.5572510,250.1297760
7990,-3.4572096,6.1650376,-1.3287752,-158.3969421,96.9694672,250.1297760
8000,-0.9600700,5.5018473,-0.8762733,-151.0839691,50.2442741,250.1297760
8010,1.8578910,4.7189474,-0.2394189,-141.9084015,-18.6106873,250.1297760
8020,5.9591374,4.0773048,0.0957676,-128.5954132,-107.2442780,250.1297760
8030,10.3764172,4.5130472,0.3639168,-108.4580154,-188.8167877,231.9160309
8040,13.9341822,5.1642666,0.2753318,-87.6335907,-224.7709961,190.0610657
8050,17.9133263,6.3781209,0.7972651,-73.6641235,-198.6259613,142.6259613
8060,19.6126022,6.9718795,4.0964580,-55.2442741,-159.2442780,94.4122162
8070,19.6126022,8.6166878,6.9263902,-39.5038185,-107.0076370,33.9771004
8080,19.6126022,9.2200232,8.9255381,-27.1145039,-42.4198456,-37.9694672
8090,19.6126022,8.4275465,10.4266949,-2.4122138,9.5877867,-119.0763321
8100,16.2326050,6.8641410,10.2447367,43.8396950,11.1145039,-196.8549652
8110,12.3803539,5.4372044,7.8625183,93.1145020,-16.7251911,-250.1374054
8120,9.5097208,4.6447277,4.3837609,130.2671814,-52.9847336,-250.1374054
8130,6.8497758,4.0342093,1.1396341,150.4503784,-76.8091583,-250.1374054
8140,3.9647777,3.0813217,-1.5610116,152.5725250,-87.5572510,-250.1374054
8150,1.2473727,2.0518203,-3.4476328,144.3129730,-91.3435135,-250.1374054
8160,-2.2074428,0.7637464,-4.4771342,132.0839691,-83.7175598,-250.1374054
8170,-8.2384062,-0.0646431,-4.6686692,117.6641235,-78.7251892,-250.1374054
8180,-14.2717638,0.0502780,-4.2089849,105.1297684,-94.4045792,-250.1374054
8190,-19.6131992,1.3790531,-3.3375001,99.2519073,-119.5648880,-250.1374054
8200,-19.6131992,2.6527619,-3.3255291,93.6564865,-132.1908417,-250.1374054
8210,-19.6131992,3.5218527,-4.1180058,83.3587799,-128.3740387,-217.0458069
8220,-19.6131992,4.1946201,-5.8130918,67.5801544,-99.6412201,-94.4122162
8230,-19.6131992,4.2784166,-7.8816719,39.2977104,-14.8702288,31.5801525
8240,-19.6131992,4.3813667,-9.4570484,-5.0839696,83.5801544,136.5496216
8250,-19.6131992,3.4356618,-9.7539282,-62.9389305,148.5114441,218.9389343
8260,-19.4647598,3.4380560,-8.7292147,-110.5038147,185.1374054,250.1297760
8270,-16.8718529,3.4763632,-7.0125809,-139.4885559,204.4045868,250.1297760
8280,-15.0211449,3.4260850,-5.8921003,-154.4580078,196.5267181,250.1297760
8290,-12.6987810,3.2896163,-4.9559722,-159.8244324,165.3358765,250.1297760
8300,-10.0555954,3.4045374,-4.2640514,-159.0381622,129.5725250,250.1297760
8310,-8.0588417,3.2991931,-4.0006905,-157.5496216,94.2977066,250.1297760
8320,-5.5593081,2.9233053,-4.0773048,-161.6793823,64.0000000,250.1297760
8330,-2.9472473,2.0135133,-4.1611013,-170.0229034,44.5877876,250.1297760
8340,-0.1268920,0.8714849,-3.6224086,-180.3282471,33.7022896,250.1297760
8350,2.6503677,-0.1125269,-2.8562679,-190.5954132,18.4732819,250.1297760
8360,5.5066357,-1.3000449,-1.5346755,-197.2519073,-5.1145039,250.1297760
8370,9.1936874,-2.0159075,0.4309541,-196.6946564,-42.8931313,250.1297760
8380,14.6596222,-1.3551112,3.3853838,-181.3358765,-96.6259537,250.1297760
8390,19.6126022,1.1085097,6.6821828,-147.8854980,-143.0229034,250.1297760
8400,19.6126022,3.7852135,9.4953556,-103.8167953,-145.2366486,192.0915985
8410,19.6126022,5.4372044,12.1553001,-58.6717567,-109.0610657,75.8549652
8420,19.6126022,6.0956063,14.0658627,-18.5343513,-67.6488571,-30.6030540
8430,19.6126022,5.5186067,14.5111818,17.6412220,-49.5267181,-116.3893127
8440,19.6126022,4.4675574,13.7665892,57.0534363,-72.3358765,-177.6259613
8450,17.6427822,4.2041965,10.5942879,96.6030502,-95.5725174,-219.1068726
8460,15.2916880,4.1036406,7.1610208,127.7557220,-86.4198456,-250.1374054
8470,13.0507269,4.7093706,3.5410061,147.6564941,-52.3587799,-250.1374054
8480,10.5727406,5.3198891,0.7900825,150.9313049,-13.3587790,-250.1374054
8490,7.9606800,5.3797436,-0.9026094,147.0229034,10.2213745,-250.1374054
8500,6.0237808,5.9663200,-2.7509236,134.7480927,23.8244267,-250.1374054
8510,4.7093706,5.4491754,-3.4476328,121.0534363,36.1603050,-250.1374054
8520,3.3590479,4.9607606,-3.2153964,114.6412201,34.1603050,-250.1374054
8530,1.9919657,3.8283088,-3.5817075,115.2366409,21.9083977,-250.1374054
8540,0.2154770,2.0039365,-3.7684543,120.3053436,2.0381680,-250.1374054
8550,-2.6264257,0.2825144,-3.7181761,129.3053436,-24.3358784,-250.1374054
8560,-7.0891948,-0.9193687,-4.0366035,137.0839691,-53.4885483,-250.1374054
8570,-13.0483322,-1.3239868,-4.1395535,135.9160309,-87.2595444,-250.1374054
8580,-19.6131992,-1.1037214,-3.4141142,128.1679382,-127.2290039,-250.1374054
8590,-19.6131992,-0.3519458,-1.9823889,119.9312973,-171.6030579,-250.1374054
8600,-19.6131992,0.2513899,-2.0613971,114.6641235,-211.7633514,-250.1374054
8610,-19.6131992,0.8643024,-4.2161674,109.7175598,-202.5725250,-140.6717529
8620,-19.6131992,2.1763182,-7.3860745,92.4809189,-129.4809113,-18.8091602
8630,-19.6131992,2.7341642,-9.7970228,56.4732819,-19.0992374,96.0076370
8640,-19.6131992,2.9879484,-10.9749641,1.2824427,81.8931274,187.8320618
8650,-19.6131992,2.6431851,-10.5009146,-63.3358765,136.0076294,250.1297760
8660,-18.4855366,2.5498118,-8.1522150,-115.6717529,145.2671814,250.1297760
8670,-16.1990852,2.2433555,-5.6909885,-141.8549652,132.7328186,250.1297760
8680,-13.7306767,2.3774302,-3.7804251,-142.3511505,114.2061081,250.1297760
8690,-11.4154949,2.2840567,-2.9161227,-128.4885559,95.2137375,250.1297760
8700,-8.8632889,2.3247581,-3.0478032,-114.4198456,80.1297684,250.1297760
8710,-6.4331870,2.1571648,-3.5817075,-111.9236679,73.2290039,250.1297760
8720,-3.8187323,1.7693061,-3.9743545,-119.7404556,75.6335907,250.1297760
8730,-1.2617378,1.4365137,-4.1275826,-137.2519073,89.7557220,250.1297760
8740,0.7158626,0.4477134,-2.9664006,-158.8854980,113.4809189,250.1297760
8750,3.1196289,-0.7996593,-1.2186425,-179.1755676,134.9160309,250.1297760
8760,7.1777802,-1.2952565,1.3742647,-191.4427490,128.0534363,250.1297760
8770,14.0634689,-0.2130829,4.8003497,-182.0915985,79.3740463,250.1297760
8780,19.6126022,2.4755919,8.5328913,-145.8320618,6.1526718,250.1297760
8790,19.6126022,5.7269011,11.7004042,-88.5114517,-55.2977104,223.4351196
8800,19.6126022,8.5735922,12.8232784,-27.8625946,-72.0763321,81.2671738
8810,19.6126022,8.6214762,13.1249466,19.9160309,-64.0457993,-55.1221390
8820,19.6126022,7.8122401,12.4330254,56.4503822,-75.9312973,-150.8091583
8830,19.6126022,7.1586266,10.1369982,80.7022934,-112.0916061,-208.9541931
8840,15.5239248,6.2584114,7.5536675,95.5114517,-140.5877838,-245.1221313
8850,12.2486734,5.6622581,4.6375451,101.6106873,-137.0763397,-250.1374054
8860,9.7084379,5.9112539,1.7621235,107.4045792,-103.3282471,-250.1374054
8870,7.3525558,6.0860295,-0.5315101,110.2137375,-55.7099228,-250.1374054
8880,5.1211715,6.5600791,-2.3391230,110.0152664,-14.8625956,-250.1374054
8890,3.4428444,6.6797886,-3.8857694,101.7480927,18.1145039,-250.1374054
8900,1.9392935,6.4547348,-4.7165532,93.1526718,38.0992355,-250.1374054
8910,0.1747758,5.8466105,-4.9559722,82.3358765,40.2671738,-250.1374054
8920,-1.7118455,4.9176650,-4.8913293,74.0152664,26.2290077,-250.1374054
8930,-3.8283088,3.9192882,-4.5369892,70.6946564,2.2977099,-250.1374054
8940,-6.1746144,3.2537034,-4.0222383,73.4580154,-19.2137413,-250.1374054
8950,-9.5647869,2.7030399,-3.4524212,78.4961853,-35.2137413,-250.1374054
8960,-14.3388004,2.5713594,-3.3135581,80.9083939,-52.5343513,-250.1374054
8970,-19.4934902,2.7676830,-3.1363883,81.6259537,-81.2137375,-250.1374054
8980,-19.6131992,3.3159523,-3.6918402,80.3740463,-112.5190811,-210.4351196
8990,-19.6131992,3.6942344,-4.7381010,75.8549652,-129.0076294,-132.4274750
9000,-19.6131992,4.5465660,-6.0165982,66.2290039,-107.0763321,-43.7251892
9010,-19.6131992,5.4515696,-7.9391322,40.1755714,-39.1984749,37.3129768
9020,-19.6131992,5.4611464,-8.4251528,3.0534351,49.4961815,112.1832047
9030,-17.8678360,4.8218975,-8.0875721,-43.2442741,123.3664093,171.9465637
9040,-15.7394018,4.5130472,-6.5648675,-87.7938919,163.1374054,220.9770966
9050,-13.4385853,4.3670015,-4.8003497,-118.5496216,174.7480927,250.1297760
9060,-11.1521349,4.1874375,-3.1938488,-131.6106873,175.4732819,250.1297760
9070,-9.2008705,4.3765783,-2.3702476,-131.4045868,168.0076294,250.1297760
9080,-7.8577299,4.5729017,-1.8483143,-124.4961853,159.6564941,250.1297760
9090,-6.6127515,4.3406653,-1.6232605,-116.9236679,147.6412201,250.1297760
9100,-5.0948353,4.2832050,-1.7118455,-112.3511429,136.3358765,250.1297760
9110,-3.4787574,4.2784166,-1.8387375,-112.9465637,133.9847260,250.1297760
9120,-1.7477583,4.0868812,-1.8602852,-118.3893127,141.7938995,250.1297760
9130,-0.0598547,3.6176202,-1.6256547,-128.4122162,159.6793823,250.1297760
9140,1.6879035,3.0789278,-0.7876883,-141.1068726,175.5801544,250.1297760
9150,3.7349355,2.5043221,0.7398046,-151.5648804,174.5496216,250.1297760
9160,7.2567883,2.2218077,2.8059900,-152.1679382,144.5496216,250.1297760
9170,11.5567522,2.8323262,5.2145448,-137.1908417,79.5648880,250.1297760
9180,16.8790359,4.6016321,7.1825686,-106.4732819,-4.1374044,246.8625946
9190,19.6126022,6.5696559,8.9375095,-64.8320618,-77.0076370,158.2824402
9200,19.6126022,7.8888540,9.8688488,-17.9236641,-123.5725174,55.1984749
9210,19.6126022,8.3222027,9.9813757,26.3206100,-141.3664093,-42.1679382
9220,19.6126022,8.2934723,9.3349447,61.7557259,-143.8549652,-116.5877838
9230,18.2892132,7.9199786,7.9439206,86.2442780,-148.6183167,-163.9160309
9240,14.9517136,7.6350703,5.6143742,100.4656525,-154.6030579,-188.9160309
9250,12.7107515,7.2735476,3.4548154,106.0457993,-141.9236603,-205.0992432
9260,10.4745789,7.3334022,1.5346755,107.5572510,-109.1297684,-217.2290039
9270,8.1641865,7.3525558,-0.1221037,108.6259537,-64.9923630,-224.7709961
9280,6.2823529,7.3597383,-1.6472024,107.6259537,-20.4809170,-226.8396912
9290,4.8793583,7.5225434,-2.9161227,105.1450348,19.9618320,-229.2366486
9300,3.9552009,7.4866304,-3.6056492,100.6488571,56.4961815,-240.8625946
9310,2.6072724,7.6207051,-4.1730723,94.5267181,66.7480927,-250.1374054
9320,1.1468167,7.1658092,-4.5250182,87.7862625,55.7175560,-250.1374054
9330,-0.4429250,6.0620875,-4.5441718,88.0457993,36.5648842,-250.1374054
9340,-3.2273674,5.0110383,-4.6471219,95.0763321,12.7480917,-250.1374054
9350,-6.7923155,4.4507980,-5.0182209,102.1450348,-17.2061062,-250.1374054
9360,-10.9127159,4.3861551,-5.5138183,101.3206100,-49.9847336,-250.1374054
9370,-15.7920732,4.7357068,-6.0094156,100.3511429,-75.8320618,-250.1374054
9380,-19.6131992,5.6287394,-7.0820122,88.7328262,-96.1221390,-214.1221313
9390,-19.6131992,5.4276276,-8.2671366,71.8549652,-112.0992355,-129.2213745
9400,-19.6131992,5.6478930,-9.6246414,49.7480927,-99.7022934,-33.2824440
9410,-19.6131992,6.3924856,-11.2407198,11.3206110,-47.9847336,54.5496178
9420,-17.7122135,6.6438756,-11.7626524,-42.3053436,33.9541969,125.3511429
9430,-14.8104563,6.2320752,-10.4027529,-97.3358765,113.7099228,176.5877838
9440,-12.5575237,5.5329719,-7.8266053,-135.8931274,167.8244324,214.1374054
9450,-10.9797525,5.0732875,-5.4539638,-153.9770966,190.4045868,239.3282471
9460,-9.5576038,4.9104824,-3.6056492,-158.3435059,189.0992432,250.1297760
9470,-7.9032192,4.8865409,-2.3534882,-154.7557220,172.0992432,250.1297760
9480,-6.0381460,4.9416070,-1.6448082,-147.8396912,149.4274750,250.1297760
9490,-3.9982965,4.7381010,-1.6376256,-141.3893127,128.6106873,250.1297760
9500,-1.9249283,4.5298066,-1.6160779,-138.3816833,108.4580154,250.1297760
9510,0.3399749,4.3239059,-1.6855093,-139.4351196,85.9542007,250.1297760
9520,2.6072724,3.5960727,-1.1109039,-141.3664093,56.1908379,250.1297760
9530,6.1554613,3.3207407,0.0502780,-138.2900696,1.4045801,250.1297760
9540,10.9366570,3.9719603,1.9297167,-121.8396912,-81.7404556,238.6412201
9550,15.9883976,5.4252334,3.6391680,-91.4503784,-172.8244324,182.2366486
9560,19.6126022,7.3717093,5.4252334,-53.9007645,-241.5114441,106.1832047
9570,19.6126022,8.8201942,6.4595232,-19.9618320,-250.1374054,23.4809170
9580,19.6126022,9.4762020,6.9383612,0.5572519,-211.0763397,-50.6335869
9590,19.6126022,9.3900108,7.7475972,16.5954189,-146.4809113,-106.8854980
9600,16.4217453,8.8010406,7.9726510,38.4961815,-99.2366409,-144.4045868
9610,13.2278967,8.0564480,6.9718795,65.8549652,-72.3587799,-172.4198456
9620,10.0555954,7.2759418,5.1738434,92.5801544,-53.0916023,-193.9465637
9630,6.8641410,6.8138633,2.5953014,111.4656525,-33.3435097,-205.3435059
9640,4.6423335,7.3214312,0.2681492,117.4961853,-22.9465656,-208.2366486
9650,3.3494711,7.2903070,-1.4317253,116.4503784,-12.6106873,-208.4045868
9660,2.0661855,7.3525558,-2.8562679,108.9465637,5.1526718,-209.8854980
9670,0.5410868,7.3262196,-3.7373297,99.1221390,24.8244267,-209.9923706
9680,-1.1444225,7.1993275,-4.2209558,86.9694672,36.5725174,-208.8015289
9690,-2.8179610,6.9048424,-4.3789725,80.4961853,38.7175560,-204.3664093
9700,-4.8625989,6.8928714,-4.7285242,78.5343475,31.8244267,-195.5419922
9710,-7.2783360,6.8521700,-5.3270717,77.0610657,18.0458012,-179.4351196
9720,-9.1721401,6.9479380,-5.9830794,74.2061081,-0.4656489,-156.4274750
9730,-10.3548698,7.2927012,-6.7420373,68.1068726,-17.0229015,-126.7633591
9740,-10.9103212,7.5871863,-7.4866304,57.8244286,-24.1603050,-94.6030502
9750,-11.0252428,7.9726510,-8.1426382,40.4122124,-19.1679382,-61.2900772
9760,-10.7211800,8.0325060,-8.2120695,18.4045811,-2.1068702,-28.5954189
9770,-10.1250277,7.9630742,-7.8026633,-3.5038168,21.0152664,3.2213740
9780,-9.2679071,7.8529415,-6.9551206,-21.0229015,43.3511467,32.6030540
9790,-8.1617918,7.7978749,-6.0046272,-33.6183205,56.3206100,55.1145020
9800,-7.0317345,7.6254935,-5.0924411,-39.2900772,58.7786255,71.2061081
9810,-5.9256191,7.5943689,-4.6590929,-42.0000000,57.5801544,83.0457993
9820,-5.2480631,7.6709828,-4.7213416,-44.9160309,55.6335869,92.6641235
9830,-4.9942794,7.5800037,-4.4938936,-48.3129768,50.3129768,98.4351120
9840,-4.3382711,7.6685886,-3.8857694,-50.2824440,44.0534363,106.7328262
9850,-3.9192882,7.8170285,-3.6367738,-50.8625946,40.4122124,113.5267181
9860,-4.3933377,7.7643566,-3.5601597,-52.8091621,43.4045792,122.8854980
9870,-5.0517397,7.5991573,-3.3997490,-56.2519073,54.4198456,139.2366486
9880,-4.6782460,7.5560617,-3.1794837,-61.5038185,63.7709923,159.7404633
9890,-3.5745249,7.3693151,-2.5306582,-63.6412201,63.9541969,176.4351196
9900,-1.9919657,7.0365229,-2.0230901,-62.1221390,54.3893127,187.4809113
9910,0.5841822,7.1155310,-1.6519908,-56.0076332,27.6793900,190.0381622
9920,4.0198441,7.6685886,-1.3838415,-45.5343513,-13.2137403,179.3129730
9930,6.3493905,8.1234846,-1.6424140,-33.5801544,-51.6946564,156.5190887
9940,8.6597834,8.6813307,-1.6926919,-25.6412220,-84.7557220,128.1374054
9950,10.8600435,9.3995876,-0.8643024,-17.7328243,-107.8473282,96.4885483
9960,12.7921543,9.8113880,-0.2298422,-8.4809160,-121.7709961,58.6870232
9970,14.0586805,10.4266949,0.6703730,1.9465649,-120.9465637,17.0534344
9980,14.4417505,10.7187862,1.2473727,12.5877867,-106.3129807,-24.6946564
9990,13.6325150,10.7355452,1.6328372,24.1297703,-84.4427490,-64.7557220
