timestamp,acclX,acclY,acclZ,gyroX,gyroY,gyroZ
0,7.1394730,3.3782012,5.9854736,71.4274826,-85.2137375,-53.6183205
10,7.3310080,3.8929520,5.5952206,74.1526718,-75.0610657,-50.5038185
20,6.9646969,3.5864959,5.3151007,72.1603088,-75.1908417,-46.9923668
30,6.8545642,3.5074875,4.9487896,67.5038147,-77.5572510,-42.5419846
40,6.8545642,3.4356618,4.6112089,60.4045792,-78.0076370,-39.0381660
50,6.8569584,3.5050933,4.5226240,55.6946564,-81.0610657,-34.7862587
60,6.6079631,3.9001346,4.6543045,50.8702278,-75.8931274,-29.9618320
70,6.5121951,4.2137733,4.4675574,49.6870232,-80.0381699,-23.9923668
80,6.4427638,4.6112089,3.9216824,49.3816795,-85.0610657,-19.3587780
90,6.1506729,4.8051381,3.6032550,45.3893127,-81.1068726,-17.0305347
100,5.9160423,4.6255741,3.5314295,43.4580154,-82.3664093,-12.7404585
110,6.2871413,4.7835903,3.2417326,43.0000000,-86.2137375,-7.1832061
120,6.7396431,4.9847026,3.0214672,43.3969460,-87.5114517,-0.9007633
130,8.1426382,5.7676024,2.2002602,35.8091621,-46.5572510,13.6946564
140,8.0133524,5.7173243,1.8961980,29.3511448,-33.8167953,17.2671757
150,7.8002691,5.7412663,1.3096216,19.8015270,-28.5725193,21.6183205
160,7.3453732,6.0285692,0.1963235,-9.4885492,-22.5038166,31.3664131
170,6.8689294,6.2009506,0.4333483,-27.9465656,-14.3206110,40.3358765
180,5.4946647,5.1403246,5.7508430,-18.8320618,29.9618320,44.9312973
190,5.4300218,5.9974446,0.9959828,-22.4885502,-15.6106873,64.8778610
200,5.6095858,4.9248476,3.1890604,-18.8473282,17.0534344,82.1908417
210,5.3749552,5.7197185,1.9752063,-12.8854961,11.3969469,104.5038147
220,5.9016771,5.8633699,1.2856797,-18.5801525,20.7938938,124.2137375
230,6.7492199,5.1259594,0.7852941,-28.5954189,20.9160309,142.9313049
240,8.6310530,4.4819226,0.1484398,-44.1450386,22.6412220,154.5572510
250,10.8815908,4.2233500,-0.0861908,-66.4580154,33.1450386,155.7786255
260,12.8232784,4.6327567,0.2753318,-91.1679382,43.9465637,145.6870270
270,14.1783895,4.0605454,1.0821736,-112.4351120,68.4122162,125.3969498
280,13.2374735,2.7269819,1.9799947,-124.5114517,71.9007645,99.8549652
290,14.9565020,2.9807658,3.3351059,-136.9236603,54.8396950,69.9465637
300,15.2342272,2.0949159,5.8154860,-148.8549652,11.1832066,30.6335869
310,16.6683464,0.4213773,8.2479830,-148.3816833,-53.3511467,-18.0305347
320,17.3578739,-0.8643024,10.0460186,-135.2366486,-106.4427490,-76.3969498
330,17.4536419,-0.8762733,11.0731258,-104.8320618,-150.2977142,-138.1832123
340,16.4600525,-0.5937590,11.2790270,-66.4809189,-187.2519073,-200.1755676
350,15.5909615,-0.8834559,10.7211800,-26.7022896,-231.8702240,-250.1374054
360,14.7122946,-1.1468167,9.7180147,4.9541984,-250.1374054,-250.1374054
370,13.2925396,-1.2856797,9.3660688,26.3740463,-250.1374054,-250.1374054
380,12.4641504,-1.0702027,8.2096758,45.0687027,-250.1374054,-250.1374054
390,11.9781294,-1.1132981,7.4267755,58.5801544,-250.1374054,-250.1374054
400,11.1832590,-0.8978211,7.3046722,71.0839691,-250.1374054,-250.1374054
410,10.2950144,-1.2425843,7.9678626,87.3129807,-250.1374054,-250.1374054
420,9.2200232,1.0295014,7.2065101,109.0229034,-250.1374054,-250.1374054
430,8.8441362,1.1539993,5.3127065,125.2366409,-250.1374054,-250.1374054
440,8.0779953,1.2952565,3.0071020,131.8931274,-250.1374054,-250.1374054
450,7.4483232,1.5825592,0.9911944,127.2824402,-250.1374054,-250.1374054
460,6.3589673,2.6431851,-0.1915352,115.1755753,-250.1374054,-250.1374054
470,4.6183915,3.7181761,-0.9888002,98.9160309,-222.7786255,-250.1374054
480,2.6575503,4.5034704,-1.5538290,86.5648880,-188.1068726,-250.1374054
490,1.6088953,5.4898763,-2.1763182,74.1603088,-152.6870270,-250.1374054
500,1.2497669,6.3900914,-2.7988074,63.2061081,-118.5954208,-250.1374054
510,0.7445929,6.1722202,-3.6894460,52.8549614,-85.7175598,-250.1374054
520,0.7996593,6.1602492,-4.2137733,42.4427490,-72.9694672,-250.1374054
530,-0.1915352,5.3055239,-4.5274124,32.6335869,-86.2900772,-250.1374054
540,-0.1173153,5.3366485,-3.7014170,26.1832066,-83.1755753,-250.1374054
550,-1.2234308,4.7069764,-3.3638363,26.6335869,-86.8244247,-250.1374054
560,-3.2704628,4.4124913,-2.8203552,32.9541969,-110.1221390,-250.1374054
570,-4.8290801,4.3334827,-1.2617378,43.3893127,-154.4809113,-250.1374054
580,-6.9623032,3.8881636,-0.5602403,51.9007645,-198.2824402,-250.1374054
590,-9.4546537,3.1651185,0.3256098,52.8931313,-232.8473358,-250.1374054
600,-12.8711624,2.4444675,0.5386927,45.4274826,-250.1374054,-250.1374054
610,-15.4712524,2.2289903,-0.1819584,27.3129768,-250.1374054,-250.1374054
620,-17.7002430,2.7533178,-0.1029501,7.6335878,-237.9389343,-250.1374054
630,-19.6131992,3.2704628,-0.6081241,-9.2519083,-213.1297760,-224.2977142
640,-19.6131992,3.9504125,-0.1723816,-11.8854961,-170.3969421,-127.2671738
650,-19.6131992,4.3119354,-0.5626345,-12.7938929,-130.0458069,-21.3969460
660,-19.6131992,3.9623835,-1.4484847,-14.4045801,-95.1450348,84.3511429
670,-19.6131992,3.4069316,-2.6719155,-25.5877857,-56.1832047,178.4351196
680,-19.3905411,2.1308286,-3.5673423,-44.3893127,-9.9923668,250.1297760
690,-17.8007984,1.5729824,-3.1363883,-66.7251892,53.4961815,250.1297760
700,-16.2541523,1.2856797,-1.9392935,-85.9694672,118.0229034,250.1297760
710,-14.3986549,0.7326220,-1.2425843,-99.7328262,182.5419922,250.1297760
720,-12.6389265,0.3998296,0.1628049,-110.7557220,237.7175598,250.1297760
730,-10.5296450,-0.0502780,1.6639616,-120.0305328,250.1297760,250.1297760
740,-8.1091194,-0.6584021,2.9065459,-125.8167953,250.1297760,250.1297760
750,-5.3390427,-1.2186425,3.2369442,-127.3816757,250.1297760,250.1297760
760,-2.4181314,-1.7860653,3.1507533,-128.2366486,250.1297760,250.1297760
770,0.4788379,-2.6503677,3.2465210,-136.0381622,250.1297760,250.1297760
780,5.3701668,-3.6463506,3.5984666,-145.3435059,208.6870270,250.1297760
790,12.6556854,-4.7572546,4.0246325,-144.4732819,155.4503784,250.1297760
800,19.6126022,-3.8570392,5.8035154,-126.5725174,93.3435135,250.1297760
810,19.6126022,-1.7070571,9.0284882,-93.9542007,7.9236641,250.1297760
820,19.6126022,-0.4788379,11.9302464,-53.6259537,-96.5038147,104.9083939
830,19.6126022,-0.9888002,11.8296900,-17.6335869,-184.3358765,-131.6641235
840,19.6126022,-1.0055596,11.1090393,13.9312973,-245.0229034,-250.1374054
850,19.6126022,-1.0510491,10.3548698,44.4885483,-250.1374054,-250.1374054
860,19.6126022,-0.7852941,9.0715837,70.9847336,-250.1374054,-250.1374054
870,14.8966465,-0.5291159,6.5888095,96.4274826,-250.1374054,-250.1374054
880,9.9622221,0.2011119,4.1299767,114.2748108,-250.1374054,-250.1374054
890,5.9519548,-0.2825144,0.8188128,113.9694672,-221.6717529,-250.1374054
900,1.8578910,-0.8786675,-2.2529323,94.9465637,-179.1145020,-250.1374054
910,-1.8554969,-1.5418580,-3.5769191,63.3587799,-130.9084015,-250.1374054
920,-7.6805596,-3.0813217,-2.8754215,35.3893127,-111.3740463,-250.1374054
930,-14.9253769,-2.2720859,-1.2737088,18.2977104,-124.2671738,-250.1374054
940,-19.6131992,-1.0247130,0.4285599,11.6793890,-143.0610657,-250.1374054
950,-19.6131992,-0.3663110,1.8411317,12.7022905,-165.5648804,-250.1374054
960,-19.6131992,2.7078283,1.1037214,14.9618320,-179.9007568,-250.1374054
970,-19.6131992,5.6215568,-2.2625091,-6.2900763,-124.5496216,-138.2213745
980,-19.6131992,4.6710634,-3.3159523,-42.0534363,-24.9770985,52.7404594
990,-19.6131992,3.6056492,-1.6639616,-69.1832047,75.3282471,250.1297760
1000,-19.6131992,2.1787124,0.9026094,-78.5419846,163.2748108,250.1297760
1010,-19.6131992,0.6464311,2.9687948,-72.3511429,232.6335907,250.1297760
1020,-19.6131992,-0.5291159,4.0342093,-59.2824440,250.1297760,250.1297760
1030,-17.2046452,-1.6160779,4.3478479,-47.8549614,250.1297760,250.1297760
1040,-11.8919392,-3.6511390,5.0804701,-38.0916023,250.1297760,250.1297760
1050,-5.6047974,-4.8147149,4.4460096,-34.4274826,250.1297760,250.1297760
1060,-0.2418131,-4.5992379,4.5106530,-39.6793900,250.1297760,250.1297760
1070,5.2743993,-4.8721757,4.3933377,-49.2061081,250.1297760,250.1297760
1080,9.5097208,-4.8937230,4.5944495,-57.8931313,250.1297760,250.1297760
1090,13.4697094,-4.8889351,4.9823084,-56.3740463,244.8854980,250.1297760
1100,19.6126022,-3.5769191,5.4779053,-41.0152664,168.6488495,250.1297760
1110,19.6126022,-0.8619082,5.8513989,-12.7175570,44.8320618,250.1297760
1120,19.6126022,1.5562232,5.7436604,20.6183205,-83.0839691,163.1984711
1130,19.6126022,-0.5147507,2.1643472,27.9312973,-172.2595367,-108.8473282
1140,19.6126022,-3.1723011,-0.9959828,-9.1755724,-239.9160309,-250.1374054
1150,19.6126022,-2.7964132,0.6655847,-57.9236641,-250.1374054,-250.1374054
1160,19.6126022,-2.7293761,3.3063757,-79.3664093,-250.1374054,-250.1374054
1170,16.5342731,-2.2194135,5.4874821,-72.3053436,-250.1374054,-250.1374054
1180,9.9287033,-0.2059003,6.9168134,-48.1374054,-248.0763397,-250.1374054
1190,4.5106530,1.8531027,7.5584559,-10.9007635,-192.5496216,-250.1374054
1200,1.0438666,2.5689652,5.8418221,27.7328243,-143.5877838,-250.1374054
1210,-0.7709290,2.0781565,2.1451938,53.2519073,-91.5343475,-250.1374054
1220,-3.7780309,2.2960277,-1.1851238,57.7633591,-28.7175579,-250.1374054
1230,-7.5201492,3.1914546,-2.8323262,47.9312973,24.1832066,-250.1374054
1240,-12.2390966,3.1196289,-3.5266411,36.7862587,44.0458031,-250.1374054
1250,-18.0881004,3.6942344,-3.2034254,30.4045811,33.5954208,-250.1374054
1260,-19.6131992,4.6159973,-2.9472473,25.2748089,2.5877862,-240.6793823
1270,-19.6131992,6.0429344,-2.8299320,18.3282452,-36.1603050,-174.5725250
1280,-19.6131992,7.9032192,-3.5769191,-0.2519084,-56.3206100,-102.5343475
1290,-19.6131992,8.0564480,-4.4436154,-29.8702297,-37.2595406,-22.3969460
1300,-19.6131992,7.1251078,-3.9480183,-60.3664131,14.7938929,70.6717529
1310,-19.6131992,6.0644817,-1.5705882,-77.5725174,59.6412201,169.1450348
1320,-19.6131992,5.3294659,0.5195391,-74.8549652,89.9770966,250.1297760
1330,-18.8302994,4.9799142,1.3838415,-61.1755714,113.5648880,250.1297760
1340,-16.4935703,4.7548604,0.9768293,-46.6946564,133.9923706,250.1297760
1350,-13.6037846,5.0637107,-0.7996593,-38.7404594,148.0839691,250.1297760
1360,-10.5176744,5.2600341,-3.2034254,-45.2519073,167.3053436,250.1297760
1370,-7.3190370,4.7931671,-5.1929970,-69.5190811,188.3282471,250.1297760
1380,-4.4100971,3.5194585,-4.8171091,-105.0076370,190.4732819,250.1297760
1390,-1.9225341,2.4875629,-4.0796990,-142.6717529,182.9618378,250.1297760
1400,0.7469871,1.3718705,-2.9280937,-172.6030579,181.9770966,250.1297760
1410,4.5920553,0.0837966,-1.3000449,-190.3587799,190.4122162,250.1297760
1420,9.6509781,-0.5578461,0.1699875,-196.3206177,200.1908417,250.1297760
1430,15.8854465,-0.8236012,1.1276633,-194.8854980,209.4809113,250.1297760
1440,19.6126022,-0.2729376,2.8227494,-189.4580078,232.6793823,250.1297760
1450,19.6126022,0.8475431,5.5042415,-180.0000000,250.1297760,242.3053436
1460,19.6126022,1.1923064,9.8042059,-162.5038147,250.1297760,118.1832047
1470,19.6126022,1.4029950,14.6045561,-133.7404633,250.1297760,-0.8549618
1480,19.6126022,0.4525018,17.9444504,-90.3206100,175.8473358,-108.1526718
1490,19.6126022,-1.2904681,19.6126022,-35.5038185,92.6793900,-198.0305328
1500,17.1950684,-1.6232605,19.6126022,32.4656487,14.8320608,-250.1374054
1510,14.7673607,-0.5793939,18.2149925,99.7328262,-59.8854980,-250.1374054
1520,13.4050665,0.4046180,14.2861280,149.4580078,-100.7786255,-250.1374054
1530,11.7770176,0.8810617,9.9526453,179.1374054,-97.8931274,-250.1374054
1540,8.3006544,2.2960277,5.9639258,188.1145020,-69.9236679,-250.1374054
1550,6.0453281,4.4484038,3.5625539,180.7022858,-11.1526718,-250.1374054
1560,3.8187323,4.9368186,1.4556671,167.5648804,45.1755714,-250.1374054
1570,2.8873925,4.5681133,-0.0981618,154.2748108,99.9236679,-250.1374054
1580,2.0135133,3.7995787,-1.1587877,146.5572510,131.4198456,-250.1374054
1590,1.0127422,2.9735832,-1.4748207,148.4732819,150.2977142,-250.1374054
1600,-1.7429699,2.5450234,-2.3295465,162.0076294,149.4732819,-250.1374054
1610,-5.2600341,2.8395088,-3.8259149,182.9236603,114.0839691,-250.1374054
1620,-9.3852224,3.8977404,-5.4060798,204.0534363,55.3511467,-250.1374054
1630,-15.2845058,6.1315193,-7.3956513,220.7938995,-14.2137403,-250.1374054
1640,-19.6131992,7.5823979,-10.4889441,220.8091583,-60.4351158,-250.1374054
1650,-19.6131992,8.2910776,-13.9246063,189.3816833,-53.2671738,-233.5419922
1660,-19.6131992,7.6278877,-15.4305506,129.2519073,-2.4656489,-118.9694672
1670,-19.6131992,8.0468712,-15.7178535,47.0534363,53.9160309,7.8702292
1680,-19.6131992,7.5393028,-14.3340120,-40.4580154,83.1984711,126.0610657
1690,-19.6131992,6.7348547,-12.7538471,-117.1450348,80.1984711,212.0229034
1700,-18.7728386,6.0525107,-10.3261395,-176.9770966,52.3129768,250.1297760
1710,-14.0107965,5.9040713,-7.7284436,-212.2671814,16.3206100,250.1297760
1720,-11.3149395,4.7189474,-6.0022330,-229.3053436,-10.6106873,250.1297760
1730,-8.4467001,3.2967989,-5.2097564,-239.7022858,-27.3664131,250.1297760
1740,-5.5497313,2.3630650,-4.1180058,-249.3129730,-34.0381660,250.1297760
1750,-2.6503677,1.3287752,-2.8012016,-250.1374054,-33.3053436,250.1297760
1760,0.5051740,-0.0526722,-1.4652439,-250.1374054,-23.1221371,250.1297760
1770,4.5345950,-1.1348459,1.2306134,-250.1374054,-21.8320618,250.1297760
1780,10.0436249,-1.8028246,5.0421629,-250.1374054,-50.0458031,250.1297760
1790,17.3626614,-0.7254394,10.2447367,-229.0000000,-94.7099228,250.1297760
1800,19.6126022,1.0845678,16.6779232,-179.0458069,-127.2748108,203.4198456
1810,19.6126022,2.9711890,19.6126022,-102.4732819,-158.6030579,90.9389343
1820,19.6126022,3.5434003,19.6126022,-13.2137403,-165.6335907,-39.0763359
1830,19.6126022,3.8546450,19.6126022,70.4656525,-154.9313049,-154.3511505
1840,19.6126022,3.1507533,19.1343613,139.0992432,-141.3282471,-241.9007568
1850,19.6126022,2.6838863,14.6237087,186.8091583,-117.8015289,-250.1374054
1860,17.2070389,2.1356170,9.9215212,213.0152740,-79.5801544,-250.1374054
1870,13.8743277,1.9704180,6.2009506,219.4122162,-31.1679382,-250.1374054
1880,10.5607700,2.2864509,4.0533628,215.4961853,16.3664131,-250.1374054
1890,7.5297260,1.7166338,2.3415172,209.4732819,58.7328262,-250.1374054
1900,3.9743545,0.7924767,0.8858501,208.7862549,93.4122162,-250.1374054
1910,0.4405309,-0.1197095,-0.5746055,217.3358765,105.6488571,-250.1374054
1920,-3.6367738,-0.7924767,-2.2457497,231.2824402,95.4274826,-250.1374054
1930,-8.7770987,-0.6440369,-4.6136031,244.6259613,70.6412201,-250.1374054
1940,-14.7625723,-0.1149211,-6.9503322,250.1297760,40.3282433,-250.1374054
1950,-19.6131992,0.8044477,-9.4283180,250.1297760,26.5877857,-250.1374054
1960,-19.6131992,2.3103929,-12.8903160,235.8091583,68.3893127,-248.1374054
1970,-19.6131992,3.6511390,-17.5254669,166.0534363,70.6488571,-150.7099304
1980,-19.6131992,5.7939386,-19.6131992,37.7557259,47.3129768,-41.0458031
1990,-19.6131992,6.7420373,-19.6131992,-70.3816757,75.3435135,66.1984711
2000,-19.6131992,5.8681583,-16.7377777,-144.3664093,105.1984711,168.4809113
2010,-19.6131992,4.7357068,-13.9222116,-188.8091583,107.4732819,250.1297760
2020,-19.6131992,4.0485744,-11.6022425,-218.9465637,83.3740463,250.1297760
2030,-19.1750641,2.8897867,-10.0340481,-239.7633514,65.5648880,250.1297760
2040,-14.1137466,1.3096216,-9.6749191,-250.1374054,65.3587799,250.1297760
2050,-8.8992023,-0.5961532,-8.9494801,-250.1374054,77.7557220,250.1297760
2060,-4.0294209,-2.2888451,-6.9479380,-250.1374054,93.2290039,250.1297760
2070,0.5458752,-4.0006905,-3.7373297,-250.1374054,103.1450348,250.1297760
2080,6.2296810,-5.2743993,1.1516051,-250.1374054,83.5114517,250.1297760
2090,14.3603487,-5.2313042,7.4363523,-250.1374054,22.9770985,250.1297760
2100,19.6126022,-3.3303175,15.0594521,-250.1374054,-50.6412201,250.1297760
2110,19.6126022,-0.2154770,19.6126022,-248.6030579,-96.0152664,232.6183167
2120,19.6126022,2.1667414,19.6126022,-153.9847260,-102.8931274,97.8320618
2130,19.6126022,2.8490853,19.6126022,-53.1603050,-94.5877838,-45.9236641
2140,19.6126022,1.8243724,19.6126022,48.4961815,-85.2137375,-171.3053436
2150,19.6126022,0.2513899,19.6126022,146.8778687,-76.0992355,-250.1374054
2160,19.6126022,-0.7685348,19.6126022,228.1603088,-65.1068726,-250.1374054
2170,16.0482521,-1.2258250,17.2214050,250.1297760,-48.9389305,-250.1374054
2180,13.2278967,-1.4724265,11.1617117,250.1297760,-29.2519093,-250.1374054
2190,11.3412752,-1.4389079,6.3948798,250.1297760,-4.0229006,-250.1374054
2200,9.0572186,-1.7884595,2.4899571,250.1297760,40.3816795,-250.1374054
2210,6.7037306,-2.6360025,-0.7757174,250.1297760,76.5725174,-250.1374054
2220,3.7253587,-3.9384418,-3.8115497,250.1297760,99.5419846,-250.1374054
2230,-0.7374104,-5.2743993,-6.6079631,250.1297760,93.2442780,-250.1374054
2240,-5.9519548,-6.0094156,-9.3110027,250.1297760,55.2442741,-250.1374054
2250,-12.3564119,-5.6862001,-13.1129761,250.1297760,20.9312973,-250.1374054
2260,-19.6131992,-4.4316444,-18.2940025,250.1297760,-6.6259542,-250.1374054
2270,-19.6131992,-2.2337787,-19.6131992,210.6412201,-17.7633591,-250.1374054
2280,-19.6131992,0.1939293,-19.6131992,102.9847336,12.0763359,-250.1374054
2290,-19.6131992,1.5969244,-19.6131992,-26.1068707,74.2366409,-131.0763397
2300,-19.6131992,1.5490406,-19.6131992,-130.8931274,136.7633514,-14.1984730
2310,-19.6131992,1.2066715,-17.8271351,-188.7862549,137.9618378,90.2366409
2320,-19.6131992,1.7669119,-11.6764622,-196.3206177,75.7633591,169.1297760
2330,-19.6131992,2.3798244,-8.6142941,-178.5725250,-4.8625956,223.3358765
2340,-19.6131992,2.6431851,-7.3884687,-157.0381622,-71.5572510,250.1297760
2350,-19.3570213,2.1667414,-7.9582858,-142.1145020,-109.1984711,250.1297760
2360,-16.1033192,1.3191984,-9.5959110,-140.5267181,-125.7480927,250.1297760
2370,-12.2319136,0.0000000,-11.7530756,-157.4427490,-123.1374054,250.1297760
2380,-7.6230993,-1.3670821,-13.5343533,-194.1221313,-98.7633591,250.1297760
2390,-2.8059900,-3.1531475,-14.5854025,-250.1374054,-49.0076332,250.1297760
2400,1.6112895,-4.8482337,-13.6013899,-250.1374054,-0.0610687,250.1297760
2410,5.6454988,-6.9407554,-9.4977493,-250.1374054,26.2824421,250.1297760
2420,10.0939026,-8.5975342,-2.9592183,-250.1374054,21.9541988,250.1297760
2430,16.5582142,-8.7363977,5.5233951,-250.1374054,-26.1984730,250.1297760
2440,19.6126022,-5.7987270,15.4688578,-250.1374054,-105.3740463,250.1297760
2450,19.6126022,-2.5522060,19.6126022,-250.1374054,-143.6870270,250.1297760
2460,19.6126022,0.5769997,19.6126022,-216.3282471,-116.5954208,130.4351196
2470,19.6126022,2.0302727,19.6126022,-97.5648880,-64.8091583,-12.7175570
2480,19.6126022,0.8355721,19.6126022,21.8320618,-51.5496178,-137.8931274
2490,19.6126022,-0.9504932,19.6126022,135.2061005,-75.7251892,-229.5954132
2500,19.6126022,-2.1427996,19.6126022,223.3206177,-98.2900772,-250.1374054
2510,18.1527443,-2.1356170,16.7641144,250.1297760,-89.5572510,-250.1374054
2520,15.3204184,-2.0087249,10.9965124,250.1297760,-46.9236641,-250.1374054
2530,12.5096397,-1.4413021,6.7731619,250.1297760,4.0534353,-250.1374054
2540,10.2782555,-1.1061156,3.5721307,250.1297760,59.2748108,-250.1374054
2550,8.4993725,-0.7493813,1.1252691,250.1297760,110.9312973,-250.1374054
2560,6.3948798,-1.5777708,-1.3694763,250.1297760,141.2290039,-250.1374054
2570,3.1387823,-3.0573800,-4.3717899,250.1297760,130.9618378,-250.1374054
2580,-2.2912393,-4.8003497,-8.4347296,250.1297760,83.0916061,-250.1374054
2590,-8.9518747,-5.3390427,-12.9836893,250.1297760,-7.0763359,-250.1374054
2600,-15.1600075,-4.6351509,-17.8391056,250.1297760,-106.2061081,-250.1374054
2610,-19.6131992,-2.9304879,-19.6131992,250.1297760,-160.7099304,-250.1374054
2620,-19.6131992,-1.3191984,-19.6131992,149.5038147,-119.8702316,-250.1374054
2630,-19.6131992,0.4716553,-19.6131992,11.3435116,-14.9770994,-227.8167877
2640,-19.6131992,1.6017127,-19.6131992,-112.7786255,100.2824402,-102.4732819
2650,-19.6131992,1.6998745,-18.5262375,-192.4885559,144.5954132,9.1908398
2660,-19.6131992,1.5250987,-11.6477318,-225.2213745,112.1679382,102.4274826
2670,-19.6131992,1.9392935,-6.3302369,-218.1832123,39.4198456,176.5419922
2680,-19.6131992,2.5282640,-3.6415622,-190.2213745,-33.1755714,229.0152740
2690,-19.6131992,2.4396791,-3.3662305,-161.6717529,-82.5190811,250.1297760
2700,-19.3642044,2.1571648,-4.3789725,-143.7404633,-109.1297684,250.1297760
2710,-17.3602676,1.2593436,-5.7436604,-138.4198456,-108.7938919,250.1297760
2720,-14.4728756,-0.2011119,-7.5369086,-149.9313049,-85.5496216,250.1297760
2730,-10.5655584,-1.7764885,-9.0236998,-180.3129730,-41.9694672,250.1297760
2740,-6.1387019,-3.7445123,-9.5288744,-227.6641235,12.5114508,250.1297760
2750,-1.7357874,-5.7723908,-8.9566631,-250.1374054,67.7709961,250.1297760
2760,4.2664456,-7.7523856,-7.0700417,-250.1374054,103.7709961,250.1297760
2770,11.8392668,-8.3222027,-2.5402350,-250.1374054,94.1908417,250.1297760
2780,19.6126022,-7.1275020,4.9344244,-250.1374054,38.0992355,250.1297760
2790,19.6126022,-4.4412212,14.7482071,-250.1374054,-37.1450386,250.1297760
2800,19.6126022,-1.3598996,19.6126022,-250.1374054,-76.8473282,225.7862549
2810,19.6126022,0.9361281,19.6126022,-207.1832123,-47.3893127,69.7786255
2820,19.6126022,0.7709290,19.6126022,-83.0229034,-7.8931298,-84.6412201
2830,19.6126022,-0.4453192,19.6126022,45.3129768,-18.9923668,-199.7328186
2840,19.6126022,-1.9368993,19.6126022,156.8931274,-61.8778610,-250.1374054
2850,18.6483421,-2.4372849,19.6126022,241.1603088,-82.7328262,-250.1374054
2860,14.8727045,-2.4396791,15.6699696,250.1297760,-65.7938919,-250.1374054
2870,11.9996777,-1.9201399,10.2662840,250.1297760,-21.0458012,-250.1374054
2880,10.0819321,-1.5131277,6.1075773,250.1297760,24.5725193,-250.1374054
2890,8.7914639,-1.1827296,3.0238612,250.1297760,65.1908417,-250.1374054
2900,7.7499914,-1.3814473,-0.3136388,250.1297760,102.1221390,-250.1374054
2910,5.6694407,-2.2481439,-3.6870518,250.1297760,119.5114517,-250.1374054
2920,2.1954718,-3.5410061,-6.4954362,250.1297760,94.5954208,-250.1374054
2930,-2.4420733,-4.4843168,-9.5576038,250.1297760,37.2061081,-250.1374054
2940,-7.0006099,-4.4555864,-13.0459385,250.1297760,-32.8244286,-250.1374054
2950,-12.9214401,-3.8977404,-17.4967365,250.1297760,-74.3587799,-250.1374054
2960,-19.6131992,-2.5761478,-19.6131992,223.1374054,-84.4961853,-250.1374054
2970,-19.6131992,-0.4213773,-19.6131992,133.5038147,-63.7328262,-250.1374054
2980,-19.6131992,0.9528874,-19.6131992,17.2213745,3.7328243,-250.1374054
2990,-19.6131992,1.4748207,-19.6131992,-102.6793900,57.5190849,-133.5419922
3000,-19.6131992,1.0079538,-19.6131992,-194.4274750,69.3969498,-9.2748089
3010,-19.6131992,0.1771700,-15.6029329,-245.0992432,62.0228996,87.3358765
3020,-19.6131992,-0.2896969,-9.8113880,-250.1374054,32.0763359,156.2061005
3030,-19.6131992,-0.0694315,-5.3055239,-250.1374054,-9.2137403,199.4885559
3040,-19.5150375,0.1939293,-3.0262554,-229.7099304,-53.3969460,228.5267181
3050,-17.3722382,0.2513899,-2.3008161,-201.0915985,-93.6641235,250.1297760
3060,-15.4880114,0.1268920,-3.1052637,-180.8091583,-120.0534363,250.1297760
3070,-13.0698805,-0.1292862,-4.4603748,-174.7633514,-125.0610657,250.1297760
3080,-10.2327662,-0.8379663,-6.0261750,-185.3358765,-104.0610657,250.1297760
3090,-7.3190370,-1.8483143,-7.2400289,-213.8702240,-66.5190811,250.1297760
3100,-3.8091555,-2.9280937,-7.0460997,-250.1374054,-32.7862587,250.1297760
3110,-0.2082945,-4.1204000,-5.5904322,-250.1374054,-9.6259546,250.1297760
3120,3.2297616,-5.3007355,-3.6559272,-250.1374054,-0.4503817,250.1297760
3130,6.8521700,-6.3422079,-0.3806761,-250.1374054,-12.6106873,250.1297760
3140,11.7698355,-6.5361371,3.9959023,-250.1374054,-47.1374054,250.1297760
3150,18.3514614,-5.3869262,9.8975792,-250.1374054,-87.3969498,250.1297760
3160,19.6126022,-3.3351059,15.8231983,-250.1374054,-100.7328262,250.1297760
3170,19.6126022,-0.4046180,19.6126022,-236.3664093,-81.1679382,208.0000000
3180,19.6126022,1.8674678,19.6126022,-167.2137451,-49.2213745,83.0152664
3190,19.6126022,1.5825592,19.6126022,-74.7786255,-14.7404585,-42.5877876
3200,19.6126022,0.8643024,19.6126022,36.9007645,-13.8549614,-142.3511505
3210,19.2301292,-0.5291159,19.6126022,153.6412201,-39.0228996,-203.1374054
3220,14.0251617,-1.4843974,19.6126022,249.1679382,-62.2137413,-230.2366486
3230,11.3293047,-1.4676381,16.8024216,250.1297760,-60.5038185,-243.1526642
3240,9.2846670,-0.8858501,10.7451220,250.1297760,-39.2824440,-250.1374054
3250,8.0372944,-0.1364688,5.9208307,250.1297760,-9.0381680,-250.1374054
3260,6.6869712,0.1340746,2.2170193,250.1297760,32.5801544,-250.1374054
3270,5.4515696,0.5267217,-0.3639168,250.1297760,74.4351120,-250.1374054
3280,4.6040263,0.6823440,-2.5546002,250.1297760,94.1755753,-250.1374054
3290,3.3590479,0.9720409,-3.8450682,250.1297760,100.2442780,-250.1374054
3300,0.9792235,0.9026094,-5.4731169,250.1297760,86.0381699,-250.1374054
3310,-1.5155219,0.9648584,-7.5129666,250.1297760,67.8167953,-250.1374054
3320,-3.7995787,1.3646880,-9.1960821,250.1297760,42.7099228,-250.1374054
3330,-5.6718349,2.2194135,-11.5471754,250.1297760,26.3587780,-250.1374054
3340,-8.2240410,2.9424589,-14.1257181,223.1450348,29.7480907,-250.1374054
3350,-10.8528605,4.0820932,-15.8351688,177.5267181,38.1068687,-250.1374054
3360,-13.1033993,5.2935529,-16.8072090,122.0763321,55.1603050,-232.4503784
3370,-14.7649660,6.1315193,-17.0993004,60.1068687,94.8778610,-189.3664093
3380,-16.1535969,6.7731619,-15.7944679,-2.4503818,147.4732819,-141.1374054
3390,-16.6779232,6.9407554,-12.9693241,-53.5648842,188.0305328,-91.2977066
3400,-16.1057129,7.2160869,-9.9334917,-85.5038147,212.7175598,-46.4885483
3410,-15.1121235,7.1993275,-7.0724359,-100.0305328,216.3206177,-8.6641226
3420,-12.9262285,7.1658092,-4.6255741,-98.7633591,196.9541931,18.7404575
3430,-10.5152798,7.3788919,-2.6551561,-85.2061081,165.3435059,32.9847336
3440,-8.8632889,7.3980455,-1.1061156,-62.6183205,129.7404633,37.8015251
3450,-7.3956513,7.5105724,-0.3327923,-33.8778610,95.1221390,38.2748108
3460,-6.2440462,7.5632443,-0.1819584,-3.9236641,68.8549652,34.4274826
3470,-5.3773494,7.7715387,-0.4764437,23.2442741,42.2061081,27.4656487
3480,-5.0613165,7.7667508,-1.1492109,45.9618340,16.3435116,20.5572510
3490,-4.8434453,7.8026633,-2.1499822,62.5419846,-3.0610688,15.8167934
3500,-4.6159973,7.8050575,-3.1435707,72.4427490,-17.7862587,12.4961834
3510,-4.2329268,7.9750452,-3.8426740,76.4198456,-27.2748089,7.5190840
3520,-3.6774750,7.9032192,-4.3646073,79.4809189,-38.1984749,0.1679389
3530,-3.0621684,7.6901364,-5.2600341,83.4122162,-46.5038185,-8.7099237
3540,-2.6910689,7.6278877,-6.7803445,86.9770966,-47.8702278,-24.9770985
3550,-4.1970143,7.5081782,-8.1809454,88.6183243,-61.2977104,-40.4809151
3560,-5.9232249,7.4746594,-9.7419567,86.6793900,-89.1755753,-53.5267181
3570,-8.8106174,7.4315639,-11.3963413,79.0229034,-113.4045792,-63.3969460
3580,-12.8615856,7.2567883,-12.4162664,65.7251892,-136.8244324,-57.7328262
3590,-17.2405586,7.1227136,-14.0012197,47.1984749,-152.7633514,-30.7099228
3600,-19.6131992,6.6534524,-15.6747580,16.3053436,-149.1145020,16.7328243
3610,-19.6131992,6.1817970,-16.3738613,-31.2061062,-128.1374054,76.4885483
3620,-19.6131992,5.7723908,-15.6005383,-85.6793900,-89.1145020,141.3740387
3630,-18.0952835,5.1283536,-13.8527803,-137.2595367,-38.2366409,201.7328186
3640,-15.8208036,4.0222383,-11.3197279,-177.2290039,-2.6717558,250.1297760
3650,-13.2709923,2.8873925,-9.1769285,-205.9847260,13.4885492,250.1297760
3660,-10.6182299,1.9416877,-7.0700417,-225.0000000,14.1755724,250.1297760
3670,-7.7356262,1.0318956,-5.1666608,-236.1374054,10.1221371,250.1297760
3680,-4.8506279,0.3423691,-3.7397239,-242.2442780,6.9541984,250.1297760
3690,-1.5538290,-0.0622489,-2.0398495,-244.4427490,-1.8625954,250.1297760
3700,2.6288199,-0.5410868,-0.2130829,-241.4351196,-21.3358784,250.1297760
3710,7.3573442,-0.0909792,1.7740943,-231.6412201,-43.7633591,250.1297760
3720,11.9374285,0.7278336,4.1706781,-215.0458069,-66.8702316,250.1297760
3730,16.2589397,1.9776005,7.0125809,-192.2213745,-95.6412201,250.1297760
3740,19.6126022,3.8330972,9.6868906,-169.4351196,-135.0915985,220.3664093
3750,19.6126022,5.9184365,10.9917240,-139.6488495,-157.4732819,141.6030579
3760,19.6126022,7.0101867,12.2845860,-106.2519073,-155.1221313,50.2213745
3770,19.6126022,6.5433197,13.3667593,-67.3053436,-132.9007568,-42.4580154
3780,19.6126022,5.7221127,13.7881374,-20.9847336,-115.0763321,-121.2977066
3790,18.8686066,5.2193332,13.2949343,29.3358784,-104.3969498,-178.7938995
3800,15.1480370,4.6543045,11.9422169,80.3664093,-95.2671738,-218.5190887
3810,12.0667152,4.3933377,9.9717989,124.4580154,-78.7557220,-242.8244324
3820,9.6629486,4.4938936,7.7978749,157.1145020,-59.1068687,-250.1374054
3830,8.0396881,4.6590929,5.4994531,178.0000000,-37.7099228,-250.1374054
3840,6.3326311,4.1467361,3.6128318,186.2137451,-23.8244267,-250.1374054
3850,5.2887645,3.7133877,1.8147956,184.4122162,-14.2366409,-250.1374054
3860,4.0126615,3.7205703,0.2968795,177.8396912,-4.4045801,-250.1374054
3870,3.3231349,3.1962428,-2.3008161,169.4274750,21.6793900,-250.1374054
3880,3.0286496,2.2649033,-3.7995787,164.1526642,60.8625946,-250.1374054
3890,1.5849534,1.1372399,-4.6902170,160.2366486,88.6030502,-250.1374054
3900,-0.5841822,0.1508339,-5.7125359,156.7404633,99.7404556,-250.1374054
3910,-5.7005649,-0.9337339,-6.8689294,155.4045868,101.7022934,-250.1374054
3920,-11.8799677,-1.1851238,-7.4962072,157.2519073,73.4427490,-250.1374054
3930,-18.9308567,-0.2035061,-8.2599535,158.9541931,11.0305347,-250.1374054
3940,-19.6131992,0.4740495,-9.6414013,155.0839691,-53.8473282,-250.1374054
3950,-19.6131992,1.6639616,-11.1664991,140.3740387,-70.8091583,-191.9770966
3960,-19.6131992,2.3846128,-12.9334116,106.1068726,-31.2366409,-105.3206100
3970,-19.6131992,2.2289903,-13.8384151,58.3282433,39.9771004,-26.4580154
3980,-19.6131992,3.0166788,-13.7953196,-6.9618320,85.0687027,38.7328262
3990,-19.6131992,3.5410061,-12.4641504,-61.5725174,112.3816757,78.6412201
4000,-19.5174332,3.6056492,-9.5599985,-88.7480927,114.5267181,98.3358765
4010,-19.6131992,3.2417326,-7.2711535,-88.9465637,80.5801544,114.6030502
4020,-19.6131992,2.9448531,-5.7029591,-72.3435135,11.0916033,135.3587799
4030,-18.0282459,3.1100521,-4.9775200,-48.7862587,-60.5725174,158.4656525
4040,-15.6795464,3.4907281,-5.9208307,-31.4503822,-100.7633591,180.1908417
4050,-13.7689838,3.8378856,-7.2089043,-28.0152664,-110.8015289,200.2061005
4060,-12.7825775,3.9575951,-8.3988171,-36.5038185,-105.6870193,220.4198456
4070,-12.2893744,3.7133877,-8.7866755,-52.6488533,-92.5572510,243.0152740
4080,-11.2838144,3.4500270,-8.9710283,-68.7175598,-85.3511429,250.1297760
4090,-10.1274214,3.1411765,-8.8273764,-82.6183243,-80.2290039,250.1297760
4100,-8.4586716,2.7820482,-8.9351149,-97.4198456,-68.3358765,250.1297760
4110,-7.1203194,2.5330524,-8.9973640,-115.1908417,-53.1450386,250.1297760
4120,-5.7125359,1.9081690,-8.4658537,-135.5114441,-38.3511467,250.1297760
4130,-3.9839313,1.3838415,-7.8385763,-156.0000000,-24.8244267,250.1297760
4140,-1.7597293,0.8978211,-6.8401995,-174.3664093,-10.4656487,250.1297760
4150,0.3734936,0.3399749,-5.4707227,-191.2900696,2.5801528,250.1297760
4160,2.4899571,-0.1053443,-3.7421181,-205.1908417,8.2748089,250.1297760
4170,5.3462253,-0.0718257,-1.9201399,-213.7786255,7.3206105,250.1297760
4180,8.6190825,0.3687052,0.4644727,-216.0686951,1.6564885,250.1297760
4190,12.0762920,0.9600700,2.7078283,-211.8931274,-4.5419846,250.1297760
4200,15.4688578,1.9297167,5.2001796,-200.3053436,-10.3206110,250.1297760
4210,17.7289734,2.9017577,7.5033898,-181.5343475,-17.0687027,245.9160309
4220,19.6126022,3.8211265,9.7802639,-153.5648804,-31.8320618,191.4885559
4230,19.6126022,4.2018023,11.4011297,-116.5877838,-46.9312973,130.0076294
4240,19.6126022,4.4507980,12.1529055,-75.3664093,-65.3129807,65.4656525
4250,19.6126022,4.7237358,12.3085279,-36.6183205,-86.4351120,5.2748094
4260,19.6126022,4.9607606,11.8823624,-3.1755726,-96.4580154,-44.1832047
4270,19.6126022,5.3366485,11.1928358,23.9007626,-83.9312973,-83.8244247
4280,19.6126022,5.3103123,10.5200682,46.2671738,-51.9007645,-116.2671738
4290,17.9109306,5.1929970,10.0125008,66.2595444,-16.1297703,-141.7557220
4300,16.3187962,5.1882086,8.9279327,86.8244247,17.0839691,-164.4274750
4310,14.6524391,4.9176650,7.9582858,106.9770966,44.2977104,-187.6488495
4320,12.9310169,4.7572546,6.9311786,128.1908417,60.2519073,-213.7709961
4330,11.5304165,4.7404952,5.5210009,146.1679382,67.9007645,-241.2290039
4340,10.0364418,4.3502421,4.4436154,162.2748108,66.7480927,-250.1374054
4350,8.5304966,3.6774750,2.9927368,177.4580078,64.6641235,-250.1374054
4360,6.9239960,2.9472473,1.3000449,191.3740387,65.5954208,-250.1374054
4370,5.1882086,2.1523764,-0.4094064,200.6946564,68.3053436,-250.1374054
4380,3.2704628,0.9935886,-1.8387375,206.3206177,69.2137375,-250.1374054
4390,1.3096216,0.1412572,-3.3231349,211.2213745,60.4274826,-250.1374054
4400,-0.3256098,-0.4261657,-4.8745699,213.1679382,50.1145020,-250.1374054
4410,-3.0382264,-1.1755470,-6.7204900,209.5343475,41.9618340,-250.1374054
4420,-6.3853035,-1.1635761,-8.0708122,198.1603088,27.9770985,-250.1374054
4430,-8.6765423,-0.6991033,-8.6310530,182.1526642,17.0381680,-250.1374054
4440,-9.7012558,-0.2418131,-8.8944139,162.9694672,30.2900772,-250.1374054
4450,-11.3149395,0.3495516,-9.7850523,143.3358765,73.2061081,-250.1374054
4460,-13.7618008,0.5554519,-9.5049324,126.7480927,123.1221390,-250.1374054
4470,-18.9954987,-0.0047884,-10.8432837,109.9618301,137.5877838,-250.1374054
4480,-19.6131992,0.0933734,-10.7930059,93.1068726,79.3129807,-220.5496216
4490,-19.6131992,0.3495516,-10.5416164,90.9236679,-11.7328243,-151.0152740
4500,-19.6131992,1.1276633,-12.1122046,90.5190811,-66.3206100,-78.2824402
4510,-19.6131992,1.6160779,-14.4273853,67.1755753,-61.8625946,-17.1908398
4520,-19.6131992,1.8698620,-14.8320036,22.6870232,-46.2290077,37.9465637
4530,-19.6131992,2.4037662,-13.9030581,-22.5725193,-26.5954189,84.0839691
4540,-19.6131992,2.8849983,-11.6333666,-55.0687027,-3.4656489,122.4274826
4550,-19.6131992,2.9807658,-9.9239149,-71.0534363,3.1679389,159.6641235
4560,-19.6131992,2.8275378,-9.1218615,-78.6717529,-5.7557254,201.0839691
4570,-19.4815197,2.7676830,-8.6956959,-83.6030502,-22.1755733,246.0229034
4580,-17.2285881,2.7868366,-8.9015961,-87.8244247,-34.5419846,250.1297760
4590,-15.3204184,2.4253139,-10.2351599,-100.9847336,-22.3587780,250.1297760
4600,-12.9525652,1.7214222,-11.0204544,-128.7099304,3.9312978,250.1297760
4610,-9.8113880,0.6727672,-10.9294748,-162.9313049,32.8854980,250.1297760
4620,-6.3374195,0.0167593,-10.2806492,-196.5267181,68.0305328,250.1297760
4630,-3.4117200,-0.6679789,-9.0691900,-229.3969421,105.8778610,250.1297760
4640,-0.9816177,-1.4125718,-7.0820122,-250.1374054,141.8778687,250.1297760
4650,0.6488253,-2.3678534,-4.7045822,-250.1374054,168.6717529,250.1297760
4660,2.3175755,-2.9089401,-2.0829449,-250.1374054,183.2290039,250.1297760
4670,4.3813667,-3.2967989,0.5171449,-250.1374054,190.2519073,250.1297760
4680,6.6654234,-3.3782012,3.1387823,-250.1374054,190.7099304,250.1297760
4690,9.3181858,-3.0166788,6.3062949,-250.1374054,187.8473358,250.1297760
4700,12.7466650,-2.9927368,9.1027079,-250.1374054,175.2900696,250.1297760
4710,18.6363716,-1.3670821,13.0076313,-250.1374054,118.1908417,250.1297760
4720,19.6126022,0.5267217,17.3075962,-242.0610657,30.4732819,215.8015289
4730,19.6126022,1.5346755,19.6126022,-174.2748108,-46.7862587,109.6030502
4740,19.6126022,1.7836711,19.6126022,-98.3816757,-95.8167953,7.8396945
4750,19.6126022,1.8890154,19.6126022,-23.1374054,-126.2977066,-87.3587799
4760,19.6126022,1.4867916,19.3115330,44.0763359,-142.8473358,-163.4122162
4770,19.6126022,1.3886299,16.4456882,99.5648880,-155.5877838,-218.7557220
4780,19.6126022,1.3191984,13.9700956,139.1450348,-160.8549652,-250.1374054
4790,18.6004581,1.1324517,11.8057480,170.3740387,-151.6641235,-250.1374054
4800,16.1009235,0.9648584,9.4666252,194.6030579,-131.6870270,-250.1374054
4810,13.0914278,0.6057299,7.2472115,213.8473358,-106.0534363,-250.1374054
4820,10.8600435,0.7038917,4.7189474,224.9847260,-75.4580154,-250.1374054
4830,9.3062143,0.5722113,2.3534882,228.4961853,-39.0381660,-250.1374054
4840,8.3652983,0.3734936,-0.0071826,226.1679382,-1.9694656,-250.1374054
4850,6.9024482,-0.6392486,-1.9488702,221.0305328,36.0305328,-250.1374054
4860,5.6622581,-2.0613971,-4.0102673,214.9007568,64.1450348,-250.1374054
4870,4.4627690,-3.6583214,-5.6670465,208.7709961,76.2900772,-250.1374054
4880,2.3175755,-5.5066357,-7.1921453,201.0915985,72.9312973,-250.1374054
4890,-1.3694763,-7.0796180,-7.7404146,192.9465637,64.0152664,-250.1374054
4900,-7.9319496,-7.5991573,-8.2288294,184.0534363,55.2824440,-250.1374054
4910,-17.6571465,-6.4307928,-8.4658537,174.3587799,34.7175560,-250.1374054
4920,-19.6131992,-4.0605454,-9.3277617,162.0915985,-7.6412215,-250.1374054
4930,-19.6131992,-1.1444225,-11.9206696,142.1526642,-55.2595406,-250.1374054
4940,-19.6131992,0.7110743,-16.6372223,96.4274826,-67.3358765,-196.0076294
4950,-19.6131992,1.9680238,-19.6131992,14.2595415,-27.5725193,-66.3282471
4960,-19.6131992,1.8052188,-17.9995155,-75.9542007,22.6106873,39.6793900
4970,-19.6131992,1.0869620,-13.8719339,-138.1908417,69.6106873,117.7328262
4980,-19.6131992,0.9217629,-10.3931761,-165.9389343,98.9236679,162.2824402
4990,-17.9540272,1.0965388,-7.4387465,-173.9007568,90.8091583,184.3282471
5000,-17.1471844,1.3239868,-4.9320302,-163.1679382,38.3511467,197.6488495
5010,-16.7521439,1.9512644,-3.6487448,-137.6946564,-36.9312973,214.0152740
5020,-16.2637291,2.5378408,-3.9049230,-112.6030502,-91.0229034,237.4885559
5030,-15.6579990,2.8299320,-4.6902170,-100.4351120,-114.9847336,250.1297760
5040,-14.8367920,3.0478032,-5.3605900,-101.0305328,-114.9312973,250.1297760
5050,-13.0435438,2.6000898,-5.7771792,-111.4198456,-92.9847336,250.1297760
5060,-11.1784706,1.7309990,-5.3701668,-127.0152664,-53.9160309,250.1297760
5070,-8.9758167,0.6057299,-4.3646073,-146.0458069,-8.2671757,250.1297760
5080,-6.7133074,-0.6272776,-2.8155668,-163.0992432,37.5038185,250.1297760
5090,-3.9528067,-2.1308286,-1.4173602,-178.8625946,72.5419846,250.1297760
5100,-0.6943150,-3.4787574,-0.4812321,-191.1832123,100.0457993,250.1297760
5110,3.1507533,-4.1898317,0.9576758,-203.4961853,115.0992355,250.1297760
5120,8.0013809,-4.3550305,3.1172347,-210.4656525,101.6564865,250.1297760
5130,14.7841196,-3.2728570,5.6885943,-205.3282471,62.9083977,250.1297760
5140,19.6126022,-1.2593436,8.1282730,-187.2519073,16.8320618,250.1297760
5150,19.6126022,1.6711442,11.0036945,-160.3893127,-8.7633591,250.1297760
5160,19.6126022,3.6271970,13.0818510,-125.8702316,-0.6030535,175.0915985
5170,19.6126022,4.3789725,14.9110117,-84.1221390,18.0839691,50.8473282
5180,19.6126022,4.1323709,16.7952385,-29.4427490,12.0305347,-65.3664093
5190,19.6126022,3.2106080,17.8630466,36.3893127,-28.3587780,-160.5648804
5200,19.6126022,2.5138988,17.2333755,107.3435135,-75.4809189,-231.4885559
5210,19.5988350,1.5059452,15.2270451,170.5496216,-101.7633591,-250.1374054
5220,15.8184099,1.2689204,11.0707321,218.4503784,-97.0229034,-250.1374054
5230,12.4928808,1.2234308,6.9790621,246.8549652,-72.2671738,-250.1374054
5240,10.0340481,1.6926919,3.2872221,250.1297760,-44.9541969,-250.1374054
5250,7.7499914,1.3742647,-0.1149211,250.1297760,-12.0610685,-250.1374054
5260,5.8897061,1.3144100,-2.9640064,241.8702240,20.8244267,-250.1374054
5270,3.1148405,0.1508339,-4.9775200,224.6259613,35.1221390,-250.1374054
5280,0.2561783,-0.6631905,-6.2536230,210.4198456,29.0916023,-250.1374054
5290,-3.7397239,-1.9728121,-7.2639709,200.9236603,3.6564887,-250.1374054
5300,-9.9071560,-2.7676830,-8.9782104,192.5114441,-46.8473282,-250.1374054
5310,-15.9836092,-2.4660151,-9.9789820,181.7633514,-129.2900696,-250.1374054
5320,-19.6131992,-0.9002152,-11.1976242,161.4351196,-198.7099304,-250.1374054
5330,-19.6131992,0.6512195,-12.7442703,122.5572510,-194.8091583,-250.1374054
5340,-19.6131992,1.6639616,-13.8216553,60.5572510,-108.9694672,-250.1374054
5350,-19.6131992,2.1332228,-12.6556854,-9.9083967,3.8702290,-196.9389343
5360,-19.6131992,2.3486998,-9.5791521,-62.1526718,95.0687027,-101.9312973
5370,-19.6131992,3.0023136,-6.2775645,-80.5954208,128.9923706,-9.3893127
5380,-19.6131992,1.7405758,-4.7548604,-77.9160309,105.4961853,74.2748108
5390,-19.6131992,2.6000898,-4.1515245,-62.7328262,58.3893127,143.1679382
5400,-19.6131992,3.0525916,-4.7620430,-55.7557259,18.9923668,188.5877838
5410,-19.6131992,3.4811516,-5.0708933,-52.5267181,-0.7862595,220.9847260
5420,-17.5877151,3.6774750,-5.3725610,-53.6564903,-3.6106870,250.1297760
5430,-16.0362816,3.7612717,-5.4060798,-57.1755714,-7.9618320,250.1297760
5440,-14.3292236,3.5122759,-5.5904322,-60.6412201,-7.9160304,250.1297760
5450,-12.4952745,3.0166788,-6.2129216,-67.1297684,1.9236641,250.1297760
5460,-10.4243011,2.3510940,-7.0628591,-80.9160309,13.5648851,250.1297760
5470,-7.4674768,1.7094513,-7.4076223,-100.6641235,32.3969460,250.1297760
5480,-4.3023586,1.1803354,-7.6877422,-125.1450348,61.7099228,250.1297760
5490,-1.6639616,0.4309541,-7.6039457,-156.1145020,101.7557220,250.1297760
5500,0.8666966,-0.3926471,-6.8162575,-192.2595367,136.5954132,250.1297760
5510,3.2082138,-1.4221486,-5.1020179,-227.0229034,157.2977142,250.1297760
5520,7.4722652,-2.3510940,-2.4109488,-250.1374054,148.5648804,250.1297760
5530,13.9317884,-2.0111191,1.0295014,-250.1374054,108.7099228,250.1297760
5540,19.6126022,-0.3591284,4.8602047,-250.1374054,48.2519073,250.1297760
5550,19.6126022,1.7405758,9.4043760,-229.3587799,-10.5496187,250.1297760
5560,19.6126022,3.2944047,13.4577389,-192.3282471,-37.3435097,151.9770966
5570,19.6126022,4.0605454,16.7138367,-142.3053436,-38.5725174,39.6564903
5580,19.6126022,4.0988522,18.6674957,-80.1374054,-39.7022896,-65.5038147
5590,19.6126022,3.3686244,18.5980644,-10.9541988,-49.8778610,-152.0076294
5600,19.6126022,2.9209111,16.6898956,52.4198456,-68.3816757,-207.8244324
5610,16.9364967,2.6910689,14.1783895,103.4580154,-87.0076370,-238.7404633
5620,13.9772778,2.6168492,10.9797525,139.0686951,-85.6793900,-250.1374054
5630,11.8775740,2.9161227,7.6733770,161.6488495,-62.5114517,-250.1374054
5640,10.0436249,3.4500270,5.1211715,173.2366486,-27.1145039,-250.1374054
5650,8.8273764,3.7540891,2.7437410,177.2671814,13.1145039,-250.1374054
5660,7.4962072,3.8785870,0.8068419,176.5343475,54.2748108,-250.1374054
5670,6.5433197,4.1443419,-0.7421987,176.1526642,88.9465637,-250.1374054
5680,5.5353661,3.9168940,-2.1763182,177.0610657,104.6717529,-250.1374054
5690,4.6950054,2.8251436,-3.6200144,178.4198456,99.4274826,-250.1374054
5700,2.4731977,1.3742647,-4.9703374,181.7099304,72.9007645,-250.1374054
5710,-0.7924767,-0.1149211,-6.3398137,186.5877838,18.4732819,-250.1374054
5720,-4.1371593,-1.1611819,-7.4794478,188.0763397,-53.0534363,-250.1374054
5730,-8.7387915,-1.6017127,-8.5807753,180.3053436,-107.5419846,-250.1374054
5740,-16.6539822,-1.6495966,-9.7970228,159.7099304,-143.3587799,-250.1374054
5750,-19.6131992,0.1149211,-9.6605549,131.7022858,-176.9694672,-250.1374054
5760,-19.6131992,1.9297167,-10.2471304,99.9465637,-177.8549652,-250.1374054
5770,-19.6131992,2.7581062,-11.4250717,49.4503822,-121.9236679,-171.8091583
5780,-19.6131992,3.1220231,-11.6501255,-11.6717558,-32.3740463,-50.0152664
5790,-19.6131992,3.0980811,-10.0005293,-66.6488571,50.9236641,59.5343513
5800,-19.6131992,2.5282640,-7.5584559,-100.9160309,101.5190811,140.3664093
5810,-19.6131992,2.4348907,-5.7508430,-116.1297684,114.7175598,191.8625946
5820,-19.1798515,2.4923513,-4.4531922,-118.9083939,94.6564865,221.9389343
5830,-16.9053726,2.5833304,-3.2058196,-113.0457993,56.0228996,242.9770966
5840,-15.3802729,2.7581062,-2.7652888,-100.9618301,14.7328243,250.1297760
5850,-13.9054527,3.1555417,-3.0980811,-88.3740463,-19.2748089,250.1297760
5860,-12.6413202,3.3566537,-3.7804251,-82.0534363,-36.6641235,250.1297760
5870,-11.1186161,3.1315999,-4.6351509,-84.5496216,-36.1068687,250.1297760
5880,-8.8656836,2.5402350,-5.4922705,-95.9847336,-17.6412220,250.1297760
5890,-6.0070214,1.9009864,-5.9782910,-114.9923630,12.6335878,250.1297760
5900,-3.1746953,1.2401901,-6.3757267,-141.5114441,50.1145020,250.1297760
5910,-0.7062859,0.2489957,-5.9064655,-172.9541931,85.2824402,250.1297760
5920,1.9584470,-1.0342898,-4.5824785,-205.2671814,110.4045792,250.1297760
5930,5.7484488,-2.3630650,-2.3343346,-231.4351196,114.3206100,250.1297760
5940,11.5088692,-2.6168492,1.2641320,-245.2824402,84.2442780,250.1297760
5950,19.0960560,-1.6256547,5.3198891,-241.2366486,31.0534344,250.1297760
5960,19.6126022,0.0263361,9.2367830,-221.4198456,-4.2671757,250.1297760
5970,19.6126022,1.6065011,13.1129761,-194.0915985,8.9770994,220.0534363
5980,19.6126022,2.8419030,16.8814297,-158.9618378,45.7175560,117.4885483
5990,19.6126022,3.3853838,19.6126022,-106.9160309,69.8473282,13.8702288
6000,19.6126022,2.5426292,19.6126022,-33.0152664,63.0687027,-77.4122162
6010,19.6126022,1.8770446,19.6126022,54.4580154,28.1984730,-144.9923706
6020,19.6126022,1.5227045,19.6126022,136.9313049,-23.7557259,-192.1984711
6030,16.5893383,1.2018831,15.5933561,200.0992432,-60.2137413,-224.0534363
6040,14.6500454,1.6208663,10.4506369,240.4732819,-64.3664093,-248.0839691
6050,13.3380299,2.3415172,5.5904322,250.1297760,-38.8549614,-250.1374054
6060,11.8799677,2.8562679,1.9368993,250.1297760,-0.5190840,-250.1374054
6070,9.4929609,2.9568241,-1.1468167,250.1297760,34.2748108,-250.1374054
6080,6.5457139,2.4013720,-3.7852135,250.1297760,44.7251892,-250.1374054
6090,3.2560976,1.5969244,-6.2799587,250.1297760,20.2366409,-250.1374054
6100,-0.7805058,0.2920911,-8.5975342,240.8549652,-33.7022896,-250.1374054
6110,-5.9926562,-0.2992737,-10.2567072,225.2442780,-109.2366409,-250.1374054
6120,-11.2048063,-0.2873027,-11.3293047,203.5114441,-187.2366486,-250.1374054
6130,-15.6292686,0.5746055,-11.8464499,170.8091583,-236.9618378,-250.1374054
6140,-19.6131992,1.9081690,-11.8967276,125.4198456,-232.4427490,-250.1374054
6150,-19.6131992,2.8131726,-11.7865944,68.3893127,-158.9923706,-250.1374054
6160,-19.6131992,3.5936785,-11.3963413,5.6488547,-43.7022896,-234.9236603
6170,-19.6131992,4.1611013,-9.9430685,-49.8396950,66.2290039,-132.5419922
6180,-19.6131992,4.2041965,-7.7499914,-84.6335907,133.7022858,-29.6946564
6190,-19.6131992,3.5912843,-5.6550756,-97.6793900,139.7328186,66.8320618
6200,-19.6131992,3.7756367,-4.0892754,-90.3740463,98.7786255,143.2748108
6210,-19.6131992,4.2808108,-4.1563129,-79.0381699,54.5725174,194.9770966
6220,-19.1870346,4.6136031,-4.9990678,-74.0534363,30.7328243,234.0763397
6230,-15.9955797,4.7883787,-5.3965030,-79.9618301,22.2366409,250.1297760
6240,-13.6660337,4.7979555,-5.3965030,-90.1450348,23.6946564,250.1297760
6250,-11.8584204,4.2640514,-5.4324160,-100.9618301,32.0152664,250.1297760
6260,-9.8736372,3.6487448,-5.5162125,-113.6183243,43.1068687,250.1297760
6270,-7.4219875,2.9352763,-5.5688848,-130.2977142,55.6793900,250.1297760
6280,-4.7093706,2.1068866,-5.8681583,-151.2977142,73.1984711,250.1297760
6290,-1.7932479,1.0630201,-5.7652082,-178.0763397,93.9923630,250.1297760
6300,1.5538290,0.0335187,-4.8362627,-208.1374054,115.6488571,250.1297760
6310,4.6902170,-0.7900825,-3.1818779,-236.3893127,134.3893127,250.1297760
6320,7.6901364,-1.1707586,-0.5985473,-250.1374054,143.0610657,250.1297760
6330,11.8679972,-1.1659702,3.1315999,-250.1374054,130.9923706,250.1297760
6340,16.4097748,-0.3064562,7.4171991,-250.1374054,96.0381699,250.1297760
6350,19.6126022,1.0390782,11.5567522,-227.1145020,61.7938919,250.1297760
6360,19.6126022,2.5354466,15.2557755,-182.4503784,39.6259537,197.5038147
6370,19.6126022,3.4356618,17.8319225,-126.5954208,16.9236641,112.4809189
6380,19.6126022,3.9839313,19.5126438,-59.9236641,-18.9847336,24.8320618
6390,19.6126022,3.7636659,19.5988350,11.0763359,-60.0152664,-56.6412201
6400,19.6126022,3.1723011,17.6595421,76.8931274,-99.4274826,-124.9847336
6410,19.1511211,2.8562679,14.5686426,127.4885483,-130.2137451,-174.2977142
6420,16.3858318,2.7461352,11.2000179,163.2824402,-135.2519073,-208.0534363
6430,13.8025026,2.7988074,8.2671366,183.2442780,-120.6793900,-228.0305328
6440,12.1505117,3.2201848,5.6383162,190.2595367,-93.6946564,-240.8625946
6450,10.6302013,3.6966286,3.5098817,190.4809113,-60.0000000,-250.1374054
6460,9.0213060,4.0030847,2.0350611,187.9236603,-25.8091602,-250.1374054
6470,7.9678626,4.8003497,1.1420283,185.9007568,3.8854961,-250.1374054
6480,6.5600791,4.3765783,0.1580165,185.2442780,26.8473282,-250.1374054
6490,4.8003497,3.8330972,-1.2449785,187.0458069,35.9694672,-250.1374054
6500,2.0039365,2.9999194,-2.7461352,189.1526642,16.4580154,-250.1374054
6510,-1.3335636,2.1020982,-3.6295912,193.6106873,-45.6259537,-250.1374054
6520,-4.3167233,1.4341195,-4.8195033,198.4045868,-122.8396912,-250.1374054
6530,-7.1466556,1.3024391,-6.1865854,194.0763397,-174.8778687,-250.1374054
6540,-11.2742386,1.5394639,-7.8242111,173.2748108,-191.2290039,-250.1374054
6550,-16.7210197,2.5162930,-8.4850073,139.5343475,-178.5267181,-250.1374054
6560,-19.6131992,3.7636659,-9.0811605,96.2671738,-134.1603088,-250.1374054
6570,-19.6131992,4.9200592,-9.4163475,52.8778610,-65.2748108,-205.5648804
6580,-19.6131992,5.7628140,-9.3660688,8.2061071,13.2137403,-115.8091583
6590,-19.6131992,5.8657641,-8.2551651,-27.7557259,76.5190811,-28.5648861
6600,-19.6131992,6.0956063,-7.0460997,-49.3893127,92.3664093,50.4580154
6610,-19.6131992,6.1075773,-6.3302369,-58.7709923,76.6641235,112.3206100
6620,-18.5070839,6.1410961,-6.3278427,-63.3664131,61.5496178,158.8931274
6630,-15.4473104,6.1027889,-6.4619174,-70.9236679,55.6183205,196.1984711
6640,-13.2302914,6.2416520,-6.5672617,-82.6259537,56.2290077,223.8854980
6650,-11.2431135,6.3733325,-6.3230543,-95.3435135,58.6564903,246.6717529
6660,-9.7012558,6.4116392,-5.7149301,-107.2442780,59.0534363,250.1297760
6670,-8.1570034,5.8968887,-5.2408805,-117.8778610,61.1221390,250.1297760
6680,-6.2416520,5.4419928,-5.2815819,-129.1068726,65.7480927,250.1297760
6690,-4.2065907,5.0158267,-5.1570840,-143.5954132,69.0457993,250.1297760
6700,-1.7645177,4.4986820,-4.5058646,-159.3129730,71.6106873,250.1297760
6710,0.9073978,3.8953462,-3.6391680,-174.5038147,76.8549652,250.1297760
6720,3.9743545,3.1004753,-2.1188576,-186.8473358,72.5419846,250.1297760
6730,8.3868456,3.1315999,0.2896969,-190.8015289,39.9541969,250.1297760
6740,14.0179796,4.1922259,3.4380560,-178.6183167,-17.1297703,250.1297760
6750,19.4791260,5.5377603,6.2943239,-152.3435059,-72.3816757,206.1832123
6760,19.6126022,6.9455438,8.6310530,-117.8244247,-101.2519073,125.6717529
6770,19.6126022,7.7140784,10.4817610,-82.2519073,-96.4198456,40.1908379
6780,19.6126022,7.7212610,11.8608141,-46.4427490,-75.0839691,-40.4045792
6790,19.6126022,7.3836803,12.9525652,-5.3511453,-60.8244286,-112.9007645
6800,19.1511211,6.7468257,13.1129761,41.4122124,-62.1221390,-169.9541931
6810,15.4161863,5.9064655,11.7243462,88.8625946,-77.3511429,-211.4961853
6820,12.2175484,5.3151007,9.5001440,127.0763321,-86.6946564,-239.0686951
6830,9.7132263,5.1187773,6.7037306,152.5343475,-83.4885483,-250.1374054
6840,7.7404146,5.0589223,4.0533628,164.3358765,-65.3358765,-250.1374054
6850,6.2775645,4.8745699,1.5346755,164.1450348,-31.2748089,-250.1374054
6860,4.5776901,4.7668314,-0.3303981,156.7251892,3.9160306,-250.1374054
6870,2.5929072,4.5369892,-1.6328372,147.2977142,30.4885502,-250.1374054
6880,0.3303981,3.9887197,-2.6288199,139.0763397,43.9618340,-250.1374054
6890,-2.8035958,3.4883339,-3.7277529,133.2213745,38.1374054,-250.1374054
6900,-6.3398137,3.1268115,-4.7285242,130.1679382,4.9312978,-250.1374054
6910,-9.8161764,3.3015873,-5.5904322,128.7480927,-45.2213745,-250.1374054
6920,-13.0866394,3.9623835,-7.0532823,121.9847336,-85.5114517,-250.1374054
6930,-16.8287582,5.0948353,-8.8537130,101.4809189,-96.2824402,-230.7633514
6940,-19.6131992,5.8059096,-10.7427282,68.7022934,-64.9236679,-171.3587799
6950,-19.6131992,6.0692701,-11.6022425,22.3664131,-10.4580154,-99.3740463
6960,-19.6131992,6.4978304,-11.1593170,-25.1526718,44.0992355,-25.7786255
6970,-19.6131992,6.6366930,-9.6868906,-61.4427490,82.7328262,36.0458031
6980,-18.5549679,6.7468257,-7.6614060,-83.3816757,96.5496216,82.3816757
6990,-16.8167858,6.4762826,-6.3134775,-93.9083939,95.1145020,117.5114517
7000,-15.1121235,6.3853035,-5.4324160,-99.1297684,86.0839691,146.1145020
7010,-13.1704359,6.3230543,-4.7548604,-100.9007645,64.6183243,168.8625946
7020,-11.4992924,6.3374195,-4.4675574,-99.8625946,39.2824440,184.8473358
7030,-10.0603838,6.2823529,-4.2233500,-99.6259537,12.2213745,197.5572510
7040,-8.4514885,6.2033448,-3.6487448,-100.6106873,-9.6183205,209.5038147
7050,-6.9599090,5.9711084,-3.2632802,-102.1221390,-15.3587790,221.7480927
7060,-5.5497313,5.8083038,-3.0765336,-105.2061081,-11.0687027,233.9313049
7070,-3.9982965,5.8059096,-2.7437410,-109.8015289,-3.5954199,244.8320618
7080,-2.6336083,5.4324160,-2.2170193,-114.7786255,0.8091603,250.1297760
7090,-0.4477134,5.2313042,-1.8459201,-118.0381699,-7.0916033,250.1297760
7100,2.9041519,5.2863703,-1.2545552,-119.0687027,-26.1450386,250.1297760
7110,6.2895355,5.6622581,-0.2585725,-115.0992355,-52.0076332,246.8244324
7120,10.0747490,6.2224984,0.7326220,-107.0839691,-70.5038147,222.0763397
7130,12.9669304,6.8378053,2.0015423,-97.2824402,-70.0152664,188.3664093
7140,15.5167418,7.8816719,3.1770895,-87.9160309,-57.1908379,146.9465637
7150,16.8742466,8.2216463,4.6088147,-79.3893127,-35.2519073,98.6793900
7160,17.6499653,8.6214762,6.4954362,-66.5267181,-10.4885492,51.2442741
7170,17.2357693,8.9231443,8.3102312,-44.7862587,11.7709923,2.2671757
7180,15.4042149,8.8489246,9.2152348,-15.3358774,32.1832047,-41.3053436
7190,12.9573536,8.6430235,8.7244263,18.5038166,52.5343513,-75.2442780
7200,10.5344334,8.2910776,7.6853480,49.7251892,62.6030540,-98.8931274
7210,8.8632889,8.1474266,6.3541789,76.4045792,60.1450386,-118.4351120
7220,7.5464849,8.2168579,4.5010762,96.1450348,53.3511467,-137.4427490
7230,5.8202744,8.3078375,2.2864509,110.7251892,59.1908379,-156.2366486
7240,3.4643922,8.4251528,-0.2896969,115.2366409,84.3587799,-166.5267181
7250,1.2593436,8.4036045,-2.1308286,109.3435135,104.0229034,-168.0458069
7260,-0.6320660,8.3198080,-3.4596038,99.7404556,106.4198456,-166.3587799
7270,-2.2529323,8.3293848,-4.5322008,89.7328262,95.6488571,-162.7099304
7280,-3.4883339,8.2575598,-5.3294659,81.3358765,81.1068726,-157.1908417
7290,-4.7859845,8.6142941,-5.9375896,72.0534363,61.9007645,-148.5038147
7300,-5.8513989,8.9351149,-6.5409255,59.7251892,45.7175560,-138.7175598
7310,-8.1354561,8.8704720,-7.3573442,42.7022896,41.6641235,-122.3587799
7320,-11.1736822,8.5089493,-8.1306677,21.5648861,24.7786255,-94.0916061
7330,-12.1193867,9.0500364,-7.5009956,3.1832061,-14.9541988,-61.1145020
7340,-12.2821922,9.1314383,-7.0484939,-11.7862597,-42.5496178,-28.2366409
7350,-12.1792421,8.7076674,-7.0772243,-29.4045811,-42.6488533,8.2213745
7360,-12.4258432,8.4610653,-6.7085190,-49.1832047,-39.5114517,44.6564903
7370,-11.5806942,8.4083929,-5.5784616,-64.6412201,-50.0381660,78.2595444
7380,-10.0795374,8.2599535,-5.0254035,-74.6183243,-54.1603050,107.8625946
7390,-9.0117292,7.6901364,-4.6064205,-85.6717529,-43.3206100,135.4198456
7400,-7.7571740,7.1418672,-3.8211265,-97.6030502,-38.7404594,160.3816833
7410,-5.6191626,6.8856888,-2.4468615,-105.4198456,-50.0000000,179.7404633
7420,-3.3039815,6.6893654,-0.9169745,-105.6183243,-68.0457993,190.4351196
7430,-0.4022238,6.2847471,0.9840119,-97.1679382,-97.6870193,194.2290039
7440,3.6487448,6.6726060,2.4420733,-78.6412201,-138.6488495,187.9618378
7450,7.9822278,6.9646969,3.3255291,-54.5954208,-167.7404633,166.9923706
7460,11.5375986,7.6877422,3.5888901,-32.7404594,-172.6335907,135.6793823
7470,14.4273853,8.8225880,4.0102673,-16.3816795,-154.0381622,95.9236679
7480,16.2062683,9.3373384,4.8123207,-5.0992365,-117.3358765,52.6946564
7490,16.3858318,9.6868906,6.8713236,23.4274807,-35.4122124,-38.6946564
7500,14.6979294,9.3947992,7.0891948,47.8778610,-20.1068707,-82.7328262
7510,13.0291786,8.8561068,6.2991123,74.6564865,-25.0687027,-124.4961853
7520,10.7906122,8.1450329,4.4938936,99.6412201,-37.3282433,-161.2519073
7530,8.7268209,8.0109577,2.5498118,115.9083939,-38.8244286,-188.3511505
7540,6.6223278,7.6949248,0.4381367,122.5648880,-28.9389305,-208.3206177
7550,4.5681133,7.5776095,-1.2880739,119.2671738,-13.4580154,-222.0686951
7560,2.3774302,7.4698710,-2.7197993,109.2290039,5.1526718,-230.8931274
7570,0.3064562,7.2903070,-3.5960727,98.2061081,22.3435116,-234.8778687
7580,-2.1882892,7.0413113,-3.8977404,85.2900772,32.2061081,-233.5572510
7590,-5.3198891,6.8425937,-4.2832050,76.0992355,35.2366409,-224.9847260
7600,-9.9382801,6.7109132,-5.0876527,68.7480927,17.2519093,-204.5496216
7610,-13.8503857,7.0844064,-5.6287394,63.7480927,-19.4732819,-168.1297760
7620,-17.0131111,7.7332320,-7.0053983,55.0610695,-48.0458031,-119.4122162
7630,-19.4192715,8.0612354,-8.6861191,34.7709923,-43.2671738,-58.9465637
7640,-19.6131992,7.8792777,-9.6461897,1.7938931,-10.0305347,11.2213745
7650,-19.6131992,7.4195933,-9.9334917,-39.6793900,35.8091621,82.9083939
7660,-19.6131992,6.8234401,-8.5137377,-80.3816757,74.2290039,151.9084015
7670,-17.4081516,6.2895355,-6.2943239,-108.6564865,98.1984711,206.0458069
7680,-14.8248215,5.5066357,-4.0820932,-123.3358765,109.6564865,247.7709961
7690,-12.2702208,5.2600341,-2.4157372,-128.4122162,106.8091583,250.1297760
7700,-9.7323799,4.8147149,-1.2114599,-126.1145020,99.7786255,250.1297760
7710,-6.8856888,4.5393834,-0.8116302,-121.4274826,89.1908417,250.1297760
7720,-3.7349355,4.2401094,-0.6655847,-119.6793900,71.9312973,250.1297760
7730,-0.1867468,4.0174499,-0.4070122,-117.3511429,47.4427490,250.1297760
7740,3.9767487,4.0701222,-0.0095768,-113.1297684,19.6335869,250.1297760
7750,8.1546097,4.2712340,0.5315101,-107.5114517,-10.6335878,250.1297760
7760,13.8336267,5.2887645,1.7836711,-98.7251892,-49.3816795,243.2290039
7770,18.7919922,6.6271162,3.3518653,-84.8778610,-83.2290039,182.5267181
7780,19.6126022,7.6230993,4.9894910,-68.2519073,-103.4503784,108.8015289
7790,19.6126022,8.1474266,6.7157016,-48.4732819,-106.2824402,33.0534363
7800,19.6126022,8.6095057,8.0732069,-23.5343513,-95.0763321,-36.1984749
7810,19.6126022,8.6310530,8.9422979,8.5801525,-82.0229034,-96.0381699
7820,19.6126022,8.4993725,8.9063845,48.0992355,-72.7099228,-146.0076294
7830,17.2908363,8.3796635,7.2759418,85.3893127,-73.7633591,-188.8473358
7840,14.5063934,7.7906923,5.4324160,109.9312973,-80.6641235,-225.1374054
7850,11.7315283,7.5105724,3.2656744,124.9083939,-79.6412201,-250.1374054
7860,9.2726955,7.1753860,1.3311694,131.9313049,-58.4122124,-250.1374054
7870,7.2855186,6.8018923,-0.6320660,129.7251892,-22.0229015,-250.1374054
7880,5.2241216,6.3685441,-1.8315549,120.0076370,12.4427481,-250.1374054
7890,3.3805954,5.5449429,-2.5402350,108.2824402,36.4427490,-250.1374054
7900,1.5538290,4.7165532,-2.7892308,100.3740463,44.9847336,-250.1374054
7910,-0.8451489,3.9671719,-2.9137285,94.1984711,43.9694672,-250.1374054
7920,-4.6950054,3.1627243,-3.4189026,92.3664093,35.3282433,-250.1374054
7930,-9.2750902,3.0597742,-3.8091555,92.3816757,16.8091602,-250.1374054
7940,-13.7929258,3.4404502,-4.3957319,92.4274826,-11.4198475,-250.1374054
7950,-18.0354290,4.2951760,-5.0876527,88.1679382,-47.7938919,-250.1374054
7960,-19.6131992,5.0158267,-6.1985564,77.7633591,-83.0534363,-192.0229034
7970,-19.6131992,5.6095858,-7.5033898,59.0381660,-96.8015289,-120.4274826
7980,-19.6131992,6.0261750,-8.8082228,29.7633591,-68.6030502,-46.9389305
7990,-19.6131992,6.0381460,-9.5576038,-10.8473282,-15.8320608,22.2748089
8000,-19.2181587,5.8394279,-9.2272062,-55.5725174,30.7862587,81.4580154
8010,-16.9005833,5.5090299,-6.9024482,-88.3435135,50.5648842,129.1908417
8020,-14.5830078,5.1115947,-4.7357068,-101.1145020,53.7404594,164.1755676
8030,-12.8424320,4.8889351,-3.0310438,-102.5648880,50.2442741,191.9847260
8040,-11.3771887,5.0924411,-1.9752063,-100.0687027,33.8396950,214.2595367
8050,-9.3876171,5.1020179,-1.1156923,-94.1297684,8.4427481,231.8854980
8060,-7.2232695,5.1068063,-0.7733232,-86.7328262,-7.3816795,246.7175598
8070,-5.1211715,5.1522956,-0.6895266,-79.0916061,-9.8854961,250.1297760
8080,-2.7652888,5.2935529,-0.8140244,-74.4122162,-7.3358779,250.1297760
8090,-0.3016679,5.5353661,-0.5961532,-72.6412201,-5.8854961,250.1297760
8100,2.8059900,5.7771792,-0.4165890,-70.2213745,-7.8015265,250.1297760
8110,6.6438756,6.3182659,-0.2394189,-65.7786255,-10.5648851,250.1297760
8120,10.4338779,7.2065101,0.0574605,-60.5648842,-16.0229015,232.1374054
8130,14.2717638,8.2958660,0.7350162,-55.4809151,-27.9465656,190.5190887
8140,17.2309818,9.0715837,2.1811066,-45.8167953,-35.6335869,138.1526642
8150,19.1583042,9.8736372,3.3877780,-31.9847336,-29.8015270,78.7022934
8160,19.6126022,10.2447367,4.2951760,-16.0458012,-12.5648851,17.5801525
8170,18.6555233,10.1346035,4.8218975,3.5725191,12.2595415,-39.8473282
8180,16.8479118,9.9406748,4.3837609,24.5572510,31.3816795,-90.9542007
8190,14.6476507,9.5384512,3.9001346,45.4198456,47.4961815,-137.8015289
8200,11.6237898,8.7794924,2.8993635,63.9389305,61.8778610,-177.0686951
8210,8.6980906,8.1761570,1.6184721,78.1908417,70.0457993,-210.5114441
8220,6.2751703,7.3884687,0.5123565,87.2061081,68.5419846,-239.3816833
8230,4.2041965,6.6127515,-0.5841822,93.2366409,63.2061081,-250.1374054
8240,1.8507085,5.8418221,-1.6735384,96.5648880,57.8625946,-250.1374054
8250,-0.7685348,5.1882086,-2.7581062,98.0457993,49.0381660,-250.1374054
8260,-3.8115497,4.7069764,-3.6750808,95.1603088,30.0763359,-250.1374054
8270,-7.6111283,4.5369892,-4.5034704,89.4045792,8.7099237,-250.1374054
8280,-12.0930510,4.4053087,-5.1211715,82.4045792,-17.9618320,-250.1374054
8290,-15.6412401,5.0254035,-5.2648225,75.9923630,-59.0534363,-222.8396912
8300,-17.6523590,5.8346395,-6.3206601,68.6030502,-88.1832047,-173.8396912
8310,-18.6076412,6.3876977,-7.6638002,50.3053436,-89.5954208,-121.6412201
8320,-19.2971668,6.6007805,-8.2599535,21.1603050,-70.5648880,-66.9465637
8330,-19.5317974,6.5026188,-8.0779953,-12.0229006,-33.7709923,-8.4198475
8340,-19.1750641,6.1506729,-6.9718795,-41.0076332,6.7328243,47.8244286
8350,-18.4089222,5.9351954,-5.5090299,-61.5954208,29.4351139,99.0000000
8360,-17.9803619,5.5042415,-4.2209558,-71.7480927,31.9160309,144.0763397
8370,-16.6348286,5.1475072,-3.1268115,-75.0305328,30.7328243,189.6793823
8380,-14.1927547,5.1642666,-2.7006457,-76.5267181,27.0076332,227.7938995
8390,-11.6429434,5.0373745,-2.5498118,-79.5038147,33.0305328,250.1297760
8400,-9.6773138,4.8985114,-2.5162930,-84.0000000,49.0228996,250.1297760
8410,-7.3980455,4.8506279,-2.7676830,-90.5648880,68.4122162,250.1297760
8420,-5.1738434,4.7141590,-3.0501974,-101.5496216,85.1145020,250.1297760
8430,-2.9209111,4.2592630,-2.9113343,-114.5267181,98.2977066,250.1297760
8440,-0.2513899,3.8642218,-2.3343346,-126.6488571,103.7862625,250.1297760
8450,3.1100521,3.7349355,-1.1109039,-134.8320618,97.8167953,250.1297760
8460,6.9048424,3.9456241,0.4429250,-136.3053436,78.7022934,250.1297760
8470,11.4131012,4.7572546,2.3582766,-129.6870270,56.3206100,250.1297760
8480,15.1576138,5.9328012,3.8426740,-117.3740463,51.0305328,250.1297760
8490,18.1072540,6.6630292,4.9966736,-104.6870193,62.1068687,203.1221313
8500,19.6126022,7.8720951,6.8569584,-89.9542007,55.4427490,138.9389343
8510,19.6126022,8.7531567,9.6246414,-61.7633591,32.4503822,59.9083977
8520,19.6126022,8.4993725,11.2670555,-18.9465656,13.8702288,-26.4274807
8530,19.6126022,7.9918046,11.2311430,29.2900772,2.2519083,-103.8396912
8540,19.6126022,7.6207051,10.1705170,75.8167953,-5.2748094,-165.1984711
8550,16.0578289,7.0460997,8.3174143,111.6335907,-7.5648856,-211.7557220
8560,12.6915979,6.5816269,6.5864153,138.0381622,-1.0763359,-246.2824402
8570,9.2918491,6.1506729,4.7500720,154.5343475,12.5725193,-250.1374054
8580,6.7300668,5.6862001,3.0262554,164.2061005,27.1832066,-250.1374054
8590,4.7333126,5.0637107,1.4580613,169.2977142,38.8854980,-250.1374054
8600,2.6551561,4.2089849,-0.0454896,172.9389343,46.6946564,-250.1374054
8610,0.4237715,3.3446827,-1.3239868,175.7404633,43.8473282,-250.1374054
8620,-3.1100521,2.7317703,-3.1004753,177.7404633,23.3358784,-250.1374054
8630,-7.4507174,2.6958573,-4.5322008,177.0839691,-17.0076332,-250.1374054
8640,-11.5950594,3.1411765,-5.9878678,172.8702240,-67.0687027,-250.1374054
8650,-14.9660778,3.8354914,-7.7284436,160.8549652,-108.0457993,-250.1374054
8660,-17.4033623,5.0684991,-9.5528164,136.0076294,-134.9770966,-224.3740387
8670,-18.8805771,6.2464404,-11.1401634,100.1603088,-136.1603088,-168.8702240
8680,-19.6131992,6.7396431,-12.0212250,53.6641235,-100.7480927,-105.8854980
8690,-19.6131992,6.6199336,-12.6652622,2.2290077,-40.8396950,-39.2824440
8700,-19.6131992,6.4116392,-11.5160513,-49.8015251,11.9770994,27.4122143
8710,-19.3498383,6.1817970,-9.2176294,-87.6641235,44.2519073,86.7328262
8720,-17.5685616,5.6071916,-7.2496057,-109.4122162,63.3664131,134.2137451
8730,-16.2685165,5.4324160,-5.4898763,-120.6106873,66.2824402,174.7328186
8740,-14.6237087,5.0996237,-4.2065907,-124.4580154,61.6412201,210.5038147
8750,-12.7059631,4.9799142,-3.7708483,-127.9160309,57.5190849,241.0305328
8760,-10.7642756,4.7692256,-3.7397239,-132.0076294,55.8015251,250.1297760
8770,-8.5735922,4.5944495,-3.2824337,-136.0152740,51.1297722,250.1297760
8780,-6.4738884,4.3382711,-3.1339941,-141.2290039,48.8167953,250.1297760
8790,-4.3861551,3.9192882,-3.0094962,-148.5190887,53.7022896,250.1297760
8800,-2.0685797,3.5601597,-2.6336083,-158.2748108,63.3358765,250.1297760
8810,0.5530578,2.8826041,-1.9632354,-170.3358765,69.8854980,250.1297760
8820,4.2233500,2.6024840,-0.4668669,-179.4274750,56.5267181,250.1297760
8830,9.1003141,2.9640064,1.9464760,-177.3435059,19.4122143,250.1297760
8840,14.2166967,4.1970143,4.5561423,-159.6793823,-25.2366409,250.1297760
8850,19.2875900,5.4395986,6.8617468,-130.8167877,-66.6106873,208.8015289
8860,19.6126022,7.2376347,9.1625633,-94.7175598,-96.5419846,130.3587799
8870,19.6126022,8.3269911,11.0922794,-54.8015251,-104.4885483,43.4961815
8880,19.6126022,8.7818871,11.9374285,-13.2442751,-91.7175598,-41.1297722
8890,19.6126022,8.4610653,12.3157110,31.0000000,-72.1603088,-114.8778610
8900,19.5581341,7.9223728,11.3747940,74.9694672,-67.4503784,-173.4656525
8910,15.4377337,6.9455438,9.6892843,115.1068726,-71.8244247,-215.4351196
8920,12.3157110,6.3805151,7.4794478,149.2900696,-70.3587799,-245.5419922
8930,9.5623922,5.7436604,4.9344244,170.9007568,-61.1221390,-250.1374054
8940,7.1610208,5.4180508,2.4277081,179.4885559,-43.4198456,-250.1374054
8950,5.0182209,5.0972295,0.0526722,176.8778687,-17.1603050,-250.1374054
8960,3.5649481,4.8290801,-1.4820032,165.3129730,7.2977099,-250.1374054
8970,1.9297167,4.3310885,-2.3343346,153.1450348,27.1068707,-250.1374054
8980,0.0837966,3.6224086,-2.9927368,144.0305328,42.6335869,-250.1374054
8990,-2.6120608,3.1746953,-3.7516949,138.3587799,48.0305328,-250.1374054
9000,-6.2177100,2.9161227,-4.5202298,133.9923706,37.4045792,-250.1374054
9010,-10.0939026,3.0549858,-5.0900469,129.4656525,10.5496187,-250.1374054
9020,-13.9581242,3.5745249,-5.5736732,125.4503784,-24.1984730,-250.1374054
9030,-18.0066986,4.4029145,-7.1729918,117.3358765,-52.9389305,-232.1908417
9040,-19.6131992,5.2073622,-8.6526003,100.6641235,-77.0992355,-171.2442780
9050,-19.6131992,6.0261750,-10.2495251,75.2137375,-75.2137375,-101.4427490
9060,-19.6131992,6.3039007,-12.3037395,35.8702278,-39.3893127,-32.2137413
9070,-19.6131992,6.2368636,-12.5575237,-12.9847326,7.0839696,33.7557259
9080,-19.3737812,6.2416520,-11.7961712,-61.3893127,52.8549614,92.7022934
9090,-17.4632187,5.7197185,-9.5695753,-96.8473282,86.1145020,140.7480927
9100,-15.5430775,5.5784616,-7.6973190,-118.2900772,96.5419846,176.1984711
9110,-13.9557304,5.2863703,-6.1530671,-130.3587799,96.2595444,204.4732819
9120,-12.3683825,5.2289100,-4.5705075,-133.8854980,83.9007645,228.0229034
9130,-10.7714586,5.2432747,-3.7109938,-132.5648804,72.3893127,248.2213745
9140,-9.2176294,5.2624283,-3.2106080,-131.9694672,64.9770966,250.1297760
9150,-7.4363523,5.1187773,-3.0430148,-133.7557220,60.1984749,250.1297760
9160,-5.6694407,4.9416070,-2.7940190,-137.4580078,59.3129768,250.1297760
9170,-3.8498566,4.6854286,-2.5905130,-142.9847260,66.2137375,250.1297760
9180,-2.2146254,4.3670015,-2.4564383,-151.3358765,77.2748108,250.1297760
9190,-0.3710994,3.8187323,-2.1619530,-163.1450348,90.6259537,250.1297760
9200,1.8985922,3.2608860,-1.2569494,-175.0152740,97.4045792,250.1297760
9210,4.2592630,2.8227494,0.0694315,-182.1908417,90.2519073,250.1297760
9220,7.7475972,2.7437410,2.0566087,-180.3206177,59.5190849,250.1297760
9230,12.3516235,3.6056492,4.6351509,-163.5267181,5.0229006,250.1297760
9240,16.7856617,4.9607606,7.2903070,-132.3435059,-53.7480927,218.9618378
9250,19.6126022,6.2320752,9.3062143,-91.8473282,-97.8167953,150.1679382
9260,19.6126022,7.1873569,10.8648319,-50.1908379,-115.0839691,78.8473282
9270,19.6126022,7.8170285,11.8057480,-9.7633591,-102.4427490,4.9007635
9280,19.6126022,7.6111283,12.4378138,29.6106873,-73.0000000,-63.4580154
9290,19.6126022,7.4219875,12.1624823,72.3740463,-48.5572510,-123.2366409
9300,17.5278606,6.5624733,10.5823174,115.3587799,-50.2900772,-170.4580078
9310,14.6500454,6.0070214,8.7579451,157.8702240,-53.1068687,-207.6030579
9320,12.1720591,5.5712790,5.7867560,189.6564941,-60.5419846,-239.0839691
9330,9.7802639,5.6526814,2.7413468,205.4274750,-64.3129807,-250.1374054
9340,7.9606800,5.3198891,0.2322364,205.8625946,-61.8396950,-250.1374054
9350,5.3653784,4.8386569,-1.8315549,198.4045868,-56.4809151,-250.1374054
9360,2.6623387,4.1467361,-3.2513094,189.2519073,-55.6030540,-250.1374054
9370,-0.5506636,3.8091555,-4.5729017,179.3282471,-65.5877838,-250.1374054
9380,-4.6088147,3.6104376,-5.7532372,167.9541931,-95.3129807,-250.1374054
9390,-8.1785507,4.0150557,-6.9216018,152.8015289,-135.1908417,-250.1374054
9400,-11.1329813,4.5992379,-8.1210909,132.2824402,-159.6870270,-250.1374054
9410,-13.1441002,5.6263452,-9.4091644,102.7862625,-154.8778687,-250.1374054
9420,-14.9684725,6.3876977,-10.1824875,61.8931313,-123.9542007,-212.7557220
9430,-17.2956238,6.7923155,-10.2902260,17.6793900,-69.7099228,-158.3053436
9440,-19.6131992,7.1825686,-9.7802639,-23.5343513,-8.4351149,-95.5725174
9450,-19.6131992,6.9479380,-8.9518747,-59.1755714,44.0381660,-24.1297703
9460,-19.6131992,6.7300668,-7.6973190,-85.3053436,73.6412201,49.1221390
9470,-19.6131992,6.2105274,-6.6750002,-102.7022934,92.4732819,121.8931274
9480,-19.3139267,6.1195483,-5.8202744,-116.3587799,97.5648880,182.0229034
9490,-16.3714676,5.7221127,-5.1929970,-128.9923706,97.7709961,230.1832123
9500,-13.8144732,5.2815819,-4.4005203,-139.5190887,106.0229034,250.1297760
9510,-11.0587606,4.8841467,-3.8211265,-150.1068726,119.8244247,250.1297760
9520,-8.5281029,4.5058646,-3.0885043,-160.0686951,129.0763397,250.1297760
9530,-6.4068508,4.0054789,-2.6288199,-167.4045868,135.2824402,250.1297760
9540,-4.1251884,3.5410061,-2.1906834,-174.2290039,135.5190887,250.1297760
9550,-1.7166338,2.9640064,-1.6591733,-181.0686951,131.0000000,250.1297760
9560,1.0295014,2.2457497,-1.2832855,-188.5114441,121.8778610,250.1297760
9570,4.6973996,1.7621235,-0.1268920,-194.0686951,95.5877838,250.1297760
9580,10.2088242,1.9201399,1.8626794,-191.7633514,41.9465637,250.1297760
9590,16.6683464,3.3375001,4.4364328,-174.5267181,-27.3740463,250.1297760
9600,19.6126022,4.7572546,6.5768385,-145.6335907,-81.7557220,198.8396912
9610,19.6126022,6.1794028,8.3772688,-113.5190811,-107.3511429,110.5954208
9620,19.6126022,6.8090749,10.3788109,-82.2977066,-101.1221390,19.2824421
9630,19.6126022,6.6989422,12.5934362,-48.2213745,-79.0992355,-65.8778610
9640,19.6126022,6.4810710,14.1759958,-4.4351144,-59.2595406,-134.5038147
9650,19.3402615,6.0285692,14.5686426,49.4122124,-51.8244286,-183.7938995
9660,15.7633438,5.2815819,12.7634239,100.7328262,-61.8396950,-218.6488495
9670,13.1895895,4.8841467,10.2591019,147.6412201,-70.4198456,-244.8167877
9680,11.4561968,4.8171091,7.2304521,179.1908417,-72.1603088,-250.1374054
9690,9.5552101,4.5848727,4.7237358,195.5648804,-62.3740463,-250.1374054
9700,7.6398587,4.4699516,2.1140692,199.0686951,-35.8473282,-250.1374054
9710,5.9136481,4.3646073,-0.1675933,194.0915985,-3.5267177,-250.1374054
9720,4.3095412,3.6870518,-1.7286048,185.8625946,18.5114498,-250.1374054
9730,2.5019281,2.8012016,-2.7150109,178.8931274,26.0076332,-250.1374054
9740,-0.3806761,1.8890154,-3.5793133,176.1374054,16.2748089,-250.1374054
9750,-4.6638808,1.0510491,-4.8123207,174.3587799,-13.0152674,-250.1374054
9760,-9.9885588,1.1563935,-5.9926562,170.4885559,-62.2137413,-250.1374054
9770,-14.9229832,2.0925217,-7.0030041,161.8549652,-118.5725174,-250.1374054
9780,-18.9093075,3.7421181,-8.9327211,145.0610657,-147.7938995,-250.1374054
9790,-19.6131992,4.9703374,-11.3652172,110.0457993,-133.1755676,-220.7251892
9800,-19.6131992,5.9088597,-12.9884777,58.6564903,-85.5954208,-141.1145020
9810,-19.6131992,6.1602492,-13.4553452,-1.9160305,-13.4656487,-53.0305328
9820,-19.6131992,5.6670465,-12.7969427,-58.1297722,67.7862625,36.5343513
9830,-19.6131992,5.2600341,-10.7427282,-102.8167953,120.6412201,115.8244247
9840,-19.6131992,5.0900469,-8.4874020,-130.4198456,131.7404633,172.7328186
9850,-17.5877151,4.9104824,-6.4643116,-142.2671814,117.6793900,210.0763397
9860,-15.1264887,4.7740140,-4.7285242,-141.9618378,99.1221390,238.4656525
9870,-12.8352499,4.6734576,-4.0701222,-138.8244324,76.7175598,250.1297760
9880,-10.5966825,4.6782460,-3.9073172,-136.3587799,58.8244286,250.1297760
9890,-8.2934723,4.6255741,-3.9935081,-137.4809113,49.4045792,250.1297760
9900,-6.2631998,4.4891052,-4.1443419,-142.6641235,47.9083977,250.1297760
9910,-4.4484038,4.1778607,-3.9408360,-151.7709961,48.9236641,250.1297760
9920,-2.1308286,3.5410061,-3.3997490,-162.6183167,46.5801544,250.1297760
9930,0.7445929,3.1555417,-2.4013720,-171.2900696,36.3740463,250.1297760
9940,4.3909435,3.0142846,-0.9768293,-174.3893127,15.5572519,250.1297760
9950,9.0763721,3.4356618,0.6799498,-169.2519073,-17.1450386,250.1297760
9960,14.2430334,4.5920553,2.8419030,-153.9313049,-57.3587799,250.1297760
9970,19.3929348,6.2177100,5.0062504,-130.0915985,-95.3587799,194.5496216
9980,19.6126022,7.4986014,6.9838505,-102.6259537,-117.6259537,117.9770966
9990,19.6126022,8.3222027,8.7675219,-72.9236679,-118.6259537,32.9236641
