timestamp,acclX,acclY,acclZ,gyroX,gyroY,gyroZ
0,4.4651632,2.8251436,7.4148049,21.2671757,-56.6335869,-69.6717529
10,5.1283536,2.9783716,7.4339581,20.2213745,-58.4503822,-69.8320618
20,4.3933377,3.2369442,6.9982157,17.9770985,-63.8320618,-69.5954208
30,4.4484038,3.0597742,6.6654234,13.3740454,-57.9007645,-66.6793900
40,4.4843168,2.9424589,6.4834652,6.0916033,-55.3053436,-61.1221390
50,3.5242469,3.1220231,6.5098009,-3.0687022,-41.6183205,-49.5725174
60,3.6822634,3.0573800,6.3637557,-10.8167934,-39.1068687,-40.1679382
70,4.2975702,3.2153964,6.4714942,-17.3893127,-33.8931313,-34.1145020
80,3.9959023,3.1268115,6.4954362,-25.4274807,-23.7251911,-28.4198475
90,3.5434003,2.4995339,6.5145893,-32.8473282,-15.8396950,-22.2366409
100,2.9161227,2.4899571,6.7109132,-40.6106873,-11.0381680,-12.7175570
110,2.9783716,2.5641768,6.6845770,-47.3435097,-6.3893127,-1.0992366
120,3.5362179,2.6479735,7.3956513,-57.9771004,-2.2977099,18.5648861
130,3.7325413,2.9089401,7.7691450,-58.7633591,-3.9847329,26.8702297
140,4.0006905,2.9735832,7.8170285,-55.9083977,-10.4045801,32.8778610
150,4.4627690,3.0286496,7.4866304,-54.3206100,-15.0534353,36.9236641
160,4.7716198,3.3901722,7.1873569,-56.1297722,-20.4427490,43.3282433
170,5.9304070,2.8299320,6.7659793,-60.8244286,-21.4961834,45.6030540
180,6.4140334,2.8849983,6.3805151,-68.8244247,-22.5572510,43.4045792
190,6.6438756,2.9879484,6.3805151,-79.0457993,-26.8854961,40.9389305
200,6.6510582,2.7748656,6.8066807,-90.1145020,-35.1984749,40.4656487
210,6.7564025,2.4827745,7.5033898,-99.8778610,-53.1068687,39.6946564
220,7.3549500,2.1619530,8.2168579,-105.7251892,-75.7480927,38.8549614
230,8.6334467,2.1404054,8.2671366,-108.2519073,-95.7175598,37.8396950
240,10.3572636,2.3510940,8.0636301,-112.1908417,-109.3969498,35.4351158
250,12.6197729,2.6527619,8.1115141,-115.7022934,-103.7175598,26.6259537
260,14.2095146,2.8059900,8.5257082,-118.0839691,-89.2519073,11.1526718
270,15.8926296,3.0837159,9.3971939,-118.9007645,-77.4427490,-12.0000000
280,15.8351688,2.9089401,10.2543135,-109.3435135,-68.1984711,-41.9771004
290,15.1360655,2.4181314,10.3835993,-98.7251892,-64.1221390,-63.9618340
300,13.9054527,2.2696917,10.0747490,-88.7938919,-86.3358765,-79.3129807
310,13.4744978,1.9033806,9.3469152,-81.7633591,-105.6335907,-89.5572510
320,13.7187052,1.4125718,8.2575598,-75.9160309,-120.0000000,-101.8091583
330,13.9724894,1.0199248,7.8481531,-69.9007645,-129.5801544,-118.9160309
340,15.2461987,1.0510491,7.4411407,-60.0381660,-137.2213745,-149.1984711
350,15.6340570,0.6871324,7.3405848,-50.7404594,-142.4732819,-188.8625946
360,14.5758257,0.4716553,8.2623482,-44.8549614,-161.6793823,-228.6183167
370,13.9677010,0.3950413,8.5209198,-46.0687027,-195.2442780,-250.1374054
380,14.7434187,-0.0622489,8.9015961,-50.2595406,-229.7709961,-250.1374054
390,15.3683023,-0.7014975,9.1912937,-53.9923668,-250.1374054,-250.1374054
400,15.5095596,-1.7812769,9.5192976,-53.2061081,-250.1374054,-250.1374054
410,14.5830078,-2.5091105,9.0380650,-53.1297722,-250.1374054,-250.1374054
420,13.1464939,-3.1555417,9.3540983,-57.9389305,-250.1374054,-250.1374054
430,13.1560707,-3.8809812,10.1154509,-59.2290077,-250.1374054,-250.1374054
440,12.7179346,-4.4914994,11.2502966,-54.7786255,-250.1374054,-250.1374054
450,12.1193867,-5.3725610,12.1960011,-43.6106873,-250.1374054,-250.1374054
460,10.8097658,-6.2703824,12.7346935,-28.5877857,-250.1374054,-250.1374054
470,9.5049324,-6.6630292,13.4649220,-9.4503813,-250.1374054,-250.1374054
480,8.7124557,-6.8545642,14.3866844,13.5496187,-250.1374054,-250.1374054
490,8.2000990,-6.6319046,14.8080616,39.8320618,-250.1374054,-250.1374054
500,7.3597383,-6.4571290,14.6691990,67.9923630,-220.9541931,-250.1374054
510,6.5289545,-5.8705525,13.6971579,95.1679382,-166.3053436,-250.1374054
520,5.1522956,-5.5090299,12.1481171,124.7328262,-101.5190811,-250.1374054
530,3.9073172,-5.0493455,9.9933472,153.6259613,-38.8702278,-250.1374054
540,3.4691806,-3.7325413,7.4674768,178.4351196,16.5114498,-250.1374054
550,3.4907281,-2.4779861,4.5178356,193.3893127,58.3511467,-250.1374054
560,3.7229645,-1.0869620,1.4508789,198.2824402,88.0305328,-250.1374054
570,4.0581512,0.1819584,-1.4556671,195.9160309,102.9312973,-250.1374054
580,4.0701222,1.1611819,-3.4284792,191.0915985,114.7022934,-250.1374054
590,2.2457497,0.4213773,-4.7261300,188.3435059,112.6641235,-250.1374054
600,-0.4908088,1.1180865,-5.9184365,190.6412201,91.9312973,-250.1374054
610,-5.3366485,2.0518203,-8.9949694,199.6488495,42.3435097,-250.1374054
620,-12.6030130,3.2728570,-11.9398232,204.7786255,-33.4503822,-250.1374054
630,-19.6131992,5.1427188,-14.1999378,190.3053436,-97.0916061,-250.1374054
640,-19.6131992,7.3262196,-16.5031471,151.2595367,-149.2061005,-250.1374054
650,-19.6131992,8.6286592,-17.8750191,99.0229034,-146.9541931,-199.1603088
660,-19.6131992,9.1098909,-18.4208927,42.3969460,-100.7404556,-87.7938919
670,-19.6131992,8.8010406,-17.6906662,-18.8931293,-36.9083977,16.9160309
680,-19.6131992,8.1498213,-15.2557755,-71.9236679,10.8702288,104.2671738
690,-19.6131992,7.3334022,-12.4210548,-104.9618301,19.2671757,167.6030579
700,-19.6131992,6.3158717,-10.2591019,-120.6717529,-4.3587785,210.1221313
710,-18.2078114,5.4348102,-8.2910776,-128.2824402,-42.2290077,239.9465637
720,-15.5071650,4.4340386,-6.5888095,-128.8320618,-78.6641235,250.1297760
730,-13.2278967,3.5457945,-5.4850879,-124.1526718,-106.3893127,250.1297760
740,-10.6325951,2.4923513,-4.2688398,-117.4198456,-123.2213745,250.1297760
750,-7.4842362,1.3072275,-3.1028695,-111.2137375,-117.7480927,250.1297760
760,-4.9559722,0.6105183,-2.7509236,-105.3893127,-104.1832047,250.1297760
770,-1.9871773,0.2681492,-3.3422885,-103.6106873,-75.2290039,250.1297760
780,0.7757174,0.0239419,-3.6966286,-109.2137375,-42.4503822,250.1297760
790,3.9982965,-0.5027798,-3.1172347,-119.8320618,-17.4961834,250.1297760
800,8.2192526,-0.9265513,-0.7757174,-125.4503784,-5.0000000,250.1297760
810,12.6748390,-0.6919208,2.5498118,-118.8702316,-3.0610688,250.1297760
820,16.1152897,-0.5650287,5.6383162,-98.5496216,-12.0687027,250.1297760
830,19.6126022,-0.2992737,7.9870162,-68.9770966,-38.2671738,250.1297760
840,19.6126022,0.3710994,10.0532017,-32.1908379,-74.4656525,215.3816833
850,19.6126022,0.9097920,10.7666702,9.0610685,-109.1526718,121.4274826
860,19.6126022,1.6807210,8.8154058,43.9389305,-135.6106873,32.3053436
870,19.6126022,2.3367288,6.0860295,63.5572510,-142.9541931,-35.7557259
880,19.6126022,2.7006457,4.1563129,68.5877838,-137.2519073,-84.1450348
890,19.6126022,2.7796540,3.3566537,67.2442780,-120.1755753,-121.2137375
900,19.6126022,2.6623387,3.6415622,66.8167953,-87.7480927,-150.7709961
910,18.3418846,2.3726418,3.9264708,74.1145020,-43.7633591,-172.3206177
920,16.9149494,1.8028246,4.3861551,90.9465637,4.8854961,-188.1221313
930,15.6819410,1.4987626,4.3215117,113.8320618,41.5572510,-203.0534363
940,14.7529955,1.2090657,3.2201848,138.3740387,71.7099228,-222.6412201
950,13.3140879,1.7477583,1.5514348,160.2748108,92.3129807,-247.5725250
960,11.9182749,2.2840567,-0.9816177,174.1984711,102.9465637,-250.1374054
970,10.4793673,2.7221935,-3.9312592,179.3206177,105.7404556,-250.1374054
980,8.6597834,3.4332676,-7.2280579,176.4351196,105.2442780,-250.1374054
990,6.7468257,3.5338237,-9.6868906,168.4961853,103.9389343,-250.1374054
1000,1.6280488,2.5306582,-10.8241301,164.0229034,69.4656525,-250.1374054
1010,-6.5361371,1.7573351,-12.3683825,159.5114441,7.3740458,-250.1374054
1020,-14.1352949,2.7844424,-13.9293938,148.3969421,-67.1068726,-250.1374054
1030,-19.6131992,5.2791877,-14.8583393,128.5190887,-134.3435059,-250.1374054
1040,-19.6131992,7.3980455,-15.4688578,103.9236679,-187.3129730,-250.1374054
1050,-19.6131992,8.9853926,-16.4193516,57.1832047,-186.7557220,-247.9770966
1060,-19.6131992,8.9782104,-16.3834381,-3.2519083,-150.7557220,-120.7633591
1070,-19.6131992,9.9071560,-15.1025467,-56.3664131,-78.3282471,2.5648854
1080,-19.6131992,9.2942438,-13.4505568,-92.5648880,-1.2213740,103.8854980
1090,-19.6131992,7.7068958,-11.4418316,-121.6717529,35.5038185,182.9694672
1100,-19.6131992,6.6007805,-9.1984758,-136.4580078,32.3129768,240.9007568
1110,-19.6131992,5.6694407,-7.6398587,-138.4351196,6.3435116,250.1297760
1120,-16.1751442,5.2384863,-6.7994981,-136.5190887,-26.8854961,250.1297760
1130,-11.8201132,4.8961172,-6.2943239,-135.8167877,-50.9618340,250.1297760
1140,-9.4714136,4.3119354,-5.4802995,-136.3664093,-67.5648880,250.1297760
1150,-7.6925306,3.3901722,-4.9296360,-132.9847260,-81.1297684,250.1297760
1160,-4.9823084,2.8251436,-4.8841467,-130.3053436,-83.2061081,250.1297760
1170,-2.0733681,2.6383967,-5.3965030,-130.2977142,-71.8091583,250.1297760
1180,-0.2753318,2.2744799,-5.9711084,-134.4274750,-55.0458031,250.1297760
1190,1.8578910,1.7812769,-5.8825235,-144.1068726,-42.1832047,250.1297760
1200,5.3773494,1.2545552,-4.8697815,-153.4274750,-34.6564903,250.1297760
1210,9.7730818,0.6727672,-3.0501974,-160.6793823,-24.1450386,250.1297760
1220,12.9501705,0.5219333,-0.2394189,-158.7404633,-25.1297703,250.1297760
1230,15.6627874,0.4070122,2.0757623,-145.8015289,-34.6641235,250.1297760
1240,17.1040897,0.3639168,3.9623835,-124.1984711,-56.4732819,241.7022858
1250,18.8925495,0.3375807,4.9894910,-98.4809189,-88.9770966,179.3816833
1260,19.6126022,1.0438666,4.9870968,-75.1908417,-116.4580154,119.4580154
1270,19.6126022,1.6902977,4.7428894,-56.6488533,-130.6412201,65.8167953
1280,19.6126022,1.8602852,4.3981261,-44.2137413,-137.0915985,21.4656487
1290,19.6126022,1.6591733,4.4244623,-37.1526718,-134.5954132,-15.8854961
1300,19.6126022,1.5586174,5.0110383,-31.1450386,-119.6793900,-46.2290077
1310,19.6126022,1.2066715,6.0453281,-20.8015270,-98.5496216,-72.1526718
1320,19.6126022,0.9840119,6.7827387,-2.6946564,-75.2671738,-98.3358765
1330,19.6126022,0.8738791,7.2424231,21.8854961,-45.9007645,-126.8549652
1340,19.6126022,0.8738791,6.8306227,52.0839691,-20.1450386,-156.3587799
1350,18.4927197,0.9026094,5.4348102,80.5496216,3.7404580,-183.9084015
1360,16.2685165,1.1372399,3.7301471,104.8396912,27.2671757,-209.0381622
1370,14.0850163,1.6567791,1.6950861,118.9389343,48.3358765,-231.1603088
1380,12.2103662,1.6926919,0.0981618,126.3053436,64.2900772,-250.1374054
1390,10.7714586,1.6065011,-0.3687052,132.3969421,76.8625946,-250.1374054
1400,9.3277617,1.1109039,-1.2377959,142.6259613,85.8549652,-250.1374054
1410,7.6805596,1.2641320,-2.6695213,153.8778687,95.6870193,-250.1374054
1420,5.4970589,1.8243724,-4.5058646,161.8167877,97.6870193,-250.1374054
1430,2.8323262,1.9129574,-7.0006099,162.5877838,97.6412201,-250.1374054
1440,-0.8523315,1.9895715,-8.8177996,155.9618378,87.0000000,-250.1374054
1450,-5.6981707,2.6623387,-10.1848822,145.6335907,56.8931313,-250.1374054
1460,-10.2040358,3.4165084,-11.0515785,132.7175598,17.2366409,-250.1374054
1470,-14.9636841,4.6064205,-11.7075863,112.7557220,-12.3282442,-250.1374054
1480,-19.6131992,5.2767935,-10.6014709,99.0381699,-59.0000000,-250.1374054
1490,-19.6131992,5.7867560,-10.0125008,88.7709961,-93.2900772,-250.1374054
1500,-19.6131992,6.4331870,-9.6916790,75.7175598,-97.2061081,-250.1374054
1510,-19.6131992,6.8976598,-9.7371683,55.2977104,-79.0534363,-170.9160309
1520,-19.6131992,7.2112985,-9.5767574,30.4885502,-40.7022896,-73.6106873
1530,-19.6131992,6.3637557,-9.0236998,5.1450381,1.5343511,19.4885502
1540,-19.6131992,6.6893654,-9.0979195,-18.9618320,35.3435097,99.8473282
1550,-19.6131992,6.7683735,-8.8992023,-33.4503822,78.2595444,167.4809113
1560,-19.6131992,5.9663200,-9.6318245,-45.7786255,99.5801544,217.9618378
1570,-17.3746338,5.4036856,-10.6852674,-63.5038185,106.5877838,250.1297760
1580,-13.6468801,4.9128766,-10.5631638,-84.4351120,111.1068726,250.1297760
1590,-10.3716288,4.1850433,-9.3708572,-103.8320618,109.6030502,250.1297760
1600,-7.4387465,3.7349355,-8.2431946,-120.0763321,105.7633591,250.1297760
1610,-4.9655490,3.1675127,-7.1801744,-130.4198456,103.2824402,250.1297760
1620,-2.7700772,2.9209111,-6.1171541,-137.2824402,95.5725174,250.1297760
1630,-0.4477134,2.9280937,-4.7811961,-142.6488495,75.1221390,250.1297760
1640,2.8323262,2.7772598,-3.3111639,-146.4580078,41.0000000,250.1297760
1650,5.9687142,2.7700772,-2.1643472,-146.7633514,0.0000000,250.1297760
1660,9.2631187,3.4643922,-1.1970947,-147.1603088,-26.4580154,240.9313049
1670,11.6405487,3.6463506,0.3567342,-145.5954132,-44.2442741,209.1908417
1680,12.9956608,3.9863255,1.9704180,-138.9541931,-58.0228996,178.1450348
1690,13.7306767,3.9192882,3.3351059,-124.8396912,-77.3740463,149.1526642
1700,14.8631277,4.3981261,4.1299767,-103.5572510,-89.4961853,122.3282471
1710,15.7801027,4.6638808,5.0732875,-85.4045792,-80.2595444,95.4427490
1720,16.1535969,4.8458395,5.6646523,-72.0305328,-68.5419846,69.0076370
1730,16.4504757,5.2624283,6.1482787,-63.4351158,-60.8244286,45.5419846
1740,17.7577038,5.6047974,6.9168134,-56.4274826,-44.2137413,21.2977104
1750,18.9308567,5.4204450,7.9774394,-46.3740463,-14.9007635,-4.5572519
1760,19.6126022,5.0876527,8.8944139,-30.8473282,23.7175579,-32.8396950
1770,19.4001179,4.6064205,9.7395630,-9.5648851,60.4351158,-61.0916023
1780,18.0665531,4.0270267,9.6797075,16.8167934,78.2671738,-89.5267181
1790,16.3690739,3.7253587,8.6956959,44.0152664,82.2595444,-118.4274826
1800,14.7338419,3.5194585,7.3286138,69.1374054,80.0381699,-147.4656525
1810,13.3452120,3.1627243,5.7029591,91.9389343,76.3816757,-177.9007568
1820,11.6836443,2.9640064,3.8546450,110.1068726,73.5725174,-206.0229034
1830,9.7946291,2.7102225,2.0254843,125.7709961,77.1679382,-228.8702240
1840,7.7571740,2.7245877,0.2537841,137.6259613,80.3893127,-245.4656525
1850,6.2320752,3.0454090,-1.9440818,147.5572510,82.4198456,-250.1374054
1860,4.8338685,3.1818779,-4.3358769,154.7786255,88.1603088,-250.1374054
1870,2.9233053,3.2848279,-6.8521700,157.8549652,82.2977066,-250.1374054
1880,-0.7805058,2.8395088,-9.3756456,154.3969421,54.6488533,-250.1374054
1890,-5.9256191,2.9280937,-11.5136566,146.0381622,8.6488552,-250.1374054
1900,-12.2989511,2.7413468,-12.5383701,138.6412201,-55.6641235,-250.1374054
1910,-19.6131992,3.3590479,-13.0363617,131.7709961,-116.5801544,-250.1374054
1920,-19.6131992,5.1139889,-13.3092995,119.1679382,-160.5801544,-250.1374054
1930,-19.6131992,6.6223278,-13.2685976,95.9618301,-172.7099304,-250.1374054
1940,-19.6131992,7.3477674,-13.3116932,59.5572510,-137.8473358,-154.5038147
1950,-19.6131992,6.9383612,-12.1648769,19.5267181,-66.6946564,-45.7709923
1960,-19.6131992,5.5497313,-10.6685085,-26.2900772,-5.7709923,62.0610695
1970,-19.6131992,4.8314743,-8.8896255,-67.5038147,16.2290077,161.2900696
1980,-19.6131992,4.5752959,-6.7899213,-86.6717529,13.0992365,241.3664093
1990,-19.6131992,4.2089849,-5.7795734,-92.0763321,3.9770992,250.1297760
2000,-16.3020363,3.8163381,-6.0429344,-92.2671738,-1.0534351,250.1297760
2010,-12.3731709,3.4883339,-6.5433197,-97.4503784,-0.0763359,250.1297760
2020,-9.6964674,3.2752512,-7.0197635,-111.8320618,7.9618320,250.1297760
2030,-7.1035600,2.7557120,-6.8593526,-131.0381622,21.7404575,250.1297760
2040,-4.0054789,2.1116750,-6.2081332,-148.9160309,32.5954208,250.1297760
2050,-0.7086801,1.5083394,-5.5114241,-162.9541931,34.0228996,250.1297760
2060,4.0437860,1.5131277,-4.7045822,-174.1374054,29.9465656,250.1297760
2070,8.4706421,2.1284344,-3.4500270,-183.1145020,29.8778629,250.1297760
2080,11.8632088,2.7221935,-1.9009864,-188.2519073,38.9541969,250.1297760
2090,13.7426472,2.9233053,-0.5147507,-192.6488495,49.6106873,250.1297760
2100,15.6220865,3.0406206,1.0271072,-191.1297760,37.2519073,250.1297760
2110,18.0330353,3.4691806,3.3997490,-177.9084015,-0.1297710,223.5419922
2120,19.6126022,3.1794837,5.3103123,-152.5648804,-42.4656487,154.3282471
2130,19.6126022,2.7245877,6.0477223,-127.1450348,-65.2595444,80.0992355
2140,19.6126022,2.7221935,7.3836803,-107.5572510,-71.4427490,17.2137413
2150,19.6126022,2.8419030,9.1769285,-88.0076370,-82.1297684,-29.2366409
2160,19.6126022,2.5067163,10.4793673,-63.2290077,-83.6564865,-66.5496216
2170,19.6126022,2.1427996,10.8911676,-36.7862587,-59.7786255,-96.4809189
2180,19.6126022,1.6615674,11.4250717,-7.4427481,-25.8625946,-120.1526718
2190,18.6100349,1.3694763,11.8033543,25.7404575,-2.6717558,-140.8396912
2200,17.5182838,1.2114599,11.3053627,60.2977104,10.7938929,-164.5572510
2210,16.0458584,1.2856797,10.0555954,93.0076370,25.2748089,-191.4503784
2220,14.3411951,1.4317253,7.9965930,121.8702316,39.9694672,-220.8549652
2230,12.8208847,1.5059452,6.2033448,145.9923706,51.0687027,-250.1374054
2240,10.9917240,1.2330076,3.7971845,163.9923706,56.6259537,-250.1374054
2250,8.8585014,1.3718705,1.2138541,177.4961853,58.8549614,-250.1374054
2260,7.3501616,1.7333932,-1.0055596,187.8854980,65.7633591,-250.1374054
2270,5.9519548,1.4436963,-3.4308734,194.0686951,75.0229034,-250.1374054
2280,3.5912843,0.6416427,-5.8322453,194.0000000,74.0687027,-250.1374054
2290,0.6296718,0.1436514,-7.9702568,186.6793823,62.1908379,-250.1374054
2300,-3.6152260,-0.5578461,-9.4618368,170.8015289,36.5190849,-250.1374054
2310,-9.9861641,-1.0103480,-9.9789820,154.4122162,0.0458015,-250.1374054
2320,-19.6131992,-0.7182568,-9.4953556,147.5801544,-59.5190849,-250.1374054
2330,-19.6131992,0.8188128,-8.6023226,144.5190887,-136.0839691,-250.1374054
2340,-19.6131992,4.4771342,-9.5647869,132.1221313,-182.0839691,-250.1374054
2350,-19.6131992,7.3477674,-11.6405487,95.5801544,-143.9923706,-179.0992432
2360,-19.6131992,7.0844064,-12.5407648,39.3511467,-45.0763359,-36.0381660
2370,-19.6131992,4.9248476,-11.5495701,-19.6564884,64.0916061,88.3282471
2380,-19.6131992,4.3646073,-8.7435799,-66.0152664,108.2977066,182.0763397
2390,-19.6131992,4.3789725,-5.6024032,-83.3969498,81.4961853,238.1374054
2400,-19.6131992,4.3598189,-4.1395535,-75.2748108,23.0458012,250.1297760
2410,-18.4137115,4.3478479,-3.8761928,-58.6946564,-35.7862587,250.1297760
2420,-14.7362356,4.4124913,-5.2624283,-49.3358765,-67.9312973,250.1297760
2430,-12.3444405,4.0988522,-6.3039007,-52.6793900,-76.1832047,250.1297760
2440,-10.2758608,3.8259149,-6.5552907,-64.1145020,-67.7480927,250.1297760
2450,-8.1953106,3.6248028,-6.3374195,-76.2977066,-47.6641235,250.1297760
2460,-6.5840211,3.1148405,-5.9304070,-87.2671738,-24.8778629,250.1297760
2470,-4.9511838,2.5881188,-5.6502872,-97.9465637,-3.4427481,250.1297760
2480,-2.8778157,2.1715298,-5.3079181,-109.7786255,11.8702288,250.1297760
2490,0.2920911,1.8243724,-4.5513539,-121.8091583,25.9770985,250.1297760
2500,3.7923961,1.6495966,-3.1651185,-130.6412201,37.3053436,250.1297760
2510,6.8880830,1.6088953,-1.1827296,-134.5496216,44.5419846,250.1297760
2520,9.6246414,1.6424140,0.7517755,-130.4427490,44.4198456,250.1297760
2530,12.1576939,2.1835008,2.5354466,-118.7099228,41.4503822,250.1297760
2540,14.2095146,2.7988074,3.6439564,-101.9465637,44.4580154,250.1297760
2550,15.2270451,3.1699069,4.1156116,-85.7404556,52.6030540,250.1297760
2560,14.9828377,3.4931223,4.3909435,-69.6335907,51.8473282,214.8320618
2570,14.5470953,3.7445123,4.6566987,-52.7175560,36.7786255,174.9694672
2580,14.6045561,4.1204000,4.7404952,-37.1755714,8.3358774,136.1679382
2590,15.4497042,4.2808108,4.8985114,-27.9312973,-31.5114498,97.3129807
2600,16.7042599,4.3670015,4.9583664,-22.5801525,-60.3282433,55.3206100
2610,17.7816448,4.4292507,5.0301919,-18.5267181,-69.4198456,16.4351139
2620,18.2125988,4.4244623,5.3534074,-11.8167934,-62.4122124,-15.9694653
2630,17.6978493,4.3143296,5.7628140,-0.2977099,-45.7251892,-41.1297722
2640,16.5486374,4.0653338,6.0453281,14.4274807,-25.6106873,-59.0839691
2650,15.8303804,3.9911139,6.2775645,31.9236641,-9.4732828,-73.9770966
2660,15.2701406,3.9815371,6.4834652,50.8854980,1.6183206,-89.2900772
2670,14.7290535,4.0174499,6.3733325,68.1145020,10.4198475,-105.6412201
2680,14.0658627,4.0509686,5.9304070,83.9694672,19.6259537,-122.3053436
2690,13.2853575,3.8833754,5.1163831,97.7862625,27.6564884,-138.5267181
2700,12.5766773,3.8809812,4.1994085,108.8549652,35.1374054,-153.3053436
2710,11.5184450,3.8474624,3.2872221,119.0000000,42.4274826,-167.0305328
2720,10.5009146,3.9599893,2.5234756,127.9542007,49.1526718,-179.8091583
2730,9.3947992,3.9408360,1.8339491,137.3206177,54.3816795,-192.9847260
2740,8.4443064,3.8618276,0.9457048,147.0610657,55.2442741,-206.8625946
2750,7.3717093,3.8354914,-0.1005560,156.1755676,52.9694672,-222.6488495
2760,6.2703824,3.6583214,-1.4604555,162.8549652,49.5572510,-239.2671814
2770,5.1929970,3.6176202,-2.6934631,166.3206177,46.7938919,-250.1374054
2780,4.1060348,3.1770895,-4.0844874,167.5877838,52.0305328,-250.1374054
2790,3.2800395,3.0861101,-5.1379304,164.8091583,56.6183205,-250.1374054
2800,2.7796540,3.2082138,-5.7364779,160.3358765,66.8625946,-250.1374054
2810,2.1499822,3.1555417,-5.8561873,157.6335907,78.3587799,-250.1374054
2820,2.0542145,2.6168492,-6.1147599,157.6030579,89.6335907,-250.1374054
2830,1.6711442,1.9297167,-6.9814563,159.1068726,95.6412201,-250.1374054
2840,-0.7541697,1.3575054,-8.3557215,159.1908417,92.8091583,-250.1374054
2850,-4.6399393,1.2258250,-9.6294298,157.3129730,73.1755753,-250.1374054
2860,-7.9606800,1.4748207,-10.6086531,150.2824402,39.9771004,-250.1374054
2870,-9.3133974,2.7916248,-11.9134865,135.4198456,8.0000000,-250.1374054
2880,-11.8703909,3.3279233,-12.3947191,113.2977066,2.9312978,-250.1374054
2890,-17.5278606,3.9743545,-12.7227230,87.7404556,-14.7251911,-250.1374054
2900,-19.6131992,4.9056940,-12.9501705,60.3435097,-36.7938919,-250.1374054
2910,-19.6131992,5.3749552,-13.7282820,32.3587799,-50.0228996,-227.1068726
2920,-19.6131992,5.8250628,-14.9014349,-0.3053435,-39.5877876,-158.3969421
2930,-19.6131992,5.2552457,-15.1552191,-37.3740463,-13.7251911,-90.4503784
2940,-19.6131992,5.5497313,-14.4824524,-71.4198456,3.6641221,-29.3740463
2950,-19.6131992,5.2959471,-13.6181498,-96.0000000,15.3740454,26.1374054
2960,-19.6131992,4.8338685,-12.4066896,-117.3664093,21.9236641,69.6106873
2970,-19.6131992,4.1371593,-11.0539722,-132.2595367,9.0763359,104.6030502
2980,-19.0792961,3.7828193,-10.2830439,-136.7862549,-19.4809170,133.1984711
2990,-18.2437229,3.6391680,-9.7491398,-135.1908417,-54.1526718,160.9465637
3000,-17.4105453,3.1387823,-9.8832140,-134.4961853,-85.4656525,191.7175598
3010,-15.6699696,2.6048782,-9.7946291,-137.7099304,-109.9389343,224.3664093
3020,-14.5662489,1.8842272,-9.3349447,-144.2290039,-122.0916061,250.1297760
3030,-12.7442703,1.2377959,-8.6549950,-150.4732819,-113.4122162,250.1297760
3040,-11.5783005,0.3303981,-8.1689749,-158.3435059,-91.5877838,250.1297760
3050,-9.4905672,-0.8882443,-7.6925306,-168.9541931,-66.4122162,250.1297760
3060,-7.0341287,-2.1739240,-7.0556765,-181.4122162,-39.4274826,250.1297760
3070,-4.1467361,-3.2584918,-6.6750002,-195.3893127,-10.6870232,250.1297760
3080,-1.4867916,-4.4220681,-5.9471664,-211.6641235,17.9083977,250.1297760
3090,2.3223639,-4.6878228,-5.0493455,-233.1068726,58.3969460,250.1297760
3100,6.0118098,-4.7261300,-3.0478032,-250.1374054,107.4961853,250.1297760
3110,10.1034794,-3.9815371,-0.2322364,-250.1374054,163.0458069,250.1297760
3120,15.3611193,-2.4899571,4.9583664,-250.1374054,200.1450348,250.1297760
3130,19.6126022,-1.1539993,10.1226330,-243.0839691,211.7404633,250.1297760
3140,19.6126022,0.7326220,14.4130201,-207.7557220,179.9389343,250.1297760
3150,19.6126022,2.4516499,16.2349987,-176.1068726,83.9542007,163.3282471
3160,19.6126022,3.9049230,17.5446205,-140.7099304,-51.2213745,53.1984749
3170,19.6126022,3.1723011,17.4153347,-81.4580154,-152.5190887,-33.7251892
3180,19.6126022,1.4197544,15.8495340,-9.4351149,-171.2748108,-99.0687027
3190,19.6126022,1.3503228,14.7386303,55.1450386,-142.7557220,-143.3893127
3200,19.6126022,2.1787124,13.9629126,104.8015289,-92.6335907,-163.2977142
3210,18.3442802,2.8203552,14.1640244,138.2977142,-36.7633591,-169.3740387
3220,15.9405136,3.6511390,13.8120794,148.3664093,-15.5419846,-174.3282471
3230,14.5159702,5.1475072,11.5423870,116.0610657,-48.5572510,-185.3206177
3240,15.1336718,4.1611013,11.4849272,115.4503784,-2.9465649,-203.9618378
3250,13.6277266,1.9536586,12.0284081,150.7557220,59.7938919,-228.4503784
3260,10.8241301,1.3407460,9.7060442,190.4961853,87.5954208,-248.6412201
3270,8.5185261,1.5394639,6.6965480,222.3740387,84.0305328,-250.1374054
3280,7.0556765,1.2066715,4.0366035,248.2824402,60.1297722,-250.1374054
3290,5.4635406,0.7182568,0.9888002,250.1297760,27.7709923,-250.1374054
3300,4.0126615,0.1915352,-2.0901275,250.1297760,-4.6412215,-250.1374054
3310,1.7597293,-0.7469871,-5.4132624,250.1297760,-38.0839691,-250.1374054
3320,-1.9728121,-1.8602852,-9.1960821,250.1297760,-76.0076370,-250.1374054
3330,-7.1322904,-2.5402350,-12.2726154,250.1297760,-116.4274826,-250.1374054
3340,-12.7370882,-2.7605004,-14.1448717,250.1297760,-163.3358765,-250.1374054
3350,-18.6770725,-1.8411317,-16.1727505,221.9847260,-194.3358765,-250.1374054
3360,-19.6131992,-0.4022238,-17.7122135,169.3587799,-185.2213745,-250.1374054
3370,-19.6131992,2.0230901,-19.5533447,97.4351120,-127.1603088,-250.1374054
3380,-19.6131992,3.2058196,-19.6131992,4.2748094,-27.8167934,-152.0229034
3390,-19.6131992,3.6918402,-18.7273502,-81.6793900,60.2519073,-31.6793900
3400,-19.6131992,3.4763632,-14.6500454,-137.9389343,90.3435135,83.5725174
3410,-19.6131992,3.2824337,-10.6110477,-159.8778687,62.4503822,174.7938995
3420,-19.6131992,2.6767037,-7.6997132,-158.1908417,8.2748089,241.2595367
3430,-19.6131992,2.2481439,-5.9328012,-145.2519073,-49.2900772,250.1297760
3440,-16.7641144,1.8650736,-4.9607606,-130.5801544,-90.1755753,250.1297760
3450,-12.6892042,1.3263810,-4.7596488,-120.0687027,-107.8854980,250.1297760
3460,-9.4833841,0.6871324,-4.9056940,-118.5954208,-99.5954208,250.1297760
3470,-6.7037306,0.1149211,-5.1570840,-127.6183243,-78.5572510,250.1297760
3480,-3.6008608,-1.0869620,-4.5369892,-142.5496216,-51.9618340,250.1297760
3490,0.8571198,-1.2449785,-3.0334380,-154.2061005,-32.2671738,250.1297760
3500,6.8521700,-0.5530578,-1.3431402,-162.8015289,-11.9770994,250.1297760
3510,13.0531206,0.4333483,0.9385223,-165.7099304,-3.7557251,250.1297760
3520,19.6126022,2.5330524,3.2441268,-161.4045868,-9.9541988,250.1297760
3530,19.6126022,5.2001796,5.8466105,-144.7022858,-27.3206100,250.1297760
3540,19.6126022,7.0245519,8.1139078,-115.4198456,-54.4045792,176.6564941
3550,19.6126022,7.7404146,9.5767574,-80.2213745,-91.2900772,62.1450386
3560,19.6126022,7.4124107,10.1393919,-42.8625946,-126.7480927,-40.9923668
3570,19.6126022,6.8617468,9.8377247,-6.1755724,-145.0534363,-114.7938919
3580,19.6126022,6.2775645,9.1505919,21.3129768,-139.6946564,-158.7404633
3590,18.7010136,5.9016771,8.5113440,38.9541969,-117.6335907,-182.9465637
3600,16.8048153,5.8705525,7.5369086,50.7022896,-77.1221390,-201.1145020
3610,14.4992113,5.6431046,6.5768385,61.4427490,-24.9389305,-219.1908417
3620,12.0810804,5.2815819,5.8992829,74.4045792,18.9618320,-235.7862549
3630,9.7515335,5.1259594,4.8913293,89.3816757,41.3511467,-250.1374054
3640,7.6111283,4.8841467,3.0717452,104.0000000,47.5725174,-250.1374054
3650,5.2983413,4.5417776,0.5865764,113.7480927,40.2671738,-250.1374054
3660,2.8897867,4.1060348,-2.1332228,116.4122162,20.1755733,-250.1374054
3670,1.2473727,3.7540891,-4.1132174,112.7251892,2.5419848,-250.1374054
3680,-0.3040621,3.0071020,-5.4707227,107.4809189,-7.3511453,-250.1374054
3690,-2.4636209,2.3032103,-6.0501165,100.8931274,-9.1679392,-250.1374054
3700,-4.9272418,1.7621235,-6.4092450,94.5801544,-14.5267172,-250.1374054
3710,-7.4555058,1.1899122,-5.8609757,84.1450348,-17.8015270,-250.1374054
3720,-10.5272512,0.1699875,-5.5186067,75.1068726,2.2290077,-250.1374054
3730,-14.5159702,0.5291159,-5.3988972,64.5648880,44.1221390,-250.1374054
3740,-19.6131992,1.0223188,-5.5353661,55.5648842,94.6259537,-250.1374054
3750,-19.6131992,1.9345051,-6.4475522,45.9007645,124.5954208,-250.1374054
3760,-19.6131992,2.9041519,-7.4171991,38.0228996,97.5954208,-183.7404633
3770,-19.6131992,3.5936785,-8.1977043,33.7404594,11.5725193,-62.3740463
3780,-19.6131992,3.8235207,-9.3205795,28.6259537,-60.8320618,63.1145020
3790,-19.6131992,5.7915444,-10.1753054,6.0000000,-54.5572510,156.5572510
3800,-19.6131992,6.5935979,-10.5009146,-35.2977104,-2.5343511,212.9618378
3810,-19.1247845,6.2703824,-9.2080526,-77.4809189,43.9312973,250.1297760
3820,-16.3499203,5.7269011,-7.8433647,-101.4580154,54.4732819,250.1297760
3830,-14.0012197,5.6909885,-7.1945391,-112.8473282,45.7099228,250.1297760
3840,-12.3612003,5.4204450,-6.5433197,-119.5038147,30.9236641,250.1297760
3850,-10.9055328,5.1451130,-5.9088597,-123.5343475,11.2519083,250.1297760
3860,-8.6262646,4.9751258,-5.7221127,-124.8702316,-4.9083967,250.1297760
3870,-6.4954362,4.6566987,-6.1746144,-130.2213745,-5.3358779,250.1297760
3880,-4.1778607,4.3215117,-6.1746144,-143.9389343,3.5419848,250.1297760
3890,-1.8602852,3.7828193,-5.0110383,-161.8244324,16.3053436,250.1297760
3900,0.3758878,3.0478032,-2.8849983,-174.9770966,26.3969460,250.1297760
3910,2.9807658,2.7437410,-0.7206510,-178.9847260,26.3893127,250.1297760
3920,6.3062949,2.9616125,1.2928623,-174.4122162,19.6870232,250.1297760
3930,10.0651722,3.5769191,4.1826491,-159.3969421,-0.1374046,250.1297760
3940,15.8016500,4.6255741,6.5145893,-135.8396912,-24.1755733,250.1297760
3950,19.6126022,6.4283986,7.8194227,-106.5877838,-38.5572510,192.1603088
3960,19.6126022,7.7643566,8.1067257,-79.0610657,-35.6030540,105.0457993
3970,19.6126022,7.4890246,8.0109577,-57.1526718,-38.2213745,18.0229015
3980,19.6126022,6.1626434,7.3477674,-37.0610695,-59.7251892,-50.2519073
3990,17.3099899,4.8745699,6.6821828,-20.5496178,-85.1297684,-95.6641235
4000,15.2366219,3.8953462,6.5313487,-7.1908398,-107.9236679,-123.8473282
4010,14.9325600,3.5864959,6.2703824,3.3358779,-108.6717529,-142.1297760
4020,14.9062233,3.5984666,6.2201042,10.1221371,-81.2748108,-157.8625946
4030,14.5303354,3.6248028,6.3805151,14.1984730,-37.4351158,-174.5801544
4040,13.6564569,3.2225790,6.8401995,22.0000000,5.1145039,-193.8320618
4050,12.4138727,2.6838863,7.3357964,38.3969460,35.4351158,-216.1450348
4060,10.4458485,1.7501525,6.7348547,61.1679382,51.0687027,-238.5725250
4070,8.0923605,1.0869620,5.2480631,84.4198456,43.1450386,-250.1374054
4080,6.3829093,0.6248835,3.5721307,103.1221390,19.4809170,-250.1374054
4090,4.8266859,0.4213773,2.0590029,120.4427490,-9.8702288,-250.1374054
4100,3.1315999,0.0550664,0.3615226,131.3053436,-26.5801525,-250.1374054
4110,0.9385223,-0.3687052,-1.6184721,133.5267181,-37.0763359,-250.1374054
4120,-1.5442522,-0.7206510,-2.9280937,126.0000000,-50.0000000,-250.1374054
4130,-3.7493007,-1.0510491,-3.4763632,116.0457993,-63.6412201,-250.1374054
4140,-5.2049680,-1.6136837,-4.3789725,104.7175598,-64.8854980,-250.1374054
4150,-6.8066807,-2.0422437,-5.4563580,89.7557220,-48.8549614,-250.1374054
4160,-8.5376797,-2.6336083,-6.2392578,67.4580154,-20.8778629,-250.1374054
4170,-10.4027529,-3.1842721,-6.5481081,42.2595406,19.4427490,-250.1374054
4180,-12.8807392,-3.6655040,-7.0676475,17.2442741,62.4274826,-250.1374054
4190,-16.5414543,-3.9192882,-6.6390872,-4.5648856,103.6564865,-250.1374054
4200,-19.6131992,-3.7708483,-5.1929970,-15.4122133,132.4122162,-250.1374054
4210,-19.6131992,-3.3829896,-3.4763632,-12.8244276,131.0534363,-250.1374054
4220,-19.6131992,-3.5146701,-1.8147956,7.0610685,79.7251892,-164.7328186
4230,-19.6131992,-3.9719603,-1.5466464,32.4961815,-10.7099237,-59.2900772
4240,-19.6131992,-3.9312592,-3.5817075,40.4732819,-57.7251892,55.4656487
4250,-19.6131992,-1.6424140,-5.4084740,25.5496178,-2.0000000,133.7175598
4260,-19.0721130,-0.5674229,-5.5377603,0.4351145,66.8320618,173.8854980
4270,-17.4584293,-0.3806761,-4.6183915,-24.8625946,105.7251892,206.2595367
4280,-17.2932301,-0.6871324,-3.2967989,-39.3816795,123.6183243,235.9007568
4290,-16.9197369,-0.9672526,-2.0733681,-40.1145020,111.2671738,250.1297760
4300,-16.0841656,-1.3120158,-1.3670821,-32.6641235,87.6717529,250.1297760
4310,-14.2717638,-1.3718705,-1.4484847,-24.6641216,65.1450348,250.1297760
4320,-11.4538021,-1.3575054,-1.8938038,-19.0000000,55.2213745,250.1297760
4330,-8.9183559,-0.8643024,-2.1332228,-18.1755733,71.6793900,250.1297760
4340,-7.6159167,-0.6895266,-3.0166788,-29.6793900,111.7786255,250.1297760
4350,-6.9239960,-0.9457048,-3.5553713,-48.1526718,144.2824402,250.1297760
4360,-5.0349803,-0.8427547,-3.3351059,-68.4885483,166.2748108,250.1297760
4370,-2.9616125,-1.0199248,-2.4205256,-88.1755753,187.1984711,250.1297760
4380,-0.9983770,-0.9433106,-1.5322813,-105.8473282,211.9618378,250.1297760
4390,0.3519458,-1.2737088,-0.4884146,-121.1908417,230.9923706,250.1297760
4400,2.1978660,-0.9002152,0.6248835,-133.3969421,235.7709961,250.1297760
4410,4.1706781,0.0502780,1.7621235,-144.3740387,220.5496216,250.1297760
4420,6.3182659,0.7733232,3.0573800,-145.8091583,204.8396912,250.1297760
4430,9.3157911,1.6735384,4.6614871,-138.0610657,184.3358765,250.1297760
4440,12.4090843,3.0214672,6.1434903,-120.9694672,165.4961853,250.1297760
4450,14.7051115,3.9528067,7.0963774,-96.9389343,157.1908417,250.1297760
4460,16.8862190,4.4771342,7.3405848,-70.6259537,145.0076294,250.1297760
4470,19.1678810,4.8362627,8.0732069,-42.0534363,106.6412201,250.1297760
4480,19.6126022,3.6439564,8.2886839,-13.5572519,54.9618340,192.2900696
4490,19.6126022,4.0533628,10.6661139,25.9694653,-41.5725174,65.3129807
4500,19.6126022,5.6957769,13.2422619,37.0305328,-79.0457993,-7.1908398
4510,19.6126022,6.1482787,15.7274303,53.5419846,-101.6793900,-78.8320618
4520,19.6126022,5.0493455,17.0418396,89.5496216,-108.7938919,-148.6183167
4530,19.6126022,3.8378856,16.0961361,137.6488495,-123.5419846,-202.5419922
4540,18.1886578,2.8012016,11.9302464,188.0763397,-161.9770966,-245.0915985
4550,15.3802729,2.1978660,6.2033448,228.8091583,-215.3816833,-250.1374054
4560,12.7825775,2.4205256,-0.6464311,249.8931274,-250.0229034,-250.1374054
4570,9.0500364,2.9807658,-7.2424231,250.1297760,-250.1374054,-250.1374054
4580,4.4651632,3.2896163,-11.0132713,238.5038147,-236.9465637,-250.1374054
4590,0.3639168,5.0062504,-13.4194317,215.7557220,-229.6946564,-250.1374054
4600,-2.5282640,6.2344694,-14.9373484,182.5648804,-223.8473358,-250.1374054
4610,-5.3821378,6.0740585,-15.0379038,140.0839691,-218.0458069,-250.1374054
4620,-9.0883436,5.3917146,-14.2334566,95.8015289,-222.0534363,-250.1374054
4630,-12.4162664,4.9392128,-12.5982246,59.8549614,-246.4198456,-250.1374054
4640,-14.7793312,4.5489597,-10.7618818,34.2595406,-250.1374054,-250.1374054
4650,-18.6986198,3.8211265,-8.9853926,19.2977104,-250.1374054,-250.1374054
4660,-19.6131992,2.9807658,-7.0341287,9.8167934,-250.1374054,-250.1374054
4670,-19.6131992,2.6216373,-4.9966736,2.8931298,-250.1374054,-248.4122162
4680,-19.6131992,2.7605004,-3.0621684,-2.3129771,-250.1374054,-171.3893127
4690,-19.6131992,2.6072724,-2.3463056,-10.4503813,-190.5190887,-82.7938919
4700,-19.6131992,1.9368993,-1.4269369,-22.8931293,-106.0610657,13.5725193
4710,-19.6131992,1.6759326,-2.0063307,-43.8473282,-49.9236641,107.5190811
4720,-19.6131992,1.6831152,-2.6767037,-66.9847336,-14.2595415,188.9465637
4730,-19.6131992,1.1851238,-2.4516499,-78.3740463,12.1297712,249.6717529
4740,-17.9851513,1.2162483,-2.2649033,-80.9770966,35.5419846,250.1297760
4750,-15.1959200,1.1444225,-2.4205256,-80.4274826,50.4503822,250.1297760
4760,-12.4617558,1.0247130,-2.6240315,-79.5496216,56.1832047,250.1297760
4770,-10.0005293,0.9504932,-3.1028695,-79.5419846,57.2671738,250.1297760
4780,-7.8026633,0.8978211,-4.2065907,-81.9694672,52.7480927,250.1297760
4790,-5.5712790,0.6033357,-4.7189474,-87.6946564,44.2290077,250.1297760
4800,-2.3295465,0.8547257,-5.1068063,-94.8854980,38.2061081,250.1297760
4810,1.3048333,0.9696468,-5.0900469,-104.6106873,42.0763359,250.1297760
4820,5.7269011,1.9991482,-4.1658897,-111.3435135,37.9465637,250.1297760
4830,10.7690639,3.1531475,-3.5074875,-117.1984711,20.8931293,250.1297760
4840,16.0769825,4.5896611,-2.6360025,-120.1679382,3.5648854,250.1297760
4850,19.6126022,6.1458845,-1.3072275,-116.7404556,-18.9618320,250.1297760
4860,19.6126022,7.3453732,0.0550664,-107.3129807,-50.9389305,201.0458069
4870,19.6126022,7.4770536,0.6727672,-96.2137375,-88.4503784,118.1374054
4880,19.6126022,7.3357964,1.1444225,-81.5038147,-131.5190887,40.6030540
4890,19.6126022,7.4555058,2.2649033,-61.3893127,-161.9618378,-27.3816795
4900,19.6126022,6.9742737,3.1244173,-45.5267181,-162.2290039,-81.3587799
4910,19.6126022,6.8880830,4.0605454,-28.8549614,-139.6870270,-121.9389343
4920,19.6126022,7.0604649,4.7333126,-12.6641226,-103.8244247,-149.9007568
4930,19.6126022,6.7803445,4.4005203,1.3664122,-57.4198456,-173.3664093
4940,18.7417145,6.6199336,3.6104376,13.8167934,-10.4122133,-198.1526642
4950,16.4073811,6.1913738,2.6168492,25.2061062,28.2061062,-225.6030579
4960,13.9820662,5.4372044,1.8459201,36.0534363,51.6488533,-250.1374054
4970,10.8696203,4.6495161,0.9792235,45.6412201,63.4503822,-250.1374054
4980,7.5225434,3.8307030,0.4932030,55.1526718,52.9083977,-250.1374054
4990,4.2377152,3.1675127,-0.2154770,64.7251892,12.7862597,-250.1374054
5000,0.1077385,2.4205256,-1.8387375,70.5801544,-42.9771004,-250.1374054
5010,-3.8953462,1.8363433,-3.5912843,69.7099228,-98.3511429,-250.1374054
5020,-8.3700867,2.0039365,-4.8673873,62.8549614,-133.4351196,-250.1374054
5030,-12.8663740,1.4436963,-4.8051381,52.9618340,-165.0610657,-250.1374054
5040,-16.0674057,1.3742647,-3.7397239,43.1068687,-196.6259613,-250.1374054
5050,-18.8446655,1.6998745,-2.0254843,35.3206100,-210.5343475,-250.1374054
5060,-19.6131992,1.6424140,0.1340746,31.3511448,-210.8396912,-250.1374054
5070,-19.6131992,1.6855093,1.9704180,30.7709923,-210.2519073,-219.3358765
5080,-19.6131992,1.9560528,3.4907281,32.1603050,-204.7328186,-153.7480927
5090,-19.6131992,2.4444675,4.0246325,32.2137413,-165.7175598,-87.2290039
5100,-19.6131992,2.3941894,3.7756367,33.2137413,-87.6183243,-16.4045811
5110,-19.6131992,2.7150109,3.6319854,33.2748108,-17.5114498,57.4351158
5120,-19.6131992,2.5976956,3.2800395,32.2137413,33.3816795,126.4503784
5130,-19.6131992,2.4492557,2.9256995,32.0076332,69.1297684,181.8625946
5140,-18.6794662,2.1212518,2.6838863,34.7251892,89.5648880,227.7404633
5150,-16.5246964,2.3295465,1.8171898,37.8244286,98.8702316,250.1297760
5160,-14.1137466,2.2864509,1.0414724,42.9389305,107.5114517,250.1297760
5170,-11.6692791,2.4516499,0.3160330,46.1984749,110.3206100,250.1297760
5180,-9.1074963,2.4181314,-0.5674229,47.8549614,112.1526718,250.1297760
5190,-6.5074067,2.6982515,-1.7381816,46.8931313,109.0229034,250.1297760
5200,-3.5625539,3.0789278,-3.4189026,42.5114517,103.6870193,250.1297760
5210,-0.6775556,3.9911139,-5.0469513,33.6259537,86.9160309,250.1297760
5220,2.4731977,5.1594782,-6.2320752,21.2595425,59.3435097,250.1297760
5230,5.4659348,6.1865854,-6.6989422,8.4274807,32.0610695,250.1297760
5240,7.8577299,7.0891948,-6.6606350,-2.5038168,4.8167939,250.1297760
5250,10.4051476,7.9104018,-6.1530671,-9.5496187,-28.0763359,226.2061005
5260,11.7770176,8.5209198,-5.3246775,-10.6793890,-64.2595444,176.7099304
5270,12.5862541,8.7579451,-4.5848727,-7.1984735,-95.1297684,128.2213745
5280,13.4984398,8.8489246,-3.8594334,0.1526718,-123.5343475,80.5114517
5290,14.2119083,8.8297710,-3.6750808,6.3435116,-138.7328186,40.1374054
5300,14.6356802,9.2200232,-3.6583214,6.8167939,-137.8625946,12.4122133
5310,15.5143480,9.9741936,-3.7349355,2.7786260,-115.8244247,-5.1068702
5320,16.3092194,10.2758608,-3.6942344,-4.8167939,-77.5801544,-19.0534344
5330,17.0514164,10.1298151,-3.5649481,-12.2137403,-29.4045811,-32.3358765
5340,17.5709572,10.0340481,-3.3207407,-17.5496178,15.1145039,-48.3129768
5350,17.2357693,9.6701307,-3.0094962,-20.7022896,50.5419846,-69.9312973
5360,16.5223007,9.1362267,-2.5641768,-21.7633591,70.2671738,-97.5419846
5370,15.6196918,8.5807753,-2.1475880,-20.0534344,76.0076370,-130.1526642
5380,14.2885227,8.2048874,-1.9249283,-17.7633591,77.7938919,-165.6259613
5390,12.3659887,7.6901364,-2.0470319,-15.0381680,77.8320618,-201.1984711
5400,10.4075413,7.0173693,-1.9656296,-12.5954199,76.8320618,-235.8473358
5410,7.9487090,6.1506729,-1.9536586,-9.5572519,73.6717529,-250.1374054
5420,5.1283536,5.2241216,-2.1739240,-5.5801525,67.5190811,-250.1374054
5430,2.1882892,4.1682839,-2.7030399,-0.7404580,56.7251892,-250.1374054
5440,-0.0981618,3.5577655,-3.1244173,2.6259542,34.6030540,-250.1374054
5450,-2.7557120,3.0501974,-4.1084290,1.3664122,13.0076332,-250.1374054
5460,-5.5497313,2.2265961,-4.8218975,-4.4809160,-2.6335878,-250.1374054
5470,-8.7100611,1.2928623,-4.5657191,-12.8854961,-13.0610685,-250.1374054
5480,-11.5160513,0.5626345,-3.4739690,-21.4732819,-34.1297722,-250.1374054
5490,-14.0610743,0.1843526,-2.3103929,-27.8931293,-48.5496178,-250.1374054
5500,-18.1575336,0.1580165,-0.9265513,-30.9389305,-54.7786255,-250.1374054
5510,-19.6131992,-0.5267217,0.8786675,-28.1755733,-71.4198456,-250.1374054
5520,-19.6131992,-1.5586174,2.3223639,-16.4961834,-111.4351120,-221.8931274
5530,-19.6131992,-1.7573351,2.1212518,3.7404580,-143.8778687,-140.1603088
5540,-19.6131992,-1.0247130,1.8076130,26.2519093,-119.3969498,-35.2290077
5550,-19.6131992,0.5746055,1.1635761,37.5190849,-40.2595406,77.4656525
5560,-19.6131992,1.2210367,0.6895266,26.4045811,37.6870232,162.5190887
5570,-19.6131992,1.4389079,0.4022238,3.1374047,82.8015289,217.6259613
5580,-19.3211098,1.3263810,0.4094064,-20.9618320,98.2671738,250.1297760
5590,-17.7313671,0.8212070,0.6871324,-33.7557259,92.5190811,250.1297760
5600,-15.8638992,0.4764437,0.8858501,-29.9160309,83.3282471,250.1297760
5610,-14.0706511,0.1244979,0.3375807,-15.9923668,74.7175598,250.1297760
5620,-11.6429434,-0.1149211,-0.5267217,-2.5267177,65.6412201,250.1297760
5630,-8.3557215,0.2250538,-2.0997043,3.9083970,58.6564903,250.1297760
5640,-4.8338685,0.8044477,-3.3039815,2.0305343,61.7175560,250.1297760
5650,-1.3742647,1.2832855,-4.0222383,-9.9923668,74.9923630,250.1297760
5660,2.9185169,2.6264257,-4.1706781,-28.5038166,90.2366409,250.1297760
5670,7.8625183,4.2089849,-3.3159523,-48.6106873,111.0152664,250.1297760
5680,12.3228931,5.6119800,-1.9201399,-65.7709961,124.9694672,250.1297760
5690,17.1112728,7.0580707,-0.5746055,-75.9770966,125.6717529,250.1297760
5700,19.6126022,8.4203644,1.1061156,-76.0152664,116.8320618,250.1297760
5710,19.6126022,9.1769285,2.2577207,-68.7404556,99.1755753,206.2137451
5720,19.6126022,8.8800488,2.7700772,-57.3587799,76.4427490,124.9847336
5730,19.6126022,7.6183109,2.9568241,-43.9083977,53.2061081,56.0000000
5740,19.6126022,7.0221577,3.2513094,-28.6183205,31.2137413,4.1374044
5750,19.6126022,6.5169835,3.6607156,-11.7022905,28.2213745,-34.9618340
5760,19.6126022,6.5983863,3.8402798,5.7175574,42.8320618,-67.7328262
5770,19.4001179,6.3829093,3.8881636,21.9770985,69.3435135,-94.2442780
5780,17.9851513,5.9687142,3.4979107,36.2442741,99.7251892,-114.6412201
5790,16.7042599,5.4707227,2.8155668,50.5648842,119.8473282,-134.1450348
5800,15.1791611,4.8649931,1.8267666,65.3740463,131.1908417,-155.4961853
5810,13.5535069,4.4244623,0.4955972,80.3511429,136.7099304,-179.9618378
5820,11.8512383,3.9839313,-0.7876883,95.4656525,137.0763397,-208.0763397
5830,9.9741936,3.7421181,-1.8100072,110.4732819,128.5496216,-240.6259613
5840,7.2711535,3.2441268,-3.2656744,123.6488571,102.8702316,-250.1374054
5850,4.6375451,3.1459649,-5.2504573,132.1526642,77.9923630,-250.1374054
5860,1.2521610,2.9161227,-6.6989422,136.7404633,54.8473282,-250.1374054
5870,-2.8514795,2.1260402,-8.1067257,138.0152740,41.3511467,-250.1374054
5880,-7.5153608,0.9816177,-8.3581152,134.2366486,-5.8854961,-250.1374054
5890,-12.8400383,0.4261657,-8.6023226,124.3206100,-73.9160309,-250.1374054
5900,-18.4927197,1.0079538,-9.2128410,110.3282471,-114.1679382,-250.1374054
5910,-19.6131992,1.6879035,-9.5288744,90.5572510,-119.1832047,-250.1374054
5920,-19.6131992,1.6352314,-9.2200232,65.7099228,-105.2519073,-250.1374054
5930,-19.6131992,2.1332228,-9.1074963,36.0076332,-70.1526718,-215.4351196
5940,-19.6131992,2.2984219,-8.1833391,-0.7022901,-20.4122143,-105.2290039
5950,-19.6131992,2.2361729,-7.3764977,-45.4732819,21.0610695,7.4961834
5960,-19.6131992,2.9735832,-6.2512288,-86.7709961,42.6717567,101.2213745
5970,-19.6131992,3.2537034,-4.4555864,-104.3282471,40.5801544,165.2671814
5980,-19.6131992,3.1100521,-3.1555417,-97.5419846,23.3282452,207.5954132
5990,-19.6131992,2.8347204,-2.9065459,-79.8625946,-8.0916033,243.7328186
6000,-18.8398762,2.6599445,-3.6343796,-63.1526718,-43.8091621,250.1297760
6010,-15.4233685,2.7389526,-4.5657191,-53.4580154,-67.4045792,250.1297760
6020,-12.5623121,2.4684093,-5.8298512,-53.7709923,-73.9312973,250.1297760
6030,-9.8951855,2.3367288,-6.5481081,-63.2213745,-66.2748108,250.1297760
6040,-7.1538382,2.1811066,-6.8378053,-79.2748108,-47.7862587,250.1297760
6050,-4.6351509,1.5849534,-6.1722202,-97.7099228,-29.8854961,250.1297760
6060,-0.4094064,1.6543850,-4.9894910,-111.3358765,-21.3816795,250.1297760
6070,3.3470769,1.9536586,-3.6224086,-119.0152664,-14.4656487,250.1297760
6080,6.9886389,2.4444675,-2.0374553,-121.5343475,-15.2900763,250.1297760
6090,10.8576488,3.1890604,-0.9911944,-120.3282471,-25.0381680,250.1297760
6100,14.5039997,4.2041965,0.0191535,-115.6183243,-43.5877876,250.1297760
6110,17.3530846,4.9296360,0.7230452,-109.0687027,-58.2213745,237.6488495
6120,19.3833580,5.2360926,1.5274929,-100.1221390,-73.2671738,181.3587799
6130,19.6126022,5.5640965,2.1547706,-88.2595444,-90.9236679,127.4274826
6140,19.6126022,6.0237808,2.8586621,-74.3282471,-98.9160309,76.8778610
6150,19.6126022,6.2823529,3.8307030,-60.8473282,-91.4274826,31.5114498
6160,19.6126022,6.6869712,4.9966736,-48.4656487,-70.3358765,-10.2900763
6170,19.6126022,6.8761120,5.7963328,-35.1221390,-37.3740463,-47.0381660
6180,19.6126022,6.4499464,6.5648675,-18.0229015,-0.0381679,-80.3969498
6190,19.6126022,5.7029591,6.9646969,4.5725193,24.2442741,-110.0534363
6200,18.6435528,5.1786318,6.7611909,30.8091602,27.1755733,-139.4427490
6210,16.3690739,4.8027439,5.1690550,55.1679382,24.7328243,-169.8931274
6220,14.0610743,4.9392128,2.4684093,68.8015289,23.8015270,-196.6335907
6230,11.6285782,5.4443870,-0.1221037,69.9312973,27.8320618,-218.8167877
6240,9.6868906,5.7843618,-2.2864509,61.1984749,36.4427490,-237.9618378
6250,8.0732069,6.0046272,-3.4955165,48.4732819,54.5190849,-250.1374054
6260,6.5193777,6.1817970,-3.9432299,36.9541969,75.2061081,-250.1374054
6270,4.3813667,5.9806852,-4.8961172,28.0076332,90.6793900,-250.1374054
6280,2.0566087,5.4515696,-5.8777351,19.2900772,96.8396912,-250.1374054
6290,-0.8188128,4.3119354,-6.1554613,11.7099237,81.4427490,-250.1374054
6300,-5.5640965,2.8323262,-6.0668759,6.1984735,41.8931313,-250.1374054
6310,-9.6701307,2.1595588,-5.9088597,3.8320611,-27.7786255,-250.1374054
6320,-13.0459385,2.1978660,-5.3701668,3.3969467,-89.5419846,-250.1374054
6330,-17.9372673,1.8938038,-4.2568688,-0.6870229,-118.5801544,-250.1374054
6340,-19.6131992,1.8267666,-2.8299320,-10.3358774,-129.5648804,-250.1374054
6350,-19.6131992,2.5689652,-1.7645177,-23.1374054,-114.1603088,-250.1374054
6360,-19.6131992,2.5713594,-0.5793939,-36.2061081,-64.4045792,-195.7862549
6370,-19.6131992,2.7748656,0.1436514,-51.5190849,-12.6564884,-91.9542007
6380,-19.6131992,2.2601149,1.1228749,-58.9007645,8.6106873,15.1374044
6390,-19.6131992,2.7126167,1.1228749,-58.1526718,25.3740463,108.8549652
6400,-19.6131992,2.4803803,1.0821736,-54.1374054,40.3664131,180.6870270
6410,-19.6131992,2.4875629,0.9097920,-49.7633591,38.2442741,236.3893127
6420,-19.0888729,2.5426292,0.9504932,-44.0305328,36.0992355,250.1297760
6430,-16.7856617,2.1715298,0.9768293,-37.7938919,25.8167934,250.1297760
6440,-14.6452570,2.1236460,0.8882443,-32.0228996,9.6717558,250.1297760
6450,-11.9853125,2.0685797,0.7254394,-26.9541988,6.9236641,250.1297760
6460,-10.0484133,1.5179161,0.5937590,-24.5190830,20.1755733,250.1297760
6470,-7.5321202,1.2641320,0.1699875,-27.6412220,44.1603050,250.1297760
6480,-5.3534074,1.1252691,-0.3327923,-37.7557259,78.9236679,250.1297760
6490,-2.8538737,0.5985473,-0.2322364,-54.1755714,114.6717529,250.1297760
6500,0.2178712,0.2657550,0.4022238,-74.0000000,143.2748108,250.1297760
6510,3.7493007,0.0574605,1.6663558,-91.5725174,163.0992432,250.1297760
6520,8.1258793,-0.1221037,3.0478032,-101.8549652,167.0152740,250.1297760
6530,12.9477768,0.5793939,4.6734576,-101.9236679,140.5190887,250.1297760
6540,19.6126022,2.5091105,6.6199336,-88.4580154,85.7709961,250.1297760
6550,19.6126022,4.3550305,8.1617918,-64.4274826,24.4885502,250.1297760
6560,19.6126022,4.8769641,9.3469152,-34.2824440,-31.4732819,165.0152740
6570,19.6126022,4.2281384,10.1322098,2.2977099,-94.9236679,44.7099228
6580,19.6126022,3.3039815,9.1290445,40.0916023,-147.3435059,-54.5648842
6590,19.6126022,3.9623835,6.9048424,69.4427490,-172.5801544,-121.7557220
6600,19.6126022,4.4891052,4.8482337,84.9542007,-164.4045868,-160.8320618
6610,19.6126022,4.8673873,3.5817075,88.0534363,-122.4274826,-178.6946564
6620,18.6339760,4.9152708,3.0861101,86.4045792,-66.8778610,-184.6259613
6630,17.0490227,4.8075323,2.8203552,84.7786255,-12.5801525,-186.6030579
6640,15.6220865,4.5154414,2.8203552,86.3511429,30.3969460,-191.4503784
6650,14.4249916,4.0892754,2.9328821,92.6564865,59.9007645,-203.9236603
6660,13.0387554,3.7085996,2.4205256,102.6335907,77.8702316,-224.0534363
6670,11.6620970,3.7493007,1.3694763,113.2442780,83.8167953,-250.1374054
6680,9.9981356,3.6511390,0.1316804,124.7480927,82.2748108,-250.1374054
6690,7.9032192,3.1148405,-1.3575054,134.6335907,70.5038147,-250.1374054
6700,5.7508430,2.6000898,-3.1938488,140.3511505,53.4274826,-250.1374054
6710,3.3111639,1.8674678,-5.0517397,139.7480927,42.4351158,-250.1374054
6720,0.8379663,1.0151364,-6.6175399,133.4351196,29.3893127,-250.1374054
6730,-2.4660151,-0.3495516,-8.1785507,120.4045792,5.7709923,-250.1374054
6740,-7.5321202,-1.7980363,-8.4658537,102.0305328,-27.1068707,-250.1374054
6750,-15.5311069,-2.5881188,-7.7691450,88.8396912,-78.7480927,-250.1374054
6760,-19.6131992,-2.6192431,-6.2440462,80.4351120,-158.0915985,-250.1374054
6770,-19.6131992,-0.3734936,-4.9224534,77.2137375,-228.8396912,-250.1374054
6780,-19.6131992,0.7326220,-4.7979555,70.4885483,-238.9923706,-250.1374054
6790,-19.6131992,2.0829449,-4.6016321,56.3664131,-176.1526642,-224.1068726
6800,-19.6131992,2.6503677,-4.0629396,31.4045811,-70.2061081,-103.9236679
6810,-19.6131992,1.8818330,-3.0765336,1.1755725,33.6564903,13.6564884
6820,-19.6131992,0.9409165,-2.3510940,-29.1603050,87.2824402,107.2442780
6830,-19.6131992,1.2377959,-1.1132981,-50.8396950,82.2595444,174.4885559
6840,-19.6131992,1.4556671,-0.2873027,-51.2824440,47.3893127,216.7862549
6850,-19.6131992,1.5179161,0.0981618,-32.3893127,9.6793890,244.9923706
6860,-19.1152077,1.4006008,-0.2729376,-5.6488547,-17.6030540,250.1297760
6870,-16.7353840,1.4556671,-1.8890154,13.9923668,-32.8015251,250.1297760
6880,-14.3268299,1.6926919,-3.3686244,20.3664131,-33.6870232,250.1297760
6890,-11.9063044,1.9225341,-4.7476778,13.9236641,-21.1145039,250.1297760
6900,-10.0939026,1.9536586,-5.2576399,-1.7022901,1.3358779,250.1297760
6910,-8.1593981,1.6663558,-5.2887645,-20.8702297,26.6870232,250.1297760
6920,-5.9974446,1.4820032,-5.2241216,-38.2519073,50.1297722,250.1297760
6930,-3.1818779,1.3120158,-4.9535780,-52.9389305,65.4274826,250.1297760
6940,0.3112446,1.3838415,-4.6303625,-66.4427490,77.1984711,250.1297760
6950,3.6559272,1.6926919,-3.8977404,-79.1068726,79.8549652,250.1297760
6960,8.1522150,2.4731977,-2.6767037,-88.0305328,70.6183243,250.1297760
6970,12.3468351,3.3207407,-1.2114599,-90.7938919,56.9083977,250.1297760
6980,15.0905762,3.9144998,0.3136388,-87.4427490,41.4427490,250.1297760
6990,15.9189653,3.9408360,2.0757623,-77.9618301,25.6793900,250.1297760
7000,15.6556044,3.6870518,3.5841017,-62.5954208,8.8549614,235.7099304
7010,15.7848911,3.6152260,4.0342093,-45.0000000,2.1297710,203.0229034
7020,17.1304264,3.9408360,3.9599893,-30.8778629,12.6946564,178.2824402
7030,19.5389805,4.7237358,4.4484038,-20.2519093,22.7099228,149.9541931
7040,19.6126022,5.2001796,5.3222833,-10.4656487,23.9541988,109.0305328
7050,19.6126022,5.4802995,6.7037306,2.2824428,7.1145039,54.3740463
7060,19.6126022,5.2313042,7.5009956,22.1526718,-27.1068707,-12.0916033
7070,19.6126022,4.8482337,6.9144192,45.2366409,-66.0763321,-80.7480927
7080,19.6126022,4.9056940,5.2767935,67.3282471,-91.7328262,-142.1145020
7090,18.9069138,4.8817525,3.4476328,82.8473282,-92.7557220,-186.4732819
7100,15.6771526,4.9056940,1.8770446,90.2061081,-74.6717529,-212.6259613
7110,13.0483322,5.4443870,0.5506636,91.5725174,-47.9541969,-223.1297760
7120,11.1329813,5.6263452,-0.6607963,87.7099228,-15.6488552,-225.9541931
7130,9.6006994,5.7915444,-1.7238164,79.6335907,23.4961834,-226.2061005
7140,8.6933022,5.8609757,-2.3319404,70.9923630,53.9236641,-228.8778687
7150,8.0277176,5.7628140,-2.7940190,63.6946564,73.7862625,-238.5877838
7160,7.1131368,5.6909885,-2.9568241,60.3893127,79.9312973,-250.1374054
7170,5.9519548,5.6407104,-3.5817075,59.9771004,79.2595444,-250.1374054
7180,4.8147149,5.5952206,-4.5489597,60.7404594,78.3664093,-250.1374054
7190,3.2225790,5.5305777,-5.7723908,59.1526718,80.5419846,-250.1374054
7200,1.5993185,4.8506279,-6.9503322,53.3435097,74.6412201,-250.1374054
7210,0.2298422,3.7852135,-8.2767134,42.2290077,57.9465637,-250.1374054
7220,-1.2521610,2.2768741,-8.7986460,27.6641216,33.3053436,-250.1374054
7230,-3.6032550,0.3423691,-8.1785507,13.7251911,10.2290077,-250.1374054
7240,-9.3062143,-1.7142396,-5.7891502,6.0152674,-9.9389315,-250.1374054
7250,-18.1264076,-3.0669568,-2.0398495,10.8702288,-43.9389305,-250.1374054
7260,-19.6131992,-1.9249283,0.9600700,32.0458031,-98.9465637,-250.1374054
7270,-19.6131992,-1.3670821,1.9847831,62.0305328,-155.3969421,-250.1374054
7280,-19.6131992,-0.4333483,0.0670373,92.4198456,-194.4580078,-214.6412201
7290,-19.6131992,3.3662305,-4.4891052,107.9389343,-164.8244324,-92.1297684
7300,-19.6131992,5.5305777,-8.1809454,100.8625946,-64.8778610,15.9389315
7310,-19.6131992,4.2257442,-10.2064295,60.1526718,42.9083977,113.9007645
7320,-19.6131992,2.7102225,-9.9406748,-8.8244276,100.3053436,198.0915985
7330,-19.6131992,1.0295014,-8.0684185,-83.0763321,94.2748108,250.1297760
7340,-19.6131992,0.3112446,-4.4699516,-127.2290039,52.2290077,250.1297760
7350,-19.6131992,-0.3136388,-2.5234756,-127.6793900,6.0076337,250.1297760
7360,-16.6994705,-0.8236012,-1.6950861,-98.9312973,-30.2366409,250.1297760
7370,-13.7426472,-1.0893562,-1.8315549,-66.0076370,-48.5954208,250.1297760
7380,-10.0723553,-0.9983770,-2.8442972,-47.9389305,-43.2137413,250.1297760
7390,-6.3733325,-0.3495516,-3.6678982,-50.1221390,-19.6488552,250.1297760
7400,-2.9376705,0.1268920,-3.5266411,-63.0763359,14.0916033,250.1297760
7410,0.4979914,0.4572902,-2.8682389,-80.3282471,40.4580154,250.1297760
7420,4.4579806,0.9002152,-1.8578910,-94.1603088,47.1755714,250.1297760
7430,9.8568783,2.0877333,-1.0462608,-101.1603088,38.5801544,250.1297760
7440,15.4353390,3.6678982,-0.5817881,-102.1908417,22.4198475,250.1297760
7450,19.4934902,4.5441718,-0.1292862,-100.3206100,2.1603053,250.1297760
7460,19.6126022,5.0493455,0.6440369,-98.0534363,-28.7557259,247.3816833
7470,19.6126022,5.2767935,1.9632354,-92.5954208,-69.9236679,163.1526642
7480,19.6126022,5.4084740,2.9424589,-79.6183243,-106.9847336,86.2595444
7490,19.6126022,5.3725610,3.7133877,-59.8625946,-125.1145020,23.3893127
7500,19.6126022,5.6143742,4.1323709,-38.1603050,-119.2748108,-17.5725193
7510,19.6126022,5.7843618,4.1898317,-18.5114498,-92.2671738,-43.7862587
7520,19.6126022,5.9998388,4.2089849,-3.6793892,-48.3587799,-63.3740463
7530,19.6126022,6.0812411,4.5585365,8.2137403,-5.6564884,-82.5954208
7540,19.6126022,6.1171541,4.9679432,21.8167934,22.5801525,-109.8854980
7550,19.1726685,5.6478930,5.0182209,40.2748108,34.5725174,-146.6183167
7560,17.4560356,5.1163831,4.5058646,61.5572510,31.9923668,-190.2748108
7570,15.2390156,4.5082588,3.3231349,81.2900772,21.2213745,-236.0992432
7580,12.9046812,3.8139439,1.9919657,97.6641235,8.0992365,-250.1374054
7590,10.2950144,3.3063757,0.6679789,106.3206100,-1.5114504,-250.1374054
7600,7.3549500,2.9496415,-0.8475431,111.0152664,-6.9541984,-250.1374054
7610,4.8171091,2.8179610,-2.2696917,114.0457993,-1.4656489,-250.1374054
7620,2.8035958,2.5953014,-4.0102673,112.4809189,17.5496178,-250.1374054
7630,1.0414724,2.0829449,-5.6574697,104.3587799,45.7938919,-250.1374054
7640,-0.6679789,1.1875180,-7.2639709,94.1145020,74.9465637,-250.1374054
7650,-2.3343346,-0.1843526,-8.1019373,82.8167953,94.0839691,-250.1374054
7660,-5.3222833,-2.6192431,-9.2008705,69.8091583,96.7328262,-250.1374054
7670,-10.9151096,-3.6918402,-8.8297710,54.7480927,75.2977066,-250.1374054
7680,-19.6131992,-3.9384418,-6.5169835,41.9847336,34.7175560,-250.1374054
7690,-19.6131992,-2.9664006,-1.4628497,41.6488533,-46.2213745,-250.1374054
7700,-19.6131992,-0.5482694,0.7589580,55.9312973,-137.0534363,-250.1374054
7710,-19.6131992,-1.7477583,-0.6033357,83.2061081,-227.6793823,-164.9465637
7720,-19.6131992,1.3000449,-7.1873569,93.4045792,-187.8931274,-17.5801525
7730,-19.6131992,3.6080434,-11.2718439,59.9847336,-50.6488533,100.1221390
7740,-19.6131992,2.7485294,-12.0619268,-12.0534353,76.5190811,185.8854980
7750,-19.6131992,2.0781565,-9.3062143,-95.0992355,136.9160309,236.1679382
7760,-19.6131992,1.2114599,-3.9049230,-140.4885559,127.9847336,250.1297760
7770,-19.6131992,0.1939293,0.1556223,-136.9007568,86.1755753,250.1297760
7780,-18.4975071,-0.3639168,1.8842272,-101.7099228,39.5877876,250.1297760
7790,-15.5813847,-0.2202654,1.3024391,-59.6335869,12.0992365,250.1297760
7800,-12.8017311,0.2130829,-0.4860204,-32.4885483,2.6793892,250.1297760
7810,-10.0412302,0.7637464,-2.2529323,-25.8244267,5.0458016,250.1297760
7820,-7.4100165,0.9696468,-3.3925664,-34.3358765,20.0839691,250.1297760
7830,-4.9631548,0.6560079,-4.0868812,-50.3893127,43.8015251,250.1297760
7840,-2.6240315,0.6320660,-4.0725164,-67.8396912,67.6641235,250.1297760
7850,-0.1101327,0.5937590,-3.7325413,-84.1908417,88.3740463,250.1297760
7860,2.9017577,0.7110743,-2.8490853,-97.3969498,94.8167953,250.1297760
7870,7.9415264,1.4413021,-1.4317253,-103.5648880,78.7938919,250.1297760
7880,14.6763811,2.4468615,-0.0646431,-102.3206100,50.8625946,250.1297760
7890,19.6126022,3.5888901,0.8331779,-95.4732819,20.1603050,250.1297760
7900,19.6126022,4.7907729,1.9249283,-91.1755753,-3.9923663,245.6641235
7910,19.6126022,5.8944945,3.5649481,-89.4045792,-30.6259537,138.0915985
7920,19.6126022,5.3677726,5.2983413,-77.5877838,-75.0152664,39.4122124
7930,19.6126022,4.9559722,6.0261750,-52.3282433,-118.0992355,-38.5038185
7940,19.6126022,5.2073622,6.2224984,-20.7404575,-136.4885559,-89.5572510
7950,19.6126022,5.4563580,6.0572991,9.2824430,-120.4427490,-122.1297684
7960,19.6126022,5.5114241,5.8466105,34.4351158,-81.6641235,-143.4885559
7970,19.6126022,5.4012914,5.0206151,55.9236641,-38.5954208,-160.8549652
7980,19.1152077,5.1738434,3.6128318,74.1984711,-4.5419846,-183.5114441
7990,17.3602676,4.9248476,2.2457497,88.2748108,14.8702288,-212.3664093
8000,15.6747580,4.4244623,0.8930327,100.0076370,18.1755733,-248.6488495
8010,13.2614155,4.0006905,-0.8331779,102.6717529,10.9007635,-250.1374054
8020,10.4458485,3.9384418,-2.8897867,100.5725174,2.8167939,-250.1374054
8030,7.3956513,4.2903876,-4.3167233,95.5419846,0.3816794,-250.1374054
8040,4.8314743,4.5800843,-5.3773494,85.6641235,2.4198472,-250.1374054
8050,1.9033806,4.4819226,-5.9160423,73.5725174,16.1450386,-250.1374054
8060,0.2418131,3.3087699,-7.6230993,61.3511467,29.6488552,-250.1374054
8070,-2.1356170,1.5634058,-8.5137377,41.1603050,23.8091602,-250.1374054
8080,-5.1570840,-0.5554519,-8.4706421,14.5419846,-0.8931298,-250.1374054
8090,-9.2080526,-1.7836711,-7.4387465,-12.6030531,-34.1984749,-250.1374054
8100,-14.6404686,-2.5450234,-5.4084740,-34.5496178,-70.8320618,-250.1374054
8110,-19.6131992,-3.6822634,-1.7549409,-44.4503822,-115.9312973,-250.1374054
8120,-19.6131992,-3.8211265,2.1643472,-35.4122124,-178.9847260,-250.1374054
8130,-19.6131992,-2.2888451,4.0773048,-8.1603050,-222.9007568,-250.1374054
8140,-19.6131992,-1.8339491,2.6743097,22.2366409,-219.3206177,-181.6259613
8150,-19.6131992,-0.3974355,-0.2681492,33.9923668,-155.8244324,-55.8625946
8160,-19.6131992,0.5458752,-2.6647329,16.5801525,-47.4045792,64.8167953
8170,-19.6131992,0.0933734,-3.4045374,-24.7862587,55.2213745,165.3740387
8180,-19.6131992,-0.8571198,-2.4109488,-71.6488571,108.6870193,235.6717529
8190,-19.6131992,-0.9457048,0.5051740,-99.5725174,112.7328262,250.1297760
8200,-18.9763451,-1.2162483,2.5833304,-95.1297684,85.9465637,250.1297760
8210,-17.3028069,-1.2258250,3.6248028,-70.2137375,46.3511467,250.1297760
8220,-15.6484222,-0.8690908,3.5481887,-36.7862587,14.0839691,250.1297760
8230,-13.7713776,-0.4716553,2.7413468,-5.7404580,-0.0458015,250.1297760
8240,-11.2263546,-0.1412572,1.2808913,16.1145039,3.1908398,250.1297760
8250,-8.6071110,0.3878587,-0.6344602,25.1679382,22.7251911,250.1297760
8260,-6.0596933,0.8690908,-2.6790979,19.9770985,53.0534363,250.1297760
8270,-3.6008608,1.3694763,-4.3430595,1.3435115,96.8473282,250.1297760
8280,-1.7501525,1.4484847,-4.8482337,-27.1068707,142.0992432,250.1297760
8290,-0.2178712,1.0055596,-4.5322008,-62.2519073,188.6412201,250.1297760
8300,2.3127871,0.2130829,-3.0501974,-95.8091583,216.9007568,250.1297760
8310,6.7683735,-0.4022238,-0.8882443,-120.4122162,219.7557220,250.1297760
8320,12.7011747,-0.1604107,1.6735384,-129.0839691,191.9541931,250.1297760
8330,19.6126022,0.9600700,3.5960727,-123.4503784,146.1450348,250.1297760
8340,19.6126022,2.7868366,5.1786318,-108.7633591,95.4351120,250.1297760
8350,19.6126022,4.1730723,6.8761120,-93.2748108,65.5038147,212.4961853
8360,19.6126022,4.3813667,9.3445215,-74.3587799,-6.9236641,63.6183205
8370,19.6126022,3.3135581,10.9127159,-38.5572510,-94.1221390,-65.7633591
8380,19.6126022,2.2864509,10.2399483,7.6335878,-165.5190887,-158.5801544
8390,19.6126022,1.6495966,8.9590569,52.8778610,-184.9618378,-222.8702240
8400,19.1511211,2.4731977,7.5512733,90.6488571,-177.4503784,-250.1374054
8410,16.8239689,3.0573800,5.6000090,114.7022934,-155.1374054,-250.1374054
8420,14.6500454,3.5481887,3.7205703,127.4045792,-122.9312973,-250.1374054
8430,12.5431585,3.8378856,2.1643472,135.0152740,-83.2519073,-250.1374054
8440,10.1800938,3.9216824,0.4429250,139.6183167,-44.8702278,-250.1374054
8450,7.7835097,4.0701222,-0.9840119,139.4656525,-11.1984730,-250.1374054
8460,5.9112539,4.0509686,-2.2505381,138.5572510,13.6793890,-250.1374054
8470,4.3885493,3.6128318,-3.9288650,135.5419922,32.0534363,-250.1374054
8480,2.5569944,3.2896163,-5.3127065,126.5496216,41.8244286,-250.1374054
8490,0.3160330,2.9448531,-6.7587967,110.7938919,47.8473282,-250.1374054
8500,-1.0031654,1.8842272,-8.1761570,91.2442780,46.7557259,-250.1374054
8510,-2.2265961,0.5195391,-9.4570484,65.2595444,28.6488552,-250.1374054
8520,-5.4779053,-1.4149660,-8.9518747,32.6106873,2.1832061,-250.1374054
8530,-10.1561518,-2.5354466,-7.5321202,3.3664122,-9.7099237,-250.1374054
8540,-16.0243092,-3.4093258,-5.8777351,-15.6106873,-38.6564903,-250.1374054
8550,-19.6131992,-3.2393384,-3.5050933,-19.4809170,-95.9923630,-250.1374054
8560,-19.6131992,-2.4348907,-0.0502780,-6.9312978,-167.4045868,-250.1374054
8570,-19.6131992,-2.0757623,2.7102225,13.4732828,-201.3511505,-250.1374054
8580,-19.6131992,-2.7988074,1.4413021,39.1908379,-211.5419922,-155.5419922
8590,-19.6131992,-1.2976507,-1.8411317,58.0916023,-141.2213745,-4.8702292
8600,-19.6131992,2.2361729,-5.3079181,44.1221390,-22.1603050,121.5267181
8610,-19.6131992,1.9201399,-6.4523406,6.8167939,79.9160309,223.7862549
8620,-19.6131992,1.5442522,-6.9910331,-44.8625946,133.8549652,250.1297760
8630,-19.0146523,1.2545552,-5.7580256,-96.3435135,136.4503784,250.1297760
8640,-17.9827576,0.7972651,-3.3614421,-124.6259537,100.4122162,250.1297760
8650,-16.3666782,0.4094064,-1.4963684,-122.5877838,59.4122124,250.1297760
8660,-14.2143030,0.2825144,-0.3567342,-100.6183243,25.8778629,250.1297760
8670,-12.2750092,0.0981618,0.0981618,-73.3969498,8.4580154,250.1297760
8680,-9.7395630,0.2059003,-0.2418131,-53.2671738,8.4961834,250.1297760
8690,-7.2807302,0.3471575,-1.0558375,-42.7633591,20.0229015,250.1297760
8700,-4.6351509,0.2873027,-2.2553265,-45.8549614,42.7709923,250.1297760
8710,-2.0757623,0.4357425,-2.9975252,-59.6946564,74.3816757,250.1297760
8720,0.3471575,0.6344602,-3.1339941,-79.8625946,113.2824402,250.1297760
8730,2.1619530,0.5434810,-2.5593886,-103.0305328,159.7251892,250.1297760
8740,4.1204000,0.0526722,-1.4101776,-128.5114441,199.1755676,250.1297760
8750,7.6470413,-0.1795642,0.9097920,-147.9160309,216.9694672,250.1297760
8760,13.1752243,0.4261657,3.6008608,-154.2519073,208.0305328,250.1297760
8770,19.6126022,1.9249283,6.1770086,-144.0839691,172.8549652,250.1297760
8780,19.6126022,4.0773048,8.2024927,-116.0916061,108.3053436,250.1297760
8790,19.6126022,5.6095858,9.9119444,-76.1374054,41.9236641,166.5572510
8800,19.6126022,5.3653784,10.2567072,-30.1297703,-33.9160309,8.2061071
8810,19.6126022,4.3239059,9.4809904,12.0534353,-117.5954208,-122.2519073
8820,19.6126022,3.3758070,8.1282730,45.3053436,-191.5343475,-208.5648804
8830,19.6126022,3.1794837,6.6295104,67.5343475,-228.1068726,-250.1374054
8840,17.5446205,3.7540891,4.9703374,80.7099228,-219.3969421,-250.1374054
8850,15.1528254,4.6686692,3.5529771,86.6030502,-178.5572510,-250.1374054
8860,12.6269550,5.3294659,2.8323262,87.8473282,-115.2900772,-250.1374054
8870,10.3907824,5.7460546,2.0949159,86.6870193,-50.0534363,-250.1374054
8880,8.7076674,5.7987270,1.4365137,84.8015289,5.0152674,-250.1374054
8890,6.9646969,5.6335278,0.4525018,82.9465637,45.3358765,-250.1374054
8900,5.0301919,5.6047974,-1.1204807,81.8931274,71.2519073,-250.1374054
8910,3.7397239,5.5401545,-2.3079987,81.8854980,80.5725174,-250.1374054
8920,2.0063307,5.0876527,-3.6798692,80.7251892,70.9312973,-250.1374054
8930,-0.1651991,4.2377152,-5.0134325,77.0763321,41.9007645,-250.1374054
8940,-2.6407909,3.3973548,-5.8202744,70.8854980,-3.1755726,-250.1374054
8950,-5.5808558,2.5378408,-5.7843618,63.3282433,-52.9771004,-250.1374054
8960,-10.0508070,1.7118455,-4.9559722,57.4580154,-103.0076370,-250.1374054
8970,-14.5447006,1.3431402,-3.3662305,56.0839691,-149.3587799,-250.1374054
8980,-18.5669384,1.6017127,-2.1212518,59.1297722,-182.0381622,-250.1374054
8990,-19.6131992,2.3463056,-1.4772149,63.1374054,-196.0763397,-250.1374054
9000,-19.6131992,3.0813217,-1.2497669,64.2671738,-197.3969421,-233.0381622
9010,-19.6131992,3.9168940,-2.3726418,57.0534363,-165.3435059,-128.9618378
9020,-19.6131992,4.4867110,-4.0581512,34.9618340,-89.0457993,-14.2671757
9030,-19.6131992,4.8913293,-5.0541339,-1.7938931,-1.9007634,95.1450348
9040,-19.6131992,4.4316444,-5.0493455,-40.4580154,71.4351120,185.3969421
9050,-19.4072990,4.0461802,-4.1706781,-74.2137375,110.9770966,248.0381622
9060,-16.9724083,3.8570392,-2.9975252,-94.1145020,119.8396912,250.1297760
9070,-14.6739874,3.7804251,-1.5777708,-96.7938919,107.4503784,250.1297760
9080,-12.9046812,3.6056492,-1.0725969,-87.4274826,86.5801544,250.1297760
9090,-11.4154949,3.6056492,-1.0606259,-72.6564865,66.1450348,250.1297760
9100,-9.6222477,3.5481887,-1.4436963,-60.3969460,51.8778610,250.1297760
9110,-7.0293403,3.4548154,-2.0685797,-56.6870232,49.3969460,250.1297760
9120,-4.6327567,3.3303175,-2.6790979,-61.9389305,60.3740463,250.1297760
9130,-2.4444675,3.2872221,-2.8251436,-73.6412201,82.6412201,250.1297760
9140,-0.3399749,3.0669568,-2.9544299,-91.8320618,112.8244247,250.1297760
9150,1.2066715,2.9256995,-2.5474176,-112.8244247,147.3129730,250.1297760
9160,3.0214672,2.2936335,-1.2713146,-133.0458069,174.9847260,250.1297760
9170,5.4563580,1.8985922,0.7517755,-146.6259613,189.3435059,250.1297760
9180,8.0492649,1.8770446,2.9711890,-150.5572510,191.3435059,250.1297760
9190,10.5535870,1.9728121,4.7357068,-145.1221313,179.4351196,250.1297760
9200,13.6277266,2.5641768,6.4762826,-129.0763397,145.2595367,250.1297760
9210,16.7521439,3.4021432,7.5057840,-103.3969498,97.8778610,250.1297760
9220,19.3426571,3.9216824,7.6015515,-74.1297684,53.3816795,204.3129730
9230,19.6126022,4.3478479,7.3573442,-45.6717567,4.6106873,121.6870193
9240,19.6126022,4.8290801,7.0077925,-20.9541988,-46.4809151,39.5114517
9250,19.6126022,4.8147149,6.8114691,1.0610687,-91.2977066,-36.5725174
9260,18.6028519,4.5441718,6.3422079,19.9618320,-123.7938919,-95.2442780
9270,16.4169579,4.4507980,5.9950504,35.5725174,-139.0534363,-131.4732819
9280,14.8870697,4.6543045,5.6694407,49.1526718,-137.2824402,-150.7404633
9290,13.7761660,4.9703374,4.9009056,59.7557259,-118.0534363,-159.3587799
9300,13.1345234,5.6718349,4.2496862,68.0610657,-95.0916061,-164.2442780
9310,12.6676559,6.1339135,3.7253587,74.7175598,-74.7557220,-171.4885559
9320,12.1672707,6.2967181,3.2225790,79.0457993,-55.5038185,-183.3816833
9330,11.1688938,6.4547348,2.7533178,82.7404556,-40.1221390,-198.4580078
9340,9.8544836,6.5744443,2.0135133,86.5190811,-27.3358784,-215.7633514
9350,8.2599535,6.5744443,1.2593436,90.4274826,-24.0381680,-234.4198456
9360,6.8952656,6.6127515,0.4357425,93.8625946,-25.0458012,-250.1374054
9370,5.3390427,6.8282285,-0.3351865,96.7251892,-24.6183205,-250.1374054
9380,3.5577655,6.8018923,-1.2473727,98.1450348,-24.6946564,-250.1374054
9390,1.2593436,6.3733325,-2.1404054,99.5954208,-29.4351139,-250.1374054
9400,-1.6974803,5.7508430,-2.9256995,94.2595444,-44.7786255,-250.1374054
9410,-5.7125359,5.0996237,-3.2537034,89.4351120,-74.7480927,-250.1374054
9420,-11.5208397,4.8697815,-3.1387823,85.4961853,-124.5114517,-250.1374054
9430,-16.8000278,5.2552457,-2.8012016,84.4274826,-192.4580078,-250.1374054
9440,-19.5365868,6.3015065,-2.7557120,85.7938919,-248.4885559,-250.1374054
9450,-19.6131992,7.7188668,-3.7876077,83.0839691,-250.1374054,-224.7786255
9460,-19.6131992,9.0165176,-4.9296360,69.4198456,-211.7633514,-142.2137451
9470,-19.5126438,9.7778702,-6.2416520,41.0916023,-107.8854980,-45.3129768
9480,-18.6938305,9.2918491,-6.5696559,-1.6335878,8.3664122,57.1450386
9490,-17.4775829,8.0540533,-6.2679882,-50.8778610,93.3969498,150.1374054
9500,-15.6340570,7.3214312,-4.7788019,-93.1145020,142.4274750,221.6870270
9510,-13.3116932,6.7324610,-3.1770895,-116.9389343,162.0610657,250.1297760
9520,-11.1593170,6.1817970,-1.4796091,-123.5114517,161.9694672,250.1297760
9530,-8.7770987,5.5952206,-0.3974355,-118.6030502,151.5496216,250.1297760
9540,-6.2560172,5.1834202,0.1628049,-110.3358765,142.0992432,250.1297760
9550,-3.9073172,4.8003497,0.3184272,-104.0381699,141.2290039,250.1297760
9560,-1.7046629,4.2233500,0.1699875,-103.8778610,151.6412201,250.1297760
9570,0.4979914,3.6750808,0.3663110,-109.5419846,166.9618378,250.1297760
9580,2.9616125,3.1675127,0.8762733,-117.1374054,177.4656525,250.1297760
9590,6.2105274,2.6814921,1.6974803,-124.0916061,177.9007568,250.1297760
9600,10.6038647,2.6575503,3.0621684,-125.2442780,161.6641235,250.1297760
9610,16.3738613,3.4428444,4.9224534,-116.6488571,121.1832047,250.1297760
9620,19.6126022,4.4220681,6.9790621,-96.3129807,66.2519073,230.7862549
9630,19.6126022,4.8865409,8.6118994,-68.0916061,21.0534344,124.6793900
9640,19.6126022,4.4220681,9.8736372,-34.8167953,-2.9694657,9.6412210
9650,19.6126022,4.0988522,10.5990763,4.1603055,-33.1068687,-86.1755753
9660,18.9284611,3.9432299,10.4673967,47.5190849,-76.4274826,-154.6641235
9670,15.8208036,3.7540891,8.8800488,88.6183243,-113.3358765,-202.5190887
9680,13.6756105,3.9528067,6.7396431,119.1603088,-122.9007645,-237.6717529
9690,10.9558105,4.7716198,4.4555864,139.0915985,-107.2595444,-250.1374054
9700,7.7045016,5.6359220,2.0709739,148.2061005,-77.1603088,-250.1374054
9710,4.7476778,6.7252784,0.2059003,149.0305328,-51.8244286,-250.1374054
9720,2.9616125,7.7140784,-1.5298871,143.3129730,-29.8854961,-250.1374054
9730,1.6208663,8.2336178,-3.4069316,132.8396912,-10.2748089,-250.1374054
9740,0.4070122,8.4275465,-5.1714492,117.0534363,1.0687023,-250.1374054
9750,-0.8595140,8.3293848,-6.7085190,98.0534363,-2.5114503,-250.1374054
9760,-3.1531475,8.0037756,-7.3286138,74.8396912,-25.5725193,-250.1374054
9770,-6.5313487,7.5656385,-7.1538382,54.2671738,-69.2442780,-250.1374054
9780,-10.3021975,7.3022780,-6.1506729,40.2290077,-126.6259537,-250.1374054
9790,-13.4577389,7.7715387,-4.6566987,36.1908379,-191.9236603,-250.1374054
9800,-16.2733059,8.1043310,-3.5984666,38.5419846,-233.6564941,-250.1374054
9810,-19.6131992,8.1474266,-3.1651185,40.7557259,-240.3206177,-207.0000000
9820,-19.6131992,8.6262646,-3.4380560,35.2748108,-222.6946564,-127.7786255
9830,-19.6131992,8.9518747,-3.9743545,19.8778629,-175.2824402,-32.4580154
9840,-19.6131992,8.7794924,-4.6878228,-5.9312978,-99.2595444,67.9923630
9850,-19.3498383,8.1665802,-4.7333126,-38.4045792,-18.6488552,163.4274750
9860,-16.9724083,7.3070664,-3.7133877,-67.7099228,41.0763359,243.9618378
9870,-14.2166967,6.1027889,-2.3582766,-87.1755753,74.5954208,250.1297760
9880,-11.4131012,5.1475072,-1.6807210,-96.8778610,84.5114517,250.1297760
9890,-7.8816719,4.4244623,-1.5442522,-100.8931274,87.3816757,250.1297760
9900,-4.3717899,3.8235207,-1.5921360,-105.9007645,99.4045792,250.1297760
9910,-1.6687500,2.9185169,-1.2808913,-114.7022934,123.5877838,250.1297760
9920,1.3383518,2.1427996,-0.4668669,-126.8702316,147.6564941,250.1297760
9930,5.2911587,1.4149660,0.8547257,-138.5267181,161.1068726,250.1297760
9940,11.3364868,1.7740943,2.8634505,-142.0076294,146.5572510,250.1297760
9950,19.3139267,2.9807658,5.4539638,-131.3969421,99.2900772,250.1297760
9960,19.6126022,4.3765783,7.5560617,-108.9770966,52.8091621,250.1297760
9970,19.6126022,4.4005203,8.8800488,-83.7480927,21.3816795,118.6793900
9980,19.6126022,3.5841017,10.3716288,-53.9923668,-12.7404585,-14.6183205
9990,19.6126022,2.9161227,11.0515785,-14.9465647,-71.7099228,-125.6106873
