timestamp,acclX,acclY,acclZ,gyroX,gyroY,gyroZ
0,3.7205703,1.2114599,10.0340481,-1.4045801,-45.7709923,24.6335869
10,4.7357068,1.6735384,8.9997578,12.0458012,-23.9541988,14.8167934
20,4.8578105,1.6136837,8.9494801,16.4198475,-35.4045792,11.9847326
30,5.1929970,1.6472024,8.0181408,15.9770994,-71.2213745,-1.5343511
40,5.2360926,1.5729824,8.2096758,14.8473282,-77.5496216,-3.7251909
50,5.1259594,1.4676381,8.3389616,13.8244276,-83.6946564,-4.7862597
60,5.1977854,1.3359578,8.6406298,13.0229006,-89.3129807,-4.0076337
70,5.3486195,1.4436963,8.7244263,13.2900763,-93.2748108,-2.8778627
80,5.6335278,1.3527170,8.9638453,14.9389315,-93.0610657,-3.1984732
90,5.7292953,1.4341195,9.2224178,16.9312973,-91.9770966,-2.8702290
100,5.8801293,1.6495966,9.3062143,18.2595425,-89.3435135,-1.5038168
110,8.4874020,2.1140692,9.7275915,21.7099228,-46.3129768,-0.1221374
120,9.5288744,2.2744799,9.8927908,20.8473282,-39.8015251,-0.5114504
130,10.9414454,2.4468615,10.2160063,20.0839691,-37.8167953,-6.7022901
140,12.2869806,2.7102225,10.7834291,19.8015270,-42.6488533,-19.1832066
150,13.7163115,2.7844424,11.7770176,20.7709923,-57.1068687,-35.1450386
160,15.4568872,3.3973548,12.9693241,25.9465656,-75.6564865,-53.5114517
170,17.3578739,4.3286943,14.0993814,37.4274826,-86.5496216,-79.5572510
180,18.0162754,5.0325861,14.3986549,52.2519073,-90.0687027,-112.2061081
190,17.4919491,5.2983413,14.0802279,66.0916061,-90.0000000,-144.9007568
200,16.2637291,5.2193332,13.2566271,76.9160309,-87.6870193,-172.4274750
210,15.1671906,4.7189474,12.4234495,83.5801544,-84.7938919,-194.4503784
220,14.3100700,4.1874375,11.6788559,87.0534363,-82.2977066,-212.5343475
230,13.8360205,3.7971845,11.3053627,89.3587799,-82.9694672,-230.2442780
240,13.6899757,3.5793133,11.4873209,92.4580154,-87.8473282,-249.0763397
250,13.2446556,3.1962428,11.5184450,98.3816757,-93.8244247,-250.1374054
260,12.7538471,2.7293761,11.6501255,106.9770966,-97.6641235,-250.1374054
270,11.4035244,2.1068866,11.0922794,116.3664093,-99.8167953,-250.1374054
280,9.5911226,1.3527170,10.3500814,124.4351120,-104.5648880,-250.1374054
290,8.0229292,0.7972651,9.6078825,130.1526642,-111.6106873,-250.1374054
300,6.6031747,0.5123565,8.6214762,133.1755676,-118.1832047,-250.1374054
310,5.7963328,0.5434810,7.8984308,133.7328186,-118.6564865,-250.1374054
320,4.8745699,0.5698171,7.0748301,133.5877838,-117.9694672,-250.1374054
330,3.8881636,0.6584021,6.1674318,132.0686951,-120.0916061,-250.1374054
340,3.3901722,0.8499373,5.1403246,127.6335907,-117.7404556,-250.1374054
350,1.9680238,0.5698171,3.8378856,119.2900772,-115.1908417,-250.1374054
360,1.2186425,0.6320660,3.0837159,106.4274826,-113.9389343,-250.1374054
370,0.4022238,0.6871324,2.3343346,93.2519073,-118.4961853,-250.1374054
380,-0.1651991,0.5291159,1.5418580,79.2824402,-132.2213745,-250.1374054
390,-1.2784972,0.0215477,1.4101776,63.8625946,-143.7404633,-250.1374054
400,-2.8251436,-0.8331779,2.2146254,51.1374054,-150.9389343,-250.1374054
410,-5.0708933,-1.6256547,3.7277529,47.3053436,-154.8320618,-250.1374054
420,-7.4507174,-2.0685797,4.9942794,53.5190849,-158.8167877,-250.1374054
430,-9.9598284,-2.4947455,5.8394279,65.6030502,-165.2824402,-250.1374054
440,-12.0810804,-2.6383967,5.6909885,78.9312973,-173.6335907,-250.1374054
450,-13.2039547,-2.7748656,5.1044121,90.2519073,-178.6412201,-246.6564941
460,-13.6253319,-2.8083842,4.1515245,95.7633591,-177.2519073,-209.9847260
470,-13.2925396,-2.8610563,3.2321558,94.1984711,-167.0076294,-172.2824402
480,-12.7251167,-3.0645626,2.0709739,84.5725174,-145.4503784,-135.0763397
490,-12.0786858,-3.5050933,1.0558375,66.1526718,-107.2977066,-94.6641235
500,-11.3436699,-3.8881636,0.4716553,42.3358765,-53.7480927,-52.0228996
510,-11.0108776,-4.3095412,0.3064562,16.1526718,6.4045801,-9.1908398
520,-12.0738974,-4.7285242,0.8283895,-7.7099237,54.6106873,33.8473282
530,-13.7618008,-5.1762376,1.9823889,-23.2977104,82.9160309,84.2595444
540,-15.1959200,-5.8633699,3.0525916,-27.4961834,93.9312973,143.3053436
550,-16.2541523,-6.6773944,3.6200144,-23.5419846,95.5190811,212.8167877
560,-16.4768124,-7.8673067,3.6966286,-18.3206100,93.7328262,250.1297760
570,-17.1471844,-9.5815458,3.7588775,-16.2442741,97.0076370,250.1297760
580,-17.2692890,-11.5543585,4.1084290,-19.0152664,105.6335907,250.1297760
590,-16.2206345,-15.2916880,4.4124913,-21.6335869,112.9923630,250.1297760
600,-13.9916430,-19.3067436,4.5417776,-26.9007626,114.6183243,250.1297760
610,-9.3086090,-19.6131992,4.6016321,-36.0076332,100.8702316,250.1297760
620,-3.0645626,-19.6131992,6.0405402,-43.5572510,101.7328262,250.1297760
630,7.9271612,-19.6131992,9.0260944,-36.8473282,108.3358765,250.1297760
640,19.6126022,-19.6131992,12.2295198,-29.0610695,196.3206177,250.1297760
650,19.6126022,-19.6131992,17.2453461,-36.7480927,250.1297760,250.1297760
660,19.6126022,-19.6131992,19.6126022,-55.5419846,250.1297760,250.1297760
670,19.6126022,0.7326220,19.6126022,-30.8625946,250.1297760,250.1297760
680,19.6126022,7.2927012,19.6126022,21.0381680,250.1297760,250.1297760
690,19.6126022,4.8649931,9.5145092,49.9389305,250.1297760,37.1984749
700,19.6126022,3.6798692,2.7796540,47.6641235,-24.1145039,-75.6183243
710,14.9277716,3.4667864,2.6623387,26.7862587,-250.1374054,-104.9312973
720,13.7258883,4.2592630,7.3645267,11.9770994,-250.1374054,-75.7099228
730,17.4464588,5.2504573,11.6357603,14.0152674,-250.1374054,-34.4732819
740,19.6126022,6.4571290,11.4538021,13.4732828,-108.6412201,-4.1526718
750,18.0186691,6.2943239,7.9319496,-2.5877862,101.6793900,21.2900772
760,14.6739874,6.1674318,4.4029145,-27.5572510,215.9236603,40.3893127
770,12.7873659,5.7867560,2.5162930,-50.4580154,243.2442780,49.0763359
780,12.2630386,5.1307478,2.5186872,-63.7557259,204.1984711,44.9847336
790,12.4928808,4.9463954,3.8881636,-65.5725174,132.9007568,30.7862587
800,12.8520088,4.6662750,5.5880380,-59.7557259,80.3358765,11.6870232
810,12.4019012,4.3933377,6.3781209,-52.6259537,53.5190849,-6.2442746
820,11.0611553,3.8761928,6.6965480,-47.4732819,43.3129768,-19.2061062
830,9.3253679,3.4284792,6.5385313,-43.2519073,38.0152664,-25.2824421
840,7.6566176,2.8251436,6.2823529,-42.1526718,31.9160309,-21.8320618
850,6.9335728,2.4731977,6.3254485,-43.6183205,23.7328243,-11.5801525
860,11.2311430,2.3247581,9.4187412,-33.8396950,7.8778625,12.7786255
870,12.7682123,2.5665710,9.7946291,-28.6106873,23.5572510,3.1526718
880,13.9293938,2.8730273,10.2375546,-24.4198475,41.6106873,-10.3129768
890,14.4225969,2.8706331,10.4099360,-21.0610695,53.8167953,-27.5419846
900,14.4321737,2.7557120,10.7618818,-16.6946564,42.9389305,-48.0381660
910,14.6189203,2.8203552,11.5136566,-9.0916033,17.5267181,-71.7099228
920,15.6268749,2.8419030,12.2055779,1.8625954,-13.3053436,-96.8931274
930,17.7960110,3.1483591,12.9262285,14.4656487,-36.9847336,-126.1679382
940,19.6126022,3.6104376,13.3045111,25.4809170,-49.0610695,-163.2977142
950,19.6126022,3.6295912,13.2829628,32.4122124,-54.0687027,-209.0076294
960,19.6126022,3.1794837,13.1656475,36.9389305,-55.2900772,-250.1374054
970,19.0912666,2.5138988,13.0650921,43.0152664,-61.2900772,-250.1374054
980,17.2812595,1.4245427,13.0890341,52.8244286,-69.0381699,-250.1374054
990,15.2892942,0.8379663,12.8759508,65.1068726,-81.6030502,-250.1374054
1000,14.0634689,0.4477134,12.7322998,79.9160309,-97.6335907,-250.1374054
1010,12.8998928,-0.0861908,12.1098099,95.8778610,-107.5038147,-250.1374054
1020,11.5016861,-0.4165890,10.9486284,106.9542007,-109.2137375,-250.1374054
1030,9.6390066,-0.7206510,9.5408449,113.0076370,-106.7633591,-250.1374054
1040,7.8194227,-1.0462608,8.2551651,115.0687027,-103.1221390,-250.1374054
1050,5.9735026,-1.3263810,7.0963774,113.9847336,-98.9465637,-250.1374054
1060,4.2712340,-1.4891858,6.1650376,110.2061081,-98.0381699,-250.1374054
1070,2.6264257,-1.8100072,5.9711084,105.8778610,-100.3053436,-250.1374054
1080,1.3215926,-1.9752063,6.0525107,103.5267181,-104.6106873,-250.1374054
1090,0.0861908,-2.1308286,6.1123657,105.0457993,-108.7251892,-250.1374054
1100,-0.8810617,-2.2744799,5.9495606,105.6564865,-110.8702316,-250.1374054
1110,-1.9632354,-2.4396791,5.8106980,105.2290039,-113.4885483,-250.1374054
1120,-2.8538737,-2.5641768,6.3589673,105.4198456,-116.4961853,-250.1374054
1130,-3.6966286,-2.8993635,6.8162575,110.6183243,-117.7099228,-250.1374054
1140,-5.2480631,-3.5697365,7.3669209,116.0916061,-124.3435135,-250.1374054
1150,-7.2687593,-4.0485744,8.6310530,125.4198456,-136.0915985,-250.1374054
1160,-9.0452480,-4.6064205,9.4043760,142.5343475,-142.0229034,-250.1374054
1170,-10.8839855,-4.7907729,9.3612804,163.8167877,-144.1832123,-250.1374054
1180,-12.0906563,-4.8123207,8.4107876,179.5343475,-144.8396912,-250.1374054
1190,-12.7538471,-4.9823084,7.2256637,187.1297760,-136.0534363,-236.3740387
1200,-14.4585104,-5.1929970,5.7005649,186.9084015,-115.3740463,-193.1984711
1210,-16.6348286,-4.6231799,3.6319854,176.3206177,-92.9542007,-136.0992432
1220,-17.4847660,-5.3941088,2.0350611,153.9465637,-63.9923668,-70.0916061
1230,-18.8829727,-5.0972295,1.0606259,130.7099304,-28.6106873,9.3816795
1240,-19.3713875,-5.7005649,0.3687052,105.2748108,14.4732828,98.9007645
1250,-19.1918221,-6.6821828,-0.1053443,77.0763321,65.9923630,198.3053436
1260,-18.5669384,-8.2192526,-0.4357425,47.7328262,125.2442780,250.1297760
1270,-17.5470142,-9.7132263,-0.3806761,15.2442751,187.0686951,250.1297760
1280,-17.1376076,-12.3109226,0.2920911,-21.2061062,250.1297760,250.1297760
1290,-15.2653522,-15.2270451,1.5921360,-58.6335869,250.1297760,250.1297760
1300,-11.5615406,-18.8781834,3.3183465,-86.4961853,250.1297760,250.1297760
1310,-8.2312231,-19.6131992,5.3462253,-98.0000000,250.1297760,250.1297760
1320,-4.3693957,-19.6131992,7.6398587,-89.1984711,227.9465637,250.1297760
1330,1.6567791,-19.6131992,9.0284882,-57.9465637,157.1984711,250.1297760
1340,13.2350798,-19.6131992,10.6732969,-10.2748089,115.6030502,250.1297760
1350,19.6126022,-19.6131992,11.7267399,39.4274826,139.3053436,250.1297760
1360,19.6126022,-19.6131992,12.9046812,79.7480927,243.5572510,250.1297760
1370,19.6126022,-15.5095596,13.0914278,92.8396912,250.1297760,250.1297760
1380,19.6126022,-0.8499373,10.8456783,75.6412201,250.1297760,250.1297760
1390,19.6126022,6.0357518,7.1107426,52.5572510,250.1297760,250.1297760
1400,19.6126022,4.8314743,3.4763632,36.9007645,86.4580154,58.6335869
1410,19.6126022,2.8275378,1.7190280,21.4045811,-80.5801544,-38.5877876
1420,19.6126022,2.2050486,1.9608412,6.0534353,-185.3893127,-61.1068687
1430,18.8183289,3.0837159,4.0222383,-5.0687022,-200.9694672,-40.4580154
1440,19.2684364,4.8673873,5.5952206,-7.8473282,-119.8473282,-5.9465647
1450,19.5629215,6.8018923,3.7852135,-7.6106873,120.7557220,32.4045792
1460,18.1407738,7.0939832,1.5203103,-19.9465656,184.8778687,34.1603050
1470,16.9819851,6.6750002,0.2418131,-34.7938919,206.4732819,27.8015270
1480,16.0578289,6.1865854,-0.1484398,-45.8167953,187.2595367,13.5954199
1490,15.6292686,5.4922705,0.2298422,-50.9847336,136.5114441,-10.0000000
1500,14.7984848,5.0948353,1.2737088,-50.9389305,76.1679382,-38.1679382
1510,13.7522240,4.5369892,2.3415172,-47.1450386,19.1603050,-63.4885483
1520,12.2845860,3.8905578,3.1100521,-41.1145020,-21.5725193,-81.6488571
1530,10.6349897,3.4284792,3.7612717,-36.8244286,-41.1603050,-89.0000000
1540,9.2655134,2.7317703,3.9671719,-35.2900772,-45.2061081,-85.5954208
1550,8.1067257,2.2672975,4.3574247,-35.5496178,-39.4122124,-74.0534363
1560,7.4842362,2.0015423,4.6231799,-36.1755714,-29.3969460,-57.8396950
1570,7.5728211,2.0183017,5.2360926,-35.4122124,-20.7404575,-40.4274826
1580,8.2958660,2.0973101,5.6574697,-33.3129768,-12.5038166,-26.8931293
1590,9.0979195,2.3630650,6.0429344,-29.5725193,-4.4961834,-17.4961834
1600,10.5751352,2.7461352,6.4355812,-24.9160309,6.4503818,-12.4351149
1610,12.1481171,3.2608860,6.4140334,-20.1297703,22.7404575,-14.1679392
1620,13.3907013,3.5912843,6.1387019,-18.2442741,42.8854980,-21.9923668
1630,13.6444855,3.7540891,5.7747850,-18.5267181,57.3511467,-33.7099228
1640,13.6229382,3.5481887,5.6646523,-19.8091602,58.4351158,-45.4885483
1650,14.0084028,3.5649481,5.7987270,-21.0458012,46.1526718,-57.2061081
1660,14.8918581,3.9815371,6.2608056,-21.0381680,28.8931293,-71.2977066
1670,16.1009235,4.2233500,6.9000540,-19.1679382,13.6946564,-89.5190811
1680,17.2429523,4.6734576,7.6326761,-15.5801525,4.6183205,-112.2824402
1690,17.8151646,4.9104824,7.8361821,-12.1145039,5.9083967,-138.4885559
1700,18.0641594,4.7045822,8.0444765,-9.6488552,7.6488547,-165.5572510
1710,17.8007984,4.5872669,8.2575598,-6.5954199,8.1374044,-192.9313049
1720,17.2764702,4.1156116,8.4371233,-1.8625954,3.5877862,-220.6946564
1730,16.9125538,3.6056492,8.8225880,4.4045801,-7.0839696,-245.9618378
1740,16.6779232,3.3901722,9.2774839,14.4656487,-18.2671757,-250.1374054
1750,16.2086620,3.1938488,9.5767574,26.5954189,-25.1145039,-250.1374054
1760,15.0642405,2.6790979,9.2750902,38.2671738,-25.7938938,-250.1374054
1770,13.1728306,1.8961980,8.5999289,47.2824440,-24.0305347,-250.1374054
1780,10.9701757,1.4125718,8.0444765,54.6870232,-24.9923668,-250.1374054
1790,9.1434097,1.0342898,7.5081782,61.6946564,-28.6641216,-250.1374054
1800,7.7547798,0.7374104,6.8737178,68.0763321,-32.2366409,-250.1374054
1810,6.8425937,0.4022238,6.2967181,72.4045792,-31.9007626,-250.1374054
1820,5.8897061,0.3112446,5.5497313,73.4885483,-26.6946564,-250.1374054
1830,4.5848727,0.1675933,4.8625989,71.6335907,-25.9923668,-250.1374054
1840,2.8227494,-0.2106887,4.8147149,70.3129807,-35.9541969,-250.1374054
1850,1.2761030,-0.7876883,5.3318601,73.3358765,-57.0076332,-250.1374054
1860,-0.2154770,-1.1444225,5.8250628,81.6106873,-82.9618301,-250.1374054
1870,-1.5035510,-1.5346755,5.9375896,91.6793900,-106.8549652,-250.1374054
1880,-2.3008161,-1.6783268,5.7029591,101.4580154,-126.6870193,-250.1374054
1890,-3.0454090,-1.8794388,5.2552457,107.3206100,-135.1374054,-250.1374054
1900,-3.8714044,-2.2050486,4.7021880,109.0992355,-133.4351196,-250.1374054
1910,-4.8985114,-2.7509236,4.0605454,105.5496216,-121.0305328,-250.1374054
1920,-6.6534524,-3.4021432,3.6224086,98.4809189,-100.4885483,-250.1374054
1930,-8.5544386,-3.7852135,3.3279233,88.7938919,-78.2748108,-250.1374054
1940,-10.8049774,-4.2448978,3.1339941,79.9312973,-54.5572510,-250.1374054
1950,-13.2757807,-4.3502421,2.8945751,70.9389343,-32.8854980,-232.6259613
1960,-16.3714676,-4.5369892,2.8658447,61.7709923,-17.4351139,-181.1068726
1970,-19.6131992,-4.6973996,2.7988074,54.6793900,-8.1374044,-115.8015289
1980,-19.6131992,-4.6064205,2.3750360,47.8702278,-3.6183207,-34.3664131
1990,-19.6131992,-4.4891052,1.2713146,37.4045792,5.6183205,56.6870232
2000,-19.6131992,-5.2696109,-0.3639168,16.4885502,33.8396950,156.8015289
2010,-19.6131992,-6.3302369,-1.6495966,-16.2595425,81.7099228,250.1297760
2020,-19.6131992,-7.4890246,-2.2146254,-57.3358765,135.6183167,250.1297760
2030,-19.6131992,-10.1513634,-2.4277081,-101.1679382,173.7251892,250.1297760
2040,-16.9077663,-13.0794573,-2.0446377,-142.3816833,190.7557220,250.1297760
2050,-14.2621870,-15.9285421,-0.7852941,-177.8244324,186.3740387,250.1297760
2060,-11.6213961,-18.8302994,1.9153515,-201.3816833,172.1068726,250.1297760
2070,-9.2248116,-19.6131992,5.2001796,-206.8091583,146.0915985,250.1297760
2080,-5.1690550,-19.6131992,7.8433647,-190.9160309,94.6793900,250.1297760
2090,2.3223639,-19.6131992,10.3716288,-154.7328186,59.1526718,250.1297760
2100,15.4568872,-19.6131992,12.2989511,-111.4503784,91.0610657,250.1297760
2110,19.6126022,-19.6131992,14.6452570,-81.1984711,221.8244324,250.1297760
2120,19.6126022,-19.6131992,16.9388905,-90.4045792,250.1297760,250.1297760
2130,19.6126022,-6.7492199,19.6126022,-112.8702316,250.1297760,250.1297760
2140,19.6126022,1.5658000,19.6126022,-84.0916061,250.1297760,250.1297760
2150,19.6126022,3.2345500,19.6126022,-12.3053436,250.1297760,219.1068726
2160,19.6126022,2.5354466,12.7873659,33.2290077,188.4122162,63.4732819
2170,19.6126022,2.7868366,5.9016771,27.7099228,-22.3435116,-28.4045811
2180,12.9501705,2.0613971,4.3478479,-8.3282442,-204.1221313,-51.7862587
2190,11.9493999,1.5825592,7.3860745,-35.2442741,-250.1374054,-33.3816795
2200,14.5734310,2.4516499,11.0252428,-47.3511467,-250.1374054,-2.5877862
2210,17.6547527,3.8115497,13.7474356,-49.4580154,-131.8778687,23.1832066
2220,18.4711723,4.5537481,14.8870697,-43.8396950,13.4045801,36.8473282
2230,16.8957958,4.4172797,13.6971579,-32.0992355,119.3282471,44.8015251
2240,15.0738173,4.2065907,10.9103212,-23.7633591,168.3053436,50.4198456
2250,14.3411951,4.1419477,8.9231443,-22.5496178,172.9694672,50.8778610
2260,14.6548338,4.3358769,7.9894104,-23.7938938,142.4656525,42.1603050
2270,15.6268749,4.6255741,8.0301113,-23.1679382,92.1984711,21.6106873
2280,16.4863892,4.8195033,8.9135675,-18.6564884,39.6106873,-7.0000000
2290,16.4911766,4.7069764,9.6318245,-8.7404585,-11.4656487,-39.9083977
2300,16.2469692,4.3670015,9.8065996,2.8015268,-52.8625946,-70.9770966
2310,15.6149035,3.9168940,9.6461897,12.6412210,-76.2977066,-96.6870193
2320,15.0450869,3.5050933,9.2559366,17.4961834,-84.7480927,-114.9236679
2330,14.7003231,2.7892308,9.0763721,18.5954189,-82.9465637,-127.7251892
2340,14.9972029,2.5737536,9.0236998,17.6641216,-70.9236679,-134.9541931
2350,15.8016500,2.3941894,9.1625633,14.0992365,-53.5190849,-142.2595367
2360,16.8311520,2.6240315,9.6198530,11.1908398,-41.7709923,-156.3435059
2370,18.2317524,2.9161227,10.4051476,12.8320608,-37.8396950,-179.4732819
2380,19.6126022,2.6814921,10.8648319,19.6793900,-33.2595406,-212.7480927
2390,19.6126022,2.5306582,11.0108776,28.6641216,-37.5419846,-250.1374054
2400,18.9260674,1.8985922,10.7307568,38.2748108,-51.3358765,-250.1374054
2410,17.5230732,1.0678085,10.4554253,47.1908379,-67.0457993,-250.1374054
2420,16.7090473,0.6153067,10.1896706,55.1984749,-74.8854980,-250.1374054
2430,15.9596672,0.2657550,9.6653433,62.1908379,-72.7251892,-250.1374054
2440,14.2597923,-0.2585725,9.1194677,66.0305328,-69.8396912,-250.1374054
2450,12.3516235,-0.6847382,9.0260944,69.9007645,-71.0152664,-250.1374054
2460,11.8416615,-0.9121862,8.9997578,77.3206100,-63.9541969,-250.1374054
2470,10.6302013,-1.1516051,8.2958660,85.3129807,-49.3053436,-250.1374054
2480,8.4395180,-1.7525467,6.9646969,89.5648880,-37.7709923,-250.1374054
2490,5.8825235,-2.2505381,6.0381460,90.5801544,-34.2900772,-250.1374054
2500,3.4404502,-2.4253139,5.9064655,92.0992355,-40.3053436,-250.1374054
2510,1.5801650,-2.7341642,5.7484488,96.5038147,-51.0687027,-250.1374054
2520,-0.2035061,-2.8634505,5.7747850,102.3206100,-64.7633591,-250.1374054
2530,-1.6591733,-3.0885043,5.8011212,111.2671738,-77.9770966,-250.1374054
2540,-2.8395088,-3.0310438,5.5066357,119.0381699,-88.0229034,-250.1374054
2550,-3.9671719,-3.2776453,4.8721757,123.9160309,-95.9160309,-250.1374054
2560,-5.1187773,-3.4955165,4.3861551,124.0687027,-93.0916061,-250.1374054
2570,-6.4882536,-3.9839313,3.9240766,121.1526718,-80.8778610,-250.1374054
2580,-8.6980906,-4.3191175,3.3279233,116.1068726,-64.4656525,-250.1374054
2590,-11.6477318,-4.8554163,2.7126167,107.9312973,-53.0763359,-250.1374054
2600,-14.8894644,-5.0277977,2.5306582,98.4656525,-47.0610695,-235.6717529
2610,-17.6092644,-4.8913293,2.2577207,90.9083939,-47.9465637,-177.3587799
2620,-19.1463337,-4.3646073,1.9368993,82.6030502,-55.7175560,-112.6335907
2630,-19.5964413,-4.2855992,1.3814473,71.9160309,-56.7862587,-46.4351158
2640,-19.1415443,-4.3981261,0.5722113,56.2977104,-44.9694672,22.8244267
2650,-17.8750191,-4.7117648,-0.2298422,36.4885483,-24.0534344,89.9312973
2660,-16.1488075,-5.2073622,-0.6775556,14.1221371,2.7328243,153.1145020
2670,-14.0514975,-5.5497313,-1.1372399,-8.2824430,26.6641216,208.8091583
2680,-12.5551291,-6.0309634,-1.4053892,-30.7328243,52.0458031,250.1297760
2690,-11.5352049,-6.8832946,-1.7932479,-54.7480927,78.5496216,250.1297760
2700,-11.4466200,-7.9487090,-2.3032103,-81.0457993,98.7633591,250.1297760
2710,-12.0188313,-9.4355011,-2.7796540,-111.7709961,112.3740463,250.1297760
2720,-13.0004492,-11.7171631,-1.6950861,-143.4427490,126.8625946,250.1297760
2730,-14.6859579,-14.6356802,-0.2896969,-170.6259613,144.9160309,250.1297760
2740,-15.0043850,-18.3466740,2.1619530,-199.0152740,176.1679382,250.1297760
2750,-13.9365768,-19.6131992,5.8274570,-227.1068726,234.9160309,250.1297760
2760,-8.6980906,-19.6131992,9.6414013,-250.1374054,250.1297760,250.1297760
2770,1.6160779,-19.6131992,12.1337519,-250.1374054,250.1297760,250.1297760
2780,15.9046001,-19.6131992,14.0467091,-250.1374054,250.1297760,250.1297760
2790,19.6126022,-19.6131992,19.6126022,-250.1374054,250.1297760,250.1297760
2800,19.6126022,-19.6131992,19.6126022,-250.1374054,250.1297760,250.1297760
2810,19.6126022,-3.8737986,19.6126022,-215.3053436,237.3893127,250.1297760
2820,19.6126022,2.9975252,19.6126022,-67.2900772,134.2442780,247.3282471
2830,19.6126022,0.7038917,19.6126022,49.9771004,16.3816795,60.1374054
2840,19.6126022,-0.3184272,12.1696653,84.3129807,-131.4198456,-27.5038166
2850,10.2327662,-0.8331779,6.0572991,48.0992355,-248.1908417,-27.2366409
2860,8.9279327,-1.2210367,7.2041159,-12.5648851,-250.1374054,30.0381680
2870,13.4840746,-0.2729376,12.8472204,-52.5725174,-152.1450348,90.2213745
2880,16.7377777,0.7829000,17.1687317,-64.3206100,13.3969469,128.1832123
2890,19.6126022,3.5721307,19.6126022,-62.3511467,153.1526642,146.2900696
2900,19.6126022,3.8067613,19.6126022,-13.7099237,228.1755676,80.7557220
2910,19.6126022,2.4947455,16.6396160,47.3587799,171.8244324,37.1832047
2920,14.7290535,2.8682389,8.5400734,68.6412201,72.7480927,15.6946564
2930,14.4465389,4.2640514,5.0996237,56.4274826,-4.2519083,-19.3893127
2940,13.5295649,4.0270267,4.8218975,37.8473282,-65.7557220,-52.7251892
2950,13.2159262,3.4284792,5.8729467,24.2442741,-92.2977066,-76.1603088
2960,13.3404236,3.4715748,7.5081782,14.4809160,-94.3358765,-93.3511429
2970,12.6508970,2.7150109,8.6645718,13.1068707,-85.9618301,-107.6641235
2980,10.8839855,1.9752063,9.1362267,18.8091602,-72.9770966,-113.0916061
2990,9.7587166,1.5969244,9.0021524,27.5267181,-61.6106873,-108.1450348
3000,9.9478569,1.6017127,8.5640154,33.3893127,-50.7251892,-100.6106873
3010,10.5583754,1.8243724,8.1210909,33.4809151,-38.0458031,-97.3740463
3020,11.1736822,2.1068866,7.9175844,28.9160309,-28.1221371,-98.9847336
3030,12.1481171,2.2122312,8.3940287,24.8244267,-20.5801525,-104.8244247
3040,13.8025026,2.4612267,8.9039907,24.3511448,-14.2824430,-116.3053436
3050,15.1169119,2.5809362,9.5336628,25.7633591,-13.2748089,-135.9694672
3060,15.9548788,2.4779861,9.9095497,28.4961834,-16.2137413,-161.2137451
3070,15.9524841,2.2529323,10.0029240,30.0534344,-24.2290077,-187.3358765
3080,15.5287132,2.0135133,10.5942879,32.5801544,-36.2748108,-210.6564941
3090,15.2031031,1.7022687,11.3293047,39.4045792,-54.5877876,-232.6946564
3100,15.0187502,1.6160779,11.8919392,50.6183205,-71.4198456,-250.1374054
3110,14.8679161,1.5825592,12.0379848,63.8091621,-83.1908417,-250.1374054
3120,14.9660778,1.5083394,11.6764622,75.5725174,-88.1526718,-250.1374054
3130,14.7075062,1.4365137,11.2191715,85.4961853,-84.6870193,-250.1374054
3140,13.7522240,1.1803354,10.5104914,93.3740463,-78.4503784,-250.1374054
3150,12.8687687,0.9313397,9.5863342,100.0457993,-73.9465637,-250.1374054
3160,12.5359764,0.7757174,8.9542685,105.1603088,-68.5725174,-250.1374054
3170,12.0403786,0.6967092,8.1809454,109.2900772,-60.1984749,-250.1374054
3180,11.7267399,0.5650287,7.5249376,110.5648880,-51.0992355,-250.1374054
3190,10.7139978,0.1699875,6.6007805,109.2290039,-40.5954208,-250.1374054
3200,8.6047173,-0.4429250,5.9160423,105.5343475,-36.0076332,-250.1374054
3210,6.3661499,-0.8140244,5.6909885,103.4045792,-39.4885483,-250.1374054
3220,5.3103123,-1.2330076,5.6838059,106.2900772,-47.2977104,-250.1374054
3230,3.9288650,-1.2138541,5.3701668,110.9236679,-55.6030540,-250.1374054
3240,2.2265961,-1.5083394,5.0110383,115.2824402,-67.7633591,-250.1374054
3250,0.4860204,-1.7669119,4.8745699,118.8091583,-83.1068726,-250.1374054
3260,-1.0797794,-2.1044924,4.6614871,122.2442780,-99.4732819,-250.1374054
3270,-2.2960277,-2.3463056,4.3406653,124.2900772,-114.2290039,-250.1374054
3280,-3.4380560,-2.5115047,3.9480183,123.5648880,-120.9847336,-250.1374054
3290,-4.4938936,-2.5737536,3.5793133,118.9847336,-116.6946564,-250.1374054
3300,-5.5497313,-2.8945751,3.0525916,111.7557220,-102.4427490,-250.1374054
3310,-6.6295104,-3.1387823,2.3798244,101.0076370,-86.0992355,-250.1374054
3320,-8.0971489,-3.5218527,2.0183017,87.1984711,-65.4503784,-250.1374054
3330,-10.2303715,-3.9504125,1.8243724,73.3740463,-42.0916023,-250.1374054
3340,-13.0243902,-4.1275826,1.9632354,60.6488533,-25.7862587,-250.1374054
3350,-15.9979744,-4.3670015,2.1882892,52.5190849,-21.2061062,-207.3664093
3360,-18.8015690,-4.7764082,2.8203552,50.3587799,-28.9236641,-147.8854980
3370,-19.6131992,-5.0661049,2.9256995,51.9771004,-38.1755714,-80.1984711
3380,-19.6131992,-5.6478930,2.5569944,51.3587799,-37.0992355,-7.7633586
3390,-19.6131992,-5.9711084,1.8674678,44.4503822,-13.5954199,69.2061081
3400,-19.4480019,-6.4307928,0.8762733,30.2061062,25.8244267,142.6030579
3410,-18.1048603,-6.5169835,-0.2011119,7.4809160,68.7633591,213.7328186
3420,-16.3954086,-7.0748301,-1.4436963,-21.8244267,114.7175598,250.1297760
3430,-14.7889080,-7.9367380,-2.6360025,-54.6870232,148.9847260,250.1297760
3440,-12.9358053,-9.0524302,-3.7684543,-89.4427490,166.8625946,250.1297760
3450,-11.7865944,-10.1729107,-4.5369892,-127.6870193,173.9847260,250.1297760
3460,-11.3316984,-11.8488436,-4.9655490,-169.6564941,172.0152740,250.1297760
3470,-12.0499554,-14.2957048,-4.3263001,-214.3053436,171.3206177,250.1297760
3480,-13.1225519,-17.6834831,-2.0350611,-250.1374054,170.0381622,250.1297760
3490,-12.5718889,-19.6131992,0.8714849,-250.1374054,180.2290039,250.1297760
3500,-10.8001890,-19.6131992,4.2257442,-250.1374054,202.1068726,250.1297760
3510,-8.4299412,-19.6131992,7.8649125,-250.1374054,215.8015289,250.1297760
3520,-2.3534882,-19.6131992,11.4274664,-250.1374054,203.6412201,250.1297760
3530,11.6525202,-19.6131992,16.5438499,-250.1374054,193.0305328,250.1297760
3540,19.6126022,-19.6131992,19.6126022,-250.1374054,226.2900696,250.1297760
3550,19.6126022,-19.6131992,19.6126022,-250.1374054,250.1297760,250.1297760
3560,19.6126022,-11.3939476,19.6126022,-247.6488495,250.1297760,250.1297760
3570,19.6126022,1.8507085,19.6126022,-112.6717529,250.1297760,250.1297760
3580,19.6126022,0.1963235,19.6126022,44.3511467,140.5801544,77.7557220
3590,19.6126022,-1.1539993,16.7976341,115.1374054,-98.0534363,-55.6335869
3600,9.1960821,0.5793939,6.9455438,96.0152664,-250.1374054,-92.3969498
3610,5.7412663,0.8164186,6.8066807,48.5114517,-250.1374054,-47.5114517
3620,10.4602137,1.3263810,10.5248566,17.8702297,-250.1374054,18.3053436
3630,14.9924145,2.7174051,12.6101961,-1.7633588,-173.3587799,64.4503784
3640,15.1121235,3.4500270,13.3092995,-17.2519093,19.4045811,92.7709961
3650,12.9429884,2.8059900,13.5319586,-14.8549614,126.4122162,109.3740463
3660,11.3508520,2.1787124,12.2893744,4.2519083,147.7022858,120.0610657
3670,11.5854826,2.0135133,9.9717989,22.2671757,120.2671738,122.1603088
3680,13.3021164,2.3367288,7.9223728,31.9618320,67.8244247,109.8778610
3690,14.5159702,2.6767037,6.6295104,34.7251892,16.5648861,83.9770966
3700,15.1169119,3.2632802,5.8561873,32.3587799,-26.0534344,51.6946564
3710,15.4018211,3.3949606,5.3270717,26.7099228,-55.2595406,19.1145039
3720,15.0522690,3.3758070,5.1451130,17.7633591,-67.6793900,-9.3664122
3730,14.0682573,3.0861101,5.0373745,5.9541984,-68.5419846,-30.8244267
3740,12.7610302,2.4301023,5.4156566,-4.7938933,-65.2137375,-42.9083977
3750,11.6118193,1.8363433,5.9471664,-10.6641226,-60.1374054,-46.6717567
3760,10.6661139,1.5274929,6.6414814,-11.9160309,-53.8625946,-43.4351158
3770,10.6062593,1.4293311,7.1059542,-9.1145039,-45.6564903,-36.6183205
3780,11.1856527,1.5490406,7.2998838,-4.9312978,-36.3969460,-31.6183205
3790,11.8775740,1.7693061,7.2208753,-2.2977099,-26.4809170,-30.8167934
3800,12.6101961,1.9967541,7.2376347,-1.5496184,-18.4198475,-34.5114517
3810,13.3500004,2.1380112,7.0173693,-2.6335878,-12.2213745,-43.1145020
3820,14.0754395,2.2553265,7.1083484,-5.1984735,-11.1450386,-55.7175560
3830,14.4944229,2.2026544,7.1801744,-8.5267172,-16.1679382,-71.7480927
3840,14.8822813,1.9776005,7.6877422,-11.2442751,-29.8396950,-88.7175598
3850,15.4616756,1.7597293,8.6502066,-11.2900763,-48.8015251,-105.9542007
3860,16.7545376,1.8459201,9.4139528,-6.8778625,-65.5725174,-124.4198456
3870,19.4791260,2.3223639,9.9143381,-0.4045801,-71.8167953,-148.4503784
3880,19.6126022,2.6719155,9.9215212,3.7175572,-67.2519073,-181.0076294
3890,19.6126022,2.7868366,9.8568783,3.5343511,-69.4961853,-222.9160309
3900,19.6126022,2.4851687,9.9239149,2.7862597,-81.5419846,-250.1374054
3910,19.6126022,1.7405758,10.2998028,5.4732823,-96.8015289,-250.1374054
3920,19.6126022,0.9911944,10.5823174,12.0763359,-110.7709961,-250.1374054
3930,19.1152077,0.3303981,10.7810354,21.5725193,-124.6946564,-250.1374054
3940,18.6579189,0.1125269,10.8983507,32.7175560,-135.8625946,-250.1374054
3950,18.3490677,-0.4070122,10.5416164,42.5572510,-137.9618378,-250.1374054
3960,17.4392757,-0.9840119,9.6414013,49.3282433,-128.7480927,-250.1374054
3970,15.1336718,-1.8507085,8.5304966,50.7328262,-116.3664093,-250.1374054
3980,12.1265697,-2.8658447,7.8194227,49.3969460,-105.3893127,-250.1374054
3990,9.2487535,-3.8187323,7.4770536,49.5419846,-100.4580154,-250.1374054
4000,6.6007805,-4.4484038,7.5704269,53.6259537,-101.3435135,-250.1374054
4010,3.8690102,-5.1379304,7.5416965,61.3664131,-104.8549652,-250.1374054
4020,1.5753766,-5.4970589,7.2184811,71.3893127,-115.9083939,-250.1374054
4030,0.0430954,-5.4204450,6.9646969,80.1297684,-131.6717529,-250.1374054
4040,-1.2832855,-5.0613165,6.7085190,87.1526718,-145.9923706,-250.1374054
4050,-2.6240315,-4.9463954,6.3757267,90.7709961,-145.6030579,-250.1374054
4060,-3.9528067,-5.0301919,5.6263452,89.5343475,-133.0686951,-250.1374054
4070,-4.8171091,-5.0708933,4.9128766,83.5190811,-111.2900772,-250.1374054
4080,-5.6766233,-5.1092005,4.3837609,75.1297684,-82.7251892,-250.1374054
4090,-6.8282285,-5.1355362,3.8953462,65.7099228,-51.2137413,-250.1374054
4100,-8.0325060,-5.2504573,3.0693510,55.5267181,-21.3129768,-250.1374054
4110,-9.2535419,-5.3294659,2.8323262,44.2213745,7.0305343,-250.1374054
4120,-10.7307568,-5.3414369,2.8299320,34.7938919,35.8167953,-250.1374054
4130,-12.6317434,-5.1666608,3.0956869,29.8854961,58.2213745,-241.1755676
4140,-14.7936964,-4.9296360,3.6559272,30.5877857,65.9465637,-196.5190887
4150,-16.1990852,-4.4627690,4.0246325,36.7709923,60.1374054,-145.3664093
4160,-16.7282009,-4.0868812,3.6487448,42.9694672,57.5114517,-91.3587799
4170,-16.7066536,-4.0030847,2.2984219,42.1450386,67.4961853,-32.2366409
4180,-16.2134514,-3.8474624,0.3399749,27.8015270,99.4274826,30.7328243
4190,-16.0865593,-3.5769191,-1.4436963,-2.9770992,156.8396912,95.0000000
4200,-17.1519737,-3.7421181,-2.8969693,-45.3358765,214.7480927,162.4351196
4210,-17.3961811,-4.8625989,-2.6551561,-88.9770966,243.3129730,235.8549652
4220,-17.6451759,-6.2320752,-2.5091105,-124.0916061,250.1297760,250.1297760
4230,-17.7744617,-7.5464849,-2.9783716,-157.2671814,244.1526642,250.1297760
4240,-17.2070389,-10.0962973,-3.1435707,-195.3969421,224.9770966,250.1297760
4250,-16.7210197,-12.6556854,-2.7197993,-237.3129730,197.5954132,250.1297760
4260,-15.5598373,-16.8383350,-1.7381816,-250.1374054,171.5725250,250.1297760
4270,-12.5766773,-19.6131992,0.1867468,-250.1374054,156.8931274,250.1297760
4280,-3.7421181,-19.6131992,2.2505381,-250.1374054,148.3664093,250.1297760
4290,9.0979195,-19.6131992,4.6279683,-250.1374054,161.5419922,250.1297760
4300,19.6126022,-19.6131992,7.0101867,-250.1374054,221.8702240,250.1297760
4310,19.6126022,-19.6131992,9.6342182,-250.1374054,250.1297760,250.1297760
4320,19.6126022,-17.3195667,19.6126022,-250.1374054,250.1297760,250.1297760
4330,19.6126022,-8.5735922,19.6126022,-250.1374054,152.6717529,250.1297760
4340,19.6126022,-4.3478479,19.6126022,-248.4885559,18.8778629,250.1297760
4350,19.6126022,-2.1068866,19.6126022,-25.5343513,-98.3206100,178.8549652
4360,19.6126022,-0.2011119,19.6126022,151.1450348,-208.3358765,88.4961853
4370,19.6126022,0.8595140,19.6126022,240.4809113,-250.1374054,58.4961815
4380,16.8766422,2.7700772,12.3779593,250.1297760,-250.1374054,66.5114517
4390,18.8805771,5.7292953,3.8929520,222.3206177,-222.2824402,93.6412201
4400,19.6126022,8.3222027,-1.5777708,141.0076294,-89.2519073,112.3816757
4410,19.6126022,10.6182299,-2.9687948,50.6030540,36.4351158,102.3129807
4420,19.6126022,11.3005743,-1.0271072,-19.3511448,120.6106873,70.1526718
4430,19.6126022,10.1178446,2.1332228,-55.6946564,133.8778687,33.7938919
4440,19.6126022,9.4355011,5.0541339,-68.3358765,106.9312973,-1.2213740
4450,19.6126022,8.7340031,7.3429790,-62.7786255,71.6870193,-40.6335869
4460,19.6126022,7.7021074,8.7292147,-48.0763359,37.8396950,-80.3206100
4470,19.6126022,6.8856888,9.5815458,-28.7480907,2.3435113,-116.9618301
4480,19.6126022,6.2512288,9.8664551,-7.6793895,-26.9389305,-153.9770966
4490,19.6126022,5.8154860,9.4929609,7.4961834,-47.6412201,-196.2824402
4500,19.6126022,5.0828643,9.2367830,13.4198475,-67.4351120,-239.0076294
4510,19.6126022,4.1036406,9.6868906,16.9770985,-82.7633591,-250.1374054
4520,19.6126022,3.3973548,9.9334917,22.6030540,-88.4122162,-250.1374054
4530,19.6126022,2.9065459,9.9741936,28.6106873,-98.9083939,-250.1374054
4540,18.8279057,2.4372849,10.0675669,32.9007645,-112.1603088,-250.1374054
4550,17.1735210,1.9871773,10.6732969,37.4809151,-126.3435135,-250.1374054
4560,15.6149035,1.3359578,11.3269100,46.5267181,-133.9236603,-250.1374054
4570,13.6277266,0.6344602,11.5878773,60.8320618,-133.5572510,-250.1374054
4580,11.9661589,-0.2489957,10.8432837,76.5496216,-125.0381699,-250.1374054
4590,10.3931761,-0.5961532,9.8568783,87.1679382,-109.1221390,-250.1374054
4600,8.7052727,-0.8499373,8.4538832,91.2977066,-87.4809189,-250.1374054
4610,6.7228842,-1.1635761,7.2184811,90.5114517,-67.6793900,-250.1374054
4620,5.0349803,-1.3096216,6.4188218,88.4809189,-57.3740463,-250.1374054
4630,3.9001346,-1.3551112,6.0788469,88.1221390,-53.0687027,-250.1374054
4640,2.8347204,-1.3215926,5.5640965,89.1526718,-52.4885483,-250.1374054
4650,2.1739240,-1.3479286,4.8673873,90.2824402,-59.3664131,-250.1374054
4660,1.3934183,-1.1085097,4.3717899,90.3053436,-78.6259537,-250.1374054
4670,0.5769997,-1.0821736,3.9743545,87.9770966,-97.5725174,-250.1374054
4680,-0.1580165,-1.2904681,3.7421181,83.4732819,-108.2900772,-250.1374054
4690,-0.9959828,-1.6591733,3.6080434,77.5801544,-110.7404556,-250.1374054
4700,-2.1595588,-1.7597293,3.7612717,71.7251892,-109.0305328,-250.1374054
4710,-2.9831600,-1.8387375,3.9695661,66.3511429,-102.4732819,-250.1374054
4720,-3.8881636,-2.1835008,4.2233500,62.8625946,-94.1145020,-250.1374054
4730,-4.8769641,-2.4660151,4.2855992,60.6946564,-88.1832047,-250.1374054
4740,-6.1291251,-2.8155668,4.3717899,58.0610695,-83.0992355,-250.1374054
4750,-7.4770536,-2.9520357,4.2664456,53.2595406,-74.7251892,-250.1374054
4760,-9.0572186,-3.0837159,4.4986820,47.2137413,-62.8015251,-250.1374054
4770,-10.5775290,-3.4117200,4.4867110,40.8625946,-49.2671738,-250.1374054
4780,-11.9470053,-3.4596038,4.4436154,33.6870232,-32.3206100,-222.5725250
4790,-13.0794573,-3.2082138,4.2903876,25.4885502,-12.1450386,-184.7251892
4800,-13.5606890,-3.1579359,4.2209558,17.6870232,8.1755724,-144.4656525
4810,-13.5678720,-3.0382264,3.7828193,12.5954199,19.7709923,-107.0534363
4820,-13.0842457,-3.1387823,2.8442972,7.4503818,16.6183205,-72.2671738
4830,-12.4066896,-3.5457945,1.5514348,-2.4885497,9.0229006,-38.8854980
4840,-11.7315283,-4.1682839,0.7709290,-16.8167934,-5.7099237,-5.6106873
4850,-11.7506819,-4.6566987,0.5099624,-33.7251892,-8.0610685,28.4503822
4860,-12.4042959,-5.5162125,1.0366840,-52.1603050,13.0458012,68.2213745
4870,-13.1273403,-6.4667058,2.1978660,-68.1832047,51.7786255,113.9694672
4880,-13.9030581,-7.4555058,3.5170643,-77.3206100,96.1832047,163.0610657
4890,-14.9445305,-8.4586716,4.0270267,-81.3969498,136.0763397,213.1603088
4900,-16.8335457,-10.1034794,4.4244623,-82.2061081,160.4427490,250.1297760
4910,-18.3059731,-11.9709473,4.3717899,-73.8702316,164.8396912,250.1297760
4920,-19.6036224,-14.5877962,3.3782012,-62.9160309,145.7175598,250.1297760
4930,-19.6131992,-17.3722382,1.9991482,-56.4580154,113.5496216,250.1297760
4940,-18.5453911,-19.6131992,0.7206510,-52.5648842,82.1908417,250.1297760
4950,-15.7417955,-19.6131992,-0.7613522,-52.5801544,56.1832047,250.1297760
4960,-11.5112629,-19.6131992,-3.0454090,-65.7786255,37.5954208,250.1297760
4970,-7.6183109,-19.6131992,-3.4739690,-89.0457993,35.4732819,250.1297760
4980,-0.3854645,-19.6131992,-1.8363433,-123.5267181,65.9542007,250.1297760
4990,10.1058741,-19.6131992,1.3910241,-150.8015289,132.2671814,250.1297760
5000,19.6126022,-19.6131992,4.2760224,-184.9847260,230.9770966,250.1297760
5010,19.6126022,-19.6131992,12.0044661,-222.8549652,250.1297760,250.1297760
5020,19.6126022,-19.6131992,19.6126022,-210.2290039,224.8702240,250.1297760
5030,19.6126022,-19.6131992,19.6126022,-123.2748108,199.0610657,250.1297760
5040,19.6126022,-10.4386663,19.6126022,-4.2595420,185.6183167,250.1297760
5050,19.6126022,-2.6455793,19.1798515,53.9465637,121.5877838,250.1297760
5060,19.6126022,0.2513899,8.4850073,36.3969460,-0.3664122,179.7709961
5070,19.6126022,2.6455793,6.2608056,-16.7022896,-85.9236679,126.0916061
5080,19.6126022,4.7381010,10.4745789,-53.3969460,-75.6641235,102.1603088
5090,19.6126022,6.3158717,13.3787308,-61.8473282,10.4732828,77.5038147
5100,19.6126022,7.0437055,13.1632538,-53.7709923,113.9847336,56.9694672
5110,19.6126022,7.2472115,10.2040358,-45.5877876,165.6488495,36.7862587
5120,19.6126022,7.7859039,7.9391322,-53.5648842,150.5038147,8.4503813
5130,19.6126022,8.2815018,8.5424681,-68.6030502,92.2977066,-34.1755714
5140,19.6126022,7.9391322,11.1305866,-72.8549652,26.2748089,-97.7709961
5150,19.6126022,7.2089043,13.8120794,-64.7404556,-22.8778629,-168.1908417
5160,19.6126022,5.6191626,15.1288834,-48.4503822,-47.1068687,-236.1908417
5170,19.6126022,3.8235207,15.1647959,-32.0228996,-52.9618340,-250.1374054
5180,19.6126022,2.3032103,14.7553892,-15.2061071,-56.9160309,-250.1374054
5190,19.6126022,1.1851238,14.2071199,2.6412213,-56.4656487,-250.1374054
5200,19.6126022,0.5626345,13.2925396,19.5343513,-52.7404594,-250.1374054
5210,18.7105904,0.4022238,12.4976692,33.7709923,-55.4961815,-250.1374054
5220,17.8750191,-0.0095768,11.6333666,45.3816795,-60.0992355,-250.1374054
5230,16.7377777,0.0119709,11.1090393,54.3358765,-56.8549614,-250.1374054
5240,15.9500904,-0.2801202,10.2279778,61.3587799,-38.7328262,-250.1374054
5250,13.9677010,-0.7709290,9.3445215,65.1068726,-19.6259537,-250.1374054
5260,12.0355902,-1.4460905,9.0093346,68.9465637,-10.1908398,-250.1374054
5270,9.8496952,-2.1188576,8.8034344,75.8244247,-9.7022905,-250.1374054
5280,7.7045016,-2.7437410,8.8680773,87.9542007,-16.0763359,-250.1374054
5290,5.8609757,-3.1531475,8.5664101,103.0305328,-23.3053436,-250.1374054
5300,4.1323709,-3.0980811,7.9199786,113.9923630,-33.8702278,-250.1374054
5310,2.5905130,-2.9137285,7.4387465,122.1450348,-44.1068687,-250.1374054
5320,1.2832855,-2.9280937,6.8497758,127.6259537,-52.3511467,-250.1374054
5330,0.3303981,-2.9951310,6.1267309,130.1832123,-55.0152664,-250.1374054
5340,-0.8188128,-3.0549858,5.3629842,128.2290039,-55.8931313,-250.1374054
5350,-2.0374553,-3.0142846,4.7572546,122.0763321,-55.4656487,-250.1374054
5360,-3.2896163,-3.1148405,4.7189474,114.9847336,-50.5572510,-250.1374054
5370,-4.5705075,-3.4524212,4.7788019,110.1068726,-43.4656487,-250.1374054
5380,-6.3853035,-4.0389977,5.0086441,108.4274826,-37.5496178,-250.1374054
5390,-8.9877872,-4.5010762,5.1594782,108.4503784,-41.2290077,-250.1374054
5400,-11.9278517,-5.0373745,5.4970589,108.4656525,-57.0763359,-250.1374054
5410,-14.0491037,-5.4683285,5.9687142,110.5419846,-72.3816757,-250.1374054
5420,-16.5270901,-4.8578105,5.7149301,113.7557220,-77.4809189,-250.1374054
5430,-17.6739063,-4.4507980,4.7309184,108.1145020,-78.7709961,-206.6870270
5440,-17.6212349,-4.4843168,3.9863255,96.4122162,-68.3206100,-151.5343475
5450,-17.0155048,-4.5896611,3.6200144,83.4732819,-45.4045792,-97.3053436
5460,-16.3451309,-5.0613165,2.9209111,69.4351120,-12.3511448,-46.2824440
5470,-15.5981445,-6.3757267,2.1882892,52.5496178,28.1832066,4.5801525
5480,-15.5885677,-7.9606800,1.1803354,35.6793900,69.1145020,54.3740463
5490,-16.3978043,-9.7611103,0.4118006,16.9923668,98.8091583,107.3511429
5500,-18.1383801,-12.4019012,-0.1436514,-0.7557252,109.1068726,169.7786255
5510,-19.6131992,-15.3084478,-0.8451489,-17.8320618,102.5572510,243.1450348
5520,-19.6131992,-17.6858768,-0.8379663,-37.0458031,97.7175598,250.1297760
5530,-19.1966114,-19.6131992,0.4118006,-56.9083977,117.7404556,250.1297760
5540,-16.8311520,-19.6131992,1.6855093,-72.2442780,161.4503784,250.1297760
5550,-14.9972029,-19.6131992,1.4891858,-86.9694672,206.8854980,250.1297760
5560,-12.4928808,-19.6131992,1.0702027,-107.8244247,230.0992432,250.1297760
5570,-8.9734221,-19.6131992,1.1252691,-129.8167877,234.9847260,250.1297760
5580,-3.6511390,-19.6131992,1.1324517,-151.8091583,233.5419922,250.1297760
5590,1.3263810,-19.6131992,2.5186872,-168.4961853,212.9541931,250.1297760
5600,7.6470413,-19.6131992,5.9639258,-160.6870270,161.3893127,250.1297760
5610,17.2022514,-19.6131992,9.2319946,-118.4732819,82.9007645,250.1297760
5620,19.6126022,-19.6131992,10.9725704,-56.0992355,-13.6412210,250.1297760
5630,19.6126022,-19.6131992,11.5783005,1.0229008,-99.1679382,250.1297760
5640,19.6126022,-19.0481720,11.6166077,31.8549614,-117.6793900,250.1297760
5650,19.6126022,-11.8488436,11.0180597,25.3969460,-14.7709923,250.1297760
5660,19.6126022,-4.0294209,10.5631638,-26.1984730,168.2213745,250.1297760
5670,19.6126022,0.7230452,12.5838594,-90.8091583,250.1297760,250.1297760
5680,19.6126022,1.3598996,16.0721931,-117.7099228,250.1297760,250.1297760
5690,19.6126022,2.7988074,19.3402615,-100.3206100,250.1297760,221.9465637
5700,19.6126022,5.0397687,19.6126022,-56.9771004,168.9770966,163.6870270
5710,19.6126022,6.9503322,18.3035774,-14.6183205,118.1221390,109.1526718
5720,19.6126022,8.1617918,14.7410240,9.3206110,97.3053436,67.2137375
5730,19.6126022,8.4897957,11.5950594,19.7328243,88.0687027,33.0305328
5740,19.6126022,8.3748751,8.0779953,13.4732828,90.3816757,-18.3664131
5750,19.6126022,7.8697009,7.8457589,2.4503818,95.5648880,-48.2061081
5760,19.6126022,7.7571740,8.3341732,-6.7022901,92.5267181,-86.5343475
5770,19.6126022,6.6989422,9.3588867,-7.4732823,71.7480927,-132.7862549
5780,19.6126022,5.6431046,10.2614956,-0.0458015,36.7633591,-180.6412201
5790,19.6126022,4.8673873,11.2598734,12.8320608,-1.9007634,-225.0000000
5800,19.6126022,4.2736282,11.9972830,29.3282452,-31.9541988,-250.1374054
5810,19.6126022,3.5218527,12.3061342,47.3206100,-55.5267181,-250.1374054
5820,19.6126022,2.9041519,11.8464499,63.5725174,-78.5038147,-250.1374054
5830,19.6126022,2.1787124,10.9773588,75.1526718,-92.6030502,-250.1374054
5840,19.6126022,0.9672526,10.4195127,82.7404556,-106.0534363,-250.1374054
5850,19.6126022,-0.2346306,9.9406748,89.8320618,-110.6641235,-250.1374054
5860,17.2549229,-1.6112895,9.3756456,95.9312973,-112.3969498,-250.1374054
5870,14.9421368,-2.6814921,9.0476418,102.6412201,-117.2290039,-250.1374054
5880,13.5343533,-3.7085996,8.4706421,112.6335907,-120.2824402,-250.1374054
5890,12.0810804,-4.7572546,7.1346846,118.8931274,-115.3435135,-250.1374054
5900,9.4833841,-6.1123657,5.7915444,116.1603088,-108.9770966,-250.1374054
5910,6.4427638,-7.1370788,5.6526814,109.5877838,-114.0916061,-250.1374054
5920,3.5481887,-7.7380204,6.6654234,108.3664093,-128.5114441,-250.1374054
5930,0.9097920,-8.2360115,7.8050575,116.3587799,-145.1832123,-250.1374054
5940,-1.2354017,-8.4371233,8.1306677,129.3435059,-162.3587799,-250.1374054
5950,-2.8538737,-8.1282730,7.7954807,141.7480927,-178.8854980,-250.1374054
5960,-3.8642218,-7.6925306,7.0987716,148.7786255,-187.8702240,-250.1374054
5970,-4.8171091,-7.6494355,6.1865854,148.0686951,-187.7938995,-250.1374054
5980,-6.1650376,-7.7428088,5.4036856,142.0000000,-180.7251892,-250.1374054
5990,-7.6925306,-7.9271612,4.6806402,130.2748108,-171.0534363,-250.1374054
6000,-9.3588867,-7.8002691,3.8259149,112.8244247,-158.1603088,-250.1374054
6010,-11.2718439,-7.6039457,3.1842721,90.1755753,-137.6488495,-250.1374054
6020,-13.8168669,-7.2304521,2.6479735,63.0228996,-106.2900772,-250.1374054
6030,-16.0578289,-6.6534524,2.7700772,35.0534363,-74.0916061,-250.1374054
6040,-17.4273052,-6.5121951,3.2106080,11.5877867,-46.4427490,-205.4580078
6050,-18.3347034,-6.6103573,3.6343796,-7.5572519,-22.2442741,-145.2213745
6060,-18.7177734,-6.9862447,3.6870518,-25.4122143,2.3206108,-84.0534363
6070,-18.8470592,-7.4459291,4.1156116,-43.1068687,25.9007626,-25.5343513
6080,-18.5693340,-8.2264347,4.8386569,-56.2900772,49.5725174,31.3435116
6090,-17.7696743,-9.1074963,6.1530671,-60.1526718,74.2061081,84.3282471
6100,-16.5893383,-10.0196829,7.4315639,-51.5419846,89.9923630,133.9923706
6110,-15.6340570,-10.7187862,7.9415264,-32.4351158,102.9236679,177.1297760
6120,-14.1041698,-11.8440552,8.5233145,-6.8702292,110.7709961,216.5419922
6130,-13.9006643,-12.8927097,8.0827837,21.3053436,117.0916061,250.1297760
6140,-13.6301203,-13.8767223,6.4092450,41.4809151,124.8854980,250.1297760
6150,-14.7218714,-15.1887379,4.0916696,50.8625946,139.8854980,250.1297760
6160,-16.0075512,-16.4600525,1.0175306,43.7404594,150.3511505,250.1297760
6170,-16.6013088,-18.3825874,-1.3287752,22.4961834,138.5267181,250.1297760
6180,-16.6084919,-19.6131992,-2.7197993,-1.6717557,117.7557220,250.1297760
6190,-14.8343983,-19.6131992,-3.8474624,-33.8396950,108.7099228,250.1297760
6200,-11.4346485,-19.6131992,-2.8514795,-74.9465637,114.7251892,250.1297760
6210,-3.3590479,-19.6131992,0.0143651,-112.6030502,132.6946564,250.1297760
6220,11.6118193,-19.6131992,2.5091105,-145.5877838,179.7862549,250.1297760
6230,19.6126022,-19.6131992,5.1522956,-181.0152740,250.1297760,250.1297760
6240,19.6126022,-19.6131992,7.3693151,-232.3129730,250.1297760,250.1297760
6250,19.6126022,-19.6131992,16.8239689,-250.1374054,250.1297760,250.1297760
6260,19.6126022,-6.4140334,19.6126022,-250.1374054,250.1297760,250.1297760
6270,19.6126022,-2.6072724,19.6126022,-177.3435059,250.1297760,250.1297760
6280,19.6126022,-3.6750808,19.6126022,-52.9160309,182.6717529,119.9236679
6290,19.6126022,-4.7835903,19.6126022,28.6488552,17.4122143,67.8778610
6300,17.3411140,-2.6383967,14.0921993,54.8702278,-103.6564865,93.8396912
6310,17.7816448,1.1372399,9.1625633,40.6106873,-119.0763321,136.6717529
6320,19.6126022,5.3079181,7.3573442,0.5419847,-34.3206100,163.0305328
6330,19.6126022,7.9894104,7.6901364,-41.7786255,78.2595444,158.1755676
6340,19.6126022,8.1330614,9.4283180,-61.2290077,146.6793823,137.9923706
6350,19.6126022,7.3118544,10.3620520,-57.4122124,146.1984711,115.7938919
6360,19.6126022,6.5672617,10.0340481,-42.9312973,94.5725174,96.4122162
6370,19.6126022,6.1985564,9.3660688,-27.0839691,33.3435097,71.3587799
6380,19.3330803,5.8178802,8.4012108,-14.4732828,-20.0763359,41.7099228
6390,18.1575336,5.2432747,7.7595682,-7.8702292,-61.1297722,15.6106873
6400,17.9324799,5.1786318,7.1370788,-6.6793895,-78.1450348,-1.0610687
6410,18.3945580,5.3773494,6.6223278,-11.7099237,-67.6870193,-13.5267172
6420,19.1774578,5.8801293,6.3398137,-21.5572510,-38.5801544,-25.6870232
6430,18.4184990,6.5433197,6.6582408,-32.3358765,-5.7633586,-39.3587799
6440,12.9884777,13.8336267,7.7619624,-42.2290077,-3.3206108,-29.9770985
6450,19.6126022,5.1738434,8.0779953,-54.8244286,32.5343513,-50.7938919
6460,19.6126022,4.3670015,8.5304966,-60.1984749,85.1221390,-119.4351120
6470,19.6126022,4.5609307,10.7690639,-53.2061081,50.7633591,-162.2977142
6480,18.9260674,3.6535332,12.3612003,-25.1297703,5.8702292,-186.1984711
6490,18.4089222,5.3366485,12.8735571,8.5114508,-37.0534363,-209.1297760
6500,18.8374825,6.5193777,11.7650471,32.0458031,-62.6488533,-229.9541931
6510,19.5126438,7.2998838,10.2351599,38.3816795,-68.0000000,-250.1374054
6520,19.6126022,6.3230543,8.7770987,32.8473282,-54.8091621,-250.1374054
6530,19.6126022,4.2161674,7.7475972,20.9389305,-32.7099228,-250.1374054
6540,18.4496231,2.2529323,7.7547798,8.3206110,-17.4045811,-250.1374054
6550,18.1742916,0.0239419,9.0667953,4.6030536,-12.8320608,-250.1374054
6560,17.1447906,-1.3503228,11.0084829,11.9847326,-13.7862597,-250.1374054
6570,16.3068237,-2.4564383,12.3827477,30.7709923,-19.7557259,-250.1374054
6580,14.0395269,-3.6726866,12.7322998,54.0000000,-32.0228996,-250.1374054
6590,11.0132713,-4.5681133,12.1936073,77.6335907,-44.9694672,-250.1374054
6600,7.8361821,-5.2911587,11.0731258,98.7938919,-52.8244286,-250.1374054
6610,4.9487896,-4.9679432,9.1601686,113.6183243,-57.2366409,-250.1374054
6620,2.8754215,-4.3430595,7.4986014,120.2595444,-56.5648842,-250.1374054
6630,1.2737088,-3.2728570,6.0237808,118.7709961,-53.7404594,-250.1374054
6640,0.1388630,-2.4420733,5.0541339,114.9236679,-44.4274826,-250.1374054
6650,-0.5123565,-1.7621235,4.4124913,111.5572510,-42.2824440,-250.1374054
6660,-0.7613522,-1.4796091,4.2664456,109.2290039,-51.7175560,-250.1374054
6670,-1.2282192,-1.2234308,4.2018023,109.0152664,-60.1755714,-250.1374054
6680,-1.7980363,-1.7573351,4.1156116,111.8473282,-67.5954208,-250.1374054
6690,-2.8778157,-2.3463056,3.9432299,114.9542007,-75.4580154,-250.1374054
6700,-4.3286943,-2.9831600,4.0940638,118.7709961,-85.1374054,-250.1374054
6710,-5.9854736,-3.5362179,4.2760224,123.3511429,-96.9542007,-250.1374054
6720,-8.0923605,-4.3047528,4.3765783,127.1374054,-109.8244247,-250.1374054
6730,-10.0891142,-4.6758518,4.5010762,127.7175598,-117.7480927,-250.1374054
6740,-11.8464499,-4.7500720,4.6926112,127.5114517,-118.7404556,-250.1374054
6750,-13.3691540,-4.9200592,4.4364328,126.9618301,-112.2595444,-250.1374054
6760,-14.4369621,-5.0541339,4.3167233,123.3358765,-92.2519073,-212.6183167
6770,-15.1025467,-4.8865409,3.8618276,117.5801544,-59.5267181,-162.5190887
6780,-15.1935263,-4.9392128,3.0166788,108.9770966,-19.7633591,-112.5114517
6790,-15.5191364,-6.1841912,1.9488702,95.4809189,24.7480907,-60.3435097
6800,-16.3762550,-8.6430235,0.6895266,74.9236679,68.9312973,0.6946565
6810,-17.5877151,-11.7171631,-0.4572902,49.6259537,107.0000000,70.6335907
6820,-19.6131992,-14.2166967,-1.2090657,22.4656487,132.6793823,151.5877838
6830,-19.6131992,-15.7872849,-1.2904681,-3.3969467,126.2977066,237.0686951
6840,-19.6131992,-17.6020813,-0.4237715,-22.0000000,86.0687027,250.1297760
6850,-19.6131992,-19.6131992,1.0079538,-27.5419846,31.5343513,250.1297760
6860,-19.6131992,-19.6131992,3.3710186,-17.9770985,0.3053435,250.1297760
6870,-14.8224268,-19.6131992,4.7931671,0.4809160,9.2977095,250.1297760
6880,-11.2000179,-19.6131992,3.9815371,14.2213745,44.7938919,250.1297760
6890,-8.5759869,-19.6131992,2.4684093,19.8320618,75.2137375,250.1297760
6900,-5.6885943,-19.6131992,0.4908088,15.5267172,102.6030502,250.1297760
6910,-2.7437410,-19.6131992,-0.1843526,-3.8625953,117.4122162,250.1297760
6920,11.4250717,-19.6131992,2.5354466,-31.3740463,176.8778687,250.1297760
6930,19.6126022,-19.6131992,4.4412212,-71.4503784,250.1297760,250.1297760
6940,19.6126022,-19.6131992,7.5225434,-148.0534363,250.1297760,250.1297760
6950,19.6126022,-19.2756195,13.7330704,-233.4503784,250.1297760,250.1297760
6960,19.6126022,2.0661855,19.6126022,-250.1374054,250.1297760,250.1297760
6970,19.6126022,3.7852135,19.6126022,-139.3587799,250.1297760,142.5954132
6980,19.6126022,-0.6320660,19.6126022,18.0076332,-55.7480927,-35.5801544
6990,19.6126022,-0.4165890,18.4615955,86.8702316,-250.1374054,-91.8167953
7000,12.3109226,1.5466464,13.2087431,90.2748108,-250.1374054,-42.4809151
7010,13.0339670,3.1770895,12.2175484,83.0839691,-250.1374054,48.9389305
7020,16.4911766,5.1044121,9.4450769,67.9694672,-38.9465637,120.4732819
7030,17.8079815,6.4882536,6.1889796,39.5725174,139.5419922,156.9770966
7040,18.2413292,6.5433197,5.0828643,13.9847326,210.1374054,163.7099304
7050,18.2102051,5.6383162,5.7197185,13.7099237,191.2061005,157.6946564
7060,19.0098648,5.6814117,5.3629842,29.0916023,109.5648880,135.7480927
7070,19.1295738,5.8681583,4.5657191,44.4045792,13.1450386,102.8473282
7080,19.2061882,6.0812411,3.8043671,53.2442741,-50.8167953,75.3740463
7090,19.1630917,6.3206601,3.0837159,55.5267181,-67.1297684,56.6259537
7100,19.6126022,6.3781209,2.1978660,51.2748108,-36.9007645,46.2290077
7110,19.6126022,5.9830794,1.3407460,36.1221390,14.0458012,40.6183205
7120,19.6126022,6.2751703,1.4867916,14.8549614,66.2290039,34.7404594
7130,19.6126022,6.5935979,1.9967541,-2.2290077,108.1526718,22.1526718
7140,19.6126022,7.4076223,2.0374553,-14.5267172,121.8778610,-6.6488547
7150,19.6126022,8.3245964,2.5474176,-25.9923668,96.5801544,-54.7862587
7160,19.6126022,8.5999289,3.7038112,-35.9236641,46.9541969,-114.6946564
7170,19.6126022,8.1234846,5.3893204,-39.9007645,-11.5114508,-176.7251892
7180,19.6126022,7.1873569,7.3741035,-37.5725174,-64.1984711,-228.5038147
7190,19.6126022,6.2344694,9.4331064,-27.2366409,-98.3816757,-250.1374054
7200,19.6126022,5.2624283,10.5248566,-11.5496187,-105.6641235,-250.1374054
7210,19.6126022,4.6183915,10.6134415,2.7404580,-88.7480927,-250.1374054
7220,19.6126022,3.7421181,9.6701307,12.2366409,-53.6259537,-250.1374054
7230,19.6126022,3.1220231,8.7268209,16.5877857,-14.3129768,-250.1374054
7240,17.7505207,2.0542145,7.7475972,20.0381680,13.6030531,-250.1374054
7250,15.3850613,0.9385223,7.3070664,25.4961834,18.5648861,-250.1374054
7260,13.0555153,-0.0239419,7.3908629,34.1221390,3.4580152,-250.1374054
7270,10.5128860,-0.8164186,7.5919747,45.4503822,-21.1374054,-250.1374054
7280,8.1139078,-1.4628497,7.7882981,59.5648842,-46.5954208,-250.1374054
7290,6.0070214,-1.9201399,7.9391322,75.4580154,-64.4809189,-250.1374054
7300,4.0773048,-2.4301023,7.8098459,90.7786255,-77.6106873,-250.1374054
7310,2.0350611,-2.6647329,7.3908629,102.6717529,-89.1145020,-250.1374054
7320,0.3878587,-2.5785420,6.8952656,111.7480927,-92.0229034,-250.1374054
7330,-0.9504932,-2.2409613,6.4403696,117.2824402,-91.0610657,-250.1374054
7340,-1.9081690,-2.0422437,5.7125359,120.6412201,-89.0610657,-250.1374054
7350,-2.9975252,-1.9177457,4.8841467,120.8549652,-82.1679382,-250.1374054
7360,-4.2879934,-1.9345051,4.1371593,118.4656525,-70.6946564,-250.1374054
7370,-6.1770086,-2.2218077,3.3207407,113.9694672,-57.7786255,-250.1374054
7380,-8.5089493,-2.3822186,2.7509236,107.8244247,-50.7557259,-250.1374054
7390,-10.8815908,-2.3295465,2.4684093,100.8549652,-52.0687027,-250.1374054
7400,-13.0555153,-2.3391230,2.6336083,92.5114517,-58.5419846,-250.1374054
7410,-14.8152447,-2.3247581,2.8849983,86.5572510,-63.3511467,-250.1374054
7420,-15.8255920,-1.9321109,3.3015873,82.4961853,-65.7633591,-207.9770966
7430,-16.1033192,-1.7717001,3.2273674,79.9923630,-61.7328262,-164.1297760
7440,-16.1152897,-1.7046629,2.6192431,72.8702316,-52.2213745,-120.2748108
7450,-15.8662939,-1.8267666,2.0159075,61.2442741,-35.6335869,-75.7557220
7460,-15.2342272,-1.9728121,1.2784972,45.4732819,-11.8702288,-32.9236641
7470,-14.6117382,-2.2936335,1.0079538,26.5038166,16.9083977,8.9694653
7480,-14.5662489,-3.3207407,0.9552816,8.1068707,46.3969460,50.9923668
7490,-14.7984848,-4.7620430,0.8379663,-10.8015270,69.7404556,97.9160309
7500,-15.6412401,-6.5888095,1.2282192,-26.3129768,82.6564865,149.4656525
7510,-16.0769825,-8.5328913,1.9201399,-36.0992355,82.1145020,207.3053436
7520,-15.7968616,-10.5296450,2.6910689,-38.0076332,72.9542007,250.1297760
7530,-14.9828377,-12.7155399,2.8778157,-32.5572510,50.6412201,250.1297760
7540,-12.9812956,-14.8032732,2.9807658,-22.9541988,27.9847336,250.1297760
7550,-10.9582052,-16.6180687,2.7078283,-12.1221371,17.1450386,250.1297760
7560,-8.9973640,-18.3921642,2.0805507,-4.6793895,22.8931293,250.1297760
7570,-7.2496057,-19.6131992,1.1252691,-2.7251909,40.4351158,250.1297760
7580,-5.6167684,-19.6131992,-0.3615226,-12.1984730,68.8625946,250.1297760
7590,-4.3382711,-19.6131992,-0.6081241,-31.4503822,98.0763321,250.1297760
7600,-2.2098370,-19.6131992,-0.0526722,-52.1068687,118.3206100,250.1297760
7610,2.9879484,-19.6131992,1.5993185,-68.8702316,136.9389343,250.1297760
7620,9.6102762,-19.6131992,4.0940638,-74.6793900,164.2519073,250.1297760
7630,19.6126022,-19.6131992,6.9551206,-76.7862625,222.0610657,250.1297760
7640,19.6126022,-19.6131992,9.7443514,-78.5496216,250.1297760,250.1297760
7650,19.6126022,-12.0260134,11.7818060,-88.8473282,250.1297760,250.1297760
7660,19.6126022,-2.7628946,12.8567972,-101.8091583,250.1297760,250.1297760
7670,19.6126022,1.2306134,12.0427732,-107.4045792,250.1297760,250.1297760
7680,19.6126022,1.6280488,11.0132713,-104.4274826,209.9313049,216.1679382
7690,19.6126022,1.3551112,9.9861641,-95.7709961,27.4274807,117.3893127
7700,19.6126022,0.0095768,10.7738523,-93.8244247,-131.3358765,54.2442741
7710,19.6126022,-0.4860204,14.3196468,-90.1832047,-213.5954132,27.0229015
7720,19.6126022,0.2992737,17.4871597,-71.6412201,-204.0152740,19.6717548
7730,19.6126022,0.5482694,18.5022964,-47.1221390,-121.0687027,22.3664131
7740,18.6483421,0.8403605,17.2381649,-22.4503822,-11.0916033,38.0000000
7750,15.5406837,0.5961532,14.8272152,0.5419847,84.5877838,67.3358765
7760,13.8647509,0.6536137,11.9877062,23.1984730,135.5419922,102.0381699
7770,14.4249916,1.0055596,9.0931320,36.4580154,145.1908417,127.1374054
7780,16.7928448,1.8842272,6.5840211,36.3587799,132.7633514,138.3435059
7790,19.6126022,3.2321558,6.1075773,23.4656487,131.2824402,132.2290039
7800,19.6126022,6.1794028,8.1234846,21.5114498,87.8473282,77.7328262
7810,19.6126022,6.0285692,6.9958215,24.5267181,74.4198456,-8.2061071
7820,19.6126022,4.1371593,3.8283088,19.9618320,30.3740463,-48.8931313
7830,17.6547527,3.6391680,2.5162930,1.6106870,-1.7022901,-64.9847336
7840,15.8136215,3.0166788,3.4548154,-16.0000000,-24.5954189,-71.8473282
7850,16.9317074,3.4524212,5.8561873,-24.2366409,-39.9618340,-76.0229034
7860,19.6060181,3.9049230,7.3669209,-19.4885502,-46.2595406,-90.0534363
7870,19.6126022,4.0605454,7.2855186,-12.0839691,-34.6717567,-114.8244247
7880,19.6126022,4.6997938,6.7611909,-12.3664122,-23.0763359,-142.4656525
7890,19.6126022,4.7165532,6.6199336,-20.6335869,-20.5343513,-175.3282471
7900,19.6126022,4.4723458,7.2256637,-30.1221371,-17.5190830,-212.2442780
7910,19.6126022,4.2664456,8.0325060,-34.8931313,-11.8473282,-250.1374054
7920,19.6126022,4.0581512,8.8824425,-33.7480927,-8.1984730,-250.1374054
7930,19.6126022,3.1770895,9.0955257,-28.7786255,-12.6412210,-250.1374054
7940,19.6126022,2.1475880,9.5743637,-21.8473282,-33.3282433,-250.1374054
7950,19.6126022,1.0630201,10.6373835,-10.2748089,-55.5801544,-250.1374054
7960,18.2892132,0.0861908,11.3221216,7.5648856,-59.3129768,-250.1374054
7970,16.9173431,-0.5410868,10.7211800,26.8015270,-48.0763359,-250.1374054
7980,15.2270451,-1.1731528,9.5360565,40.0610695,-29.9847336,-250.1374054
7990,12.7730007,-1.9584470,8.5735922,46.0076332,-12.5496187,-250.1374054
8000,9.8664551,-2.5593886,8.2336178,49.9618340,-2.1755726,-250.1374054
8010,7.2232695,-3.2848279,8.2336178,57.1908379,0.4656489,-250.1374054
8020,4.6351509,-3.8977404,8.2958660,69.8320618,-5.0152674,-250.1374054
8030,2.9304879,-3.9408360,8.2982607,87.0916061,-19.0000000,-250.1374054
8040,1.4628497,-4.4579806,7.7452030,103.1145020,-33.1145020,-250.1374054
8050,0.3184272,-4.2951760,7.1035600,116.6259537,-51.0305328,-250.1374054
8060,-0.7781116,-4.4938936,6.4595232,125.4656525,-66.9160309,-250.1374054
8070,-2.1763182,-4.5178356,6.0261750,130.3740387,-80.5572510,-250.1374054
8080,-3.5122759,-4.4484038,5.6095858,132.3816833,-91.2748108,-250.1374054
8090,-4.4867110,-4.4292507,5.0277977,129.8244324,-94.9312973,-250.1374054
8100,-5.5928264,-4.5944495,4.6902170,122.9923630,-88.0610657,-250.1374054
8110,-7.3238254,-4.9631548,4.1826491,112.8778610,-74.8625946,-250.1374054
8120,-9.1649570,-5.1714492,3.9719603,102.3282471,-64.4503784,-250.1374054
8130,-10.8217363,-5.4324160,3.8929520,91.4122162,-55.5038185,-250.1374054
8140,-12.1864243,-5.3246775,3.7828193,81.4656525,-43.5877876,-250.1374054
8150,-13.7761660,-5.3079181,3.2824337,68.6030502,-26.0610695,-250.1374054
8160,-15.8686876,-5.5784616,2.9999194,52.7557259,-7.3053436,-234.7633514
8170,-18.1527443,-6.1865854,3.2130022,38.1450386,9.1450386,-184.4045868
8180,-19.6131992,-7.0460997,3.6918402,27.8931293,24.2671757,-123.1832047
8190,-19.6131992,-8.2719250,3.9671719,22.7480907,39.4198456,-51.7709923
8200,-19.6131992,-9.4881725,3.9336534,19.8778629,50.7404594,30.2824421
8210,-19.6131992,-10.5966825,3.5769191,16.2442741,56.4503822,115.7328262
8220,-19.6131992,-11.9685535,3.6846576,13.0229006,58.6717567,201.0763397
8230,-19.6131992,-13.5175934,3.7301471,13.7633591,62.9694672,250.1297760
8240,-17.1591549,-15.0379038,3.0597742,18.6717548,63.3664131,250.1297760
8250,-14.8032732,-16.5246964,1.8985922,22.9770985,56.8244286,250.1297760
8260,-13.6396971,-18.0928898,1.0247130,27.6412220,42.9923668,250.1297760
8270,-12.0786858,-19.6131992,0.2992737,31.9847336,28.8015270,250.1297760
8280,-9.9694052,-19.6131992,-0.3950413,31.7328243,30.1679382,250.1297760
8290,-9.0715837,-19.6131992,-1.3072275,26.3816795,47.4503822,250.1297760
8300,-8.5711985,-19.6131992,-2.3223639,8.8854961,69.7328262,250.1297760
8310,-7.8098459,-19.6131992,-3.3925664,-17.2366409,68.9465637,250.1297760
8320,-2.2074428,-19.6131992,-2.5833304,-44.7862587,72.1603088,250.1297760
8330,12.9597473,-19.6131992,0.0598547,-72.0916061,153.4427490,250.1297760
8340,19.6126022,-19.6131992,5.0828643,-113.3587799,250.1297760,250.1297760
8350,19.6126022,-19.6131992,13.8743277,-165.0229034,250.1297760,250.1297760
8360,19.6126022,-11.7698355,19.6126022,-168.9770966,250.1297760,250.1297760
8370,19.6126022,-1.9871773,19.6126022,-60.6717567,250.1297760,250.1297760
8380,19.6126022,-2.6431851,19.6126022,62.1679382,187.0686951,195.9236603
8390,19.6126022,-1.9512644,3.4452386,78.5343475,-14.8167934,94.5038147
8400,19.6126022,0.2896969,-1.0606259,13.9007635,-192.7251892,69.8549652
8410,19.6126022,0.9121862,5.6526814,-37.9007645,-242.2213745,99.6259537
8420,19.6126022,2.9496415,11.9182749,-41.3282433,-132.9541931,126.6183243
8430,19.6126022,4.6710634,13.6684275,-26.1374054,32.7557259,130.5572510
8440,19.6126022,5.1235652,11.5806942,-8.7099237,137.2595367,127.6412201
8450,19.6126022,4.8889351,8.5783806,7.0534353,147.6564941,124.8473282
8460,18.4663830,4.3741841,6.2224984,17.8778629,103.1145020,124.1908417
8470,19.4599724,5.0230093,5.1020179,24.3206100,34.4198456,113.3893127
8480,19.6126022,5.5281835,4.4220681,24.9389305,-30.1526718,88.0457993
8490,19.6126022,5.4324160,4.4220681,17.8320618,-57.2748108,54.6793900
8500,19.6126022,7.2687593,5.9351954,6.3053436,-60.1068687,12.7633591
8510,19.6126022,5.9232249,5.4252334,-0.1221374,-35.2671738,-37.4274826
8520,19.4096947,4.3717899,4.3598189,-7.0992365,-12.7633591,-61.1679382
8530,15.5646257,3.2345500,4.2329268,-16.7251911,0.4580153,-62.2519073
8540,14.2143030,2.8897867,5.2121506,-20.1374054,15.7938929,-49.9083977
8550,15.7944679,3.5841017,6.3278427,-12.6030531,24.2519093,-38.5496178
8560,18.0521889,4.0485744,5.9471664,1.4809160,30.7328243,-42.1679382
8570,19.6126022,4.9583664,4.7117648,9.8931293,35.3740463,-58.5801544
8580,19.6126022,6.0620875,3.3758070,5.1984735,37.0687027,-86.4580154
8590,19.6126022,6.1985564,2.4899571,-8.6259546,33.6106873,-128.5267181
8600,19.6126022,6.1099715,2.4253139,-28.2290077,22.3816795,-179.6106873
8610,19.6126022,5.6024032,3.4476328,-47.7938919,7.1450381,-230.7786255
8620,19.6126022,4.9631548,5.1499014,-59.1297722,-5.5877862,-250.1374054
8630,19.6126022,4.1946201,7.0317345,-60.8167953,-17.2900772,-250.1374054
8640,19.6126022,3.6271970,8.8201942,-54.7404594,-20.9923668,-250.1374054
8650,19.6126022,2.8012016,9.8688488,-43.4198456,-11.2900763,-250.1374054
8660,19.6126022,1.6879035,9.5671806,-30.8091602,10.6717558,-250.1374054
8670,17.2046452,0.4022238,9.0548248,-18.9541988,20.5648861,-250.1374054
8680,14.8870697,-0.3615226,9.3014259,-5.4427481,17.9694653,-250.1374054
8690,12.2390966,-1.2617378,9.3732519,13.0687027,13.0381680,-250.1374054
8700,9.4235296,-2.1164634,9.2894554,34.0534363,2.2748091,-250.1374054
8710,7.0125809,-2.5043221,8.8369532,54.4045792,-10.3664122,-250.1374054
8720,4.8625989,-2.7365584,8.3126259,72.0992355,-22.3511448,-250.1374054
8730,3.2201848,-2.6216373,7.5943689,86.1145020,-31.1679382,-250.1374054
8740,1.7860653,-2.7557120,7.0915890,95.4961853,-42.7099228,-250.1374054
8750,0.6751614,-2.8442972,6.6199336,102.3969498,-56.8320618,-250.1374054
8760,-0.4213773,-2.8634505,6.1865854,106.8244247,-68.7022934,-250.1374054
8770,-1.4676381,-3.0621684,5.8394279,107.2061081,-72.9312973,-250.1374054
8780,-2.6360025,-3.2177906,5.6981707,105.9465637,-71.6793900,-250.1374054
8790,-3.8211265,-3.7516949,5.4180508,104.0687027,-62.7022896,-250.1374054
8800,-5.2720051,-4.2568688,5.0373745,103.1832047,-51.9083977,-250.1374054
8810,-6.9838505,-4.4938936,4.5944495,100.4427490,-47.2519073,-250.1374054
8820,-8.8154058,-4.5537481,4.2137733,95.2900772,-46.0152664,-250.1374054
8830,-10.7092094,-4.7835903,4.4100971,89.9465637,-45.9694672,-250.1374054
8840,-12.6413202,-4.7117648,4.2520804,85.8396912,-42.0610695,-250.1374054
8850,-14.4465389,-4.6064205,4.0006905,82.0992355,-34.8320618,-250.1374054
8860,-15.9189653,-4.6159973,3.8354914,77.7022934,-25.2595425,-216.7175598
8870,-17.4153347,-4.6375451,3.7540891,75.2442780,-13.5267172,-163.4961853
8880,-18.5070839,-4.5010762,3.3111639,72.0152664,-0.2824427,-105.5190811
8890,-18.9835281,-4.5705075,2.6982515,67.0839691,13.0152674,-42.1755714
8900,-18.6962261,-4.9344244,2.0661855,61.0534363,26.7480907,22.9465656
8910,-17.9396610,-5.3151007,1.2018831,52.1755714,42.6946564,87.7480927
8920,-16.8790359,-6.3469963,0.5434810,41.3282433,54.7938919,152.5877838
8930,-15.7178535,-7.2927012,-0.4501076,29.8015270,61.3435097,214.9313049
8940,-14.6620159,-8.1570034,-1.4317253,16.5877857,55.4885483,250.1297760
8950,-12.9789009,-9.3110027,-2.2433555,-0.4122137,44.2748108,250.1297760
8960,-11.3508520,-10.6900558,-2.4755919,-18.1526718,40.2671738,250.1297760
8970,-9.8951855,-12.1696653,-2.2720859,-35.3129768,44.5954208,250.1297760
8980,-9.0667953,-13.9796724,-1.9943599,-52.3969460,57.4274826,250.1297760
8990,-8.8585014,-16.1128960,-1.6017127,-69.8396912,70.7633591,250.1297760
9000,-8.3341732,-19.0385952,-0.7230452,-86.5954208,77.1450348,250.1297760
9010,-7.2639709,-19.6131992,1.2952565,-96.4580154,82.6488571,250.1297760
9020,-5.1738434,-19.6131992,3.2058196,-98.4809189,78.6030502,250.1297760
9030,0.0239419,-19.6131992,4.9535780,-90.6793900,71.4122162,250.1297760
9040,12.2007895,-19.6131992,7.5033898,-77.4427490,123.5038147,250.1297760
9050,19.6126022,-19.6131992,8.5735922,-86.5038147,250.1297760,250.1297760
9060,19.6126022,-19.6131992,10.5511932,-137.3664093,250.1297760,250.1297760
9070,19.6126022,-19.6131992,17.3315372,-181.7557220,250.1297760,250.1297760
9080,19.6126022,-13.9461536,19.6126022,-154.3053436,250.1297760,250.1297760
9090,19.6126022,-7.0939832,19.6126022,-49.2977104,183.8320618,250.1297760
9100,19.6126022,-4.4388270,19.6126022,54.9389305,22.1832066,250.1297760
9110,19.6126022,-2.9280937,10.6948442,90.7251892,-113.7633591,160.9160309
9120,19.6126022,-1.5394639,3.4835455,62.5190849,-198.4045868,115.7480927
9130,19.6126022,-0.6177009,3.3782012,7.9160304,-204.7404633,117.7404556
9140,19.6126022,0.2418131,7.4746594,-25.4732819,-137.6335907,138.0839691
9150,19.6126022,1.7429699,11.2048063,-28.0381680,-29.3053436,153.3587799
9160,19.6126022,3.2153964,12.0691090,-16.5343513,71.7251892,154.7175598
9170,19.6126022,3.9480183,11.2287483,0.2061069,139.3358765,142.0915985
9180,19.6126022,4.5920553,9.1721401,10.0076332,164.8167877,116.1755753
9190,19.6126022,4.7357068,7.7068958,2.6870229,200.3969421,79.5877838
9200,19.6126022,9.0213060,10.5942879,3.7938931,149.6488495,-14.8473282
9210,19.6126022,4.7237358,6.9742737,18.1374054,85.9160309,-109.8244247
9220,15.7322187,3.0597742,2.4253139,11.2824430,17.3053436,-116.5038147
9230,12.8232784,2.5881188,1.5250987,-14.4580154,-18.6183205,-100.7557220
9240,12.3348637,2.4396791,3.5362179,-34.0534363,-46.3893127,-91.8015289
9250,14.6308918,3.1866663,7.0101867,-39.2900772,-53.7480927,-82.5725174
9260,18.3706150,3.8354914,9.4043760,-26.7175579,-41.6793900,-89.2519073
9270,19.6126022,3.7947903,9.6054878,-8.3282442,-8.4427481,-109.5419846
9280,19.2061882,4.0150557,8.5065556,2.6793892,15.8396950,-129.4580078
9290,18.2796364,3.9743545,7.8074517,5.5190840,22.3511448,-149.4122162
9300,17.1088772,3.8402798,7.3214312,8.6106873,17.4503822,-169.3893127
9310,16.0075512,3.4117200,6.8042865,11.5419846,2.4809160,-184.6335907
9320,15.9883976,3.3542595,6.5145893,12.5343513,-21.0610695,-196.3053436
9330,17.6379929,3.7876077,6.7348547,12.7099237,-43.7786255,-213.5343475
9340,19.6126022,4.2712340,7.1921453,12.0687027,-67.0992355,-241.3511505
9350,19.6126022,4.8266859,8.0636301,10.0152674,-78.8778610,-250.1374054
9360,19.6126022,4.4771342,8.8656836,7.7786260,-74.0763321,-250.1374054
9370,19.6126022,3.1004753,9.3947992,7.6870227,-61.1755714,-250.1374054
9380,19.6126022,1.2066715,10.1705170,13.0305347,-49.4045792,-250.1374054
9390,19.1056328,-0.5171449,10.5871058,25.0534344,-43.4961815,-250.1374054
9400,16.1272602,-2.0422437,10.6924505,41.6030540,-43.4580154,-250.1374054
9410,13.3500004,-3.1507533,10.3979645,59.9541969,-43.8702278,-250.1374054
9420,11.0850973,-3.7301471,9.4043760,76.5343475,-37.9618340,-250.1374054
9430,8.2982607,-4.3023586,8.1234846,88.2595444,-28.9770985,-250.1374054
9440,6.1243367,-4.4268565,7.2472115,95.8778610,-29.4809170,-250.1374054
9450,4.2808108,-4.6471219,6.6773944,102.7938919,-32.0228996,-250.1374054
9460,2.5354466,-4.7572546,6.2488346,109.6335907,-38.7251892,-250.1374054
9470,0.9073978,-4.7716198,6.0932121,116.8396912,-52.8702278,-250.1374054
9480,-0.4501076,-4.9894910,5.8657641,124.6641235,-72.1908417,-250.1374054
9490,-1.7932479,-5.2672167,5.7292953,132.0381622,-93.0152664,-250.1374054
9500,-2.7988074,-5.6622581,5.3917146,137.7862549,-109.0992355,-250.1374054
9510,-3.5984666,-5.9663200,4.7261300,140.7251892,-115.1526718,-250.1374054
9520,-4.5178356,-6.4283986,4.1611013,139.1984711,-113.0992355,-250.1374054
9530,-6.2224984,-7.2208753,3.2489152,133.1145020,-108.9618301,-250.1374054
9540,-8.3222027,-7.6973190,2.7006457,120.9083939,-103.1984711,-250.1374054
9550,-10.8887739,-7.8601241,2.4684093,102.6106873,-91.5343475,-250.1374054
9560,-13.4433737,-7.8050575,2.5162930,83.8702316,-75.7709961,-250.1374054
9570,-16.3403435,-7.1538382,2.6312141,64.5877838,-52.3358765,-250.1374054
9580,-19.6012287,-6.6869712,3.0861101,48.2519073,-31.8396950,-250.1374054
9590,-19.6131992,-6.1794028,3.3135581,35.4122124,-17.6641216,-193.9236603
9600,-19.6131992,-5.8298512,3.5745249,26.8778629,-4.5114503,-116.5496216
9610,-19.6131992,-5.7101417,3.5170643,20.9312973,6.7709923,-34.7862587
9620,-19.6131992,-5.9591374,2.9352763,14.8702288,15.3893127,44.5496178
9630,-19.6131992,-6.4619174,2.4013720,5.7175574,24.7633591,118.0610657
9640,-17.7864342,-6.9886389,2.0901275,-5.1603055,38.9389305,182.5954132
9650,-15.5263186,-7.7380204,1.6831152,-16.6717548,57.9923668,237.7099304
9660,-14.1329002,-8.6478119,1.3958124,-27.7099228,68.1297684,250.1297760
9670,-13.4768925,-9.9239149,1.3527170,-35.0152664,63.2519073,250.1297760
9680,-13.7833490,-11.5352049,1.4532729,-34.3740463,40.7862587,250.1297760
9690,-12.7107515,-13.0387554,1.5993185,-29.2366409,14.3587790,250.1297760
9700,-11.6740675,-15.0355101,1.6855093,-22.5267181,6.3053436,250.1297760
9710,-11.4945040,-17.3794212,1.9201399,-17.6106873,16.0916023,250.1297760
9720,-11.5806942,-19.6131992,1.7190280,-12.6183205,31.0229015,250.1297760
9730,-12.0858688,-19.6131992,1.7357874,-6.8396945,40.9236641,250.1297760
9740,-9.6581602,-19.6131992,0.1747758,0.1297710,40.5343513,250.1297760
9750,3.6487448,-19.6131992,-1.9943599,-6.6870227,71.6641235,250.1297760
9760,19.6126022,-19.6131992,-3.4931223,-43.4732819,212.0686951,250.1297760
9770,19.6126022,-19.6131992,-4.0366035,-135.3358765,250.1297760,250.1297760
9780,19.6126022,-17.3315372,5.2863703,-224.2977142,250.1297760,250.1297760
9790,19.6126022,-11.0755205,19.6126022,-193.4885559,156.9618378,250.1297760
9800,19.6126022,-8.9542685,19.6126022,-36.8396950,-110.0687027,250.1297760
9810,19.6126022,-6.2129216,19.6126022,127.6106873,-250.1374054,247.5267181
9820,19.6126022,-3.8354914,11.7530756,195.8244324,-250.1374054,180.5343475
9830,19.6126022,-1.8267666,3.9791429,180.9389343,-218.8473358,171.6793823
9840,19.6126022,-0.8092360,-0.5339043,129.7251892,-40.9312973,208.3587799
9850,19.6126022,1.5442522,-2.4181314,71.1908417,115.6335907,250.1297760
9860,19.6126022,4.2760224,-1.5250987,21.7099228,187.7938995,250.1297760
9870,19.6126022,5.7412663,1.1085097,-3.7175572,207.8167877,250.1297760
9880,19.6126022,6.8282285,3.0094962,-9.8473282,201.5496216,222.6793823
9890,19.6126022,7.4387465,3.8690102,-6.2519083,182.7328186,179.6335907
9900,19.6126022,7.9870162,3.3662305,-4.5801525,150.0152740,127.7557220
9910,19.6126022,8.3485384,2.9161227,-9.6412210,107.4656525,75.0610657
9920,19.6126022,8.2120695,3.0741394,-17.2748089,74.6106873,30.9160309
9930,19.6126022,7.8385763,3.5434003,-23.4885502,58.1984749,-1.0076336
9940,19.6126022,7.3190370,4.1682839,-27.0076332,48.3893127,-20.3740463
9950,19.6126022,7.2208753,4.8123207,-26.8931293,41.5190849,-31.8015270
9960,19.6126022,6.9263902,5.1355362,-22.9694653,35.8473282,-41.5038185
9970,19.6126022,6.7252784,5.4755111,-21.0076332,27.3587780,-53.0610695
9980,19.6126022,6.9982157,5.9304070,-19.2061062,22.9160309,-70.5190811
9990,19.6126022,6.9934273,6.2991123,-15.7404585,25.1832066,-94.3282471
