timestamp,acclX,acclY,acclZ,gyroX,gyroY,gyroZ
0,4.8817525,1.9321109,8.6956959,-12.2748089,-13.1679392,1.7786260
10,4.2329268,2.3127871,8.1665802,-15.4732828,0.6259542,9.8396950
20,4.8937230,1.5250987,8.2455883,-20.2213745,3.2748091,9.7862597
30,4.4747400,1.9608412,8.4874020,-23.2213745,10.1908398,10.9007635
40,4.1587071,1.9680238,8.6933022,-25.3206100,11.3053436,14.3129768
50,4.3143296,1.7381816,8.7028790,-27.8167934,12.9541988,16.9694653
60,4.3454537,1.7597293,8.8297710,-30.6946564,15.2137403,19.1908398
70,4.2664456,1.7190280,8.9949694,-33.2671738,16.4580154,21.8091602
80,4.4986820,1.4484847,9.1242561,-35.4809151,15.3664122,24.7480907
90,4.8841467,1.2665262,9.3086090,-37.6183205,11.6870232,26.3664131
100,6.3398137,0.9457048,9.8999729,-44.1679382,-7.4961834,25.0381680
110,7.7930865,0.8738791,10.4554253,-48.1374054,-22.0305347,19.2137413
120,8.9303265,0.9935886,11.1832590,-50.4732819,-32.0000000,8.3206110
130,9.8089943,0.9600700,12.0571384,-49.4885483,-37.2366409,-5.3129773
140,10.5152798,0.6296718,12.9956608,-43.8396950,-37.0839691,-19.4122143
150,11.2981796,0.4620786,13.6229382,-34.6106873,-34.3664131,-33.3282433
160,11.7865944,0.3423691,13.9078465,-23.7938938,-28.4351139,-47.2213745
170,12.5120344,0.3567342,13.7330704,-13.3358774,-22.6259537,-60.3969460
180,14.1257181,0.6416427,13.7354650,-4.2290077,-10.0458012,-77.2519073
190,15.3946381,0.8571198,13.5918131,3.8015268,6.4732823,-100.1068726
200,16.5989151,0.8738791,13.2805691,9.5572519,22.0610695,-128.2900696
210,16.8048153,1.0486550,13.1488886,13.1297712,34.3435097,-160.4351196
220,16.2086620,1.0630201,13.1081877,17.8702297,36.6183205,-194.9847260
230,15.0259333,1.2617378,13.4529505,25.7251911,21.7633591,-231.9923706
240,13.1848011,1.5801650,13.6516685,36.4351158,-2.6106870,-250.1374054
250,11.7506819,2.0853391,14.1879663,48.1068687,-32.7175560,-250.1374054
260,11.0563669,2.3032103,14.7027178,59.7633591,-58.1526718,-250.1374054
270,10.2351599,1.8554969,15.5646257,69.9236679,-71.3587799,-250.1374054
280,8.6166878,1.0582317,16.5677910,81.1068726,-73.0687027,-250.1374054
290,7.1083484,0.4285599,17.4440651,96.8549652,-65.1603088,-250.1374054
300,5.5593081,-0.0694315,17.9468441,118.2748108,-48.9618340,-250.1374054
310,4.1084290,-0.3088504,17.5709572,142.9694672,-24.1068707,-250.1374054
320,3.0645626,-0.5027798,16.3930149,166.4961853,-4.1450381,-250.1374054
330,2.0254843,-0.6512195,15.0714226,187.7557220,9.9312973,-250.1374054
340,1.2952565,-0.7278336,13.3356352,206.2748108,18.2519093,-250.1374054
350,1.1061156,-0.6967092,11.5567522,220.0076294,20.9389305,-250.1374054
360,1.3120158,-0.8930327,9.7706871,227.7557220,23.9465656,-250.1374054
370,0.9050036,-0.5769997,7.9654684,228.7938995,30.4809170,-250.1374054
380,0.6823440,-0.4022238,6.4140334,223.5801544,39.9771004,-250.1374054
390,0.2825144,-0.2992737,5.3318601,215.4961853,52.8473282,-250.1374054
400,-0.6871324,0.0335187,4.7596488,208.1679382,65.8549652,-250.1374054
410,-1.8578910,0.0502780,3.9144998,206.1297760,76.2442780,-250.1374054
420,-3.7062054,0.0909792,2.7940190,205.2824402,74.9083939,-250.1374054
430,-5.0349803,0.3232156,1.4676381,200.4580078,62.9389305,-246.4961853
440,-5.8418221,0.8475431,0.2537841,188.7633514,47.9618340,-221.1908417
450,-6.0501165,1.5849534,-0.5626345,170.9084015,36.9236641,-195.4809113
460,-6.0932121,2.2194135,-1.0630201,147.0000000,33.5114517,-168.8778687
470,-5.7915444,2.7054341,-1.5274929,117.6488571,38.6335869,-141.3664093
480,-4.9823084,3.1842721,-1.6519908,83.5419846,51.7786255,-116.5343475
490,-4.2448978,3.3734128,-1.2018831,49.5419846,66.3740463,-96.0152664
500,-3.4619980,3.4308734,0.0790083,21.5954189,81.9694672,-80.5725174
510,-3.1076579,3.2896163,1.7262106,5.7099237,96.7709961,-70.0839691
520,-2.9951310,3.1268115,3.0094962,0.4274809,102.9236679,-62.1526718
530,-2.9783716,2.9496415,4.1299767,4.2595420,100.5877838,-58.5877876
540,-3.1699069,2.5785420,5.2384863,18.4885502,88.2061081,-58.6106873
550,-3.5984666,2.2792683,5.7771792,40.7709923,68.1832047,-59.8320618
560,-4.2233500,1.8435259,5.4874821,66.8015289,44.4885483,-60.5954208
570,-5.0517397,1.6328372,4.4388270,91.8549652,16.9618320,-59.6030540
580,-5.5904322,1.3455344,3.1315999,113.5496216,-13.9007635,-58.2290077
590,-6.2296810,1.3503228,1.6184721,129.4809113,-39.9007645,-55.6641235
600,-7.2735476,1.0845678,0.1149211,138.8702240,-59.8015251,-51.5725174
610,-8.2599535,0.3854645,-1.4796091,140.7557220,-75.2213745,-44.1068687
620,-9.4331064,-0.4812321,-2.9496415,133.9160309,-86.5648880,-32.3358765
630,-10.1322098,-1.8195840,-3.8953462,119.2748108,-95.7404556,-19.5648861
640,-11.0827026,-3.0501974,-3.5362179,99.9312973,-110.1832047,-5.1068702
650,-11.7219515,-4.2137733,-2.6288199,83.2748108,-117.2824402,15.7709923
660,-12.5934362,-5.2720051,-1.3598996,64.0381699,-105.5190811,45.5190849
670,-14.0323448,-6.2272868,-0.0263361,46.1068687,-74.3206100,88.1221390
680,-15.3946381,-7.2017217,1.0678085,31.4961834,-28.8931293,144.6946564
690,-16.7736912,-8.4802189,1.2377959,22.1526718,15.7022905,213.6335907
700,-17.1471844,-10.0651722,0.9193687,19.1908398,41.4198456,250.1297760
710,-16.1751442,-11.4873209,0.2777260,18.4809170,50.4885483,250.1297760
720,-13.6325150,-13.0459385,-0.7134684,15.8320608,57.2671738,250.1297760
730,-10.6637201,-14.8966465,-2.2960277,4.1145039,67.7480927,250.1297760
740,-7.7715387,-17.1328201,-3.7445123,-16.5114498,78.4961853,250.1297760
750,-4.1587071,-19.4647598,-4.4388270,-49.7251892,92.6335907,250.1297760
760,-0.5195391,-19.6131992,-4.7237358,-93.0534363,117.1297684,250.1297760
770,4.0246325,-19.6131992,-4.1850433,-144.6946564,148.3969421,250.1297760
780,8.9015961,-19.6131992,-2.0254843,-195.8702240,164.8854980,250.1297760
790,15.0570574,-19.6131992,0.6512195,-239.7862549,178.5038147,250.1297760
800,19.6126022,-19.6131992,4.1515245,-250.1374054,200.5648804,250.1297760
810,19.6126022,-19.6131992,8.1115141,-250.1374054,205.6412201,250.1297760
820,19.6126022,-19.0218353,13.8312321,-250.1374054,163.2900696,250.1297760
830,19.6126022,-15.1288834,19.6126022,-250.1374054,117.1679382,250.1297760
840,19.6126022,-8.9494801,19.6126022,-226.0915985,136.3740387,250.1297760
850,19.6126022,-4.2377152,19.6126022,-197.8702240,193.2977142,250.1297760
860,19.6126022,-0.8906385,19.6126022,-174.7786255,188.0229034,224.2290039
870,19.6126022,-1.1132981,19.6126022,-142.5725250,118.8778610,135.4351196
880,19.6126022,-1.8531027,19.6126022,-95.1679382,38.6641235,103.9694672
890,19.6126022,0.0143651,19.6126022,-44.6335869,-3.7557251,96.7633591
900,19.6126022,1.8602852,19.6126022,-6.2290077,-3.4580152,94.5038147
910,19.6126022,3.2177906,18.0928898,13.1068707,30.6335869,82.6030502
920,19.6126022,4.3119354,14.4920292,16.3511448,73.6641235,65.2977066
930,19.6126022,4.4795284,10.7738523,8.3282442,104.7786255,47.7404594
940,19.0936604,4.2999644,8.2934723,-5.5572519,118.2671738,30.4122143
950,17.6044750,4.0557570,6.6941538,-23.1374054,118.3358765,14.1145039
960,16.1535969,3.9049230,6.6989422,-37.9847336,110.6335907,-4.6183205
970,14.7984848,3.5098817,7.0772243,-43.6106873,97.0229034,-22.5419846
980,13.6564569,2.8778157,7.3932571,-43.2824440,85.8320618,-39.9694672
990,12.4545736,2.3582766,7.6494355,-38.4351158,72.3358765,-55.8167953
1000,11.4322548,1.9153515,7.2376347,-32.2748108,57.9007645,-69.4198456
1010,10.8097658,1.6088953,6.7348547,-28.5343513,41.2824440,-80.0839691
1020,10.7834291,1.3431402,6.4044566,-28.2748089,27.0305347,-87.3282471
1030,11.3628235,1.0390782,6.2775645,-30.4656487,17.9847336,-95.2748108
1040,11.8847561,0.6799498,6.5026188,-34.4732819,13.5190840,-106.2595444
1050,11.9996777,0.5315101,7.1251078,-39.0458031,12.2290077,-116.5801544
1060,13.4960461,0.7852941,7.6326761,-42.1832047,11.3282442,-131.1297760
1070,15.0211449,0.5865764,8.2982607,-44.2366409,18.2137413,-153.5877838
1080,15.3323889,0.2513899,8.9063845,-44.7938919,29.9083977,-177.6106873
1090,15.6125097,-0.1125269,9.3852224,-43.3206100,36.6030540,-199.7557220
1100,16.3547077,-0.4572902,9.9741936,-39.2748108,42.6106873,-224.5801544
1110,15.9165716,-0.6105183,11.0276365,-28.9083977,34.6488533,-250.1374054
1120,15.9860029,-0.9217629,11.8153248,-12.2442751,16.3435116,-250.1374054
1130,15.8303804,-1.1061156,12.5096397,8.3816795,-2.0000000,-250.1374054
1140,15.1169119,-1.2138541,12.8065195,28.7022896,-22.0381680,-250.1374054
1150,14.0443153,-1.3383518,13.0914278,45.9923668,-44.2671738,-250.1374054
1160,12.7179346,-1.1420283,13.3428183,60.3969460,-60.7862587,-250.1374054
1170,11.4514084,-0.9217629,13.3547888,72.7633591,-67.1755753,-250.1374054
1180,10.6852674,-0.6847382,13.4122496,83.8396912,-62.0839691,-250.1374054
1190,9.1960821,-0.3806761,13.0531206,92.1450348,-52.6106873,-250.1374054
1200,7.4435349,-0.3327923,12.6820211,98.3358765,-42.7938919,-250.1374054
1210,5.5712790,-0.1675933,12.5623121,102.3969498,-36.0076332,-250.1374054
1220,4.0605454,0.1460456,12.7921543,107.4198456,-36.2977104,-250.1374054
1230,3.0358322,0.3567342,12.9429884,116.2061081,-37.2290077,-250.1374054
1240,2.2146254,0.3519458,12.7730007,125.0687027,-32.5801544,-250.1374054
1250,1.6519908,0.4070122,12.1768475,131.4885559,-22.2442741,-250.1374054
1260,1.3431402,0.3974355,11.5878773,136.1832123,-7.0305343,-250.1374054
1270,0.8164186,0.3280039,10.8432837,139.9923706,7.5725193,-250.1374054
1280,-0.1101327,0.1939293,10.1082678,143.1755676,19.8167934,-250.1374054
1290,-0.8571198,0.0502780,9.2631187,146.1679382,30.2442741,-250.1374054
1300,-1.9392935,0.1484398,8.5137377,148.1679382,40.8702278,-250.1374054
1310,-2.9855542,0.4046180,7.9175844,150.6870270,53.7328262,-250.1374054
1320,-4.4507980,0.1939293,7.7356262,158.1908417,61.6793900,-250.1374054
1330,-5.8466105,-0.1101327,7.2567883,170.5496216,60.5877876,-250.1374054
1340,-6.8737178,-0.5147507,6.1482787,185.7022858,52.1068687,-243.0763397
1350,-7.7452030,-0.7398046,4.4077029,197.1221313,40.1832047,-225.3893127
1360,-8.6454182,-0.2801202,2.5115047,199.8091583,29.2595425,-206.7480927
1370,-9.5360565,0.1316804,0.8403605,194.3206177,19.4961834,-187.4274750
1380,-10.2471304,0.3519458,-0.5698171,182.4351196,11.4427481,-165.4732819
1390,-11.0084829,0.9600700,-1.9057748,163.8244324,5.1297708,-139.5038147
1400,-11.1808643,1.3144100,-2.6240315,138.6641235,2.5114503,-111.0610657
1410,-11.0946741,1.5945302,-3.2417326,109.0839691,7.3435116,-83.3053436
1420,-10.7570934,1.4700323,-3.2225790,79.0610657,17.7328243,-56.5038185
1430,-10.7930059,1.4484847,-2.5522060,51.9847336,32.1526718,-29.1679382
1440,-10.4147243,1.2521610,-2.0326669,29.6183205,46.1297722,-2.0687022
1450,-10.5655584,0.7014975,-1.5873476,11.4656487,61.1679382,24.0610695
1460,-11.0898857,-0.1915352,-1.4772149,-5.4198475,74.1603088,51.7175560
1470,-12.2462788,-1.4365137,-1.7309990,-24.3893127,79.6259537,84.0610657
1480,-13.3092995,-3.0358322,-1.8028246,-47.9771004,84.7786255,121.9770966
1490,-14.2789459,-4.8817525,-1.3048333,-71.3129807,85.3511429,167.8320618
1500,-14.3316183,-6.2967181,0.1699875,-86.8244247,79.3435135,218.7022858
1510,-13.3284531,-7.5680327,1.7477583,-91.2366409,72.2519073,250.1297760
1520,-12.1217813,-9.0955257,3.1938488,-84.7709961,71.7099228,250.1297760
1530,-10.1346035,-10.3500814,3.7445123,-70.2595444,74.2748108,250.1297760
1540,-8.3174143,-11.4705620,2.9352763,-53.2366409,73.6030502,250.1297760
1550,-6.1770086,-12.7825775,1.1348459,-43.8854980,66.3206100,250.1297760
1560,-3.8043671,-14.1305065,-0.6368544,-44.0076332,50.8854980,250.1297760
1570,-0.6679789,-15.4688578,-1.8531027,-54.4885483,38.2442741,250.1297760
1580,2.0925217,-17.2309818,-2.4133430,-73.2671738,35.9083977,250.1297760
1590,4.1611013,-18.8183289,-2.4875629,-100.5114517,38.3358765,250.1297760
1600,6.1841912,-19.6131992,-1.4891858,-133.0305328,38.6106873,250.1297760
1610,9.3947992,-19.6131992,-0.1723816,-162.4122162,47.2824440,250.1297760
1620,14.9972029,-19.6131992,1.9368993,-192.1068726,84.3511429,250.1297760
1630,19.1535149,-19.6131992,5.0062504,-216.6412201,138.4732819,250.1297760
1640,19.6126022,-19.3594151,7.9175844,-233.2748108,168.9160309,250.1297760
1650,19.6126022,-17.8798065,11.4442253,-239.6946564,149.9313049,250.1297760
1660,19.6126022,-15.7058830,15.2821112,-221.4885559,92.3816757,250.1297760
1670,19.6126022,-12.2367020,19.3306866,-172.0686951,43.7862587,250.1297760
1680,19.6126022,-7.8649125,19.6126022,-103.5419846,-8.6717558,250.1297760
1690,19.6126022,-4.4938936,19.6126022,-40.7328262,-47.3969460,250.1297760
1700,19.6126022,-1.8818330,16.4600525,-0.0687023,-56.5190849,186.8091583
1710,19.6126022,0.3902529,12.8065195,10.2213745,-47.9236641,137.1145020
1720,19.6126022,2.3582766,10.5775290,3.9694657,-18.1908398,104.3282471
1730,19.6126022,3.1818779,9.6844959,-11.6793890,31.9160309,83.8015289
1740,19.6126022,3.9935081,8.4778252,-31.4122143,90.0229034,67.8320618
1750,19.6126022,3.4572096,9.8425131,-34.1145020,131.8778687,47.3282433
1760,19.6126022,3.4284792,9.8712435,-17.7938938,144.6488495,24.4961834
1770,19.6126022,3.7085996,9.2319946,-20.9312973,129.9923706,2.1908398
1780,19.6126022,3.2656744,7.4267755,-39.9923668,125.3358765,-23.3969460
1790,19.6126022,2.3798244,8.0899658,-50.5114517,119.5267181,-50.9541969
1800,18.3011837,1.5801650,8.2527714,-49.1984749,106.7633591,-76.7938919
1810,16.1942978,0.6607963,8.2599535,-44.1679382,85.9542007,-95.8091583
1820,14.7817259,-0.1197095,8.9446917,-31.3664131,63.6030540,-109.6183243
1830,13.5989962,-0.0718257,8.4993725,-21.4045811,44.5877876,-122.4045792
1840,12.7753954,-0.3854645,7.9104018,-18.9236641,34.8473282,-133.3664093
1850,12.0571384,-0.5985473,7.5584559,-22.7633591,36.7022896,-139.3435059
1860,11.4202833,-0.8212070,7.5393028,-28.3053436,45.7709923,-140.2595367
1870,11.3005743,-1.3263810,7.6733770,-33.2442741,56.8778610,-139.4656525
1880,11.2814207,-1.4963684,8.1641865,-36.2061081,64.9618301,-138.9541931
1890,11.5136566,-1.3191984,9.0189114,-35.8549614,66.4045792,-141.7862549
1900,12.7275114,-1.0199248,9.6030941,-30.6335869,65.7022934,-152.3053436
1910,12.9812956,-0.8427547,10.1609402,-22.7404575,65.6106873,-168.5114441
1920,12.4282379,-0.9289455,10.5033092,-14.3816795,58.6030540,-186.2595367
1930,11.7913828,-0.9983770,10.7858238,-4.4885497,44.8549614,-203.1068726
1940,11.2670555,-0.9504932,11.2072010,6.2824426,29.2213745,-218.5419922
1950,11.0443964,-1.0223188,11.2263546,18.6412220,13.6564884,-232.9847260
1960,11.1928358,-1.0127422,11.3484583,30.7709923,-0.5419847,-248.9618378
1970,10.9869356,-0.7230452,11.5998478,40.5801544,-16.7099228,-250.1374054
1980,10.9031391,-0.6488253,11.9757357,49.0305328,-30.9236641,-250.1374054
1990,10.6613255,-0.4884146,12.4449968,57.3664131,-42.8015251,-250.1374054
2000,10.3620520,-0.2896969,13.0076313,65.9923630,-48.3664131,-250.1374054
2010,10.3716288,-0.7398046,13.4649220,81.9389343,-51.0610695,-250.1374054
2020,9.1601686,-0.5051740,13.2326851,90.9847336,-54.7251892,-250.1374054
2030,8.8201942,-0.5722113,13.1824074,100.1297684,-49.9389305,-250.1374054
2040,7.8649125,-0.4836263,13.4457684,110.4122162,-39.1832047,-250.1374054
2050,6.7085190,-0.7805058,13.7761660,126.5190811,-30.8396950,-250.1374054
2060,5.1714492,-0.8164186,12.9094696,143.6183167,-22.0534344,-250.1374054
2070,3.5912843,-0.6871324,11.9996777,158.1755676,-12.4122133,-250.1374054
2080,2.6886747,-0.4788379,10.7403336,170.7099304,-4.8549619,-250.1374054
2090,1.8890154,-0.1101327,9.6174593,181.5572510,-0.2977099,-250.1374054
2100,1.2114599,0.1508339,8.2910776,189.3587799,0.6641222,-250.1374054
2110,0.6631905,0.6416427,6.9982157,192.0686951,2.4732823,-250.1374054
2120,0.3256098,1.1132981,5.4563580,188.6564941,9.2519083,-250.1374054
2130,0.0359128,1.4556671,4.0725164,180.4732819,21.6030540,-250.1374054
2140,-0.5051740,1.8291607,3.1866663,170.2671814,35.2977104,-250.1374054
2150,-1.1276633,1.8602852,2.6000898,160.9465637,47.4045792,-250.1374054
2160,-2.0566087,1.8387375,1.9105632,152.0305328,57.5496178,-250.1374054
2170,-2.8275378,1.9656296,0.9026094,141.3053436,69.1526718,-250.1374054
2180,-3.6918402,2.1619530,0.3567342,127.6183243,78.1374054,-250.1374054
2190,-4.6495161,2.4037662,0.1651991,115.6793900,82.3740463,-250.1374054
2200,-5.4755111,2.3582766,0.2561783,106.4122162,81.6870193,-250.1374054
2210,-6.2201042,2.4468615,0.3567342,101.1908417,76.7251892,-242.2595367
2220,-7.2208753,2.4612267,-0.0981618,100.9007645,71.7938919,-232.8702240
2230,-8.5735922,2.3965836,-0.7900825,101.0763321,61.7099228,-222.5114441
2240,-9.8257532,2.2218077,-1.2425843,101.0381699,42.8625946,-209.8244324
2250,-10.9677820,1.9728121,-1.9656296,100.8091583,18.0000000,-193.7557220
2260,-11.7889891,1.8507085,-2.7485294,99.4427490,-6.0916033,-174.0610657
2270,-12.3037395,1.9488702,-3.5146701,89.1984711,-23.5648861,-152.2595367
2280,-13.1129761,2.0685797,-4.0533628,73.9465637,-30.1374054,-128.5648804
2290,-14.1352949,2.0637913,-4.2640514,54.6488533,-32.3969460,-102.2824402
2300,-14.8224268,1.7190280,-3.9935081,35.5801544,-35.5343513,-72.5648880
2310,-15.2701406,1.2354017,-3.3303175,19.0229015,-36.6564903,-37.9541969
2320,-15.3874559,0.6272776,-2.6360025,4.6412215,-30.3816795,-0.5496183
2330,-15.2533808,-0.0694315,-2.0973101,-7.3053436,-20.2824421,38.4122124
2340,-14.9852314,-0.6991033,-1.4149660,-16.9770985,-9.1984730,75.5343475
2350,-14.6261034,-1.4436963,-0.8020535,-24.8396950,1.1679389,112.5801544
2360,-14.0419216,-2.3079987,-0.6847382,-31.5343513,6.8167939,150.0915985
2370,-13.1225519,-3.3949606,-0.5985473,-39.2977104,7.6946564,186.9160309
2380,-12.1696653,-4.3406653,-0.6081241,-49.9923668,7.0687022,222.3129730
2390,-11.0803089,-5.7987270,-0.1771700,-61.4961815,2.2290077,250.1297760
2400,-9.7347746,-6.9910331,0.6488253,-70.0229034,-3.1603053,250.1297760
2410,-8.2743187,-8.4131813,1.7022687,-73.1450348,-2.9618320,250.1297760
2420,-7.6590118,-10.0627785,2.5569944,-71.1145020,5.8167939,250.1297760
2430,-7.3238254,-11.9972830,2.7772598,-68.1679382,20.7404575,250.1297760
2440,-6.4403696,-14.5039997,3.0549858,-66.4427490,36.2748108,250.1297760
2450,-5.5521255,-17.4488525,3.3015873,-64.6488571,53.1297722,250.1297760
2460,-4.7093706,-19.6131992,3.0741394,-66.1374054,72.4503784,250.1297760
2470,-3.4763632,-19.6131992,3.2130022,-75.0457993,91.1297684,250.1297760
2480,0.4070122,-19.6131992,3.3111639,-92.2061081,118.7557220,250.1297760
2490,5.8346395,-19.6131992,3.0645626,-118.3664093,164.9465637,250.1297760
2500,12.9358053,-19.6131992,1.9752063,-162.0839691,207.5267181,250.1297760
2510,19.6126022,-19.6131992,3.1387823,-217.1221313,198.0992432,250.1297760
2520,19.6126022,-19.6131992,7.4387465,-249.8702240,132.0000000,250.1297760
2530,19.6126022,-19.6131992,14.4848461,-238.6030579,42.9083977,250.1297760
2540,19.6126022,-16.2924595,19.6126022,-180.5267181,-32.4961815,250.1297760
2550,19.6126022,-11.1952295,19.6126022,-99.2519073,-62.3511467,250.1297760
2560,19.6126022,-7.4315639,19.6126022,-29.0763359,-56.9618340,250.1297760
2570,19.6126022,-4.5034704,16.6539822,13.5496187,-46.4503822,250.1297760
2580,19.6126022,-1.9991482,12.5575237,32.4580154,-46.3206100,250.1297760
2590,19.6126022,-0.2346306,9.2367830,26.4351139,-26.5496178,250.1297760
2600,19.6126022,1.8435259,6.3972740,7.5572519,19.0839691,250.1297760
2610,19.6126022,3.2728570,4.9942794,-19.6335869,79.8625946,238.8167877
2620,19.6126022,4.2520804,4.2999644,-54.2137413,140.4351196,211.7480927
2630,19.6126022,4.6997938,4.3646073,-93.9618301,183.0763397,177.5343475
2640,19.6126022,3.9360476,6.7923155,-115.0305328,194.2595367,137.1297760
2650,19.6126022,3.4165084,8.8297710,-114.6641235,167.2595367,90.8778610
2660,19.6126022,3.3925664,11.3245163,-93.9236679,118.4045792,46.3358765
2670,19.4958839,4.8697815,12.9429884,-64.5343475,61.2366409,13.0839691
2680,19.6126022,3.6224086,13.3907013,-45.3893127,23.7099228,-24.4656487
2690,19.4432125,2.0590029,13.5870247,-27.5419846,10.0839691,-60.9541969
2700,17.2285881,1.8028246,13.2877512,-6.6641221,-0.8625954,-78.3282471
2710,16.4696293,1.6639616,12.1983957,11.7862597,-0.2442748,-83.7251892
2720,16.1248665,1.7309990,10.8983507,21.7786255,12.1832066,-87.6335907
2730,14.6691990,1.9991482,9.3995876,26.7251911,29.5190830,-90.4427490
2740,12.9453821,2.7413468,7.6925306,27.1221371,41.7557259,-86.9312973
2750,12.7203283,3.1627243,6.1195483,19.4503822,51.0305328,-80.4274826
2760,13.6780043,3.2489152,5.0349803,1.8320611,65.0763321,-79.5190811
2770,14.3914728,2.8873925,5.1666608,-20.8396950,80.4961853,-88.1145020
2780,15.1073351,1.7262106,6.3254485,-39.6717567,91.6717529,-103.2290039
2790,15.7274303,0.3184272,8.1881275,-47.6488533,98.2290039,-121.3587799
2800,16.2302094,-0.4261657,9.5432396,-46.6717567,97.6030502,-141.5114441
2810,16.3211899,-1.0247130,11.1042509,-36.8625946,97.8473282,-164.6183167
2820,15.6484222,-1.6424140,12.2774038,-13.9618320,95.1603088,-190.4961853
2830,14.5183649,-1.9512644,12.2558556,9.8702288,73.0763321,-213.4503784
2840,14.0562859,-2.2265961,12.3444405,37.4656487,45.4122124,-231.6793823
2850,14.0179796,-2.1882892,11.9398232,61.3664131,25.9770985,-250.1374054
2860,13.5104113,-2.0206959,11.0204544,78.8320618,11.0152674,-250.1374054
2870,13.9485474,-1.7405758,10.2591019,87.8549652,-0.4885496,-250.1374054
2880,13.9150295,-1.3503228,10.1489687,93.2137375,-8.0534353,-250.1374054
2890,13.5750542,-0.7110743,10.9534168,101.1832047,-19.3816795,-250.1374054
2900,13.5870247,-0.0311245,11.0396080,105.0687027,-35.3206100,-250.1374054
2910,13.8144732,0.4261657,11.3532467,110.2442780,-48.0228996,-250.1374054
2920,14.0491037,0.5626345,11.9063044,115.8320618,-54.9618340,-250.1374054
2930,13.2638092,0.3256098,11.9709473,124.4580154,-53.6183205,-250.1374054
2940,11.9326401,0.1364688,11.5232334,133.6106873,-55.8778610,-250.1374054
2950,10.8145542,-0.6224893,11.0707321,144.7480927,-57.5114517,-250.1374054
2960,9.4690189,-1.2641320,10.1800938,157.7099304,-61.8625946,-250.1374054
2970,8.0468712,-1.6879035,9.1888990,166.6183167,-69.3053436,-250.1374054
2980,6.5313487,-2.0302727,8.0947542,169.7862549,-77.9389343,-250.1374054
2990,5.3294659,-1.8459201,7.2639709,168.8244324,-81.4503784,-250.1374054
3000,4.0940638,-1.8770446,7.1227136,167.4122162,-77.9465637,-250.1374054
3010,2.5115047,-2.2768741,7.0604649,168.1603088,-63.6717567,-250.1374054
3020,1.0127422,-2.8131726,6.6103573,170.7480927,-42.4198456,-250.1374054
3030,0.5793939,-2.4324965,5.3534074,172.0458069,-33.5801544,-250.1374054
3040,0.4189832,-1.9440818,4.0198441,168.2977142,-36.6259537,-250.1374054
3050,-0.7517755,-1.8531027,3.2201848,161.0763397,-47.1908379,-250.1374054
3060,-2.0374553,-2.5234756,3.1651185,152.6717529,-56.8549614,-250.1374054
3070,-3.5721307,-2.5593886,3.4931223,147.6793823,-58.9541969,-250.1374054
3080,-4.8027439,-2.7652888,3.3303175,143.9847260,-62.7557259,-250.1374054
3090,-5.8897061,-3.3351059,3.2393384,139.4885559,-68.2595444,-250.1374054
3100,-6.8832946,-3.8211265,3.5936785,136.9694672,-73.6183243,-250.1374054
3110,-8.2048874,-4.5250182,3.7301471,135.8702240,-77.8396912,-250.1374054
3120,-9.7036495,-5.2528515,3.5817075,135.6259613,-82.1221390,-250.1374054
3130,-11.0348196,-5.6933827,3.2010312,132.2671814,-84.6030502,-250.1374054
3140,-12.2007895,-6.0692701,2.6719155,123.3435135,-80.4274826,-250.1374054
3150,-13.4242201,-6.1937680,2.5402350,108.5648880,-67.4274826,-248.3664093
3160,-15.0905762,-6.5385313,4.0533628,94.8549652,-32.9847336,-212.0076294
3170,-18.2437229,-6.5050125,2.7293761,85.1679382,-5.4427481,-164.4961853
3180,-19.6131992,-6.8641410,1.1683644,68.6488571,0.9083970,-105.0305328
3190,-19.6131992,-7.2927012,0.9840119,51.4732819,9.4656487,-38.5496178
3200,-19.6131992,-7.8050575,-0.4572902,30.5648861,23.3206100,31.5267181
3210,-19.6131992,-8.6717539,-1.5322813,1.3969465,41.5496178,107.9160309
3220,-19.6131992,-9.3780403,-2.1882892,-34.7938919,70.2366409,185.6717529
3230,-19.6131992,-11.0611553,-1.7190280,-72.6564865,110.0992355,250.1297760
3240,-18.5932751,-12.2965574,-0.6823440,-103.3740463,153.0686951,250.1297760
3250,-17.2525291,-14.0443153,0.0766141,-126.8473282,184.1450348,250.1297760
3260,-15.5813847,-16.1607780,0.2370248,-146.1526642,198.8778687,250.1297760
3270,-13.4146433,-18.9476147,0.2466015,-164.1450348,202.6870270,250.1297760
3280,-12.4426022,-19.6131992,0.7781116,-179.9007568,200.6106873,250.1297760
3290,-11.2694502,-19.6131992,0.8451489,-194.1755676,185.0305328,250.1297760
3300,-9.1266499,-19.6131992,0.9265513,-211.5038147,161.0152740,250.1297760
3310,-6.1937680,-19.6131992,2.1667414,-231.3129730,133.4274750,250.1297760
3320,-1.7381816,-19.6131992,4.3239059,-247.3053436,104.3358765,250.1297760
3330,8.8465300,-19.6131992,7.6997132,-250.1374054,87.0916061,250.1297760
3340,19.6126022,-19.6131992,12.0499554,-250.1374054,139.2290039,250.1297760
3350,19.6126022,-19.6131992,16.5366669,-250.1374054,250.1297760,250.1297760
3360,19.6126022,-18.2413292,19.6126022,-250.1374054,250.1297760,250.1297760
3370,19.6126022,-8.8321648,19.6126022,-250.1374054,250.1297760,250.1297760
3380,19.6126022,-5.3270717,19.6126022,-250.1374054,250.1297760,250.1297760
3390,19.6126022,-3.8330972,19.6126022,-122.6183243,204.3969421,218.4580078
3400,19.6126022,-1.2066715,19.6126022,-10.3206110,-44.0916023,139.2442780
3410,19.6126022,0.7206510,19.6126022,51.1679382,-203.0763397,112.1603088
3420,19.6126022,3.2489152,17.9803619,58.7862587,-220.2137451,114.4427490
3430,19.6126022,5.2791877,14.5806141,29.5190830,-129.0763397,124.5725174
3440,19.6126022,5.7436604,12.7969427,-6.2900763,7.6183205,127.1755753
3450,19.6126022,5.9304070,12.2414904,-30.4122143,114.8396912,123.3587799
3460,17.0442352,5.6263452,12.1888189,-34.0916023,142.8396912,115.0610657
3470,14.9373484,5.0637107,11.5663290,-19.8167934,116.1068726,103.8244247
3480,13.0674858,4.6806402,10.3644457,-1.6564885,64.9007645,90.8778610
3490,13.3021164,4.4053087,8.9183559,15.1603050,22.7633591,75.4961853
3500,13.4433737,4.6064205,7.2472115,22.8549614,-12.9389315,56.4427490
3510,13.9126348,4.9583664,5.2839761,17.1832066,-33.4580154,33.5114517
3520,13.5319586,5.0996237,4.1922259,0.5572519,-32.6946564,10.2061071
3530,12.5623121,4.6878228,4.0509686,-21.3740463,-18.5038166,-8.5954199
3540,11.0874910,3.9623835,4.3047528,-42.9160309,-0.9465649,-19.9847336
3550,9.5647869,3.1315999,5.2959471,-60.5419846,13.8854961,-23.5038166
3560,8.4419117,2.4899571,6.5935979,-69.8549652,22.9465656,-19.7022896
3570,7.9439206,2.0925217,7.6278877,-70.8778610,26.2519093,-12.7786255
3580,8.0420828,1.8650736,8.2216463,-67.9312973,26.6488552,-5.5038166
3590,10.7283630,2.1260402,9.0548248,-71.0687027,51.6106873,-1.6259542
3600,10.8073711,1.9608412,9.4139528,-72.4961853,67.2290039,-10.2061071
3610,10.4721851,1.5538290,9.9167328,-68.5114517,73.8396912,-17.3969460
3620,10.3931761,1.1683644,10.3309278,-62.5954208,71.2900772,-23.8320618
3630,10.3213511,0.8499373,10.7092094,-55.4656487,66.5877838,-28.6870232
3640,10.5368280,0.6895266,11.1928358,-48.4809151,60.8167953,-33.3740463
3650,11.0180597,0.6153067,11.8751793,-40.7480927,54.1526718,-38.9847336
3660,12.0643206,0.4477134,12.6078014,-31.0152664,46.4580154,-49.3053436
3670,13.2709923,0.5410868,13.2590208,-20.3053436,41.5496178,-64.1068726
3680,13.9413652,0.6871324,13.7618008,-7.5267177,36.4427490,-83.6870193
3690,14.3675308,0.8307837,14.3531656,5.0229006,29.1755733,-104.8015289
3700,15.4137917,0.9337339,15.4066095,20.4198475,26.3816795,-127.1603088
3710,16.0985298,1.0271072,16.1607780,39.0381660,24.4351139,-153.9770966
3720,16.0267048,1.0845678,16.6994705,61.1221390,17.9694653,-185.8320618
3730,15.3132353,1.2210367,17.1376076,86.3740463,0.9312977,-218.7251892
3740,14.9588957,1.0486550,17.1423969,114.4045792,-19.6259537,-250.1374054
3750,14.4848461,0.7589580,16.8263626,144.4656525,-41.9618340,-250.1374054
3760,13.6803989,0.4908088,15.1959200,170.6793823,-66.0610657,-250.1374054
3770,12.6652622,0.0837966,13.7929258,191.1755676,-88.5725174,-250.1374054
3780,11.6884327,-0.4501076,12.2941628,205.6030579,-105.2595444,-250.1374054
3790,10.7834291,-0.9385223,11.1210098,214.4580078,-116.7404556,-250.1374054
3800,9.3852224,-1.4341195,10.0077124,218.9389343,-124.5114517,-250.1374054
3810,7.7978749,-1.8459201,8.7244263,217.3511505,-129.4580078,-250.1374054
3820,6.2751703,-2.0135133,7.2184811,207.5877838,-131.3053436,-250.1374054
3830,5.1882086,-2.5282640,6.6414814,196.8244324,-130.6488495,-250.1374054
3840,3.9743545,-2.8945751,6.6079631,190.8167877,-129.7633514,-250.1374054
3850,2.5498118,-3.3375001,6.3565731,184.6488495,-127.9465637,-250.1374054
3860,0.9361281,-3.7445123,6.3829093,182.0839691,-121.8702316,-250.1374054
3870,-0.7206510,-3.7301471,5.7771792,178.5267181,-113.9160309,-250.1374054
3880,-2.0278785,-3.6918402,5.3342543,173.3587799,-103.2824402,-250.1374054
3890,-3.0358322,-3.4883339,4.6997938,167.9389343,-92.1068726,-250.1374054
3900,-3.6631098,-3.5122759,4.1850433,162.2977142,-83.3206100,-250.1374054
3910,-4.6662750,-3.7971845,4.0270267,158.3740387,-73.7480927,-250.1374054
3920,-6.6773944,-4.4077029,4.1778607,159.8091583,-68.0229034,-250.1374054
3930,-9.1793222,-4.9392128,4.2544746,166.1221313,-75.0381699,-250.1374054
3940,-11.8775740,-5.2600341,4.1227942,175.1068726,-95.1221390,-250.1374054
3950,-14.5806141,-5.3486195,3.9647777,183.7557220,-129.4274750,-250.1374054
3960,-16.8910065,-5.3151007,3.8690102,192.0000000,-168.9160309,-250.1374054
3970,-18.7345333,-5.0397687,4.2089849,198.3358765,-209.3435059,-227.5954132
3980,-19.6131992,-4.3741841,4.2951760,201.9313049,-232.0305328,-172.7099304
3990,-19.3594151,-3.5410061,4.0820932,198.6335907,-229.4961853,-117.1908417
4000,-18.6100349,-2.9664006,2.9568241,182.5572510,-195.7328186,-61.7633591
4010,-17.7840385,-2.9209111,1.4029950,151.1221313,-133.3664093,-5.9770994
4020,-17.2237988,-3.0454090,0.1292862,106.6564865,-54.9236641,53.7938919
4030,-17.3602676,-3.6032550,-1.1324517,53.9541969,20.0839691,117.5190811
4040,-17.7672806,-4.7883787,-2.0494261,-5.3893127,86.9160309,188.6641235
4050,-18.7034073,-6.9455438,-1.9081690,-66.1679382,138.3511505,250.1297760
4060,-18.7273502,-9.3517036,0.0598547,-119.7328262,169.7862549,250.1297760
4070,-17.3219604,-12.4306316,3.0501974,-154.9236603,190.5419922,250.1297760
4080,-15.5430775,-15.5191364,5.7005649,-172.9236603,218.5801544,250.1297760
4090,-14.1855726,-18.4089222,7.6111283,-177.4122162,247.9770966,250.1297760
4100,-11.9948893,-19.6131992,8.9853926,-173.2137451,250.1297760,250.1297760
4110,-9.6126709,-19.6131992,9.4618368,-158.8549652,250.1297760,250.1297760
4120,-5.3294659,-19.6131992,9.4139528,-138.1908417,231.7022858,250.1297760
4130,3.7421181,-19.6131992,8.8465300,-113.6106873,200.0915985,250.1297760
4140,18.8494530,-19.6131992,7.8864598,-93.1679382,208.6641235,250.1297760
4150,19.6126022,-19.6131992,5.5257893,-110.7404556,250.1297760,250.1297760
4160,19.6126022,-19.6131992,6.0620875,-188.0152740,250.1297760,250.1297760
4170,19.6126022,-11.0898857,15.3132353,-243.2442780,250.1297760,250.1297760
4180,19.6126022,-6.9623032,19.6126022,-194.4885559,250.1297760,250.1297760
4190,19.6126022,-4.6447277,19.6126022,-72.3816757,56.0305328,200.9313049
4200,19.6126022,-4.6662750,19.6126022,55.6793900,-193.1908417,94.5190811
4210,19.6126022,-2.8562679,16.2541523,127.6564865,-250.1374054,66.3282471
4220,19.6126022,0.3375807,11.3436699,146.2900696,-250.1374054,85.4580154
4230,19.6126022,2.9568241,6.6965480,124.7022934,-198.3435059,120.8167953
4240,19.6126022,4.2736282,3.2273674,74.5877838,-7.2595420,154.3053436
4250,18.4735661,4.8218975,1.5681942,17.5496178,156.1755676,183.2519073
4260,18.5884876,5.1044121,1.9799947,-25.7328243,239.3129730,198.0000000
4270,19.6126022,5.7029591,2.5929072,-52.7862587,250.1297760,188.8931274
4280,19.6126022,6.3996682,3.6032550,-67.0076370,247.3816833,155.5419922
4290,19.6126022,6.5002246,4.9655490,-70.6717529,207.8854980,107.3969498
4300,19.6126022,6.1817970,6.4475522,-62.3129768,154.8549652,58.0687027
4310,17.1376076,5.6454988,6.7947097,-48.8091621,99.6335907,18.0839691
4320,14.6452570,4.8410511,6.5552907,-39.2213745,54.2137413,-8.3664122
4330,12.7466650,4.1802549,6.3972740,-33.9847336,20.8854961,-24.0381680
4340,11.2886028,3.8330972,6.4307928,-32.6488533,3.2977099,-29.9007626
4350,10.3716288,3.3375001,6.7228842,-32.5877876,-1.2366412,-28.5725193
4360,9.6964674,3.0501974,7.1251078,-34.1297722,4.7251906,-21.3816795
4370,9.5863342,2.9233053,7.5177550,-35.0152664,18.7251911,-11.4198475
4380,9.6246414,2.7772598,7.9223728,-33.0610695,33.8244286,-1.9694656
4390,10.8241301,2.9424589,8.4012108,-22.1679382,56.3053436,12.0916033
4400,11.8153248,3.3829896,8.1426382,-17.4885502,61.2671738,11.0687027
4410,12.7490587,3.7923961,7.8744893,-15.0076332,62.1908379,4.0000000
4420,13.5870247,3.9743545,7.6374645,-15.5801525,60.6106873,-7.8931298
4430,14.2454271,4.2305326,7.6638002,-17.7099228,53.0305328,-24.8931293
4440,14.6332855,4.3622131,8.1019373,-19.3969460,33.0763359,-46.5190849
4450,14.8248215,4.3813667,9.0236998,-17.3969460,4.3893127,-72.3664093
4460,14.9253769,4.1563129,9.6844959,-11.9312973,-24.4732819,-98.8931274
4470,14.7577839,3.7397239,10.3692341,-5.1374044,-46.5801544,-123.2061081
4480,14.5399122,3.5003049,11.1042509,1.6946565,-60.1145020,-142.9847260
4490,14.4944229,3.3518653,11.6788559,9.4351149,-65.0610657,-159.2213745
4500,14.9014349,3.2608860,11.9661589,17.8473282,-59.7480927,-174.0992432
4510,15.1001530,3.2321558,11.7913828,24.6717548,-47.6717567,-189.4885559
4520,15.1911325,3.2489152,11.7674408,28.7480907,-35.9618340,-207.0763397
4530,14.9900198,3.2417326,11.8608141,33.6488533,-25.3282452,-226.2442780
4540,15.0570574,2.9616125,11.9134865,41.4885483,-18.2671757,-247.3664093
4550,15.0570574,2.6695213,11.6836443,49.2366409,-16.5648861,-250.1374054
4560,14.3842907,2.1619530,11.7530756,57.6412201,-19.8244267,-250.1374054
4570,13.3069048,1.3287752,11.9446115,69.0305328,-32.0992355,-250.1374054
4580,12.0930510,0.6177009,12.3755655,83.8931274,-50.3969460,-250.1374054
4590,10.7139978,0.0383070,12.5263996,103.2442780,-67.4198456,-250.1374054
4600,9.3373384,-0.3687052,11.9757357,122.9160309,-77.9770966,-250.1374054
4610,8.5999289,-0.5434810,11.0060892,140.9618378,-80.6488571,-250.1374054
4620,7.5632443,-0.7206510,9.5145092,152.7709961,-71.8854980,-250.1374054
4630,6.0118098,-0.9409165,7.9630742,157.2671814,-60.0916023,-250.1374054
4640,4.4053087,-0.9026094,6.6773944,155.9160309,-51.3129768,-250.1374054
4650,2.7174051,-0.8643024,5.4898763,150.8625946,-43.3816795,-250.1374054
4660,1.5059452,-0.6440369,4.6638808,142.4656525,-35.8931313,-250.1374054
4670,0.3423691,-0.4884146,4.1204000,132.1450348,-27.4961834,-250.1374054
4680,-0.5219333,-0.2274480,3.9216824,122.3206100,-16.4580154,-250.1374054
4690,-1.2401901,-0.0335187,4.2592630,116.6946564,-2.9770992,-250.1374054
4700,-1.3622938,-0.2154770,5.0086441,119.5496216,5.3816795,-250.1374054
4710,-1.6735384,-0.6847382,5.1977854,129.7938995,11.1679392,-250.1374054
4720,-2.8371146,-1.3622938,4.4843168,139.8778687,19.1984730,-250.1374054
4730,-4.0868812,-1.9321109,3.6032550,146.7022858,25.3740463,-250.1374054
4740,-5.2863703,-2.5138988,2.4803803,150.9541931,31.0458012,-250.1374054
4750,-6.5289545,-2.8849983,1.2545552,152.3816833,36.1374054,-250.1374054
4760,-7.6805596,-3.2537034,0.0215477,148.7633514,36.4427490,-250.1374054
4770,-9.0141230,-3.4548154,-0.9026094,140.9770966,33.5419846,-250.1374054
4780,-10.4889441,-3.4859397,-1.3598996,132.1908417,29.4732819,-250.1374054
4790,-11.8919392,-3.1986370,-1.8531027,121.9465637,25.2442741,-250.1374054
4800,-14.0419216,-3.7804251,-2.2864509,108.6793900,20.9389305,-226.8167877
4810,-15.9883976,-3.1028695,-2.9759774,95.0916061,12.3816795,-179.6717529
4820,-17.0849361,-2.7628946,-3.8139439,74.4503784,2.0458016,-127.9236679
4830,-18.2389355,-2.8059900,-4.8386569,49.5038185,-9.1984730,-68.8015289
4840,-18.5884876,-3.1866663,-5.7867560,15.5954199,-16.9694653,-2.9389312
4850,-17.8414993,-3.8857694,-5.9902620,-23.8549614,-18.2900772,65.4885483
4860,-16.8096046,-4.9224534,-5.8849177,-66.5496216,-7.7404580,133.5038147
4870,-16.4001980,-6.3948798,-5.5617023,-108.7099228,0.2061069,202.5267181
4880,-15.3826675,-7.7954807,-4.6806402,-147.1908417,4.2595420,250.1297760
4890,-14.3340120,-9.6006994,-3.5553713,-180.4198456,11.6259546,250.1297760
4900,-13.0914278,-11.3460636,-1.9728121,-206.6641235,21.6412220,250.1297760
4910,-12.1122046,-13.6133614,-0.6991033,-225.2595367,30.3282452,250.1297760
4920,-11.5783005,-15.8806591,0.4261657,-240.1374054,37.0228996,250.1297760
4930,-10.3213511,-19.0673256,1.4029950,-250.1374054,38.8931313,250.1297760
4940,-7.6350703,-19.6131992,2.4564383,-250.1374054,40.4351158,250.1297760
4950,-4.4436154,-19.6131992,4.1156116,-250.1374054,44.6946564,250.1297760
4960,0.3280039,-19.6131992,6.2847471,-250.1374054,39.3587799,250.1297760
4970,10.2830439,-19.6131992,9.2703018,-250.1374054,18.3969460,250.1297760
4980,19.6126022,-19.6131992,13.6301203,-250.1374054,43.0992355,250.1297760
4990,19.6126022,-19.6131992,17.2285881,-233.6183167,146.1755676,250.1297760
5000,19.6126022,-11.9517937,19.6126022,-224.4580078,250.1297760,250.1297760
5010,19.6126022,-3.0717452,19.6126022,-221.5496216,250.1297760,250.1297760
5020,19.6126022,-0.6967092,19.6126022,-188.4351196,250.1297760,250.1297760
5030,19.6126022,-1.2952565,19.6126022,-111.6870193,140.9847260,148.9847260
5040,19.6126022,-0.8236012,19.6126022,-31.5877857,-27.1603050,80.4961853
5050,18.2221756,0.4118006,19.3833580,29.3816795,-177.0992432,57.7404594
5060,17.2094345,2.3965836,16.9293137,77.6793900,-243.4961853,62.8091621
5070,18.0090923,4.6997938,12.2367020,82.6335907,-210.8320618,72.5801544
5080,18.4783535,5.7101417,8.5735922,49.7328262,-100.8931274,83.9923630
5090,15.1193066,5.3749552,7.0868006,-30.5954189,116.2977066,103.0992355
5100,13.6564569,5.0804701,7.4291697,-54.4732819,159.0152740,108.7786255
5110,13.4888630,4.5848727,8.1139078,-66.7557220,162.2977142,105.3435135
5120,13.8599625,4.3526363,9.1984758,-66.0992355,135.3206177,93.0381699
5130,14.6165266,4.7548604,10.1106625,-56.0381660,90.8473282,67.5267181
5140,15.1839495,4.7524662,10.5966825,-41.3358765,42.4274826,35.4656487
5150,15.1097298,4.6351509,10.5823174,-26.0839691,6.2213740,4.4427481
5160,14.5016060,4.5776901,10.2447367,-15.9923668,-17.1908398,-18.9160309
5170,13.8839045,4.3047528,9.8927908,-9.6488552,-26.3053436,-32.6183205
5180,13.6061783,4.1275826,9.5408449,-7.4351144,-26.0992374,-40.1145020
5190,13.6851873,4.2472920,9.4738073,-6.2671757,-16.6183205,-44.8931313
5200,14.0634689,4.4436154,9.1984758,-5.1068702,-1.5954199,-51.1603050
5210,14.2143030,4.4771342,8.5664101,-5.9160304,14.5877867,-59.9160309
5220,14.0586805,4.4436154,8.1546097,-8.7862597,28.4885502,-70.6335907
5230,13.7641954,4.3598189,7.9870162,-11.7175570,35.5038185,-81.0381699
5240,14.3196468,4.4005203,7.8792777,-13.0458012,34.7557259,-93.8473282
5250,15.4592810,4.3143296,7.7188668,-14.9007635,26.7786255,-113.7938919
5260,16.2541523,4.2879934,7.7715387,-19.0305347,12.4122133,-141.1145020
5270,16.6515884,4.1754665,8.4850073,-22.4503822,-7.4274807,-173.3740387
5280,16.7018661,3.8378856,9.7299862,-21.5877857,-26.5114498,-204.4045868
5290,16.2110577,3.2273674,10.8217363,-14.8778629,-41.3587799,-232.5648804
5300,15.5933561,2.7748656,11.4585905,-6.1221375,-52.2061081,-250.1374054
5310,14.8750992,2.3774302,12.0140429,2.1068702,-59.3664131,-250.1374054
5320,14.5135765,2.3175755,12.7993364,12.3893127,-63.4580154,-250.1374054
5330,14.0131912,2.2098370,13.5582952,25.5419846,-62.2900772,-250.1374054
5340,13.2255030,2.0781565,14.0012197,42.0916023,-59.0610695,-250.1374054
5350,12.5048513,1.7286048,13.7378588,60.2442741,-51.5114517,-250.1374054
5360,11.7123747,1.3551112,13.2087431,77.4427490,-44.3893127,-250.1374054
5370,10.5607700,1.0462608,12.5072460,90.4274826,-39.4961815,-250.1374054
5380,8.9853926,0.7685348,11.7818060,102.6106873,-37.1984749,-250.1374054
5390,7.7380204,0.4572902,11.1497402,111.2900772,-39.5877876,-250.1374054
5400,7.4435349,0.3663110,10.5320396,119.4885483,-42.4045792,-250.1374054
5410,7.0149751,0.2274480,9.7036495,125.1755753,-37.0152664,-250.1374054
5420,5.8633699,-0.1436514,9.0045462,128.6412201,-31.6106873,-250.1374054
5430,4.3047528,-0.5913648,8.3605099,129.6183167,-27.7862587,-250.1374054
5440,2.5929072,-0.8068419,7.8912482,129.2519073,-25.4503822,-250.1374054
5450,1.2832855,-0.8116302,7.5416965,129.4427490,-24.7480907,-250.1374054
5460,0.3543400,-0.7613522,7.0891948,129.1755676,-20.9923668,-250.1374054
5470,-0.3758878,-0.8068419,6.5241661,128.5725250,-14.0152674,-250.1374054
5480,-1.0486550,-1.0438666,5.8154860,125.8473282,-4.6641221,-250.1374054
5490,-1.9584470,-1.2114599,5.1546898,121.4427490,4.4198475,-250.1374054
5500,-3.1890604,-1.3455344,4.7859845,116.3511429,13.2061071,-250.1374054
5510,-4.8985114,-1.8507085,4.7189474,111.8244247,20.6259537,-250.1374054
5520,-7.1442614,-2.3917952,5.6622581,111.1297684,18.4198475,-250.1374054
5530,-9.1290445,-3.1100521,6.9910331,117.5572510,12.5114508,-250.1374054
5540,-10.9246864,-4.1802549,7.9439206,131.8549652,14.8320608,-250.1374054
5550,-12.4928808,-4.4124913,7.6422529,149.3129730,33.6564903,-228.4198456
5560,-13.7713776,-4.4795284,5.8442163,156.6183167,71.6641235,-193.1068726
5570,-14.9948082,-4.9056940,3.8785870,156.8549652,116.3282471,-152.2137451
5580,-16.0865593,-4.6495161,1.4796091,148.0305328,156.4656525,-106.2824402
5590,-16.7282009,-4.1922259,-1.0965388,128.0000000,185.0152740,-57.1908379
5600,-16.9269199,-3.7062054,-3.1675127,97.7862625,199.2442780,-9.2748089
5610,-17.1591549,-3.2656744,-4.9128766,65.0763321,197.9389343,38.9541969
5620,-17.3482971,-3.0358322,-6.2584114,27.3893127,176.3206177,84.9389343
5630,-16.9197369,-3.1531475,-6.4954362,-11.0229006,136.9923706,128.6030579
5640,-16.1152897,-3.8714044,-5.9423780,-44.0000000,89.4885483,169.1755676
5650,-14.9349537,-4.8123207,-5.3869262,-69.5038147,44.4198456,207.7557220
5660,-13.7737722,-6.3972740,-4.7572546,-89.8778610,5.3206105,246.2595367
5670,-12.2031832,-7.7116842,-3.8067613,-105.5954208,-23.6412220,250.1297760
5680,-10.3285332,-9.0500364,-2.6575503,-116.1450348,-37.5038185,250.1297760
5690,-9.0787668,-10.6373835,-2.2720859,-125.2290039,-27.9770985,250.1297760
5700,-8.5688038,-11.8775740,-2.7940190,-139.5114441,-2.9541984,250.1297760
5710,-8.7651272,-13.3164816,-3.5912843,-161.5877838,29.6335869,250.1297760
5720,-9.2367830,-15.3467541,-4.6806402,-193.6488495,60.8702278,250.1297760
5730,-8.3413563,-17.8031921,-4.5034704,-233.6488495,83.8473282,250.1297760
5740,-6.9263902,-19.6131992,-3.7732425,-250.1374054,99.1984711,250.1297760
5750,-4.8841467,-19.6131992,-1.3455344,-250.1374054,99.2137375,250.1297760
5760,0.0790083,-19.6131992,2.1906834,-250.1374054,77.8549652,250.1297760
5770,9.6270361,-19.6131992,5.7101417,-250.1374054,76.0229034,250.1297760
5780,19.6126022,-19.6131992,10.8001890,-250.1374054,123.3206100,250.1297760
5790,19.6126022,-19.6131992,19.6126022,-250.1374054,231.4122162,250.1297760
5800,19.6126022,-15.2964764,19.6126022,-250.1374054,250.1297760,250.1297760
5810,19.6126022,-7.0891948,19.6126022,-250.1374054,250.1297760,250.1297760
5820,19.6126022,-3.9240766,19.6126022,-123.6717529,250.1297760,123.8625946
5830,19.6126022,-5.9615316,19.6126022,-16.0305347,67.9923630,-6.1450381
5840,15.7154598,-4.3023586,17.7600975,37.5877876,-164.8396912,-60.0000000
5850,11.1664991,-1.2449785,14.8343983,47.1450386,-250.1374054,-47.3816795
5860,13.2231083,0.5410868,14.3579540,42.8244286,-250.1374054,-5.7786260
5870,15.5837793,1.7669119,13.0219965,26.0152664,-141.3206177,35.7557259
5880,15.2485924,3.2608860,10.3572636,-7.4122138,39.6259537,70.8015289
5890,13.7210999,3.2273674,8.8441362,-47.5801544,174.5114441,93.8702316
5900,11.8464499,3.0071020,9.0907373,-71.1984711,236.3664093,106.9389343
5910,11.3843708,2.5234756,9.4355011,-74.1526718,235.2290039,111.1145020
5920,11.7602587,2.5546002,9.4115591,-68.0457993,188.6030579,97.3816757
5930,12.2151546,2.7485294,9.8233595,-55.8320618,119.8167953,73.1755753
5940,12.5000629,2.8347204,10.3285332,-38.8320618,51.6870232,43.0916023
5950,12.2582502,2.7605004,10.3620520,-21.3358784,-1.2748091,14.8549614
5960,11.5830889,2.7676830,9.9981356,-9.1984730,-34.1755714,-7.4198475
5970,10.7259684,2.6934631,9.6006994,-2.3969467,-50.1755714,-23.3587780
5980,9.8401184,2.4684093,9.1362267,-1.2137405,-51.0687027,-31.2519093
5990,8.7818871,2.1284344,9.0404596,-1.9770992,-43.6488533,-31.1755733
6000,8.1378498,1.9321109,8.9829988,-2.7786260,-33.0305328,-25.0992374
6010,7.7763271,1.6663558,8.8944139,-2.7175572,-23.1984730,-15.5343513
6020,7.7236552,1.7549409,8.9758167,-1.0916030,-13.4274807,-4.9160304
6030,8.0803890,1.8554969,8.9470863,1.9923664,-4.5267177,3.5648854
6040,8.7076674,1.9225341,8.5855637,5.7251906,4.2366414,8.1297712
6050,9.2535419,2.0446377,8.2072811,6.2595420,12.0687027,8.6335878
6060,9.5456333,2.2936335,8.1019373,4.5648856,17.9007626,5.2977099
6070,9.9095497,2.2792683,8.0181408,2.4732823,21.3587780,-1.1374046
6080,10.2231894,2.3510940,7.7787213,-2.3206108,20.9923668,-9.5954199
6090,10.4386663,2.5881188,7.9271612,-9.3511448,17.9160309,-19.9236641
6100,10.5607700,2.7221935,8.5759869,-15.0992365,14.0687027,-32.4809151
6110,10.5559816,2.3989778,9.6294298,-15.7938929,5.8244276,-43.6564903
6120,10.5344334,2.0925217,10.6828737,-11.8625956,-5.9694657,-51.3206100
6130,10.9869356,2.2505381,11.5567522,-2.4198472,-16.6106873,-58.2519073
6140,11.4968977,2.3989778,12.0475616,9.3511448,-23.7328243,-66.3511429
6150,12.4593620,2.5665710,12.2606440,20.9923668,-27.5267181,-76.2366409
6160,13.7929258,2.7892308,12.2390966,28.9541988,-28.5267181,-90.1145020
6170,14.7745428,2.9807658,12.1409349,33.4122124,-25.4503822,-107.8244247
6180,15.1839495,3.0142846,12.4019012,35.1908379,-23.9847336,-128.9160309
6190,15.4425220,2.7652888,12.8400383,37.8854980,-27.8167934,-153.0000000
6200,15.6603928,2.4013720,13.5559006,43.4656487,-34.1068687,-178.0381622
6210,15.7250366,1.9728121,14.3771076,52.9694672,-43.5267181,-204.4580078
6220,15.2438040,1.5035510,15.1073351,68.6183243,-52.5038185,-231.7709961
6230,14.8679161,0.8810617,15.2078915,87.5267181,-60.5267181,-250.1374054
6240,14.3579540,0.3375807,15.0307217,106.9160309,-67.9083939,-250.1374054
6250,14.0610743,-0.2609667,14.4992113,125.6641235,-74.3053436,-250.1374054
6260,13.2255030,-0.8212070,13.8982697,141.5038147,-77.5114517,-250.1374054
6270,12.1313581,-1.2952565,13.0459385,156.2137451,-74.2290039,-250.1374054
6280,11.2143831,-1.7429699,11.8895445,169.0534363,-64.8167953,-250.1374054
6290,10.3357162,-2.2218077,10.3357162,178.2137451,-52.2442741,-250.1374054
6300,9.1984758,-2.7988074,8.4850073,182.0458069,-40.8931313,-250.1374054
6310,7.3214312,-3.0334380,7.2160869,180.6870270,-37.8625946,-250.1374054
6320,5.6071916,-3.4141142,6.2272868,178.3282471,-38.4580154,-250.1374054
6330,3.7684543,-3.8402798,5.6790175,176.6259613,-40.7633591,-250.1374054
6340,1.9991482,-4.1108232,5.0972295,174.7862549,-45.6259537,-250.1374054
6350,0.3471575,-4.0222383,4.6543045,174.2442780,-53.6106873,-250.1374054
6360,-1.1779412,-3.8618276,4.1347651,173.1068726,-63.0458031,-250.1374054
6370,-2.2936335,-3.4212968,3.6152260,171.5648804,-70.3511429,-250.1374054
6380,-3.2632802,-2.8658447,3.0238612,168.7022858,-77.5877838,-250.1374054
6390,-3.7756367,-2.2050486,2.4396791,163.7328186,-86.6488571,-250.1374054
6400,-4.2329268,-1.5250987,1.8698620,156.0839691,-93.7175598,-250.1374054
6410,-4.6590929,-0.9361281,1.4532729,147.5419922,-96.2519073,-250.1374054
6420,-5.1379304,-0.6967092,1.0749911,137.5572510,-95.5419846,-250.1374054
6430,-5.6862001,-0.7134684,0.8403605,126.4580154,-92.1145020,-250.1374054
6440,-6.2775645,-0.7469871,0.5243275,113.6870193,-88.5801544,-250.1374054
6450,-6.7755561,-0.7421987,0.5339043,101.0076370,-84.0610657,-250.1374054
6460,-7.3741035,-1.0773853,0.7948709,88.5114517,-76.0305328,-250.1374054
6470,-8.2575598,-1.4604555,0.9864060,78.4580154,-64.9923630,-249.3816833
6480,-9.5001440,-1.8866212,1.2880739,69.9618301,-52.6183205,-230.7786255
6490,-10.9558105,-2.3965836,1.3838415,61.3206100,-43.2366409,-206.2595367
6500,-12.6820211,-2.9640064,1.3910241,51.4656487,-34.7480927,-175.7938995
6510,-15.8136215,-3.9360476,1.1731528,37.1679382,-31.8320618,-135.0610657
6520,-19.6131992,-4.6136031,1.7549409,21.9236641,-44.7786255,-74.3740463
6530,-19.6131992,-5.0852585,2.9041519,10.7175570,-64.2900772,1.4198474
6540,-19.6131992,-5.5760674,3.7133877,5.9541984,-71.6946564,89.0152664
6550,-19.6131992,-6.3709383,3.6918402,0.3358779,-57.5038185,178.8473358
6560,-19.3378677,-7.4171991,3.3279233,-7.9923663,-25.5267181,250.1297760
6570,-16.5438499,-8.4395180,2.7150109,-20.4351139,19.9770985,250.1297760
6580,-14.5135765,-9.7108326,1.1635761,-39.5190849,76.4503784,250.1297760
6590,-13.3715477,-11.5208397,0.4836263,-66.1603088,122.8320618,250.1297760
6600,-11.7698355,-13.6803989,-0.1412572,-97.7175598,149.0534363,250.1297760
6610,-9.8161764,-16.4983597,-0.4237715,-131.5114441,157.7099304,250.1297760
6620,-7.4148049,-19.6131992,-0.5722113,-166.3053436,151.5954132,250.1297760
6630,-4.5824785,-19.6131992,0.2561783,-202.3587799,137.4198456,250.1297760
6640,-1.1420283,-19.6131992,1.4915800,-231.8167877,122.9847336,250.1297760
6650,9.5264797,-19.6131992,3.4691806,-250.1374054,128.8473358,250.1297760
6660,19.6126022,-19.6131992,5.8059096,-250.1374054,215.0305328,250.1297760
6670,19.6126022,-19.6131992,8.5616217,-250.1374054,250.1297760,250.1297760
6680,19.6126022,-14.5925846,14.6069498,-250.1374054,250.1297760,250.1297760
6690,19.6126022,-5.6215568,19.6126022,-250.1374054,250.1297760,250.1297760
6700,19.6126022,-2.7988074,19.6126022,-250.1374054,250.1297760,250.1297760
6710,19.6126022,-4.0701222,19.6126022,-109.2748108,60.2213745,107.0763321
6720,19.6126022,-3.4404502,19.6126022,71.4656525,-193.9847260,-4.7633586
6730,19.6126022,-1.4820032,19.6126022,175.9770966,-250.1374054,-48.3511467
6740,16.9317074,1.3120158,16.2852764,210.0076294,-250.1374054,-42.3740463
6750,15.7417955,3.9312592,9.9382801,189.3206177,-250.1374054,-7.1297708
6760,14.4944229,4.9559722,5.0062504,131.4122162,-98.7022934,35.9465637
6770,12.5718889,5.7245069,1.6112895,59.0000000,77.1679382,76.9923630
6780,10.3668404,4.9463954,2.0709739,8.4198475,174.5725250,113.3282471
6790,9.3804340,4.6806402,2.9664006,-17.7938938,191.7633514,134.3740387
6800,10.0723553,4.0509686,4.0773048,-26.6641216,155.4198456,142.2366486
6810,12.1145983,4.1587071,5.5736732,-18.7480907,99.6183243,133.5725250
6820,13.8120794,4.6830344,6.2392578,-1.7022901,49.7709923,108.3435135
6830,14.2190914,4.6830344,5.8059096,13.3129768,15.9312973,77.5343475
6840,10.9989061,3.6655040,3.2513094,-17.0916023,30.6717548,-2.6259542
6850,9.5145092,3.0693510,3.8283088,-31.4656487,43.0839691,-4.6564884
6860,8.0444765,2.3151813,5.4970589,-42.4885483,53.1145020,11.9083967
6870,8.3940287,2.3271523,6.1195483,-41.4198456,52.7786255,23.0458012
6880,9.2008705,2.5186872,6.5840211,-38.4580154,52.9007645,29.3358784
6890,10.1705170,2.6383967,6.6630292,-36.0000000,51.8396950,31.1374054
6900,11.5184450,2.8514795,6.6941538,-36.7099228,48.7251892,28.5419846
6910,13.2039547,3.2465210,6.8449879,-40.3511467,46.0534363,19.2290077
6920,14.7098999,3.6535332,7.1322904,-44.8625946,41.3282433,1.8244275
6930,16.0602226,3.8187323,7.7045016,-48.9312973,31.8091602,-22.7251911
6940,16.8934002,3.8426740,8.5807753,-51.2213745,21.8625946,-50.0458031
6950,17.4584293,3.7253587,9.5288744,-50.8625946,10.0839691,-79.3129807
6960,17.3913918,3.4500270,10.4578199,-47.6564903,-8.9923668,-109.3511429
6970,17.2094345,3.3183465,11.8512383,-39.9465637,-35.1145020,-138.8854980
6980,17.0753593,3.1699069,13.1656475,-27.7557259,-58.5419846,-167.1297760
6990,16.8024216,3.0956869,13.9629126,-13.0763359,-74.5267181,-194.8702240
7000,16.5246964,2.8586621,14.4489336,2.0381680,-83.0381699,-221.1755676
7010,16.0003681,2.5115047,14.3411951,15.0076332,-83.7251892,-244.9007568
7020,15.8016500,2.1284344,14.0443153,24.9618320,-79.7328262,-250.1374054
7030,15.4736462,1.8243724,13.8144732,33.1221390,-73.6870193,-250.1374054
7040,15.0259333,1.1970947,13.7139168,41.6793900,-72.1603088,-250.1374054
7050,14.2526102,0.7421987,13.7857428,52.0687027,-75.3587799,-250.1374054
7060,13.1010046,0.2130829,13.6780043,66.0610657,-78.4809189,-250.1374054
7070,11.8751793,-0.3136388,13.0842457,80.4961853,-81.7557220,-250.1374054
7080,10.6158361,-0.8451489,12.2750092,92.1450348,-83.0305328,-250.1374054
7090,9.3947992,-1.2042773,11.3484583,101.3969498,-83.5343475,-250.1374054
7100,8.1354561,-1.5227045,10.5057030,105.2824402,-79.0763321,-250.1374054
7110,7.0437055,-1.8339491,9.6414013,107.3206100,-70.5801544,-250.1374054
7120,5.7723908,-2.0206959,8.6526003,107.8625946,-59.0916023,-250.1374054
7130,4.5393834,-2.3271523,7.6949248,104.4885483,-45.4427490,-250.1374054
7140,3.3327117,-2.2768741,7.0772243,100.4885483,-29.6717548,-250.1374054
7150,2.0087249,-1.9680238,6.6534524,100.6412201,-16.6870232,-250.1374054
7160,0.7062859,-1.5011568,6.4116392,101.7938919,-2.9541984,-250.1374054
7170,-0.2633608,-1.3311694,5.9830794,106.1908417,11.9541988,-250.1374054
7180,-1.1013272,-1.1779412,5.1714492,112.2442780,24.3969460,-250.1374054
7190,-2.0661855,-0.9888002,3.9791429,115.8244247,36.2748108,-250.1374054
7200,-3.3542595,-1.1037214,2.7772598,114.9465637,45.3969460,-250.1374054
7210,-4.6519103,-1.4508789,2.2625091,112.9083939,45.3587799,-250.1374054
7220,-6.2679882,-2.0757623,1.7932479,110.8015289,40.8931313,-250.1374054
7230,-8.6789370,-2.8227494,1.7956421,109.7022934,30.5190830,-250.1374054
7240,-11.0946741,-3.2704628,1.9177457,112.4580154,3.4427481,-250.1374054
7250,-13.1512823,-3.6056492,1.9440818,116.7251892,-36.4045792,-250.1374054
7260,-14.6859579,-3.4835455,2.4396791,122.6106873,-81.2442780,-248.9389343
7270,-14.6620159,-3.1100521,2.2768741,121.4198456,-114.3282471,-208.1374054
7280,-14.3435888,-3.3087699,2.6910689,118.8244247,-125.3129807,-166.3129730
7290,-13.7761660,-3.4859397,2.2864509,110.5572510,-112.6717529,-121.7404556
7300,-13.3763361,-3.8570392,1.5179161,91.5954208,-81.3129807,-75.6412201
7310,-13.2662039,-4.3981261,1.0821736,64.7709961,-34.3282433,-24.9923668
7320,-13.5559006,-4.9559722,0.9026094,34.4427490,20.1450386,31.3969460
7330,-14.2645807,-5.6766233,0.9169745,2.5572519,72.0000000,96.8778610
7340,-14.9469252,-6.6965480,1.2665262,-26.4122143,110.5267181,168.5725250
7350,-15.2701406,-8.0037756,1.7525467,-48.9160309,134.5801544,247.6106873
7360,-14.3603487,-9.1745338,1.9345051,-67.5190811,142.6870270,250.1297760
7370,-12.7442703,-11.0946741,2.2601149,-83.1526718,140.2366486,250.1297760
7380,-11.0683374,-13.5104113,2.3678534,-97.1297684,132.8167877,250.1297760
7390,-9.1362267,-15.8160152,2.9041519,-110.0381699,127.0992355,250.1297760
7400,-6.9072366,-18.4208927,3.1603301,-123.6335907,127.9160309,250.1297760
7410,-4.1706781,-19.6131992,3.6271970,-139.9084015,131.4503784,250.1297760
7420,-0.8403605,-19.6131992,4.3334827,-155.7938995,137.8167877,250.1297760
7430,4.9200592,-19.6131992,5.2313042,-172.4045868,146.5343475,250.1297760
7440,12.9645357,-19.6131992,6.6007805,-191.9541931,174.2824402,250.1297760
7450,19.6126022,-19.6131992,8.4610653,-215.6106873,227.6641235,250.1297760
7460,19.6126022,-19.6131992,11.4538021,-246.7328186,250.1297760,250.1297760
7470,19.6126022,-17.4225159,16.2637291,-250.1374054,250.1297760,250.1297760
7480,19.6126022,-12.3492289,19.6126022,-245.2366486,250.1297760,250.1297760
7490,19.6126022,-8.8728657,19.6126022,-188.9465637,144.5572510,250.1297760
7500,19.6126022,-6.5193777,19.6126022,-105.5954208,-27.9236641,250.1297760
7510,19.6126022,-4.2544746,17.3506908,-28.4503822,-179.1526642,209.2366486
7520,19.6126022,-1.7046629,12.6101961,15.3129768,-250.1374054,153.1603088
7530,19.6126022,0.1005560,9.6916790,26.7328243,-250.1374054,128.3129730
7540,19.6126022,1.2425843,7.4411407,24.7404575,-182.5572510,126.7938919
7550,19.6126022,1.8004304,5.2791877,11.9312973,-49.3053436,139.3664093
7560,19.6126022,3.3446827,1.1013272,-39.3282433,92.2290039,151.5801544
7570,19.6126022,2.9687948,3.5817075,-76.6488571,183.8702240,143.4809113
7580,19.6126022,2.5689652,6.1147599,-96.0305328,206.1984711,125.1297684
7590,19.6126022,1.9608412,8.6861191,-90.5877838,188.0534363,95.6564865
7600,19.6126022,2.0278785,10.2064295,-66.5190811,139.6183167,55.6259537
7610,19.1080265,1.7022687,10.1346035,-41.3206100,87.0916061,18.4274807
7620,17.4416695,1.4341195,9.3876171,-24.0687027,46.6183205,-12.8015270
7630,15.8399572,1.1492109,8.6813307,-16.8167934,23.8549614,-34.1297722
7640,14.2813396,0.8212070,8.3102312,-16.1297703,16.6488552,-46.9694672
7650,12.8256731,0.5458752,8.1737623,-18.0992374,19.6946564,-52.9465637
7660,11.4992924,0.2849085,8.1378498,-21.3740463,25.3435116,-54.7404594
7670,10.3979645,0.0574605,8.3964224,-22.6183205,28.5954189,-53.0152664
7680,9.4355011,0.0646431,8.4371233,-22.0381680,30.5877857,-49.0763359
7690,8.9063845,0.1532281,8.6478119,-20.1145039,33.6412201,-42.4427490
7700,8.5472565,0.1412572,8.5424681,-17.2595425,36.9923668,-35.3511467
7710,8.6765423,0.1604107,8.2168579,-15.8396950,40.5725174,-28.7938938
7720,9.0644016,0.4333483,8.2120695,-15.1755724,42.9083977,-25.1374054
7730,9.6150646,0.7158626,7.9582858,-16.6641216,47.0839691,-25.6412220
7740,10.0244713,0.8954269,8.0756006,-17.7480907,50.9618340,-29.4809170
7750,10.6780853,1.0127422,8.1809454,-16.6870232,51.6717567,-36.2290077
7760,11.3053627,1.1420283,8.2623482,-15.1755724,52.5725174,-44.7938919
7770,11.3580351,1.3814473,8.3509331,-14.5801525,55.3816795,-55.5114517
7780,11.3364868,1.4317253,8.2503767,-15.1832066,59.8549614,-65.5877838
7790,11.0491848,1.3383518,8.4275465,-16.4809170,65.9542007,-73.7938919
7800,10.9055328,1.1827296,8.8082228,-16.4732819,72.2137375,-80.5419846
7810,10.5224628,1.0725969,8.9566631,-15.5267172,73.9618301,-86.1068726
7820,10.7546988,0.9888002,9.5192976,-13.7404585,71.6564865,-91.5343475
7830,11.1090393,1.2354017,10.3069859,-8.9847326,64.9618301,-99.4580154
7840,11.9470053,1.3263810,11.0946741,0.4045801,54.5801544,-112.4961853
7850,12.6006193,1.6519908,11.4585905,15.2137403,39.2824440,-128.8396912
7860,13.4816809,1.6735384,12.2510672,25.7328243,27.8625946,-153.5419922
7870,13.5223818,1.7501525,12.6221666,39.3816795,11.7786255,-182.1755676
7880,13.0148134,1.5634058,12.4880924,50.8625946,-8.8473282,-212.4961853
7890,12.3731709,1.3000449,12.3396521,59.1221390,-36.8778610,-243.2442780
7900,11.7506819,1.0893562,12.3707771,66.1603088,-67.3206100,-250.1374054
7910,11.1832590,0.7589580,12.4186611,72.1603088,-89.5954208,-250.1374054
7920,11.2670555,0.2849085,12.7035694,79.5190811,-95.3740463,-250.1374054
7930,11.3460636,0.0071826,12.7538471,88.8778610,-87.2442780,-250.1374054
7940,11.1569233,-0.2059003,11.9709473,95.6641235,-68.6183243,-250.1374054
7950,10.2614956,-0.4979914,11.4154949,101.7022934,-47.6488533,-250.1374054
7960,9.4187412,-0.8978211,10.7355452,105.8091583,-29.8091602,-250.1374054
7970,8.3676920,-1.4963684,10.0292597,112.5572510,-17.4274807,-250.1374054
7980,6.9982157,-1.9512644,9.4881725,118.4122162,-15.5877867,-250.1374054
7990,5.5808558,-2.2265961,9.1841106,124.9847336,-23.0534344,-250.1374054
8000,4.4531922,-2.4061604,8.8776541,132.8473358,-34.3206100,-250.1374054
8010,3.3805954,-2.3463056,8.4682484,140.7557220,-39.0839691,-250.1374054
8020,2.3846128,-2.2242019,7.8361821,146.3282471,-36.0228996,-250.1374054
8030,1.2880739,-1.8818330,7.0173693,149.3893127,-27.0000000,-250.1374054
8040,0.0574605,-1.4604555,5.9687142,149.5954132,-14.2977095,-250.1374054
8050,-1.1132981,-1.0941446,5.0182209,147.8091583,-0.1374046,-250.1374054
8060,-2.0997043,-0.7445929,4.0605454,143.8473358,12.4961834,-250.1374054
8070,-2.9376705,-0.4860204,3.1004753,137.0686951,23.8091602,-250.1374054
8080,-3.6583214,-0.2298422,2.3965836,129.0992432,33.9160309,-250.1374054
8090,-4.7069764,0.0047884,1.8818330,120.8778610,40.6946564,-250.1374054
8100,-5.5569139,0.1651991,1.8818330,114.1145020,42.0992355,-250.1374054
8110,-6.2368636,0.1005560,1.9105632,111.2595444,34.2748108,-250.1374054
8120,-6.7947097,0.1963235,2.2265961,111.1908417,17.8167934,-250.1374054
8130,-7.1658092,0.0981618,2.4181314,114.9160309,-6.7251906,-250.1374054
8140,-7.4962072,0.1915352,2.8155668,121.0000000,-34.9847336,-250.1374054
8150,-7.7188668,0.2370248,3.2345500,128.2442780,-63.2442741,-248.1526642
8160,-7.8194227,0.0407012,3.4476328,135.9847260,-88.8167953,-238.7328186
8170,-8.0253229,-0.1077385,3.7109938,143.1450348,-106.9312973,-228.6259613
8180,-8.4467001,-0.3974355,3.7349355,149.0381622,-115.2824402,-216.6106873
8190,-9.0883436,-0.8020535,3.6319854,152.2061005,-110.5343475,-200.2061005
8200,-10.0268650,-1.2617378,3.3375001,151.5496216,-95.2977066,-177.2366486
8210,-11.2670555,-1.5681942,2.9711890,147.6183167,-73.5572510,-147.8778687
8220,-12.7107515,-1.6974803,2.5138988,140.7862549,-47.7633591,-111.1450348
8230,-14.4872408,-1.7980363,1.7405758,130.0686951,-21.0076332,-66.4580154
8240,-15.7657375,-1.5490406,0.9624642,114.1832047,5.3740458,-10.4427481
8250,-17.2214050,-1.8315549,-0.3854645,92.4045792,34.8931313,59.0763359
8260,-17.9492378,-2.1020982,-2.1547706,58.3587799,69.8854980,139.6793823
8270,-18.2389355,-2.7221935,-3.7445123,10.9923668,102.6717529,226.8015289
8280,-17.7289734,-3.5649481,-4.3861551,-43.6793900,123.0916061,250.1297760
8290,-16.5103302,-5.9615316,-4.1491303,-102.3053436,137.7328186,250.1297760
8300,-14.5039997,-8.6789370,-2.7293761,-158.5267181,150.0763397,250.1297760
8310,-11.3077564,-12.0068598,-0.8283895,-208.2213745,161.2748108,250.1297760
8320,-8.2886839,-15.5646257,1.9297167,-245.3129730,172.8091583,250.1297760
8330,-5.6957769,-19.3139267,4.2281384,-250.1374054,189.8778687,250.1297760
8340,-2.9807658,-19.6131992,5.9280128,-250.1374054,200.5343475,250.1297760
8350,1.9345051,-19.6131992,7.3214312,-250.1374054,193.9389343,250.1297760
8360,12.6269550,-19.6131992,8.6502066,-250.1374054,201.8931274,250.1297760
8370,19.6126022,-19.6131992,8.3222027,-250.1374054,250.1297760,250.1297760
8380,19.6126022,-19.4503956,6.2727766,-250.1374054,250.1297760,250.1297760
8390,19.6126022,-14.1448717,8.6717539,-250.1374054,250.1297760,250.1297760
8400,19.6126022,-10.8887739,17.4656124,-250.1374054,250.1297760,250.1297760
8410,19.6126022,-10.1920643,19.6126022,-250.1374054,118.0687027,250.1297760
8420,19.6126022,-8.5065556,19.6126022,-139.6870270,-45.8244286,250.1297760
8430,19.6126022,-6.1889796,19.6126022,-8.6183205,-194.8931274,231.0381622
8440,19.6126022,-3.6224086,19.6126022,87.0916061,-250.1374054,180.1603088
8450,19.6126022,-1.5346755,15.3778791,128.8778687,-250.1374054,156.8473358
8460,18.5142670,-0.1101327,10.7307568,136.9389343,-245.0686951,154.2366486
8470,18.0306416,1.3934183,6.3302369,116.7557220,-148.6641235,166.1984711
8480,17.7505207,3.4835455,1.6639616,67.9083939,-34.9694672,179.6717529
8490,18.7441101,3.5864959,0.0550664,-12.8396950,76.7099228,176.9084015
8500,17.5877151,4.1395535,2.0230901,-69.9847336,148.1832123,164.8396912
8510,16.5701847,3.6248028,4.6950054,-107.5648880,169.6564941,148.6259613
8520,15.6196918,3.2872221,8.1809454,-117.5190811,157.5190887,126.3206100
8530,14.6237087,2.9496415,11.0084829,-101.4274826,126.5877838,104.6106873
8540,14.1975431,2.6168492,11.6956158,-76.1526718,93.5038147,88.4045792
8550,13.9748840,2.3798244,11.1545286,-56.4045792,79.5648880,73.8015289
8560,13.4888630,2.3846128,10.5057030,-42.3969460,69.4732819,61.0839691
8570,13.1536770,2.2601149,9.7539282,-34.6564903,61.5725174,49.4122124
8580,12.6844158,2.0949159,8.9853926,-32.5954208,57.5572510,38.4961815
8590,12.1337519,1.9225341,8.6813307,-35.4885483,55.8396950,29.1068707
8600,11.4992924,1.7693061,9.0189114,-36.6870232,53.5801544,21.0534344
8610,11.1832590,1.7812769,9.1745338,-36.8244286,50.1679382,13.5496187
8620,10.5344334,1.5634058,9.4498653,-35.7251892,47.4503822,7.0839696
8630,10.5487986,1.5705882,8.8249826,-17.1603050,52.2595406,1.7251909
8640,11.1377697,1.6376256,8.8561068,-19.4732819,58.6870232,-4.5877862
8650,11.4633789,1.7142396,9.2774839,-21.1755733,66.6946564,-15.2671757
8660,11.3843708,1.5658000,9.4139528,-23.0763359,72.9923630,-27.1679382
8670,11.3747940,1.3742647,9.3517036,-24.9465656,73.8320618,-39.6717567
8680,11.2359314,1.3215926,9.8401184,-26.2137413,68.7328262,-52.8473282
8690,11.2622671,1.2713146,10.1513634,-25.0610695,62.2137413,-67.1755753
8700,10.6397781,0.8571198,11.1138277,-19.0381680,52.6946564,-78.5267181
8710,10.4506369,0.8906385,11.4921093,-3.6412213,40.0458031,-86.4427490
8720,10.5009146,0.4860204,12.1600885,13.9618320,25.0916023,-95.5419846
8730,10.9677820,0.8355721,12.0619268,31.0763359,6.4732823,-106.2290039
8740,11.4059181,1.1947005,11.7746239,45.1679382,-12.0687027,-119.2671738
8750,12.1169930,1.5921360,11.2862091,53.5572510,-23.6793900,-134.9389343
8760,12.9573536,1.9656296,10.4075413,54.0228996,-23.5801525,-151.8320618
8770,14.0826225,2.5115047,9.7802639,47.0534363,-15.4427481,-173.1832123
8780,14.0491037,2.7389526,9.9574337,36.0763359,-6.0610685,-195.9313049
8790,13.9820662,2.5186872,10.6900558,29.1908398,-2.2290077,-219.7786255
8800,13.4218264,1.9656296,11.6597023,31.8931293,-4.7022901,-244.3587799
8810,13.0818510,1.4772149,12.8089132,44.9389305,-16.8320618,-250.1374054
8820,12.3851423,1.1611819,13.7043400,64.8091583,-37.5572510,-250.1374054
8830,11.6501255,0.6177009,14.0299501,90.0916061,-63.1526718,-250.1374054
8840,11.0084829,0.0478838,13.7546186,115.6412201,-88.9312973,-250.1374054
8850,10.5057030,-0.4261657,13.0603037,138.3969421,-106.6488571,-250.1374054
8860,9.8113880,-0.8116302,12.0331964,154.7175598,-117.4961853,-250.1374054
8870,8.7459745,-1.2761030,11.0731258,163.5267181,-119.5801544,-250.1374054
8880,7.5273318,-1.6998745,10.2136126,168.5114441,-115.4503784,-250.1374054
8890,6.3541789,-1.8100072,9.5576038,169.5801544,-106.2977066,-250.1374054
8900,5.1115947,-1.7070571,8.7986460,168.6259613,-89.5343475,-250.1374054
8910,3.9097114,-1.5035510,8.0516596,166.3435059,-70.7404556,-250.1374054
8920,2.8371146,-1.1970947,7.3286138,163.5190887,-50.4809151,-250.1374054
8930,1.8076130,-0.8858501,6.4858594,160.9770966,-33.4961815,-250.1374054
8940,0.5506636,-0.4716553,5.6263452,159.2900696,-23.2366409,-250.1374054
8950,-0.5386927,-0.1628049,4.7572546,157.7862549,-18.5496178,-250.1374054
8960,-1.2880739,-0.0957676,3.7038112,154.2137451,-18.2442741,-250.1374054
8970,-2.0637913,0.1460456,2.6647329,147.0000000,-22.7709923,-250.1374054
8980,-2.5354466,0.3399749,1.9919657,137.2061005,-31.1450386,-250.1374054
8990,-2.9496415,0.3112446,1.9177457,126.6946564,-44.5343513,-250.1374054
9000,-3.4811516,0.2130829,2.2170193,117.3206100,-58.1755714,-250.1374054
9010,-4.0557570,-0.0646431,2.6623387,110.7862625,-67.0152664,-250.1374054
9020,-4.7357068,-0.6440369,2.9041519,105.8549652,-72.2900772,-250.1374054
9030,-5.6933827,-1.2521610,3.5266411,103.4351120,-71.1526718,-250.1374054
9040,-7.0437055,-2.0135133,3.9671719,106.7786255,-68.6717529,-250.1374054
9050,-8.9399033,-2.8873925,4.4053087,111.8854980,-70.5038147,-250.1374054
9060,-11.0348196,-3.7253587,4.5058646,118.7404556,-78.9923630,-250.1374054
9070,-13.0172081,-4.7907729,4.0749106,124.4274826,-93.4045792,-232.2748108
9080,-14.8966465,-5.5712790,3.5170643,123.7404556,-110.8931274,-193.2519073
9090,-16.2110577,-6.3517847,3.1196289,113.9847336,-122.0763321,-142.0763397
9100,-17.1639442,-7.1777802,2.8442972,97.9770966,-113.8244247,-78.3129807
9110,-17.7074261,-7.9151902,2.8778157,73.1832047,-84.0992355,-5.0305343
9120,-17.8726234,-8.6118994,3.0238612,45.5648842,-34.0458031,77.6564865
9130,-17.2956238,-9.5145092,3.2608860,17.1068707,32.0534363,164.8320618
9140,-16.5246964,-10.8480721,3.1555417,-11.1221371,102.5877838,250.1297760
9150,-15.6867294,-12.4665442,2.9113343,-37.6717567,164.2213745,250.1297760
9160,-14.5710373,-14.6093445,2.6312141,-62.7786255,205.8473358,250.1297760
9170,-13.2901459,-17.2716827,2.4301023,-82.0457993,226.1068726,250.1297760
9180,-12.0379848,-19.6131992,1.5011568,-100.8244247,221.7557220,250.1297760
9190,-9.4450769,-19.6131992,0.8116302,-123.2900772,201.7251892,250.1297760
9200,-6.5265603,-19.6131992,0.8044477,-148.0839691,172.4503784,250.1297760
9210,-2.8083842,-19.6131992,0.7924767,-172.1450348,130.6641235,250.1297760
9220,3.8594334,-19.6131992,1.8100072,-189.2824402,89.2290039,250.1297760
9230,19.6126022,-19.6131992,3.4380560,-201.4885559,98.4809189,250.1297760
9240,19.6126022,-19.6131992,5.0517397,-232.8625946,188.4045868,250.1297760
9250,19.6126022,-19.6131992,11.3149395,-250.1374054,250.1297760,250.1297760
9260,19.6126022,-10.8384953,19.6126022,-250.1374054,250.1297760,250.1297760
9270,19.6126022,-3.3375001,19.6126022,-250.1374054,250.1297760,250.1297760
9280,19.6126022,-0.5769997,19.6126022,-125.2061081,115.9694672,220.5114441
9290,19.6126022,0.5817881,19.6126022,28.9083977,-53.5267181,105.3664093
9300,19.6126022,2.6934631,19.6126022,135.0763397,-192.5190887,53.4580154
9310,19.6126022,5.5353661,13.4744978,170.5114441,-232.4351196,42.6335869
9320,19.6126022,7.7092900,5.9591374,145.8778687,-158.0305328,52.7557259
9330,19.6126022,8.6765423,0.9696468,83.0916061,-31.2900772,69.7175598
9340,19.2061882,8.9877872,-1.5897418,2.9236641,84.7251892,84.3129807
9350,16.4696293,7.9606800,0.6871324,-57.7404594,154.6641235,92.9694672
9360,14.2047262,7.0652533,3.7038112,-80.1832047,161.0839691,92.0305328
9370,13.1560707,5.7723908,5.6239510,-84.2213745,126.8320618,87.5190811
9380,13.3859129,5.1211715,7.5440907,-69.5496216,74.5496216,73.1908417
9390,13.8336267,4.8410511,8.2264347,-45.5801544,20.0534344,50.0610695
9400,14.2023315,4.3717899,7.4483232,-27.2748089,-18.6412220,24.9236641
9410,14.2573986,4.0988522,6.6462698,-20.0229015,-33.0458031,1.3358779
9420,13.5343533,3.6631098,5.7628140,-23.6946564,-28.7022896,-19.0534344
9430,12.1313581,2.7868366,5.5138183,-35.4961815,-15.2595415,-32.2061081
9440,10.2638903,2.1308286,6.2248926,-48.4656487,-1.1221374,-35.1068687
9450,8.7411861,1.5490406,7.4602942,-56.0381660,8.8549614,-29.6946564
9460,7.5249376,1.1635761,8.8010406,-53.8396950,12.0763359,-18.6717548
9470,7.1658092,1.0414724,9.5983057,-44.4656487,12.2671757,-4.0381680
9480,7.3094602,1.1468167,10.0220766,-30.5038166,11.9694653,12.0458012
9490,8.1881275,1.2425843,9.9646168,-15.4122133,12.3206110,26.5114498
9500,12.6173782,3.0023136,7.0963774,-13.0534353,69.4351120,-5.5114503
9510,12.3899307,2.7676830,7.7835097,-13.2595415,57.1908379,-15.8549614
9520,12.3779593,2.8706331,8.5089493,-8.4198475,39.6793900,-25.1068707
9530,12.7155399,3.0765336,9.0332766,-0.2366412,22.8549614,-36.6106873
9540,13.2853575,3.0861101,9.3277617,18.6030540,-4.6030536,-59.0305328
9550,13.5989962,3.1148405,9.5121145,26.5725193,-11.5114508,-65.8778610
9560,14.2645807,3.3231349,9.5216913,34.2061081,-16.2748089,-70.8396912
9570,15.5191364,3.8307030,9.8089943,41.3206100,-14.1908398,-76.8473282
9580,17.5134964,4.5202298,10.0172882,49.0610695,-5.0763359,-86.3664093
9590,19.3977222,5.0661049,10.1633339,54.5419846,6.7938933,-106.6335907
9600,19.6126022,5.6047974,10.1322098,57.4351158,13.3129768,-139.9618378
9610,19.6126022,5.3366485,10.0986910,58.1145020,7.7099237,-181.5343475
9620,19.3306866,4.5513539,10.3500814,57.9923668,-14.6030531,-223.0381622
9630,18.4184990,3.7349355,11.4968977,62.6717567,-49.2519073,-250.1374054
9640,17.4320927,2.7748656,13.1225519,78.8931274,-90.9465637,-250.1374054
9650,16.6252518,1.7621235,13.8958759,100.3282471,-127.1526718,-250.1374054
9660,15.9046001,0.9265513,13.9461536,120.5801544,-146.5572510,-250.1374054
9670,15.4473104,0.0215477,13.1010046,135.1450348,-149.2824402,-250.1374054
9680,15.2916880,-0.8834559,11.5591469,138.2366486,-133.2442780,-250.1374054
9690,13.6684275,-1.9608412,10.5799236,136.6412201,-106.9007645,-250.1374054
9700,11.1234045,-2.9927368,9.7132263,132.2824402,-83.1679382,-250.1374054
9710,8.6621771,-3.2034254,7.7954807,118.8396912,-56.4961815,-250.1374054
9720,7.5416965,-3.6678982,6.4882536,97.7862625,-23.8167934,-250.1374054
9730,7.0724359,-4.5920553,6.4427638,79.5648880,15.6030531,-250.1374054
9740,5.4467812,-5.2121506,7.0030041,75.0000000,43.6030540,-250.1374054
9750,3.9144998,-5.4683285,7.1729918,79.2442780,59.9160309,-250.1374054
9760,2.7413468,-6.0118098,6.8832946,88.6946564,69.4961853,-250.1374054
9770,1.5131277,-6.6247220,6.7564025,100.3587799,76.0534363,-250.1374054
9780,-0.1651991,-7.3597383,6.4762826,120.6793900,79.6564865,-250.1374054
9790,-2.6862805,-8.3940287,6.3972740,142.9465637,79.1832047,-250.1374054
9800,-5.5305777,-8.7866755,6.2344694,171.2519073,71.3969498,-250.1374054
9810,-8.8872309,-8.6502066,4.4891052,195.0458069,61.4809151,-250.1374054
9820,-11.8201132,-8.6909075,2.2289903,205.1221313,47.1145020,-250.1374054
9830,-13.4816809,-8.0636301,0.7421987,202.8473358,35.4503822,-250.1374054
9840,-14.0036144,-7.1969333,-0.3112446,194.5725250,28.7709923,-250.1374054
9850,-14.8367920,-6.5576849,-1.3598996,183.6259613,22.7862587,-250.1374054
9860,-16.0434628,-5.8202744,-2.6431851,166.2824402,10.0000000,-247.6870270
9870,-15.7824965,-4.5872669,-3.2417326,141.4274750,7.8320613,-205.5572510
9880,-15.5694141,-5.1738434,-3.6990228,114.9694672,20.3816795,-165.1145020
9890,-15.7777081,-5.4659348,-4.1491303,85.9694672,25.9007626,-117.9389343
9900,-15.4449158,-5.5569139,-4.1539187,54.7786255,26.4732819,-72.8167953
9910,-14.6428623,-5.8106980,-3.7157819,25.6412220,28.8702297,-33.2137413
9920,-14.2837343,-6.2847471,-3.3949606,-0.8549618,25.8778629,4.0305343
9930,-13.8144732,-7.0724359,-3.2201848,-27.5038166,22.5343513,42.3053436
9940,-13.4218264,-8.0468712,-2.7772598,-52.4961815,21.2519093,83.2366409
9950,-13.1991663,-9.0189114,-2.0949159,-76.2900772,21.0381680,128.9694672
9960,-13.3308468,-10.1082678,-1.2354017,-95.7480927,25.7938938,183.4274750
9970,-13.3811245,-11.1353750,-0.7158626,-111.4503784,31.1526718,243.3969421
9980,-13.1464939,-12.2271252,-0.0526722,-122.4885483,33.6488533,250.1297760
9990,-13.1345234,-13.6373034,-0.4501076,-133.1145020,41.2213745,250.1297760
