timestamp,acclX,acclY,acclZ,gyroX,gyroY,gyroZ
0,5.4946647,1.4029950,9.6366129,15.8702288,-10.2442751,25.9236641
10,5.5617023,1.3048333,9.3277617,22.8549614,-18.0610695,24.1679382
20,5.5138183,1.3168042,9.0715837,27.4503822,-23.2366409,23.1526718
30,5.6694407,1.3934183,8.7818871,29.7022896,-26.4885502,22.7480907
40,6.3805151,0.4620786,8.2910776,29.6335869,-29.7099228,21.2213745
50,5.5425487,1.5442522,8.5209198,28.8320618,-30.0687027,21.5496178
60,5.9974446,1.3575054,8.3557215,25.3435116,-35.1221390,25.3969460
70,6.7324610,0.9050036,8.3724804,19.2748089,-36.1832047,24.4961834
80,7.4267755,1.0199248,8.8752604,14.3969469,-38.4656487,22.7709923
90,8.2910776,1.1755470,9.7156210,12.3587790,-41.3053436,18.1221371
100,9.7204094,1.3024391,10.5320396,14.3664122,-42.5038185,7.4198475
110,11.3005743,1.4772149,11.4466200,19.6488552,-44.8396950,-9.1374044
120,13.0507269,1.8243724,12.2175484,28.3129768,-43.6259537,-31.2137413
130,13.8743277,2.2792683,13.1081877,38.6564903,-37.2748108,-58.5267181
140,14.2502155,2.5234756,13.6708221,51.6030540,-34.9541969,-89.6564865
150,13.7067347,2.3774302,13.7378588,65.6488571,-40.2290077,-117.6335907
160,12.5718889,2.5593886,14.1927547,79.9083939,-59.6946564,-139.1450348
170,12.0212250,2.6431851,14.8679161,99.3969498,-91.7480927,-156.9160309
180,11.4035244,2.9280937,14.8391867,122.5725174,-122.1603088,-172.4580078
190,11.3987360,3.6655040,14.0299501,144.6717529,-142.6106873,-180.9084015
200,12.2726154,4.9032998,12.6437149,158.2595367,-142.5419922,-187.1221313
210,13.7210999,6.0094156,11.4202833,163.7709961,-125.1068726,-198.6106873
220,15.0450869,6.9790621,10.0986910,163.2290039,-99.4809189,-217.2671814
230,14.9828377,7.2759418,8.5496502,158.0534363,-74.0152664,-242.1832123
240,13.7570124,6.9024482,6.9575148,148.6259613,-59.8778610,-250.1374054
250,12.0188313,6.5696559,5.9830794,140.5267181,-64.8549652,-250.1374054
260,10.1992474,6.1458845,5.8657641,138.3358765,-86.6030502,-250.1374054
270,8.5592270,5.9639258,5.9567432,143.6183167,-120.9847336,-250.1374054
280,7.4770536,5.4491754,5.8801293,152.4580078,-154.2748108,-250.1374054
290,6.6893654,5.0948353,5.5186067,161.2671814,-178.3511505,-250.1374054
300,6.0213866,4.5896611,4.3047528,165.6946564,-187.5190887,-250.1374054
310,4.5058646,4.0030847,2.9879484,162.4809113,-186.1068726,-250.1374054
320,2.7389526,3.5673423,2.1212518,153.6870270,-181.9007568,-250.1374054
330,1.0223188,3.1315999,1.5322813,142.2977142,-173.5114441,-250.1374054
340,-0.7924767,2.9328821,1.0917504,129.6488495,-161.5725250,-250.1374054
350,-2.2936335,2.8562679,0.5626345,115.2137375,-148.0000000,-250.1374054
360,-3.3853838,2.9065459,-0.1101327,97.9389343,-139.3664093,-250.1374054
370,-3.9791429,2.9687948,-0.5171449,76.8015289,-129.0763397,-250.1374054
380,-4.4555864,2.9616125,-0.7948709,55.2366409,-112.8473282,-250.1374054
390,-4.8697815,2.6623387,-1.2521610,32.4503822,-91.6030502,-244.8167877
400,-5.3581958,2.2289903,-1.2976507,8.8854961,-73.5343475,-229.1221313
410,-6.0549049,1.6160779,-0.7182568,-13.1145039,-59.0228996,-212.8320618
420,-7.0245519,0.9792235,0.0191535,-29.9694653,-47.0000000,-195.0152740
430,-7.9822278,0.4165890,0.8188128,-40.8931313,-41.1450386,-175.5114441
440,-8.4395180,-0.1316804,1.4460905,-46.8396950,-37.3358765,-156.1526642
450,-8.6071110,-0.4716553,2.1930776,-47.6183205,-42.7786255,-140.6412201
460,-8.8154058,-0.8523315,2.9759774,-43.6641235,-50.9923668,-126.1984711
470,-9.0236998,-1.1204807,3.3015873,-37.2900772,-56.2442741,-111.1221390
480,-9.1769285,-1.3934183,3.2345500,-31.7557259,-60.4580154,-94.6259537
490,-9.1577749,-1.7621235,2.7820482,-30.5572510,-59.2290077,-76.7557220
500,-9.3229742,-2.3008161,2.5354466,-34.0916023,-48.2595406,-55.1832047
510,-10.0867205,-2.7437410,2.3941894,-41.1603050,-28.4351139,-28.2366409
520,-10.7930059,-3.0142846,2.4803803,-50.4580154,-9.2213745,3.5725191
530,-12.1337519,-3.1004753,2.6503677,-58.7480927,8.5801525,40.6946564
540,-13.7426472,-3.3877780,2.5522060,-68.4656525,27.8015270,88.9465637
550,-15.3347836,-3.7349355,2.1475880,-81.0152664,45.9007645,148.9007568
560,-16.8790359,-4.3454537,1.4221486,-98.0076370,56.5114517,220.9923706
570,-17.6691189,-5.8011212,1.1899122,-120.3969498,57.8091621,250.1297760
580,-17.7768574,-7.8649125,1.7621235,-147.0229034,60.0992355,250.1297760
590,-17.2166157,-11.3340931,2.7724714,-173.9236603,68.2290039,250.1297760
600,-17.2860470,-15.5382900,4.2137733,-199.9236603,75.9542007,250.1297760
610,-13.9533358,-19.6131992,5.8968887,-223.0763397,73.5496216,250.1297760
620,-7.5584559,-19.6131992,7.7667508,-238.8244324,70.2977066,250.1297760
630,3.7564833,-19.6131992,9.3540983,-249.9770966,81.1068726,250.1297760
640,15.4975882,-19.6131992,11.5567522,-250.1374054,148.5419922,250.1297760
650,19.6126022,-19.6131992,16.0482521,-250.1374054,250.1297760,250.1297760
660,19.6126022,-19.6131992,19.6126022,-250.1374054,250.1297760,250.1297760
670,19.6126022,-16.5294838,19.6126022,-250.1374054,250.1297760,250.1297760
680,19.6126022,-12.7203283,19.6126022,-250.1374054,250.1297760,250.1297760
690,19.6126022,-11.0013008,19.6126022,-168.4351196,250.1297760,250.1297760
700,19.6126022,-7.9870162,19.6126022,-74.4580154,249.5419922,250.1297760
710,19.6126022,-4.5322008,19.6126022,-5.1908398,24.0763359,250.1297760
720,19.6126022,-2.2744799,16.5558205,24.8091602,-170.6870270,194.4885559
730,19.6126022,-0.6320660,15.0355101,25.7938938,-250.1374054,133.2366486
740,19.6126022,0.5243275,16.0674057,22.4351139,-250.1374054,95.8396912
750,19.6126022,2.4324965,17.7146072,26.4732819,-244.6717529,72.0076370
760,19.6126022,3.6535332,17.8462887,32.4198456,-113.6946564,50.9465637
770,19.6126022,3.9240766,15.9596672,31.2977104,10.7557249,34.1297722
780,18.9787407,3.1866663,13.3739424,23.4732819,95.5954208,24.3740463
790,16.4792061,2.3295465,11.3867655,12.7251911,130.9541931,21.2977104
800,15.8926296,2.0997043,10.8193426,1.3511450,133.0992432,17.2290077
810,16.7114429,2.2026544,11.3460636,-6.1984735,120.7022934,3.2366412
820,17.9037495,2.1427996,12.2606440,-8.9694653,100.8167953,-23.1374054
830,19.2732258,1.9680238,13.4170380,-6.3129773,76.4885483,-60.6870232
840,19.6126022,1.7381816,14.4800577,2.0458016,49.9847336,-109.3816757
850,19.6126022,1.5131277,15.0666342,14.7786255,22.0534344,-165.8320618
860,18.6674957,0.5506636,14.8343983,27.7022896,-2.8702290,-220.8931274
870,16.3092194,-0.5362985,14.3459835,38.8015251,-24.9083977,-250.1374054
880,14.2023315,-1.3718705,14.2334566,51.3129768,-45.1755714,-250.1374054
890,12.6963863,-2.0542145,14.0610743,65.6793900,-60.7328262,-250.1374054
900,11.9829178,-2.7437410,13.3619709,79.6488571,-73.3282471,-250.1374054
910,11.9350348,-3.0597742,13.0626974,91.5725174,-85.7709961,-250.1374054
920,11.9589767,-3.2991931,13.1153698,103.0000000,-105.3282471,-250.1374054
930,11.6764622,-3.4021432,13.2877512,112.8015289,-122.1908417,-250.1374054
940,10.5464048,-3.7780309,13.2853575,124.2061081,-137.7480927,-250.1374054
950,9.3110027,-4.4603748,13.3428183,137.3358765,-150.0076294,-250.1374054
960,7.6685886,-4.9942794,12.9118633,150.4427490,-159.2671814,-250.1374054
970,6.0309634,-5.3605900,12.6413202,163.2137451,-166.6717529,-250.1374054
980,4.7021880,-5.4994531,12.1600885,174.5343475,-172.6106873,-250.1374054
990,3.6056492,-5.0828643,11.3293047,182.0534363,-174.3053436,-250.1374054
1000,2.7317703,-4.3263001,10.2543135,185.1374054,-168.3129730,-250.1374054
1010,2.0422437,-3.8091555,9.0572186,182.2824402,-156.1145020,-250.1374054
1020,1.0965388,-3.3183465,8.1953106,175.8244324,-140.0305328,-250.1374054
1030,0.0215477,-2.8012016,7.4579000,167.6412201,-127.0992355,-250.1374054
1040,-0.8236012,-2.2672975,6.6055689,159.3206177,-119.6946564,-250.1374054
1050,-1.5921360,-1.8722562,5.9471664,150.1221313,-113.0076370,-250.1374054
1060,-2.3870070,-1.4891858,5.1906028,139.3587799,-105.9618301,-250.1374054
1070,-3.3135581,-1.2689204,4.7811961,127.9389343,-96.7404556,-250.1374054
1080,-3.8402798,-1.0725969,4.4100971,116.2824402,-85.7404556,-250.1374054
1090,-4.4914994,-0.9265513,4.3693957,105.0534363,-71.7022934,-250.1374054
1100,-4.8913293,-1.0606259,4.4124913,95.3740463,-54.2213745,-250.1374054
1110,-5.5329719,-1.4125718,4.6183915,89.4656525,-35.7786255,-250.1374054
1120,-6.3062949,-1.8052188,4.2879934,86.3816757,-16.2595425,-250.1374054
1130,-7.5464849,-2.3271523,3.9791429,83.1297684,-0.7022901,-250.1374054
1140,-9.1290445,-2.8203552,3.6248028,79.7709961,13.1297712,-250.1374054
1150,-10.8265247,-3.0071020,3.2297616,76.0381699,22.1221371,-250.1374054
1160,-12.7490587,-3.1890604,3.0358322,71.9694672,23.1908398,-250.1374054
1170,-14.9804430,-3.3327117,2.9472473,68.0381699,17.6183205,-222.7328186
1180,-17.3698444,-3.2776453,3.1938488,64.7175598,7.0076337,-178.4656525
1190,-18.8805771,-3.0023136,3.4117200,64.2442780,-8.8091602,-125.8091583
1200,-19.2588596,-2.7341642,3.4069316,64.9465637,-20.1221371,-68.3511429
1210,-18.8135414,-2.7221935,2.7197993,63.2442741,-21.5419846,-9.9694653
1220,-17.7265778,-2.6623387,1.8147956,54.1679382,-15.1603050,47.1679382
1230,-16.2756996,-2.8945751,0.6200951,38.1526718,-3.1450381,101.8244247
1240,-14.8631277,-3.2153964,-0.2370248,15.0687027,18.9083977,154.3129730
1250,-13.8599625,-3.8211265,-0.7350162,-13.9389315,48.7022896,206.1755676
1260,-13.4888630,-4.8625989,-1.0534433,-46.4732819,78.2748108,250.1297760
1270,-13.8862991,-6.0812411,-1.1659702,-79.5114517,95.8091583,250.1297760
1280,-14.2143030,-7.8984308,-0.4955972,-110.2061081,100.9847336,250.1297760
1290,-14.3795023,-10.2375546,0.8283895,-133.8778687,95.7099228,250.1297760
1300,-13.6660337,-13.0291786,2.4277081,-145.6183167,72.5496216,250.1297760
1310,-13.0387554,-16.4456882,4.0222383,-150.6106873,50.5801544,250.1297760
1320,-10.9989061,-19.6131992,5.6047974,-150.8473358,35.5343513,250.1297760
1330,-6.3398137,-19.6131992,6.6223278,-148.3664093,18.5496178,250.1297760
1340,-0.1173153,-19.6131992,7.8984308,-141.8396912,10.7709923,250.1297760
1350,8.7507620,-19.6131992,9.9502516,-124.7328262,30.1679382,250.1297760
1360,17.8965664,-19.6131992,11.0515785,-110.7862625,105.1450348,250.1297760
1370,19.6126022,-19.6131992,13.4098549,-117.5267181,226.3129730,250.1297760
1380,19.6126022,-19.6131992,17.6906662,-139.6106873,250.1297760,250.1297760
1390,19.6126022,-19.6131992,19.6126022,-140.3587799,250.1297760,250.1297760
1400,19.6126022,-14.2837343,19.6126022,-91.2900772,250.1297760,250.1297760
1410,19.6126022,-9.2008705,19.6126022,-23.7938938,250.1297760,250.1297760
1420,19.6126022,-4.4388270,17.8534698,30.2977104,173.9160309,250.1297760
1430,19.6126022,-0.7637464,11.9278517,64.3435135,-48.4122124,237.4809113
1440,19.6126022,0.8810617,8.1210909,74.1526718,-228.8549652,133.4351196
1450,19.6126022,1.9560528,6.9072366,66.9312973,-250.1374054,79.4885483
1460,19.6126022,3.0238612,7.6518297,50.2366409,-250.1374054,58.6259537
1470,19.6126022,4.1706781,8.2910776,29.0610695,-135.6488495,58.5648842
1480,19.6126022,4.7644372,6.9216018,-20.5190830,159.3206177,78.3053436
1490,19.6126022,4.7740140,7.3357964,-35.8931313,216.7328186,79.1526718
1500,19.6126022,4.9631548,8.0708122,-42.2366409,226.8396912,62.9694672
1510,19.6126022,4.9655490,8.8321648,-40.9694672,201.7862549,27.7175579
1520,19.6126022,4.9703374,9.6677370,-34.3435097,147.8244324,-24.1755733
1530,19.6126022,4.5992379,10.3500814,-23.8778629,86.5954208,-83.4580154
1540,19.6126022,3.7469065,10.6373835,-13.9618320,28.1450386,-140.6641235
1550,19.6126022,3.1339941,10.9175043,-6.7251906,-20.0687027,-193.8396912
1560,19.6126022,2.4827745,11.3700056,-1.4580153,-48.8015251,-237.9465637
1570,19.6126022,1.5514348,11.6190014,3.4503818,-56.2213745,-250.1374054
1580,19.1726685,0.7900825,11.8847561,10.0305347,-48.8702278,-250.1374054
1590,17.7672806,0.0694315,11.9039097,18.7633591,-37.3587799,-250.1374054
1600,15.8758707,-0.4620786,11.8057480,29.2061062,-36.9007645,-250.1374054
1610,14.4872408,-0.9169745,11.6597023,41.8854980,-50.6946564,-250.1374054
1620,13.5822372,-1.1851238,11.3628235,55.3358765,-74.1068726,-250.1374054
1630,12.4880924,-1.4101776,11.2981796,69.5419846,-103.1679382,-250.1374054
1640,11.8153248,-1.6376256,11.3125448,83.7633591,-129.8931274,-250.1374054
1650,11.0084829,-2.0829449,10.7475166,96.2824402,-142.1755676,-250.1374054
1660,9.9765873,-2.6000898,9.9717989,101.7175598,-137.8854980,-250.1374054
1670,9.1338329,-2.9161227,9.1434097,105.7938919,-122.2290039,-250.1374054
1680,7.3429790,-3.1387823,8.5304966,105.3664093,-103.3740463,-250.1374054
1690,5.1810260,-3.1675127,8.1857338,102.1603088,-93.9236679,-250.1374054
1700,2.8826041,-3.1651185,8.2719250,104.0534363,-89.9160309,-250.1374054
1710,0.9983770,-2.8826041,8.2551651,111.7404556,-92.2900772,-250.1374054
1720,-0.1604107,-2.3223639,7.6733770,120.0687027,-98.3587799,-250.1374054
1730,-0.9169745,-1.4963684,6.7827387,124.5343475,-103.6870193,-250.1374054
1740,-1.5394639,-1.2617378,5.7676024,123.0305328,-104.4656525,-250.1374054
1750,-2.3199697,-0.8643024,5.0948353,117.2213745,-107.8015289,-250.1374054
1760,-2.9424589,-0.3639168,4.6926112,109.4656525,-109.1526718,-250.1374054
1770,-3.5410061,0.0239419,4.4316444,102.8244247,-103.3206100,-250.1374054
1780,-4.2472920,0.3016679,3.9575951,93.7480927,-97.1221390,-250.1374054
1790,-4.7452836,0.3303981,3.8354914,84.1145020,-85.5343475,-250.1374054
1800,-5.3941088,0.1628049,3.6631098,73.3358765,-66.1984711,-250.1374054
1810,-6.4882536,0.0454896,3.4356618,61.9923668,-42.5419846,-250.1374054
1820,-7.5584559,-0.1628049,3.6343796,52.4503822,-19.4961834,-250.1374054
1830,-8.9351149,-0.4118006,3.6702924,45.2137413,-1.6488550,-241.8473358
1840,-10.0555954,-0.3902529,3.6248028,39.7862587,9.4961834,-218.0992432
1850,-11.0276365,-0.4094064,3.3877780,34.4274826,12.3816795,-194.2671814
1860,-12.0260134,-0.5171449,3.2728570,27.4809170,11.6793890,-168.8320618
1870,-13.1201582,-0.6512195,3.3303175,21.4961834,9.6335878,-139.9313049
1880,-14.2214851,-0.7805058,3.7421181,16.5419846,6.5725193,-106.0687027
1890,-14.9110117,-1.0271072,3.9456241,14.5496187,3.7480917,-67.9236679
1900,-15.2318335,-1.2186425,3.9743545,13.8625956,1.9618320,-26.4885502
1910,-15.1217003,-1.5538290,3.8091555,12.1755724,4.2900763,17.0763359
1920,-14.5279417,-1.8315549,3.6966286,9.6564884,8.4885492,59.7328262
1930,-13.7115231,-2.1906834,3.3159523,6.5801525,11.4809160,98.8931274
1940,-12.8807392,-2.7317703,3.0908985,2.2213740,17.8549614,140.1755676
1950,-12.3851423,-3.4739690,2.6407909,-3.5801528,31.0076332,181.1221313
1960,-12.5263996,-4.4196739,1.8387375,-12.6030531,41.3664131,226.8778687
1970,-13.0124197,-5.5904322,1.2521610,-25.6259537,46.6793900,250.1297760
1980,-13.5582952,-6.8401995,1.4700323,-40.0839691,47.2824440,250.1297760
1990,-14.1520538,-8.6454182,2.2050486,-51.2061081,47.4122124,250.1297760
2000,-14.4489336,-10.9893293,2.8323262,-58.8396950,49.3282433,250.1297760
2010,-14.1688128,-13.9988260,3.5601597,-67.0839691,56.5343513,250.1297760
2020,-11.8488436,-17.4943428,4.2018023,-76.6564865,56.7480927,250.1297760
2030,-8.3078375,-19.6131992,5.0756817,-86.3129807,58.7862587,250.1297760
2040,-1.7046629,-19.6131992,5.9567432,-94.1755753,63.9083977,250.1297760
2050,7.0676475,-19.6131992,6.7731619,-102.0305328,113.2061081,250.1297760
2060,17.6763000,-19.6131992,8.6765423,-118.4503784,211.7099304,250.1297760
2070,19.6126022,-19.6131992,10.5895004,-155.0381622,250.1297760,250.1297760
2080,19.6126022,-19.6131992,15.7777081,-208.6488495,250.1297760,250.1297760
2090,19.6126022,-19.6131992,19.6126022,-234.2213745,250.1297760,250.1297760
2100,19.6126022,-16.2349987,19.6126022,-200.9465637,250.1297760,250.1297760
2110,19.6126022,-10.8935623,19.6126022,-115.1984711,250.1297760,250.1297760
2120,19.6126022,-6.8832946,19.6126022,-16.3740463,250.1297760,250.1297760
2130,19.6126022,-3.5817075,19.4863071,45.7251892,119.8320618,250.1297760
2140,19.6126022,-0.7086801,12.2390966,57.5877876,-63.3969460,197.9694672
2150,19.6126022,2.1404054,9.6414013,35.4885483,-204.2671814,97.6030502
2160,19.6126022,4.1515245,11.1401634,4.3435116,-250.1374054,22.8320618
2170,19.6126022,4.7548604,14.2238798,-16.2061062,-224.6183167,-29.4656487
2180,19.6126022,4.0485744,16.2828827,-17.9312973,-135.0992432,-55.5190849
2190,19.6126022,3.4117200,16.1631737,-8.7404585,-35.4427490,-62.7404594
2200,19.6126022,2.9568241,14.6668043,0.0381679,35.5190849,-61.0992355
2210,19.6126022,2.8634505,13.3428183,3.8091602,77.3358765,-61.7175560
2220,19.6126022,2.8706331,12.4880924,4.1832061,94.3740463,-72.5267181
2230,19.6126022,2.9975252,12.0667152,4.3893127,90.9160309,-97.9160309
2240,19.6126022,3.0071020,12.0858688,7.2748094,66.6641235,-136.5496216
2250,19.6126022,2.7868366,12.3444405,13.7786255,28.7404575,-187.1679382
2260,19.6126022,2.1930776,12.4473906,22.7938938,-12.6870232,-241.9847260
2270,19.6126022,0.9337339,12.4042959,32.6106873,-51.2213745,-250.1374054
2280,18.2485123,0.0263361,12.6078014,42.9694672,-79.9007645,-250.1374054
2290,17.0274754,-0.9409165,12.5048513,53.3664131,-91.8396912,-250.1374054
2300,15.1719790,-1.8387375,12.2414904,63.2137413,-88.8091583,-250.1374054
2310,13.0579090,-2.5450234,11.9254580,75.4732819,-87.7328262,-250.1374054
2320,12.1792421,-2.9951310,11.6884327,90.0457993,-90.1145020,-250.1374054
2330,11.5735121,-2.9352763,11.0563669,103.0381699,-93.1297684,-250.1374054
2340,10.7714586,-2.8419030,10.1657286,117.8091583,-97.3969498,-250.1374054
2350,9.8377247,-2.9903426,8.8177996,125.8778610,-101.3282471,-250.1374054
2360,8.7316093,-3.0741394,7.7452030,126.8396912,-96.8473282,-250.1374054
2370,7.1179252,-3.2249732,6.7085190,123.8320618,-86.6488571,-250.1374054
2380,5.1451130,-3.4236910,5.9998388,119.5267181,-77.9389343,-250.1374054
2390,3.0454090,-3.4859397,5.4635406,115.4503784,-73.3511429,-250.1374054
2400,1.3575054,-3.2752512,5.3558016,113.0152664,-76.6259537,-250.1374054
2410,0.2633608,-2.6910689,5.4970589,113.4656525,-88.2290039,-250.1374054
2420,-0.5147507,-2.1116750,5.5808558,116.5343475,-102.3587799,-250.1374054
2430,-1.2114599,-1.5131277,5.3079181,119.1145020,-115.6259537,-250.1374054
2440,-1.9464760,-1.3263810,4.6950054,117.6564865,-125.8320618,-250.1374054
2450,-2.9759774,-1.2904681,4.3215117,111.4656525,-130.2595367,-250.1374054
2460,-3.6271970,-1.1851238,4.2329268,100.8015289,-127.5496216,-250.1374054
2470,-4.0820932,-1.0725969,3.8857694,93.8625946,-117.1832047,-250.1374054
2480,-4.8266859,-1.1611819,3.5122759,83.0534363,-100.7633591,-250.1374054
2490,-6.0118098,-1.3359578,3.3566537,70.6488571,-80.7175598,-250.1374054
2500,-7.4339581,-1.2521610,3.2896163,57.6793900,-63.1297722,-250.1374054
2510,-8.6621771,-1.0869620,3.4643922,45.7938919,-49.1832047,-250.1374054
2520,-9.7994175,-0.9361281,3.6966286,36.1221390,-39.4427490,-245.7099304
2530,-10.9151096,-0.9696468,3.7947903,27.4198475,-31.3893127,-215.4580078
2540,-11.7363167,-0.9169745,3.7971845,19.3358784,-24.6106873,-182.3893127
2550,-12.4234495,-0.8451489,3.8809812,10.5114508,-20.0381680,-147.9007568
2560,-13.0507269,-0.6823440,4.1826491,2.7862597,-17.6030540,-113.9847336
2570,-13.3404236,-0.8810617,4.5752959,-1.8854961,-14.6183205,-79.5419846
2580,-13.6253319,-1.0606259,4.9224534,-4.4732823,-11.7022905,-42.6488533
2590,-13.4792862,-1.2856797,4.9559722,-6.5572519,-5.7709923,-5.5419846
2600,-13.3045111,-1.6711442,4.9104824,-10.0152674,2.6870229,30.6870232
2610,-13.1800127,-1.9081690,5.1594782,-13.2290077,11.2366409,66.6641235
2620,-13.1273403,-2.4492557,5.4635406,-13.6259546,21.0534344,102.1832047
2630,-13.4840746,-2.9568241,5.8035154,-11.1908398,31.9083977,140.0458069
2640,-14.2190914,-3.5745249,5.9399838,-4.9618320,33.1526718,180.6412201
2650,-14.7625723,-4.3071470,5.8681583,4.8702292,25.3282452,227.7938995
2660,-15.5526543,-5.6670465,5.2911587,15.1450386,17.3816795,250.1297760
2670,-15.8351688,-6.8042865,4.3670015,22.5343513,7.8091602,250.1297760
2680,-15.1624022,-8.3437500,3.3279233,23.0458012,1.0381680,250.1297760
2690,-14.3244352,-10.4051476,2.4803803,14.8625956,0.4045801,250.1297760
2700,-12.8448267,-13.8072910,2.1763182,-3.0916030,17.8015270,250.1297760
2710,-10.5464048,-17.6475697,2.1404054,-28.8854961,50.7862587,250.1297760
2720,-7.5081782,-19.6131992,2.3989778,-62.1526718,87.8549652,250.1297760
2730,-3.4189026,-19.6131992,3.4883339,-98.6564865,126.8625946,250.1297760
2740,2.4324965,-19.6131992,4.3981261,-135.0610657,158.8473358,250.1297760
2750,11.4346485,-19.6131992,6.9862447,-166.9236603,193.3664093,250.1297760
2760,19.6126022,-19.6131992,12.1792421,-182.7786255,228.9160309,250.1297760
2770,19.6126022,-19.6131992,19.6126022,-171.3587799,250.1297760,250.1297760
2780,19.6126022,-19.6131992,19.6126022,-120.0229034,250.1297760,250.1297760
2790,19.6126022,-14.6404686,19.6126022,-44.4351158,250.1297760,250.1297760
2800,19.6126022,-8.2527714,19.6126022,18.0687027,250.1297760,250.1297760
2810,19.6126022,-3.1770895,13.1824074,35.2977104,250.1297760,250.1297760
2820,19.6126022,-0.0598547,5.8873119,8.5190840,199.8320618,250.1297760
2830,19.6126022,1.7884595,4.2640514,-38.3053436,41.2595406,177.9160309
2840,19.6126022,2.3056045,8.5951405,-71.1679382,-91.2061081,93.4580154
2850,19.6126022,2.8035958,14.3483772,-72.6259537,-149.0534363,31.2519093
2860,19.6126022,3.1890604,17.4967365,-49.3206100,-133.9084015,-12.1068707
2870,19.6126022,3.1842721,16.6420116,-18.2366409,-85.9542007,-33.5496178
2880,19.1511211,2.7868366,13.6037846,1.4580153,-34.3282433,-33.5038185
2890,17.1519737,3.0525916,11.0372133,3.8625953,11.0992365,-25.1145039
2900,16.5414543,3.2967989,9.8688488,-3.3435113,45.4198456,-18.5343513
2910,16.8550930,3.4476328,9.4211359,-12.0839691,70.5038147,-18.4045811
2920,17.5015240,3.6176202,9.7635050,-18.0152664,76.4580154,-29.9236641
2930,17.9971218,3.4141142,10.2878323,-18.1297703,62.2900772,-52.7938919
2940,17.8845959,3.0358322,10.9127159,-12.3664122,31.7328243,-82.3358765
2950,17.3387203,2.5258698,11.1832590,-3.6946564,-5.6259542,-113.9312973
2960,16.4313221,1.9297167,11.3556404,4.8091602,-42.4580154,-142.6030579
2970,15.7274303,1.5945302,11.5088692,14.2213745,-80.2519073,-168.1908417
2980,15.9309368,1.2210367,11.9134865,24.2290077,-114.6793900,-192.4732819
2990,17.6379929,1.2473727,12.2726154,33.7557259,-133.9923706,-218.0839691
3000,19.6126022,1.4820032,12.3133163,39.5801544,-128.1297760,-249.0839691
3010,19.6126022,1.1635761,11.9829178,41.2595406,-103.9312973,-250.1374054
3020,19.6126022,0.5339043,11.4992924,41.3664131,-78.4732819,-250.1374054
3030,18.6459484,-0.4836263,11.2000179,43.1297722,-69.7251892,-250.1374054
3040,16.1895084,-1.3096216,11.1425581,49.0228996,-92.2061081,-250.1374054
3050,14.3555603,-2.0374553,11.3843708,60.6259537,-134.5267181,-250.1374054
3060,13.4337969,-2.3151813,11.6477318,75.7022934,-176.9084015,-250.1374054
3070,12.7610302,-2.1763182,11.5471754,89.1603088,-202.5648804,-250.1374054
3080,11.9709473,-2.1954718,10.7259684,97.3664093,-204.2061005,-250.1374054
3090,10.5631638,-2.5234756,9.7730818,100.8931274,-185.6488495,-250.1374054
3100,9.1697454,-2.5378408,8.8225880,98.3511429,-159.3816833,-250.1374054
3110,7.3429790,-2.3870070,8.1163025,95.0610657,-130.3816833,-250.1374054
3120,5.7245069,-2.0422437,7.3094602,92.1603088,-106.8702316,-250.1374054
3130,3.9743545,-1.5993185,6.4331870,89.7862625,-91.0000000,-250.1374054
3140,2.2026544,-1.1300575,5.8825235,87.2366409,-90.7404556,-250.1374054
3150,0.9888002,-0.6512195,5.8466105,85.6030502,-103.3816757,-250.1374054
3160,-0.1125269,-0.3375807,5.8729467,85.9007645,-114.9389343,-250.1374054
3170,-1.0749911,0.0407012,5.5569139,85.7251892,-122.4885483,-250.1374054
3180,-1.8842272,0.3232156,4.9751258,82.9770966,-120.7938919,-250.1374054
3190,-2.5689652,0.5506636,4.2616572,76.6030502,-112.6030502,-250.1374054
3200,-3.2967989,0.6679789,3.8307030,66.9694672,-101.9312973,-250.1374054
3210,-4.0557570,0.6727672,3.6750808,55.4503822,-89.2977066,-250.1374054
3220,-4.6686692,0.5171449,3.8833754,45.4732819,-73.3358765,-250.1374054
3230,-5.2672167,0.1819584,3.9575951,37.2748108,-51.4274826,-250.1374054
3240,-6.1578555,-0.2633608,3.9168940,29.6641216,-29.9770985,-250.1374054
3250,-7.4531116,-0.5841822,3.8785870,20.9236641,-14.8549614,-250.1374054
3260,-8.5209198,-0.9097920,4.0485744,14.0687027,-5.3206105,-244.4732819
3270,-9.3900108,-1.4556671,4.3095412,9.8244276,3.4274809,-223.4274750
3280,-10.2806492,-1.7333932,4.6112089,8.4045801,8.3587790,-199.5038147
3290,-11.2455082,-1.7812769,5.0469513,9.1603050,11.2748089,-173.5419922
3300,-12.3204985,-1.9464760,5.2001796,12.1908398,9.8854961,-144.7557220
3310,-13.1369171,-2.2337787,5.5186067,17.2213745,6.0229006,-111.7786255
3320,-13.5415354,-2.3199697,5.5066357,23.9770985,2.4351146,-75.3816757
3330,-13.7474356,-2.7054341,5.2217274,30.3893127,2.4732823,-36.3511467
3340,-13.7689838,-3.1100521,4.9009056,33.6564903,10.9465647,7.6870227
3350,-13.8096848,-3.5817075,4.5345950,34.5572510,27.4351139,53.8778610
3360,-14.7122946,-4.1156116,4.2305326,34.6793900,45.5114517,103.6106873
3370,-15.5933561,-4.9463954,4.1156116,34.8625946,55.6030540,159.2671814
3380,-16.1751442,-6.1506729,3.7612717,35.3816795,59.6641235,221.6564941
3390,-16.4815998,-7.7930865,3.4524212,33.9465637,70.2748108,250.1297760
3400,-16.9077663,-9.2703018,2.8586621,28.6641216,93.0152664,250.1297760
3410,-16.6420116,-11.0252428,1.8794388,16.9236641,109.3511429,250.1297760
3420,-15.1552191,-13.9485474,0.8786675,-2.9770992,117.0000000,250.1297760
3430,-12.9812956,-17.4225159,0.6919208,-29.8015270,123.6564865,250.1297760
3440,-10.1585455,-19.6131992,1.7357874,-62.2366409,138.7251892,250.1297760
3450,-7.0437055,-19.6131992,4.1371593,-91.9312973,162.5648804,250.1297760
3460,-4.0533628,-19.6131992,7.0197635,-110.9618301,176.7022858,250.1297760
3470,3.9815371,-19.6131992,10.0220766,-111.2366409,170.5877838,250.1297760
3480,16.7880573,-19.6131992,13.6780043,-92.3282471,231.2061005,250.1297760
3490,19.6126022,-19.6131992,16.0386753,-77.6564865,250.1297760,250.1297760
3500,19.6126022,-19.6131992,17.4584293,-84.7862625,250.1297760,250.1297760
3510,19.6126022,-19.6131992,19.6126022,-97.8396912,250.1297760,250.1297760
3520,19.6126022,-11.2766323,19.6126022,-62.5496178,250.1297760,250.1297760
3530,19.6126022,-6.6869712,19.6126022,18.0839691,250.1297760,250.1297760
3540,19.6126022,-3.6726866,15.0690289,91.6335907,80.0000000,250.1297760
3550,19.6126022,-0.4477134,4.7859845,111.6412201,-131.3511505,234.2671814
3560,19.6126022,0.8978211,-1.1109039,76.9542007,-250.1374054,160.4885559
3570,19.6126022,2.6551561,-0.5985473,17.9618320,-250.1374054,118.1832047
3580,19.6126022,4.6136031,3.5553713,-30.8015270,-227.2290039,78.1526718
3590,19.6126022,5.0613165,7.8864598,-53.6488533,-106.2213745,40.7251892
3600,19.6126022,4.1802549,9.8951855,-51.7099228,12.6564884,15.9694653
3610,19.6126022,3.3542595,9.1386213,-40.2366409,100.0305328,7.6870227
3620,19.6126022,2.6360025,8.1019373,-27.7404575,139.5648804,9.4732828
3630,19.6126022,2.7054341,7.5273318,-16.3816795,145.9618378,11.7709923
3640,19.6126022,3.4332676,6.7372489,-6.6030536,128.5496216,1.1297710
3650,19.6126022,4.0605454,6.2105274,-1.5038168,90.1679382,-26.9312973
3660,19.6126022,4.4172797,5.8585815,-1.0839695,44.3129768,-66.8396912
3670,19.6126022,4.3837609,6.1003947,-4.8244276,6.8854961,-108.6183243
3680,19.6126022,3.6846576,6.5888095,-9.5954199,-20.6030540,-146.5648804
3690,19.6126022,2.8826041,7.3597383,-12.3664122,-41.4045792,-178.4122162
3700,19.6126022,2.3726418,8.1905222,-12.1068707,-51.8015251,-204.9389343
3710,19.6126022,1.9153515,8.7435799,-8.0229006,-52.8091621,-228.9694672
3720,19.6126022,1.3407460,8.8824425,-2.2595420,-50.7328262,-250.1374054
3730,19.6126022,1.2258250,8.6071110,3.3893130,-50.9541969,-250.1374054
3740,19.5653172,1.0702027,8.2647419,8.0610685,-55.1984749,-250.1374054
3750,19.1128139,0.8116302,7.7787213,11.4274807,-58.7938919,-250.1374054
3760,18.4568062,0.5171449,7.1921453,13.1755724,-64.0687027,-250.1374054
3770,17.5063133,0.0047884,6.9168134,13.7175570,-69.6717529,-250.1374054
3780,15.8830528,-0.7972651,6.8186517,14.2061071,-72.0457993,-250.1374054
3790,13.9293938,-1.5658000,6.8282285,17.3511448,-72.0457993,-250.1374054
3800,12.2199430,-2.0973101,6.8473821,23.1526718,-73.4503784,-250.1374054
3810,10.8552551,-2.7341642,6.8713236,31.0000000,-74.5190811,-250.1374054
3820,9.3133974,-3.0837159,6.5983863,38.0152664,-75.4656525,-250.1374054
3830,7.3717093,-3.2058196,6.1985564,42.4122124,-74.9770966,-250.1374054
3840,5.5114241,-3.3039815,5.9782910,44.8625946,-77.7938919,-250.1374054
3850,3.4643922,-3.3877780,6.0620875,48.5725174,-84.3206100,-250.1374054
3860,1.4125718,-3.1962428,6.2631998,53.8854980,-94.1679382,-250.1374054
3870,-0.3040621,-3.3015873,6.5289545,61.5877876,-101.6183243,-250.1374054
3880,-1.7477583,-2.9951310,6.5241661,69.9007645,-104.9694672,-250.1374054
3890,-3.0286496,-2.4660151,6.2584114,77.3358765,-102.6106873,-250.1374054
3900,-3.8283088,-2.0949159,5.7484488,81.9465637,-96.6106873,-250.1374054
3910,-4.1539187,-1.5322813,5.0708933,83.4809189,-88.9160309,-250.1374054
3920,-4.5800843,-1.4796091,4.3813667,80.2290039,-74.6183243,-250.1374054
3930,-5.1475072,-1.4173602,3.6152260,73.5419846,-56.6106873,-250.1374054
3940,-5.8537931,-1.5131277,3.0214672,62.8549614,-35.5954208,-250.1374054
3950,-6.9766679,-1.6735384,2.7940190,49.9541969,-13.4045801,-250.1374054
3960,-8.0756006,-1.7070571,2.6575503,36.9694672,8.1755724,-250.1374054
3970,-9.1410151,-1.7357874,2.6838863,25.9618320,26.9694653,-250.1374054
3980,-10.0747490,-1.7453641,2.7054341,17.8091602,39.2290077,-228.6641235
3990,-11.0994625,-1.6974803,2.8155668,11.7328243,47.1221390,-202.0839691
4000,-12.2343082,-1.7932479,2.8466914,7.1603055,49.8778610,-172.5954132
4010,-13.5463238,-1.8818330,3.0525916,3.8396947,47.0839691,-139.1755676
4020,-14.3459835,-1.9656296,3.2608860,2.9770992,36.8244286,-101.7404556
4030,-14.8774929,-1.9105632,3.5362179,4.6717558,27.5267181,-62.0916023
4040,-15.0259333,-1.9728121,3.4931223,6.4274807,22.3206100,-19.6870232
4050,-15.2773228,-2.2409613,3.3494711,6.6793895,21.7480907,24.2519093
4060,-15.6460285,-2.5426292,3.1699069,5.4198475,23.4427490,70.6259537
4070,-16.1152897,-3.2082138,3.0478032,3.2213740,29.7251911,122.1374054
4080,-16.9652271,-3.9456241,2.7652888,-1.1984733,41.7557259,180.7633514
4090,-18.3131542,-4.8817525,2.3846128,-8.1603050,53.4656487,248.9236603
4100,-19.4049053,-6.3326311,2.1212518,-17.7557259,65.6335907,250.1297760
4110,-19.5772877,-8.4634600,1.9871773,-29.3435116,79.0152664,250.1297760
4120,-18.8398762,-11.4131012,1.7405758,-43.8549614,88.2595444,250.1297760
4130,-16.8790359,-14.5854025,1.4867916,-64.6030502,94.6335907,250.1297760
4140,-13.0818510,-18.5070839,0.9528874,-91.9542007,94.2366409,250.1297760
4150,-9.0667953,-19.6131992,1.5777708,-121.9465637,84.9694672,250.1297760
4160,-4.9583664,-19.6131992,3.3231349,-145.2977142,68.7175598,250.1297760
4170,2.8299320,-19.6131992,5.9184365,-153.8320618,61.2061081,250.1297760
4180,18.6483421,-19.6131992,9.3540983,-143.8320618,132.6335907,250.1297760
4190,19.6126022,-19.6131992,10.6493549,-153.4122162,250.1297760,250.1297760
4200,19.6126022,-19.6131992,12.7801828,-212.4885559,250.1297760,250.1297760
4210,19.6126022,-17.5422268,19.6126022,-250.1374054,250.1297760,250.1297760
4220,19.6126022,-14.7745428,19.6126022,-250.1374054,250.1297760,250.1297760
4230,19.6126022,-12.5958309,19.6126022,-150.1221313,250.1297760,250.1297760
4240,19.6126022,-10.8600435,19.6126022,-12.0229006,250.1297760,250.1297760
4250,19.6126022,-8.3030491,19.6126022,67.1526718,202.8473358,250.1297760
4260,19.6126022,-5.2935529,13.1201582,76.1832047,124.2671738,250.1297760
4270,19.6126022,-1.3287752,10.5296450,47.1221390,82.0381699,250.1297760
4280,19.6126022,2.2289903,10.2782555,0.9618320,62.5572510,138.4274750
4290,19.6126022,3.1507533,11.8009596,-48.2519073,48.8244286,29.8015270
4300,19.6126022,1.6879035,14.8200331,-77.0534363,35.0152664,-46.6641235
4310,19.6126022,-0.1699875,17.8750191,-74.1526718,24.0992374,-80.3282471
4320,18.4927197,-1.0797794,19.2253418,-47.3511467,18.8091602,-85.3664093
4330,16.7545376,-0.9840119,19.1128139,-14.9083967,14.4580154,-80.2900772
4340,16.9987450,-0.3878587,18.4783535,11.2213745,20.1297703,-77.9923630
4350,17.5637741,0.1508339,17.2980194,30.7480907,33.6412201,-83.3816757
4360,18.2293587,0.6823440,15.9931860,41.2748108,43.6870232,-96.7022934
4370,18.6148224,1.1707586,14.9660778,46.0228996,49.3358765,-119.9770966
4380,18.0258522,1.1396341,13.8958759,48.3435097,44.6564903,-150.5801544
4390,17.0466290,0.6560079,12.9549589,50.2595406,20.4809170,-182.9313049
4400,16.7641144,0.0646431,12.3516235,52.6793900,-23.5343513,-218.6030579
4410,17.0657825,-0.2274480,12.5623121,56.5343513,-77.3282471,-250.1374054
4420,17.4703999,-0.5386927,13.1441002,62.3740463,-132.3358765,-250.1374054
4430,17.6834831,-0.9792235,13.8384151,71.5190811,-179.2290039,-250.1374054
4440,18.0019112,-1.7980363,14.2382450,83.8854980,-201.8167877,-250.1374054
4450,17.6858768,-2.5857246,14.0299501,95.9770966,-205.4656525,-250.1374054
4460,16.8790359,-3.6535332,13.1584654,106.1374054,-195.6259613,-250.1374054
4470,14.8750992,-4.7883787,12.2630386,112.3893127,-187.3969421,-250.1374054
4480,12.5766773,-6.0405402,11.3484583,117.9007645,-187.4885559,-250.1374054
4490,9.7970228,-6.7133074,11.1760759,124.0916061,-199.8167877,-250.1374054
4500,7.5704269,-7.0293403,11.1712875,133.4351196,-214.2900696,-250.1374054
4510,6.9742737,-7.1107426,10.8768024,144.9084015,-216.7557220,-250.1374054
4520,5.7388721,-7.0365229,9.6030941,152.6259613,-206.7633514,-250.1374054
4530,3.9192882,-6.9694853,7.9774394,151.3206177,-193.4885559,-250.1374054
4540,1.9464760,-6.9623032,7.1322904,143.4656525,-185.0686951,-250.1374054
4550,0.2322364,-6.7540083,6.8689294,133.8091583,-179.0458069,-250.1374054
4560,-1.4460905,-6.2416520,6.9910331,126.8549652,-174.3969421,-250.1374054
4570,-2.7581062,-5.6335278,6.9886389,123.3206100,-170.9770966,-250.1374054
4580,-3.9264708,-4.9080882,6.8976598,120.4885483,-165.3740387,-250.1374054
4590,-4.9104824,-4.1682839,6.5457139,116.6259537,-156.9770966,-250.1374054
4600,-5.5449429,-3.6248028,5.9423780,110.3816757,-148.0229034,-250.1374054
4610,-6.0932121,-3.2560976,5.3869262,103.2442780,-134.5801544,-250.1374054
4620,-6.6965480,-2.9711890,4.7883787,91.7786255,-114.2977066,-250.1374054
4630,-7.4650826,-2.7868366,4.4148855,78.6870193,-88.3511429,-250.1374054
4640,-8.3676920,-2.7964132,3.9791429,63.9694672,-61.0381660,-250.1374054
4650,-9.0667953,-2.8035958,3.5505829,48.0381660,-35.3969460,-250.1374054
4660,-10.0555954,-2.9089401,3.5074875,32.0534363,-8.9847326,-250.1374054
4670,-11.2239599,-3.0525916,3.7421181,18.7786255,15.2824430,-235.3435059
4680,-12.5742826,-3.3686244,4.0844874,10.2442751,33.1526718,-202.3053436
4690,-13.9772778,-3.3039815,4.4220681,6.1297708,43.0839691,-166.0229034
4700,-15.1384602,-3.4548154,4.4723458,4.6030536,46.3511467,-126.1374054
4710,-15.8662939,-3.8714044,4.2065907,2.5877862,43.1297722,-83.0687027
4720,-16.2493629,-4.1634955,3.9982965,-1.8015267,36.0992355,-36.1984749
4730,-16.2780933,-4.6183915,3.9456241,-7.4580154,33.4885483,13.5496187
4740,-15.8854465,-5.0038562,4.1251884,-13.0916033,37.9465637,63.6793900
4750,-15.2414103,-5.4276276,4.1443419,-18.0076332,50.3129768,113.4274826
4760,-14.7841196,-6.0836353,3.7732425,-25.4503822,68.8778610,164.9541931
4770,-14.4656925,-7.4579000,2.9592183,-36.0992355,94.1145020,220.9389343
4780,-14.9110117,-8.8273764,2.2672975,-54.9618340,133.1374054,250.1297760
4790,-17.0107155,-10.7116032,1.7908537,-80.8244247,180.3664093,250.1297760
4800,-19.6131992,-12.8400383,2.2625091,-108.3740463,219.5572510,250.1297760
4810,-19.6131992,-15.0355101,2.8155668,-132.0839691,241.3206177,250.1297760
4820,-19.6131992,-19.3019562,1.7597293,-160.2977142,231.1374054,250.1297760
4830,-19.6131992,-19.6131992,0.0981618,-198.5801544,180.9770966,250.1297760
4840,-18.2987900,-19.6131992,0.4309541,-245.4580078,107.2442780,250.1297760
4850,-8.3964224,-19.6131992,3.7181761,-250.1374054,20.6870232,250.1297760
4860,10.0101061,-19.6131992,7.6901364,-248.9007568,-27.5038166,250.1297760
4870,19.6126022,-19.6131992,11.3652172,-222.8854980,80.0610657,250.1297760
4880,19.6126022,-19.6131992,14.6931410,-242.9847260,250.1297760,250.1297760
4890,19.6126022,-19.6131992,19.6126022,-250.1374054,250.1297760,250.1297760
4900,19.6126022,-7.7595682,19.6126022,-250.1374054,250.1297760,250.1297760
4910,19.6126022,-1.5610116,19.6126022,-250.1374054,250.1297760,250.1297760
4920,19.6126022,-2.7964132,19.6126022,-100.6259537,250.1297760,116.0229034
4930,19.6126022,-1.6328372,19.6126022,67.7480927,-74.9618301,-14.4809160
4940,19.6126022,0.5817881,19.6126022,160.1374054,-250.1374054,-78.2442780
4950,19.6126022,3.4332676,16.6539822,182.2519073,-250.1374054,-85.1832047
4960,19.6126022,5.7556314,12.5048513,156.2519073,-250.1374054,-68.0152664
4970,19.6126022,6.5696559,8.0205345,101.1145020,-115.4122162,-41.6488533
4980,14.6524391,6.9287844,4.2999644,37.0152664,93.8931274,-8.2061071
4990,10.5248566,6.3853035,3.1244173,-12.8167934,192.4045868,30.1450386
5000,9.8592720,5.8537931,3.5170643,-44.9618340,209.6564941,58.9236641
5010,11.3556404,5.3749552,4.8075323,-63.5190849,176.7709961,66.3206100
5020,13.2566271,5.0565281,7.2208753,-70.5877838,123.8015289,53.3893127
5030,14.8200331,4.7165532,10.0555954,-61.2061081,70.7099228,27.3740463
5040,16.4145622,4.3454537,11.7123747,-39.7557259,33.5419846,-5.4961834
5050,16.7162304,4.0725164,11.9757357,-15.6870232,12.8549614,-42.1526718
5060,15.3874559,3.3231349,11.2119894,4.1526718,-0.8702290,-75.8320618
5070,13.3452120,2.6551561,10.3716288,17.4580154,-15.9312973,-97.5419846
5080,11.7865944,2.3008161,9.6294298,25.3893127,-32.2137413,-108.2061081
5090,10.9797525,2.2984219,9.2176294,28.5648861,-43.2442741,-111.3511429
5100,10.9701757,2.4851687,9.3038206,30.2442741,-48.7709923,-111.6259537
5110,11.6644907,2.7078283,9.5552101,32.8473282,-47.9389305,-113.0076370
5120,12.7586355,3.2273674,9.8353300,36.7480927,-42.3740463,-119.9083939
5130,13.3308468,3.5649481,9.7515335,39.0152664,-36.5725174,-133.6717529
5140,13.5750542,3.7349355,9.5576038,41.5877876,-32.8396950,-153.0076294
5150,13.4266148,3.7612717,9.2990322,43.7786255,-34.9923668,-175.0381622
5160,12.6963863,3.6295912,9.0284882,46.5648842,-40.7099228,-197.0839691
5170,12.1624823,3.3518653,8.8225880,48.8167953,-53.0152664,-216.5267181
5180,11.7961712,3.2130022,8.7842808,50.5419846,-74.1221390,-234.9541931
5190,11.8081427,2.9424589,9.2152348,53.6564903,-95.6412201,-250.1374054
5200,11.7865944,2.8754215,9.9047613,58.5114517,-115.6106873,-250.1374054
5210,11.8272963,2.6695213,10.4123297,65.3358765,-130.3893127,-250.1374054
5220,11.7578640,2.4444675,10.4266949,73.2824402,-134.9160309,-250.1374054
5230,11.6501255,2.1380112,9.9789820,78.9312973,-128.3206177,-250.1374054
5240,11.1305866,1.7477583,9.3277617,82.0305328,-117.2442780,-250.1374054
5250,10.0436249,1.0821736,8.8154058,82.9923630,-106.8473282,-250.1374054
5260,8.8369532,0.3926471,8.4299412,85.0457993,-105.9312973,-250.1374054
5270,7.8577299,-0.1867468,8.2216463,89.1908417,-113.0381699,-250.1374054
5280,6.6702118,-0.5458752,7.8792777,94.5496216,-129.4503784,-250.1374054
5290,5.7604198,-0.9600700,7.6542239,97.9847336,-147.0992432,-250.1374054
5300,4.6495161,-1.4341195,7.4411407,101.1145020,-162.3664093,-250.1374054
5310,3.2177906,-1.7477583,7.6398587,100.4045792,-169.9313049,-250.1374054
5320,1.5514348,-1.9368993,7.8673067,97.3282471,-172.3206177,-250.1374054
5330,0.0071826,-2.2074428,8.1378498,97.1908417,-168.4961853,-250.1374054
5340,-1.3359578,-2.4205256,8.2240410,97.5572510,-159.9313049,-250.1374054
5350,-2.4851687,-2.4731977,7.7595682,101.2595444,-147.3053436,-250.1374054
5360,-3.5864959,-2.5785420,7.1921453,100.8854980,-132.7404633,-250.1374054
5370,-4.5537481,-2.6719155,6.5720501,97.2977066,-116.3893127,-250.1374054
5380,-5.5281835,-2.7988074,5.8418221,89.2900772,-96.1450348,-250.1374054
5390,-6.5720501,-2.8993635,5.0972295,79.2290039,-68.1908417,-250.1374054
5400,-7.6207051,-2.9304879,4.5465660,67.0457993,-41.5114517,-250.1374054
5410,-8.8824425,-2.8849983,4.2903876,53.3893127,-16.1374054,-250.1374054
5420,-10.1322098,-2.9304879,4.2281384,41.6946564,8.0992365,-250.1374054
5430,-11.4466200,-2.9328821,4.1611013,31.1450386,28.8396950,-250.1374054
5440,-12.7849712,-2.8802099,4.1060348,22.0992374,40.9694672,-217.0229034
5450,-14.2047262,-2.8706331,4.2018023,14.4732828,47.2137413,-178.6335907
5460,-15.5191364,-3.0310438,4.2855992,9.0992365,49.7404594,-134.6335907
5470,-16.5151196,-3.2034254,4.1443419,4.7709923,52.5801544,-84.6717529
5480,-16.9460735,-3.4715748,3.7636659,-2.1221373,51.5648842,-34.1603050
5490,-17.1830978,-3.8259149,3.5673423,-11.5648851,47.9389305,19.5343513
5500,-17.5254669,-4.4843168,3.6008608,-22.2213745,51.7328262,77.1755753
5510,-17.6427822,-5.3031297,3.6966286,-34.5648842,60.7938919,140.3435059
5520,-17.9229031,-6.5002246,3.5170643,-46.4503822,78.4274826,208.0534363
5530,-19.0409889,-8.0277176,3.4093258,-60.4351158,98.7022934,250.1297760
5540,-19.6131992,-9.5743637,3.5817075,-75.8244247,125.5496216,250.1297760
5550,-19.6131992,-12.3061342,4.1539187,-89.4885483,157.3969421,250.1297760
5560,-19.6131992,-15.5550489,4.3047528,-101.5954208,181.4045868,250.1297760
5570,-19.6131992,-19.4216652,3.4476328,-116.3435135,164.8244324,250.1297760
5580,-18.3969517,-19.6131992,2.4492557,-127.4122162,94.9083939,250.1297760
5590,-14.0012197,-19.6131992,1.8435259,-138.4274750,28.1450386,250.1297760
5600,-6.9527264,-19.6131992,2.9592183,-141.5648804,-35.6946564,250.1297760
5610,5.1690550,-19.6131992,5.4563580,-119.7404556,-80.7251892,250.1297760
5620,19.6126022,-19.6131992,7.6183109,-77.9542007,-7.2824426,250.1297760
5630,19.6126022,-19.6131992,8.3245964,-78.9236679,228.7022858,250.1297760
5640,19.6126022,-19.6131992,11.8727856,-162.3740387,250.1297760,250.1297760
5650,19.6126022,-18.2580891,19.6126022,-250.1374054,250.1297760,250.1297760
5660,19.6126022,-7.5632443,19.6126022,-250.1374054,250.1297760,250.1297760
5670,19.6126022,-6.5289545,19.6126022,-165.1297760,250.1297760,250.1297760
5680,19.6126022,-5.3342543,19.6126022,-44.8320618,246.3129730,202.1908417
5690,19.6126022,-0.7421987,16.8479118,33.2366409,-186.4656525,69.7786255
5700,19.6126022,2.0518203,15.6005383,74.2671738,-250.1374054,-26.9312973
5710,19.6126022,3.6990228,15.5358953,89.5954208,-250.1374054,-77.1068726
5720,19.6126022,4.4460096,13.7091284,87.4274826,-250.1374054,-88.7938919
5730,18.0976772,4.1347651,9.6342182,72.0687027,-164.2900696,-64.8854980
5740,12.7993364,4.1754665,5.6071916,45.4656487,-38.4198456,-18.0076332
5750,11.2718439,4.3909435,3.6966286,16.0687027,40.1068687,30.3893127
5760,12.9932661,4.5848727,3.4883339,-14.0381680,91.0152664,61.7633591
5770,15.4425220,4.7021880,4.8649931,-39.8549614,121.5038147,68.2595444
5780,16.8311520,4.4651632,7.1897511,-51.7328262,133.2900696,55.1068687
5790,17.0681763,3.9839313,9.0835552,-43.8244286,118.5267181,31.1984730
5800,16.9819851,3.4380560,9.7204094,-24.8396950,86.8015289,0.3664122
5810,16.2086620,3.1746953,9.0500364,-5.4122138,45.3816795,-33.1526718
5820,14.5375185,2.4205256,7.5632443,14.5038166,-28.9083977,-88.8625946
5830,13.6875811,2.1188576,7.1490498,14.6412210,-49.3282433,-107.5190811
5840,12.8328552,1.8866212,7.3501616,11.4198475,-61.8473282,-119.6259537
5850,12.3995075,1.8435259,7.9319496,10.0839691,-65.2442780,-125.6717529
5860,12.2702208,1.8171898,8.5281029,13.1679392,-62.6946564,-127.1755753
5870,12.3995075,2.1284344,8.5209198,18.3282452,-54.0000000,-126.2366409
5880,12.9429884,2.6790979,8.1833391,20.9923668,-35.3893127,-125.5267181
5890,13.6851873,3.1579359,7.3788919,20.4961834,-11.7022905,-128.5496216
5900,14.0945930,3.4476328,6.6390872,15.2595415,4.0610685,-138.5190887
5910,14.0802279,3.4069316,6.4667058,7.6793895,6.9465647,-154.0610657
5920,14.5399122,3.3470769,6.7492199,1.6564885,-0.5114504,-174.7786255
5930,15.1408539,3.0597742,7.4387465,1.6488550,-19.0000000,-200.7480927
5940,16.0482521,2.8969693,8.1019373,5.3053436,-49.1908379,-234.2290039
5950,16.1128960,2.7485294,8.8249826,11.0229006,-81.7022934,-250.1374054
5960,15.4927998,2.3127871,9.4115591,18.0305347,-102.3511429,-250.1374054
5970,14.3028879,1.6735384,9.5743637,25.7404575,-114.2595444,-250.1374054
5980,13.2494440,1.3431402,9.0835552,31.6946564,-119.5343475,-250.1374054
5990,12.8520088,1.1420283,8.7459745,34.8702278,-120.1374054,-250.1374054
6000,12.2510672,1.1300575,8.5017672,36.0687027,-116.9465637,-250.1374054
6010,11.7171631,1.1755470,8.3772688,36.6259537,-109.1755753,-250.1374054
6020,10.7930059,1.2928623,8.1378498,38.0305328,-104.1221390,-250.1374054
6030,9.6605549,1.3215926,7.9630742,39.1145020,-104.2519073,-250.1374054
6040,8.4850073,1.2473727,7.8122401,39.6564903,-112.2213745,-250.1374054
6050,7.5512733,1.1635761,7.8433647,40.5877876,-122.6412201,-250.1374054
6060,6.9168134,1.0055596,8.0348997,41.8091621,-125.5648880,-250.1374054
6070,6.0956063,0.9648584,8.0396881,43.2442741,-124.7709961,-250.1374054
6080,5.0684991,0.6440369,8.1641865,44.6564903,-130.4351196,-250.1374054
6090,4.3454537,0.4477134,8.8441362,49.5725174,-143.6335907,-250.1374054
6100,3.3686244,-0.0335187,9.1960821,58.6106873,-152.1297760,-250.1374054
6110,2.0829449,-0.6248835,9.0476418,67.6641235,-153.4045868,-250.1374054
6120,0.8619082,-1.1516051,8.5711985,72.3511429,-150.2900696,-250.1374054
6130,-0.5315101,-1.7621235,8.3964224,73.2061081,-145.0229034,-250.1374054
6140,-2.2672975,-2.6647329,8.2527714,71.6793900,-131.2748108,-250.1374054
6150,-4.0820932,-3.5122759,8.1019373,68.9618301,-117.9923630,-250.1374054
6160,-5.9016771,-4.0557570,7.9175844,65.9312973,-105.5954208,-250.1374054
6170,-7.5225434,-4.4292507,7.7763271,61.8931313,-101.6030502,-250.1374054
6180,-8.4706421,-4.3334827,7.7739329,55.7938919,-88.1068726,-250.1374054
6190,-10.1178446,-4.2951760,8.0899658,48.8244286,-65.1068726,-250.1374054
6200,-11.5184450,-4.1347651,8.6262646,43.5419846,-40.2213745,-250.1374054
6210,-12.7562418,-4.0246325,8.8489246,40.9923668,-11.5801525,-231.7251892
6220,-13.3859129,-4.2065907,8.6454182,41.6793900,12.6564884,-185.3816833
6230,-12.8328552,-4.2257442,7.9894104,44.0458031,23.4274807,-140.6793823
6240,-11.9685535,-5.0325861,6.9814563,45.3587799,29.5877857,-99.1374054
6250,-10.7786407,-5.7316895,5.7556314,43.8702278,31.5648861,-60.2519073
6260,-9.6940727,-6.2967181,4.7572546,39.7328262,42.1832047,-25.3969460
6270,-9.5935173,-6.9670911,4.0844874,34.0610695,54.3435097,6.9923663
6280,-10.4434547,-7.7356262,3.7516949,28.4961834,63.4122124,43.3816795
6290,-12.2175484,-8.9399033,3.5194585,25.0916023,73.4732819,89.3893127
6300,-14.6284971,-9.5025377,3.9647777,24.1450386,82.8625946,146.4427490
6310,-17.2501354,-10.5416164,4.8195033,27.6641216,92.1603088,216.0686951
6320,-19.6131992,-12.1145983,5.6742291,35.8702278,105.7557220,250.1297760
6330,-19.6131992,-14.8008795,6.0956063,48.9847336,109.4274826,250.1297760
6340,-19.6131992,-18.1838684,5.4515696,69.1145020,74.7786255,250.1297760
6350,-17.8103752,-19.6131992,3.4548154,92.4656525,25.4503822,250.1297760
6360,-11.8823624,-19.6131992,0.7757174,101.6259537,-1.6870229,250.1297760
6370,-3.6726866,-19.6131992,-0.3519458,97.8320618,34.9389305,250.1297760
6380,4.7381010,-19.6131992,0.2418131,68.5190811,145.8702240,250.1297760
6390,14.5207586,-19.6131992,1.3120158,26.0763359,250.1297760,250.1297760
6400,19.6126022,-19.6131992,3.3279233,-39.6946564,250.1297760,250.1297760
6410,19.6126022,-19.6131992,9.0308828,-121.2442780,250.1297760,250.1297760
6420,19.6126022,-19.6131992,16.6611652,-165.0305328,250.1297760,250.1297760
6430,19.6126022,-19.6131992,19.6126022,-106.7709961,250.1297760,250.1297760
6440,19.6126022,-19.2420998,19.6126022,27.7480907,179.6183167,250.1297760
6450,19.6126022,-7.1442614,19.6126022,140.8244324,110.0763321,250.1297760
6460,19.6126022,0.7158626,7.2184811,179.1908417,-30.6870232,250.1297760
6470,19.6126022,2.4037662,-3.6583214,151.2061005,-188.5954132,112.5267181
6480,19.6126022,2.6982515,-6.5672617,82.5114517,-250.1374054,44.4427490
6490,19.6126022,3.8450682,-2.2385671,13.9389315,-231.0076294,38.3740463
6500,19.6126022,5.0445571,3.6726866,-17.7709923,-91.4809189,53.5496178
6510,19.6126022,5.4994531,6.2392578,-14.6870232,63.7175560,77.4503784
6520,19.6126022,5.8968887,5.2911587,2.2290077,162.8778687,99.0534363
6530,19.6126022,6.5912037,2.3702476,7.5419846,201.5954132,106.4961853
6540,19.6126022,7.1131368,0.4572902,2.2748091,200.3893127,91.7022934
6550,19.6126022,7.5033898,-0.6057299,-6.9007635,157.0915985,56.8091621
6560,19.6126022,7.8768835,-0.3088504,-16.9083977,88.2442780,2.0839694
6570,19.6126022,7.0628591,0.2920911,-24.5343513,18.1221371,-55.7862587
6580,19.6126022,5.9447722,1.1468167,-29.5419846,-36.0763359,-97.9618301
6590,18.0234585,4.6590929,2.0254843,-34.6259537,-73.9618301,-122.0992355
6600,16.3834381,3.7756367,3.3087699,-38.6488533,-83.1603088,-132.9618378
6610,15.6220865,3.3734128,4.5609307,-38.3282433,-76.2671738,-135.2595367
6620,15.4090033,3.1603301,5.3222833,-32.5725174,-61.5267181,-134.7786255
6630,14.7625723,3.1723011,5.5210009,-26.0000000,-49.6259537,-135.0152740
6640,14.9253769,3.3327117,5.3366485,-19.3206100,-41.9618340,-136.5725250
6650,15.7944679,3.6271970,5.1666608,-15.2366409,-38.7862587,-143.1603088
6660,17.0202923,3.9959023,5.0924411,-13.7328243,-37.0839691,-155.7480927
6670,18.3418846,4.3526363,5.0732875,-14.0229006,-27.5877857,-173.6412201
6680,19.0816898,4.4100971,4.9224534,-14.8167934,-12.1984730,-195.8854980
6690,19.6126022,4.5298066,4.7141590,-16.2671757,5.2442746,-223.5038147
6700,19.6126022,4.3550305,4.5202298,-19.0305347,16.3129768,-250.1374054
6710,19.6126022,3.5984666,4.5322008,-22.4274807,17.6564884,-250.1374054
6720,19.0098648,2.4851687,5.1379304,-22.9618320,5.6793895,-250.1374054
6730,17.1328201,1.7525467,6.1985564,-17.2900772,-17.5038166,-250.1374054
6740,15.8806591,1.2641320,7.1729918,-4.4198475,-42.3664131,-250.1374054
6750,15.4784346,1.1109039,7.6638002,11.5801525,-56.6259537,-250.1374054
6760,14.3507719,1.0678085,7.1514440,26.4274807,-56.0228996,-250.1374054
6770,13.0363617,0.8523315,5.7532372,34.7099228,-53.6412201,-250.1374054
6780,11.4873209,0.7493813,5.0613165,33.1221390,-49.0992355,-250.1374054
6790,9.4211359,0.3399749,4.9032998,29.5648861,-42.5114517,-250.1374054
6800,7.3357964,-0.2322364,4.9966736,32.4809151,-49.0763359,-250.1374054
6810,4.9080882,-0.5339043,5.0996237,39.7328262,-70.0152664,-250.1374054
6820,3.6415622,-0.2346306,5.2767935,48.9389305,-90.1603088,-250.1374054
6830,3.4093258,0.0263361,4.8506279,55.8702278,-99.1526718,-250.1374054
6840,2.7509236,0.0933734,4.2736282,55.0000000,-90.7175598,-250.1374054
6850,1.5777708,0.1125269,3.7923961,49.6793900,-79.3053436,-250.1374054
6860,0.2992737,0.0718257,3.6032550,44.0381660,-69.2290039,-250.1374054
6870,-0.8547257,0.1604107,3.3566537,39.2061081,-66.6641235,-250.1374054
6880,-1.9656296,0.1292862,3.5936785,35.3206100,-66.0381699,-250.1374054
6890,-2.7413468,0.1221037,3.6104376,33.6946564,-63.1984749,-250.1374054
6900,-3.3901722,-0.0095768,3.3662305,30.7633591,-58.1221390,-250.1374054
6910,-4.4005203,-0.1101327,2.9759774,25.4656487,-51.2977104,-250.1374054
6920,-5.0230093,-0.3806761,2.9927368,18.7404575,-41.6106873,-250.1374054
6930,-5.6694407,-0.5674229,3.1483591,12.1755724,-26.5572510,-250.1374054
6940,-6.3086891,-0.7326220,3.6511390,6.9465647,-13.2213745,-250.1374054
6950,-6.9862447,-1.1204807,4.0749106,4.0076337,-3.3664122,-250.1374054
6960,-7.9367380,-1.7046629,4.5729017,3.8473282,3.8396947,-239.3129730
6970,-8.9734221,-2.3175755,5.1762376,6.8015265,9.3129768,-223.4885559
6980,-10.6589317,-3.1483591,5.9639258,13.6412210,16.1374054,-201.2977142
6990,-12.0691090,-3.6056492,6.5935979,24.8931293,23.4427490,-174.1755676
7000,-13.3691540,-3.9959023,6.3733325,39.3816795,28.7328243,-145.0152740
7010,-14.7458124,-4.2065907,6.2177100,52.9236641,23.3816795,-113.2900772
7020,-16.0434628,-4.5274124,6.6007805,68.8549652,13.3664122,-77.8091583
7030,-17.1328201,-4.8290801,6.0812411,83.1450348,7.5954199,-37.6183205
7040,-18.0043049,-5.2001796,5.5042415,93.7099228,11.2366409,6.5267177
7050,-18.9476147,-5.6862001,4.4220681,97.4351120,18.2061062,57.0687027
7060,-19.1966114,-6.2464404,3.4955165,95.2061081,28.2061062,114.0839691
7070,-19.2373123,-6.4523406,1.1348459,88.3664093,10.7862597,172.2061005
7080,-17.7146072,-7.3429790,0.6560079,77.0534363,-10.4198475,224.7022858
7090,-16.6803188,-8.9710283,1.2473727,64.2137375,-13.3816795,250.1297760
7100,-17.9181137,-10.9797525,2.4947455,51.6412201,55.9007645,250.1297760
7110,-15.2701406,-12.9358053,-0.0287303,30.4427490,60.0381660,250.1297760
7120,-14.1017761,-14.2669754,2.3606708,9.4885492,86.9694672,250.1297760
7130,-12.7203283,-16.4720230,3.6319854,-5.8625956,131.2977142,250.1297760
7140,-12.0499554,-19.4360294,4.4627690,-25.2442741,193.0458069,250.1297760
7150,-10.5607700,-19.6131992,5.2360926,-54.3816795,250.1297760,250.1297760
7160,-7.7188668,-19.6131992,6.0261750,-77.1145020,250.1297760,250.1297760
7170,-4.4555864,-19.6131992,7.6446471,-88.5801544,250.1297760,250.1297760
7180,3.0238612,-19.6131992,10.2830439,-89.9847336,241.7022858,250.1297760
7190,14.4249916,-19.6131992,13.2398672,-77.5572510,250.1297760,250.1297760
7200,19.6126022,-19.6131992,15.7370071,-65.1450348,250.1297760,250.1297760
7210,19.6126022,-19.6131992,15.8710823,-75.4732819,250.1297760,250.1297760
7220,19.6126022,-16.2134514,17.8367119,-112.5801544,250.1297760,250.1297760
7230,19.6126022,-8.9183559,19.6126022,-132.9541931,250.1297760,250.1297760
7240,19.6126022,-4.9799142,19.6126022,-105.3129807,250.1297760,250.1297760
7250,19.6126022,-2.0446377,16.0434628,-31.8244267,95.4885483,250.1297760
7260,19.6126022,-1.1156923,8.9494801,18.1984730,-231.3358765,174.0839691
7270,19.6126022,-1.2258250,6.3733325,20.3282452,-250.1374054,124.2977066
7280,19.6126022,-1.1516051,9.0021524,15.7786255,-250.1374054,114.4503784
7290,19.6126022,-0.0694315,11.4466200,20.4122143,-250.1374054,121.8625946
7300,19.6126022,1.6902977,11.3819771,24.1145039,-141.0381622,129.1374054
7310,19.6126022,3.2920105,9.0093346,20.8778629,62.5038185,128.6030579
7320,19.6126022,4.5944495,5.4060798,3.7557251,208.7633514,114.3206100
7330,19.6126022,4.8649931,3.3470769,-19.4503822,250.1297760,93.8473282
7340,19.6126022,4.5657191,2.7533178,-35.3206100,250.1297760,68.7328262
7350,19.6126022,4.5010762,2.5593886,-40.3740463,217.6183167,39.5343513
7360,19.5365868,4.5465660,2.4708035,-41.7862587,136.6564941,3.7022901
7370,18.5669384,4.4531922,2.9161227,-44.3587799,60.4198456,-34.6870232
7380,17.0083218,4.1108232,3.8067613,-47.2366409,8.5419846,-66.0000000
7390,14.9612904,3.6248028,4.7381010,-47.7633591,-15.3129768,-85.9694672
7400,12.7706070,2.7844424,5.5114241,-45.0076332,-21.7938938,-93.7328262
7410,10.9605989,2.4684093,6.1602492,-38.4809151,-19.5572510,-92.4580154
7420,9.5767574,2.2170193,6.5145893,-29.2213745,-14.0610685,-85.8015289
7430,8.5233145,1.9201399,6.6558466,-19.4274807,-10.0076332,-76.1908417
7440,7.7763271,1.8626794,6.5576849,-8.2366409,-5.2824426,-65.1145020
7450,7.0556765,1.9105632,5.7867560,5.3587785,5.2595420,-38.2824440
7460,6.9694853,2.0661855,5.6095858,10.4351149,12.0916033,-28.9007626
7470,6.6151457,1.8985922,5.1666608,16.1679382,15.3740454,-21.9236641
7480,6.3062949,1.9177457,4.8697815,21.0610695,12.9770994,-15.1603050
7490,6.2033448,2.0566087,4.6614871,24.1297703,7.1603055,-9.7938929
7500,6.4212160,2.1954718,4.2257442,25.2671757,1.6793894,-6.7251906
7510,6.7803445,2.2361729,3.3111639,9.8625956,-0.5954198,-5.7786260
7520,6.7396431,2.0087249,3.3327117,1.4656489,2.0610688,-6.0916033
7530,6.4236102,1.8028246,3.5314295,-7.5343513,2.4656489,-5.4045801
7540,6.1554613,1.0917504,4.4603748,-19.5419846,2.1603053,3.9007633
7550,8.4802189,1.4796091,6.0980005,-18.0992374,10.6641226,25.1374054
7560,9.0739784,1.5274929,6.1865854,-17.6717548,18.6717548,23.0687027
7570,9.3397331,1.5298871,6.1339135,-18.3893127,26.0763359,19.0534344
7580,9.1984758,1.4029950,6.1243367,-19.8473282,27.9541988,15.2137403
7590,9.1458035,1.4053892,6.3110833,-19.9541988,24.4885502,11.9083967
7600,8.9614515,1.3311694,6.6773944,-11.6564884,4.7099237,5.9770994
7610,9.2104464,1.5227045,6.6534524,-7.2977099,0.7251908,6.4274807
7620,9.8568783,1.6160779,6.5313487,-3.8244274,0.7480916,7.1755724
7630,10.3788109,1.8674678,6.3733325,-1.6106870,7.2671757,7.0000000
7640,12.4497852,2.1212518,5.4994531,-5.4198475,31.1526718,-2.0152671
7650,13.1369171,2.0805507,5.2959471,-10.4809160,41.4122124,-9.5877867
7660,13.5104113,2.0206959,5.3605900,-15.8167934,47.1297722,-18.4351139
7670,14.2238798,1.9105632,5.4084740,-19.8167934,46.6946564,-27.8320618
7680,15.8303804,1.8794388,5.6454988,-22.1221371,42.7709923,-38.4503822
7690,17.3818150,1.7764885,5.7245069,-25.4198475,40.5267181,-52.8702278
7700,18.5310268,1.7070571,5.7891502,-31.0076332,35.4656487,-71.1984711
7710,19.6126022,2.0206959,6.3853035,-38.2671738,29.0152664,-94.2671738
7720,19.6126022,2.1954718,7.0724359,-42.7709923,24.1984730,-121.8244247
7730,19.6126022,2.0542145,7.4770536,-45.3740463,16.3358784,-152.9465637
7740,19.6126022,2.0446377,7.9151902,-45.8778610,3.0992367,-189.2442780
7750,19.6126022,2.0087249,8.6549950,-44.5267181,-10.2900763,-230.4351196
7760,19.6126022,1.4748207,9.3708572,-41.8320618,-26.2748089,-250.1374054
7770,19.6126022,0.8068419,10.2710724,-38.3435097,-49.5801544,-250.1374054
7780,19.6126022,0.4070122,11.6285782,-32.1984749,-74.7786255,-250.1374054
7790,19.6126022,0.1891410,13.1680422,-21.1832066,-97.2900772,-250.1374054
7800,19.6126022,-0.3303981,14.1831779,-5.0916033,-109.7099228,-250.1374054
7810,19.1032372,-0.8786675,14.5734310,15.2977095,-107.2213745,-250.1374054
7820,17.5661678,-1.1947005,14.0227680,37.2137413,-95.1526718,-250.1374054
7830,16.2756996,-1.7333932,12.9190464,55.5343513,-75.9312973,-250.1374054
7840,13.9485474,-2.5665710,11.5280218,69.7251892,-55.8702278,-250.1374054
7850,11.3532467,-3.0334380,10.5487986,80.7022934,-43.5801544,-250.1374054
7860,9.3038206,-3.2537034,9.7371683,91.6488571,-38.2442741,-250.1374054
7870,7.1155310,-3.8283088,8.7292147,101.1297684,-35.9694672,-250.1374054
7880,4.8554163,-4.5345950,8.2599535,108.9160309,-37.5190849,-250.1374054
7890,2.8083842,-5.0014620,7.9271612,117.3282471,-44.1297722,-250.1374054
7900,1.1827296,-5.4826937,7.8816719,128.3740387,-56.6564903,-250.1374054
7910,-0.1053443,-6.0046272,7.2208753,140.6030579,-68.7709961,-250.1374054
7920,-1.1875180,-6.5121951,6.3230543,149.6946564,-76.0000000,-250.1374054
7930,-2.1619530,-7.1418672,5.1786318,152.2748108,-75.0305328,-250.1374054
7940,-2.8682389,-8.0013809,4.2401094,146.6412201,-64.6183243,-250.1374054
7950,-3.0214672,-9.1051025,2.7676830,133.8167877,-31.4961834,-250.1374054
7960,-3.6415622,-10.6206245,1.8435259,116.3511429,20.8854961,-250.1374054
7970,-6.3422079,-11.8512383,1.0917504,98.2900772,74.8854980,-250.1374054
7980,-10.6589317,-12.6772327,0.6344602,81.1755753,115.5038147,-250.1374054
7990,-14.4537220,-12.8927097,0.2370248,68.8320618,134.9007568,-250.1374054
8000,-17.3698444,-12.3588057,0.1843526,61.8702278,137.9923706,-250.1374054
8010,-19.5940456,-11.2311430,0.1819584,60.9389305,125.2824402,-250.1374054
8020,-19.6131992,-10.0292597,0.2178712,63.3893127,98.5419846,-215.5572510
8030,-19.6131992,-8.8824425,-0.1939293,61.7328262,58.6106873,-141.6259613
8040,-19.6131992,-7.7212610,-0.7493813,52.8778610,15.7557249,-59.8167953
8050,-19.6131992,-7.3310080,-1.1372399,39.0763359,-15.7099237,25.3816795
8060,-19.6131992,-7.2424231,-1.3958124,19.8396950,-29.2748089,110.9465637
8070,-19.6131992,-7.7571740,-1.9105632,-4.6793895,-22.5267181,191.2061005
8080,-17.8103752,-8.8177996,-2.1906834,-36.3664131,-0.9236641,250.1297760
8090,-15.0905762,-10.1082678,-2.1523764,-70.0457993,23.2061062,250.1297760
8100,-12.6868095,-11.6764622,-1.8554969,-102.9847336,44.3129768,250.1297760
8110,-11.8177195,-13.3811245,-1.5250987,-132.1374054,57.4045792,250.1297760
8120,-11.4873209,-16.0530396,-1.0486550,-159.0992432,62.1679382,250.1297760
8130,-11.0803089,-18.6507359,0.0790083,-183.5725250,60.6335869,250.1297760
8140,-9.3971939,-19.6131992,2.0398495,-201.9694672,56.7633591,250.1297760
8150,-8.0301113,-19.6131992,4.3598189,-211.2519073,62.5954208,250.1297760
8160,-6.1961622,-19.6131992,6.3781209,-213.7328186,63.6335869,250.1297760
8170,-1.1444225,-19.6131992,8.0013809,-206.1603088,34.9160309,250.1297760
8180,5.5760674,-19.6131992,9.8832140,-184.9847260,7.4885497,250.1297760
8190,19.4599724,-19.6131992,12.8352499,-151.8854980,47.4580154,250.1297760
8200,19.6126022,-19.6131992,13.3691540,-138.6106873,231.2595367,250.1297760
8210,19.6126022,-19.6131992,11.6118193,-213.8931274,250.1297760,250.1297760
8220,19.6126022,-14.5686426,16.4480820,-250.1374054,250.1297760,250.1297760
8230,19.6126022,-9.0500364,19.6126022,-250.1374054,250.1297760,250.1297760
8240,19.6126022,-5.5736732,19.6126022,-250.1374054,250.1297760,250.1297760
8250,19.6126022,-3.2967989,19.6126022,-95.8320618,144.9236603,243.4427490
8260,19.6126022,-0.3950413,19.6126022,16.9541988,-207.0229034,119.7022934
8270,19.6126022,1.2377959,18.2485123,68.2213745,-250.1374054,40.4503822
8280,19.6126022,1.9776005,16.3259773,81.8854980,-250.1374054,17.8625946
8290,19.1774578,2.1595588,15.5095596,85.5114517,-250.1374054,29.7480907
8300,17.1902809,2.5019281,13.8862991,86.5496216,-250.1374054,60.8778610
8310,17.9157200,3.1268115,11.4035244,83.6717529,-149.2671814,97.3053436
8320,19.6126022,3.4452386,8.4083929,68.9770966,18.5343513,125.4885483
8330,19.6126022,7.9918046,7.5201492,42.0916023,89.4503784,127.2977066
8340,19.6126022,7.4004397,4.8697815,14.0000000,182.1221313,60.3816795
8350,19.6126022,6.5983863,2.9328821,-8.5114508,209.4198456,6.2900763
8360,16.1344433,5.9184365,2.4420733,-27.9465656,173.1145020,-15.6106873
8370,12.9334116,4.4699516,3.4739690,-35.6870232,122.6488571,-29.2137413
8380,11.3604288,3.7876077,4.6854286,-31.0763359,71.5114517,-39.2595406
8390,11.7387114,3.7397239,5.9663200,-23.5267181,27.1679382,-48.8854980
8400,12.4378138,3.2225790,6.6366930,-13.2748089,-5.7404580,-66.3664093
8410,11.4442253,2.5354466,6.5816269,-4.3435116,-27.4961834,-83.8473282
8420,10.3788109,2.0949159,6.5361371,-2.0610688,-41.1374054,-90.3129807
8430,10.6780853,1.5873476,6.9934273,-3.1755726,-44.9923668,-90.7404556
8440,11.3747940,1.4867916,7.7212610,-4.4503818,-39.6183205,-90.5267181
8450,11.9158812,1.6256547,8.2934723,-5.4885497,-24.7328243,-90.7633591
8460,12.4880924,1.8124014,8.8417416,-6.1526718,-7.4656487,-92.5419846
8470,13.5630836,1.8602852,9.1074963,-5.8854961,11.1832066,-97.0229034
8480,14.6069498,2.2265961,9.3038206,-5.4351144,30.1984730,-105.1221390
8490,16.0243092,2.5689652,9.7587166,-4.9465647,42.4274826,-117.6717529
8500,17.3554802,2.7533178,10.1968527,-2.7709923,44.0076332,-137.0305328
8510,19.0625362,3.0789278,10.6876621,3.5801528,34.5114517,-166.7022858
8520,19.6126022,3.2106080,11.2095947,12.6717558,16.7862587,-205.8702240
8530,19.6126022,3.2896163,11.3053627,22.6793900,-10.4656487,-250.1374054
8540,19.6126022,2.6240315,11.5495701,31.2213745,-39.0228996,-250.1374054
8550,19.6126022,1.8004304,11.5950594,37.5877876,-59.0610695,-250.1374054
8560,19.3402615,0.8212070,11.9110928,44.5038185,-64.8778610,-250.1374054
8570,18.5214500,-0.0598547,11.9541883,53.6946564,-60.6106873,-250.1374054
8580,16.9221306,-0.8619082,11.7411051,65.8549652,-54.4427490,-250.1374054
8590,14.4561157,-1.6519908,11.4466200,78.6793900,-53.1832047,-250.1374054
8600,12.0810804,-2.2289903,10.9725704,91.0229034,-56.6946564,-250.1374054
8610,10.8672256,-2.6120608,10.2806492,99.5190811,-58.8931313,-250.1374054
8620,9.3540983,-2.8419030,9.3349447,108.7099228,-57.5343513,-250.1374054
8630,7.0963774,-3.0669568,8.4658537,112.7709961,-57.6641235,-250.1374054
8640,4.8961172,-2.9807658,8.0157461,114.7099228,-59.8854980,-250.1374054
8650,3.4021432,-3.0669568,7.8505473,118.5648880,-61.2977104,-250.1374054
8660,2.0159075,-3.1866663,7.7260494,124.9160309,-69.0534363,-250.1374054
8670,0.9888002,-2.9185169,7.4890246,132.9236603,-78.7786255,-250.1374054
8680,-0.2489957,-2.9424589,6.9838505,139.6335907,-88.0534363,-250.1374054
8690,-1.4365137,-3.0573800,6.2296810,142.8702240,-91.6717529,-250.1374054
8700,-2.2601149,-3.1603301,5.5521255,142.1374054,-94.0763321,-250.1374054
8710,-2.8921809,-3.2944047,4.8290801,138.1679382,-95.3587799,-250.1374054
8720,-3.7516949,-3.5266411,4.2089849,130.5419922,-92.7328262,-250.1374054
8730,-4.5082588,-3.9839313,3.5625539,117.9542007,-86.8549652,-250.1374054
8740,-5.6431046,-4.4340386,3.2800395,100.1068726,-78.9542007,-250.1374054
8750,-6.8330169,-5.1020179,3.4979107,84.6488571,-66.7480927,-250.1374054
8760,-8.4706421,-5.6814117,3.8259149,69.2977066,-50.0076332,-250.1374054
8770,-10.4434547,-6.2201042,4.1347651,56.1603050,-27.9160309,-250.1374054
8780,-12.7203283,-6.5361371,4.0605454,44.3969460,-4.3358779,-250.1374054
8790,-15.0498753,-6.7276726,4.4555864,35.5038185,12.6335878,-248.1603088
8800,-17.0849361,-6.8306227,4.8530221,32.3664131,23.2671757,-204.2900696
8810,-18.5190563,-6.8282285,4.9703374,34.3740463,27.4045811,-154.9160309
8820,-19.4336357,-6.7037306,4.4843168,37.9007645,25.9465656,-102.0457993
8830,-19.6131992,-6.7420373,3.9192882,40.7557259,12.2366409,-47.4580154
8840,-19.4072990,-7.0317345,3.3758070,42.0076332,-6.3358779,7.2824426
8850,-18.1479568,-7.4770536,2.9256995,42.0305328,-20.2366409,62.2824440
8860,-16.4121685,-7.8577299,2.3103929,40.1526718,-25.6106873,114.3969498
8870,-14.4130201,-8.3245964,1.9991482,35.5801544,-19.9847336,163.8931274
8880,-12.7562418,-8.8944139,1.9249283,30.8854961,-4.3740458,209.3053436
8890,-11.4346485,-9.5145092,1.8866212,26.2366409,16.7709923,250.1297760
8900,-10.5033092,-10.0244713,1.6735384,22.6717548,42.5877876,250.1297760
8910,-10.4482431,-10.7116032,0.9193687,16.7557259,70.7022934,250.1297760
8920,-11.4178896,-11.9134865,-0.6751614,5.1297708,94.7709961,250.1297760
8930,-12.2917690,-13.0890341,-1.9560528,-15.9236641,109.7022934,250.1297760
8940,-13.4337969,-14.8056679,-3.1746953,-49.6946564,122.4961853,250.1297760
8950,-13.7522240,-17.6595421,-2.9855542,-100.0229034,142.2595367,250.1297760
8960,-13.2087431,-19.6131992,-0.7996593,-154.6717529,168.3893127,250.1297760
8970,-11.5878773,-19.6131992,3.1268115,-201.7022858,188.8320618,250.1297760
8980,-7.7164726,-19.6131992,7.0652533,-228.5877838,177.0152740,250.1297760
8990,1.6136837,-19.6131992,11.3987360,-224.4732819,126.1679382,250.1297760
9000,17.6763000,-19.6131992,15.6220865,-187.2671814,97.5725174,250.1297760
9010,19.6126022,-19.6131992,19.6126022,-130.7175598,165.2137451,250.1297760
9020,19.6126022,-19.6131992,19.6126022,-91.3282471,250.1297760,250.1297760
9030,19.6126022,-15.5909615,19.6126022,-63.5572510,250.1297760,250.1297760
9040,19.6126022,-3.3446827,19.6126022,-1.8854961,250.1297760,250.1297760
9050,19.6126022,2.2218077,19.6126022,85.7404556,111.9389343,250.1297760
9060,19.6126022,3.3087699,8.5328913,125.2366409,-108.2061081,102.0992355
9070,19.6126022,3.2489152,0.4932030,88.9389343,-250.1374054,4.0229006
9080,19.6126022,3.0837159,0.8810617,25.3129768,-250.1374054,-14.1450386
9090,19.6126022,2.3103929,6.0596933,-14.9312973,-250.1374054,10.5725193
9100,19.6126022,3.3686244,9.9406748,-20.2595425,-168.9847260,41.1068687
9110,19.6126022,4.7620430,10.6804790,-10.9923668,-9.1221371,62.9541969
9120,19.6126022,5.1546898,8.1617918,-5.2595420,115.4809189,73.2824402
9130,18.7058029,4.9775200,6.0142040,-6.5572519,178.3206177,75.5725174
9140,17.2836533,4.8625989,4.2664456,-11.1984730,198.6183167,74.7022934
9150,16.9748039,4.8171091,3.1148405,-17.9694653,189.0763397,65.3969498
9160,16.8383350,4.7572546,2.6407909,-23.4198475,151.2061005,46.5038185
9170,16.9149494,4.7596488,2.8562679,-27.2366409,98.2900772,21.0381680
9180,16.7641144,4.6950054,3.7205703,-28.6259537,44.9236641,-7.4198475
9190,16.3499203,4.4723458,4.5226240,-27.7709923,1.0152671,-36.0534363
9200,15.4329453,4.0940638,5.2289100,-25.4885502,-29.5954189,-58.0152664
9210,14.5255470,3.6463506,5.6622581,-22.7022896,-44.0610695,-73.0916061
9220,13.6516685,3.1004753,5.9136481,-19.7099228,-48.8778610,-79.7862625
9230,12.9046812,2.7150109,6.2847471,-16.8015270,-44.7633591,-79.3206100
9240,12.3947191,2.6503677,6.3996682,-14.9770994,-37.6641235,-75.1450348
9250,12.3851423,2.7652888,6.4283986,-14.0000000,-29.2137413,-70.2595444
9260,12.7346935,2.9687948,6.7659793,-13.4885492,-18.0458012,-67.8015289
9270,13.5894194,3.2417326,7.0149751,-11.3053436,-4.5725193,-69.0305328
9280,14.8703108,3.6152260,6.9503322,-8.6488552,13.3435116,-74.4885483
9290,15.8591108,3.8474624,6.7587967,-8.4809160,32.1221390,-85.3206100
9300,16.9867744,4.1922259,6.5457139,-11.1832066,46.3511467,-100.5801544
9310,17.7313671,4.2448978,6.4355812,-15.1450386,52.6259537,-121.4198456
9320,18.5669384,4.3598189,6.9024482,-18.8091602,42.0458031,-147.7633514
9330,19.6126022,4.3765783,7.5776095,-20.5801525,23.6030540,-180.6870270
9340,19.6126022,4.2065907,8.3557215,-19.2824421,2.8702290,-218.7022858
9350,19.6126022,4.0198441,9.1362267,-14.7557249,-20.3740463,-250.1374054
9360,19.6126022,3.4572096,10.1681223,-7.6412215,-42.3664131,-250.1374054
9370,19.6126022,2.3319404,10.6637201,0.5038168,-56.4656487,-250.1374054
9380,19.6126022,1.1683644,11.1641054,10.3282442,-68.2442780,-250.1374054
9390,18.3825874,-0.1915352,11.2311430,22.2595425,-79.9847336,-250.1374054
9400,15.4951944,-1.2928623,11.2933912,36.7862587,-89.8015289,-250.1374054
9410,13.4361916,-1.9919657,10.8624372,52.8473282,-91.8702316,-250.1374054
9420,11.1377697,-2.7221935,10.0460186,67.5038147,-95.0152664,-250.1374054
9430,9.0979195,-3.1794837,8.9997578,78.6412201,-105.2519073,-250.1374054
9440,6.8425937,-3.5793133,7.9511032,84.1145020,-118.0000000,-250.1374054
9450,4.7261300,-3.7493007,7.3860745,85.2748108,-132.1297760,-250.1374054
9460,2.8419030,-3.9408360,7.0772243,85.0763321,-146.3664093,-250.1374054
9470,1.5562232,-3.9815371,7.1370788,85.4351120,-160.1526642,-250.1374054
9480,0.3064562,-4.0389977,7.0269461,86.6641235,-169.3969421,-250.1374054
9490,-0.6105183,-4.1563129,6.9910331,87.6870193,-177.2366486,-250.1374054
9500,-1.3886299,-3.8402798,7.0101867,87.7022934,-181.4122162,-250.1374054
9510,-2.1260402,-3.7062054,6.9742737,86.5877838,-175.1603088,-250.1374054
9520,-2.8945751,-3.8857694,6.5217719,83.8244247,-160.5267181,-250.1374054
9530,-3.7133877,-4.0294209,5.9088597,75.9847336,-139.4198456,-250.1374054
9540,-4.3143296,-4.3502421,5.4419928,64.7404556,-114.8702316,-250.1374054
9550,-5.7364779,-4.7524662,5.4491754,53.6717567,-85.0610657,-250.1374054
9560,-8.1593981,-5.3725610,5.3797436,44.9541969,-55.5648842,-250.1374054
9570,-10.3740225,-5.6311336,5.3174949,38.2061081,-29.9770985,-250.1374054
9580,-11.7913828,-5.3749552,5.5832496,37.5572510,-18.0839691,-250.1374054
9590,-12.5647058,-4.9894910,6.0405402,43.2824440,-13.7099237,-250.1374054
9600,-12.9453821,-4.5345950,5.6718349,52.3587799,-16.3435116,-229.2442780
9610,-13.3763361,-4.1563129,5.1307478,58.1450386,-19.8778629,-193.8778687
9620,-14.3938665,-3.8187323,4.8362627,59.9312973,-17.7557259,-154.1679382
9630,-15.3276005,-3.5793133,4.5872669,59.6106873,-9.4809160,-108.2519073
9640,-15.8974180,-3.5673423,4.2736282,56.9694672,5.0534353,-57.0534363
9650,-16.3738613,-3.5625539,3.6631098,49.8396950,23.5648861,-2.5190840
9660,-16.8311520,-3.7708483,3.1962428,38.9847336,40.0763359,54.2290077
9670,-16.9460735,-3.8929520,3.2010312,27.7251911,60.0228996,114.9542007
9680,-16.4385052,-4.1323709,3.2728570,18.2290077,86.1221390,177.3816833
9690,-15.5933561,-4.7428894,2.6240315,6.4198475,119.1145020,239.1832123
9700,-14.9205885,-5.6167684,1.7740943,-11.8931293,156.4045868,250.1297760
9710,-14.2406387,-6.8904772,1.3191984,-35.9771004,197.0610657,250.1297760
9720,-14.1568422,-8.4107876,1.1252691,-64.1450348,233.9770966,250.1297760
9730,-14.7314482,-10.8145542,1.2880739,-94.4427490,250.1297760,250.1297760
9740,-14.5901909,-13.5511122,1.6088953,-125.2213745,250.1297760,250.1297760
9750,-13.4888630,-17.0298691,2.4971397,-157.8625946,240.9694672,250.1297760
9760,-10.5799236,-19.6131992,3.6391680,-188.9313049,216.2061005,250.1297760
9770,-6.8832946,-19.6131992,5.1953912,-212.0000000,173.4198456,250.1297760
9780,-0.7852941,-19.6131992,6.6390872,-222.6793823,116.7175598,250.1297760
9790,6.2129216,-19.6131992,8.2958660,-219.0229034,63.1068687,250.1297760
9800,16.8694592,-19.6131992,9.7347746,-202.1068726,31.5725193,250.1297760
9810,19.6126022,-19.6131992,12.4426022,-180.5343475,87.8549652,250.1297760
9820,19.6126022,-19.6131992,15.7106714,-167.1603088,238.7404633,250.1297760
9830,19.6126022,-11.6070309,18.6914368,-166.6335907,250.1297760,250.1297760
9840,19.6126022,-4.5154414,19.6126022,-135.6793823,250.1297760,250.1297760
9850,19.6126022,2.1140692,19.6126022,-39.6793900,248.0229034,250.1297760
9860,19.6126022,2.2649033,16.0578289,42.5877876,6.5801525,113.2595444
9870,19.6126022,0.9672526,9.4426832,76.9542007,-201.6793823,12.4351149
9880,19.6126022,2.3343346,7.0939832,78.1145020,-250.1374054,-24.8625946
9890,18.2556953,3.9097114,7.2065101,67.3511429,-250.1374054,-23.5419846
9900,17.4033623,4.7117648,7.5704269,59.0458031,-246.3435059,-0.9618320
9910,16.7497501,5.3246775,6.7444315,48.9465637,-123.2671738,28.7557259
9920,17.2788658,6.5074067,2.0542145,-20.8549614,179.8473358,104.5267181
9930,17.7553082,6.4810710,2.5234756,-48.6564903,220.6717529,100.3664093
9940,17.2429523,6.1961622,3.4356618,-67.3435135,222.0000000,88.2442780
9950,16.7880573,5.5832496,4.7261300,-74.6488571,194.9541931,64.0763321
9960,15.9764261,5.0469513,6.2440462,-68.5648880,154.1755676,31.1450386
9970,14.7721491,4.3622131,7.7452030,-50.0687027,100.2900772,-6.4351144
9980,12.7777891,3.8666160,8.4059992,-26.1526718,46.8778610,-36.1526718
9990,10.9510221,3.0454090,8.1210909,-4.0381680,3.0229008,-52.9618340
