timestamp,acclX,acclY,acclZ,gyroX,gyroY,gyroZ
0,2.9017577,1.5466464,9.6102762,10.2748089,-29.4198475,-12.5343513
10,3.1076579,1.4891858,9.9789820,11.5725193,-30.0229015,-15.0610685
20,3.1076579,1.4484847,10.1322098,14.1908398,-31.8549614,-17.4656487
30,2.9137285,1.4436963,9.8880024,16.5419846,-32.7480927,-18.5114498
40,2.5234756,1.5011568,9.2272062,15.2900763,-32.2061081,-16.8854961
50,2.3486998,1.6136837,8.7507620,11.0000000,-30.4351139,-13.5267172
60,2.3391230,1.6687500,8.4371233,-1.7786260,-25.6717548,-5.5343513
70,2.4899571,1.7190280,8.8058290,-7.2442746,-24.5954189,-2.1908398
80,2.5641768,1.7166338,8.9399033,-10.1145039,-26.2290077,-0.7480916
90,2.6288199,1.7022687,8.9686337,-12.2824430,-31.3511448,-0.5572519
100,2.8897867,1.6567791,9.2224178,-14.9160309,-39.0000000,-2.2366412
110,2.9807658,1.5538290,9.3469152,-16.3129768,-48.9007645,-5.1832061
120,3.0430148,1.3886299,9.5959110,-16.0152664,-58.0610695,-9.8015270
130,3.1148405,1.2234308,10.0986910,-13.1526718,-67.1679382,-14.2824430
140,3.2010312,1.1516051,10.5392218,-8.0076332,-74.4961853,-18.7862587
150,3.2944047,1.0031654,10.6948442,-1.0000000,-80.3969498,-22.3053436
160,3.2872221,0.8523315,10.4219065,5.2824426,-88.6183243,-25.3282452
170,3.4284792,0.8834559,10.0220766,9.6030531,-95.5038147,-27.9083977
180,3.4165084,0.9457048,9.8042059,12.0152674,-103.4656525,-29.2519093
190,3.5074875,1.0103480,9.6605549,14.1145039,-113.7786255,-30.8091602
200,3.6655040,1.0079538,9.3756456,15.7175570,-123.0000000,-31.7251911
210,3.6559272,1.0702027,9.3181858,17.0229015,-130.0610657,-31.7862587
220,3.8307030,1.0773853,9.2296000,18.2671757,-135.0915985,-30.3206100
230,4.0198441,1.1300575,9.2056589,20.5877857,-138.3816833,-27.8320618
240,4.3693957,1.1156923,9.2296000,23.7175579,-137.5267181,-24.9465656
250,4.8362627,1.0773853,9.0524302,26.7557259,-133.6259613,-22.6564884
260,5.2001796,1.0845678,8.9327211,29.0458012,-127.2671738,-19.8320618
270,5.5257893,1.3407460,8.7004843,31.1908398,-118.7175598,-15.9007635
280,5.8561873,1.4604555,8.3509331,32.0152664,-107.3511429,-12.3053436
290,6.0022330,1.5777708,7.9367380,31.5496178,-95.0992355,-8.3053436
300,6.1913738,1.9297167,7.7092900,30.5648861,-84.9083939,-2.8473282
310,8.0157461,2.4037662,6.7875271,-1.3816794,-16.3206100,-4.3587785
320,8.4275465,2.3271523,6.8737178,-4.7786260,-14.1450386,-9.0916033
330,8.3485384,2.1882892,6.8737178,-7.4885497,-14.4885492,-15.0610685
340,8.5352850,1.7501525,6.9311786,-10.6870232,-21.3206100,-20.7251911
350,9.0715837,1.3575054,7.1514440,-13.0763359,-34.9694672,-25.6641216
360,9.9430685,1.1037214,7.3525558,-15.2061071,-53.0305328,-33.2366409
370,11.0587606,1.2138541,7.7140784,-17.2137413,-71.0839691,-42.8473282
380,12.8256731,1.2401901,8.0325060,-20.8396950,-86.5648880,-56.1603050
390,14.8176384,1.4748207,9.2224178,-24.6717548,-91.2671738,-72.9694672
400,16.7856617,2.1787124,10.5033092,-26.0610695,-87.2748108,-93.6412201
410,18.2987900,2.5115047,11.8775740,-23.6793900,-75.2595444,-117.6488571
420,18.3754044,2.9855542,12.7299051,-17.9312973,-56.4274826,-138.0610657
430,17.9923344,3.8690102,12.9429884,-11.7022905,-34.1526718,-152.4656525
440,17.3770275,4.7883787,12.7299051,-8.8244276,-13.3511448,-163.3740387
450,17.0897236,5.5593081,12.5862541,-9.3969469,1.0458015,-173.4732819
460,17.1400032,5.9663200,13.0004492,-11.2366409,4.7251906,-187.5114441
470,17.2501354,6.1195483,14.1376886,-7.9923663,-2.7938931,-207.6793823
480,17.5422268,6.1985564,15.8231983,5.1297708,-19.4656487,-232.9618378
490,18.1431675,6.0572991,16.9221306,26.1145039,-32.4809151,-250.1374054
500,18.6315823,5.6454988,17.1639442,49.1450386,-30.0229015,-250.1374054
510,17.9420567,4.8793583,16.2110577,70.7251892,-16.1068707,-250.1374054
520,16.9269199,3.5841017,14.6500454,87.6488571,1.7938931,-250.1374054
530,14.5375185,2.2409613,13.0435438,99.3587799,24.1297703,-250.1374054
540,12.6915979,1.4197544,11.4035244,111.9312973,35.0687027,-250.1374054
550,10.8073711,0.1244979,9.9622221,121.6946564,40.9236641,-250.1374054
560,8.7148495,-0.9983770,8.7435799,129.7862549,43.9312973,-250.1374054
570,6.6031747,-2.1763182,7.6087341,136.0152740,44.7175560,-250.1374054
580,4.9344244,-3.2896163,6.6726060,140.9389343,43.0534363,-250.1374054
590,3.4979107,-4.1970143,5.9567432,144.4580078,42.0610695,-250.1374054
600,2.0590029,-5.0373745,5.1929970,145.5572510,44.7633591,-250.1374054
610,0.5793939,-5.8011212,4.8075323,144.8702240,48.5496178,-250.1374054
620,-1.4748207,-6.7252784,4.7213416,144.9770966,47.7709923,-250.1374054
630,-3.8163381,-7.3262196,4.6878228,146.9923706,43.8778610,-250.1374054
640,-6.5337429,-7.4866304,4.6854286,149.8091583,42.0000000,-250.1374054
650,-9.4091644,-7.6781654,4.8290801,153.6641235,38.2595406,-250.1374054
660,-12.8783455,-7.6638002,4.3334827,158.1068726,26.5496178,-250.1374054
670,-16.0003681,-7.2615767,3.4476328,162.1832123,8.9541988,-250.1374054
680,-18.0330353,-6.3110833,2.6096666,162.8320618,-5.4503818,-248.3511505
690,-19.2851963,-5.5449429,1.4269369,156.5343475,-16.4122143,-187.9313049
700,-19.4527893,-4.7644372,0.3184272,142.6488495,-21.7633591,-124.6259537
710,-18.3993454,-3.9791429,-0.5339043,123.7709961,-17.5648861,-63.4274826
720,-16.6420116,-3.2800395,-0.9433106,101.8167953,-2.2824428,-9.5496187
730,-14.7577839,-3.1004753,-1.2258250,77.0076370,22.2824421,37.2442741
740,-13.0650921,-3.1339941,-1.0318956,53.3740463,50.9541969,77.2442780
750,-11.9853125,-3.2130022,-0.7948709,32.9465637,77.8015289,111.5725174
760,-11.4633789,-3.3375001,-0.3567342,18.5114498,93.5190811,140.5496216
770,-11.5519638,-3.9216824,-0.0646431,10.4732828,97.1374054,169.1832123
780,-11.4873209,-4.3861551,0.0311245,8.5267172,82.8244247,198.6183167
790,-11.1257982,-5.3103123,-0.3399749,9.2290077,58.1679382,227.2671814
800,-10.6661139,-6.0932121,-0.1268920,12.9847326,30.4427490,250.1297760
810,-9.4977493,-6.8210459,-0.0119709,18.1221371,8.2900763,250.1297760
820,-8.4251528,-7.5201492,-0.2082945,22.9312973,-9.2061071,250.1297760
830,-7.8002691,-8.3796635,-0.3184272,26.2900772,-30.7099228,250.1297760
840,-6.9239960,-9.2703018,-0.0981618,27.9465656,-46.4885483,250.1297760
850,-6.1530671,-10.4219065,-0.0359128,29.0839691,-57.2442741,250.1297760
860,-5.3366485,-12.0571384,-0.3016679,28.2977104,-64.6717529,250.1297760
870,-4.1371593,-13.9533358,0.6416427,26.1526718,-64.6412201,250.1297760
880,-2.2002602,-15.7633438,2.6000898,29.9694653,-51.8320618,250.1297760
890,0.4405309,-17.7912216,4.0892754,45.1984749,-30.7938938,250.1297760
900,4.3047528,-19.5174332,5.8657641,71.4122162,-13.8702288,250.1297760
910,10.9965124,-19.4096947,7.0820122,105.9160309,18.0305347,250.1297760
920,17.9995155,-18.1216202,6.7731619,141.1068726,82.1755753,250.1297760
930,19.6126022,-15.6556044,4.3430595,161.3893127,160.9694672,250.1297760
940,19.6126022,-13.4816809,0.0598547,157.0076294,243.0534363,250.1297760
950,19.6126022,-11.4777441,-4.1371593,123.9389343,250.1297760,250.1297760
960,19.6126022,-9.4570484,-4.9918852,73.9847336,250.1297760,250.1297760
970,19.6126022,-5.7891502,-2.6120608,32.5954208,182.1908417,250.1297760
980,19.6126022,-2.9065459,0.5937590,19.1374054,61.4656487,250.1297760
990,19.6126022,-1.8602852,1.6902977,25.7480907,-65.2366409,250.1297760
1000,19.6126022,-0.1436514,0.7110743,30.3893127,-160.4732819,191.3358765
1010,19.6126022,0.8020535,0.1580165,20.5648861,-200.2900696,131.4274750
1020,19.6126022,1.6950861,1.0606259,7.5572519,-183.7022858,97.7404556
1030,19.6126022,2.7174051,2.2720859,-2.5190840,-105.5801544,81.0305328
1040,19.6126022,3.6224086,3.0310438,-11.7404585,3.2519083,73.3358765
1050,19.6126022,3.6319854,3.2513094,-15.9847326,101.1755753,66.1374054
1060,19.6126022,2.9376705,3.0382264,-12.2824430,152.7557220,56.3435097
1070,17.9420567,2.4564383,1.9273225,-3.6717558,153.9770966,52.0839691
1080,16.7784805,2.4923513,0.8954269,2.8931298,121.7404556,42.5648842
1090,16.9484673,3.2082138,-0.0670373,2.8702290,77.6030502,23.4198475
1100,17.4033623,3.6367738,-0.6129125,-2.6717558,37.6793900,-2.1984732
1110,17.2908363,3.8354914,-0.6488253,-11.5267172,12.7480917,-27.7022896
1120,16.0267048,3.6104376,-0.4525018,-21.3511448,2.0152671,-49.2595406
1130,13.9820662,2.8634505,-0.2705434,-28.3358784,-4.5190840,-62.7022896
1140,12.1122046,1.9728121,0.0383070,-34.3129768,-12.3511448,-66.2442780
1150,11.2119894,1.4077834,0.6727672,-37.3053436,-18.8473282,-63.4656487
1160,10.8815908,1.1276633,1.3838415,-36.1908379,-19.7938938,-58.0992355
1170,10.7116032,1.0606259,1.7525467,-32.9083977,-16.0534344,-51.9236641
1180,10.9198980,0.6751614,1.4891858,-32.1450386,-7.9007635,-46.1068687
1190,10.9821472,0.5985473,1.6328372,-32.7251892,1.6870229,-41.4885483
1200,11.0850973,0.5243275,1.6448082,-32.4961815,10.6030531,-37.7633591
1210,11.2215662,0.2873027,1.6663558,-32.6030540,16.4274807,-35.7557259
1220,11.7482872,0.1939293,1.6831152,-32.5801544,18.7099228,-35.5343513
1230,12.9669304,0.0861908,1.6376256,-34.4656487,22.6412220,-39.1603050
1240,13.9653072,0.0790083,1.7214222,-38.5954208,26.3358784,-46.1679382
1250,15.0115681,0.0981618,2.1739240,-42.2519073,31.0229015,-55.7099228
1260,16.1775379,0.3232156,2.5522060,-44.6030540,37.3053436,-68.3587799
1270,17.4703999,0.7278336,2.9999194,-46.1145020,48.0381660,-84.9236679
1280,18.2844257,1.0845678,3.1842721,-46.9541969,61.3282433,-105.4732819
1290,19.1080265,1.4053892,3.1076579,-48.4427490,74.9007645,-126.9312973
1300,19.6126022,1.9297167,2.7964132,-51.7557259,90.1221390,-151.6259613
1310,19.6126022,2.6048782,3.1100521,-56.0152664,103.3969498,-183.7022858
1320,19.6126022,3.0142846,3.6367738,-59.3740463,107.0763321,-224.7022858
1330,19.6126022,3.7971845,4.3646073,-60.1984749,107.6488571,-250.1374054
1340,19.6126022,4.5274124,5.1163831,-60.2977104,123.2442780,-250.1374054
1350,19.6126022,4.2401094,5.4563580,-60.4503822,135.6106873,-250.1374054
1360,19.6126022,1.5227045,4.5585365,-63.1603050,136.8702240,-250.1374054
1370,17.8414993,-1.5155219,4.6207857,-62.2900772,123.9770966,-250.1374054
1380,9.4139528,-2.7221935,6.2655940,-50.4885483,90.0763321,-250.1374054
1390,3.9623835,-2.3870070,8.9231443,-25.8244267,37.1984749,-250.1374054
1400,1.5155219,-1.0271072,11.3963413,6.8015265,-12.6641226,-250.1374054
1410,1.2090657,0.2059003,11.9134865,41.6717567,-40.9007645,-250.1374054
1420,2.2337787,0.9792235,10.8097658,68.0763321,-32.9618340,-250.1374054
1430,3.0238612,0.8906385,8.5520449,83.8091583,-4.4351144,-250.1374054
1440,2.8347204,0.6296718,6.2201042,89.9847336,30.6488552,-250.1374054
1450,1.9105632,0.2035061,4.0653338,87.4656525,53.3129768,-250.1374054
1460,0.1795642,-0.8068419,2.6958573,79.1450348,66.8931274,-250.1374054
1470,-1.6591733,-1.6136837,2.4875629,70.6717529,58.9923668,-250.1374054
1480,-3.2728570,-2.5306582,3.2153964,66.9618301,40.8091621,-250.1374054
1490,-5.3079181,-3.1196289,4.2855992,70.5114517,17.9694653,-250.1374054
1500,-7.0413113,-3.4667864,5.0852585,78.5954208,-3.6412213,-250.1374054
1510,-8.3844519,-3.8211265,5.5210009,88.0000000,-19.9694653,-250.1374054
1520,-9.6988611,-4.0174499,5.3414369,97.1221390,-25.3587780,-250.1374054
1530,-10.8217363,-4.2185616,4.6471219,101.2519073,-18.0916023,-250.1374054
1540,-11.6932211,-4.2281384,4.2209558,105.0305328,-3.0152671,-250.1374054
1550,-12.9453821,-4.2879934,3.6080434,100.9770966,15.1221371,-241.2137451
1560,-14.4872408,-4.4340386,3.1100521,100.7175598,31.2748089,-198.9160309
1570,-16.8048153,-4.7692256,2.8419030,98.3816757,31.2442741,-148.7022858
1580,-18.5214500,-4.6064205,2.9137285,97.2824402,15.9541988,-92.5572510
1590,-19.5437679,-5.1953912,2.8131726,97.5572510,2.1526718,-33.1450386
1600,-19.6131992,-6.3948798,1.7309990,91.9312973,-20.4580154,36.3358765
1610,-18.4472294,-7.2807302,1.0271072,78.0534363,-25.8167934,106.2290039
1620,-16.7138367,-8.6071110,0.7038917,60.2519073,-19.6641216,175.3129730
1630,-15.4592810,-9.9095497,0.8044477,42.9007645,-4.1221375,245.1679382
1640,-13.3883076,-10.9869356,0.8283895,26.7480907,11.7175570,250.1297760
1650,-11.4466200,-12.2462788,0.9983770,14.8931293,22.1145039,250.1297760
1660,-10.1776991,-13.4361916,1.3742647,9.3282442,28.7099228,250.1297760
1670,-8.6909075,-14.5925846,1.3503228,8.3206110,32.3587799,250.1297760
1680,-7.3956513,-15.9022064,0.9888002,10.9312973,32.0458031,250.1297760
1690,-6.7157016,-16.9700146,0.4716553,19.4045811,16.2748089,250.1297760
1700,-6.0884237,-18.1958389,0.0263361,34.4427490,-15.0152674,250.1297760
1710,-4.5417776,-19.6131992,-0.3423691,58.5114517,-61.2213745,250.1297760
1720,-1.2808913,-19.6131992,-0.8379663,91.8244247,-98.1603088,250.1297760
1730,7.3573442,-19.6131992,-2.2696917,117.5572510,-88.7251892,250.1297760
1740,19.6126022,-19.6131992,-3.5266411,120.4656525,13.2213745,250.1297760
1750,19.6126022,-19.6131992,-3.6655040,88.6106873,144.0076294,250.1297760
1760,19.6126022,-15.0331154,-0.1460456,35.2442741,250.1297760,250.1297760
1770,19.6126022,-7.0053983,4.7309184,2.2977099,250.1297760,250.1297760
1780,19.6126022,0.5482694,8.5759869,4.8320613,250.1297760,250.1297760
1790,19.6126022,3.9312592,7.0963774,30.8473282,151.6259613,250.1297760
1800,19.6126022,4.7069764,0.9720409,38.8473282,17.6641216,136.5954132
1810,19.6126022,5.5114241,-2.8012016,7.5038166,-93.1679382,45.6717567
1820,19.6126022,5.1235652,-1.4556671,-39.7099228,-135.9160309,8.4274807
1830,19.6126022,4.5106530,3.2177906,-61.9694672,-111.0839691,3.3511450
1840,19.1583042,4.4843168,6.7707677,-52.0763359,-51.3053436,17.5267181
1850,16.3810444,4.5226240,7.3932571,-28.0152664,18.0076332,38.4580154
1860,14.1065645,4.5274124,5.7891502,-3.5190840,75.1297684,62.0992355
1870,12.7299051,4.7213416,3.1028695,11.1145039,108.5801544,82.9694672
1880,12.6963863,4.9679432,0.7445929,12.2977095,122.0000000,93.2213745
1890,13.0938225,5.1044121,-0.4285599,11.6488552,105.1908417,87.8320618
1900,13.4840746,5.2983413,-0.8547257,15.0916033,52.7099228,68.5572510
1910,13.5582952,5.6981707,-1.4389079,18.8091602,-4.7099237,43.3358765
1920,13.3188763,5.6191626,-2.1236460,15.1984730,-42.8931313,21.7328243
1930,13.3500004,5.6383162,-2.0685797,5.5267177,-54.5725174,7.8549619
1940,13.0626974,5.5688848,-1.4915800,-6.4656487,-46.5419846,-0.8091603
1950,12.7418766,5.3941088,-0.8571198,-18.1450386,-29.2137413,-5.0839696
1960,11.9086981,4.9176650,-0.1795642,-26.3816795,-12.6106873,-5.5954199
1970,11.0779142,4.2664456,0.1819584,-33.2366409,-4.5954199,-2.0763359
1980,11.1473465,3.8402798,0.8379663,-37.0000000,-4.8854961,3.2290077
1990,11.7411051,3.4476328,1.7788827,-36.7404594,-10.6793890,7.3053436
2000,12.9621420,3.3925664,2.4708035,-33.2442741,-16.5648861,9.4427481
2010,14.6308918,3.3853838,2.7365584,-29.3587780,-26.1068707,6.2595420
2020,16.4073811,3.7995787,3.2010312,-26.3893127,-38.9541969,-4.0000000
2030,18.4424419,3.9935081,3.4835455,-23.7709923,-49.5343513,-21.8091602
2040,19.6126022,4.2185616,3.8115497,-22.0916023,-54.7328262,-44.9236641
2050,19.6126022,4.4124913,3.9911139,-20.5648861,-53.6488533,-71.8244247
2060,19.6126022,4.4172797,3.8905578,-19.8015270,-46.4427490,-99.2290039
2070,19.6126022,4.5465660,3.7540891,-19.9312973,-36.6717567,-124.9007645
2080,19.6126022,4.3813667,3.6200144,-20.4656487,-26.0534344,-148.3282471
2090,19.6126022,4.1395535,3.4739690,-19.1832066,-19.6717548,-167.1297760
2100,19.6126022,4.2185616,3.2489152,-18.1145039,-18.1526718,-185.3893127
2110,19.6126022,4.5393834,3.1699069,-18.1221371,-17.8167934,-205.4045868
2120,19.6126022,4.7907729,2.8490853,-19.6870232,-19.6564884,-230.9770966
2130,19.6126022,4.8099265,2.8059900,-22.7022896,-26.1068707,-250.1374054
2140,19.6126022,4.6112089,2.8347204,-25.6641216,-34.8244286,-250.1374054
2150,19.6126022,4.1826491,2.8873925,-28.8320618,-43.6793900,-250.1374054
2160,19.1654873,3.5553713,2.9999194,-32.7938919,-50.2595406,-250.1374054
2170,17.2836533,2.7605004,3.2201848,-36.2519073,-52.6946564,-250.1374054
2180,14.8822813,1.4772149,3.5864959,-38.6717567,-54.2290077,-250.1374054
2190,12.4282379,0.5219333,4.1204000,-37.7938919,-57.9465637,-250.1374054
2200,10.6493549,-0.2489957,4.8003497,-33.3053436,-62.9007645,-250.1374054
2210,8.9686337,-0.7876883,5.4419928,-23.9770985,-68.1145020,-250.1374054
2220,7.0125809,-1.4915800,6.0333576,-11.6717558,-77.1374054,-250.1374054
2230,4.8027439,-2.1715298,6.7731619,4.3206105,-92.2213745,-250.1374054
2240,2.1763182,-2.6024840,8.2599535,26.1984730,-114.5038147,-250.1374054
2250,0.0311245,-2.3056045,9.5599985,55.2900772,-135.6106873,-250.1374054
2260,-1.4293311,-1.8291607,10.0867205,88.4732819,-147.6488495,-250.1374054
2270,-2.3319404,-1.5490406,8.9518747,115.8473282,-146.4732819,-250.1374054
2280,-3.4452386,-1.2808913,6.8761120,130.6106873,-135.5954132,-250.1374054
2290,-4.9128766,-1.1013272,5.0972295,132.0076294,-115.2137375,-250.1374054
2300,-6.9910331,-1.1348459,4.0820932,123.3129807,-92.7328262,-250.1374054
2310,-9.2272062,-0.9552816,3.3518653,108.6183243,-68.2900772,-250.1374054
2320,-11.2143831,-1.0702027,2.9041519,92.1526718,-42.3511467,-250.1374054
2330,-12.5910425,-0.7996593,2.7102225,75.2671738,-18.3206100,-210.0458069
2340,-13.0363617,-0.6488253,2.6336083,59.7557259,3.6412213,-155.3435059
2350,-13.4290085,-0.6943150,2.8347204,47.8625946,21.2290077,-101.2900772
2360,-13.5463238,-0.7781116,3.3877780,41.0687027,25.5038166,-50.6412201
2370,-12.6724443,-1.0295014,4.0940638,40.2977104,23.8854961,-3.4351146
2380,-11.2239599,-1.4341195,4.5082588,44.5801544,18.4809170,35.8702278
2390,-9.5671806,-1.7740943,4.7428894,50.8549614,11.7633591,67.7938919
2400,-8.2886839,-2.3271523,4.9032998,58.1526718,12.1908398,93.0076370
2410,-7.3621325,-3.0621684,4.9009056,67.5038147,19.2977104,118.7022934
2420,-7.4435349,-3.9695661,4.3358769,75.3587799,31.7099228,145.8244324
2430,-7.9080076,-5.0325861,3.9097114,80.5954208,45.5419846,178.8320618
2440,-8.3940287,-6.1602492,3.7397239,85.9542007,62.3206100,218.5038147
2450,-9.2367830,-7.3357964,3.3446827,92.7480927,79.9160309,250.1297760
2460,-9.5743637,-9.1434097,2.6982515,100.7709961,98.6412201,250.1297760
2470,-8.5759869,-10.7475166,2.4779861,106.5801544,110.5648880,250.1297760
2480,-5.9998388,-12.2247314,2.3894010,118.5801544,124.8167953,250.1297760
2490,-3.2106080,-13.1776190,2.0183017,141.5038147,133.7862549,250.1297760
2500,1.0199248,-13.1728306,0.0263361,162.2442780,143.7022858,250.1297760
2510,5.5497313,-12.3276815,-2.5282640,170.1679382,162.2671814,250.1297760
2520,9.9334917,-11.1664991,-5.3222833,154.7557220,187.2977142,250.1297760
2530,15.5526543,-9.7108326,-6.9814563,120.9465637,223.4427490,250.1297760
2540,19.6126022,-9.0117292,-7.4555058,94.4503784,238.6793823,250.1297760
2550,19.6126022,-8.1019373,-6.8785062,85.0763321,199.4198456,250.1297760
2560,19.6126022,-4.7021880,-6.2488346,93.9007645,137.7251892,250.1297760
2570,19.6126022,0.3567342,-6.1794028,107.1908417,94.5496216,250.1297760
2580,19.6126022,5.1834202,-7.8002691,108.7404556,89.6259537,250.1297760
2590,19.6126022,9.5001440,-10.7594872,88.0763321,105.9389343,236.6412201
2600,19.6126022,11.4657736,-12.5838594,44.4274826,117.2213745,143.2213745
2610,19.6126022,10.7666702,-11.9853125,-0.0534351,121.2900772,74.6335907
2620,19.6126022,9.7850523,-9.7347746,-33.8854980,98.6641235,30.8702297
2630,19.5605278,8.3629036,-6.8521700,-49.1908379,71.3969498,9.2061071
2640,15.3180237,7.5033898,-3.9959023,-50.9923668,42.3358765,-1.5725191
2650,12.7706070,6.9982157,-2.2122312,-43.6488533,25.4198475,-3.6030533
2660,11.0324249,6.5002246,-1.1827296,-32.7404594,24.5877857,0.7938932
2670,9.7682934,6.0764527,-1.1156923,-22.5267181,33.0839691,8.8702288
2680,8.7100611,5.7819676,-1.3862357,-15.5648851,44.6030540,18.9007626
2690,7.7404146,5.3677726,-1.7262106,-12.7175570,52.9160309,29.2900772
2700,6.9551206,4.7165532,-1.6735384,-11.4045801,56.3893127,41.0228996
2710,7.5369086,4.6375451,-1.2042773,-6.6335878,57.4580154,52.8167953
2720,8.9015961,4.9320302,-1.3072275,-0.3206107,60.5114517,57.3664131
2730,9.7395630,4.9296360,-2.8682389,-1.0992366,62.5648842,44.6335869
2740,9.4881725,4.6590929,-3.1603301,-7.7480917,62.1984749,40.6106873
2750,9.1338329,4.3813667,-3.0765336,-16.1068707,60.9236641,37.6030540
2760,8.8752604,3.9408360,-2.5067163,-22.3664131,53.8625946,36.9923668
2770,9.1314383,3.6248028,-1.6687500,-24.6412220,44.9847336,37.0228996
2780,9.7108326,3.3638363,-1.0630201,-23.2213745,37.8549614,37.4274826
2790,10.4769726,3.2513094,-0.8164186,-19.5801525,36.5954208,39.6488533
2800,11.5591469,3.4739690,-0.8379663,-17.2061062,41.9847336,42.7175560
2810,13.3930960,3.9982965,-1.0151364,-17.3435116,57.2519073,43.5419846
2820,15.2150736,4.4699516,-1.2689204,-21.0305347,81.9083939,39.0534363
2830,16.3403435,4.6590929,-1.4245427,-27.8396950,107.5572510,30.5496178
2840,17.0897236,4.7716198,-1.3239868,-35.0687027,126.2977066,19.8778629
2850,17.6978493,4.9440012,-1.1563935,-39.7480927,132.9541931,6.4427481
2860,18.1455612,4.9272418,-0.9720409,-41.7709923,123.7862625,-10.5190840
2870,18.8829727,4.9655490,-0.9959828,-42.6564903,101.9694672,-30.4809170
2880,19.6126022,5.4587522,-0.7254394,-42.4732819,73.6412201,-55.9771004
2890,19.6126022,5.9591374,-0.3543400,-42.1603050,42.6870232,-87.6183243
2900,19.6126022,6.3254485,0.0143651,-42.9083977,17.5801525,-123.7099228
2910,19.6126022,6.3110833,0.2442073,-45.3206100,4.4656487,-158.5038147
2920,19.6126022,6.0046272,0.4165890,-48.7786255,3.1908398,-189.6717529
2930,19.6126022,5.5162125,0.8762733,-51.9083977,5.5038166,-216.3893127
2940,19.6126022,5.0493455,1.2162483,-53.5877876,9.0305347,-239.2213745
2950,19.6126022,4.8123207,1.3168042,-55.0687027,13.3435116,-250.1374054
2960,19.2085819,4.3454537,1.0869620,-56.8091621,13.5648851,-250.1374054
2970,18.4400463,4.0078731,1.3838415,-58.4809151,5.3435116,-250.1374054
2980,17.6906662,3.4835455,1.7477583,-56.6641235,-12.7633591,-250.1374054
2990,16.8910065,2.9616125,2.4013720,-51.5496178,-43.8931313,-250.1374054
3000,15.6244802,2.3486998,2.9855542,-45.7175560,-77.0305328,-250.1374054
3010,14.0107965,1.5634058,3.2345500,-41.6946564,-98.9160309,-250.1374054
3020,12.3085279,0.7469871,3.5505829,-38.8015251,-106.4122162,-250.1374054
3030,10.1633339,0.0454896,3.8426740,-35.5267181,-101.3358765,-250.1374054
3040,7.6901364,-0.4237715,3.8402798,-32.1221390,-89.8015289,-250.1374054
3050,5.4898763,-0.8092360,3.7540891,-29.1068707,-80.2671738,-250.1374054
3060,3.7923961,-0.7996593,4.0509686,-27.3206100,-75.0839691,-250.1374054
3070,2.6072724,-0.8020535,4.7548604,-25.2061062,-71.0076370,-250.1374054
3080,1.5059452,-1.0989330,5.1666608,-21.0992374,-64.3893127,-250.1374054
3090,0.5602403,-1.3598996,6.3493905,-14.5190840,-56.6183205,-250.1374054
3100,-0.5913648,-1.9943599,7.3429790,-3.9770992,-47.1068687,-250.1374054
3110,-1.7166338,-2.4516499,7.6566176,6.0305343,-37.3893127,-250.1374054
3120,-2.4277081,-2.6216373,8.1737623,14.6335878,-26.0916023,-250.1374054
3130,-3.4356618,-2.3510940,8.8177996,27.0000000,-14.5725193,-250.1374054
3140,-4.4077029,-2.1763182,8.8800488,41.6183205,-1.1984733,-250.1374054
3150,-5.4850879,-2.2170193,8.1809454,56.2824440,19.5801525,-250.1374054
3160,-6.9623032,-2.2361729,7.0724359,67.4122162,34.4427490,-250.1374054
3170,-8.6693602,-2.1523764,6.0788469,76.1526718,36.9389305,-237.2977142
3180,-10.7714586,-2.2385671,5.4802995,86.9007645,29.3282452,-215.4732819
3190,-13.2231083,-2.2672975,4.8195033,98.1755753,10.0458012,-184.8854980
3200,-15.1145182,-2.2529323,4.1227942,111.1984711,-18.5190830,-145.4580078
3210,-16.0721931,-2.1619530,3.4500270,121.7633591,-41.4122124,-98.3893127
3220,-16.3355541,-1.9584470,2.7988074,129.6030579,-52.8625946,-48.5114517
3230,-15.8375635,-1.8554969,1.7836711,132.5114441,-56.0228996,3.2442749
3240,-15.0642405,-1.7166338,1.0175306,132.2595367,-49.4885483,53.2824440
3250,-14.4465389,-1.8842272,0.1125269,129.8396912,-39.0000000,102.8015289
3260,-13.9270000,-2.0422437,-0.6967092,123.9465637,-28.3206100,152.4732819
3270,-12.9070749,-2.3798244,-1.7381816,112.1679382,-8.9236641,205.8396912
3280,-12.6221666,-3.0118904,-2.7940190,91.7175598,24.8702297,250.1297760
3290,-13.1033993,-3.7540891,-4.0749106,60.2595406,67.7022934,250.1297760
3300,-13.5391417,-5.4802995,-5.2241216,16.7786255,119.2442780,250.1297760
3310,-13.4673157,-7.9870162,-4.8338685,-32.6564903,173.6946564,250.1297760
3320,-11.8249016,-11.8392668,-1.9871773,-83.0152664,233.1526642,250.1297760
3330,-8.1354561,-15.9213600,2.4827745,-119.7480927,250.1297760,250.1297760
3340,-1.7740943,-19.6131992,6.8809004,-129.6793823,250.1297760,250.1297760
3350,9.9382801,-19.6131992,10.3955708,-110.1450348,250.1297760,250.1297760
3360,19.6126022,-19.6131992,12.0451670,-71.7175598,250.1297760,250.1297760
3370,19.6126022,-17.8079815,11.7099810,-30.2671757,250.1297760,250.1297760
3380,19.6126022,-11.8201132,10.2279778,-1.5419847,250.1297760,250.1297760
3390,19.6126022,-7.4698710,7.7116842,0.8931298,250.1297760,250.1297760
3400,19.6126022,-4.0677280,6.5385313,-10.7328243,250.1297760,250.1297760
3410,19.6126022,-1.0462608,4.4436154,-22.2977104,250.1297760,250.1297760
3420,19.6126022,-0.0933734,2.9400647,-32.8320618,190.1526642,222.8244324
3430,19.6126022,0.4979914,4.8338685,-34.3282433,-33.9389305,121.8625946
3440,19.6126022,0.4764437,7.9702568,-15.1297712,-235.2290039,67.2824402
3450,18.3083668,0.8882443,9.9430685,23.8167934,-250.1374054,49.5725174
3460,17.5757446,1.7238164,9.4642305,62.7328262,-250.1374054,52.8854980
3470,17.0394459,2.5378408,7.7236552,89.0381699,-250.1374054,69.2366409
3480,17.3842087,3.5170643,5.0230093,99.5190811,-222.3893127,91.7175598
3490,18.3347034,4.6064205,1.7836711,90.7328262,-119.3740463,112.9160309
3500,19.6126022,5.4755111,-0.9073978,63.8167953,-7.5954199,126.7022934
3510,19.6126022,6.3565731,-2.4540441,25.3511448,90.7175598,125.6183243
3520,19.6126022,6.7899213,-1.6519908,-10.7175570,158.2595367,110.6870193
3530,19.6126022,6.7707677,-0.2442073,-31.6564884,187.7709961,86.3129807
3540,18.1886578,6.3948798,0.8786675,-40.9847336,185.4809113,56.1603050
3550,16.1105003,5.8394279,1.7956421,-41.0076332,155.5954132,27.9618320
3560,13.9820662,5.2528515,2.2050486,-34.6488533,105.9312973,3.9007633
3570,12.2079716,4.6902170,2.2457497,-26.8396950,52.3206100,-13.5190840
3580,10.9031391,4.3693957,2.2672975,-19.5801525,4.0229006,-24.0610695
3590,10.1753054,4.1084290,2.3870070,-14.4045801,-33.1984749,-30.7328243
3600,9.8305416,3.8235207,2.5569944,-10.6870232,-56.1679382,-34.0687027
3610,9.6509781,3.4907281,2.7533178,-6.7633586,-65.8320618,-33.2595406
3620,9.4091644,3.5003049,2.7030399,-1.0305344,-67.1679382,-29.0534344
3630,9.5504217,3.2656744,2.2218077,3.2595420,-62.3740463,-23.4198475
3640,10.0603838,3.2680686,1.7022687,4.0839696,-51.0076332,-17.6106873
3650,10.9366570,3.3207407,1.5011568,1.5954199,-36.5038185,-13.8167934
3660,11.6836443,3.4572096,1.2114599,-1.9083970,-21.0916023,-12.8625956
3670,12.2390966,3.5146701,1.0534433,-7.1145039,-7.8473282,-15.3893127
3680,12.8472204,3.5194585,1.1994889,-12.4427481,-0.0916031,-20.3816795
3690,13.5463238,3.5529771,1.5346755,-16.0152664,-0.8931298,-26.5419846
3700,14.3986549,3.8354914,1.5418580,-17.1984730,-7.2900763,-34.5038185
3710,15.2509871,4.1180058,1.6088953,-18.0381680,-15.6106873,-45.3435097
3720,16.8766422,4.2065907,1.5418580,-19.0839691,-25.6412220,-59.3893127
3730,18.7632618,4.7165532,1.5250987,-20.8931293,-33.5877876,-77.3435135
3740,19.6126022,5.1977854,1.5801650,-22.2900772,-37.2671738,-100.8396912
3750,19.6126022,5.5880380,1.4149660,-24.0610695,-36.3511467,-128.0763397
3760,19.6126022,5.8849177,0.9241571,-27.9618320,-30.1832066,-157.7404633
3770,19.6126022,5.9543490,0.4692611,-35.2595406,-21.2213745,-187.7709961
3780,19.6126022,5.8992829,0.1197095,-46.3969460,-11.8549614,-218.5877838
3790,19.6126022,5.5042415,0.2059003,-58.7099228,-5.8244276,-250.1374054
3800,19.6126022,4.8625989,0.3399749,-70.1603088,-1.2366412,-250.1374054
3810,19.6126022,4.1156116,0.4333483,-80.0687027,1.3511450,-250.1374054
3820,19.6126022,3.2225790,1.0510491,-86.1297684,-4.0610685,-250.1374054
3830,18.4184990,2.4684093,1.7932479,-87.0381699,-15.6412210,-250.1374054
3840,16.6659527,1.7118455,2.3582766,-82.9389343,-28.0610695,-250.1374054
3850,15.1815557,1.2497669,2.7916248,-77.4045792,-43.2137413,-250.1374054
3860,13.3883076,0.6320660,3.3638363,-71.3435135,-57.0534363,-250.1374054
3870,11.5088692,0.0885850,3.9384418,-63.8854980,-65.5801544,-250.1374054
3880,9.5911226,-0.2442073,4.1682839,-55.8473282,-65.1145020,-250.1374054
3890,7.6781654,-0.5003856,4.2784166,-47.4045792,-58.3358765,-250.1374054
3900,5.9471664,-0.5650287,4.1204000,-39.4427490,-54.0381660,-250.1374054
3910,4.3382711,-0.4237715,3.8426740,-32.1679382,-51.9771004,-250.1374054
3920,2.8179610,-0.2729376,3.0597742,-27.5190830,-51.3969460,-250.1374054
3930,1.7669119,-0.1173153,2.5234756,-26.8167934,-48.6793900,-250.1374054
3940,0.8188128,-0.1484398,2.1882892,-28.9312973,-44.1221390,-250.1374054
3950,0.0814024,-0.1268920,1.9656296,-32.7557259,-38.0076332,-250.1374054
3960,-0.5674229,-0.2130829,1.9608412,-37.6717567,-31.9923668,-250.1374054
3970,-1.3694763,-0.4596844,1.9033806,-42.9465637,-24.6335869,-250.1374054
3980,-2.6671271,-0.8786675,1.9153515,-47.1450386,-14.2366409,-250.1374054
3990,-4.3574247,-1.5681942,2.2050486,-48.9007645,-3.2366412,-250.1374054
4000,-6.4212160,-2.1380112,2.9448531,-47.7862587,1.3129771,-250.1374054
4010,-9.0069408,-2.4492557,3.6295912,-43.1297722,0.3969466,-250.1374054
4020,-11.4490137,-2.5330524,3.5745249,-37.4656487,7.8778625,-227.2213745
4030,-13.7091284,-2.5713594,3.5697365,-32.4122124,16.3129768,-179.9541931
4040,-15.5718079,-2.1906834,2.9999194,-30.8167934,27.2213745,-122.7709961
4050,-16.5797615,-2.0494261,2.4181314,-35.6564903,46.4656487,-60.2519073
4060,-16.5821552,-2.1787124,1.8531027,-44.1832047,67.2290039,4.0381680
4070,-15.5837793,-2.3032103,1.6400198,-52.7328262,78.5801544,64.0229034
4080,-13.9437590,-2.6719155,1.1659702,-60.7328262,80.5725174,116.6717529
4090,-12.2606440,-3.1459649,0.7326220,-68.8167953,79.3511429,159.2442780
4100,-10.8696203,-3.6248028,0.2992737,-75.2824402,66.5648880,195.2137451
4110,-9.6749191,-4.0078731,-0.3687052,-82.2748108,44.2290077,224.2213745
4120,-9.2032642,-4.7093706,-0.7781116,-87.0305328,8.6488552,249.3816833
4130,-8.1474266,-5.3462253,-1.2018831,-91.7862625,-31.1221371,250.1297760
4140,-6.7324610,-6.2440462,-0.8259954,-95.9007645,-63.3435097,250.1297760
4150,-5.8154860,-7.1753860,0.0502780,-98.7175598,-78.8091583,250.1297760
4160,-6.0980005,-8.7028790,1.0031654,-98.6030502,-85.8702316,250.1297760
4170,-6.6271162,-10.1010857,2.8035958,-93.0534363,-90.4427490,250.1297760
4180,-6.8761120,-11.5328102,4.0653338,-83.3282471,-91.9007645,250.1297760
4190,-6.4260044,-14.0251617,5.1092005,-75.3969498,-74.7480927,250.1297760
4200,-4.4148855,-16.8191814,6.7779503,-71.1297684,-34.0152664,250.1297760
4210,-0.5674229,-19.0792961,8.9327211,-69.6870193,33.0839691,250.1297760
4220,4.2018023,-19.6131992,11.2694502,-71.9542007,123.1679382,250.1297760
4230,8.6885138,-19.6131992,14.2789459,-75.0152664,205.4122162,250.1297760
4240,16.5438499,-19.6131992,17.4201221,-78.1679382,250.1297760,250.1297760
4250,19.6126022,-19.6131992,19.6126022,-76.1221390,250.1297760,250.1297760
4260,19.6126022,-19.6131992,19.6126022,-50.1145020,250.1297760,250.1297760
4270,19.6126022,-11.1090393,19.6126022,8.0076332,250.1297760,250.1297760
4280,19.6126022,-0.8236012,19.6126022,69.8244247,199.0763397,250.1297760
4290,19.6126022,3.6104376,19.6126022,98.1984711,110.8702316,215.5114441
4300,19.6126022,3.1172347,14.9397421,89.3816757,36.3740463,82.4656525
4310,19.6126022,1.5753766,12.5120344,76.0839691,-16.5496178,22.8091602
4320,16.8886127,0.9337339,11.0803089,67.7557220,-41.7938919,21.0839691
4330,13.4888630,1.2210367,9.5528164,56.0763359,-32.8015251,50.9160309
4340,15.5287132,3.7301471,9.1434097,39.2900772,39.8702278,99.9770966
4350,16.8886127,4.6710634,9.1721401,38.6030540,61.9618340,95.0687027
4360,16.9508610,5.0996237,8.7938576,42.3511467,62.7328262,77.9770966
4370,15.8136215,5.0349803,8.0947542,47.9007645,40.7938919,52.7328262
4380,12.4545736,4.4579806,5.9758968,51.4427490,-26.6030540,10.2748089
4390,10.9175043,4.0102673,5.0517397,45.1297722,-56.4198456,-1.1679389
4400,10.0029240,3.6750808,4.6878228,35.1450386,-79.4732819,-7.1145039
4410,9.5432396,3.4236910,4.9607606,25.9007626,-97.7022934,-10.4885492
4420,9.3253679,3.2489152,5.5808558,20.3358784,-113.2900772,-13.1374044
4430,9.4187412,2.8754215,6.0525107,18.5801525,-125.9542007,-14.7786255
4440,10.0795374,2.7628946,6.4212160,19.6488552,-134.9084015,-17.1145039
4450,10.8528605,2.9999194,6.5672617,20.9541988,-140.9847260,-21.0229015
4460,11.6070309,3.3207407,6.6654234,21.0916023,-142.0229034,-27.7022896
4470,12.2750092,3.6798692,6.7492199,19.3740463,-139.0686951,-36.1984749
4480,12.9382000,3.9360476,7.0221577,16.7251911,-134.0839691,-46.7557259
4490,13.3140879,4.1156116,7.3310080,13.3664122,-129.0610657,-58.5190849
4500,13.4361916,4.2018023,7.5416965,8.4732828,-129.4198456,-71.3969498
4510,13.4601336,4.2975702,7.9391322,4.0610685,-136.4351196,-85.7480927
4520,13.5367470,4.4005203,8.8561068,1.8396946,-145.8320618,-99.0916061
4530,13.3763361,4.5082588,9.7706871,4.5190840,-157.8549652,-111.2290039
4540,13.3739424,4.9200592,10.7714586,12.3969469,-172.8091583,-123.5801544
4550,13.7282820,5.0708933,11.3340931,23.6717548,-188.2519073,-136.9770966
4560,14.1616306,4.9990678,11.3221216,35.3969460,-199.6564941,-152.3816833
4570,14.5087881,4.8793583,11.0779142,46.2213745,-204.9541931,-168.6946564
4580,14.7338419,4.6950054,10.5080976,55.7938919,-203.7251892,-185.5572510
4590,14.5039997,4.1108232,9.6437950,63.6183205,-195.5343475,-202.7633514
4600,13.6157551,3.5338237,8.9399033,70.1755753,-181.1984711,-215.9465637
4610,12.8663740,3.1483591,8.1258793,76.7557220,-165.9541931,-224.3816833
4620,12.2797976,2.8562679,7.1442614,84.3358765,-150.3511505,-230.8854980
4630,11.3125448,2.5905130,5.9328012,90.3893127,-134.5877838,-236.6259613
4640,10.1489687,2.5067163,4.8195033,94.2900772,-119.8167953,-240.0610657
4650,8.9207497,2.4636209,3.7181761,96.4503784,-106.1450348,-240.3206177
4660,7.9008250,2.3726418,2.5689652,99.5114517,-97.2977066,-239.0381622
4670,6.9862447,2.3199697,1.4652439,99.6717529,-96.7404556,-238.8778687
4680,6.3996682,2.4755919,0.6344602,97.4885483,-100.1832047,-239.9313049
4690,6.0525107,2.6096666,-0.2059003,95.3129807,-104.8931274,-242.0610657
4700,5.6526814,2.7078283,-0.8020535,91.3969498,-110.0763321,-246.1145020
4710,5.0780759,2.6838863,-1.2593436,86.6183243,-112.6412201,-250.1374054
4720,4.3670015,2.3151813,-1.7669119,81.4122162,-109.3511429,-250.1374054
4730,3.5505829,1.9871773,-2.2864509,75.9312973,-104.8778610,-250.1374054
4740,2.9089401,1.6088953,-2.3391230,71.4122162,-104.8625946,-250.1374054
4750,1.8459201,1.2449785,-2.2265961,69.1679382,-104.0229034,-250.1374054
4760,0.7110743,0.8643024,-2.1260402,67.6335907,-101.1297684,-250.1374054
4770,-0.2681492,0.5913648,-2.1356170,66.4580154,-94.3816757,-250.1374054
4780,-1.2330076,0.4979914,-2.0925217,65.4427490,-85.2595444,-239.2290039
4790,-1.7788827,0.4405309,-1.9009864,65.1679382,-75.5954208,-224.7251892
4800,-2.2385671,0.2633608,-2.1116750,65.5267181,-64.1908417,-208.7328186
4810,-2.6407909,-0.0454896,-2.4348907,64.8396912,-57.0152664,-191.7404633
4820,-2.9328821,-0.3806761,-2.7533178,62.9847336,-47.3587799,-174.1068726
4830,-3.5362179,-0.7517755,-2.9687948,58.7557259,-34.0916023,-153.9770966
4840,-4.3693957,-1.1061156,-2.9137285,54.5038185,-23.3816795,-130.4732819
4850,-4.7931671,-0.9552816,-3.0454090,50.2977104,-13.6641226,-105.3206100
4860,-5.3917146,-0.7493813,-3.2944047,45.1526718,-5.9770994,-82.1679382
4870,-5.6383162,-0.7613522,-3.2249732,39.3816795,1.0229008,-59.6030540
4880,-6.2057390,-0.7565638,-2.6551561,31.6183205,3.7633588,-35.6946564
4890,-6.7133074,-1.0151364,-2.2218077,25.1297703,6.2442746,-6.6641221
4900,-7.5129666,-1.4341195,-1.5586174,22.2290077,11.5801525,27.7862587
4910,-8.9901810,-1.6136837,-0.8116302,21.9389305,21.5572510,71.7480927
4920,-11.5040808,-2.0278785,-0.9073978,20.3664131,40.5954208,132.3664093
4930,-14.4178085,-3.0071020,-2.0230901,13.2061071,72.2671738,209.8549652
4940,-16.8359394,-4.9344244,-3.0310438,3.0610688,102.6793900,250.1297760
4950,-16.8311520,-6.4738884,-2.6599445,-4.9007635,123.1755753,250.1297760
4960,-13.5726604,-8.0732069,-2.2050486,-14.4503813,147.7175598,250.1297760
4970,-9.4546537,-10.7020273,-1.9656296,-27.2900772,180.2442780,250.1297760
4980,-0.9217629,-14.2693691,-1.1779412,-48.1221390,230.7251892,250.1297760
4990,12.0068598,-14.7721491,-1.0223188,-79.9389343,250.1297760,250.1297760
5000,19.6126022,-11.5232334,-2.2026544,-124.1374054,250.1297760,250.1297760
5010,19.6126022,-8.0181408,-2.4588325,-194.5572510,250.1297760,250.1297760
5020,19.6126022,-5.0445571,4.6207857,-245.7557220,250.1297760,250.1297760
5030,19.6126022,0.1580165,16.8072090,-207.1908417,250.1297760,250.1297760
5040,19.6126022,3.9959023,19.6126022,-79.3664093,59.5190849,250.1297760
5050,19.6126022,5.0206151,19.0242290,51.2977104,-113.8931274,131.6488495
5060,19.6126022,5.1235652,9.7898407,106.5725174,-165.1984711,38.3740463
5070,19.6126022,4.7428894,3.2752512,98.0457993,-134.6870270,-1.2061069
5080,19.6126022,3.6128318,0.4429250,56.7633591,-45.5114517,-0.8320611
5090,17.4129391,3.6295912,-0.2609667,10.8854961,69.9083939,21.6335869
5100,15.0618458,3.6439564,0.4836263,-26.0610695,171.9541931,50.4351158
5110,14.0203733,3.9815371,1.9009864,-47.3129768,241.5343475,72.5496216
5120,13.5391417,4.3430595,2.6671271,-54.0992355,250.1297760,78.0000000
5130,13.0770626,4.5992379,3.4165084,-49.8854980,236.2213745,66.9847336
5140,12.4880924,4.7045822,3.7493007,-36.1450386,172.8396912,46.5343513
5150,11.4897156,4.4412212,3.5553713,-17.6106873,96.4732819,23.8702297
5160,8.2000990,3.4739690,1.4652439,4.4274807,-63.2595406,-10.6335878
5170,7.4890246,2.9711890,1.3000449,-1.2213740,-76.8473282,-6.0229006
5180,7.2711535,2.0446377,1.8842272,-12.5801525,-69.4503784,16.3129768
5190,7.5081782,1.7118455,2.4444675,-13.3587790,-61.0458031,29.1450386
5200,8.1163025,1.4867916,2.8203552,-9.8396950,-52.1068687,41.8244286
5210,9.1793222,1.4652439,3.0501974,-4.3206105,-41.9694672,52.3282433
5220,10.4961262,1.5538290,3.0238612,1.3893130,-31.0839691,59.2900772
5230,12.1145983,1.9081690,2.6647329,6.1145039,-18.8091602,61.1755714
5240,15.8662939,2.9280937,1.5059452,5.5419846,8.1145039,46.4656487
5250,16.7282009,3.3087699,0.8547257,-0.4809160,20.2442741,31.0000000
5260,16.9771976,3.1914546,0.5147507,-9.5801525,26.7862587,14.0381680
5270,17.0346584,2.8012016,0.5051740,-19.0458012,27.5267181,-1.7786260
5280,16.9221306,2.4875629,0.8571198,-24.7938938,20.8015270,-13.2137403
5290,17.2405586,2.1835008,1.1611819,-26.0229015,9.4503813,-22.2671757
5300,17.9157200,2.1930776,1.2808913,-24.0000000,-2.9618320,-31.4503822
5310,19.0338058,2.5450234,1.0941446,-21.3816795,-10.7557249,-42.2977104
5320,19.6126022,3.2944047,0.8331779,-18.9847336,-12.4045801,-57.7404594
5330,19.6126022,3.7325413,0.3064562,-20.6641216,-12.9847326,-78.7175598
5340,19.6126022,3.9456241,-0.2442073,-27.4503822,-12.1450386,-103.1068726
5350,19.6126022,4.0844874,-0.7733232,-39.2671738,-11.8320608,-129.8320618
5360,19.6126022,3.8690102,-0.8882443,-53.6106873,-11.9465647,-158.3587799
5370,19.6126022,3.5410061,-0.8259954,-69.3664093,-11.7709923,-188.4732819
5380,19.6126022,2.9999194,-0.6296718,-84.8396912,-10.7099237,-218.9007568
5390,19.6126022,2.4588325,-0.4213773,-99.6564865,-9.0305347,-250.1374054
5400,19.6126022,1.8794388,0.0430954,-113.1068726,-5.2061067,-250.1374054
5410,19.1822453,0.9624642,0.2130829,-125.7404556,-0.8244275,-250.1374054
5420,17.9372673,0.1029501,0.7230452,-136.3816833,-1.0839695,-250.1374054
5430,16.5701847,-0.6177009,1.1899122,-144.7022858,-6.5419846,-250.1374054
5440,15.1695843,-1.4508789,1.9943599,-150.4122162,-12.0610685,-250.1374054
5450,13.0435438,-2.4253139,2.5881188,-153.6641235,-14.4885492,-250.1374054
5460,10.5176744,-3.4260850,3.1268115,-153.6183167,-16.5954189,-250.1374054
5470,7.9056134,-4.2257442,4.0796990,-149.7328186,-20.4656487,-250.1374054
5480,5.5545197,-4.4795284,5.0397687,-140.7938995,-26.2137413,-250.1374054
5490,3.7181761,-4.2951760,5.6431046,-128.4580078,-31.3511448,-250.1374054
5500,2.1787124,-3.9815371,6.1387019,-114.5114517,-35.7099228,-250.1374054
5510,0.7829000,-3.4715748,6.3015065,-101.0457993,-38.5572510,-250.1374054
5520,-0.4309541,-3.1387823,6.1794028,-88.8473282,-40.6641235,-250.1374054
5530,-1.4293311,-2.5809362,6.2799587,-78.5725174,-43.4351158,-250.1374054
5540,-2.2768741,-2.1715298,6.3398137,-68.0687027,-43.6259537,-250.1374054
5550,-2.8802099,-1.7022687,6.3900914,-57.6030540,-39.5419846,-250.1374054
5560,-3.3279233,-1.4173602,6.1698260,-47.7557259,-32.0458031,-250.1374054
5570,-4.0246325,-1.5083394,5.9160423,-38.7557259,-21.9465656,-250.1374054
5580,-4.8913293,-1.5514348,5.5545197,-31.4809170,-12.0458012,-250.1374054
5590,-5.8466105,-1.7405758,5.2743993,-25.1145039,-3.8396947,-250.1374054
5600,-6.7037306,-1.8147956,5.1020179,-19.8015270,3.1145039,-250.1374054
5610,-7.6398587,-1.9249283,5.0541339,-13.7099237,6.0458016,-250.1374054
5620,-8.5640154,-1.9440818,4.6399393,-8.4427481,6.0839696,-231.1297760
5630,-9.7323799,-1.9249283,4.2855992,-4.7633586,4.9083967,-205.7709961
5640,-11.4322548,-1.7214222,3.9911139,-2.9694657,3.5114503,-172.1068726
5650,-13.4314032,-1.7788827,3.6750808,-2.0687022,-4.4503818,-129.6946564
5660,-15.4808292,-1.3838415,2.5976956,-3.4885497,-20.7328243,-74.3587799
5670,-17.0705700,-1.0606259,0.8355721,-14.2977095,-34.6564903,-6.4961834
5680,-17.5039196,-1.1300575,-0.5434810,-39.1984749,-38.1068687,68.3587799
5690,-17.0083218,-1.7788827,-0.5985473,-72.8702316,-25.7099228,147.1908417
5700,-15.9955797,-2.8395088,0.7350162,-104.8778610,2.4427481,223.1908417
5710,-15.2174683,-4.5489597,2.4420733,-129.4198456,40.8320618,250.1297760
5720,-14.6620159,-6.4930420,4.0796990,-142.2671814,77.8091583,250.1297760
5730,-14.2980995,-8.3461447,5.4324160,-145.0839691,99.5267181,250.1297760
5740,-14.1424770,-10.5703468,6.0908179,-140.5496216,106.2366409,250.1297760
5750,-13.4242201,-13.4912577,6.4475522,-130.1526642,94.7480927,250.1297760
5760,-11.1664991,-17.0250816,6.7276726,-116.7709961,67.2213745,250.1297760
5770,-6.7540083,-19.6131992,6.9838505,-102.9542007,25.9465656,250.1297760
5780,1.4556671,-19.6131992,8.0348997,-85.3969498,-23.0610695,250.1297760
5790,16.3882275,-19.6131992,9.4331064,-61.5496178,-44.7022896,250.1297760
5800,19.6126022,-19.6131992,10.6421719,-41.7557259,8.6183205,250.1297760
5810,19.6126022,-17.4895535,10.9031391,-63.5801544,165.9465637,250.1297760
5820,19.6126022,-0.7493813,11.8320847,-140.2442780,250.1297760,250.1297760
5830,19.6126022,4.4172797,19.6126022,-185.9160309,250.1297760,250.1297760
5840,19.6126022,-0.0335187,19.6126022,-129.0763397,250.1297760,118.5190811
5850,17.6451759,-3.2800395,19.6126022,-26.3816795,125.1374054,37.5725174
5860,6.9072366,-2.6264257,19.6126022,69.4656525,-130.8549652,19.5267181
5870,5.1307478,-0.5841822,14.7098999,126.6106873,-250.1374054,36.9083977
5880,9.5408449,1.7118455,11.0659437,146.7709961,-250.1374054,58.7862587
5890,13.2135315,3.0908985,8.5328913,139.0686951,-250.1374054,72.9847336
5900,12.7897596,3.3662305,6.6199336,112.4045792,-193.5038147,90.6106873
5910,10.5727406,2.6336083,5.8561873,81.3969498,-76.7480927,117.6946564
5920,9.6246414,0.1221037,6.0261750,40.0610695,53.2442741,182.4427490
5930,15.1719790,2.4348907,8.0756006,29.2900772,83.8396912,196.0686951
5940,17.1663380,2.2601149,10.0986910,39.5496178,82.9847336,169.6793823
5950,13.9078465,3.0406206,8.0540533,60.0916023,68.0457993,139.3206177
5960,10.4219065,1.3311694,5.6454988,71.5038147,34.7175560,123.1221390
5970,11.9589767,2.1787124,3.8977404,64.9542007,35.9923668,117.7709961
5980,14.5327301,3.4404502,5.0349803,57.3740463,28.4122143,89.8396912
5990,13.9222116,3.0118904,4.8242917,56.6870232,12.1984730,58.1526718
6000,12.6963863,2.6623387,3.6678982,50.3358765,12.3282442,41.0687027
6010,12.7442703,2.7652888,3.3375001,36.0992355,14.9770994,27.9312973
6020,12.7322998,2.7700772,3.9935081,22.9694653,12.9923668,12.2671757
6030,11.9446115,2.2601149,5.3198891,5.7709923,12.3282442,-10.6259546
6040,12.1576939,2.2337787,5.6574697,4.3206105,13.5954199,-15.6335878
6050,12.4354200,2.2002602,5.5473371,3.1526718,16.0610695,-20.4656487
6060,13.1632538,2.1667414,5.5162125,-0.3587786,18.5648861,-26.1297703
6070,13.5439301,2.3367288,5.5808558,-5.8091602,19.8396950,-34.4122124
6080,13.8168669,2.4348907,5.9615316,-10.5877867,17.3435116,-46.1145020
6090,13.7737722,2.3199697,6.4499464,-13.1679392,10.0610685,-59.4809151
6100,13.6133614,2.2768741,6.7252784,-13.4732828,-0.1603053,-73.0916061
6110,13.5391417,2.1332228,6.8114691,-12.8854961,-11.6030531,-86.2824402
6120,13.3930960,1.9009864,6.7276726,-13.9312973,-21.9236641,-99.0763321
6130,13.5894194,1.5658000,6.6582408,-16.6564884,-31.7099228,-112.1908417
6140,14.0754395,1.4556671,7.0365229,-19.8015270,-40.4961815,-125.8167953
6150,14.8511572,1.4532729,7.3334022,-22.2519093,-46.5954208,-141.9847260
6160,15.6292686,1.4436963,7.6326761,-24.1450386,-49.5267181,-160.7633514
6170,16.4792061,1.4029950,7.7092900,-26.8778629,-48.9618340,-182.8473358
6180,16.6970768,1.3551112,7.7978749,-30.8778629,-45.9465637,-206.8854980
6190,16.5414543,1.2282192,7.8146343,-34.1679382,-39.4885483,-231.5343475
6200,16.1105003,0.8571198,7.6446471,-37.1755714,-31.3969460,-250.1374054
6210,15.7394018,0.3112446,7.3477674,-40.7251892,-27.2442741,-250.1374054
6220,15.6987000,-0.2681492,7.3334022,-46.1526718,-34.1832047,-250.1374054
6230,16.4672356,-0.5458752,7.6997132,-50.7328262,-50.9847336,-250.1374054
6240,18.1862640,-0.6153067,8.2455883,-54.4274826,-69.6793900,-250.1374054
6250,18.1814747,-1.5346755,9.0452480,-57.4198456,-88.0687027,-250.1374054
6260,16.8718529,-2.4971397,10.2519188,-58.4427490,-101.7251892,-250.1374054
6270,15.0402985,-3.1890604,11.5399933,-52.9007645,-106.6946564,-250.1374054
6280,12.6628675,-3.2513094,12.5287933,-40.1984749,-102.2519073,-250.1374054
6290,9.9861641,-3.1651185,12.9094696,-22.4045811,-86.6183243,-250.1374054
6300,7.6207051,-2.8538737,12.5599174,-2.7328243,-65.2061081,-250.1374054
6310,5.5233951,-2.2170193,11.8488436,15.5572519,-44.7633591,-250.1374054
6320,4.0366035,-1.4939742,11.0324249,30.3969460,-30.8549614,-250.1374054
6330,2.6934631,-0.9409165,10.1944590,42.6717567,-24.9923668,-250.1374054
6340,1.5418580,-0.6105183,9.6198530,53.6564903,-24.9770985,-250.1374054
6350,0.7374104,-0.7278336,9.0117292,63.8015251,-29.2595425,-250.1374054
6360,0.1053443,-0.6679789,8.5424681,73.0000000,-35.6106873,-250.1374054
6370,-0.3854645,-0.6392486,7.6398587,78.9160309,-39.2442741,-250.1374054
6380,-0.9073978,-0.8523315,6.7348547,80.1374054,-38.0152664,-250.1374054
6390,-1.5753766,-1.1707586,5.9351954,75.5496216,-32.2213745,-250.1374054
6400,-2.2936335,-1.5442522,5.4395986,67.3282471,-20.9923668,-250.1374054
6410,-2.9616125,-1.9464760,5.5162125,58.7633591,-8.0916033,-250.1374054
6420,-3.7085996,-2.4779861,5.8202744,52.4351158,8.0229006,-250.1374054
6430,-4.9847026,-3.0430148,6.3637557,50.5496178,25.8702297,-250.1374054
6440,-6.8282285,-3.7900019,6.6989422,53.8702278,38.5496178,-250.1374054
6450,-8.8321648,-4.2592630,6.7611909,61.0687027,46.7251892,-250.1374054
6460,-11.0467901,-4.5322008,6.6079631,70.5572510,47.2748108,-250.1374054
6470,-12.5910425,-4.7428894,6.6199336,82.0687027,37.1984749,-244.2748108
6480,-13.4026728,-4.6830344,6.2512288,95.0000000,19.1068707,-211.1679382
6490,-13.3739424,-4.2616572,4.9104824,102.1068726,-8.1526718,-179.3511505
6500,-12.3037395,-3.6056492,2.7581062,100.0534363,-39.4885483,-152.9389343
6510,-11.2814207,-3.2632802,1.4149660,88.8091583,-62.7862587,-128.2900696
6520,-10.5655584,-3.3518653,0.7924767,69.8167953,-68.9542007,-100.4885483
6530,-10.3213511,-3.3925664,1.1755470,50.8396950,-58.6870232,-66.7099228
6540,-10.2471304,-3.5434003,2.0566087,35.5877876,-38.5877876,-29.5190830
6550,-10.4506369,-3.6295912,3.2177906,25.5954189,-10.2213745,10.5114508
6560,-10.5559816,-3.9408360,4.1491303,22.1832066,23.0229015,52.1908379
6570,-10.8456783,-4.1539187,4.7931671,24.8931293,50.0228996,96.3282471
6580,-10.8121595,-4.5226240,4.9583664,32.6259537,67.2824402,139.3587799
6590,-10.5152798,-5.0589223,4.7644372,43.5267181,73.2061081,182.9541931
6600,-9.9502516,-5.5928264,4.3310885,55.4656487,72.9312973,228.3664093
6610,-9.4139528,-6.2560172,3.5170643,66.3435135,71.1068726,250.1297760
6620,-8.9446917,-6.6965480,2.4923513,74.2442780,69.2595444,250.1297760
6630,-8.6956959,-7.5321202,1.0342898,75.9923630,68.0152664,250.1297760
6640,-8.9662399,-8.5400734,-0.2082945,70.4351120,66.5801544,250.1297760
6650,-9.1290445,-10.0053177,-0.6823440,58.0687027,72.3969498,250.1297760
6660,-9.6892843,-12.4066896,-0.1963235,43.5267181,86.3282471,250.1297760
6670,-9.1386213,-14.8511572,0.9241571,32.6870232,96.9465637,250.1297760
6680,-7.1322904,-18.9069138,2.3798244,29.5954189,104.8473282,250.1297760
6690,-0.8930327,-19.6131992,2.2265961,33.2366409,107.0839691,250.1297760
6700,12.8735571,-19.6131992,-0.0742199,32.2442741,123.0152664,250.1297760
6710,19.6126022,-19.6131992,-4.1850433,4.5038166,192.2748108,250.1297760
6720,19.6126022,-19.6131992,-10.3476868,-81.0534363,250.1297760,250.1297760
6730,19.6126022,-4.8937230,-13.8455973,-250.1374054,250.1297760,250.1297760
6740,19.6126022,7.0580707,2.0853391,-250.1374054,250.1297760,250.1297760
6750,19.6126022,4.5561423,19.6126022,-250.1374054,250.1297760,138.0915985
6760,19.6126022,-1.4436963,19.6126022,-250.1374054,69.8778610,-53.4045792
6770,19.6126022,-3.8714044,19.6126022,-19.8931293,-193.0686951,-168.0076294
6780,12.0738974,-1.6328372,19.6126022,136.9465637,-250.1374054,-186.6488495
6790,10.4051476,1.1755470,13.9724894,192.7633514,-250.1374054,-144.5038147
6800,12.6317434,3.7947903,6.2512288,177.2061005,-250.1374054,-64.2671738
6810,13.9796724,6.0692701,0.4261657,114.4656525,-103.4427490,16.7328243
6820,13.4721041,7.1394730,-2.5569944,29.2900772,86.2595444,77.9312973
6830,12.0882626,7.2065101,-2.0087249,-49.9083977,194.3511505,116.7099228
6840,12.0451670,6.9431496,1.0989330,-90.0839691,226.6183167,130.9465637
6850,12.7753954,6.3996682,3.4045374,-98.5190811,209.0076294,125.4198456
6860,14.0514975,5.8226686,5.3438311,-88.5343475,157.7175598,100.2442780
6870,14.8008795,5.7939386,7.6230993,-62.9618340,86.5877838,61.4809151
6880,14.7817259,5.3701668,8.4395180,-28.3664131,19.5572510,21.7557259
6890,13.9605188,4.8123207,7.8289995,1.8549619,-25.6412220,-9.3587790
6900,12.7275114,4.6303625,6.2823529,18.9389305,-50.2061081,-29.5877857
6910,11.5926657,4.3550305,4.9272418,20.9312973,-54.5801544,-38.8931313
6920,10.6397781,4.0030847,3.9504125,13.4656487,-42.2748108,-39.8625946
6930,9.5504217,3.5194585,3.7540891,0.7786260,-23.2977104,-34.5038185
6940,8.6741486,3.1723011,3.9073172,-12.0610685,-3.8244274,-25.7480907
6950,8.1426382,2.9256995,4.5369892,-21.4427490,13.3893127,-15.9312973
6960,7.7475972,2.6551561,5.0182209,-27.3816795,26.5343513,-6.7557254
6970,6.8306227,2.1260402,5.9375896,-25.0458012,37.5038185,14.3435116
6980,6.6893654,2.0613971,5.9711084,-22.3816795,32.9389305,21.6030540
6990,6.9239960,1.9656296,6.0596933,-19.2824421,26.4198475,28.0916023
7000,7.4507174,1.9153515,6.1602492,-15.8549614,18.2748089,32.8244286
7010,8.2838955,2.0015423,6.6079631,-11.7557249,10.2519083,35.0000000
7020,9.1697454,2.3486998,6.8114691,-5.7328243,4.0916033,34.7328262
7030,9.9334917,2.5929072,6.9335728,0.5190840,2.0992367,33.9083977
7040,10.8863792,2.8682389,6.7683735,5.9465647,2.9312978,32.6259537
7050,11.6716738,3.2752512,6.4379754,9.1450386,7.7404580,31.1145039
7060,16.3379498,5.1092005,6.3039007,-3.1145039,48.8778610,13.8549614
7070,18.2509060,5.6909885,6.5337429,-9.9465647,58.1832047,-1.3053435
7080,19.6126022,6.0740585,7.0317345,-17.4427490,70.0229034,-25.1221371
7090,19.6126022,6.2320752,7.6087341,-24.2442741,79.7022934,-57.1679382
7100,19.6126022,5.9567432,8.4371233,-28.6793900,74.4045792,-97.9618301
7110,19.6126022,5.3462253,9.8856087,-25.6259537,42.7404594,-147.0839691
7120,19.6126022,4.6471219,11.5328102,-12.6641226,-8.6717558,-200.8702240
7130,19.6126022,3.8378856,12.7634239,8.4122133,-61.0534363,-250.1374054
7140,19.6126022,2.9759774,12.9789009,32.2671738,-95.6335907,-250.1374054
7150,19.0122585,2.0781565,11.9996777,50.1603050,-106.9770966,-250.1374054
7160,17.4632187,1.5083394,10.4099360,57.7862587,-100.6259537,-250.1374054
7170,15.8040447,0.8595140,8.7340031,57.1450386,-83.4198456,-250.1374054
7180,14.0706511,0.2274480,7.3836803,51.0381660,-66.0000000,-250.1374054
7190,12.5575237,-0.3351865,6.5744443,42.6106873,-52.6183205,-250.1374054
7200,10.7020273,-0.9744351,6.1506729,34.5114517,-45.6946564,-250.1374054
7210,9.0117292,-1.6759326,5.9088597,27.4427490,-44.4351158,-250.1374054
7220,7.5464849,-2.1835008,6.0716643,23.1908398,-46.9312973,-250.1374054
7230,6.5552907,-2.2265961,6.4092450,22.4274807,-54.1832047,-250.1374054
7240,5.3581958,-2.5186872,6.7611909,24.2137413,-62.9541969,-250.1374054
7250,3.7325413,-2.9065459,6.6726060,26.4885502,-66.7557220,-250.1374054
7260,2.3295465,-3.1435707,6.6055689,28.2595425,-68.3893127,-250.1374054
7270,1.1563935,-3.3614421,6.3086891,28.5190830,-67.5801544,-250.1374054
7280,-0.1508339,-3.3901722,6.1458845,27.0458012,-61.8702278,-250.1374054
7290,-1.3335636,-3.3877780,6.2512288,25.4809170,-51.9312973,-250.1374054
7300,-2.3654592,-3.3662305,6.2201042,24.8549614,-40.2442741,-250.1374054
7310,-3.7229645,-3.5457945,6.3302369,26.1908398,-26.4885502,-250.1374054
7320,-4.8362627,-3.8977404,6.3278427,29.4885502,-13.5114508,-250.1374054
7330,-5.9974446,-3.9839313,6.1363077,33.0534363,-1.4961832,-250.1374054
7340,-7.1083484,-4.0509686,5.7412663,35.9083977,11.0381680,-250.1374054
7350,-8.1570034,-3.9504125,5.2001796,36.9312973,24.8091602,-250.1374054
7360,-9.1051025,-3.8330972,4.8195033,36.5572510,36.8244286,-250.1374054
7370,-9.9310980,-3.6918402,4.4627690,36.2824440,45.8091621,-228.0686951
7380,-10.3859940,-3.6008608,4.1395535,35.9236641,53.8625946,-195.7480927
7390,-10.9151096,-3.3183465,3.7708483,35.5419846,60.1526718,-161.4503784
7400,-11.0803089,-3.1699069,3.5888901,35.3664131,63.6183205,-126.4351120
7410,-11.1784706,-3.1627243,3.2465210,34.1908379,66.5496216,-89.9465637
7420,-11.3029680,-3.1339941,3.0286496,33.3740463,68.8625946,-53.3358765
7430,-11.3029680,-3.2608860,2.7892308,32.5267181,68.6717529,-14.0000000
7440,-11.3771887,-3.2848279,2.7485294,32.9618340,66.6564865,27.0992374
7450,-11.7315283,-3.6798692,2.5186872,33.9694672,65.4503784,73.0152664
7460,-12.3995075,-3.7445123,2.2505381,33.1679382,65.7404556,124.4427490
7470,-12.8448267,-3.9911139,1.9105632,30.0610695,69.4961853,181.2748108
7480,-13.6444855,-4.7333126,1.5658000,23.3969460,78.7175598,246.5038147
7490,-15.0259333,-5.7987270,1.1875180,10.9694653,92.1145020,250.1297760
7500,-16.3020363,-7.3046722,0.8236012,-7.9465647,98.1755753,250.1297760
7510,-17.0801468,-9.8329363,0.7374104,-30.3511448,97.3206100,250.1297760
7520,-18.1120434,-13.3380299,1.2904681,-55.6946564,91.4427490,250.1297760
7530,-17.2285881,-18.4352589,3.1004753,-78.0305328,91.1450348,250.1297760
7540,-13.1967726,-19.6131992,5.9591374,-85.6183243,92.3816757,250.1297760
7550,-5.6024032,-19.6131992,8.6693602,-72.2061081,84.2748108,250.1297760
7560,12.0284081,-19.6131992,9.6749191,-44.7938919,90.1068726,250.1297760
7570,19.6126022,-19.6131992,9.7156210,-22.4580154,201.5038147,250.1297760
7580,19.6126022,-19.6131992,8.2455883,-51.0076332,250.1297760,250.1297760
7590,19.6126022,-11.5040808,7.4028339,-134.0686951,250.1297760,250.1297760
7600,19.6126022,-0.2130829,17.8199520,-170.5190887,250.1297760,250.1297760
7610,19.6126022,1.0462608,19.6126022,-94.7022934,166.5267181,250.1297760
7620,19.6126022,-1.3862357,19.6126022,35.2290077,-116.2213745,98.3969498
7630,19.6126022,0.1412572,14.3268299,118.7175598,-250.1374054,21.1221371
7640,19.6126022,2.2720859,10.3692341,144.7786255,-250.1374054,9.2748089
7650,19.6126022,3.2201848,7.9032192,138.7328186,-250.1374054,36.6641235
7660,18.9571915,3.8714044,4.1778607,104.9007645,-102.4809189,85.5190811
7670,16.0458584,4.3119354,1.3551112,58.3740463,53.2748108,133.8320618
7680,13.8096848,4.6040263,0.6105183,18.5954189,132.2824402,170.6335907
7690,13.9940376,4.2903876,1.7884595,-1.9618320,146.4732819,183.9618378
7700,15.4425220,4.4603748,3.3063757,-1.6335878,123.1297684,173.8778687
7710,17.4177284,4.6782460,4.0485744,6.9389315,96.1908417,146.9770966
7720,17.8941727,4.7500720,3.4332676,10.9541988,93.0763321,111.7251892
7730,14.1352949,3.9647777,1.2880739,-9.1297712,107.3664093,59.0228996
7740,12.0188313,3.3279233,1.1372399,-25.8473282,110.9618301,45.5267181
7750,10.3692341,2.7221935,2.0254843,-39.4961815,107.1679382,36.8320618
7760,9.2415714,2.0757623,3.2082138,-47.0152664,95.6946564,31.5114498
7770,8.7124557,1.4748207,4.4484038,-48.1374054,75.6335907,27.6793900
7780,8.5783806,0.9864060,5.5114241,-43.8473282,51.0916023,23.9923668
7790,8.7124557,0.5578461,6.1794028,-36.5114517,24.3969460,20.1603050
7800,9.0404596,0.3543400,6.4379754,-28.0534344,-2.4427481,16.8320618
7810,9.7228031,0.2992737,6.3637557,-21.4274807,-23.0992374,13.0381680
7820,10.6637201,0.4932030,6.2895355,-18.4351139,-33.8167953,7.8396945
7830,11.3700056,0.7876883,6.2775645,-18.8702297,-32.7557259,1.1526718
7840,11.5232334,0.6799498,6.2655940,-21.0610695,-26.0839691,-5.0305343
7850,11.5352049,0.5985473,6.4331870,-23.9694653,-18.6564884,-7.7175574
7860,12.1217813,0.6991033,6.5864153,-26.3740463,-8.9541988,-9.3206110
7870,12.6915979,0.7278336,7.0197635,-28.8931293,1.4580153,-12.6335878
7880,13.0004492,0.8834559,7.4746594,-29.7786255,10.7938929,-16.8091602
7890,13.3691540,1.1300575,7.9750452,-29.2900772,16.9160309,-20.5572510
7900,14.0179796,1.3838415,8.7076674,-29.1221371,19.6946564,-22.9541988
7910,15.5502605,1.8219782,9.4115591,-29.2290077,22.6259537,-26.0687027
7920,17.7936153,2.6551561,10.6780853,-26.5496178,22.6717548,-36.7938919
7930,19.6126022,3.5003049,12.1864243,-18.4503822,17.9160309,-59.0839691
7940,19.6126022,3.8953462,12.8472204,-6.3053436,14.4198475,-91.9923630
7950,19.6126022,3.8330972,12.7251167,5.4732823,13.6641226,-132.7022858
7960,19.6126022,3.5697365,11.8081427,13.6335878,8.6946564,-178.3664093
7970,19.6126022,2.8969693,10.8791971,17.4351139,-8.5038166,-226.7175598
7980,19.6126022,1.8938038,10.4865494,18.8778629,-31.7251911,-250.1374054
7990,19.6126022,0.9433106,10.3907824,23.0000000,-52.4351158,-250.1374054
8000,18.4615955,0.1316804,10.2495251,29.8091602,-67.0916061,-250.1374054
8010,16.9364967,-0.7829000,9.5504217,36.8854980,-76.9770966,-250.1374054
8020,15.3874559,-1.3622938,8.9638453,43.0687027,-82.3282471,-250.1374054
8030,13.6277266,-1.7166338,8.3078375,47.8625946,-80.6946564,-250.1374054
8040,11.8560257,-2.1260402,7.3549500,51.0610695,-74.2900772,-250.1374054
8050,10.0460186,-2.3463056,6.2440462,50.6793900,-67.4656525,-250.1374054
8060,8.0253229,-2.7892308,5.6933827,48.7862587,-65.2366409,-250.1374054
8070,6.6917596,-2.9280937,5.3390427,46.4351158,-63.4045792,-250.1374054
8080,5.1618724,-3.0837159,5.1738434,45.0228996,-60.7328262,-250.1374054
8090,3.7157819,-3.1292057,4.8434453,43.5801544,-60.8854980,-250.1374054
8100,2.3870070,-3.2465210,4.7285242,43.3740463,-65.0763321,-250.1374054
8110,1.0965388,-3.2537034,5.0756817,44.8091621,-72.5190811,-250.1374054
8120,0.2873027,-3.1507533,5.1786318,48.5801544,-80.6412201,-250.1374054
8130,-0.4285599,-3.0358322,4.9440012,52.3358765,-87.9618301,-250.1374054
8140,-0.9816177,-3.0286496,4.7548604,54.1145020,-90.7328262,-250.1374054
8150,-1.6065011,-2.9448531,4.5681133,54.3206100,-89.5572510,-250.1374054
8160,-2.2481439,-2.8802099,4.5609307,54.1068687,-84.2900772,-250.1374054
8170,-2.9400647,-3.1315999,4.6064205,53.9923668,-76.0534363,-250.1374054
8180,-3.6008608,-3.3255291,4.3023586,53.1908379,-64.6183243,-250.1374054
8190,-4.3502421,-3.4739690,4.1563129,52.1526718,-55.2671738,-250.1374054
8200,-5.0110383,-3.5410061,3.8785870,49.7633591,-46.7480927,-250.1374054
8210,-5.8202744,-3.7540891,3.6391680,47.1374054,-33.8625946,-250.1374054
8220,-6.7348547,-3.9001346,3.3614421,43.6106873,-17.8473282,-250.1374054
8230,-7.6829538,-3.9384418,3.1387823,39.1984749,3.6488550,-250.1374054
8240,-8.7603388,-3.8115497,3.1100521,35.4961815,24.4503822,-250.1374054
8250,-9.9765873,-3.8307030,3.1651185,33.6717567,40.7175560,-223.9084015
8260,-11.3173332,-3.5003049,3.4332676,35.5572510,50.2290077,-184.3816833
8270,-12.7753954,-3.1028695,3.2896163,39.3969460,55.7862587,-139.2748108
8280,-13.9772778,-2.7772598,2.9352763,42.1679382,54.9847336,-87.4961853
8290,-14.8152447,-2.2744799,2.3941894,41.8702278,49.0763359,-30.5114498
8300,-15.4281569,-1.9967541,1.8411317,38.2442741,40.8625946,29.4045811
8310,-15.7729197,-1.8243724,1.1037214,29.4809170,32.8015251,94.4580154
8320,-15.7872849,-1.8842272,0.5746055,14.9847326,26.2519093,161.9236603
8330,-15.2078915,-2.3654592,0.2418131,-4.0381680,24.4580154,234.1450348
8340,-14.8703108,-3.0023136,0.3639168,-25.9465656,28.1450386,250.1297760
8350,-15.0331154,-4.3622131,0.8810617,-48.4732819,33.3816795,250.1297760
8360,-14.8056679,-5.6742291,2.1044924,-63.8473282,29.4351139,250.1297760
8370,-14.3603487,-8.0540533,3.8450682,-64.7862625,13.3053436,250.1297760
8380,-13.4098549,-11.3269100,5.4491754,-49.9847336,-18.2366409,250.1297760
8390,-10.1729107,-15.6436338,6.7396431,-20.8091602,-52.9618340,250.1297760
8400,-4.7979555,-19.6131992,7.2831244,20.9160309,-72.7175598,250.1297760
8410,4.7045822,-19.6131992,6.5265603,68.7251892,-66.0305328,250.1297760
8420,19.5006733,-19.6131992,4.6758518,112.6030502,-4.6870227,250.1297760
8430,19.6126022,-19.6131992,0.1412572,116.9236679,122.2213745,250.1297760
8440,19.6126022,-11.1880474,-5.8897061,40.4961815,250.1297760,250.1297760
8450,19.6126022,1.5849534,-8.2384062,-103.2900772,250.1297760,250.1297760
8460,19.6126022,7.3477674,-2.9783716,-250.1374054,250.1297760,250.1297760
8470,19.6126022,3.8690102,10.7858238,-250.1374054,250.1297760,250.1297760
8480,19.6126022,1.4101776,19.6126022,-231.0992432,250.1297760,171.5496216
8490,14.4369621,-0.3878587,19.6126022,-63.4885483,-12.5572519,107.0610657
8500,15.0786057,1.0582317,19.6126022,96.1755753,-250.1374054,68.7175598
8510,17.9300842,3.7780309,13.2039547,167.0076294,-250.1374054,47.0839691
8520,16.9652271,4.8075323,5.5688848,157.8625946,-250.1374054,50.9389305
8530,13.2901459,3.2632802,0.8690908,103.6946564,-157.9007568,87.7251892
8540,11.5806942,3.3566537,-0.1699875,37.8015251,10.4961834,144.0610657
8550,13.2614155,3.8594334,0.3112446,-25.4656487,133.2900696,183.1068726
8560,15.6532106,4.3406653,3.5003049,-62.3816795,193.9770966,182.0534363
8570,16.6013088,4.5202298,7.5033898,-63.7099228,191.5648804,153.2290039
8580,16.0889530,4.0581512,9.7898407,-38.3511467,144.1068726,111.5114517
8590,14.8918581,3.4763632,9.4139528,-6.1832061,81.5496216,72.6106873
8600,13.4433737,3.3375001,7.1442614,16.6335869,23.7099228,39.6030540
8610,12.0331964,3.2537034,4.9894910,24.2824421,-15.2519083,16.9465656
8620,10.9917240,2.9280937,3.5673423,18.2519093,-35.6564903,4.0610685
8630,10.1824875,2.6814921,3.1363883,5.6259542,-43.3511467,-1.4656489
8640,9.4235296,2.3989778,3.8929520,-5.6335878,-43.7251892,-2.0000000
8650,8.7411861,2.0781565,4.9727316,-11.0687027,-44.3587799,2.3587787
8660,8.3605099,1.4772149,6.5768385,-3.4656489,-51.2977104,18.1755733
8670,10.6613255,1.7621235,6.7300668,13.6793890,-51.4427490,32.7786255
8680,12.0308018,2.1475880,6.2105274,18.4427490,-39.7786255,31.5648861
8690,12.9382000,2.2481439,5.8777351,18.2900772,-25.1068707,25.9083977
8700,13.5654774,2.4540441,5.7747850,16.2900772,-10.5190840,17.9007626
8710,13.9078465,2.7245877,5.6359220,13.9770994,2.5648854,7.0916033
8720,13.8839045,2.7844424,5.3294659,10.3740454,12.3053436,-4.7328243
8730,13.5535069,2.5569944,5.2863703,5.6793895,17.5267181,-14.8320608
8740,13.3404236,2.3295465,5.4970589,1.9618320,17.2671757,-23.8091602
8750,13.5439301,2.3271523,5.9328012,1.1450381,12.3129768,-32.9541969
8760,15.1815557,2.3702476,6.5385313,6.6412215,-3.1908398,-57.8091621
8770,16.2182388,2.5378408,6.5433197,8.5343513,-9.4885492,-76.3435135
8780,16.6180687,2.6479735,6.4116392,8.3816795,-13.5801525,-97.9007645
8790,16.8167858,2.6072724,6.3469963,7.3206105,-15.2977095,-119.7328262
8800,16.8311520,2.6048782,6.5121951,6.1603055,-16.3129768,-141.0381622
8810,16.9724083,2.6168492,6.6702118,6.3893127,-16.2366409,-163.1679382
8820,16.9915619,2.4277081,6.5169835,5.8244276,-15.7709923,-187.0458069
8830,17.5925045,2.5785420,6.4978304,4.8015265,-14.7633591,-213.1679382
8840,17.8534698,2.5162930,6.5074067,3.2671757,-15.3664122,-242.1603088
8850,16.9819851,2.3319404,6.1195483,1.5267175,-23.2442741,-250.1374054
8860,15.6723642,2.0685797,5.9495606,-0.0305344,-41.4580154,-250.1374054
8870,15.0259333,1.6735384,6.2943239,0.1374046,-65.2213745,-250.1374054
8880,14.6165266,1.4389079,6.5169835,2.6946564,-91.8015289,-250.1374054
8890,14.2789459,1.3000449,6.7707677,6.8396945,-114.9083939,-250.1374054
8900,13.2685976,0.8714849,6.6869712,10.2213745,-130.5496216,-250.1374054
8910,11.7794123,0.2992737,6.6534524,12.5725193,-137.7175598,-250.1374054
8920,10.1010857,-0.2609667,6.5648675,14.0381680,-137.4045868,-250.1374054
8930,8.3748751,-0.5506636,6.6821828,16.3435116,-132.3206177,-250.1374054
8940,6.4379754,-0.5602403,6.6127515,20.7099228,-123.6335907,-250.1374054
8950,4.3167233,-0.5339043,6.4260044,24.7938938,-117.7786255,-250.1374054
8960,2.5115047,-0.4501076,6.0764527,28.0458012,-115.1450348,-250.1374054
8970,1.0318956,-0.0909792,5.7843618,30.8473282,-118.0763321,-250.1374054
8980,-0.1651991,0.4046180,5.9663200,34.1908379,-124.7633591,-250.1374054
8990,-0.9720409,0.7326220,5.9447722,37.9160309,-130.7404633,-250.1374054
9000,-1.3503228,0.9050036,5.9471664,41.5648842,-132.6183167,-250.1374054
9010,-1.7525467,1.2880739,6.0836353,44.5419846,-129.8549652,-250.1374054
9020,-2.2337787,1.5442522,5.5640965,45.5954208,-119.5267181,-250.1374054
9030,-2.7174051,1.6663558,5.0014620,42.7175560,-107.6259537,-250.1374054
9040,-3.5146701,1.7070571,4.8482337,38.3511467,-91.3816757,-250.1374054
9050,-4.3119354,1.6831152,4.5537481,33.3587799,-71.2824402,-250.1374054
9060,-5.1427188,1.7980363,4.4124913,28.3587780,-51.0152664,-250.1374054
9070,-5.8825235,1.9512644,4.3622131,24.2519093,-34.6946564,-250.1374054
9080,-6.8449879,1.8938038,4.4723458,21.2061062,-25.7022896,-239.4198456
9090,-8.1737623,1.7333932,4.8625989,19.7328243,-23.0305347,-216.4732819
9100,-9.5312681,1.6256547,5.2839761,21.1908398,-22.0687027,-187.7557220
9110,-10.4697905,1.4532729,5.4132624,24.3282452,-21.3282452,-153.5343475
9120,-10.8624372,1.3168042,5.5138183,28.0916023,-18.2748089,-117.6183243
9130,-10.9821472,1.2737088,5.3438311,31.2442741,-12.5877867,-81.2137375
9140,-10.8432837,1.1923064,5.2241216,32.2061081,-4.2213740,-46.0534363
9150,-10.4314833,0.8906385,5.2001796,32.6488533,8.2595415,-11.2977095
9160,-9.9885588,0.6368544,5.3941088,34.5801544,22.0381680,21.3969460
9170,-9.5336628,0.3471575,5.3366485,37.8015251,35.5954208,52.7328262
9180,-8.8872309,-0.0766141,5.1139889,40.3587799,47.5801544,82.4885483
9190,-8.4682484,-0.6703730,4.9463954,43.0076332,58.1374054,110.9923630
9200,-8.4682484,-1.2521610,4.7357068,46.4122124,64.7175598,141.0915985
9210,-9.0356712,-2.0853391,4.4651632,52.7633591,60.3206100,174.5877838
9220,-9.5001440,-2.7964132,4.5250182,62.0916023,44.3358765,213.6030579
9230,-10.3045912,-3.9288650,4.4148855,74.7022934,23.0305347,250.1297760
9240,-10.9294748,-5.2696109,4.6016321,91.5648880,-4.8167939,250.1297760
9250,-11.0970678,-7.0197635,4.7548604,113.2595444,-28.9923668,250.1297760
9260,-11.0755205,-9.6246414,5.4922705,144.0915985,-41.8625946,250.1297760
9270,-11.9158812,-13.2350798,5.4084740,184.9389343,-52.0916023,250.1297760
9280,-12.2271252,-16.3978043,4.8266859,237.2748108,-73.8702316,250.1297760
9290,-9.4881725,-19.6131992,2.0829449,250.1297760,-96.0229034,250.1297760
9300,-2.3822186,-19.6131992,-2.4564383,250.1297760,-101.3129807,250.1297760
9310,14.1879663,-19.6131992,-5.9184365,250.1297760,-11.6717558,250.1297760
9320,19.6126022,-19.6131992,-7.2232695,250.1297760,186.2213745,250.1297760
9330,19.6126022,-16.7018661,-7.0844064,241.3358765,250.1297760,250.1297760
9340,19.6126022,-7.8625183,-0.7517755,190.8625946,250.1297760,250.1297760
9350,19.6126022,-0.8906385,2.8849983,194.1526642,250.1297760,250.1297760
9360,19.6126022,1.3551112,-3.2656744,208.8091583,250.1297760,250.1297760
9370,19.6126022,2.9161227,-13.9533358,183.8244324,176.0000000,241.9847260
9380,19.6126022,4.2185616,-19.6131992,101.7251892,-9.2290077,142.6488495
9390,19.6126022,3.5457945,-19.6131992,-6.8244276,-131.8778687,90.1603088
9400,19.6126022,1.8650736,-12.4354200,-85.0916061,-182.7480927,64.9160309
9410,19.6126022,0.5243275,-2.4588325,-108.3435135,-166.7480927,45.1374054
9420,19.6126022,0.6775556,4.9080882,-85.2519073,-116.6870193,33.0610695
9430,19.6126022,0.5386927,7.6254935,-42.2748108,-48.0000000,35.2671738
9440,18.4376526,0.6392486,6.1410961,-4.1755724,32.0228996,48.8244286
9450,15.7202482,0.6655847,3.4787574,18.0305347,104.2442780,71.2137375
9460,14.5135765,0.8595140,1.7166338,28.6030540,150.7633514,94.4351120
9470,14.4154148,1.5777708,0.9002152,36.0305328,168.7022858,104.9007645
9480,14.9948082,2.4875629,0.4381367,43.5648842,154.5877838,101.8778610
9490,15.6963062,3.3805954,-0.5123565,49.4351158,119.6259537,84.9542007
9500,15.7441902,4.0892754,-1.8459201,47.5343513,81.2519073,61.0687027
9510,15.2629576,4.3167233,-3.2345500,35.5114517,49.8396950,36.0076332
9520,14.4561157,4.2113791,-3.7205703,17.2595425,29.2061062,14.7557249
9530,13.4146433,3.8378856,-3.2153964,-1.7328244,16.7328243,-2.0000000
9540,12.4665442,3.1244173,-2.0877333,-15.3740454,8.9160309,-12.2061071
9550,11.4945040,2.5019281,-0.7972651,-21.0000000,3.0534351,-18.0076332
9560,10.7618818,1.9488702,0.1843526,-19.1297703,0.3435115,-18.5267181
9570,10.2998028,1.8004304,0.4094064,-14.6946564,0.7480916,-15.2595415
9580,10.3093796,1.7357874,0.4955972,-11.2137403,5.7938933,-10.3816795
9590,10.4003592,1.7166338,0.5961532,-8.4580154,14.2977095,-5.9007635
9600,10.8600435,1.7573351,0.5458752,-6.4351144,24.5572510,-2.5496182
9610,11.2311430,1.8842272,0.4620786,-5.5038166,34.1908379,-1.7404580
9620,11.4729557,1.8698620,0.3782819,-5.8702292,42.2213745,-3.6564887
9630,11.4561968,1.9225341,0.1125269,-6.9083967,40.2442741,-7.3282442
9640,11.4992924,1.8483143,0.0670373,-9.2442751,29.4885502,-12.5114508
9650,11.4777441,1.7333932,-0.0335187,-10.9465647,15.3587790,-18.0610695
9660,11.3436699,1.5322813,-0.1867468,-13.8473282,-0.5419847,-22.3587780
9670,11.4322548,1.3191984,-0.0383070,-16.7099228,-14.6793890,-25.0534344
9680,11.9565821,1.2354017,0.4477134,-18.9236641,-22.9083977,-26.6641216
9690,12.8065195,1.3575054,0.7589580,-19.1908398,-23.9847336,-28.8244267
9700,13.3811245,1.4508789,0.9576758,-17.9389305,-19.4427490,-32.6412201
9710,13.9365768,1.4891858,0.8427547,-16.8320618,-12.3664122,-36.6870232
9720,14.5734310,1.4436963,0.7996593,-14.9847326,-4.5572519,-41.5877876
9730,15.5478659,1.8243724,0.3471575,-12.3129768,3.2213740,-47.4885483
9740,16.7784805,2.0159075,-0.4405309,-12.6641226,12.4503813,-56.2748108
9750,17.9133263,2.3750360,-1.1013272,-17.3511448,26.3740463,-68.9389343
9760,19.0338058,2.8251436,-1.8411317,-25.4045811,37.4656487,-86.3129807
9770,19.5174332,3.4667864,-2.5306582,-42.1145020,51.8625946,-108.5648880
9780,19.6126022,3.8618276,-2.6647329,-55.7709923,47.8396950,-133.5114441
9790,18.8997307,3.8714044,-2.5881188,-69.0076370,29.6488552,-160.5648804
9800,18.3227310,3.5577655,-2.0685797,-82.5267181,14.7862597,-185.5267181
9810,17.7098198,3.2991931,-1.2282192,-94.9694672,-1.0152671,-207.8778687
9820,16.5199070,2.4947455,-0.4620786,-104.9236679,-9.9694653,-227.4351196
9830,15.2007084,2.4420733,0.3998296,-113.3969498,-16.8167934,-241.7862549
9840,14.5399122,2.4324965,1.4772149,-113.7709961,-33.8778610,-250.1374054
9850,14.1616306,2.5713594,2.1811066,-110.7175598,-47.6946564,-250.1374054
9860,13.7665892,2.3965836,2.5043221,-108.8091583,-56.6946564,-250.1374054
9870,14.0538921,2.6479735,2.8083842,-106.3053436,-72.0229034,-250.1374054
9880,13.4337969,2.3151813,2.9831600,-103.3511429,-81.9618301,-250.1374054
9890,13.0291786,2.1068866,3.2728570,-103.8091583,-79.6183243,-250.1374054
9900,12.6413202,1.6902977,3.8953462,-103.5114517,-70.9542007,-250.1374054
9910,11.4466200,1.3311694,4.2664456,-101.2900772,-59.0458031,-250.1374054
9920,9.7251978,0.5482694,4.8985114,-97.5496216,-49.9083977,-250.1374054
9930,7.0772243,0.0670373,5.6024032,-87.4045792,-55.5038185,-250.1374054
9940,5.1762376,-0.0071826,6.0620875,-74.0839691,-70.9542007,-250.1374054
9950,4.0006905,0.1771700,6.3278427,-59.5114517,-83.4961853,-250.1374054
9960,3.3662305,0.6775556,6.4978304,-46.5954208,-87.4351120,-250.1374054
9970,3.2441268,1.1516051,6.4978304,-35.9236641,-80.3358765,-250.1374054
9980,2.8610563,1.5250987,5.7412663,-29.1526718,-65.2824402,-250.1374054
9990,2.1332228,1.6208663,5.1666608,-27.4351139,-48.8091621,-250.1374054
