timestamp,acclX,acclY,acclZ,gyroX,gyroY,gyroZ
0,-1.3215926,1.5514348,9.6988611,19.8702297,-3.7557251,13.1221371
10,-0.7062859,1.7573351,9.4666252,16.1755733,-1.8931298,18.8320618
20,0.0071826,2.0590029,9.3995876,6.4885497,3.2366412,19.8931293
30,0.2035061,2.2768741,9.9598284,4.6335878,-0.8854962,16.0916023
40,0.4046180,2.4444675,10.5440102,6.5801525,1.7557251,11.5419846
50,0.4046180,2.4324965,10.9175043,10.6641226,9.5877867,8.9694653
60,-0.0622489,2.4229198,10.7977943,15.1908398,14.5648851,7.6335878
70,-0.6368544,2.2625091,10.0148945,19.3129768,5.7709923,10.5725193
80,-0.9552816,1.9704180,8.8728657,19.2061062,-7.5419846,16.9770985
90,-0.7972651,2.0901275,8.1474266,15.5648851,-22.7557259,22.8244267
100,-0.4094064,2.3079987,7.8505473,8.4274807,-35.7633591,25.1832066
110,0.0167593,2.9400647,8.0301113,-1.6030535,-48.1679382,27.5190830
120,0.1508339,2.9137285,8.3150196,-12.0000000,-50.4503822,29.8702297
130,-0.0646431,2.7126167,8.7747040,-22.4351139,-52.5496178,33.0610695
140,2.3415172,3.5553713,8.2264347,-30.3587780,-63.3435097,26.9236641
150,2.3439114,3.8163381,7.7667508,-34.7786255,-36.9389305,21.5114498
160,2.6934631,3.5864959,7.8649125,-37.0228996,10.2290077,15.6793890
170,1.9105632,1.4748207,10.7355452,-28.0992374,58.8244286,-5.1603055
180,-0.0047884,1.2689204,12.3947191,-16.9389305,44.8473282,-12.8625956
190,-2.1595588,1.4532729,13.1704359,-4.8320613,20.8778629,-13.2900763
200,-1.4891858,0.6105183,14.2047262,6.5648856,3.8396947,-13.3969469
210,0.2418131,0.3782819,15.7346134,22.5267181,-6.0534353,-16.9923668
220,9.3349447,-1.1085097,19.6126022,35.4122124,197.3053436,-6.4885497
230,0.1292862,2.0542145,19.6126022,86.3358765,165.1908417,26.5496178
240,2.2720859,2.4253139,19.6126022,136.6106873,164.8854980,63.3206100
250,1.7717001,2.8514795,19.6126022,189.3969421,145.4122162,80.5801544
260,0.1244979,3.1651185,19.6126022,244.1603088,18.9847336,83.6106873
270,2.3056045,5.6000090,19.6126022,247.3282471,-79.9542007,22.6793900
280,3.1603301,6.6630292,17.1878853,236.1526642,-134.7633514,-43.6183205
290,2.8299320,5.2145448,17.7624912,250.1297760,-166.3206177,-75.6259537
300,2.0997043,3.4260850,16.4337158,250.1297760,-163.2290039,-86.0076370
310,0.6584021,2.8969693,13.2207146,250.1297760,-128.3664093,-87.6335907
320,0.6775556,3.8977404,11.5160513,250.1297760,-108.0000000,-86.3969498
330,1.6615674,4.8649931,10.6972389,240.6564941,-87.4961853,-86.0839691
340,2.0326669,5.1211715,11.0827026,234.6793823,-78.2137375,-96.5419846
350,1.0773853,4.4507980,10.8217363,237.4656525,-74.6564865,-95.2061081
360,-0.2513899,3.7325413,9.9909525,242.3816833,-96.7099228,-92.6106873
370,-0.6967092,4.2616572,8.6310530,245.5343475,-112.7022934,-95.0687027
380,-0.5099624,4.1658897,8.1546097,250.1297760,-145.9770966,-103.7251892
390,-0.1580165,4.6375451,7.0053983,250.1297760,-174.6335907,-115.6793900
400,1.4293311,5.1259594,5.2241216,250.1297760,-184.4885559,-128.8015289
410,0.4860204,5.6670465,5.1044121,250.1297760,-186.8091583,-139.8167877
420,0.2466015,5.4443870,5.5114241,250.1297760,-177.4809113,-139.2900696
430,2.3151813,5.9735026,3.3207407,239.1679382,-142.0839691,-161.3053436
440,0.2370248,5.9902620,3.0669568,223.7251892,-118.4656525,-174.4885559
450,-1.0175306,5.6024032,2.7341642,207.7938995,-113.5572510,-175.1374054
460,-1.4867916,5.3151007,2.2289903,193.8015289,-108.1832047,-164.6106873
470,-1.6352314,5.2289100,2.1547706,183.2442780,-94.1297684,-159.6488495
480,-1.9464760,5.1929970,2.0302727,174.0534363,-89.7251892,-157.1755676
490,-2.2720859,5.3725610,1.4006008,163.5343475,-97.1145020,-156.8244324
500,-2.3582766,5.0541339,1.0749911,152.5725250,-105.6793900,-159.7862549
510,-2.9496415,4.6878228,1.0079538,139.9236603,-111.2213745,-161.2977142
520,-3.6056492,4.3286943,0.8930327,125.1145020,-108.8931274,-159.8167877
530,-4.3095412,3.9528067,1.1372399,109.5496216,-97.5114517,-154.7557220
540,-5.1666608,3.6415622,1.7142396,94.4351120,-79.5038147,-146.0686951
550,-5.9423780,3.1100521,2.1595588,82.7022934,-58.0228996,-134.1450348
560,-6.7300668,2.7605004,2.2457497,73.4045792,-46.7404594,-121.0687027
570,-7.3022780,2.2194135,2.5234756,67.6793900,-45.5114517,-109.7328262
580,-7.8792777,1.7022687,2.6647329,66.8320618,-49.7862587,-99.5190811
590,-8.1330614,1.2138541,2.4348907,67.9083939,-59.3740463,-88.9770966
600,-8.4107876,0.9864060,2.0542145,68.2595444,-69.1068726,-77.7786255
610,-8.8058290,0.5769997,1.9895715,66.1603088,-77.4809189,-65.4045792
620,-9.3014259,0.1604107,1.9584470,63.8625946,-86.5190811,-49.6412201
630,-9.9981356,-0.2298422,1.4796091,59.6870232,-95.6717529,-27.4122143
640,-9.9981356,-0.9385223,0.9888002,54.9847336,-89.8320618,-4.6717558
650,-10.0436249,-1.2066715,0.6967092,50.8015251,-72.5038147,15.8167934
660,-10.0867205,-1.5562232,0.0478838,46.6488533,-52.9694672,35.3969460
670,-11.4298601,-1.5658000,-0.5386927,38.8854980,-38.0381660,58.1832047
680,-12.5383701,-1.5873476,-1.7717001,22.4732819,-35.0381660,88.6946564
690,-12.6772327,-1.8602852,-2.3678534,-0.6946565,-40.5419846,120.3740463
700,-12.1888189,-2.1715298,-2.4324965,-24.8244267,-38.7099228,151.9160309
710,-12.0547438,-2.5953014,-2.8538737,-51.2824440,-28.1603050,185.3358765
720,-11.5112629,-3.2153964,-3.0908985,-83.8473282,-13.3282442,222.6412201
730,-11.2766323,-4.2927818,-2.7150109,-119.6870193,14.9847326,250.1297760
740,-11.1569233,-5.6239510,-2.0278785,-157.2595367,51.4274826,250.1297760
750,-9.9933472,-6.5505023,-1.7238164,-194.1526642,82.3358765,250.1297760
760,-9.1386213,-7.9151902,-0.6177009,-232.4198456,106.1526718,250.1297760
770,-8.4945841,-9.8209648,1.4532729,-250.1374054,121.1374054,250.1297760
780,-8.3916340,-11.9374285,4.1515245,-250.1374054,134.7633514,250.1297760
790,-7.6422529,-14.5470953,6.8737178,-250.1374054,140.8702240,250.1297760
800,-6.2512288,-18.2628765,9.0667953,-250.1374054,133.1145020,250.1297760
810,-3.6367738,-19.6131992,10.9486284,-250.1374054,130.1526642,250.1297760
820,0.6009415,-19.6131992,12.5192165,-250.1374054,121.7099228,250.1297760
830,8.0085640,-19.6131992,14.4465389,-250.1374054,119.1297684,250.1297760
840,19.6126022,-19.6131992,16.4504757,-250.1374054,135.0915985,250.1297760
850,19.6126022,-19.6131992,18.3538570,-250.1374054,206.6335907,250.1297760
860,19.6126022,-18.6579189,19.6126022,-250.1374054,250.1297760,250.1297760
870,19.6126022,-11.5160513,19.6126022,-250.1374054,250.1297760,250.1297760
880,19.6126022,-7.2998838,19.6126022,-248.3969421,250.1297760,250.1297760
890,19.6126022,-5.5497313,19.6126022,-216.2366486,250.1297760,250.1297760
900,19.6126022,-4.8099265,19.6126022,-155.9465637,109.8473282,211.0381622
910,19.6126022,-3.1794837,19.6126022,-81.6717529,-37.5648842,136.4122162
920,19.6126022,-1.3622938,19.6126022,-13.5343513,-121.3358765,80.7404556
930,19.6126022,0.3232156,19.6126022,39.7786255,-132.0152740,41.4656487
940,19.6126022,1.4053892,19.6126022,73.1297684,-108.7404556,20.0534344
950,19.6126022,2.2146254,18.2987900,88.2595444,-78.2061081,12.3893127
960,19.5677109,3.1459649,14.4872408,85.8854980,-45.9541969,10.5801525
970,19.6126022,3.8426740,12.2295198,71.3587799,-15.5572519,5.8244276
980,19.6126022,4.0844874,11.5735121,53.4503822,14.9618320,-7.2671757
990,19.6126022,3.8857694,11.5423870,39.5267181,39.1984749,-28.5114498
1000,19.6126022,3.4093258,11.8344784,32.4198456,51.9160309,-58.0305328
1010,19.5461636,2.8035958,12.5000629,33.2442741,45.1068687,-92.5801544
1020,17.8486824,1.8985922,13.4314032,42.7709923,18.1221371,-127.8549652
1030,16.3307667,1.0893562,14.0706511,59.4274826,-14.7786255,-158.9847260
1040,15.2964764,0.2346306,14.0850163,79.0763321,-42.2977104,-184.8015289
1050,15.4473104,-0.3854645,13.3092995,95.4122162,-58.6946564,-207.9236603
1060,15.7753143,-0.7493813,12.7107515,101.7786255,-65.6564865,-233.7022858
1070,15.5119534,-1.1300575,12.1385403,105.5267181,-66.0305328,-250.1374054
1080,14.4369621,-1.3814473,12.0834742,107.7404556,-65.4198456,-250.1374054
1090,13.0172081,-1.7070571,12.0260134,112.1832047,-75.7938919,-250.1374054
1100,11.3077564,-2.0925217,11.7506819,122.7328262,-106.3664093,-250.1374054
1110,10.2016411,-2.2696917,11.8153248,136.2824402,-150.5877838,-250.1374054
1120,10.0747490,-1.9512644,11.7554703,150.6488495,-187.6412201,-250.1374054
1130,9.3181858,-2.4803803,11.0467901,160.1755676,-205.6793823,-250.1374054
1140,7.9702568,-2.6814921,9.8401184,164.1603088,-208.9007568,-250.1374054
1150,6.6773944,-3.1244173,8.3868456,160.7633514,-212.8167877,-250.1374054
1160,5.1283536,-3.3614421,7.7547798,152.7938995,-221.3969421,-250.1374054
1170,3.9240766,-3.2153964,7.3717093,143.1450348,-234.5572510,-250.1374054
1180,3.1052637,-2.9807658,8.0085640,133.7938995,-247.5801544,-250.1374054
1190,2.3534882,-2.7485294,8.5592270,129.0076294,-247.4045868,-250.1374054
1200,1.5514348,-2.6383967,9.0715837,125.2137375,-237.5114441,-250.1374054
1210,0.8451489,-2.2361729,7.8649125,123.8473282,-202.4427490,-250.1374054
1220,-0.0071826,-1.1061156,6.5050125,112.1221390,-181.9541931,-250.1374054
1230,-0.5458752,-0.3591284,5.7077475,99.7557220,-160.3587799,-250.1374054
1240,-1.2425843,-0.0670373,5.0565281,83.1450348,-135.5114441,-250.1374054
1250,-1.8483143,0.3902529,4.4124913,68.6335907,-110.3206100,-250.1374054
1260,-2.3223639,0.9169745,4.0318151,55.1984749,-92.0000000,-250.1374054
1270,-2.9735832,1.2737088,3.7325413,43.6564903,-81.6641235,-250.1374054
1280,-3.4691806,1.5993185,3.7038112,33.9389305,-75.8396912,-233.7480927
1290,-4.4316444,1.6855093,4.0006905,26.8549614,-73.6259537,-218.1755676
1300,-5.4348102,1.7333932,4.4244623,24.7328243,-78.8778610,-201.2290039
1310,-6.2727766,1.9033806,4.8817525,27.8473282,-84.4732819,-183.2366486
1320,-6.9096308,2.0135133,4.8889351,31.4732819,-91.3053436,-164.3816833
1330,-7.3429790,2.1643472,4.5010762,34.1297722,-98.3740463,-146.0610657
1340,-7.7236552,2.2218077,4.5465660,35.4732819,-103.5038147,-128.4274750
1350,-8.3533268,2.0518203,5.1690550,39.2213745,-105.4122162,-109.6946564
1360,-8.4467001,2.0901275,4.5010762,38.8549614,-100.7175598,-91.4885483
1370,-8.5017672,1.7549409,4.3119354,36.0076332,-85.8320618,-73.4580154
1380,-8.8800488,1.5777708,4.0461802,29.5801525,-66.9923630,-52.1526718
1390,-9.0189114,1.3120158,3.9144998,19.8854961,-40.3358765,-27.4885502
1400,-9.1218615,1.2761030,4.0581512,9.3358774,-12.7404585,-3.0534351
1410,-9.8449068,0.7948709,4.5154414,-4.7099237,30.4656487,46.6488533
1420,-10.0388365,0.1915352,4.4196739,-10.1297712,42.9007645,75.3816757
1430,-10.3692341,-0.1508339,4.4316444,-14.1526718,52.5572510,106.3740463
1440,-10.6589317,-0.6727672,4.7452836,-18.0458012,60.4351158,142.1221313
1450,-10.7259684,-1.4676381,4.9966736,-22.0000000,68.6946564,184.1145020
1460,-10.8863792,-2.3558824,5.3869262,-25.7480907,82.9312973,230.2137451
1470,-11.3795824,-3.6678982,6.0956063,-29.6412220,100.0305328,250.1297760
1480,-10.9558105,-5.1331420,6.9862447,-31.8396950,119.5190811,250.1297760
1490,-9.9526453,-7.0963774,7.6326761,-31.1832066,146.5190887,250.1297760
1500,-9.0644016,-9.5791521,8.4083929,-30.0687027,179.6106873,250.1297760
1510,-7.8146343,-12.6652622,8.7244263,-31.4351139,204.6946564,250.1297760
1520,-6.4140334,-16.8479118,9.4331064,-36.0763359,227.2595367,250.1297760
1530,-3.8354914,-19.6131992,10.3620520,-38.4274826,241.9389343,250.1297760
1540,1.9440818,-19.6131992,10.7858238,-40.1450386,240.4503784,250.1297760
1550,10.4865494,-19.6131992,10.8839855,-38.9771004,237.2595367,250.1297760
1560,19.6126022,-19.6131992,11.2526903,-39.6793900,250.1297760,250.1297760
1570,19.6126022,-19.6131992,10.9294748,-52.7328262,250.1297760,250.1297760
1580,19.6126022,-15.2246504,10.9318695,-81.7404556,250.1297760,250.1297760
1590,19.6126022,-11.0539722,13.5702658,-98.4122162,250.1297760,250.1297760
1600,19.6126022,-8.7100611,16.6156750,-72.7251892,222.2137451,250.1297760
1610,19.6126022,-6.1626434,16.0697994,-21.8549614,101.5801544,250.1297760
1620,19.6126022,-2.7988074,13.1824074,15.9694653,-2.0381680,250.1297760
1630,19.6126022,-0.0885850,11.0324249,35.0839691,-74.2748108,226.3587799
1640,19.6126022,1.7812769,9.1003141,37.5801544,-92.1755753,151.6335907
1650,19.6126022,3.0190730,7.8816719,27.3816795,-79.2213745,89.6564865
1660,19.6126022,3.0693510,7.1418672,12.6564884,-53.1603050,48.5190849
1670,19.6126022,2.9903426,7.2448173,1.3358779,-21.3816795,31.8320618
1680,19.6126022,2.8634505,7.7236552,-5.1755724,14.8473282,26.7786255
1690,19.2133713,2.8682389,7.6661944,-7.6488547,45.8778610,26.5725193
1700,18.9907112,3.0861101,7.3238254,-8.3740454,68.2519073,26.9312973
1710,19.6126022,3.0669568,6.7420373,-11.6412210,83.1450348,21.6717548
1720,19.6126022,3.2034254,6.7540083,-19.1908398,90.7557220,6.1297708
1730,19.6126022,3.1076579,7.2807302,-25.8015270,83.4809189,-19.5038166
1740,19.6126022,2.6862805,8.1426382,-26.8702297,62.9618340,-51.9160309
1750,19.6126022,2.1835008,9.2439651,-21.9618320,35.0000000,-86.8396912
1760,19.6126022,1.6687500,10.2447367,-11.5267172,7.8091602,-122.4427490
1770,19.2277355,0.9169745,10.6661139,1.1068702,-12.0916033,-153.2748108
1780,18.0114880,0.3208214,10.8456783,13.1679392,-24.6259537,-177.9007568
1790,16.7497501,-0.3399749,10.7666702,25.4809170,-34.9007645,-198.1679382
1800,16.9939575,-1.2976507,10.0053177,34.4122124,-40.3740463,-216.5267181
1810,17.0609932,-1.5466464,9.4762020,36.0381660,-43.2137413,-235.8167877
1820,16.6491928,-1.3335636,10.0508070,35.1679382,-49.7022896,-250.1374054
1830,15.3587255,-1.4245427,11.1186161,41.4580154,-59.8320618,-250.1374054
1840,14.1496601,-1.9991482,11.5519638,57.7938919,-69.9312973,-250.1374054
1850,13.0962162,-2.3846128,10.8121595,77.0076370,-75.9083939,-250.1374054
1860,12.1816359,-2.3319404,9.6222477,92.1068726,-82.2671738,-250.1374054
1870,11.3173332,-2.2289903,8.3030491,97.9770966,-94.6793900,-250.1374054
1880,10.8025827,-2.1547706,7.7452030,100.9542007,-113.5801544,-250.1374054
1890,11.1593170,-1.6088953,7.8457589,101.0305328,-129.5343475,-250.1374054
1900,11.3293047,-1.3072275,8.1019373,101.0992355,-134.1679382,-250.1374054
1910,10.0843258,-0.7757174,8.2838955,101.1603088,-131.5877838,-250.1374054
1920,8.5927458,-0.4812321,8.1186962,102.5801544,-127.7328262,-250.1374054
1930,7.2950954,-0.0837966,7.6326761,105.0916061,-126.7862625,-250.1374054
1940,6.2464404,0.6967092,7.3956513,105.2137375,-124.6641235,-250.1374054
1950,5.3270717,1.3048333,7.0604649,103.2824402,-117.5496216,-250.1374054
1960,4.4196739,1.9823889,6.5217719,105.1526718,-113.4274826,-250.1374054
1970,3.6607156,2.4324965,5.8992829,100.7328262,-113.3358765,-250.1374054
1980,3.1292057,2.7652888,5.1379304,100.1526718,-114.5877838,-250.1374054
1990,2.7174051,3.1627243,4.7189474,92.9312973,-116.1450348,-250.1374054
2000,1.9368993,3.3829896,4.2688398,85.1832047,-111.5725174,-250.1374054
2010,1.2090657,3.4165084,4.2281384,78.1526718,-104.4351120,-250.1374054
2020,-0.0167593,3.3063757,4.5633249,74.7480927,-101.3053436,-250.1374054
2030,-1.4029950,3.3949606,4.7524662,73.8396912,-103.2748108,-250.1374054
2040,-3.2082138,3.0430148,4.8793583,74.1832047,-107.8854980,-250.1374054
2050,-5.2648225,2.4779861,4.8123207,76.6641235,-122.1374054,-250.1374054
2060,-7.1969333,2.3391230,4.9799142,81.6717529,-147.9160309,-250.1374054
2070,-8.3892403,2.3989778,5.0756817,87.0381699,-176.7175598,-250.1374054
2080,-8.8561068,2.3439114,4.9751258,92.3358765,-202.5954132,-244.8320618
2090,-9.2391768,2.1763182,4.5776901,95.5725174,-220.6030579,-222.5801544
2100,-9.7204094,1.9752063,4.0318151,92.7786255,-224.1221313,-197.6106873
2110,-9.7946291,1.7836711,3.5170643,84.6946564,-213.8625946,-171.9389343
2120,-9.6701307,1.7022687,2.8849983,69.4503784,-188.0534363,-147.2748108
2130,-9.6773138,1.4197544,2.4301023,47.7251892,-147.5954132,-124.0534363
2140,-10.2375546,0.9840119,2.4875629,23.8320618,-103.3740463,-100.8015289
2150,-11.1138277,0.5243275,2.5881188,2.5114503,-69.3893127,-76.5648880
2160,-12.1529055,0.1388630,3.6224086,-12.3740454,-46.9465637,-49.7709923
2170,-13.0315733,-0.3136388,4.6686692,-17.3053436,-33.9389305,-19.7786255
2180,-13.1441002,-0.7254394,5.2384863,-14.6259546,-27.6412220,11.3740454
2190,-13.0052376,-1.1827296,5.4419928,-9.2595415,-21.8015270,42.0839691
2200,-12.6556854,-1.5873476,5.0062504,-4.7404580,-20.6412220,71.0457993
2210,-12.2534618,-2.0901275,4.9679432,-1.1450381,-22.8625946,98.1297684
2220,-11.7746239,-2.7269819,5.5928264,5.1984735,-21.8091602,127.6641235
2230,-10.9845409,-3.1268115,5.9878678,15.7862597,-14.8549614,156.7404633
2240,-10.3428984,-3.7540891,6.0213866,29.1679382,-4.4122138,183.9313049
2250,-10.1130562,-4.5058646,5.4826937,40.6335869,6.6106873,212.0152740
2260,-9.7922344,-5.3510137,4.4388270,46.9083977,16.9923668,243.5267181
2270,-9.8520899,-5.9591374,3.8785870,46.2290077,28.7251911,250.1297760
2280,-10.2543135,-7.2400289,3.7229645,41.4961815,46.1221390,250.1297760
2290,-10.5368280,-8.9829988,3.9504125,39.2748108,54.0305328,250.1297760
2300,-9.2511482,-11.2790270,4.8195033,43.6259537,54.0458031,250.1297760
2310,-7.3381906,-13.5942078,5.7364779,55.6259537,65.4351120,250.1297760
2320,-5.5688848,-16.3355541,6.2536230,70.5114517,90.7404556,250.1297760
2330,-2.5426292,-18.9571915,6.7683735,83.6488571,108.6030502,250.1297760
2340,2.5617826,-19.6131992,6.9479380,91.0305328,143.2442780,250.1297760
2350,10.8073711,-19.6131992,6.5050125,92.3664093,209.8320618,250.1297760
2360,19.4887028,-19.6131992,5.8011212,84.9465637,250.1297760,250.1297760
2370,19.6126022,-19.6131992,5.3917146,68.5114517,250.1297760,250.1297760
2380,19.6126022,-18.9763451,5.0852585,37.7480927,250.1297760,250.1297760
2390,19.6126022,-13.0650921,6.7779503,22.6488552,250.1297760,250.1297760
2400,19.6126022,-7.1586266,6.1267309,17.1679382,250.1297760,250.1297760
2410,19.6126022,-3.8881636,4.7069764,12.8320608,211.8549652,250.1297760
2420,19.6126022,-0.5602403,3.4596038,12.5801525,62.5343513,250.1297760
2430,19.6126022,1.2306134,2.7700772,15.8320608,-82.6106873,191.7328186
2440,19.6126022,2.2122312,2.8203552,12.5114508,-168.7862549,109.2137375
2450,19.6126022,3.1459649,4.1347651,1.3435115,-174.4503784,56.9541969
2460,19.6126022,3.6319854,5.9304070,-8.7328243,-111.7099228,30.7175579
2470,19.6126022,4.0342093,6.4044566,-10.9541988,-17.4274807,29.7938938
2480,19.6126022,4.3191175,5.0661049,-13.3282442,65.0687027,42.1755714
2490,19.6126022,4.8218975,3.6319854,-19.5572510,114.2900772,52.2900772
2500,19.6126022,5.2672167,3.2201848,-26.8778629,133.5725250,49.4885483
2510,19.6126022,5.4611464,3.3327117,-30.9236641,127.5954208,34.1603050
2520,19.6126022,5.6047974,3.9192882,-30.0610695,96.1832047,6.6335878
2530,19.6126022,5.2767935,4.4412212,-25.9465656,49.6488533,-30.3206100
2540,19.6126022,4.6016321,4.8913293,-20.2977104,8.6106873,-66.0992355
2550,19.6126022,3.7756367,4.9894910,-16.5190830,-22.0763359,-94.7251892
2560,19.6126022,3.1627243,5.6766233,-15.1068707,-38.9312973,-116.0076370
2570,19.6126022,2.4684093,6.5409255,-12.9770994,-40.9389305,-129.6717529
2580,19.3354740,1.8028246,7.2328463,-7.3435116,-31.8015270,-136.9465637
2590,19.6126022,1.4867916,7.3836803,0.7480916,-12.6106873,-142.6488495
2600,19.6126022,2.0757623,7.0604649,7.3358779,8.3206110,-154.6641235
2610,19.6126022,2.2002602,6.9048424,10.9007635,21.2900772,-177.7633514
2620,19.6126022,1.8650736,6.7659793,14.1068707,30.0305347,-208.4045868
2630,19.6126022,1.6112895,6.8928714,21.3511448,26.4732819,-244.0229034
2640,19.6126022,1.3191984,6.2033448,27.7862587,10.5114508,-250.1374054
2650,19.6126022,0.4884146,5.5593081,32.4351158,-10.2748089,-250.1374054
2660,19.6126022,-0.1340746,5.8944945,38.6030540,-31.9770985,-250.1374054
2670,19.6126022,-1.1180865,6.4523406,46.1374054,-54.3664131,-250.1374054
2680,18.8135414,-2.1188576,6.4810710,55.3358765,-67.5343475,-250.1374054
2690,16.4097748,-2.9113343,6.0046272,63.8091621,-67.2290039,-250.1374054
2700,13.8168669,-3.5362179,5.2720051,69.1984711,-64.0457993,-250.1374054
2710,11.3532467,-3.8929520,4.6112089,73.9770966,-58.5877876,-250.1374054
2720,9.0859489,-4.7381010,3.7014170,77.6183243,-46.2900772,-250.1374054
2730,6.2440462,-4.8290801,2.8035958,78.3587799,-37.0458031,-250.1374054
2740,3.9025288,-4.6997938,2.4181314,77.6106873,-34.9847336,-250.1374054
2750,1.9680238,-4.5920553,1.9297167,78.4961853,-40.2442741,-250.1374054
2760,0.5698171,-4.1491303,1.6711442,79.0763321,-52.8549614,-250.1374054
2770,-0.5650287,-3.5314295,1.3359578,77.1908417,-66.3358765,-250.1374054
2780,-1.5227045,-2.8706331,1.2784972,72.6030502,-73.2137375,-250.1374054
2790,-2.2816625,-2.1763182,1.4436963,66.5572510,-71.7328262,-250.1374054
2800,-3.2393384,-1.7669119,1.5753766,61.3053436,-66.6793900,-250.1374054
2810,-4.5010762,-1.4676381,1.6065011,57.2366409,-58.5572510,-250.1374054
2820,-5.9112539,-1.0725969,1.3646880,53.3511467,-47.4656487,-250.1374054
2830,-7.1514440,-0.6392486,1.1180865,48.7099228,-40.7480927,-250.1374054
2840,-8.2240410,0.1316804,0.8906385,41.9465637,-42.8167953,-250.1374054
2850,-8.8824425,0.6033357,0.6440369,33.1679382,-43.9923668,-240.5419922
2860,-9.4115591,0.8068419,0.3471575,21.0763359,-38.8778610,-212.5801544
2870,-10.0268650,0.9504932,0.2178712,6.9389315,-28.1221371,-185.1832123
2880,-10.6349897,0.9145803,0.3567342,-7.2977099,-16.4427490,-157.5190887
2890,-11.3053627,0.6416427,0.6129125,-21.1145039,-6.3587785,-129.2442780
2900,-11.9422169,0.4022238,1.1013272,-31.7557259,1.3053435,-100.8549652
2910,-12.1313581,-0.0047884,1.9368993,-38.2748108,7.3664122,-75.0610657
2920,-12.4306316,-0.2035061,2.3439114,-39.8931313,11.5267172,-51.2290077
2930,-12.5790710,-0.4979914,2.6192431,-39.5801544,14.6717558,-28.5648861
2940,-12.6245613,-0.7374104,2.8083842,-38.0763359,14.7251911,-8.1221371
2950,-12.6652622,-1.0175306,2.6838863,-36.8778610,13.4503813,11.4351149
2960,-12.8113079,-1.4436963,2.5498118,-37.5877876,12.3664122,31.5572510
2970,-12.7346935,-1.7357874,2.6767037,-41.2137413,15.2366409,52.9160309
2980,-12.5814657,-2.1356170,2.9568241,-44.0916023,22.1068707,74.8015289
2990,-12.4713326,-2.4061604,3.3949606,-43.9618340,30.7633591,96.1526718
3000,-12.4019012,-2.9400647,3.4643922,-41.9694672,35.8702278,117.3740463
3010,-12.6149845,-3.7349355,3.3255291,-39.4427490,35.4122124,141.2824402
3020,-12.9142580,-4.3382711,2.6312141,-38.7786255,31.3740463,168.7480927
3030,-13.6181498,-5.4084740,2.4037662,-41.2061081,28.9847336,202.6106873
3040,-14.6428623,-6.7204900,2.0853391,-44.4961815,25.6793900,246.2366486
3050,-15.4329453,-8.0229292,1.5705882,-48.6488533,26.6870232,250.1297760
3060,-15.9117832,-9.6198530,0.7326220,-59.2442741,35.2213745,250.1297760
3070,-15.5287132,-12.1241751,0.3495516,-78.7175598,58.1984749,250.1297760
3080,-14.9229832,-14.9229832,0.3495516,-104.2671738,94.2748108,250.1297760
3090,-13.8623571,-18.9667683,0.4141948,-134.3435059,122.1679382,250.1297760
3100,-11.0635490,-19.6131992,1.0127422,-167.9770966,127.8473282,250.1297760
3110,-6.4930420,-19.6131992,3.0789278,-200.9389343,130.4732819,250.1297760
3120,6.1985564,-19.6131992,6.7157016,-229.7557220,135.9694672,250.1297760
3130,19.6126022,-19.6131992,12.5599174,-230.7404633,153.3206177,250.1297760
3140,19.6126022,-19.6131992,17.0346584,-207.7862549,158.9465637,250.1297760
3150,19.6126022,-18.1455612,19.6126022,-167.9465637,155.0305328,250.1297760
3160,19.6126022,-10.1417866,19.6126022,-130.4198456,162.0305328,250.1297760
3170,19.6126022,-5.8801293,19.6126022,-94.0839691,169.5114441,250.1297760
3180,19.6126022,-1.4796091,19.6126022,-60.8931313,105.8244247,250.1297760
3190,19.6126022,0.4788379,19.6126022,-14.6335878,-7.6259542,249.6564941
3200,19.6126022,2.1380112,17.7217903,30.5419846,-103.6488571,195.2900696
3210,19.6126022,3.7708483,15.3419657,57.9083977,-133.4580078,167.8473358
3220,19.6126022,5.5904322,13.0052376,64.5496216,-89.1374054,149.5877838
3230,19.6126022,7.6494355,10.2423429,54.7938919,1.9694656,126.2977066
3240,19.6126022,8.5496502,7.2376347,34.9007645,79.7022934,99.3358765
3250,19.6126022,8.8561068,5.5162125,11.0610685,124.5648880,69.3511429
3260,19.6126022,8.2168579,5.3055239,-9.2748089,136.9007568,42.7480927
3270,19.6126022,7.5153608,6.2272868,-21.5801525,128.7786255,21.1603050
3280,19.6126022,6.7372489,8.0947542,-24.4961834,108.1755753,-0.9694657
3290,19.6126022,6.1698260,10.1944590,-16.6641216,75.1832047,-28.5267181
3300,19.6126022,5.4276276,11.8967276,0.9465649,43.9236641,-60.2824440
3310,19.6126022,4.5465660,12.8113079,23.5877857,20.8320618,-93.6412201
3320,19.6126022,3.8211265,12.8160963,45.5801544,8.3282442,-125.7938919
3330,19.6126022,3.0262554,12.0427732,62.0228996,1.7328244,-157.8396912
3340,19.6126022,2.0829449,11.6716738,72.8625946,-2.2442749,-188.6183167
3350,19.6126022,1.5298871,11.4945040,83.7328262,-9.3282442,-219.2671814
3360,17.6595421,1.1420283,11.7698355,98.6488571,-29.5038166,-248.9313049
3370,15.2916880,0.5506636,11.7387114,118.2442780,-57.7480927,-250.1374054
3380,13.2255030,0.1604107,11.1473465,141.6564941,-85.6717529,-250.1374054
3390,11.4514084,0.1173153,9.5719690,160.6946564,-105.3816757,-250.1374054
3400,9.9191265,0.4165890,7.7882981,170.3282471,-113.9083939,-250.1374054
3410,9.1577749,0.8954269,5.8705525,171.2061005,-112.3435135,-250.1374054
3420,8.2910776,1.3958124,4.2041965,163.8244324,-106.2671738,-250.1374054
3430,7.7954807,1.8028246,3.1363883,150.7938995,-96.9312973,-250.1374054
3440,7.0868006,2.1499822,2.1691356,134.4427490,-82.9465637,-250.1374054
3450,5.8250628,2.8251436,1.7836711,117.2061081,-73.4045792,-250.1374054
3460,4.4172797,3.2273674,2.1906834,103.3053436,-68.2595444,-250.1374054
3470,3.0693510,3.5649481,2.5498118,95.9847336,-68.0152664,-250.1374054
3480,1.9943599,4.0725164,3.1627243,93.7328262,-72.0992355,-250.1374054
3490,1.5825592,4.4507980,3.4931223,94.6717529,-80.0305328,-250.1374054
3500,0.9816177,4.9942794,3.6032550,97.0381699,-86.3587799,-250.1374054
3510,0.8307837,5.4252334,3.4284792,97.0076370,-90.4885483,-250.1374054
3520,0.8020535,5.9591374,3.1220231,96.0687027,-93.7709961,-250.1374054
3530,0.8355721,6.3254485,2.6096666,92.0457993,-95.9083939,-250.1374054
3540,0.7733232,6.4714942,2.2696917,84.5267181,-94.2824402,-250.1374054
3550,0.7805058,6.4212160,2.1547706,76.6183243,-88.1145020,-250.1374054
3560,0.2513899,6.3302369,1.8507085,67.4809189,-80.0916061,-250.1374054
3570,-0.5889706,6.1458845,1.8698620,57.7786255,-71.9542007,-250.1374054
3580,-1.4149660,5.9471664,2.0685797,48.9694672,-62.6641235,-250.1374054
3590,-2.1595588,5.7628140,2.5522060,42.4961815,-54.2442741,-247.9923706
3600,-2.8969693,5.5377603,2.9687948,39.6259537,-47.3282433,-238.6946564
3610,-3.6008608,5.0517397,3.1148405,39.7328262,-41.8549614,-228.7328186
3620,-4.1682839,4.6854286,3.1555417,41.0610695,-42.0228996,-218.7709961
3630,-4.7333126,4.3789725,2.9831600,43.4427490,-41.8931313,-208.6641235
3640,-5.0876527,3.8833754,2.7461352,46.2213745,-41.3358765,-199.8549652
3650,-5.5952206,3.3207407,2.7197993,50.2519073,-40.5648842,-191.2824402
3660,-6.2799587,2.6814921,2.6982515,55.4198456,-43.1068687,-182.8931274
3670,-6.9503322,2.1930776,2.3678534,59.8167953,-49.8473282,-173.3053436
3680,-7.5536675,1.6017127,1.7357874,61.4580154,-52.5114517,-163.1221313
3690,-8.6502066,0.9624642,1.2617378,57.7557259,-52.5648842,-151.2900696
3700,-9.8473015,0.5506636,0.8140244,51.0076332,-53.5343513,-135.4809113
3710,-10.6804790,-0.0335187,0.5769997,43.3435097,-56.3129768,-117.1984711
3720,-11.6908274,-0.7398046,0.1915352,36.1068687,-56.9312973,-96.8931274
3730,-12.8376436,-1.0989330,-0.0670373,27.4351139,-59.6870232,-73.7938919
3740,-13.8791161,-1.5825592,-0.4189832,16.5114498,-62.6870232,-46.8167953
3750,-14.3603487,-2.3630650,-0.7350162,2.5343511,-62.4198456,-16.5648861
3760,-14.9852314,-3.7038112,-1.7333932,-17.1679382,-56.4427490,17.3206100
3770,-15.2916880,-5.1235652,-3.0118904,-46.4503822,-46.6641235,54.9541969
3780,-15.6532106,-6.6007805,-3.5146701,-88.7022934,-20.4580154,97.8091583
3790,-15.9644556,-8.3174143,-2.6623387,-134.4656525,20.0763359,144.2137451
3800,-16.4169579,-10.3309278,-0.6296718,-170.4809113,60.8702278,194.4732819
3810,-17.5589848,-12.0906563,1.8195840,-190.9236603,94.7633591,249.5419922
3820,-18.5573616,-13.8551741,3.7469065,-193.5496216,102.8549652,250.1297760
3830,-18.9978924,-15.7513723,5.1522956,-182.0992432,95.7633591,250.1297760
3840,-18.6124287,-18.2125988,5.3462253,-160.9541931,76.8625946,250.1297760
3850,-17.2740765,-19.6131992,4.8027439,-141.7786255,67.3664093,250.1297760
3860,-15.1025467,-19.6131992,3.6535332,-132.1526642,68.5572510,250.1297760
3870,-12.0379848,-19.6131992,2.9759774,-133.0076294,74.8320618,250.1297760
3880,-8.0325060,-19.6131992,3.6439564,-140.1297760,78.4351120,250.1297760
3890,-4.6327567,-19.6131992,5.6215568,-147.9084015,81.0457993,250.1297760
3900,5.4946647,-19.6131992,8.7363977,-154.5572510,97.0992355,250.1297760
3910,19.6126022,-19.6131992,10.7594872,-168.0381622,172.2213745,250.1297760
3920,19.6126022,-19.6131992,12.7873659,-215.3816833,250.1297760,250.1297760
3930,19.6126022,-19.6131992,16.8359394,-250.1374054,250.1297760,250.1297760
3940,19.6126022,-12.5862541,19.6126022,-250.1374054,250.1297760,250.1297760
3950,19.6126022,-8.3629036,19.6126022,-250.1374054,250.1297760,250.1297760
3960,19.6126022,-3.7109938,19.6126022,-95.9236679,-0.7175573,250.1297760
3970,19.6126022,-0.1891410,19.6126022,84.3129807,-221.3740387,151.1297760
3980,19.6126022,3.0861101,19.6126022,188.7099304,-250.1374054,102.1297684
3990,19.6126022,5.3414369,18.9260674,223.8015289,-250.1374054,90.2442780
4000,19.6126022,7.0868006,9.5192976,211.1297760,-183.6793823,92.6183243
4010,19.6126022,8.6286592,2.8083842,156.7480927,-39.5648842,99.0381699
4020,19.6126022,10.4290895,-1.1180865,78.0305328,91.5114517,85.2900772
4030,19.6126022,11.1880474,0.0670373,11.2671757,164.2977142,52.9618340
4040,19.6126022,10.3788109,3.6894460,-18.4045811,178.8549652,9.0381680
4050,19.6126022,8.9255381,6.9886389,-13.5496187,138.3206177,-39.1221390
4060,19.6126022,7.6422529,8.9829988,13.9923668,63.0458031,-87.3969498
4070,19.6126022,6.2081332,9.3684635,47.2824440,-17.7328243,-134.1221313
4080,19.6126022,5.4970589,8.5376797,73.4351120,-78.0992355,-174.7480927
4090,19.5222206,4.6566987,7.2352405,87.3893127,-109.9389343,-209.3129730
4100,17.6284161,4.0030847,5.8059096,86.8473282,-115.4580154,-234.9313049
4110,16.4385052,3.5003049,5.2863703,78.3053436,-102.8549652,-250.1374054
4120,15.7824965,2.8802099,5.2313042,68.2213745,-77.7557220,-250.1374054
4130,14.3004932,2.3654592,5.0924411,57.3282433,-49.9923668,-250.1374054
4140,12.1433287,1.5993185,5.1044121,48.3587799,-33.9083977,-250.1374054
4150,9.4091644,0.9600700,5.6239510,44.8625946,-39.7175560,-250.1374054
4160,6.9551206,0.7757174,6.5624733,49.3740463,-59.4198456,-250.1374054
4170,5.3797436,0.7805058,7.0724359,61.1603050,-83.4961853,-250.1374054
4180,4.4484038,0.9289455,6.9335728,73.7862625,-101.6106873,-250.1374054
4190,3.6271970,1.3383518,6.4260044,83.5954208,-113.8015289,-250.1374054
4200,3.2369442,1.8459201,5.8322453,88.1374054,-117.6793900,-250.1374054
4210,2.8993635,2.5115047,5.3941088,88.5267181,-114.1068726,-250.1374054
4220,3.4356618,3.1746953,5.2073622,87.7786255,-100.6641235,-250.1374054
4230,3.1555417,4.0366035,4.5776901,85.1679382,-83.8167953,-250.1374054
4240,2.4827745,4.8721757,3.8905578,80.6183243,-68.5114517,-247.3511505
4250,1.8291607,5.4635406,3.5864959,76.4885483,-60.5267181,-240.6412201
4260,1.4867916,5.9974446,3.4739690,74.8778610,-62.6946564,-236.1374054
4270,1.4029950,6.2943239,3.8426740,76.5419846,-75.8015289,-231.9847260
4280,1.4173602,6.8832946,3.9815371,81.1221390,-94.2137375,-229.3129730
4290,1.7046629,7.3310080,3.4979107,84.4351120,-107.1755753,-228.0305328
4300,1.8794388,7.8433647,3.0597742,82.3511429,-109.8015289,-228.1526642
4310,1.8291607,8.0372944,2.7820482,77.0687027,-100.1145020,-229.7633514
4320,1.4820032,8.0348997,2.4468615,69.0076370,-85.7862625,-231.5954132
4330,0.8451489,8.1019373,2.2912393,60.3053436,-74.0610657,-233.0763397
4340,0.1005560,8.1019373,2.5210814,53.4122124,-67.7786255,-233.4045868
4350,-0.4285599,8.0827837,2.9879484,50.0687027,-68.0152664,-232.7099304
4360,-0.6153067,8.0109577,3.1339941,48.5877876,-66.9770966,-232.1908417
4370,-0.9385223,7.6757712,2.9664006,44.8167953,-61.4427490,-231.9923706
4380,-1.2737088,7.4363523,3.0142846,41.0458031,-51.3740463,-232.1068726
4390,-1.8243724,6.9192076,3.1076579,39.3893127,-39.0152664,-231.0381622
4400,-2.5306582,6.4427638,2.8586621,39.7633591,-29.8473282,-230.1908417
4410,-3.3087699,6.0022330,2.6886747,42.6488533,-26.3282452,-230.1526642
4420,-4.2257442,5.4922705,2.9544299,49.1832047,-31.7099228,-229.3969421
4430,-5.2001796,4.9032998,3.0382264,58.3969460,-44.0152664,-228.0534363
4440,-6.5313487,4.2616572,2.8419030,67.0229034,-55.5572510,-225.0381622
4450,-7.8960366,3.5386121,2.5426292,72.9542007,-69.7328262,-217.8702240
4460,-9.1074963,2.7269819,2.0015423,77.5038147,-81.0534363,-207.3129730
4470,-10.3452930,1.9847831,1.4173602,78.2290039,-91.6412201,-192.2442780
4480,-11.4992924,1.3766589,0.4884146,72.5343475,-97.3893127,-172.1221313
4490,-12.4761209,0.8020535,0.0287303,59.5648842,-95.5648880,-148.6564941
4500,-13.3643656,0.1723816,0.0694315,44.7251892,-87.9770966,-122.2290039
4510,-13.9772778,-0.5913648,0.3615226,30.8015270,-76.6717529,-92.2595444
4520,-14.1736012,-1.3670821,0.3471575,19.0305347,-64.6183243,-61.6030540
4530,-14.2310619,-2.5306582,0.0454896,7.6106873,-52.3587799,-29.1068707
4540,-14.4249916,-4.0389977,-0.5841822,-4.0916033,-45.2290077,5.0763359
4550,-14.5135765,-5.9351954,-1.8243724,-21.3282452,-43.4732819,41.1603050
4560,-14.4489336,-7.6398587,-2.4708035,-47.9236641,-40.7938919,78.3740463
4570,-14.3890781,-9.3588867,-1.7740943,-78.6946564,-26.4351139,117.7022934
4580,-14.9517136,-11.9015160,-0.3351865,-103.9236679,-4.9923663,163.4580078
4590,-15.6005383,-14.0107965,1.2234308,-121.5419846,17.2824421,216.9770966
4600,-16.0338860,-15.8375635,2.8993635,-131.0763397,46.8549614,250.1297760
4610,-16.8167858,-17.7026367,4.3885493,-131.3282471,76.2748108,250.1297760
4620,-17.3506908,-19.6131992,5.0780759,-119.2137375,91.8778610,250.1297760
4630,-17.0993004,-19.6131992,4.9487896,-98.8015289,88.0763321,250.1297760
4640,-15.5885677,-19.6131992,4.0725164,-77.8396912,76.4503784,250.1297760
4650,-12.7849712,-19.6131992,2.3151813,-66.6259537,76.0305328,250.1297760
4660,-9.0955257,-19.6131992,0.4022238,-76.8473282,94.0687027,250.1297760
4670,-5.7077475,-19.6131992,-0.5027798,-114.4198456,120.5496216,250.1297760
4680,3.2872221,-19.6131992,1.8578910,-171.5572510,141.0763397,250.1297760
4690,17.2644997,-19.6131992,7.1346846,-226.2595367,196.6106873,250.1297760
4700,19.6126022,-19.6131992,16.4049854,-250.1374054,250.1297760,250.1297760
4710,19.6126022,-19.6131992,19.6126022,-250.1374054,250.1297760,250.1297760
4720,19.6126022,-19.6131992,19.6126022,-227.3206177,250.1297760,250.1297760
4730,19.6126022,-15.0450869,19.6126022,-96.0763321,250.1297760,250.1297760
4740,19.6126022,-7.9630742,19.6126022,51.4656487,81.5877838,250.1297760
4750,19.6126022,-1.8818330,19.6126022,160.7862549,-121.0763321,227.5572510
4760,19.6126022,2.3989778,17.6619358,183.1068726,-209.7404633,140.7175598
4770,19.6126022,5.3127065,12.2989511,152.9007568,-163.3053436,110.1984711
4780,19.6126022,7.1442614,10.3596573,115.8015289,-32.2900772,108.8625946
4790,19.6126022,8.1234846,8.2407999,86.9160309,104.2748108,109.5725174
4800,19.6126022,8.5711985,6.6462698,64.1450348,166.9007568,101.4809189
4810,19.6126022,8.5831690,6.3781209,54.2748108,158.5572510,74.4122162
4820,19.6126022,8.3892403,6.2512288,56.5954208,107.0992355,33.1221390
4830,19.6126022,8.0540533,5.8298512,63.0381660,51.5572510,-13.1221371
4840,19.6126022,7.5680327,4.8913293,66.8549652,10.4427481,-57.1908379
4850,19.6126022,6.6893654,3.6990228,64.5801544,-13.4732828,-90.8473282
4860,16.4097748,5.5712790,2.8179610,56.9923668,-27.1221371,-111.3511429
4870,13.6229382,4.8266859,2.5115047,47.9389305,-31.7786255,-119.6488571
4880,11.7482872,4.4292507,2.5785420,39.2061081,-32.2366409,-120.1832047
4890,10.1393919,4.2065907,2.9783716,33.1374054,-27.0687027,-117.4503784
4900,8.8273764,4.0533628,2.9975252,29.4351139,-16.8549614,-111.4198456
4910,8.0803890,3.8115497,2.8706331,25.9847336,-7.1068702,-103.7633591
4920,7.4962072,3.7109938,2.8921809,20.6946564,-0.7328244,-95.8167953
4930,7.6254935,5.5090299,3.7397239,8.0610685,2.4274809,-89.2442780
4940,7.8050575,5.3055239,4.3502421,5.1374044,-14.4580154,-96.4503784
4950,7.5009956,5.5617023,4.5250182,-1.6106870,-45.9465637,-118.5648880
4960,7.2855186,7.0556765,4.0294209,-4.6488547,-66.0839691,-127.2290039
4970,7.1107426,6.7659793,4.2018023,-1.9465649,-80.5114517,-123.7251892
4980,7.5919747,6.0189924,4.7189474,3.1755726,-85.6030502,-115.6641235
4990,8.6118994,5.9926562,5.2839761,12.0992365,-78.6793900,-110.5343475
5000,9.2894554,6.3398137,5.6694407,22.5877857,-63.8473282,-108.1374054
5010,10.0986910,6.8330169,5.8418221,33.3053436,-36.9541969,-106.4961853
5020,10.5296450,7.0868006,5.4731169,42.1374054,0.2366412,-104.9389343
5030,10.9677820,7.2807302,5.0325861,47.8854980,39.5190849,-104.6488571
5040,10.8672256,7.1466556,5.1546898,50.8702278,71.8091583,-106.1221390
5050,11.0420017,7.4938130,5.5593081,53.1145020,87.8549652,-109.5801544
5060,10.8073711,8.0995426,6.0956063,55.5114517,81.2061081,-120.1297684
5070,8.9494801,8.9949694,7.1538382,47.2595406,-4.9160304,-137.4961853
5080,10.8145542,8.9159613,5.9375896,31.5725193,-83.4122162,-167.2290039
5090,11.7387114,8.5065556,6.6366930,27.1145039,-114.4503784,-199.7099304
5100,11.5447817,8.2384062,8.3533268,31.3740463,-134.6488495,-226.8778687
5110,11.5687237,7.4459291,8.9039907,42.6870232,-139.9389343,-246.5114441
5120,10.6972389,6.7204900,9.3636751,59.9847336,-131.4732819,-250.1374054
5130,9.4450769,6.1913738,9.6150646,76.5496216,-119.8244247,-250.1374054
5140,8.5520449,6.0860295,8.9590569,89.9847336,-101.5954208,-250.1374054
5150,7.6638002,6.1985564,7.9439206,95.8931274,-84.4809189,-250.1374054
5160,7.1179252,6.1051831,6.9120250,97.3893127,-74.3511429,-250.1374054
5170,4.7883787,6.8090749,6.2991123,95.7251892,-72.6717529,-250.1374054
5180,4.0413918,6.4547348,6.4092450,96.8549652,-78.0381699,-250.1374054
5190,2.5641768,6.2009506,6.3661499,101.4656525,-83.1832047,-250.1374054
5200,1.5562232,5.5688848,6.5912037,108.1526718,-87.6106873,-250.1374054
5210,0.6224893,5.1642666,6.6941538,119.7099228,-86.9465637,-250.1374054
5220,-0.6727672,4.9775200,5.9016771,131.7938995,-87.0992355,-250.1374054
5230,-2.1044924,4.8147149,5.3151007,143.5801544,-88.2595444,-250.1374054
5240,-3.8857694,4.2209558,4.4268565,155.1984711,-94.1984711,-250.1374054
5250,-6.1722202,3.7445123,3.4524212,166.7938995,-112.4732819,-250.1374054
5260,-8.0564480,3.5936785,2.6024840,178.6870270,-145.0992432,-250.1374054
5270,-9.1793222,2.9687948,1.4077834,188.3893127,-188.7938995,-250.1374054
5280,-9.5671806,2.6575503,-0.5985473,189.5648804,-244.4045868,-245.5038147
5290,-9.8377247,2.0230901,-2.0087249,179.6717529,-250.1374054,-232.0686951
5300,-9.6102762,2.0757623,-3.0286496,155.4198456,-250.1374054,-216.2519073
5310,-9.1314383,1.6591733,-3.4883339,121.8091583,-250.1374054,-198.6946564
5320,-8.9686337,1.1851238,-3.6200144,79.6946564,-237.2137451,-179.0686951
5330,-8.7794924,0.6177009,-3.4596038,31.6793900,-183.5419922,-157.3664093
5340,-8.7340031,-0.0526722,-2.7676830,-15.6183205,-116.4198456,-132.9694672
5350,-8.6765423,-0.6368544,-1.4197544,-56.6030540,-49.6793900,-109.9083939
5360,-8.6789370,-1.2952565,0.0718257,-85.2900772,5.9770994,-89.8931274
5370,-9.4762020,-2.2337787,1.4053892,-101.9542007,46.3969460,-71.5877838
5380,-10.3644457,-3.4260850,2.3151813,-108.8396912,66.5267181,-51.5877876
5390,-10.8863792,-4.9631548,2.3032103,-111.0229034,67.4045792,-29.7022896
5400,-11.3005743,-6.4403696,2.4851687,-112.2900772,56.1297722,-8.1068707
5410,-12.1026278,-7.8050575,3.2417326,-110.0610657,35.9694672,16.5572510
5420,-13.4050665,-9.3780403,4.2257442,-102.0610657,18.6488552,49.8167953
5430,-14.5159702,-10.5392218,4.7548604,-91.4274826,11.4885492,96.4885483
5440,-15.2007084,-11.5902710,4.7165532,-83.8091583,14.2671757,149.3358765
5450,-15.3443604,-12.5096397,4.4795284,-79.8015289,27.1068707,210.8244324
5460,-15.2653522,-14.1520538,3.9144998,-76.7099228,45.9083977,250.1297760
5470,-14.8224268,-15.7394018,2.9903426,-76.6793900,64.2900772,250.1297760
5480,-14.1568422,-17.6499653,2.1092808,-80.6870193,83.3358765,250.1297760
5490,-13.6708221,-19.6131992,0.9026094,-91.2442780,105.8167953,250.1297760
5500,-12.0930510,-19.6131992,-0.5171449,-116.5190811,123.7786255,250.1297760
5510,-9.1793222,-19.6131992,-0.5123565,-149.5648804,131.2595367,250.1297760
5520,-4.7524662,-19.6131992,0.4118006,-189.0000000,127.2824402,250.1297760
5530,4.5896611,-19.6131992,2.7509236,-230.1603088,108.6412201,250.1297760
5540,17.9300842,-19.6131992,6.7492199,-250.1374054,132.7328186,250.1297760
5550,19.6126022,-19.6131992,12.0523500,-250.1374054,209.9160309,250.1297760
5560,19.6126022,-19.6131992,19.6126022,-250.1374054,250.1297760,250.1297760
5570,19.6126022,-19.3139267,19.6126022,-250.1374054,250.1297760,250.1297760
5580,19.6126022,-11.8225079,19.6126022,-250.1374054,250.1297760,250.1297760
5590,19.6126022,-5.5832496,19.6126022,-196.7175598,250.1297760,250.1297760
5600,19.6126022,-2.5306582,19.6126022,-82.5496216,52.3511467,250.1297760
5610,19.6126022,-0.1771700,19.6126022,23.8396950,-165.3893127,170.3511505
5620,19.6126022,2.7652888,19.6126022,89.5343475,-250.1374054,131.4122162
5630,19.6126022,4.4484038,19.0769024,115.1832047,-228.4427490,130.2748108
5640,19.6126022,6.2488346,12.2797976,103.8778610,-106.7786255,147.1221313
5650,19.6126022,6.8449879,8.2144642,73.0381699,4.8549619,169.1679382
5660,19.6126022,7.3238254,6.0477223,44.6106873,54.8931313,184.7557220
5670,19.6126022,8.2096758,5.8250628,23.7251911,70.9847336,174.6946564
5680,19.6126022,9.3229742,6.7133074,11.8244276,72.1679382,136.8473358
5690,19.6126022,9.6222477,7.9726510,13.9770994,64.0687027,82.9542007
5700,19.6126022,9.4163475,8.1713686,23.8473282,41.7480927,27.1221371
5710,19.6126022,8.6166878,7.6997132,33.7404594,15.0916033,-19.1603050
5720,19.6126022,7.6901364,6.9958215,39.8396950,-4.4809160,-49.7175560
5730,17.2956238,7.0341287,6.4906478,43.2290077,-13.2213745,-68.7099228
5740,15.0402985,6.5385313,5.7532372,42.9694672,-9.6946564,-77.9389343
5750,13.1393118,6.0812411,5.0373745,39.4732819,0.1374046,-81.2366409
5760,11.5519638,5.7891502,4.4507980,33.0000000,10.0305347,-80.9465637
5770,10.3692341,5.5832496,4.3406653,26.8625946,18.3129768,-79.3282471
5780,9.4139528,5.2408805,4.2784166,22.6793900,24.8931293,-78.2213745
5790,8.4945841,4.9224534,4.0796990,20.0839691,27.9618320,-77.4274826
5800,7.7547798,4.4867110,4.0940638,18.6717548,24.2671757,-76.6870193
5810,7.0796180,4.1587071,3.8211265,16.6641216,15.1068707,-75.6335907
5820,6.1913738,3.5912843,5.0158267,6.8091602,-10.6259546,-70.6946564
5830,5.8992829,3.3805954,5.5521255,8.9389315,-17.7862587,-70.3740463
5840,5.6407104,3.3375001,5.8753409,13.1221371,-22.3511448,-69.3511429
5850,5.3031297,3.2824337,5.8418221,16.9160309,-25.6564884,-67.6030502
5860,5.0038562,3.2345500,5.7604198,19.7862587,-26.7328243,-63.9618340
5870,4.7237358,3.2297616,5.4970589,20.8625946,-26.5038166,-58.0839691
5880,5.0541339,3.3973548,5.2049680,18.8931293,-22.5954189,-49.9465637
5890,5.4324160,3.8546450,5.1618724,14.4961834,-12.4580154,-40.4122124
5900,7.4028339,5.2911587,6.0716643,-4.6564884,23.5648861,-18.2900772
5910,8.0971489,5.7173243,6.7468257,-6.1908398,25.0610695,-15.8549614
5920,8.8201942,6.0309634,7.6039457,-2.4274809,17.4732819,-14.2061071
5930,12.1193867,6.9742737,8.9901810,17.4122143,4.6412215,-19.0229015
5940,14.2358503,7.6278877,9.0979195,29.0076332,2.3358779,-31.9770985
5950,16.0434628,8.6549950,8.8656836,36.4809151,1.7328244,-53.5419846
5960,17.1663380,9.0548248,8.7340031,37.6183205,4.8854961,-80.1526718
5970,17.7744617,9.0308828,8.6502066,36.2366409,7.2519083,-111.4580154
5980,17.4895535,8.5807753,9.3110027,38.0992355,2.9465649,-143.8396912
5990,16.8287582,7.7523856,10.6804790,49.0000000,-14.1679392,-174.8931274
6000,16.9005833,7.0844064,11.5615406,67.0457993,-38.7709923,-205.5343475
6010,16.8072090,6.4906478,11.8584204,90.7022934,-66.6641235,-237.8015289
6020,16.2756996,5.8873119,11.6285782,116.3893127,-94.0152664,-250.1374054
6030,14.9517136,4.8649931,10.7618818,138.2900696,-115.3435135,-250.1374054
6040,13.5080166,3.8019729,9.3924055,153.0076294,-131.9160309,-250.1374054
6050,12.1169930,3.0621684,8.1713686,159.5648804,-142.3053436,-250.1374054
6060,10.8480721,2.6838863,6.7659793,158.2213745,-142.1450348,-250.1374054
6070,9.3469152,2.3630650,5.1522956,147.7862549,-132.8244324,-250.1374054
6080,7.3166428,1.7669119,4.3095412,132.7251892,-118.6564865,-250.1374054
6090,5.2648225,1.2928623,3.8594334,115.6488571,-103.8473282,-250.1374054
6100,3.0621684,0.6392486,4.3310885,106.4122162,-92.4045792,-250.1374054
6110,1.0702027,0.4261657,4.4986820,102.5190811,-89.6030502,-250.1374054
6120,-0.4309541,0.4979914,4.4436154,102.4045792,-91.3282471,-250.1374054
6130,-1.1324517,0.2777260,4.2472920,106.2061081,-93.3435135,-250.1374054
6140,-2.0853391,0.1867468,4.1874375,109.6793900,-96.3969498,-250.1374054
6150,-3.1076579,-0.0191535,3.9264708,114.6030502,-99.4656525,-250.1374054
6160,-4.0533628,-0.4357425,3.5074875,119.6183243,-103.3206100,-250.1374054
6170,-5.0684991,-0.6129125,2.9711890,121.6793900,-108.9923630,-250.1374054
6180,-6.0764527,-0.6368544,2.4564383,120.8473282,-117.2824402,-250.1374054
6190,-7.1322904,-0.6296718,1.5777708,115.2137375,-125.9236679,-250.1374054
6200,-8.0779953,-0.5602403,0.9026094,104.0076370,-127.7022934,-250.1374054
6210,-9.2032642,-0.4908088,0.5458752,86.4809189,-126.7786255,-240.1297760
6220,-10.1082678,-0.2944853,0.7182568,68.6030502,-120.7328262,-210.5572510
6230,-10.6110477,-0.0215477,1.1013272,51.7175560,-110.9160309,-179.1145020
6240,-10.7882175,-0.0167593,1.2928623,35.7709923,-96.2290039,-147.0839691
6250,-10.7116032,-0.0622489,1.4460905,20.3435116,-76.2366409,-115.2290039
6260,-10.3213511,-0.2801202,1.5322813,5.4809160,-52.6106873,-86.5954208
6270,-9.8903971,-0.3734936,1.5921360,-7.6030536,-28.4274807,-61.8473282
6280,-9.5073261,-0.9313397,1.3311694,-19.2977104,-6.8931298,-42.4732819
6290,-9.2343884,-1.5442522,1.2425843,-29.6335869,9.6259546,-26.4885502
6300,-9.3277617,-1.9871773,1.3575054,-38.5190849,19.3587780,-12.6412210
6310,-10.4434547,-2.7341642,1.4197544,-43.7251892,18.6488552,3.7404580
6320,-12.6700506,-3.5050933,1.4772149,-43.0458031,-1.7404580,28.7862587
6330,-14.0084028,-4.0006905,2.2361729,-37.1832047,-39.0534363,64.1755753
6340,-14.5135765,-4.4507980,2.8538737,-26.9618320,-67.3435135,104.4274826
6350,-14.5734310,-5.1283536,2.8251436,-16.6946564,-85.4580154,149.6946564
6360,-14.6644106,-5.9471664,2.1164634,-10.7633591,-100.9465637,198.3893127
6370,-14.6763811,-6.5696559,2.1044924,-9.0381680,-111.7938919,250.1297760
6380,-14.9014349,-7.8433647,2.5234756,-9.8549614,-103.5954208,250.1297760
6390,-15.0211449,-9.7347746,2.9496415,-12.1603050,-70.0152664,250.1297760
6400,-14.8607340,-12.1193867,3.6056492,-15.4351149,-16.2595425,250.1297760
6410,-14.1448717,-15.1480370,4.5681133,-20.3664131,41.2671738,250.1297760
6420,-11.6644907,-17.1208496,6.1554613,-21.9160309,75.5648880,250.1297760
6430,-7.9295554,-19.6131992,7.1131368,-12.8702288,77.8091583,250.1297760
6440,-1.0079538,-19.6131992,6.3326311,2.1450381,59.2290077,250.1297760
6450,10.9510221,-19.6131992,4.4962878,18.3435116,67.8473282,250.1297760
6460,19.6126022,-19.6131992,2.6120608,24.2366409,136.8320618,250.1297760
6470,19.6126022,-19.6131992,2.7054341,3.4580152,250.1297760,250.1297760
6480,19.6126022,-13.1297350,4.9631548,-44.0610695,250.1297760,250.1297760
6490,19.6126022,-3.3901722,9.4283180,-78.5419846,250.1297760,250.1297760
6500,19.6126022,0.8547257,13.4050665,-45.9771004,181.7251892,250.1297760
6510,19.6126022,1.8363433,11.1473465,19.5419846,-11.3664122,210.0992432
6520,19.6126022,3.4452386,7.3262196,74.8854980,-213.6717529,104.9083939
6530,19.6126022,4.7021880,4.9679432,93.3969498,-250.1374054,60.5954208
6540,19.6126022,5.5928264,3.9695661,94.6335907,-250.1374054,57.0076332
6550,19.6126022,5.9758968,1.6519908,74.5648880,-146.9313049,75.5419846
6560,18.6052456,6.2057390,-0.6081241,40.7633591,-4.8244276,107.5038147
6570,17.6308117,6.7875271,-1.1755470,4.1908398,100.0763321,134.8091583
6580,18.5142670,7.3693151,0.4548960,-20.3816795,154.4045868,141.5877838
6590,19.6126022,7.2639709,1.4508789,-27.2366409,167.6717529,130.6412201
6600,19.6126022,7.4459291,1.6280488,-24.9541988,151.8473358,104.2900772
6610,19.6126022,7.5440907,1.1659702,-24.2137413,122.4122162,66.2366409
6620,19.6126022,6.9120250,0.8882443,-28.0229015,95.0763321,28.5343513
6630,17.3052006,6.0836353,1.0414724,-34.1832047,69.7022934,-1.0610687
6640,15.2725344,5.2241216,1.6208663,-39.8396950,50.6946564,-17.6717548
6650,13.6061783,4.5274124,2.5761478,-42.3664131,40.2213745,-23.3435116
6660,12.6508970,4.3263001,3.9552009,-40.5114517,40.1526718,-21.1068707
6670,12.2343082,4.2425036,4.6231799,-34.9618340,48.9236641,-16.2061062
6680,11.8249016,4.2688398,4.7907729,-28.7709923,61.5038185,-10.6488552
6690,11.5328102,4.2353210,4.5776901,-24.8854961,74.2213745,-4.9389315
6700,11.5615406,4.2999644,4.0796990,-24.2595425,84.4656525,-0.3969466
6710,11.9685535,4.5322008,3.8019729,-26.7633591,84.9542007,0.0610687
6720,12.6030130,4.6088147,3.8761928,-29.3053436,75.0687027,-6.2900763
6730,12.9908724,4.5729017,4.3957319,-29.5267181,57.2900772,-16.8244267
6740,13.4098549,4.6231799,4.9200592,-27.1832066,34.9694672,-30.1603050
6750,13.6684275,4.6040263,5.5018473,-22.7175579,14.8473282,-45.0228996
6760,13.7785606,4.6327567,5.7460546,-19.5343513,0.9923664,-58.8625946
6770,13.4673157,4.5561423,6.1219425,-17.7099228,-3.3664122,-69.0839691
6780,13.3284531,4.2999644,6.4044566,-15.4503813,-3.8473282,-75.8549652
6790,13.4697094,4.2377152,6.7085190,-13.1755724,2.3893130,-78.7175598
6800,14.0586805,4.3167233,6.8378053,-12.3740454,15.5343513,-80.0534363
6810,14.6691990,4.5250182,6.7492199,-13.9541988,33.7557259,-81.9923630
6820,15.2054968,4.5609307,6.8354111,-16.8396950,53.3969460,-84.5419846
6830,15.8495340,4.6040263,6.7133074,-21.8244267,65.0152664,-90.0305328
6840,15.8136215,5.8537931,6.6175399,-26.0610695,68.2519073,-97.3740463
6850,17.3435078,4.2377152,7.2065101,-27.3053436,55.8091621,-115.2213745
6860,17.7409439,3.9168940,8.0205345,-20.9541988,34.8091621,-144.5496216
6870,17.4751892,3.6559272,8.7363977,-7.9312978,13.6946564,-176.0992432
6880,16.8263626,2.9711890,9.1386213,9.1221371,-3.9236641,-202.6946564
6890,16.6204624,2.2050486,9.3852224,27.0687027,-14.8931293,-226.3969421
6900,16.4792061,1.7717001,9.4211359,44.3206100,-21.5954189,-249.2748108
6910,15.9237537,1.5969244,9.0715837,59.4045792,-20.5801525,-250.1374054
6920,15.2270451,1.5825592,8.6909075,70.1297684,-12.4961834,-250.1374054
6930,14.7673607,1.3479286,8.1234846,78.3206100,-4.0152674,-250.1374054
6940,14.4154148,0.8666966,7.6685886,85.0687027,-0.9618320,-250.1374054
6950,13.2255030,0.3327923,7.1753860,89.7862625,-6.1297708,-250.1374054
6960,11.3891592,0.0359128,6.9431496,93.8396912,-19.4656487,-250.1374054
6970,9.8257532,-0.2657550,6.7396431,100.0534363,-35.3129768,-250.1374054
6980,8.4778252,-0.4716553,6.6510582,105.6793900,-50.7099228,-250.1374054
6990,6.9096308,-0.3519458,6.4499464,111.6641235,-64.8625946,-250.1374054
7000,5.6024032,-0.3519458,6.0716643,118.1832047,-76.5343475,-250.1374054
7010,4.4723458,-0.5219333,5.4515696,122.2900772,-82.5267181,-250.1374054
7020,3.0861101,-0.7493813,4.9080882,123.3358765,-81.9160309,-250.1374054
7030,1.8722562,-0.9121862,4.4651632,121.6793900,-79.1603088,-250.1374054
7040,0.7469871,-1.2186425,4.0126615,119.0000000,-72.9694672,-250.1374054
7050,-0.3710994,-1.5969244,3.7301471,116.0534363,-67.7557220,-250.1374054
7060,-1.4963684,-1.6807210,3.7756367,113.4122162,-64.3893127,-250.1374054
7070,-3.0430148,-2.3056045,3.8115497,111.8931274,-60.1145020,-250.1374054
7080,-4.4867110,-2.8538737,3.8809812,111.7328262,-58.9923668,-250.1374054
7090,-5.5640965,-3.3015873,3.8929520,113.3435135,-56.3053436,-250.1374054
7100,-6.8641410,-3.8881636,3.7301471,114.7022934,-53.1603050,-250.1374054
7110,-8.6214762,-4.7213416,3.4979107,116.3511429,-53.9541969,-250.1374054
7120,-10.6661139,-5.6024032,3.1148405,117.8778610,-62.8015251,-250.1374054
7130,-13.4744978,-5.7867560,2.6144550,116.7709961,-75.7938919,-250.1374054
7140,-16.2565460,-6.0405402,2.0230901,111.4885483,-91.1145020,-250.1374054
7150,-17.8965664,-6.1578555,1.7621235,103.8702316,-105.0839691,-239.4122162
7160,-18.9763451,-6.1937680,1.5705882,92.7633591,-116.2824402,-191.9847260
7170,-19.0577488,-6.1291251,1.0103480,78.0152664,-115.5267181,-143.8702240
7180,-18.6076412,-6.1794028,0.2442073,56.8473282,-102.4809189,-97.2213745
7190,-17.8774128,-6.4762826,-0.1891410,28.2748089,-75.9923630,-51.4961815
7200,-17.3315372,-7.0413113,-0.3878587,-4.3358779,-39.5267181,-6.3282442
7210,-16.9987450,-7.6949248,-0.0933734,-37.2977104,4.9847326,40.3664131
7220,-17.1064835,-8.7076674,0.2489957,-67.6412201,47.4809151,88.8473282
7230,-18.1623211,-9.9981356,0.4908088,-96.0000000,76.9236679,140.2748108
7240,-18.9667683,-11.2191715,1.5155219,-118.9694672,87.3206100,197.1832123
7250,-19.6131992,-12.7490587,3.3015873,-129.9923706,86.1374054,250.1297760
7260,-19.6131992,-14.8056679,4.8961172,-124.2595444,76.0229034,250.1297760
7270,-19.6131992,-16.4145622,5.7173243,-109.7251892,65.8473282,250.1297760
7280,-18.8733959,-18.7177734,5.5281835,-91.4580154,67.9923630,250.1297760
7290,-18.2700596,-19.6131992,4.7452836,-79.2824402,89.2595444,250.1297760
7300,-15.9476957,-19.6131992,3.2058196,-82.7251892,125.4961853,250.1297760
7310,-13.3691540,-19.6131992,2.1691356,-105.3664093,158.5496216,250.1297760
7320,-10.2950144,-19.6131992,1.9129574,-142.8702240,165.3358765,250.1297760
7330,-4.8673873,-19.6131992,3.9959023,-178.1603088,138.4351196,250.1297760
7340,11.2287483,-19.6131992,7.7284436,-193.0152740,126.5419846,250.1297760
7350,19.6126022,-19.6131992,10.9582052,-204.8549652,209.4198456,250.1297760
7360,19.6126022,-19.6131992,17.1184540,-230.5801544,250.1297760,250.1297760
7370,19.6126022,-19.6131992,19.6126022,-248.7938995,250.1297760,250.1297760
7380,19.6126022,-7.9295554,19.6126022,-204.5725250,250.1297760,250.1297760
7390,19.6126022,-4.0533628,19.6126022,-68.7862625,159.1221313,250.1297760
7400,19.6126022,-1.0869620,19.6126022,74.5114517,-160.0076294,109.5114517
7410,19.6126022,2.6790979,19.2301292,151.6412201,-250.1374054,39.6946564
7420,19.6126022,6.3158717,12.0523500,160.5114441,-250.1374054,31.7251911
7430,19.6126022,8.7507620,6.1985564,121.6641235,-187.0305328,52.1221390
7440,19.6126022,9.7946291,1.5107336,57.7557259,11.7557249,77.4198456
7450,19.6126022,10.5918941,-1.6280488,-13.0152674,133.9923706,95.9694672
7460,18.3945580,10.2471304,-0.0598547,-64.3511429,162.2061005,99.7862625
7470,17.4967365,9.4307127,3.3925664,-77.6641235,126.3053436,88.6564865
7480,16.9891682,8.9039907,6.0046272,-67.0687027,60.1145020,64.0229034
7490,15.9883976,7.9534974,7.6853480,-42.5648842,-6.9465647,36.7404594
7500,14.4489336,6.9072366,8.2072811,-11.6106873,-55.9771004,15.4656487
7510,13.2757807,5.9615316,6.8785062,13.4732828,-80.5343475,3.0992367
7520,12.6580801,5.4036856,5.1115947,24.1755733,-79.8244247,-2.5038168
7530,12.4234495,5.2456689,3.5649481,20.5114498,-61.2900772,-6.2671757
7540,12.2678270,4.9607606,2.6192431,8.3969469,-31.7404575,-10.3893127
7550,11.5759058,4.5489597,2.4396791,-7.9847326,-2.6259542,-13.0992365
7560,10.8169479,3.8785870,2.8323262,-22.8320618,17.0305347,-12.7633591
7570,10.3405046,3.3422885,3.7157819,-31.7480907,22.8396950,-9.4580154
7580,10.2758608,2.9592183,4.8649931,-33.3893127,19.4351139,-4.7480917
7590,10.7331514,2.7030399,5.6431046,-30.9770985,15.0381680,-0.0381679
7600,11.3747940,2.6024840,6.2943239,-24.0534344,13.2213745,0.4045801
7610,12.5479469,2.4540441,5.8944945,5.0916033,14.0152674,-14.5725193
7620,12.6269550,2.4923513,5.1403246,9.0305347,16.1068707,-23.1068707
7630,12.5048513,2.4779861,4.6878228,7.4732823,14.9923668,-29.0687027
7640,12.7035694,2.5067163,4.6806402,3.9618320,14.0458012,-32.2748108
7650,13.1129761,2.8323262,5.1666608,1.4427481,15.4122133,-34.0534363
7660,13.5918131,3.1315999,5.1810260,0.9312977,18.3893127,-38.0610695
7670,14.8415804,3.4763632,4.9583664,-0.4198473,23.3740463,-46.4045792
7680,16.0937424,3.8091555,4.7859845,-5.0916033,33.0152664,-58.5572510
7690,16.8191814,4.2544746,4.9272418,-11.2442751,42.2061081,-75.6335907
7700,17.1830978,4.3957319,5.2265158,-15.6488552,45.2519073,-96.8091583
7710,17.3506908,4.4867110,5.6598639,-17.3206100,44.6564903,-118.2824402
7720,17.6739063,4.6064205,6.0165982,-16.4122143,42.6641235,-140.2671814
7730,17.4775829,4.4603748,6.1315193,-15.4732828,33.6641235,-165.0458069
7740,16.9029770,4.4603748,6.7731619,-14.4274807,17.9007626,-191.1679382
7750,15.9069948,4.4388270,7.3860745,-11.0763359,-2.0458016,-216.9847260
7760,14.8774929,4.1180058,8.1258793,-4.4885497,-25.2290077,-238.2900696
7770,15.0187502,3.8761928,8.5520449,2.2366412,-39.1679382,-250.1374054
7780,14.6979294,3.6511390,8.8704720,7.0229006,-39.5419846,-250.1374054
7790,14.0562859,3.4667864,9.5647869,11.9007635,-36.8625946,-250.1374054
7800,13.3404236,3.4308734,10.2471304,20.1755733,-32.9465637,-250.1374054
7810,12.3348637,3.1244173,10.9055328,32.3816795,-30.1908398,-250.1374054
7820,10.9653873,2.6695213,11.0827026,45.4351158,-28.3435116,-250.1374054
7830,9.3612804,2.2649033,10.9510221,59.2977104,-25.2213745,-250.1374054
7840,7.3908629,1.9321109,10.8432837,74.0687027,-26.2824421,-250.1374054
7850,5.6574697,1.7405758,10.3045912,89.0000000,-29.3129768,-250.1374054
7860,4.1395535,1.4628497,9.5576038,102.8015289,-33.4656487,-250.1374054
7870,3.0118904,1.3886299,8.7962523,114.4885483,-38.5801544,-250.1374054
7880,2.2289903,1.3479286,7.8840661,123.1297684,-44.7709923,-250.1374054
7890,1.5011568,0.9935886,6.8593526,127.2977066,-51.9923668,-250.1374054
7900,0.6560079,0.8164186,5.9423780,126.5343475,-56.2213745,-250.1374054
7910,-0.2442073,0.5267217,5.3725610,123.0152664,-53.6717567,-250.1374054
7920,-1.5873476,0.3184272,4.8290801,118.2137375,-45.5572510,-250.1374054
7930,-2.8227494,0.0885850,4.2233500,111.6641235,-35.6259537,-250.1374054
7940,-3.9288650,-0.1077385,3.6415622,102.3587799,-25.3893127,-250.1374054
7950,-5.0134325,-0.3806761,3.3901722,95.6488571,-15.2824430,-250.1374054
7960,-6.1961622,-0.5339043,3.2106080,87.7328262,-6.8015265,-250.1374054
7970,-7.2998838,-0.7278336,3.3686244,82.4122162,-2.6564887,-250.1374054
7980,-8.3341732,-0.8571198,3.4715748,79.8625946,-2.7633588,-250.1374054
7990,-9.3540983,-0.9816177,3.3877780,80.1526718,-4.0076337,-238.5496216
8000,-10.4314833,-1.2761030,2.9161227,82.6030502,-8.6946564,-223.8473358
8010,-11.3843708,-1.4676381,1.9799947,81.5725174,-15.2748089,-209.5419922
8020,-12.4761209,-1.6065011,1.4939742,77.1068726,-19.0458012,-192.0229034
8030,-13.3236647,-1.9273225,1.2617378,73.2900772,-19.8854961,-170.4198456
8040,-14.0419216,-2.0661855,0.8355721,69.0992355,-16.7022896,-145.7175598
8050,-14.3914728,-2.4971397,0.3399749,61.7557259,-10.3129768,-118.4809189
8060,-14.3818960,-3.2201848,-0.2322364,50.4580154,2.0381680,-90.8931274
8070,-14.7075062,-3.8666160,-0.9576758,33.6564903,20.2366409,-60.8778610
8080,-14.9948082,-4.8961172,-1.6519908,12.1221371,41.9312973,-27.1908398
8090,-16.0051556,-6.0812411,-2.2553265,-12.9694653,65.5190811,13.6793890
8100,-17.0849361,-7.0197635,-2.5857246,-40.6793900,85.7862625,62.9083977
8110,-17.9276905,-8.1953106,-2.5306582,-68.5496216,99.4274826,119.8702316
8120,-19.6131992,-9.4714136,-2.4013720,-91.2137375,103.9542007,184.1068726
8130,-19.6131992,-11.0803089,-2.2481439,-109.7480927,89.7022934,250.1297760
8140,-19.6131992,-12.9525652,-2.3870070,-124.2671738,71.8015289,250.1297760
8150,-19.6131992,-15.2246504,-2.9616125,-142.6564941,65.3740463,250.1297760
8160,-17.5254669,-18.2341461,-3.4835455,-166.4503784,63.5572510,250.1297760
8170,-14.6883526,-19.6131992,-3.1746953,-192.9618378,73.1221390,250.1297760
8180,-10.9653873,-19.6131992,-2.6431851,-220.6412201,87.8473282,250.1297760
8190,-7.9511032,-19.6131992,-2.4277081,-249.2213745,95.0381699,250.1297760
8200,-4.7452836,-19.6131992,-0.8020535,-250.1374054,81.6259537,250.1297760
8210,1.4436963,-19.6131992,2.5713594,-250.1374054,52.3511467,250.1297760
8220,17.8558655,-19.6131992,5.8130918,-250.1374054,42.5343513,250.1297760
8230,19.6126022,-19.6131992,11.0300312,-250.1374054,126.9542007,250.1297760
8240,19.6126022,-19.6131992,19.6126022,-250.1374054,248.5267181,250.1297760
8250,19.6126022,-12.5335817,19.6126022,-250.1374054,250.1297760,250.1297760
8260,19.6126022,-6.2727766,19.6126022,-184.7022858,250.1297760,250.1297760
8270,19.6126022,-5.6143742,19.6126022,-43.1450386,172.1908417,143.8931274
8280,19.6126022,-2.4348907,19.6126022,47.9236641,-116.3816757,50.5343513
8290,19.6126022,1.6783268,17.6595421,84.3816757,-250.1374054,25.7633591
8300,19.6126022,4.3286943,16.1631737,98.5267181,-250.1374054,28.9694653
8310,19.6126022,6.1506729,12.5862541,85.8778610,-170.7938995,35.2671738
8320,16.9029770,7.0868006,4.0006905,7.7786260,104.0381699,61.3435097
8330,15.1432486,7.0604649,3.7445123,-21.7633591,118.2671738,67.9160309
8340,15.0833931,6.4882536,5.4587522,-25.7175579,82.5114517,60.6793900
8350,15.2773228,6.0596933,6.3062949,-15.3587790,31.8549614,44.7175560
8360,15.5694141,5.4300218,6.7923155,0.8244275,-21.1297703,21.7099228
8370,15.7848911,4.9679432,6.5768385,15.4351149,-58.3969460,-1.6641221
8380,15.6149035,4.7931671,5.7556314,24.3816795,-70.1068726,-23.1374054
8390,14.5686426,4.6543045,4.8123207,24.4503822,-66.0763321,-40.0992355
8400,13.0411501,4.0701222,4.1658897,18.2137413,-55.6717567,-50.2290077
8410,11.4657736,3.4739690,4.3837609,11.7633591,-47.5572510,-52.0534363
8420,10.3572636,2.7964132,4.7045822,6.2671757,-40.6030540,-46.0687027
8430,9.8353300,2.5689652,5.2025738,2.2366412,-32.4045792,-36.3969460
8440,9.9550400,2.4875629,5.8130918,1.2748091,-23.2366409,-26.8244267
8450,10.2016411,2.6910689,6.1219425,1.5725191,-11.9465647,-21.0839691
8460,10.2591019,2.6048782,6.1602492,3.4580152,-1.0152671,-18.2442741
8470,9.9263096,2.3702476,6.0956063,6.3053436,4.5725193,-16.7480907
8480,9.8616667,2.3079987,6.0165982,8.7251911,5.7022901,-16.0992374
8490,10.0508070,2.2888451,5.5473371,11.4503813,0.2900763,-18.6717548
8500,10.3692341,2.3486998,5.3438311,9.6259546,-2.8320611,-20.5801525
8510,10.7954006,2.4420733,5.3797436,5.5190840,-2.3816793,-22.8549614
8520,11.1569233,2.7461352,5.6790175,2.2595420,-0.0610687,-25.1374054
8530,14.4680872,3.0047078,6.7109132,1.4580153,12.8167934,-30.5114498
8540,15.8447456,3.6032550,6.7348547,1.5343511,26.3969460,-41.5725174
8550,16.7018661,3.7636659,6.7803445,0.6793893,34.0763359,-59.4580154
8560,17.4273052,3.8211265,7.0628591,-0.0610687,33.4198456,-81.6030502
8570,17.9348736,3.8857694,7.5608501,1.4122137,24.5877857,-107.2519073
8580,18.5956688,3.7828193,8.1641865,4.8473282,13.0305347,-134.9770966
8590,18.6507359,3.6726866,8.6310530,8.9389315,0.3129771,-165.6793823
8600,18.4448357,3.3949606,9.1170731,13.9389315,-14.8396950,-197.4274750
8610,17.7696743,2.8323262,9.7706871,19.4656487,-31.7404575,-227.5725250
8620,16.6084919,2.4779861,10.2591019,26.6412220,-50.0839691,-250.1374054
8630,15.7681322,2.2313845,10.8528605,36.1297722,-64.2519073,-250.1374054
8640,15.6340570,2.0446377,11.0372133,47.1374054,-71.0381699,-250.1374054
8650,15.6843348,1.9249283,10.7546988,56.8625946,-69.5114517,-250.1374054
8660,14.7793312,1.6472024,10.4314833,63.9083977,-68.7328262,-250.1374054
8670,13.1512823,1.1037214,10.0891142,71.1679382,-69.9923630,-250.1374054
8680,11.9254580,0.6344602,9.7922344,80.4961853,-73.4122162,-250.1374054
8690,11.3173332,0.4070122,9.4187412,89.3664093,-72.8091583,-250.1374054
8700,10.0412302,0.2035061,8.4754305,96.2213745,-68.7633591,-250.1374054
8710,8.1833391,-0.2873027,7.8289995,98.0000000,-73.1755753,-250.1374054
8720,6.8378053,-0.8427547,7.3381906,101.2442780,-83.2748108,-250.1374054
8730,6.2057390,-1.0462608,6.8928714,101.0457993,-88.1450348,-250.1374054
8740,5.6478930,-1.4125718,6.5050125,100.9923630,-86.7022934,-250.1374054
8750,4.1108232,-2.1595588,6.2751703,101.0687027,-84.9312973,-250.1374054
8760,2.2840567,-2.9400647,5.9639258,101.4885483,-84.3587799,-250.1374054
8770,0.5578461,-3.4141142,5.8298512,105.1755753,-82.4122162,-250.1374054
8780,-1.1659702,-3.6415622,5.4826937,105.5496216,-80.8549652,-250.1374054
8790,-2.7150109,-3.8402798,5.2504573,104.7938919,-79.7862625,-250.1374054
8800,-3.8498566,-4.2089849,5.3558016,104.0076370,-77.4122162,-250.1374054
8810,-5.5904322,-3.8307030,5.2145448,106.6183243,-68.7633591,-250.1374054
8820,-7.4411407,-4.0844874,5.0014620,107.4427490,-62.2900772,-250.1374054
8830,-9.3540983,-4.1539187,4.7979555,107.0916061,-59.5801544,-250.1374054
8840,-11.2024126,-4.0605454,4.3430595,103.3129807,-60.6335869,-250.1374054
8850,-12.7394819,-4.1251884,3.8354914,100.6870193,-64.7786255,-250.1374054
8860,-14.0036144,-4.2257442,3.1052637,96.6106873,-69.8091583,-250.1374054
8870,-15.2485924,-4.4651632,2.2864509,89.6564865,-72.0000000,-234.0686951
8880,-16.7282009,-4.3741841,1.4508789,78.8625946,-76.2290039,-198.5190887
8890,-17.6763000,-4.7069764,1.0654143,64.2366409,-82.9083939,-160.8244324
8900,-18.4352589,-5.7939386,0.6057299,48.7633591,-85.4198456,-121.8549652
8910,-19.0745068,-6.7587967,0.2154770,29.5038166,-87.7175598,-80.9618301
8920,-19.5509510,-7.8457589,0.6200951,7.1908398,-84.9083939,-37.6106873
8930,-19.6131992,-9.0452480,1.6472024,-14.3740454,-66.4961853,14.7862597
8940,-19.6131992,-10.5416164,3.0525916,-31.2061062,-27.0916023,79.0534363
8950,-19.6131992,-11.8632088,3.8474624,-43.0610695,19.6412220,151.0152740
8960,-19.5916519,-13.4385853,4.1634955,-51.5190849,61.5877876,228.0458069
8970,-18.6459484,-15.2007084,4.3167233,-56.8244286,89.7709961,250.1297760
8980,-17.1926746,-16.9412842,4.4484038,-58.0228996,107.0763321,250.1297760
8990,-14.8607340,-18.9332504,4.2305326,-56.5572510,123.3587799,250.1297760
9000,-11.7243462,-19.6131992,4.2448978,-53.5038185,139.7557220,250.1297760
9010,-8.8106174,-19.6131992,3.7564833,-48.5954208,155.4809113,250.1297760
9020,-6.3086891,-19.6131992,2.7581062,-44.5725174,169.7633514,250.1297760
9030,-5.2408805,-19.6131992,0.7254394,-52.0000000,181.4045868,250.1297760
9040,-3.7062054,-19.6131992,-0.5051740,-85.3435135,184.0839691,250.1297760
9050,1.2473727,-19.6131992,1.1994889,-129.6488495,189.4198456,250.1297760
9060,18.7848110,-19.6131992,2.2481439,-182.6106873,250.1297760,250.1297760
9070,19.6126022,-19.6131992,1.4676381,-250.1374054,250.1297760,250.1297760
9080,19.6126022,-19.6131992,11.8225079,-250.1374054,250.1297760,250.1297760
9090,19.6126022,-13.8647509,19.6126022,-250.1374054,250.1297760,250.1297760
9100,19.6126022,-4.5154414,19.6126022,-250.1374054,224.2137451,250.1297760
9110,19.6126022,0.7733232,19.6126022,-119.9847336,68.1145020,250.1297760
9120,19.6126022,4.3430595,19.6126022,76.9312973,-65.3206100,87.5038147
9130,19.6126022,6.7204900,19.6126022,168.4732819,-179.7404633,-1.9847329
9140,19.6126022,8.4371233,14.6955347,185.2290039,-216.7786255,-25.8854961
9150,19.6126022,10.0196829,9.0093346,164.8015289,-144.2137451,-4.1755724
9160,19.2109756,11.1688938,3.6559272,120.7862625,-15.0152674,30.2137413
9170,17.7840385,12.1457233,-0.2082945,64.8473282,84.6488571,50.8320618
9180,16.1919041,12.1816359,-1.4269369,12.5954199,121.4961853,57.9771004
9190,15.3635139,11.1593170,0.2011119,-19.2671757,113.7862625,52.4656487
9200,14.7386303,10.3069859,2.3079987,-26.9923668,80.6564865,35.0916023
9210,13.3835192,9.1817169,3.8211265,-19.2213745,38.3511467,14.2977095
9220,8.1354561,5.8681583,3.8953462,18.0229015,-23.0534344,-9.0610685
9230,7.0149751,5.1235652,3.0669568,20.7328243,-18.9083977,-2.8549619
9240,6.5217719,4.5872669,2.4396791,17.2366409,-4.7557254,6.9007635
9250,6.3230543,4.2257442,1.9057748,7.7099237,14.2900763,17.2290077
9260,6.3829093,3.5026991,2.3127871,-17.3511448,34.1450386,27.9312973
9270,6.6702118,3.2225790,3.1770895,-27.8473282,32.1374054,30.4809170
9280,7.0700417,2.9616125,4.4484038,-30.2671757,27.1908398,30.8702297
9290,7.5201492,2.8706331,5.1906028,-27.9465656,21.5267181,30.5877857
9300,7.8481531,2.8706331,5.7604198,-23.3893127,17.8549614,31.9465656
9310,8.2479830,2.8538737,6.0596933,-18.4732819,16.0687027,34.3893127
9320,9.0524302,2.8993635,6.1961622,-14.8854961,21.1755733,38.0152664
9330,10.0388365,2.9879484,6.1913738,-14.8396950,37.8167953,41.6183205
9340,10.7044210,3.1627243,6.0525107,-19.1145039,62.0152664,47.2442741
9350,12.0212250,3.6128318,5.9758968,-25.9389305,85.6412201,53.3282433
9360,13.6301203,3.9240766,6.1051831,-33.1145020,106.5572510,54.7633591
9370,15.3060532,4.3478479,6.3469963,-40.1374054,119.1679382,49.1221390
9380,17.2788658,4.5226240,7.0101867,-45.2290077,117.3129807,33.6412201
9390,19.6060181,4.7428894,8.2479830,-46.1603050,98.3587799,5.9160304
9400,19.6126022,4.8745699,9.5240860,-40.2519073,70.7709961,-32.4961815
9410,19.6126022,4.5082588,10.7379398,-28.7022896,38.1755714,-77.3358765
9420,19.6126022,3.9097114,11.6142130,-14.0152674,9.4122133,-124.4351120
9430,19.6126022,3.3327117,12.1816359,0.3511450,-13.2061071,-175.1755676
9440,19.6126022,2.5833304,12.3971128,11.5343513,-31.0763359,-225.2519073
9450,19.6126022,1.7286048,12.5551291,19.9618320,-49.2519073,-250.1374054
9460,19.6126022,0.8595140,12.7466650,28.4122143,-57.0763359,-250.1374054
9470,18.0114880,0.0167593,12.8017311,38.1984749,-58.4885483,-250.1374054
9480,16.6851063,-0.8762733,12.7490587,49.2366409,-58.1450386,-250.1374054
9490,14.7625723,-1.7309990,12.6293497,60.7938919,-58.5572510,-250.1374054
9500,13.0842457,-2.4875629,12.4737272,74.4351120,-59.8931313,-250.1374054
9510,11.7818060,-3.3087699,12.2510672,89.5267181,-56.8320618,-250.1374054
9520,10.7355452,-4.1204000,11.4992924,102.8015289,-48.3740463,-250.1374054
9530,9.0380650,-4.8793583,10.4985209,115.9694672,-36.1297722,-250.1374054
9540,6.4403696,-5.5712790,9.3636751,123.5419846,-25.9847336,-250.1374054
9550,3.5793133,-5.9112539,8.3988171,128.5114441,-22.4732819,-250.1374054
9560,1.0773853,-5.7292953,7.6709828,132.3740387,-24.6717548,-250.1374054
9570,-1.1013272,-5.3007355,7.1586266,136.2213745,-30.5343513,-250.1374054
9580,-2.8730273,-4.7452836,6.6271162,139.2213745,-39.3358765,-250.1374054
9590,-4.5393834,-4.2425036,6.2823529,141.0763397,-47.0305328,-250.1374054
9600,-5.9998388,-3.7229645,5.9926562,142.4580078,-53.0916023,-250.1374054
9610,-6.9982157,-3.1794837,5.7029591,144.2977142,-58.9694672,-250.1374054
9620,-7.7619624,-2.9640064,5.4946647,145.6030579,-60.5877876,-250.1374054
9630,-8.5017672,-2.7054341,5.1235652,146.5343475,-56.8931313,-250.1374054
9640,-9.4498653,-2.7796540,4.8506279,147.8702240,-53.8396950,-250.1374054
9650,-10.6613255,-2.9783716,4.3670015,148.5267181,-55.4885483,-250.1374054
9660,-11.9541883,-3.0693510,3.8163381,147.7480927,-59.1679382,-250.1374054
9670,-13.3667593,-3.0478032,2.8490853,144.1603088,-64.2748108,-250.1374054
9680,-14.4609041,-2.8419030,2.0853391,136.1450348,-72.4656525,-231.6717529
9690,-15.0115681,-2.5713594,1.3694763,123.4503784,-80.5267181,-198.9389343
9700,-15.1528254,-2.2625091,0.9983770,107.1679382,-81.9694672,-165.4503784
9710,-15.4401274,-2.1667414,0.7709290,89.1908417,-72.3816757,-131.1984711
9720,-15.8471403,-2.1978660,0.1963235,67.6412201,-54.8015251,-93.7099228
9730,-16.3547077,-2.3463056,-0.1316804,43.7862587,-35.6030540,-51.9312973
9740,-16.8239689,-2.5569944,-0.0287303,21.2519093,-18.7938938,-6.3206105
9750,-16.7760849,-2.8059900,0.3830703,2.2671757,-5.7404580,42.7022896
9760,-16.2733059,-3.1770895,0.7517755,-13.4274807,5.3053436,91.1526718
9770,-15.4281569,-3.7205703,1.1061156,-27.0000000,19.1832066,140.0610657
9780,-14.4561157,-4.4843168,1.4867916,-37.8320618,35.2137413,186.7633514
9790,-13.4194317,-5.2887645,1.6735384,-45.7251892,46.4885483,232.4503784
9800,-12.3635941,-6.5624733,1.7669119,-50.2442741,51.0076332,250.1297760
9810,-11.4897156,-7.8529415,1.6448082,-52.6946564,50.2671738,250.1297760
9820,-10.8839855,-9.2750902,1.1635761,-55.6564903,46.0458031,250.1297760
9830,-10.3405046,-11.1257982,1.0199248,-61.1984749,43.4885483,250.1297760
9840,-9.3804340,-13.2973280,1.3096216,-67.6717529,44.4885483,250.1297760
9850,-8.1091194,-15.7010946,1.6376256,-78.9389343,56.4503822,250.1297760
9860,-6.6103573,-19.6131992,2.3271523,-97.0992355,86.8015289,250.1297760
9870,-2.7940190,-19.6131992,2.9783716,-125.7328262,129.2900696,250.1297760
9880,6.9144192,-19.6131992,4.1371593,-156.7862549,182.5648804,250.1297760
9890,19.6126022,-19.6131992,4.8386569,-199.1526642,250.1297760,250.1297760
9900,19.6126022,-19.6131992,6.7803445,-250.1374054,250.1297760,250.1297760
9910,19.6126022,-19.6131992,11.2191715,-250.1374054,250.1297760,250.1297760
9920,19.6126022,-15.4999828,19.6126022,-250.1374054,250.1297760,250.1297760
9930,19.6126022,-9.4139528,19.6126022,-250.1374054,163.1145020,250.1297760
9940,19.6126022,-4.8841467,19.6126022,-93.4809189,-25.8473282,250.1297760
9950,19.6126022,-1.2569494,19.6126022,77.8091583,-182.8320618,213.2748108
9960,19.6126022,1.9273225,19.6126022,196.2748108,-250.1374054,175.2977142
9970,19.6126022,4.8290801,10.1896706,245.0915985,-250.1374054,162.4122162
9980,19.6126022,7.0724359,0.5123565,230.9618378,-190.2671814,165.3969421
9990,19.6126022,9.3421268,-7.3764977,163.4274750,-78.4045792,172.0839691
