timestamp,acclX,acclY,acclZ,gyroX,gyroY,gyroZ
0,4.0006905,0.5219333,13.1967726,60.8167953,-35.8015251,76.8625946
10,3.4500270,0.2873027,13.4577389,68.7022934,-47.9160309,75.0076370
20,3.0956869,0.1532281,13.6947641,78.1068726,-56.5496178,76.6641235
30,2.8251436,-0.0047884,13.9437590,88.4809189,-60.2824440,80.2519073
40,2.9304879,-0.0191535,14.0802279,97.9083939,-63.2366409,85.3893127
50,3.2608860,-0.0933734,14.6308918,101.8167953,-71.0763321,90.2137375
60,4.0270267,0.1604107,15.6603928,111.5801544,-87.6106873,93.7862625
70,6.2967181,0.1340746,17.1136665,123.8931274,-107.0763321,93.9542007
80,10.4697905,0.0790083,18.7919922,142.3129730,-119.8320618,81.6946564
90,14.2286682,0.0861908,19.6126022,167.6870270,-117.4274826,56.1526718
100,17.0155048,-0.6272776,19.6126022,199.8702240,-107.0916061,20.3969460
110,18.9188843,-1.6831152,19.6126022,237.7862549,-91.4351120,-17.8167934
120,19.6126022,-2.9041519,19.6126022,250.1297760,-73.5877838,-52.5114517
130,19.6126022,-4.2281384,19.6126022,250.1297760,-49.4809151,-81.7786255
140,19.6126022,-5.5760674,16.6204624,250.1297760,-15.0610685,-102.5954208
150,19.6126022,-6.3374195,12.6580801,250.1297760,21.0458012,-117.0229034
160,19.6126022,-6.5744443,8.2000990,250.1297760,53.8549614,-127.5038147
170,19.6126022,-5.9543490,4.5776901,250.1297760,71.8320618,-140.3969421
180,19.6126022,-4.4436154,1.6400198,250.1297760,74.2900772,-163.4656525
190,19.6126022,-3.1387823,-0.3256098,250.1297760,58.9389305,-201.7633514
200,19.6126022,-2.7820482,-0.8547257,250.1297760,30.3206100,-246.7633514
210,19.6126022,-3.1938488,-1.0845678,250.1297760,-8.9160309,-250.1374054
220,16.9388905,-4.1084290,-1.4317253,250.1297760,-40.0916023,-250.1374054
230,13.1752243,-4.3358769,-1.8100072,250.1297760,-70.6641235,-250.1374054
240,10.5847120,-3.9336534,-2.2768741,242.7557220,-95.5267181,-250.1374054
250,9.2511482,-3.3063757,-2.5234756,221.6106873,-110.7022934,-250.1374054
260,8.0995426,-2.6695213,-2.9616125,200.3587799,-114.2061081,-250.1374054
270,7.5464849,-1.8842272,-3.2632802,178.7328186,-112.5954208,-250.1374054
280,7.5584559,-1.0749911,-3.5912843,156.1297760,-114.9847336,-238.4427490
290,7.8649125,-0.3830703,-3.6870518,135.4198456,-119.4045792,-229.2824402
300,7.4698710,-0.0143651,-3.7828193,116.6259537,-128.2213745,-221.7251892
310,6.7923155,0.0790083,-3.8307030,98.9083939,-143.5648804,-213.6793823
320,6.1482787,0.1221037,-3.5769191,85.2290039,-166.2290039,-204.8091583
330,5.6862001,0.1292862,-3.3997490,71.2977066,-193.2061005,-195.5877838
340,5.5090299,0.1364688,-3.0262554,58.6946564,-218.8396912,-187.5419922
350,5.0900469,0.0718257,-2.8849983,45.3206100,-238.3511505,-180.3206177
360,4.6303625,-0.2226596,-2.8778157,29.0763359,-250.1374054,-172.8854980
370,3.7349355,-0.3902529,-3.1411765,9.4045801,-250.1374054,-164.0000000
380,2.6096666,-0.6057299,-3.3327117,-16.5419846,-245.9007568,-153.3053436
390,1.3886299,-0.6799498,-3.3231349,-46.9541969,-232.9847260,-139.9694672
400,0.2178712,-0.8571198,-2.4827745,-79.5496216,-216.7557220,-125.2137375
410,-0.6464311,-1.0462608,-1.2138541,-107.1679382,-197.0458069,-110.8549652
420,-2.2194135,-1.4460905,-0.0814024,-130.1755676,-169.4885559,-95.0000000
430,-4.3454537,-1.8531027,0.9624642,-150.2137451,-142.7251892,-74.5190811
440,-6.3015065,-1.7357874,2.4133430,-162.2977142,-122.4656525,-47.2366409
450,-7.4315639,-1.3048333,3.9049230,-162.2595367,-108.8244247,-16.8015270
460,-8.1378498,-0.9504932,4.6782460,-153.1068726,-106.7099228,12.0916033
470,-8.4897957,-0.4932030,4.9847026,-142.0458069,-119.8778610,39.8320618
480,-8.1546097,-0.0861908,4.9847026,-133.7328186,-134.5725250,66.0687027
490,-7.4291697,-0.0335187,5.1666608,-127.8091583,-141.2671814,89.0152664
500,-6.5816269,-0.0790083,5.6047974,-124.9770966,-144.6793823,109.4580154
510,-5.5545197,0.8954269,5.8944945,-123.8702316,-139.0458069,128.8549652
520,-3.5553713,1.5921360,6.1123657,-127.6564865,-124.4656525,140.3587799
530,-2.0733681,2.3582766,6.0884237,-137.0915985,-100.1984711,142.9465637
540,-0.7206510,2.6503677,6.0309634,-154.3816833,-71.4580154,140.4961853
550,-0.1891410,2.6575503,6.7013364,-175.9007568,-45.1145020,133.1450348
560,-0.3998296,2.4109488,8.7603388,-193.1755676,-32.1221390,125.7786255
570,-0.0167593,2.2050486,10.9582052,-200.0610657,-25.0992374,119.3511429
580,-0.5578461,2.4444675,13.3284531,-194.5572510,-20.2290077,112.6870193
590,-1.3766589,2.8227494,14.8846760,-177.0686951,-23.0229015,109.5572510
600,-1.1659702,3.6966286,15.2054968,-155.6870270,-28.3816795,107.1832047
610,-0.8068419,4.7165532,14.3220415,-141.9160309,-27.9465656,101.2366409
620,-1.0869620,5.7053533,13.2685976,-137.3435059,-14.9312973,94.1221390
630,-2.0374553,6.2919297,12.4952745,-140.0915985,5.4045801,86.6259537
640,-3.4428444,6.6606350,12.0403786,-147.5419922,28.4961834,84.4656525
650,-5.2025738,6.8282285,12.4809093,-153.5648804,45.2366409,89.0457993
660,-6.6127515,6.6462698,13.4314032,-153.6488495,51.7175560,100.2061081
670,-7.6254935,6.2416520,14.7170830,-145.2137451,43.6106873,119.0687027
680,-7.3645267,5.8513989,15.7082767,-128.7480927,27.2366409,141.1297760
690,-6.1291251,5.5305777,16.0602226,-109.7633591,8.5725193,162.2977142
700,-4.5465660,5.3103123,16.0290985,-94.3358765,-7.4732823,179.2366486
710,-2.8179610,5.1355362,16.0578289,-84.1221390,-18.0305347,191.7862549
720,-1.2018831,4.9296360,16.3331604,-77.1221390,-20.0763359,200.0839691
730,-0.0071826,4.7404952,16.7928448,-71.0610657,-13.9312973,205.7175598
740,0.8786675,4.5992379,17.0202923,-65.2213745,-3.2290077,209.5267181
750,1.2761030,4.3909435,16.9676208,-59.5725174,9.3587790,213.1221313
760,1.5250987,4.3382711,16.5031471,-55.9160309,21.9083977,216.0610657
770,1.9153515,4.6447277,15.4760408,-57.8473282,33.0305328,218.1832123
780,2.2313845,4.8913293,14.8080616,-66.0076370,36.2900772,217.2366486
790,2.5522060,4.6614871,14.7314482,-76.6870193,30.2748089,217.3511505
800,3.6271970,4.1275826,15.1576138,-85.5343475,10.3587790,216.7709961
810,5.7604198,3.3614421,17.0753593,-86.9312973,-9.0687027,212.3816833
820,8.2336178,2.7652888,19.6126022,-74.1145020,-21.0763359,201.2671814
830,9.7658987,2.6790979,19.6126022,-41.1755714,-19.8015270,182.2137451
840,11.0108776,1.8578910,19.6126022,3.3664122,-4.2748094,162.7557220
850,11.2072010,1.2832855,19.6126022,48.1603050,23.9083977,145.8167877
860,10.7259684,0.4716553,19.6126022,90.8320618,49.5572510,133.6488495
870,10.1178446,-0.4716553,19.6126022,130.2671814,63.4045792,129.2213745
880,10.5080976,-1.5083394,19.6126022,164.3435059,73.6793900,133.4122162
890,11.5375986,-2.2816625,18.4879303,188.3282471,80.1755753,140.8473358
900,13.2997227,-2.5210814,16.7856617,203.2595367,79.6259537,147.6335907
910,16.2206345,-2.2265961,16.4552650,217.7557220,79.5190811,146.5038147
920,19.4096947,-2.0159075,16.4073811,235.1908417,82.7938919,133.3435059
930,19.6126022,-1.7429699,16.2349987,250.1297760,80.0229034,107.2748108
940,19.6126022,-1.4365137,15.0786057,250.1297760,75.7099228,70.1297684
950,19.6126022,-1.2617378,13.4888630,250.1297760,59.0916023,26.5725193
960,19.6126022,-1.1348459,11.5878773,250.1297760,33.5572510,-18.1450386
970,19.6126022,-1.4317253,9.3780403,250.1297760,7.0534353,-59.6641235
980,19.6126022,-1.5322813,6.9646969,250.1297760,-19.4580154,-91.3893127
990,19.6126022,-1.3503228,4.5705075,250.1297760,-42.2900772,-116.9847336
1000,18.4807491,-1.0965388,2.3223639,250.1297760,-54.7480927,-138.6564941
1010,17.0705700,-0.8236012,0.4357425,250.1297760,-56.4274826,-157.0534363
1020,15.6196918,-0.6392486,-1.3479286,250.1297760,-50.2824440,-171.7022858
1030,13.9078465,-0.5267217,-2.8442972,250.1297760,-42.7175560,-183.3587799
1040,12.2438850,-0.3615226,-4.0102673,236.0458069,-37.4503822,-189.7938995
1050,10.8097658,-0.2466015,-4.5705075,204.4580078,-39.7480927,-192.0610657
1060,9.5097208,-0.0981618,-4.4172797,174.4427490,-48.9923668,-191.0534363
1070,8.4682484,0.1484398,-4.1108232,149.6335907,-60.3816795,-188.9770966
1080,7.5752153,0.2849085,-3.5290353,128.5801544,-74.3664093,-186.4045868
1090,6.8090749,0.3567342,-3.0549858,110.2824402,-90.7862625,-183.9465637
1100,6.0596933,0.2370248,-2.2960277,96.1374054,-108.3053436,-180.2748108
1110,5.6119800,0.4261657,-1.5131277,84.3893127,-127.9618301,-175.1374054
1120,5.1977854,0.3423691,-0.7421987,77.0000000,-148.3664093,-168.5877838
1130,4.8386569,0.4979914,-0.2825144,71.3435135,-165.2290039,-163.1297760
1140,4.3310885,0.6775556,-0.1939293,64.3587799,-176.7709961,-159.0915985
1150,3.5505829,0.9864060,-0.2705434,56.4122124,-183.3740387,-154.9007568
1160,2.7413468,1.0366840,-0.4022238,46.1450386,-187.5725250,-148.2900696
1170,2.3510940,1.0582317,-0.4908088,33.2900772,-193.0458069,-140.1908417
1180,2.2289903,1.1180865,-0.5410868,19.0305347,-195.3664093,-132.7328186
1190,2.0398495,1.2066715,-0.5482694,1.8473282,-193.5343475,-127.4732819
1200,1.3072275,0.8930327,-0.5123565,-16.6183205,-189.0000000,-122.5114517
1210,0.2346306,0.6057299,-0.3208214,-36.0228996,-183.5725250,-113.5725174
1220,-1.3311694,0.2920911,-0.1244979,-55.4885483,-177.0610657,-99.1984711
1230,-2.6623387,0.5602403,0.0454896,-73.5572510,-171.9313049,-82.6412201
1240,-3.6415622,0.7733232,0.1556223,-91.9618301,-171.1068726,-67.8091583
1250,-4.9344244,0.8092360,0.8499373,-108.3282471,-179.0915985,-50.5267181
1260,-5.9495606,0.3567342,1.3575054,-120.7709961,-192.3664093,-28.7480907
1270,-6.3517847,-0.2801202,1.6543850,-131.8778687,-203.9389343,-3.0229008
1280,-6.3493905,-0.8259954,2.0637913,-142.1984711,-211.4351196,25.0381680
1290,-6.2416520,-1.0247130,2.7413468,-152.1374054,-211.0534363,53.7633591
1300,-6.1051831,-0.6440369,3.7612717,-159.5572510,-204.7404633,81.4732819
1310,-5.7173243,-0.2346306,4.3119354,-165.4274750,-190.1221313,106.9160309
1320,-4.7548604,-0.0526722,4.6040263,-173.6335907,-167.7404633,126.9236679
1330,-4.1946201,-0.1077385,4.6040263,-188.8320618,-131.7938995,144.3587799
1340,-4.1587071,-0.4070122,4.3502421,-215.0534363,-83.0381699,162.7099304
1350,-3.9623835,-0.9361281,4.8602047,-249.1145020,-27.6030540,180.4580078
1360,-3.9623835,-1.2952565,6.3206601,-250.1374054,15.9694653,195.5648804
1370,-4.0102673,-1.5777708,8.0636301,-250.1374054,38.6870232,208.2519073
1380,-4.3646073,-1.9488702,11.0396080,-250.1374054,35.7557259,221.8931274
1390,-4.1970143,-1.3455344,14.2166967,-250.1374054,7.7251906,235.0381622
1400,-3.2225790,-0.4692611,16.2086620,-250.1374054,-36.8549614,245.5496216
1410,-1.5753766,0.4141948,16.9005833,-218.2137451,-75.7251892,250.1297760
1420,0.4620786,1.1707586,16.7138367,-192.3740387,-94.1755753,250.1297760
1430,2.3295465,1.8842272,16.4408989,-182.3358765,-87.0457993,249.0915985
1440,3.3351059,2.2289903,17.3171730,-183.9313049,-63.1832047,240.0076294
1450,3.6128318,2.1188576,19.3378677,-187.0305328,-32.2290077,228.6106873
1460,3.1914546,1.6615674,19.6126022,-180.5648804,-7.1145039,217.6488495
1470,2.4037662,0.8643024,19.6126022,-155.5648804,9.6488552,210.1908417
1480,1.6112895,0.4285599,19.6126022,-113.7557220,19.3129768,208.8091583
1490,1.2569494,0.1867468,19.6126022,-63.1145020,29.5267181,213.0610657
1500,1.2569494,-0.0526722,19.6126022,-18.1603050,43.2900772,220.7175598
1510,1.6304430,-0.2059003,19.6126022,13.6030531,54.0992355,230.1221313
1520,2.6407909,-0.2394189,19.6126022,35.5496178,64.0152664,238.7862549
1530,4.0509686,-0.1795642,19.6126022,54.0381660,73.7709961,243.0000000
1540,5.3151007,-0.1221037,19.6126022,70.2824402,78.5038147,240.6870270
1550,6.0333576,-0.5099624,18.9787407,84.9618301,74.4427490,236.6259613
1560,6.5002246,-0.9145803,17.8151646,99.8854980,61.2671738,232.1526642
1570,7.2998838,-1.2401901,16.6683464,110.6335907,43.7099228,227.6793823
1580,8.3796635,-1.5298871,15.9381189,120.3969498,26.0076332,223.4656525
1590,9.9310980,-1.6783268,15.8686876,130.2213745,11.7633591,218.9541931
1600,12.1289635,-1.4867916,15.8830528,141.2748108,4.8931298,211.6030579
1610,14.2190914,-1.0103480,15.8591108,152.8854980,9.2748089,198.2442780
1620,15.8734760,-0.5267217,15.6364517,162.9618378,20.9312973,179.4045868
1630,16.8048153,-0.2202654,15.0019913,170.2671814,37.4732819,156.7175598
1640,17.0945129,-0.1819584,14.4369621,175.5725250,51.5419846,133.6259613
1650,16.6970768,-0.2537841,13.8479919,182.6564941,57.6870232,111.5725174
1660,15.9476957,-0.3806761,13.2949343,192.1755676,51.9541969,92.7022934
1670,15.5023766,-0.4022238,12.2630386,199.9847260,33.2137413,77.7404556
1680,15.8495340,-0.4764437,11.2886028,204.1679382,11.7938929,61.5038185
1690,16.2756996,-0.4572902,11.1234045,208.0915985,-8.3740454,42.6259537
1700,16.6898956,-0.4094064,10.9917240,214.6717529,-25.5343513,21.6641216
1710,17.1950684,-0.2729376,10.5895004,223.1984711,-33.7480927,-0.0610687
1720,17.4225159,-0.1867468,9.6797075,228.5572510,-31.8854961,-21.7251911
1730,17.3387203,-0.0981618,8.4993725,229.0000000,-20.5725193,-42.2977104
1740,16.7329903,-0.1532281,7.2615767,225.4732819,-7.6564884,-61.2061081
1750,15.8686876,-0.3208214,6.1626434,218.2671814,3.5801528,-77.6641235
1760,14.7625723,-0.4046180,4.8434453,209.2366486,8.6335878,-89.4732819
1770,14.0754395,-0.5003856,3.9743545,199.7786255,6.7862597,-98.6717529
1780,13.3715477,-0.3471575,3.1818779,190.5190887,-0.3053435,-105.4961853
1790,13.0722742,-0.2633608,2.6719155,181.8931274,-14.0839691,-110.5343475
1800,13.3140879,0.0335187,2.1499822,175.6259613,-32.2290077,-115.7938919
1810,13.7091284,0.3687052,1.6400198,170.7480927,-55.4656487,-123.4732819
1820,14.0491037,0.5793939,0.9361281,165.6946564,-80.5038147,-132.8473358
1830,14.1185350,0.4070122,0.2537841,158.3129730,-106.9847336,-142.2977142
1840,14.2789459,0.2681492,-0.3615226,150.8931274,-134.1297760,-150.0915985
1850,14.2933111,0.4692611,-0.9888002,140.7557220,-156.1526642,-155.3664093
1860,14.6332855,0.6823440,-1.9728121,125.0763321,-169.2595367,-165.3893127
1870,14.2669754,0.4572902,-2.8993635,103.1450348,-171.6106873,-180.4198456
1880,13.0531206,0.2106887,-3.7038112,75.1984711,-167.7938995,-195.4351196
1890,11.0204544,-0.5554519,-3.9839313,42.1450386,-163.7251892,-206.0610657
1900,8.6286592,-1.6328372,-3.4093258,10.4809160,-162.9465637,-211.3282471
1910,6.1003947,-2.6383967,-2.3463056,-15.3053436,-166.9847260,-211.3816833
1920,2.9520357,-3.2704628,-0.6751614,-29.2061062,-173.7709961,-202.9618378
1930,-0.4620786,-3.1124463,0.8834559,-34.5267181,-192.6946564,-182.5190887
1940,-3.1531475,-2.7916248,1.4389079,-36.7709923,-223.1603088,-152.6793823
1950,-4.3215117,-2.6527619,1.5131277,-42.4122124,-250.1374054,-118.9694672
1960,-4.2281384,-2.2912393,1.3742647,-51.6106873,-250.1374054,-83.9618301
1970,-3.4979107,-1.4867916,1.1731528,-64.9542007,-250.1374054,-50.6793900
1980,-2.5953014,-0.6871324,0.6153067,-83.8625946,-250.1374054,-24.6793900
1990,-2.2265961,-0.4501076,0.3950413,-110.6946564,-228.7480927,-3.9007633
2000,-2.2218077,-0.3734936,0.9624642,-137.8167877,-196.4503784,14.2977095
2010,-2.0230901,-0.2059003,1.9249283,-160.1526642,-169.0458069,28.7022896
2020,-2.0350611,-0.0215477,2.7054341,-177.1145020,-147.3511505,39.6946564
2030,-1.9345051,0.0550664,3.4380560,-190.9465637,-133.2519073,47.1908379
2040,-2.3558824,0.2849085,4.5010762,-200.0229034,-126.1068726,54.1068687
2050,-2.8419030,0.1532281,5.9280128,-202.3358765,-124.5877838,61.8015251
2060,-3.4835455,0.1747758,6.9766679,-199.3358765,-125.2824402,72.8015289
2070,-3.6176202,0.2753318,7.6542239,-196.1297760,-127.2671738,84.6641235
2080,-3.6894460,0.1628049,7.9391322,-195.0152740,-125.1908417,94.1145020
2090,-3.8259149,0.0143651,8.5520449,-196.0610657,-122.8549652,107.4656525
2100,-3.6726866,0.0311245,9.2200232,-197.5725250,-115.4427490,121.0839691
2110,-3.2728570,0.1436514,10.5559816,-198.2748108,-102.8473282,136.3740387
2120,-2.8658447,0.5865764,12.4114780,-194.2977142,-84.3587799,149.3664093
2130,-2.5234756,0.9624642,14.0036144,-184.3969421,-62.4427490,161.9389343
2140,-2.1715298,1.0965388,15.2964764,-170.9923706,-42.6412201,174.1679382
2150,-1.3096216,1.0558375,16.5031471,-154.8625946,-22.5496178,185.6412201
2160,-0.2585725,1.0342898,17.6810894,-136.2671814,-0.9236641,193.8778687
2170,0.8738791,1.0079538,18.1599274,-116.5114517,22.4045811,199.0152740
2180,1.6280488,1.0917504,18.4472294,-96.8167953,41.1526718,201.3587799
2190,1.6448082,1.4532729,18.3562508,-77.1374054,46.9923668,203.2595367
2200,2.1811066,1.8650736,18.2221756,-58.9389305,40.6717567,206.5496216
2210,3.3686244,2.2218077,17.7984047,-44.2824440,33.8320618,207.5801544
2220,4.6255741,2.3510940,17.7672806,-34.8473282,29.3053436,205.6793823
2230,5.6143742,2.0111191,18.2580891,-25.4045811,25.4732819,202.1145020
2240,6.6797886,1.4987626,19.1104202,-12.3206110,23.5954189,198.5725250
2250,7.6111283,1.0558375,19.6126022,4.8702292,23.5190830,196.9389343
2260,8.6597834,0.7637464,19.6126022,26.9465656,28.5954189,198.4351196
2270,10.1585455,0.9576758,19.6126022,51.5190849,39.8702278,197.6793823
2280,11.4992924,0.9337339,19.6126022,73.6946564,53.5038185,192.9618378
2290,12.5790710,0.8331779,19.4934902,93.0457993,65.3893127,186.5725250
2300,13.5726604,0.6129125,18.5693340,110.4198456,76.0000000,179.8167877
2310,14.4561157,0.4716553,17.3650570,125.4580154,79.3129807,170.9389343
2320,15.3539371,0.6751614,16.2349987,137.3664093,74.3816757,158.9770966
2330,16.0889530,0.6296718,15.4592810,147.8320618,64.7251892,144.0152740
2340,16.8191814,0.5769997,14.6093445,158.2900696,55.4732819,127.4427490
2350,17.2429523,0.6727672,13.6947641,166.3969421,47.1068687,109.9236679
2360,17.6260223,0.6224893,12.8232784,172.1679382,39.3206100,93.4274826
2370,17.8367119,0.6153067,12.4114780,177.2290039,32.4045792,75.4809189
2380,18.1599274,0.8044477,12.3228931,184.1221313,27.4045811,58.6183205
2390,18.3897686,0.8068419,12.5527353,196.5343475,20.3129768,40.2900772
2400,19.0792961,1.0965388,11.9517937,209.9923706,14.3893127,19.4580154
2410,19.4623661,1.0821736,10.7475166,218.9084015,11.7175570,-4.4885497
2420,19.3785686,0.9313397,9.5623922,222.7862549,9.8702288,-28.6717548
2430,19.0529594,0.1580165,8.4969788,223.5038147,6.6183205,-49.4351158
2440,18.4376526,-0.0646431,7.4028339,218.9923706,-0.8473282,-64.5572510
2450,18.7800217,-0.0143651,6.9239960,214.1374054,-7.5496182,-78.5572510
2460,19.2349186,0.1364688,6.7755561,212.5343475,-10.7328243,-95.3053436
2470,19.2468891,0.1412572,6.1626434,212.2213745,-11.9923668,-113.4885483
2480,19.0002880,0.2059003,5.3055239,210.4656525,-10.1221371,-131.5954132
2490,18.6315823,0.0287303,4.3263001,205.4122162,-3.6564887,-149.1221313
2500,17.6810894,-0.0885850,3.1938488,197.0610657,3.9389312,-164.7175598
2510,16.7353840,-0.2873027,2.2002602,186.1755676,11.8931293,-177.7099304
2520,15.7944679,-0.2873027,1.1635761,173.7862549,17.0687027,-188.0610657
2530,14.4992113,-0.3208214,0.3303981,160.5648804,17.6335869,-195.4809113
2540,13.3523941,-0.2513899,-0.2466015,147.5267181,14.0076332,-199.7938995
2550,12.0355902,-0.3399749,-0.7589580,134.5496216,3.4427481,-202.0381622
2560,11.0228481,-0.2082945,-0.9409165,123.4045792,-14.0152674,-202.6183167
2570,10.1489687,-0.0550664,-1.1132981,114.0916061,-34.5877876,-201.6106873
2580,9.2463598,-0.0215477,-1.4652439,105.0992355,-56.9389305,-198.1908417
2590,8.4945841,0.0909792,-2.0254843,95.1297684,-78.2442780,-193.1450348
2600,8.0157461,0.4692611,-2.7006457,80.9007645,-95.8854980,-188.5267181
2610,7.5800037,0.5243275,-3.0094962,62.4732819,-109.2213745,-184.4122162
2620,7.0389171,0.5243275,-2.7078283,42.8396950,-118.6870193,-180.3664093
2630,6.5696559,0.2322364,-2.2361729,24.9923668,-123.3053436,-176.2900696
2640,5.6862001,-0.0191535,-1.7908537,9.8549614,-125.0381699,-171.8320618
2650,4.6088147,-0.1699875,-1.4891858,-3.2900763,-128.0458069,-165.0686951
2660,3.3614421,-0.4596844,-1.2449785,-15.3358774,-131.7480927,-156.1679382
2670,2.0853391,-0.6775556,-0.9672526,-26.2061062,-135.6183167,-145.2366486
2680,0.7996593,-0.8690908,-0.6392486,-35.5114517,-139.9694672,-131.9618378
2690,-0.3303981,-1.0151364,-0.3663110,-43.3358765,-145.8854980,-116.4045792
2700,-1.3215926,-1.3048333,-0.0383070,-50.0381660,-151.5419922,-99.2748108
2710,-2.1356170,-1.4867916,0.4692611,-54.1984749,-157.5954132,-81.1068726
2720,-2.8107784,-1.3311694,1.1037214,-54.6870232,-164.3435059,-62.4122124
2730,-3.2560976,-1.1444225,1.4556671,-52.2900772,-171.7786255,-43.7938919
2740,-3.7780309,-0.9935886,1.4053892,-51.1297722,-176.7022858,-24.7251911
2750,-4.1132174,-0.8571198,1.1947005,-53.6412201,-178.2748108,-3.0839694
2760,-3.7828193,-0.2609667,1.1061156,-60.1374054,-175.3206177,17.3664131
2770,-3.4069316,0.1292862,1.0582317,-68.9618301,-167.8167877,35.2748108
2780,-3.0813217,0.1316804,1.1803354,-80.2290039,-156.3969421,50.7099228
2790,-2.6647329,0.2729376,1.3048333,-95.5877838,-137.3893127,64.6335907
2800,-2.4277081,0.1436514,2.0230901,-113.6641235,-115.9389343,77.3587799
2810,-2.5067163,0.3926471,3.0813217,-130.8320618,-96.2595444,89.4274826
2820,-2.7892308,0.8834559,4.5992379,-144.1374054,-78.4427490,102.2137375
2830,-2.4971397,1.4604555,6.0644817,-153.4732819,-66.2900772,113.8167953
2840,-1.9440818,1.8698620,7.5632443,-160.7557220,-59.1908379,121.9847336
2850,-1.1372399,2.2792683,9.1769285,-166.9847260,-55.1145020,125.8625946
2860,-0.1436514,2.5330524,11.0898857,-171.5648804,-54.7175560,126.0916061
2870,0.9241571,2.9807658,14.0562859,-168.5954132,-55.5038185,123.3358765
2880,1.1300575,3.4859397,17.1974621,-153.2748108,-59.9541969,118.2977066
2890,1.1180865,3.9935081,19.6126022,-126.2824402,-64.9083939,114.1603088
2900,1.7788827,5.0661049,19.6126022,-95.3206100,-48.5877876,113.9236679
2910,3.0573800,6.0022330,19.6126022,-71.8931274,8.9923668,115.1374054
2920,3.2082138,7.7404146,19.6126022,-63.5877876,77.1603088,117.8778610
2930,2.9376705,8.8249826,18.3370972,-63.6641235,128.3816833,119.8167953
2940,2.4588325,9.5264797,17.5039196,-63.1603050,150.0305328,119.6412201
2950,2.1858950,9.7036495,17.6786957,-54.6335869,137.9236603,117.6793900
2960,2.4684093,10.1322098,18.4496231,-34.8320618,98.4580154,112.5648880
2970,3.0166788,10.2902260,18.7967815,-7.6641221,59.0000000,105.3816757
2980,3.5984666,9.9861641,18.5334206,17.4198475,37.1068687,99.9007645
2990,4.0198441,9.5384512,18.2293587,34.8931313,37.6488533,99.7709961
3000,4.6519103,9.1553802,17.5709572,42.6793900,57.7557259,106.3664093
3010,4.9655490,8.7148495,17.5925045,49.2977104,82.1526718,116.3129807
3020,5.5640965,8.2120695,17.8414993,60.4809151,94.8549652,125.6030502
3030,7.0389171,8.0157461,17.8822002,78.7633591,97.7709961,131.4656525
3040,8.6813307,7.6470413,17.4153347,103.4961853,97.1145020,134.2442780
3050,9.9119444,7.7260494,15.8351688,121.6412201,94.9694672,134.2213745
3060,10.8672256,7.4698710,14.1376886,134.4427490,93.7251892,130.9541931
3070,11.4538021,7.9367380,12.2654324,140.0381622,90.9007645,127.1374054
3080,12.2702208,7.5584559,11.2526903,141.2290039,89.0992355,120.4427490
3090,13.2829628,7.3884687,11.1090393,139.0305328,91.7251892,112.4274826
3100,14.0275564,7.2831244,10.9151096,138.8015289,98.0534363,101.5725174
3110,14.5183649,7.0030041,10.7738523,140.1450348,102.0839691,89.3816757
3120,15.0426922,6.5720501,10.8217363,144.1068726,105.9542007,78.9312973
3130,15.5191364,6.0740585,10.9414454,150.9007568,105.8473282,67.0763321
3140,15.7346134,5.8442163,10.5487986,160.3587799,101.2595444,54.5496178
3150,16.1919041,5.2696109,10.3644457,173.2366486,92.4503784,42.5038185
3160,16.9604378,5.7053533,8.9327211,183.3664093,86.6793900,29.6564884
3170,17.6379929,5.6862001,7.6805596,189.3740387,82.0229034,13.4274807
3180,18.1742916,5.4348102,6.5648675,191.0763397,82.3435135,-4.9160304
3190,18.1431675,5.2360926,5.2217274,187.1374054,86.3129807,-23.1526718
3200,17.8750191,5.0996237,4.1227942,180.1832123,87.2137375,-39.3664131
3210,17.2501354,4.8769641,3.2345500,172.3129730,79.3129807,-53.7022896
3220,16.6276455,4.5465660,2.5115047,165.3435059,64.4122162,-65.6717529
3230,16.0434628,4.5202298,1.7956421,158.6183167,46.9160309,-76.5877838
3240,15.5478659,4.3861551,1.4077834,151.4809113,30.7480907,-87.4427490
3250,15.1336718,4.1084290,0.9241571,143.5954132,19.2824421,-98.5038147
3260,14.2334566,3.7876077,0.2896969,133.9313049,12.3358774,-109.2824402
3270,13.3619709,3.5529771,-0.3016679,122.0534363,8.0152674,-118.9770966
3280,12.2654324,3.2417326,-0.7876883,107.4274826,5.6564884,-126.5267181
3290,11.2095947,2.9233053,-1.1013272,91.9618301,1.0381680,-132.0763397
3300,10.0220766,2.7030399,-1.1587877,77.6717529,-10.0916033,-135.9236603
3310,8.8585014,2.4731977,-1.0366840,66.9236679,-26.5648861,-137.7862549
3320,7.8936424,2.2265961,-0.7757174,59.4503822,-47.8091621,-136.3816833
3330,7.2304521,2.0637913,-0.4716553,54.1526718,-70.6564865,-133.4809113
3340,6.5624733,2.0733681,-0.4046180,49.7938919,-92.8931274,-129.8015289
3350,6.0692701,1.9943599,-0.4237715,44.1145020,-113.4656525,-125.6183243
3360,5.5664907,1.9345051,-0.6512195,36.1374054,-128.7938995,-120.6488571
3370,5.2289100,1.9368993,-0.7182568,25.7404575,-138.1068726,-115.5954208
3380,4.7668314,1.8195840,-0.7038917,14.0381680,-143.5801544,-110.3129807
3390,4.2903876,1.6807210,-0.7302278,1.3129771,-147.3740387,-104.9618301
3400,3.7684543,1.5849534,-0.6823440,-11.4809160,-151.0915985,-99.5267181
3410,3.0980811,1.4484847,-0.6727672,-23.8320618,-155.7709961,-93.9847336
3420,2.3558824,1.2234308,-0.4955972,-36.1374054,-162.6564941,-87.5648880
3430,1.4580613,1.0725969,-0.2681492,-47.8625946,-170.1908417,-79.8320618
3440,0.5243275,0.9313397,-0.1101327,-58.8625946,-177.7557220,-70.7862625
3450,-0.4022238,0.8140244,0.0502780,-70.5114517,-186.0610657,-59.1297722
3460,-1.1827296,0.6631905,0.1173153,-82.9083939,-191.3435059,-44.8473282
3470,-1.6855093,0.6799498,0.5722113,-94.8625946,-193.7938995,-30.3129768
3480,-2.2265961,0.5793939,1.1563935,-106.2366409,-195.3587799,-14.6641226
3490,-2.6216373,0.5219333,1.5131277,-116.7099228,-195.8244324,0.8625954
3500,-3.0142846,0.4070122,2.0518203,-126.8320618,-195.0458069,18.6106873
3510,-3.0573800,0.5219333,2.4444675,-136.9007568,-193.2671814,37.3664131
3520,-2.7389526,0.6081241,2.8466914,-146.2900696,-189.5496216,55.9389305
3530,-2.0877333,0.9121862,3.5338237,-156.5648804,-185.0000000,71.2748108
3540,-1.2138541,1.0055596,4.1515245,-167.4580078,-176.4274750,83.1145020
3550,-0.3423691,1.4724265,5.2241216,-178.2442780,-159.4885559,93.3282471
3560,0.3974355,2.1116750,6.3805151,-186.2900696,-137.0534363,98.3587799
3570,1.0773853,2.6431851,7.4890246,-191.8625946,-112.3969498,100.6488571
3580,1.8124014,2.9185169,8.3700867,-195.7404633,-85.7862625,99.2977066
3590,1.9440818,3.1531475,8.9877872,-198.7022858,-62.2824440,94.6412201
3600,1.8171898,3.2273674,9.5695753,-200.5954132,-47.0992355,91.2671738
3610,1.3814473,3.2800395,10.1944590,-199.1908417,-39.3282433,87.0229034
3620,0.9600700,3.2489152,10.7834291,-194.9694672,-41.5496178,84.4580154
3630,0.7350162,3.4236910,11.3628235,-187.5801544,-49.3129768,84.0381699
3640,0.4453192,3.7708483,11.9254580,-177.6412201,-58.6793900,84.8015289
3650,0.3471575,4.1299767,12.5048513,-166.4045868,-61.2213745,87.8091583
3660,0.3423691,4.5082588,12.7777891,-157.3129730,-53.6412201,93.9465637
3670,0.5243275,4.8506279,13.0938225,-151.0229034,-38.5419846,99.1755753
3680,0.7469871,5.0517397,13.6947641,-144.8778687,-18.9465656,105.2748108
3690,1.1396341,5.1379304,14.3531656,-137.0458069,0.4580153,111.0534363
3700,1.2617378,5.0900469,15.0762110,-126.6641235,13.9847326,115.9160309
3710,1.4652439,4.9032998,15.7130651,-112.9542007,20.7709923,121.0000000
3720,1.6352314,4.6207857,16.0338860,-97.6564865,22.5954189,126.7633591
3730,1.9368993,4.3502421,16.3164005,-82.3816757,19.5038166,133.2366486
3740,2.5761478,4.0796990,16.6108856,-68.6183243,13.0992365,139.4198456
3750,3.6271970,3.9432299,17.3961811,-55.3893127,7.3129773,143.3893127
3760,4.6279683,3.9216824,18.2796364,-40.0458031,5.2213740,145.7251892
3770,5.5329719,3.6750808,18.9667683,-23.6259537,11.0305347,147.2061005
3780,6.4858594,3.5793133,19.3235035,-8.4503813,32.0610695,148.2595367
3790,7.2615767,3.4452386,19.5365868,5.0381680,65.8702316,149.5343475
3800,7.7212610,3.2082138,19.5030670,20.4274807,102.4045792,149.4045868
3810,7.8505473,3.0861101,19.0266228,38.6183205,125.7175598,146.7938995
3820,7.8936424,2.7413468,17.0705700,56.9541969,133.2671814,141.9541931
3830,7.6398587,2.7700772,15.4568872,69.0687027,131.9694672,134.7862549
3840,7.1921453,2.6695213,14.2837343,77.6564865,116.2595444,128.3893127
3850,7.1107426,2.2768741,13.8455973,84.6183243,94.8854980,123.4732819
3860,7.3525558,2.2864509,13.6396971,92.2824402,76.5725174,122.4580154
3870,7.8409705,2.4851687,13.6181498,100.4580154,69.1832047,124.5267181
3880,9.0045462,2.9161227,13.3092995,104.5648880,68.2977066,125.4580154
3890,10.3548698,3.0717452,13.3476067,106.8091583,75.8931274,121.6717529
3900,11.6812506,3.1770895,13.5654774,112.7404556,87.9007645,110.8702316
3910,12.2438850,2.9640064,13.3452120,120.3129807,98.7099228,96.9007645
3920,12.0786858,2.8658447,12.5287933,127.0839691,101.6793900,82.0152664
3930,11.4346485,2.5162930,11.8991213,132.5038147,94.6412201,68.7557220
3940,10.5990763,2.1236460,11.3077564,138.9160309,75.7480927,59.8244286
3950,9.9215212,1.7309990,11.0539722,145.8854980,53.4045792,56.2061081
3960,9.5743637,1.4843974,10.8935623,153.1984711,33.7175560,56.6564903
3970,10.0316534,1.2090657,10.7882175,159.3511505,25.3587780,59.7709923
3980,11.1234045,1.2713146,10.5368280,163.2213745,29.4885502,62.9236641
3990,12.4880924,1.3958124,10.0962973,164.9236603,41.0763359,62.2519073
4000,13.6468801,1.5107336,9.8353300,166.7404633,55.6488533,56.9389305
4010,14.5614605,1.5586174,9.1793222,169.6946564,64.9160309,48.2519073
4020,15.1983147,1.5873476,8.3293848,173.0686951,67.1221390,34.8167953
4030,15.4832230,1.6783268,7.4698710,176.3282471,64.1297684,19.8625946
4040,15.5311069,1.6950861,6.4643116,177.6641235,53.9160309,4.0534353
4050,15.7896795,1.8363433,5.2863703,175.9694672,38.7175560,-13.2671757
4060,15.8662939,2.0039365,4.2448978,170.6183167,23.7251911,-31.8091602
4070,15.4616756,2.1116750,3.4548154,162.6564941,9.9770994,-49.5190849
4080,14.9181948,2.3486998,2.8035958,153.2442780,-0.1984733,-66.3740463
4090,14.2430334,2.4708035,2.4492557,143.3129730,-9.2061071,-81.5267181
4100,13.5774488,2.4875629,2.0542145,133.0763397,-16.8015270,-95.7480927
4110,13.0938225,2.5306582,1.8315549,122.3893127,-25.2977104,-108.1450348
4120,12.9238348,2.5330524,1.7717001,111.7251892,-36.2366409,-120.3511429
4130,12.5168228,2.7533178,1.7094513,101.1755753,-47.6870232,-133.2061005
4140,11.9350348,2.3367288,2.0111191,97.2061081,-61.4427490,-146.2061005
4150,11.1281929,2.3654592,1.8602852,91.6488571,-77.0687027,-157.9465637
4160,10.3596573,1.9799947,1.5753766,84.0534363,-90.3282471,-166.7099304
4170,9.8520899,1.7046629,1.4341195,75.1679382,-99.1297684,-173.5801544
4180,9.2583303,1.5203103,1.3000449,64.8549652,-103.5877838,-179.9389343
4190,8.4514885,1.2234308,1.3503228,53.2366409,-104.8549652,-185.9084015
4200,7.4531116,0.9361281,1.2617378,41.3358765,-104.1755753,-190.3053436
4210,6.3015065,0.7086801,1.1755470,28.7480907,-101.7786255,-192.1068726
4220,4.7428894,0.4453192,0.9959828,15.7633591,-96.9847336,-190.4122162
4230,2.9448531,0.2944853,0.5362985,1.4045801,-91.6564865,-185.1755676
4240,1.1252691,0.0143651,0.3615226,-14.8167934,-89.0916061,-174.1526642
4250,-0.3543400,-0.1651991,0.1723816,-30.8167934,-90.0000000,-158.1908417
4260,-1.4149660,-0.1532281,0.2681492,-45.4503822,-93.4580154,-140.6412201
4270,-2.1475880,-0.0718257,0.2609667,-58.2213745,-99.7938919,-122.9465637
4280,-2.3846128,-0.0263361,0.2873027,-71.5954208,-108.1679382,-105.8244247
4290,-2.4396791,0.1771700,0.7757174,-83.1755753,-116.9923630,-90.7557220
4300,-2.2529323,0.6129125,1.2377959,-92.9618301,-125.1603088,-79.0381699
4310,-1.7070571,0.9193687,1.8507085,-100.9083939,-131.5267181,-71.1679382
4320,-1.1372399,1.2114599,2.3989778,-107.8854980,-135.1679382,-67.6412201
4330,-0.4764437,1.3598996,2.8490853,-114.6412201,-136.3969421,-67.5648880
4340,0.0718257,1.3646880,3.3494711,-121.6870193,-135.6106873,-71.2900772
4350,-0.1795642,1.3479286,3.6128318,-129.2595367,-132.9770966,-76.9236679
4360,-1.1755470,1.2258250,3.7923961,-137.5496216,-132.9236603,-79.2977066
4370,-2.5689652,0.7996593,4.0389977,-147.6793823,-137.4274750,-74.5572510
4380,-3.9001346,0.9289455,4.2472920,-157.6793823,-140.0763397,-61.5038185
4390,-4.9009056,0.7709290,4.6662750,-168.1221313,-142.0152740,-41.5725174
4400,-4.9966736,0.5434810,5.0230093,-181.4961853,-134.1374054,-18.0076332
4410,-4.7404952,0.2418131,5.8322453,-195.5877838,-117.5496216,6.2748094
4420,-4.0342093,0.3375807,6.6726060,-209.7251892,-94.3129807,27.9312973
4430,-3.0813217,0.3878587,7.7164726,-224.0915985,-66.9770966,43.8320618
4440,-2.6168492,0.1460456,8.8800488,-233.3206177,-42.2977104,54.2748108
4450,-2.3391230,0.3232156,10.3237448,-236.1526642,-28.7709923,59.8778610
4460,-2.2481439,0.5961532,11.6261835,-235.2671814,-28.5419846,62.0228996
4470,-2.3798244,0.5339043,12.7993364,-229.2366486,-38.3816795,62.0000000
4480,-3.2441268,0.5865764,13.6373034,-219.2824402,-59.5267181,64.3282471
4490,-3.8283088,0.5339043,14.3795023,-209.0610657,-84.6106873,71.6183243
4500,-4.1012464,0.3687052,15.5071650,-199.7328186,-104.3053436,83.9770966
4510,-3.1723011,0.0239419,17.0777531,-191.8167877,-107.4580154,97.7480927
4520,-2.4516499,-0.0790083,18.4759598,-183.0763397,-88.1450348,114.0687027
4530,-2.0757623,0.0814024,19.6126022,-171.1755676,-57.9618340,130.6793823
4540,-2.1044924,-0.0311245,19.6126022,-151.3893127,-28.3816795,147.7404633
4550,-2.0973101,-0.1268920,19.6126022,-124.7633591,-7.0152674,166.7557220
4560,-1.3287752,0.0359128,19.6126022,-97.6870193,3.1068702,184.9770966
4570,0.0047884,0.1843526,19.6126022,-75.0534363,7.6946564,196.6946564
4580,0.8259954,0.3040621,19.6126022,-53.8549614,8.2900763,204.4961853
4590,2.4085546,0.3399749,19.6126022,-32.2748108,6.9007635,209.9007568
4600,4.7404952,0.8451489,19.6126022,-13.5877867,15.3129768,207.1450348
4610,5.5593081,1.2497669,19.4791260,3.0992367,25.2519093,195.6717529
4620,4.8530221,1.3814473,18.2102051,15.4351149,27.7175579,185.2213745
4630,4.0557570,0.8379663,16.9748039,22.6183205,29.2137413,179.5648804
4640,3.3303175,0.1484398,16.0243092,25.6183205,29.8854961,179.5343475
4650,2.9376705,-0.4644727,15.6340570,25.0229015,34.9236641,186.3587799
4660,3.3590479,-0.9552816,15.7609491,23.5801525,45.2442741,196.4122162
4670,4.0557570,-1.4604555,16.0099449,21.8473282,56.7786255,207.4885559
4680,4.8961172,-1.8746504,16.7832680,22.9694653,66.0305328,216.3587799
4690,5.7628140,-2.3319404,17.8031921,30.9618320,74.8320618,221.8931274
4700,7.0221577,-2.6168492,18.3777981,44.0305328,85.6259537,222.5648804
4710,7.8146343,-2.9185169,18.1599274,58.4885483,100.1526718,219.0229034
4720,8.2862902,-3.3255291,17.4536419,71.2977066,112.4809189,213.5190887
4730,8.1761570,-3.8474624,16.7282009,83.0381699,108.9160309,207.8473358
4740,7.9798336,-4.4220681,16.3906212,97.0305328,89.8549652,204.0000000
4750,8.5544386,-4.9966736,16.0626163,115.1984711,61.7786255,201.6870270
4760,9.3540983,-5.7053533,15.8591108,131.9847260,35.0992355,198.3893127
4770,10.2327662,-6.2057390,16.0578289,147.9770966,15.0458012,195.8931274
4780,11.9757357,-6.5600791,16.6827126,166.9389343,8.0152674,193.3893127
4790,14.5447006,-6.5265603,17.0466290,191.3206177,10.4732828,184.8015289
4800,16.9843807,-5.8561873,17.0346584,217.7938995,13.5343513,164.4580078
4810,18.6459484,-4.9966736,16.6755295,246.9313049,13.8625956,130.1145020
4820,19.2109756,-4.3957319,15.2773228,250.1297760,17.3358784,88.0610657
4830,19.1535149,-4.0509686,13.1560707,250.1297760,18.9389305,45.4045792
4840,19.1032372,-3.5960727,10.4841557,250.1297760,18.9694653,4.0763359
4850,19.5892582,-2.9999194,8.5257082,250.1297760,23.8091602,-36.7633591
4860,19.6126022,-2.4181314,6.4236102,250.1297760,31.8702297,-77.7786255
4870,19.2444954,-2.0446377,3.6511390,250.1297760,30.7404575,-121.4656525
4880,17.4105453,-1.6998745,-0.2250538,250.1297760,15.9312973,-160.9236603
4890,15.2198620,-1.4173602,-3.4572096,250.1297760,-8.7099237,-192.2900696
4900,13.7282820,-0.8858501,-5.0469513,201.3053436,-35.9465637,-218.1221313
4910,12.2869806,-0.7038917,-5.0062504,150.9465637,-57.1755714,-243.6641235
4920,10.5535870,-1.1013272,-3.8570392,110.3893127,-69.9007645,-250.1374054
4930,8.4562769,-1.4724265,-2.8466914,81.4885483,-78.9847336,-250.1374054
4940,6.4403696,-1.8315549,-2.2194135,60.9618340,-85.6946564,-250.1374054
4950,4.4388270,-2.1260402,-2.1954718,44.0687027,-89.2824402,-250.1374054
4960,2.5833304,-2.0877333,-2.7341642,27.2977104,-88.4427490,-250.1374054
4970,1.1899122,-2.0015423,-3.3063757,7.3282442,-86.2595444,-250.1374054
4980,0.5793939,-1.5298871,-3.9001346,-16.2061062,-88.3740463,-238.1984711
4990,-0.1005560,-1.2808913,-4.1539187,-42.9007645,-89.7480927,-224.6488495
5000,-1.0510491,-1.1587877,-3.8666160,-69.5190811,-93.2671738,-210.8015289
5010,-1.8674678,-1.2018831,-3.0142846,-93.3206100,-100.3740463,-196.0915985
5020,-2.2720859,-1.1899122,-2.0661855,-113.5114517,-107.1450348,-180.8091583
5030,-2.6383967,-1.0725969,-1.1923064,-131.0992432,-109.2671738,-166.8167877
5040,-2.9520357,-0.9552816,-0.1364688,-147.1603088,-107.7862625,-153.0229034
5050,-3.3590479,-1.2952565,1.0366840,-161.4656525,-106.7480927,-139.1832123
5060,-3.8594334,-1.3455344,2.1954718,-173.6641235,-104.1297684,-124.7557220
5070,-4.4436154,-1.3646880,3.1244173,-184.1679382,-99.7099228,-110.2519073
5080,-4.5824785,-1.5634058,4.0749106,-194.4427490,-97.0229034,-95.8625946
5090,-5.0565281,-2.2744799,5.3965030,-203.3664093,-98.4045792,-81.6106873
5100,-5.3438311,-2.9113343,6.7971039,-213.0686951,-98.0152664,-65.4351120
5110,-5.5856438,-3.5290353,8.7052727,-218.9847260,-95.0763321,-47.7862587
5120,-5.7556314,-4.0605454,11.1832590,-216.0610657,-94.4274826,-31.4580154
5130,-5.7460546,-3.7995787,13.4170380,-201.2977142,-100.1374054,-20.6793900
5140,-6.0668759,-3.7564833,15.1959200,-175.1603088,-110.1603088,-13.2366409
5150,-6.4355812,-3.2225790,16.0602226,-139.9618378,-131.2061005,-6.1068702
5160,-6.9814563,-2.8538737,16.0889530,-104.1679382,-160.3053436,5.0458016
5170,-7.3310080,-2.1619530,15.2007084,-75.5190811,-181.1221313,22.4198475
5180,-6.7707677,-1.6902977,13.9844608,-61.3053436,-181.1679382,45.1374054
5190,-4.9104824,-1.5418580,12.8304615,-64.7099228,-155.0000000,66.4503784
5200,-3.4524212,-1.3862357,12.2774038,-86.3816757,-103.6717529,83.8473282
5210,-2.6838863,-1.3790531,13.0842457,-111.9847336,-49.6335869,96.0457993
5220,-2.6503677,-1.5346755,14.6955347,-129.0458069,-12.3053436,105.5038147
5230,-2.8083842,-1.9321109,16.4265347,-132.2595367,3.4122138,112.6412201
5240,-3.0286496,-2.1643472,17.8391056,-125.0610657,4.4885497,120.0457993
5250,-3.0765336,-2.3582766,19.0792961,-108.3587799,1.2519084,130.2748108
5260,-2.7317703,-2.5665710,19.5724983,-87.8778610,-0.4122137,145.1221313
5270,-1.9967541,-2.6551561,19.6126022,-68.2442780,2.2900763,163.2442780
5280,-1.4006008,-2.9544299,19.6126022,-50.8244286,4.8396945,181.3206177
5290,-0.6607963,-2.8945751,19.4408188,-33.5496178,5.7099237,198.1526642
5300,0.0885850,-3.2920105,18.9978924,-18.3587780,8.3206110,215.2977142
5310,0.8595140,-3.6942344,18.5310268,-6.7633586,15.1908398,231.2442780
5320,1.2545552,-3.9743545,18.4448357,1.6030535,21.2977104,246.0915985
5330,1.4604555,-4.3598189,18.3323078,12.4503813,23.1755733,250.1297760
5340,1.8076130,-5.2528515,18.2963963,26.2366409,20.6030540,250.1297760
5350,2.0326669,-6.2512288,18.5573616,43.6106873,5.4045801,250.1297760
5360,2.1308286,-7.0556765,19.0338058,68.6335907,-20.2595425,250.1297760
5370,2.9711890,-7.8050575,18.6890430,98.5725174,-47.2977104,250.1297760
5380,4.0054789,-8.6621771,17.8127689,130.2290039,-71.5572510,250.1297760
5390,5.5090299,-9.0835552,16.6707420,157.3053436,-85.7709961,250.1297760
5400,7.4818420,-9.0787668,15.7346134,178.6030579,-90.2748108,250.1297760
5410,9.6126709,-8.9829988,14.8080616,194.3893127,-90.6106873,250.1297760
5420,13.0291786,-8.0301113,14.9349537,209.1603088,-90.5114517,250.1297760
5430,16.9293137,-6.3182659,15.1145182,226.9389343,-85.1832047,250.1297760
5440,19.6126022,-4.1994085,15.1264887,246.8015289,-76.1755753,250.1297760
5450,19.6126022,-2.1308286,14.1759958,250.1297760,-63.2290077,197.1526642
5460,19.6126022,-0.8978211,11.9278517,250.1297760,-43.7786255,136.7633514
5470,19.6126022,-0.3734936,9.2607250,250.1297760,-24.6412220,78.3969498
5480,19.6126022,0.0383070,7.1610208,250.1297760,-14.5038166,26.1297703
5490,19.6126022,0.7541697,5.8298512,236.0610657,-11.1526718,-26.3129768
5500,19.6126022,0.9935886,4.8985114,212.3206177,-15.9694653,-79.2366409
5510,19.6126022,1.1396341,5.1379304,189.1679382,-23.3893127,-132.9160309
5520,19.6126022,1.3263810,5.9160423,173.8091583,-30.6412220,-190.5725250
5530,19.6126022,0.6296718,5.9735026,164.1603088,-42.7862587,-250.1374054
5540,19.2444954,-0.9361281,5.3725610,153.1984711,-54.8625946,-250.1374054
5550,16.2254219,-2.6264257,4.4914994,140.9847260,-57.2977104,-250.1374054
5560,12.2103662,-4.2377152,3.2489152,123.4427490,-65.6717529,-250.1374054
5570,7.8792777,-5.4324160,2.5210814,100.0992355,-74.7022934,-250.1374054
5580,5.0110383,-5.3558016,2.2289903,85.3206100,-77.2900772,-250.1374054
5590,2.7581062,-4.5729017,1.6400198,66.9160309,-69.6946564,-250.1374054
5600,0.9552816,-3.9671719,1.2569494,50.4045792,-57.9618340,-250.1374054
5610,-0.7876883,-3.0286496,0.8044477,36.5190849,-47.4503822,-250.1374054
5620,-2.3630650,-2.1595588,0.1436514,25.8244267,-46.9160309,-250.1374054
5630,-2.8754215,-1.4700323,-0.6440369,14.5877867,-52.8091621,-230.8854980
5640,-2.8921809,-1.0151364,-1.1899122,0.0992366,-63.8167953,-202.6641235
5650,-2.3702476,-0.3280039,-1.3120158,-15.5114508,-78.4885483,-180.5801544
5660,-1.9368993,0.0095768,-1.0271072,-30.6183205,-91.2137375,-165.1832123
5670,-1.7477583,0.3639168,-0.4525018,-44.0000000,-101.7099228,-153.8702240
5680,-1.8100072,0.5913648,-0.1125269,-55.9847336,-108.5419846,-144.9541931
5690,-1.9728121,0.7733232,0.1508339,-68.6335907,-112.5572510,-136.4809113
5700,-2.1164634,0.9480990,0.3112446,-82.3435135,-113.4885483,-127.8320618
5710,-1.9919657,1.0055596,0.6320660,-99.1679382,-107.2290039,-120.4580154
5720,-2.1044924,1.0989330,1.1276633,-116.2061081,-96.2213745,-115.7404556
5730,-2.7365584,0.8571198,1.7381816,-133.2824402,-85.3358765,-111.4351120
5740,-3.7277529,0.4118006,2.7413468,-147.1068726,-81.0839691,-103.1755753
5750,-4.7333126,0.0383070,3.8809812,-155.9389343,-82.3435135,-91.0000000
5760,-5.6622581,-0.2394189,4.8745699,-162.1832123,-84.1755753,-74.8778610
5770,-5.9974446,-0.2944853,5.5162125,-168.4351196,-85.0305328,-56.4045792
5780,-6.0525107,-0.7805058,6.4643116,-175.6030579,-82.8854980,-37.0381660
5790,-5.8106980,-1.0941446,7.5847921,-183.3282471,-73.1832047,-17.0839691
5800,-5.1858144,-1.0534433,8.9255381,-190.1908417,-58.4503822,0.5648855
5810,-4.6327567,-1.1994889,10.7379398,-191.7862549,-46.0992355,13.5877867
5820,-4.2496862,-1.0414724,12.1385403,-186.7557220,-32.8931313,23.8854961
5830,-4.0725164,-0.9361281,13.0986109,-176.6717529,-23.7251911,32.2519073
5840,-4.1682839,-0.7924767,13.8647509,-164.7404633,-18.9160309,39.9465637
5850,-4.3670015,-0.9097920,14.2885227,-152.0458069,-15.4045801,49.3129768
5860,-4.0916696,-0.7685348,14.5614605,-139.9847260,-10.8625956,61.0000000
5870,-3.5314295,-0.7398046,14.5566721,-130.3282471,-3.1603053,72.6793900
5880,-2.7940190,-0.5722113,14.4106264,-124.5954208,4.4503818,81.2290039
5890,-1.8363433,-0.2896969,14.5183649,-120.6030502,9.5496187,85.4809189
5900,-1.0366840,-0.0526722,14.6237087,-116.6412201,13.2061071,85.1908417
5910,-0.6033357,0.1795642,14.8032732,-112.4198456,17.3893127,82.7480927
5920,-0.6943150,0.2561783,15.0211449,-107.7328262,19.7633591,79.9083939
5930,-1.1444225,0.2298422,15.4592810,-100.5114517,16.9389305,77.6564865
5940,-1.8961980,0.0646431,15.6963062,-88.2671738,7.6106873,78.3664093
5950,-2.5043221,-0.1604107,15.6771526,-73.9083939,-6.0458016,84.2977066
5960,-2.8826041,-0.4788379,15.3228121,-60.5038185,-19.3511448,94.8167953
5970,-3.0597742,-0.6703730,14.9325600,-50.6870232,-29.3969460,106.6259537
5980,-2.7772598,-0.5913648,14.8104563,-44.0916023,-33.9541969,121.8702316
5990,-1.8243724,-0.5003856,14.6524391,-38.7938919,-30.8320618,135.7786255
6000,-0.7350162,-0.3639168,14.5686426,-34.3358765,-20.7557259,145.4656525
6010,0.5530578,-0.1484398,14.1592360,-30.4656487,-4.2366414,149.6946564
6020,1.4006008,-0.1340746,13.4481621,-29.4427490,15.3740454,147.7480927
6030,1.4149660,-0.2537841,12.8855276,-31.3282452,25.5572510,142.5572510
6040,1.4484847,-0.3112446,12.5886478,-33.8015251,23.1755733,135.7786255
6050,1.1875180,-0.5458752,12.9022865,-33.5496178,12.8396950,129.2442780
6060,0.7374104,-0.7469871,13.8192616,-30.5648861,0.5114504,126.7480927
6070,0.4644727,-0.9744351,14.5016060,-25.7251911,-12.4274807,127.5190811
6080,0.2513899,-1.3407460,15.6053267,-18.8091602,-21.4045811,132.3587799
6090,0.2250538,-1.4676381,16.5007534,-8.3053436,-24.5648861,142.5267181
6100,-0.0981618,-0.6081241,16.7712975,3.3358779,-23.5114498,156.3358765
6110,1.1132981,-2.4564383,16.7880573,10.0916033,-27.9389305,168.2748108
6120,1.2521610,-2.4708035,17.1112728,19.3893127,-29.7633591,173.0534363
6130,1.5274929,-2.3894010,18.1288033,31.2977104,-37.7786255,182.3206177
6140,2.2720859,-2.9280937,18.6651001,46.7633591,-46.7404594,191.1297760
6150,3.2608860,-4.1060348,19.6126022,65.7709961,-58.1297722,197.5038147
6160,4.1180058,-5.0445571,19.6126022,92.4885483,-71.5648880,200.5725250
6170,5.7795734,-5.3127065,19.6126022,126.5954208,-95.4274826,198.0458069
6180,8.2024927,-5.6000090,19.6126022,170.9770966,-118.3969498,183.8320618
6190,10.7666702,-5.9543490,19.6126022,223.3664093,-137.2671814,158.8473358
6200,12.8376436,-5.5784616,19.6126022,250.1297760,-149.8778687,124.2671738
6210,13.8384151,-4.8793583,19.6126022,250.1297760,-170.6335907,82.3129807
6220,14.2741575,-4.7452836,19.1678810,250.1297760,-184.5725250,34.7175560
6230,14.2645807,-4.7548604,17.4895535,250.1297760,-190.0000000,-10.4274807
6240,13.5511122,-4.9679432,15.3299952,250.1297760,-193.4961853,-48.9465637
6250,12.2582502,-5.0397687,12.4689388,250.1297760,-192.6488495,-79.4274826
6260,11.4202833,-4.8362627,9.7563219,250.1297760,-185.4809113,-99.3969498
6270,11.6333666,-4.3693957,7.6901364,250.1297760,-171.6793823,-111.2442780
6280,11.9278517,-3.9192882,5.3821378,250.1297760,-144.9618378,-122.5877838
6290,12.8208847,-4.3382711,3.9432299,250.1297760,-118.3511429,-136.7251892
6300,11.1688938,-3.3422885,2.3558824,250.1297760,-93.7709961,-151.7175598
6310,10.1082678,-2.8921809,0.8595140,250.1297760,-80.5038147,-156.0763397
6320,9.4857788,-2.2218077,-1.1228749,250.1297760,-79.1068726,-154.2900696
6330,9.2319946,-1.1468167,-3.9097114,250.1297760,-90.1679382,-154.4885559
6340,9.4642305,0.2106887,-6.3326311,249.3206177,-110.3129807,-159.4122162
6350,9.9310980,1.3838415,-7.7954807,199.4427490,-131.7175598,-168.3358765
6360,10.2830439,1.9871773,-8.1905222,146.9084015,-149.1603088,-181.3969421
6370,10.3213511,1.6424140,-7.4674768,101.9389343,-158.7480927,-197.0458069
6380,9.6797075,0.9959828,-6.4164276,62.4274826,-156.1984711,-210.5419922
6390,8.5137377,0.5291159,-5.5090299,32.2977104,-153.3816833,-220.6030579
6400,7.2376347,0.0000000,-4.8841467,6.4885497,-154.9618378,-227.0305328
6410,5.6622581,-0.6105183,-4.4843168,-15.1374044,-156.0915985,-228.9923706
6420,3.8283088,-1.1037214,-4.2448978,-34.6030540,-157.8854980,-224.7480927
6430,1.8794388,-1.6017127,-4.0916696,-52.7251892,-162.8244324,-213.0381622
6440,0.1268920,-1.7740943,-3.6631098,-68.0381699,-170.0763397,-195.5801544
6450,-1.0271072,-1.7429699,-3.3375001,-82.3664093,-179.2290039,-175.1984711
6460,-1.8147956,-1.6974803,-2.7389526,-95.2290039,-185.9770966,-152.6259613
6470,-2.5450234,-1.6256547,-2.2122312,-106.6183243,-187.1526642,-130.2213745
6480,-3.3805954,-1.5131277,-1.6639616,-117.2366409,-183.1908417,-105.6717529
6490,-4.0964580,-1.3934183,-1.4341195,-128.3129730,-176.8549652,-78.9007645
6500,-4.7428894,-1.3096216,-1.1611819,-139.9084015,-169.3969421,-49.7480927
6510,-5.1283536,-1.2904681,-0.7924767,-150.8702240,-162.4122162,-20.2671757
6520,-5.0230093,-1.0007712,-0.4644727,-161.2061005,-155.1908417,8.7862597
6530,-4.5705075,-0.6200951,-0.0167593,-170.7709961,-146.4045868,34.2977104
6540,-4.0749106,-0.4908088,0.3926471,-180.2213745,-137.0305328,55.3358765
6550,-3.7493007,-0.3950413,0.8666966,-190.3282471,-128.4045868,72.6641235
6560,-2.9664006,-0.2274480,1.3551112,-200.7175598,-121.5343475,86.2824402
6570,-2.5091105,-0.1125269,1.8411317,-213.0992432,-113.5648880,97.1603088
6580,-2.2744799,-0.2896969,2.5857246,-228.1603088,-105.7175598,105.8015289
6590,-2.0302727,-0.3256098,3.6343796,-242.4656525,-99.7557220,113.3129807
6600,-1.5011568,-0.2298422,5.4012914,-250.1374054,-94.8473282,119.0457993
6610,-1.5490406,-0.4644727,7.2735476,-250.1374054,-90.8244247,125.4503784
6620,-1.6663558,-0.8547257,9.1960821,-250.1374054,-87.3587799,134.6335907
6630,-1.7788827,-1.4269369,11.2191715,-250.1374054,-89.7938919,147.1221313
6640,-1.4006008,-1.8626794,13.3739424,-250.1374054,-94.7480927,161.7862549
6650,-0.2082945,-2.2481439,15.8998117,-234.6717529,-94.7480927,177.8396912
6660,1.1252691,-2.0733681,17.9971218,-209.7328186,-81.4732819,192.0305328
6670,2.8419030,-1.5394639,19.3642044,-179.8396912,-55.4732819,202.2671814
6680,4.6686692,-0.7493813,19.6126022,-151.5648804,-15.7404585,206.2137451
6690,5.5736732,0.2681492,19.0122585,-133.0381622,31.7938938,203.8167877
6700,5.5210009,0.7685348,17.8319225,-124.5190811,73.8015289,199.1908417
6710,5.3103123,0.7757174,16.8694592,-124.1145020,104.4732819,195.0992432
6720,4.4627690,0.3208214,16.7425671,-121.5648880,118.3129807,192.9847260
6730,4.1204000,0.2968795,16.8000278,-116.9694672,112.9618301,193.6946564
6740,3.9647777,0.5123565,17.0969067,-105.6335907,95.1221390,192.0839691
6750,3.9911139,0.6943150,17.3099899,-90.7480927,69.8396912,188.2748108
6760,4.1706781,0.8571198,17.2166157,-76.2213745,48.0000000,183.8091583
6770,4.5202298,1.1228749,17.2333755,-62.6717567,33.7328262,177.7022858
6780,5.1522956,1.4221486,17.0226879,-52.0152664,28.2595425,168.7175598
6790,5.5880380,1.7860653,16.8694592,-45.9389305,31.8931293,156.6106873
6800,5.3534074,1.7190280,16.8742466,-42.1068687,39.2595406,144.4122162
6810,4.7045822,1.4197544,16.9221306,-36.2061081,43.9236641,132.7862549
6820,3.4260850,0.5506636,16.7114429,-29.9847336,42.3435097,127.3053436
6830,2.3223639,-0.3878587,16.5175133,-22.0992374,34.5725174,127.1526718
6840,1.1444225,-1.3168042,16.6683464,-10.9847326,15.7404585,132.3587799
6850,0.4429250,-2.1667414,17.0490227,4.3664122,-11.9083967,145.4732819
6860,0.8571198,-2.7221935,17.2549229,24.6183205,-35.7557259,161.9084015
6870,1.7621235,-3.2130022,16.9771976,43.6870232,-53.2290077,179.3053436
6880,3.2010312,-3.6176202,16.9532547,59.3206100,-61.7175560,196.6488495
6890,4.7045822,-4.0533628,17.0083218,73.7862625,-60.4427490,210.6793823
6900,5.8298512,-4.5345950,17.0633888,89.9083939,-51.0534363,221.8015289
6910,6.8090749,-4.8218975,16.9149494,106.8625946,-41.5114517,230.3664093
6920,7.5345144,-4.9200592,16.3666782,125.6030502,-32.8702278,234.1908417
6930,8.2695303,-4.8649931,15.5215302,141.6717529,-27.7633591,234.2366486
6940,9.9406748,-4.8195033,14.6763811,151.9465637,-21.1297703,228.3053436
6950,12.0715036,-4.4196739,14.4417505,159.3129730,-12.2595415,215.1145020
6960,13.7187052,-3.9839313,14.3124647,166.6106873,-6.0076337,192.8625946
6970,14.3866844,-3.6774750,13.9724894,174.8320618,-7.1984735,165.3129730
6980,14.8559456,-3.4284792,13.8048964,185.6870270,-16.4656487,135.3816833
6990,15.8375635,-3.4165084,14.1281118,199.2824402,-21.4580154,103.4274826
7000,18.9069138,-2.8634505,15.6172981,217.4427490,-10.7480917,68.6259537
7010,19.6126022,-2.1116750,16.7976341,242.5725250,10.9923668,22.6641216
7020,19.6126022,-2.6216373,15.5742025,250.1297760,37.2748108,-35.6259537
7030,19.6126022,-3.5793133,13.1919842,250.1297760,58.8167953,-89.7480927
7040,19.6126022,-4.3957319,10.6709023,250.1297760,77.0534363,-129.0992432
7050,18.3538570,-5.1307478,8.2479830,250.1297760,95.6717529,-153.6259613
7060,17.3243542,-5.0565281,6.6702118,250.1297760,107.3587799,-166.8473358
7070,16.0889530,-4.4005203,5.0397687,250.1297760,111.4732819,-176.6183167
7080,14.7194767,-3.9575951,3.9001346,250.1297760,100.3816757,-185.8091583
7090,13.6013899,-3.1818779,3.4859397,242.0229034,80.4122162,-194.1450348
7100,12.7538471,-2.4875629,3.3255291,228.9007568,60.3435097,-202.9313049
7110,11.5543585,-2.0613971,3.2393384,219.9160309,41.0305328,-211.4885559
7120,10.4195127,-1.7429699,2.6072724,210.6183167,18.0076332,-217.1374054
7130,10.0005293,-1.2282192,2.0709739,198.9541931,-2.1908398,-222.7633514
7140,9.1505919,-0.8858501,1.1611819,185.3435059,-19.1526718,-229.4656525
7150,7.9223728,-0.5626345,0.1340746,167.9923706,-33.8473282,-234.9160309
7160,6.5409255,-0.4932030,-0.6296718,147.9694672,-46.9160309,-236.5267181
7170,4.9511838,-0.5482694,-1.1851238,126.5801544,-55.3816795,-232.9694672
7180,3.4452386,-0.3088504,-1.4460905,105.2519073,-64.3206100,-224.8931274
7190,2.1188576,-0.1723816,-1.5849534,86.2442780,-72.5648880,-213.9847260
7200,1.1085097,0.0742199,-1.8961980,67.6030502,-79.2748108,-201.8854980
7210,0.1364688,0.5099624,-2.2242019,47.3129768,-83.8778610,-188.9007568
7220,-0.6943150,0.8212070,-2.5809362,24.1679382,-88.5725174,-175.6870270
7230,-1.2784972,1.0558375,-2.4899571,-0.2442748,-91.8167953,-163.3740387
7240,-1.9321109,1.3000449,-2.2888451,-23.0229015,-96.6793900,-152.0458069
7250,-2.5737536,1.4796091,-2.0637913,-43.7480927,-105.1221390,-140.1450348
7260,-2.8131726,1.6376256,-1.7908537,-63.5648842,-115.3587799,-129.0458069
7270,-3.0621684,1.6567791,-1.5131277,-84.4656525,-126.3206100,-119.1755753
7280,-3.6535332,1.4939742,-0.8978211,-102.8549652,-141.8473358,-108.6335907
7290,-4.1563129,1.2042773,-0.0454896,-117.8320618,-162.1450348,-95.0229034
7300,-3.8402798,1.3646880,0.5291159,-131.6106873,-176.8625946,-80.3816757
7310,-2.9927368,1.3120158,1.4029950,-145.3282471,-184.9541931,-68.5496216
7320,-2.1978660,1.4460905,2.1691356,-159.3206177,-186.2977142,-61.5954208
7330,-1.5658000,1.3120158,3.0286496,-174.4351196,-180.4045868,-58.6946564
7340,-1.1947005,1.3598996,3.4835455,-190.5190887,-167.1450348,-57.3893127
7350,-0.8786675,1.0869620,3.9528067,-209.1068726,-147.8244324,-58.5725174
7360,-0.9696468,0.6943150,4.5752959,-229.8320618,-124.9389343,-60.2671738
7370,-1.5227045,-0.0622489,5.5664907,-250.1374054,-101.1145020,-60.4732819
7380,-2.5761478,-0.6799498,6.8593526,-250.1374054,-84.1755753,-57.2290077
7390,-3.3039815,-1.1132981,8.6478119,-250.1374054,-76.7938919,-50.2595406
7400,-3.8929520,-1.3407460,10.7834291,-250.1374054,-76.8167953,-41.3587799
7410,-4.3023586,-1.2856797,13.1680422,-250.1374054,-79.5114517,-30.0992374
7420,-4.0437860,-1.1324517,15.7322187,-235.0686951,-81.3282471,-18.6946564
7430,-3.6152260,-0.9648584,17.8654423,-201.2977142,-75.2519073,-8.6946564
7440,-3.1315999,-0.7014975,18.6339760,-163.0229034,-59.3358765,-0.5190840
7450,-2.5809362,-0.3854645,18.1790810,-129.8473358,-37.4427490,6.7404580
7460,-2.2194135,0.0191535,16.8263626,-107.9312973,-7.1374044,13.1526718
7470,-2.7126167,0.5075682,14.8727045,-101.9083939,25.6030540,21.6183205
7480,-3.6248028,0.6296718,13.5774488,-105.6870193,53.3740463,34.4427490
7490,-4.1060348,0.9911944,12.8232784,-115.0152664,72.8778610,51.7175560
7500,-4.1802549,1.0654143,13.0794573,-123.4198456,82.6335907,69.0305328
7510,-3.8737986,1.0295014,13.7522240,-129.3129730,82.1450348,83.7709961
7520,-3.2393384,1.0917504,14.5518837,-127.6335907,78.3511429,95.7938919
7530,-2.2313845,1.0199248,14.9924145,-119.6412201,74.9389343,102.3816757
7540,-1.3646880,0.8834559,15.4832230,-109.8549652,62.4045792,102.6946564
7550,-0.3710994,1.0079538,15.9309368,-96.7709961,47.6183205,97.4503784
7560,0.3327923,0.7661406,16.2972469,-80.3969498,34.6793900,86.6259537
7570,0.2777260,0.4405309,16.2206345,-63.3587799,21.2061062,74.5419846
7580,-0.6320660,0.1436514,15.9860029,-45.7709923,5.7709923,64.6870193
7590,-1.6639616,-0.2418131,15.5789909,-28.5343513,-11.9160309,61.0610695
7600,-2.4061604,-0.7086801,15.0163565,-12.8396950,-29.2366409,64.4580154
7610,-2.8179610,-1.0295014,14.2406387,-0.9236641,-39.4503822,73.0534363
7620,-2.8778157,-1.2258250,13.4242201,4.8244276,-41.4732819,85.8167953
7630,-2.7916248,-1.4508789,12.7706070,4.5267177,-38.1221390,100.7175598
7640,-2.7174051,-1.6495966,12.5599174,0.3816794,-26.7557259,117.0457993
7650,-2.1404054,-1.5514348,12.4402084,-6.0839696,-11.6946564,132.3816833
7660,-1.6448082,-1.7788827,12.4809093,-11.9923668,4.5725193,144.2671814
7670,-1.5801650,-1.7693061,12.5335817,-18.6870232,21.3664131,153.4961853
7680,-1.5394639,-1.7309990,12.5168228,-25.7328243,38.1755714,161.2824402
7690,-1.9632354,-1.7717001,12.6006193,-33.2213745,54.0839691,168.0839691
7700,-2.5067163,-1.9129574,12.8472204,-39.1145020,66.7175598,175.2900696
7710,-3.4117200,-2.5617826,13.0603037,-44.9771004,75.7557220,186.5572510
7720,-3.9935081,-3.2249732,13.4505568,-50.2824440,82.6259537,202.5343475
7730,-4.7165532,-4.1036406,14.0682573,-54.2137413,84.8931274,222.2213745
7740,-5.2313042,-4.9440012,15.0115681,-55.3664131,79.8091583,247.2977142
7750,-4.7285242,-5.8059096,16.0913467,-49.9847336,69.1984711,250.1297760
7760,-3.9097114,-6.5193777,16.7976341,-39.1297722,55.1984749,250.1297760
7770,-2.5138988,-7.1969333,17.7241840,-24.9389305,39.2671738,250.1297760
7780,-0.3208214,-7.8649125,18.7201672,-6.6106873,21.5725193,250.1297760
7790,1.7405758,-8.2599535,19.6126022,18.9312973,-3.9541984,250.1297760
7800,3.5936785,-8.6142941,19.6126022,55.0305328,-39.7862587,250.1297760
7810,5.6143742,-8.6406298,19.6126022,101.9465637,-82.3129807,250.1297760
7820,8.0660238,-8.2024927,19.6126022,152.6412201,-125.4351120,250.1297760
7830,10.5368280,-7.0125809,19.6126022,203.4122162,-157.0000000,242.2900696
7840,12.3851423,-5.4970589,18.3466740,244.6183167,-176.7480927,202.5267181
7850,13.9868546,-4.2377152,18.5477848,250.1297760,-184.0458069,154.6793823
7860,14.3723192,-3.7732425,18.4903259,250.1297760,-183.2061005,104.0610657
7870,14.5135765,-4.0342093,16.5534267,250.1297760,-191.8473358,56.8396950
7880,13.2398672,-3.9097114,12.8352499,250.1297760,-206.7251892,11.7328243
7890,12.6820211,-3.3805954,9.0045462,250.1297760,-227.1221313,-26.4656487
7900,12.9070749,-2.5737536,5.9280128,250.1297760,-239.4732819,-60.3435097
7910,13.1800127,-1.8267666,3.6655040,250.1297760,-239.8473358,-92.4427490
7920,12.9549589,-1.4197544,1.9009864,250.1297760,-233.5038147,-122.4503784
7930,12.4234495,-0.8643024,1.0390782,250.1297760,-228.6946564,-147.4503784
7940,12.1624823,-0.5051740,0.8547257,250.1297760,-223.1450348,-168.1832123
7950,11.7746239,-0.2609667,0.6200951,245.1755676,-215.3740387,-188.2977142
7960,11.3532467,-0.0861908,0.5937590,222.5801544,-213.2824402,-206.8244324
7970,10.7594872,0.1268920,0.4572902,202.6946564,-218.3816833,-223.6183167
7980,9.8281479,0.0861908,0.2681492,186.1755676,-223.7251892,-238.8091583
7990,8.7268209,0.0574605,-0.0861908,170.8778687,-231.8396912,-250.1374054
8000,7.7619624,0.1197095,-0.3375807,156.3969421,-241.2290039,-250.1374054
8010,6.7947097,0.2849085,-0.7709290,140.7480927,-246.3053436,-250.1374054
8020,6.0189924,0.4644727,-1.4915800,122.1603088,-249.1068726,-250.1374054
8030,4.7764082,0.6296718,-2.0422437,99.1679382,-250.1374054,-250.1374054
8040,3.3973548,0.5769997,-2.4157372,78.0381699,-250.1374054,-250.1374054
8050,2.4181314,0.5961532,-2.3056045,53.5496178,-249.8931274,-250.1374054
8060,1.3048333,0.6727672,-2.1571648,29.6870232,-243.5725250,-245.1526642
8070,-0.0215477,0.8307837,-2.0230901,7.0992365,-234.5725250,-229.5114441
8080,-1.1468167,1.0797794,-2.0159075,-15.5572519,-225.3816833,-210.4198456
8090,-2.2361729,1.3431402,-2.0733681,-39.2519073,-213.9313049,-188.2213745
8100,-3.1818779,1.6136837,-2.2744799,-63.7175560,-199.1679382,-162.9313049
8110,-3.7732425,1.8578910,-2.5522060,-91.0839691,-185.8015289,-135.6641235
8120,-3.7876077,2.0302727,-2.6790979,-120.9465637,-172.4580078,-110.0305328
8130,-3.6702924,1.9129574,-2.3989778,-152.7480927,-157.1297760,-86.6335907
8140,-3.4979107,1.7190280,-1.8938038,-183.4198456,-140.0610657,-66.3129807
8150,-3.4883339,1.2162483,-1.2162483,-213.3282471,-124.0000000,-47.9007645
8160,-3.5864959,0.8762733,-0.1651991,-240.9389343,-111.6641235,-30.9083977
8170,-3.7540891,0.4046180,0.8690908,-250.1374054,-101.1450348,-15.0458012
8180,-4.0437860,-0.1699875,2.3917952,-250.1374054,-91.7862625,1.6717557
8190,-4.0389977,-0.6320660,3.9408360,-250.1374054,-86.5190811,18.5267181
8200,-3.9432299,-0.9361281,5.7604198,-250.1374054,-87.0000000,34.2519073
8210,-3.8378856,-1.3072275,7.9558916,-250.1374054,-91.4961853,48.6183205
8220,-3.9408360,-1.4820032,10.2136126,-250.1374054,-94.3587799,64.7251892
8230,-4.5202298,-1.5035510,12.2750092,-250.1374054,-82.9542007,84.6641235
8240,-4.5609307,-1.7166338,13.7881374,-250.1374054,-54.8931313,107.9312973
8250,-4.3670015,-1.8626794,15.2557755,-242.7404633,-19.5954189,132.0305328
8260,-4.1395535,-1.8267666,16.0674057,-217.9694672,10.7709923,155.5343475
8270,-3.5457945,-1.5227045,15.8806591,-189.9770966,30.3740463,174.1526642
8280,-2.0159075,-1.2761030,14.8032732,-165.8931274,37.6183205,187.1603088
8290,0.5267217,-0.5674229,13.4768925,-154.1297760,43.0381660,189.6870270
8300,2.8035958,0.5769997,12.2582502,-155.7022858,51.6259537,177.3435059
8310,3.7133877,1.3359578,11.9015160,-166.8320618,52.1297722,152.8778687
8320,3.4117200,1.8985922,13.2566271,-174.5343475,37.4198456,121.8396912
8330,2.4229198,1.9105632,14.6452570,-172.7099304,19.2595425,92.9083939
8340,0.9433106,1.7333932,16.0123386,-160.2137451,1.1068702,72.8854980
8350,-0.7062859,1.4029950,16.8048153,-144.9084015,-13.9541988,63.6793900
8360,-2.1188576,1.1396341,17.3698444,-127.7022934,-23.6412220,63.6412201
8370,-3.3063757,0.8116302,17.5398312,-111.3206100,-27.2519093,72.2213745
8380,-4.1706781,0.3830703,17.6547527,-96.6030502,-27.1297703,89.0610657
8390,-4.2999644,-0.0119709,17.7481270,-84.5419846,-22.8854961,111.2442780
8400,-3.5745249,-0.0550664,17.8965664,-75.0457993,-11.6641226,137.1297760
8410,-2.4468615,-0.2992737,18.1623211,-66.4198456,6.4427481,160.8167877
8420,-1.0151364,-0.1292862,18.3993454,-58.5419846,24.3969460,178.2213745
8430,0.3495516,-0.0909792,18.5477848,-50.1832047,37.7251892,188.8091583
8440,1.3479286,-0.0454896,18.8183289,-39.2977104,48.8396950,194.4732819
8450,2.0877333,-0.0311245,18.8757896,-23.5572510,53.8854980,194.8091583
8460,2.4779861,0.1292862,18.3801918,-5.2213740,52.4122124,192.3893127
8470,2.5665710,0.0359128,17.6978493,12.8778629,44.1603050,188.1984711
8480,2.5330524,-0.0119709,16.7282009,28.5648861,34.2977104,183.5648804
8490,2.4348907,-0.1364688,15.8543224,38.2671738,25.2213745,179.9160309
8500,2.2242019,-0.4860204,15.1839495,40.8702278,18.8778629,178.4198456
8510,1.7214222,-1.1348459,15.1695843,40.0228996,11.8473282,179.8396912
8520,1.1252691,-1.6807210,16.1895084,44.1679382,3.2824428,185.1145020
8530,0.9911944,-2.3917952,17.2285881,57.6335869,-7.7251906,193.2061005
8540,1.2354017,-2.9352763,17.6810894,78.1221390,-19.2671757,201.3587799
8550,1.7477583,-3.4883339,17.4991302,101.1145020,-27.3358784,208.8625946
8560,2.3965836,-3.8953462,17.3315372,120.3969498,-30.0839691,217.1450348
8570,3.1627243,-4.0892754,16.7689037,138.3893127,-25.8091602,224.8778687
8580,3.9671719,-4.3023586,16.1583843,153.1374054,-16.3893127,229.3282471
8590,4.8721757,-4.4795284,15.3946381,163.7786255,-2.3282442,231.0534363
8600,5.5353661,-4.6543045,14.8248215,171.4580078,15.1526718,231.0992432
8610,6.5552907,-4.2209558,13.8360205,176.3435059,36.5725174,231.4503784
8620,7.6614060,-3.9336534,13.2470503,177.9084015,53.2977104,227.2366486
8630,9.0165176,-3.1004753,13.3715477,180.5190887,55.4809151,215.9541931
8640,10.4410601,-2.1882892,13.6875811,189.9465637,51.4732819,197.1755676
8650,11.3963413,-1.7166338,13.2255030,205.1068726,48.3358765,172.6946564
8660,12.5503407,-1.3646880,11.9996777,217.6259613,42.7862587,145.4732819
8670,14.1951494,-0.6129125,11.3963413,225.3664093,37.9389305,117.2900772
8680,15.4401274,0.2082945,10.6780853,229.7328186,31.3969460,83.0687027
8690,15.6532106,0.4788379,9.8233595,233.8091583,20.5801525,44.3129768
8700,14.3052816,0.4477134,7.5728211,234.4809113,-14.0534353,-21.2595425
8710,14.1544485,0.5123565,6.6199336,231.3435059,-25.9160309,-44.8778610
8720,14.4585104,1.0630201,5.8106980,225.8778687,-36.3664131,-67.7328262
8730,15.2940826,1.5586174,5.4659348,217.9618378,-47.6641235,-95.4122162
8740,15.6101151,1.9608412,5.0996237,210.8091583,-60.2824440,-129.1450348
8750,15.5718079,1.7717001,4.9583664,206.0534363,-74.8320618,-165.6259613
8760,15.6316633,1.7262106,4.5944495,202.7328186,-97.0229034,-202.0763397
8770,15.7370071,1.6974803,4.5274124,200.1603088,-126.6717529,-241.8015289
8780,14.7386303,1.2258250,4.2018023,198.9770966,-158.4656525,-250.1374054
8790,13.1057930,0.3280039,3.5434003,198.5190887,-193.0686951,-250.1374054
8800,11.3676119,-0.3303981,2.7485294,194.6641235,-232.4198456,-250.1374054
8810,9.3229742,-1.1372399,2.8299320,189.2442780,-250.1374054,-250.1374054
8820,7.1227136,-1.7166338,3.4739690,186.9236603,-250.1374054,-250.1374054
8830,4.7189474,-2.2194135,4.1347651,189.0763397,-250.1374054,-250.1374054
8840,2.3870070,-2.4612267,4.1012464,191.9923706,-250.1374054,-250.1374054
8850,0.4453192,-2.1068866,2.9951310,189.2671814,-250.1374054,-250.1374054
8860,-1.0678085,-1.4772149,1.1492109,175.2519073,-250.1374054,-250.1374054
8870,-2.3032103,-0.7302278,-0.7637464,148.3816833,-250.1374054,-250.1374054
8880,-3.1914546,0.0909792,-2.5785420,109.9007645,-227.8854980,-224.3740387
8890,-3.8019729,0.8547257,-4.2137733,60.2977104,-180.2137451,-185.3740387
8900,-3.9073172,1.4532729,-5.2169390,4.4122138,-129.6793823,-148.4045868
8910,-4.1658897,1.6519908,-5.4539638,-53.2061081,-86.5877838,-115.4045792
8920,-4.4220681,1.7669119,-4.9751258,-104.9847336,-57.9083977,-87.4045792
8930,-4.7309184,1.7549409,-4.3023586,-148.5267181,-51.6946564,-63.6793900
8940,-4.4244623,1.6041069,-3.7445123,-181.3740387,-69.6870193,-44.6106873
8950,-3.7325413,1.2401901,-2.9328821,-207.2748108,-105.6030502,-33.0305328
8960,-3.1531475,0.7326220,-1.6639616,-227.7251892,-151.6259613,-24.8549614
8970,-2.5809362,0.2944853,0.1125269,-240.5038147,-192.8854980,-17.4809170
8980,-1.8722562,-0.0167593,1.5203103,-246.6488495,-222.8396912,-10.0687027
8990,-1.0725969,-0.0909792,3.0262554,-250.1374054,-236.4427490,-4.8854961
9000,-0.4716553,-0.0598547,4.3430595,-250.1374054,-229.5267181,-2.7251909
9010,-0.2585725,-0.1651991,5.7891502,-250.1374054,-203.9160309,-2.4274809
9020,-0.4668669,-0.4309541,7.4866304,-250.1374054,-164.4045868,-5.7709923
9030,-0.9576758,-0.5793939,9.3780403,-250.1374054,-120.2671738,-13.1297712
9040,-1.8961980,-1.0342898,10.9725704,-250.1374054,-80.7709961,-23.2290077
9050,-3.4596038,-1.9488702,12.0523500,-250.1374054,-54.8244286,-30.9618320
9060,-5.3414369,-2.9233053,12.9789009,-250.1374054,-48.0763359,-30.6412220
9070,-6.9216018,-3.5170643,13.7594070,-247.1908417,-47.0610695,-19.5419846
9080,-8.4131813,-3.5673423,15.0857878,-235.5725250,-42.9083977,2.7938931
9090,-9.1697454,-3.5673423,16.0147324,-223.7251892,-32.9541969,33.0534363
9100,-9.4187412,-3.3829896,16.6491928,-211.2748108,-14.7786255,66.8091583
9110,-9.1912937,-2.9640064,17.1352139,-198.0305328,10.5267172,103.3282471
9120,-8.3724804,-2.4229198,17.1663380,-183.5954132,36.1221390,136.8702240
9130,-6.7492199,-1.9943599,16.5175133,-171.8931274,51.8473282,162.4427490
9140,-4.6495161,-1.6208663,15.6579990,-164.7404633,58.3206100,176.5954132
9150,-2.6838863,-1.2976507,15.5358953,-159.1297760,57.0763359,180.3740387
9160,-1.0438666,-0.8882443,15.7298250,-151.9923706,54.9465637,175.1221313
9170,-0.2082945,-0.6224893,15.8423519,-143.6793823,54.2061081,165.0152740
9180,-0.2873027,-0.4644727,15.8734760,-134.1603088,52.0458031,154.5954132
9190,-0.8044477,-0.3758878,15.7801027,-123.9923630,46.8702278,146.9541931
9200,-1.5346755,-0.4955972,15.6532106,-112.7480927,36.4274826,142.9313049
9210,-2.4564383,-0.7565638,15.5311069,-101.7251892,24.6030540,145.3206177
9220,-3.0717452,-0.8858501,15.2940826,-93.5496216,18.6259537,156.0915985
9230,-3.0262554,-1.1372399,15.0283270,-89.9618301,21.8320618,171.8167877
9240,-3.1100521,-1.2880739,14.7290535,-90.5343475,27.1832066,189.1145020
9250,-2.8466914,-1.5586174,14.6955347,-93.8702316,33.7862587,207.8549652
9260,-2.1523764,-1.9632354,14.8487625,-98.7938919,41.1145020,225.2213745
9270,-1.6448082,-2.3558824,15.2198620,-103.1832047,50.6030540,240.3893127
9280,-1.0103480,-2.9065459,15.8902349,-104.3435135,59.3969460,250.1297760
9290,-0.6105183,-3.6559272,16.3978043,-101.8244247,63.3435097,250.1297760
9300,-0.3902529,-4.0820932,17.2644997,-94.5801544,60.2213745,250.1297760
9310,-0.4070122,-4.6758518,17.8582592,-81.8473282,54.0610695,250.1297760
9320,-0.0885850,-5.3103123,18.2652721,-66.3893127,45.0152664,250.1297760
9330,0.0167593,-5.9040713,18.7632618,-45.5954208,28.8931293,250.1297760
9340,0.3112446,-6.3637557,19.1247845,-19.8167934,6.8015265,250.1297760
9350,0.8858501,-6.7396431,19.1391506,9.6870232,-18.4122143,250.1297760
9360,1.5658000,-6.9263902,18.9787407,40.7709923,-42.2213745,250.1297760
9370,2.6407909,-7.0915890,18.5118732,73.0076370,-67.0076370,250.1297760
9380,3.7229645,-7.3717093,17.6020813,102.9007645,-88.4503784,250.1297760
9390,5.0230093,-7.4579000,16.7880573,125.1832047,-106.1450348,250.1297760
9400,5.6167684,-7.2448173,16.3211899,147.5343475,-123.7938919,250.1297760
9410,6.7803445,-6.8234401,15.9812145,171.5648804,-144.8931274,250.1297760
9420,8.2695303,-6.2703824,15.7801027,196.3358765,-166.2977142,250.1297760
9430,10.0795374,-5.4826937,15.9692440,223.0000000,-183.6717529,244.7328186
9440,12.4234495,-4.1922259,15.9788208,250.1297760,-191.4809113,213.8320618
9450,14.6356802,-2.6910689,15.5263186,250.1297760,-193.7404633,173.0000000
9460,16.1200771,-1.3479286,14.0227680,250.1297760,-190.9236603,125.3893127
9470,16.9341011,-0.1723816,12.1983957,250.1297760,-184.4809113,72.5572510
9480,16.7210197,0.5913648,10.0364418,250.1297760,-179.1297760,19.6335869
9490,16.2254219,1.1372399,7.6805596,250.1297760,-172.7938995,-30.3664131
9500,15.7082767,1.4700323,5.2049680,250.1297760,-165.8015289,-74.5572510
9510,14.7482071,1.7381816,2.8993635,250.1297760,-162.1679382,-115.0000000
9520,13.8455973,1.7166338,1.2808913,250.1297760,-162.0381622,-149.2366486
9530,13.2614155,1.7980363,1.0366840,241.1145020,-159.6793823,-178.5038147
9540,12.3923244,1.7908537,1.4293311,210.4122162,-151.9923706,-201.9923706
9550,11.7267399,1.2042773,1.5658000,189.7557220,-140.5648804,-222.8473358
9560,10.7906122,1.1611819,0.6584021,166.4809113,-131.9847260,-239.2213745
9570,9.9478569,1.0390782,0.2537841,139.7175598,-123.7709961,-250.1374054
9580,9.3397331,0.8619082,0.5698171,115.6717529,-115.0763321,-250.1374054
9590,8.8776541,0.5410868,1.0079538,98.5267181,-108.6259537,-250.1374054
9600,7.9918046,0.4261657,1.7333932,89.5190811,-105.3893127,-250.1374054
9610,6.6295104,0.0023942,1.6855093,85.7709961,-106.5725174,-250.1374054
9620,4.8195033,-0.1005560,1.0247130,79.8778610,-114.9389343,-250.1374054
9630,3.1172347,-0.1699875,0.1484398,68.0916061,-126.8015289,-250.1374054
9640,1.7238164,0.0191535,-0.3950413,50.5954208,-140.2213745,-250.1374054
9650,0.9121862,0.2274480,-0.5985473,31.2213745,-152.8473358,-250.1374054
9660,0.5793939,0.4860204,-0.3543400,11.8854961,-160.8320618,-250.1374054
9670,0.1221037,0.6943150,-0.3519458,-7.4503818,-161.3969421,-250.1374054
9680,-0.5746055,0.8259954,-0.4908088,-29.2977104,-157.5954132,-233.6488495
9690,-1.2689204,0.8188128,-0.5889706,-52.3435097,-153.1755676,-214.9465637
9700,-1.9297167,0.8523315,-0.4836263,-76.5419846,-147.2061005,-194.7938995
9710,-2.4660151,0.7398046,-0.4022238,-100.6564865,-143.0915985,-172.9389343
9720,-2.7150109,0.5769997,-0.2370248,-124.9083939,-138.4656525,-150.4503784
9730,-2.6623387,0.3687052,0.0502780,-147.7022858,-139.5038147,-130.4274750
9740,-2.5761478,0.0598547,0.8858501,-165.6488495,-147.3740387,-113.9847336
9750,-2.5282640,-0.1340746,1.6352314,-178.6946564,-159.4503784,-98.7709961
9760,-2.2625091,-0.2154770,2.2720859,-188.8473358,-169.7022858,-85.0076370
9770,-2.0015423,-0.3591284,2.9759774,-197.9160309,-171.7175598,-73.4274826
9780,-2.2194135,-0.4572902,3.3805954,-207.4274750,-170.9313049,-61.9465637
9790,-2.2553265,-0.5817881,3.7469065,-218.9847260,-167.3587799,-50.8091621
9800,-2.3056045,-0.5458752,4.5800843,-232.7862549,-157.2900696,-41.6488533
9810,-2.7581062,-0.9097920,6.0932121,-245.8549652,-140.7480927,-32.7175560
9820,-3.7085996,-1.1180865,7.9894104,-250.1374054,-121.6793900,-22.2290077
9830,-4.8266859,-1.3886299,9.7994175,-250.1374054,-103.3740463,-7.1221375
9840,-5.8226686,-1.8243724,11.3245163,-249.0915985,-86.3664093,14.5725193
9850,-6.3350253,-2.2050486,12.4186611,-241.6183167,-69.8320618,40.6564903
9860,-6.1219425,-2.4684093,13.1105814,-236.9084015,-50.6412201,67.1526718
9870,-5.3677726,-2.4803803,13.8503857,-234.7786255,-30.7328243,89.2519073
9880,-5.2384863,-3.0956869,14.6572275,-235.5267181,-5.4961834,108.7175598
9890,-5.8346395,-3.6128318,15.6244802,-237.7022858,24.2977104,129.4503784
9900,-6.3733325,-3.7900019,16.5941277,-239.1221313,55.4198456,150.8473358
9910,-7.0844064,-4.1754665,17.5901108,-234.5190887,84.2137375,171.8931274
9920,-8.0229292,-4.7213416,19.1199970,-219.6564941,96.1603088,194.0534363
9930,-8.2647419,-4.3143296,19.6126022,-196.4656525,84.6412201,211.0839691
9940,-7.8266053,-4.1634955,19.6126022,-164.3816833,61.0152664,222.7786255
9950,-6.7085190,-4.0318151,19.6126022,-129.6793823,38.9847336,232.1297760
9960,-5.0325861,-3.5026991,19.6126022,-99.2290039,32.2595406,236.6641235
9970,-3.6942344,-2.9568241,19.6126022,-78.0381699,35.4503822,235.8167877
9980,-3.0717452,-2.4827745,19.4503956,-62.3587799,37.8854980,232.1450348
9990,-2.9520357,-2.2122312,18.4615955,-48.5419846,35.2595406,228.5725250
