timestamp,acclX,acclY,acclZ,gyroX,gyroY,gyroZ
0,-0.2825144,0.3136388,10.0627785,-0.3053435,-0.1221374,0.7557252
10,-0.2657550,0.3064562,9.9957409,-0.1832061,0.0992366,0.6030535
20,-0.2130829,0.3064562,9.9526453,-0.4274809,0.0610687,0.1603053
30,-0.2489957,0.3112446,9.9550400,-0.5343512,-0.3969466,-0.1755725
40,-0.2274480,0.2681492,9.9694052,-0.2290076,-0.6641222,-0.6488550
50,-0.2920911,0.2633608,10.0340481,-0.0152672,-1.0381680,-0.5190840
60,-0.4046180,0.2657550,10.0316534,0.4045801,-1.3282443,-0.5419847
70,-0.4237715,0.2418131,10.0220766,0.5496183,-1.2824427,-0.1526718
80,-0.3639168,0.2585725,9.9741936,0.7251908,-1.4580153,0.1908397
90,-0.2992737,0.2657550,9.9310980,1.4274809,-2.1374047,0.2900763
100,-0.3303981,0.2442073,9.9694052,1.4656489,-2.3816793,0.4274809
110,-0.2801202,0.2705434,9.9430685,1.5038168,-1.9312977,0.3358779
120,-0.3663110,0.2992737,9.9430685,1.1984733,-2.6641221,0.3053435
130,-0.2729376,0.2992737,9.9478569,1.0610687,-3.1450381,0.1450382
140,-0.3208214,0.2059003,9.9430685,0.7022901,-2.8091602,0.4809160
150,-0.3112446,0.3112446,9.9885588,0.8778626,-3.3740458,0.5725191
160,-0.3184272,0.2753318,9.9023676,1.1145039,-4.7557254,0.7022901
170,-0.3974355,0.2920911,9.9741936,1.0534351,-4.9465647,1.3511450
180,-0.3423691,0.2801202,9.9837704,1.3435115,-5.5038166,1.9389313
190,-0.3088504,0.3351865,9.9071560,1.0305344,-5.1832061,2.3511450
200,-0.3256098,0.4046180,9.9215212,1.2824427,-5.3664122,2.7251909
210,-0.1508339,0.3543400,9.9406748,0.8702290,-5.3435116,3.0152671
220,-0.1628049,0.3543400,9.8401184,0.6946565,-5.1145039,2.8091602
230,-0.1412572,0.4237715,9.8760319,0.4961832,-4.6641221,2.4732823
240,-0.1053443,0.3878587,9.8496952,0.7099237,-4.3969464,2.2290077
250,-0.0885850,0.4525018,9.8927908,0.1908397,-4.3206105,2.0763359
260,-0.0814024,0.3830703,9.8927908,0.0152672,-3.5725191,1.6641221
270,-0.0407012,0.5051740,9.8951855,-0.4885496,-4.9694657,-1.1068702
280,-0.0239419,0.5434810,9.9813757,-0.1679389,-9.3435116,-3.8473282
290,-0.1556223,0.5386927,10.1585455,1.7709924,-15.7480917,-7.5648856
300,-0.2537841,0.4261657,10.3309278,4.1832061,-22.9312973,-11.1374044
310,-0.3806761,0.3998296,10.5272512,7.3282442,-29.9389305,-14.4503813
320,-0.5291159,0.3064562,10.5272512,10.3129768,-34.3435097,-15.6030531
330,-0.5746055,0.1987177,10.5679522,12.1755724,-37.3587799,-15.2748089
340,-0.5123565,0.1556223,10.5009146,13.7251911,-39.4351158,-14.2519083
350,-0.5051740,0.2106887,10.4554253,15.5572519,-41.5954208,-13.1832066
360,-0.3471575,0.1580165,10.1489687,16.4732819,-44.2213745,-12.1145039
370,-0.3447633,0.0359128,9.7802639,16.0534344,-49.4274826,-10.6412210
380,-0.5051740,0.0718257,9.6533718,15.2671757,-56.9771004,-10.0076332
390,-0.9720409,0.1221037,8.7747040,13.3358774,-57.8015251,-8.8244276
400,-1.2449785,0.0167593,8.5352850,6.6641221,-62.3435097,-3.5648854
410,-0.2968795,0.1077385,9.8736372,-2.4503818,-92.1755753,3.9160306
420,-0.2944853,0.1723816,10.3381100,-1.6106870,-111.1145020,5.8167939
430,-0.2944853,0.2729376,10.3381100,0.3664122,-129.8244324,8.7862597
440,-0.5626345,0.6536137,9.7658987,0.0000000,-143.1984711,13.0229006
450,-0.6153067,0.8427547,9.4690189,-3.6946564,-155.5496216,18.0305347
460,-0.4118006,1.2114599,9.5049324,-8.2519083,-165.7862549,22.8396950
470,-0.1149211,1.2952565,9.7946291,-11.3358774,-173.9313049,26.1374054
480,-0.3303981,1.2617378,9.7922344,-11.8396950,-184.0152740,28.7251911
490,-0.6392486,1.0582317,9.8065996,-12.8702288,-194.0610657,34.8396950
500,-0.8451489,0.8427547,9.8425131,-16.3511448,-197.6641235,44.4503822
510,-1.0390782,0.7158626,10.2040358,-22.5801525,-185.8244324,56.3664131
520,-1.4987626,0.6464311,10.9749641,-29.9694653,-159.0763397,71.9389343
530,-2.0685797,0.4165890,11.8033543,-37.3282433,-113.5038147,88.9465637
540,-3.2991931,0.1125269,12.7370882,-44.8396950,-61.1068687,110.5267181
550,-3.5649481,-0.7398046,14.3483772,-47.1679382,-20.7404575,132.2519073
560,-3.2920105,-1.0271072,16.4241390,-38.7404594,11.3664122,152.3893127
570,-2.8873925,-1.8554969,17.1735210,-22.6641216,33.7022896,167.6259613
580,-2.5761478,-2.4971397,17.2046452,-5.6564884,41.2290077,178.4503784
590,-2.5833304,-2.9568241,17.1088772,10.7175570,28.8015270,185.9541931
600,-2.4109488,-3.3327117,17.2022514,28.6870232,2.8549619,194.1679382
610,-1.6304430,-3.8618276,17.1447906,47.2137413,-26.8778629,204.3740387
620,-0.2944853,-4.2281384,17.0322647,62.3969460,-47.5038185,216.6030579
630,2.1954718,-4.6758518,17.4823723,73.9923630,-50.8931313,231.2519073
640,5.9543490,-4.4196739,18.4400463,84.2748108,-27.0229015,242.8778687
650,9.4594421,-4.0773048,18.9093075,93.7251892,14.3587790,244.2442780
660,11.7099810,-3.6894460,19.0840836,102.0687027,53.2519073,235.7099304
670,13.0483322,-3.6271970,18.8614254,109.5343475,78.4351120,220.6183167
680,13.6923695,-3.4308734,18.5214500,122.1679382,87.2671738,199.4656525
690,14.0514975,-3.4859397,17.6403885,135.8702240,79.8320618,174.4732819
700,14.1807842,-3.5745249,16.4025917,147.7251892,62.7862587,146.8473358
710,14.4106264,-3.7301471,15.5718079,158.0229034,40.4503822,117.2366409
720,14.4944229,-3.6415622,14.8703108,167.8320618,17.8244267,85.5496216
730,14.1975431,-3.4428444,14.1520538,176.5648804,-0.4198473,52.2290077
740,13.6373034,-3.3231349,13.5104113,183.3664093,-11.1603050,21.7633591
750,12.9286232,-3.5649481,12.8974981,189.1145020,-14.6793890,-4.5419846
760,11.9015160,-3.9192882,12.0571384,193.7862549,-12.5572519,-26.6183205
770,10.7690639,-4.3813667,11.1018562,197.7786255,-8.0839691,-43.0076332
780,9.7012558,-4.7333126,10.2854376,201.6946564,-3.9770992,-52.9923668
790,8.9829988,-4.8338685,9.3517036,205.2519073,-0.7938932,-58.8320618
800,8.4036045,-4.6423335,8.5927458,207.8015289,1.4580153,-61.9847336
810,8.1665802,-4.4388270,7.6590118,210.0534363,1.5572519,-64.3358765
820,8.0899658,-3.9408360,6.8952656,211.4427490,1.3053435,-66.6030502
830,8.4467001,-3.1723011,5.9950504,210.6870270,1.3358779,-70.0610657
840,9.2798786,-2.2936335,5.0325861,206.6335907,1.8702290,-78.0000000
850,9.5839405,-1.4317253,4.2808108,199.7175598,0.2671756,-91.9923630
860,9.6437950,-0.7733232,3.6056492,191.9847260,-3.4274809,-108.7938919
870,9.1912937,-0.6368544,2.8395088,183.7328186,-11.2061071,-126.2824402
880,8.5759869,-0.5147507,2.5043221,175.3816833,-26.4580154,-142.1068726
890,8.2982607,-0.4932030,2.0973101,168.0381622,-45.6564903,-156.9923706
900,8.0779953,-0.5793939,1.6807210,161.5419922,-66.3587799,-172.1603088
910,8.1258793,-0.4501076,1.1875180,154.4045868,-89.7022934,-187.7786255
920,7.9439206,-0.3064562,0.7158626,144.6793823,-110.6793900,-203.1221313
930,7.7260494,-0.2968795,0.3399749,134.0152740,-126.4732819,-217.9313049
940,7.5656385,-0.1508339,-0.4094064,120.5572510,-143.3893127,-232.8320618
950,7.3286138,-0.0454896,-1.0558375,101.2748108,-154.9618378,-247.8015289
960,6.9982157,-0.1412572,-1.4125718,82.3816757,-161.1984711,-250.1374054
970,6.4954362,-0.4070122,-1.6088953,61.4885483,-162.3282471,-250.1374054
980,5.4036856,-0.9768293,-1.3622938,41.5114517,-156.9770966,-250.1374054
990,4.0533628,-1.3551112,-0.9433106,24.7099228,-147.2061005,-250.1374054
1000,2.5091105,-1.6519908,-0.3423691,12.1908398,-138.3511505,-250.1374054
1010,0.6967092,-1.8602852,0.2705434,4.7786260,-130.3129730,-250.1374054
1020,-1.4796091,-1.7597293,0.6057299,0.2824427,-126.0152664,-250.1374054
1030,-3.8043671,-1.5179161,0.7254394,-3.2671757,-125.7404556,-246.3053436
1040,-5.6670465,-1.0271072,0.6679789,-7.1145039,-130.5877838,-219.0305328
1050,-6.8090749,-0.4668669,0.3232156,-12.7480917,-136.2748108,-187.2366486
1060,-7.6398587,0.1053443,-0.2896969,-21.7633591,-142.4274750,-153.2671814
1070,-7.8625183,0.6153067,-0.8283895,-34.7480927,-147.9084015,-118.6488571
1080,-7.3980455,1.0917504,-1.3096216,-52.6412201,-146.1297760,-87.5267181
1090,-6.9814563,1.3168042,-1.3311694,-75.9542007,-133.2290039,-59.7099228
1100,-6.8138633,1.3551112,-1.2258250,-102.3129807,-111.9923630,-33.9618340
1110,-6.5241661,1.2497669,-0.9792235,-131.0458069,-86.0076370,-9.6183205
1120,-6.3326311,1.0462608,-0.5171449,-160.0229034,-61.1679382,11.7022905
1130,-6.1171541,0.5051740,0.1699875,-187.6106873,-40.1145020,31.0992374
1140,-6.0884237,0.0454896,1.3598996,-210.6870270,-24.9847336,49.4503822
1150,-6.1722202,-0.0502780,2.8969693,-226.0534363,-16.0534344,66.9923630
1160,-5.7891502,-0.0502780,4.4100971,-234.8625946,-11.4122133,80.6564865
1170,-5.4515696,0.0311245,5.8537931,-236.5954132,-12.2213745,90.0457993
1180,-4.9056940,-0.1053443,7.0556765,-232.3969421,-17.4427490,96.1603088
1190,-4.1491303,-0.2633608,7.7332320,-226.9847260,-22.7404575,97.8931274
1200,-3.5817075,-0.2418131,8.2072811,-222.0534363,-26.8396950,100.9007645
1210,-2.8897867,-0.3878587,8.6286592,-219.5954132,-28.1221371,100.8091583
1220,-2.3989778,0.1149211,9.1721401,-218.8473358,-25.7328243,97.5419846
1230,-1.9799947,0.2394189,9.7994175,-221.0992432,-17.6030540,92.9007645
1240,-2.0326669,0.3806761,10.4913378,-226.4580078,-2.0152671,84.1755753
1250,-2.4612267,0.1340746,11.3508520,-234.2366486,17.8625946,74.9160309
1260,-3.2465210,-0.8882443,12.1744537,-241.3206177,38.0839691,66.2519073
1270,-4.6279683,-2.1595588,13.0148134,-248.8702240,49.4351158,61.0687027
1280,-6.5457139,-3.2321558,14.8703108,-250.1374054,45.9618340,62.4198456
1290,-8.1163025,-3.8642218,17.3698444,-240.2824402,29.8015270,67.5267181
1300,-9.3636751,-4.3837609,19.6126022,-218.3358765,8.9541988,77.0687027
1310,-10.5368280,-4.8625989,19.6126022,-191.6870270,-10.8396950,97.8244247
1320,-10.5847120,-5.0852585,19.6126022,-166.4809113,-18.9541988,128.2366486
1330,-9.6605549,-5.0541339,19.6126022,-146.3358765,-13.6564884,161.8320618
1340,-8.2024927,-5.0661049,19.6126022,-136.5648804,3.6564887,193.6946564
1350,-6.5217719,-5.0445571,19.6126022,-133.5648804,27.1679382,220.7557220
1360,-4.8147149,-5.0541339,19.6126022,-132.5572510,53.7404594,240.0381622
1370,-3.3351059,-5.4850879,19.6126022,-130.4122162,71.5954208,249.4427490
1380,-2.3008161,-5.6167684,19.6126022,-123.6717529,68.4274826,250.1297760
1390,-1.4149660,-5.8801293,19.6126022,-107.8015289,47.8167953,243.2290039
1400,-0.5267217,-6.1841912,19.6126022,-86.2519073,18.2671757,232.1526642
1410,0.1436514,-6.4403696,19.6126022,-65.4122162,-10.0992365,223.2671814
1420,1.4197544,-6.5552907,19.6126022,-47.5877876,-27.8015270,217.8549652
1430,2.8179610,-6.6821828,19.6126022,-31.4045811,-30.2900772,212.3740387
1440,3.9144998,-6.9024482,19.6126022,-16.7404575,-19.6106873,206.9618378
1450,4.9535780,-6.9934273,19.6126022,-1.7404580,-1.2824427,201.1908417
1460,5.9806852,-6.8641410,19.6126022,15.2366409,19.1297703,192.3129730
1470,6.3062949,-6.6558466,19.6126022,32.3129768,37.6793900,182.5954132
1480,6.4068508,-6.6558466,19.6126022,46.7862587,45.7328262,172.9084015
1490,6.4283986,-6.7085190,19.6126022,62.6946564,42.4656487,162.5496216
1500,6.7061248,-6.7061248,19.6126022,82.4961853,34.0839691,150.6183167
1510,6.8952656,-6.5959921,19.6126022,103.7099228,24.7251911,137.3664093
1520,6.7468257,-6.6510582,19.6126022,129.5725250,14.8091602,124.3435135
1530,6.8401995,-6.8473821,19.2061882,155.5725250,5.4961834,112.7557220
1540,7.1562324,-6.8809004,18.2054157,179.9694672,2.0610688,101.8473282
1550,7.7954807,-6.7348547,16.6156750,201.9618378,3.5954199,89.1832047
1560,8.3796635,-6.3398137,14.6452570,218.2977142,8.7099237,75.5496216
1570,8.2958660,-5.9663200,12.9549589,227.2442780,10.9236641,60.8015251
1580,7.9846220,-5.4491754,11.6644907,232.4961853,8.4122133,47.6946564
1590,7.6542239,-5.2241216,10.7235746,237.8167877,0.5877863,35.6946564
1600,7.6039457,-5.0349803,9.7491398,243.6259613,-11.0992365,25.3893127
1610,7.6805596,-4.5705075,8.8656836,249.7480927,-25.6259537,13.5267172
1620,8.0109577,-4.2041965,7.7954807,250.1297760,-42.5267181,0.2061069
1630,8.3365679,-3.4667864,6.6678176,250.1297760,-59.0687027,-15.8931293
1640,8.4969788,-2.9352763,5.4850879,250.1297760,-74.9694672,-33.1755714
1650,8.5831690,-2.1691356,4.3526363,250.1297760,-89.3206100,-50.9160309
1660,8.7387915,-1.4772149,3.1675127,246.9084015,-98.9847336,-69.6717529
1670,8.5640154,-0.8379663,2.0470319,235.3129730,-103.8015289,-87.9389343
1680,8.1809454,-0.3471575,1.3934183,220.9236603,-104.5343475,-104.5496216
1690,7.5033898,-0.0957676,0.6919208,204.6564941,-103.0610657,-118.4885483
1700,6.6869712,0.1292862,0.0287303,186.4351196,-96.9542007,-128.6641235
1710,5.8490047,0.2753318,-0.5219333,166.9084015,-88.4274826,-135.0458069
1720,5.0972295,0.4237715,-0.8762733,147.0763397,-80.3129807,-138.6946564
1730,4.6686692,0.7158626,-1.1994889,128.1984711,-73.8167953,-141.7099304
1740,4.1227942,0.7924767,-1.5298871,109.0610657,-68.0457993,-144.7480927
1750,3.5386121,0.9983770,-1.8100072,88.9236679,-62.0992355,-147.1526642
1760,2.7964132,1.2330076,-1.8171898,69.9465637,-55.5419846,-148.7404633
1770,2.2409613,1.3670821,-1.9823889,49.0992355,-48.5419846,-149.5801544
1780,1.5777708,1.3527170,-1.9129574,30.2595425,-43.0763359,-149.9770966
1790,0.9528874,1.4029950,-1.9919657,9.9083967,-40.4045792,-150.7938995
1800,0.3495516,1.6065011,-1.8770446,-10.0152674,-38.9236641,-152.1984711
1810,-0.2825144,1.5274929,-1.3814473,-27.5877857,-39.8702278,-153.6488495
1820,-0.9145803,1.1587877,-1.0749911,-43.4122124,-44.0534363,-155.6335907
1830,-1.6639616,0.9385223,-0.6655847,-58.8778610,-52.2061081,-157.9084015
1840,-2.3582766,0.6967092,0.0311245,-71.6183243,-65.6564865,-161.0534363
1850,-3.0669568,0.3687052,0.6320660,-81.2748108,-82.9770966,-163.7099304
1860,-3.6152260,-0.0526722,1.1755470,-90.4045792,-99.5877838,-164.4198456
1870,-4.3646073,-0.3854645,1.7908537,-99.7480927,-110.9542007,-161.6641235
1880,-4.8218975,-0.6129125,2.4396791,-108.7938919,-118.7557220,-156.1984711
1890,-5.2863703,-0.9026094,3.1315999,-116.2061081,-126.9312973,-149.0381622
1900,-5.9280128,-0.8283895,3.9623835,-122.9007645,-134.1068726,-138.2366486
1910,-6.2919297,-0.8092360,4.4819226,-130.0152740,-137.6641235,-125.2290039
1920,-6.6175399,-0.8666966,5.0086441,-137.8167877,-145.5114441,-113.3969498
1930,-6.5672617,-1.0678085,5.9519548,-143.6717529,-161.5496216,-102.8625946
1940,-6.1841912,-1.4125718,7.1729918,-147.2671814,-174.2442780,-94.1603088
1950,-6.0453281,-1.8171898,8.5448618,-148.1679382,-181.0763397,-85.9694672
1960,-6.0429344,-1.8602852,9.7587166,-148.9541931,-174.8549652,-75.7557220
1970,-6.3733325,-1.7262106,10.3117743,-152.4045868,-152.7328186,-63.1603050
1980,-6.8617468,-1.6519908,10.5272512,-161.5190887,-122.4580154,-48.0687027
1990,-7.4842362,-1.8171898,11.3532467,-174.3129730,-92.3740463,-31.0076332
2000,-8.2671366,-1.9297167,12.6173782,-183.0458069,-65.8931274,-11.2442751
2010,-9.0907373,-2.2194135,13.5989962,-185.2519073,-45.2519073,12.2366409
2020,-9.3349447,-2.3391230,14.1113529,-183.1145020,-33.3816795,37.1526718
2030,-9.0763721,-2.0709739,14.3244352,-181.0305328,-22.1603050,62.1679382
2040,-8.5975342,-1.8746504,14.4561157,-181.9313049,-10.3053436,83.6946564
2050,-7.8553357,-1.8578910,14.8056679,-184.1221313,-0.4580153,98.1984711
2060,-7.3286138,-1.9225341,15.5670195,-185.0610657,7.3129773,109.8167953
2070,-6.9144192,-2.2481439,16.6156750,-182.4198456,7.0381680,116.4503784
2080,-6.7252784,-2.9472473,17.6188393,-174.7557220,-1.3816794,122.2671738
2090,-6.8521700,-3.6655040,18.5932751,-164.0763397,-10.4809160,133.1374054
2100,-7.0700417,-4.2879934,19.3833580,-154.3358765,-11.7938929,152.4656525
2110,-6.7540083,-5.1403246,19.6126022,-145.1984711,-7.0458016,177.7557220
2120,-6.0980005,-6.0692701,19.6126022,-133.1832123,-3.3435113,206.0686951
2130,-4.9799142,-6.5481081,19.6126022,-115.7328262,-2.2366412,233.0763397
2140,-3.2225790,-7.0580707,19.6126022,-94.3740463,-0.4809160,250.1297760
2150,-1.0797794,-7.3453732,19.6126022,-71.5572510,6.8854961,250.1297760
2160,1.2090657,-7.2735476,19.6126022,-48.9771004,17.0687027,250.1297760
2170,3.2728570,-7.0413113,19.6126022,-28.7786255,26.9618320,250.1297760
2180,5.0565281,-6.6821828,19.6126022,-10.3053436,32.7786255,250.1297760
2190,6.4930420,-6.0884237,19.6126022,8.1679392,32.3664131,250.1297760
2200,7.9343438,-5.7460546,19.6126022,26.6641216,28.2748089,247.7404633
2210,9.0069408,-5.3845320,19.6126022,43.9771004,23.2900772,222.5954132
2220,9.4546537,-5.1115947,19.6126022,61.7786255,16.0534344,196.1145020
2230,9.5073261,-4.8003497,19.6126022,83.6870193,6.3206105,169.6488495
2240,9.8975792,-4.5369892,19.4456062,109.1832047,0.1832061,144.9770966
2250,10.0915089,-4.1012464,18.1503506,134.3053436,-2.6717558,121.7404556
2260,10.3572636,-3.5290353,16.4744167,153.5496216,-2.7480917,98.7862625
2270,10.4769726,-3.1268115,14.7841196,166.5648804,2.1908398,76.3511429
2280,10.5057030,-2.5929072,13.2135315,174.9389343,8.1221371,54.7099228
2290,10.3500814,-2.1547706,11.7339230,178.4809113,12.1755724,32.5267181
2300,9.7994175,-1.7501525,10.4362717,179.8473358,12.4274807,11.3969469
2310,9.2200232,-1.5203103,9.0667953,179.2061005,9.0839691,-6.9389315
2320,8.6933022,-1.3431402,8.2000990,177.3435059,3.0000000,-23.4503822
2330,8.1881275,-1.1204807,7.1658092,174.8091583,-6.3129773,-38.6259537
2340,7.9008250,-0.7924767,6.1578555,170.5190887,-15.5801525,-52.4351158
2350,7.6997132,-0.4955972,5.1906028,163.8549652,-22.7862587,-65.5343475
2360,7.2950954,-0.2537841,4.5082588,155.8854980,-27.3129768,-78.6183243
2370,6.7659793,-0.1101327,3.8211265,146.3282471,-29.6335869,-90.4122162
2380,6.0980005,-0.0742199,3.2177906,136.1984711,-29.1068707,-99.4580154
2390,5.3605900,-0.0861908,2.4205256,123.6870193,-26.4427490,-106.6335907
2400,4.6327567,-0.0861908,1.6807210,110.2213745,-24.7862587,-111.0992355
2410,4.0006905,-0.0814024,1.0390782,95.3740463,-24.6030540,-114.3129807
2420,3.1507533,-0.1364688,0.5171449,79.4503784,-26.8778629,-116.4045792
2430,2.2505381,-0.0550664,-0.0454896,62.4732819,-29.8015270,-115.6335907
2440,1.4197544,-0.0311245,-0.4548960,42.7328262,-32.5343513,-112.1526718
2450,0.9720409,0.1723816,-0.4381367,21.3358784,-33.9007645,-108.3435135
2460,0.5961532,0.2154770,-0.0263361,-0.0687023,-34.0305328,-105.8015289
2470,0.0430954,0.1053443,0.8475431,-17.4351139,-35.3511467,-104.2137375
2480,-0.3902529,0.1412572,1.5777708,-30.8931293,-36.2519073,-102.2824402
2490,-0.9193687,0.1628049,2.3103929,-41.0992355,-35.7328262,-101.3358765
2500,-1.2545552,0.1316804,2.8538737,-47.8015251,-37.4656487,-102.3358765
2510,-1.5705882,0.2130829,3.3758070,-52.3893127,-40.4885483,-105.1221390
2520,-2.2505381,0.3088504,3.2800395,-59.6183205,-43.2900772,-109.3893127
2530,-2.8730273,0.0909792,3.6391680,-62.6641235,-47.3893127,-112.7862625
2540,-3.7852135,0.2537841,3.2417326,-70.7862625,-53.9083977,-116.4732819
2550,-4.5322008,0.0502780,2.8419030,-87.6259537,-57.3969460,-118.5725174
2560,-5.6790175,-0.3974355,3.7325413,-106.5877838,-56.0610695,-117.3282471
2570,-7.3453732,-1.3934183,5.2767935,-119.4885483,-53.4427490,-108.8015289
2580,-8.7723103,-1.7166338,6.7228842,-125.3587799,-54.1679382,-93.7022934
2590,-9.7611103,-1.8938038,7.6685886,-126.2824402,-53.0916023,-74.3053436
2600,-10.3476868,-1.9081690,8.2599535,-126.4351120,-49.1679382,-54.1297722
2610,-10.9701757,-1.8507085,8.7531567,-127.6946564,-45.6717567,-31.9236641
2620,-11.2359314,-2.0087249,9.0189114,-130.2290039,-41.8473282,-7.8091602
2630,-11.4538021,-2.0350611,9.3277617,-135.1450348,-37.6030540,17.8549614
2640,-11.1329813,-2.1068866,9.7467451,-142.5648804,-31.4732819,44.5419846
2650,-10.6230183,-2.4588325,10.5080976,-151.4198456,-25.5648861,70.0457993
2660,-9.8903971,-2.8706331,11.7291346,-158.8549652,-21.8854961,93.1068726
2670,-9.0787668,-3.2632802,13.2494440,-162.3206177,-18.3587780,113.5038147
2680,-8.3389616,-3.6008608,14.6739874,-160.8702240,-17.5801525,130.4656525
2690,-7.6302819,-3.9599893,16.4289284,-152.5877838,-24.1450386,144.3435059
2700,-6.7157016,-4.1778607,17.9659977,-136.7328186,-34.9312973,154.6793823
2710,-5.9399838,-4.5226240,19.2708302,-115.7404556,-45.0763359,163.1297760
2720,-5.2791877,-4.8937230,19.6126022,-90.6030502,-54.4045792,172.1984711
2730,-4.5920553,-5.1283536,19.6126022,-62.8778610,-65.7557220,183.4580078
2740,-3.5266411,-5.3965030,19.6126022,-36.2900772,-73.9618301,195.4961853
2750,-2.2098370,-5.5281835,19.6126022,-12.8244276,-75.1908417,208.6793823
2760,-0.5434810,-5.8705525,19.2085819,4.5190840,-68.8167953,221.1832123
2770,1.2258250,-5.9591374,18.6890430,15.9160309,-57.8931313,230.8244324
2780,2.7724714,-5.8585815,18.4855366,24.1068707,-46.0000000,235.5877838
2790,4.2041965,-5.7652082,18.4520187,33.6946564,-36.0458031,235.2671814
2800,5.4348102,-5.5784616,18.6196117,46.2290077,-28.9694653,230.7251892
2810,6.7468257,-5.1618724,18.5262375,61.7175560,-25.4961834,220.9313049
2820,7.9056134,-4.8195033,18.3658276,79.5725174,-25.1145039,205.8931274
2830,9.0500364,-4.2760224,17.7098198,99.5343475,-26.6488552,185.6793823
2840,9.8520899,-3.5745249,16.6180687,115.9312973,-27.1068707,160.8091583
2850,10.0986910,-2.9472473,15.3252068,128.8167877,-29.4961834,134.1908417
2860,10.3141680,-2.5115047,14.3340120,137.1145020,-33.8702278,106.6870193
2870,10.0819321,-2.1475880,13.4936514,143.2900696,-40.1221390,80.3053436
2880,9.7515335,-1.8100072,12.8400383,148.6793823,-47.7480927,56.3969460
2890,9.7802639,-1.6783268,12.1074162,155.1145020,-54.3358765,34.7862587
2900,9.7587166,-1.4173602,11.5926657,161.5954132,-57.2748108,14.4122133
2910,9.9526453,-1.1516051,11.1042509,167.6106873,-57.1450386,-5.5267177
2920,9.8592720,-1.0462608,10.5104914,173.3664093,-54.8320618,-24.0534344
2930,9.9071560,-0.8571198,9.7802639,178.0000000,-51.5801544,-41.7022896
2940,9.8161764,-0.6967092,8.9327211,180.6946564,-47.4580154,-59.0305328
2950,9.6126709,-0.5626345,7.9415264,181.6641235,-42.5419846,-74.9847336
2960,9.2774839,-0.5530578,6.8713236,179.9007568,-37.8931313,-90.0000000
2970,8.8561068,-0.3399749,5.6981707,174.7709961,-34.5419846,-103.6106873
2980,8.2216463,-0.2011119,4.6543045,167.0229034,-33.9541969,-116.3206100
2990,7.8912482,0.1292862,3.6176202,156.3282471,-35.9007645,-127.9236679
3000,7.4914188,0.4668669,2.6910689,143.6717529,-40.4503822,-139.6717529
3010,6.9646969,0.6440369,2.0781565,129.5496216,-47.3893127,-150.8091583
3020,6.3158717,0.7589580,1.6998745,116.8091583,-55.4732819,-161.0076294
3030,5.5449429,0.7852941,1.4101776,104.7328262,-65.1145020,-169.5190887
3040,4.5585365,0.6847382,1.4772149,93.2442780,-77.9694672,-176.3282471
3050,3.3901722,0.5817881,2.0039365,85.3358765,-94.6259537,-180.1908417
3060,2.4779861,0.4740495,2.6120608,83.1068726,-109.6641235,-181.4045868
3070,1.6831152,0.5506636,2.6336083,84.0916061,-120.2442780,-179.4122162
3080,0.9289455,0.9552816,2.1499822,83.3664093,-128.5114441,-176.0915985
3090,0.2202654,1.3048333,1.2377959,78.3969498,-135.2366486,-172.6335907
3100,-0.2968795,1.9129574,0.3160330,67.7480927,-139.4809113,-168.2213745
3110,-1.1372399,1.8100072,-0.3615226,51.0839691,-140.7862549,-164.1450348
3120,-1.7070571,1.8818330,-0.6296718,31.3587780,-144.3816833,-155.2977142
3130,-1.9536586,1.7166338,-1.4987626,3.1526718,-140.7175598,-143.7633514
3140,-2.2696917,1.5083394,-2.0949159,-35.0228996,-129.4809113,-131.6412201
3150,-2.6790979,1.1228749,-1.9608412,-81.5190811,-113.2824402,-118.8778610
3160,-3.5218527,0.5219333,-0.6368544,-127.3816757,-95.8396912,-105.7633591
3170,-4.7955613,-0.5482694,1.5658000,-165.8244324,-86.8091583,-89.0076370
3180,-6.1865854,-1.2880739,3.8690102,-189.6641235,-93.7633591,-68.5267181
3190,-7.1011658,-1.9943599,6.3398137,-200.2213745,-114.9694672,-43.5190849
3200,-7.0556765,-2.3798244,8.2192526,-198.0534363,-137.5419922,-17.0763359
3210,-6.3805151,-2.4277081,9.8999729,-190.1068726,-150.0381622,9.9618320
3220,-5.3534074,-2.2864509,10.9414454,-180.8549652,-147.8015289,35.7709923
3230,-3.9599893,-1.7046629,11.5878773,-174.4961853,-128.6717529,57.4809151
3240,-2.6431851,-1.1683644,11.7985659,-175.1374054,-93.9160309,72.8320618
3250,-1.9177457,-0.6177009,11.8153248,-184.0610657,-48.7251892,83.8396912
3260,-1.8267666,-0.7972651,12.2917690,-199.5190887,-1.7938931,90.8549652
3270,-2.8562679,-1.1516051,13.9988260,-211.3053436,23.8015270,96.1603088
3280,-4.3215117,-2.0685797,16.9269199,-210.6183167,21.1984730,104.0229034
3290,-5.0110383,-2.7820482,19.6126022,-187.8702240,-0.3053435,115.0534363
3300,-4.9392128,-3.2632802,19.6126022,-144.8244324,-29.1297703,127.6412201
3310,-4.6854286,-3.5386121,19.6126022,-94.8473282,-56.7709923,141.8091583
3320,-3.7085996,-3.5625539,19.6126022,-49.7938919,-77.4656525,157.7480927
3330,-1.5945302,-3.2752512,19.6126022,-17.2290077,-78.7251892,173.4732819
3340,0.6200951,-2.5881188,19.6126022,2.7938931,-58.1679382,186.3740387
3350,2.5976956,-2.1906834,19.6126022,12.2290077,-26.1755733,195.9389343
3360,3.9575951,-2.0518203,19.6126022,16.1526718,7.0687022,202.9236603
3370,4.6926112,-2.0111191,19.6126022,22.0992374,32.3206100,208.2137451
3380,5.3151007,-2.3486998,19.6126022,33.8091621,40.5725174,212.5190887
3390,6.4930420,-2.5737536,19.6126022,51.7786255,37.7938919,216.1908417
3400,7.9989872,-2.6862805,19.5126438,71.8473282,31.0305347,216.1755676
3410,10.3141680,-2.1499822,19.4288483,91.9465637,27.2442741,208.1832123
3420,12.4761209,-1.4460905,18.9691639,112.2595444,29.0534344,190.8396912
3430,14.1568422,-0.6727672,18.1072540,130.4656525,37.8396950,165.0763397
3440,15.1456423,0.0550664,16.9388905,144.7938995,50.0763359,134.5877838
3450,15.1624022,0.4860204,15.5287132,154.0000000,62.0305328,101.5419846
3460,14.2669754,0.5530578,14.1544485,159.2213745,67.0000000,70.6793900
3470,13.0315733,0.4141948,12.7634239,162.8244324,64.7251892,44.6412201
3480,11.7387114,0.1292862,11.5854826,166.4427490,57.0381660,25.6183205
3490,10.9462337,0.0718257,10.2806492,168.4732819,46.8015251,11.2366409
3500,10.5583754,0.2178712,9.2272062,168.4274750,36.4351158,-0.6564885
3510,10.5416164,0.4118006,8.2168579,165.9084015,29.9312973,-12.6564884
3520,10.5511932,0.6296718,7.3022780,160.4503784,28.5801525,-24.9847336
3530,10.5511932,0.8714849,6.5361371,152.5801544,30.4732819,-37.9847336
3540,10.4195127,0.9624642,5.7939386,142.7022858,34.8167953,-51.4656487
3550,10.0723553,1.0558375,5.0493455,131.3053436,39.9312973,-64.2671738
3560,9.4714136,1.0462608,4.3981261,119.6183243,42.2213745,-75.5343475
3570,8.8728657,1.0941446,3.9168940,108.2366409,39.5267181,-84.4045792
3580,8.3054428,0.9959828,3.5362179,99.5877838,32.9389305,-92.3282471
3590,7.8649125,1.0127422,3.2537034,89.5496216,25.0839691,-98.7633591
3600,7.4674768,1.0486550,2.9664006,81.9923630,14.9236641,-104.6488571
3610,7.2927012,1.1348459,2.7796540,75.4732819,3.4503818,-110.3206100
3620,6.9192076,1.3048333,2.4755919,69.5648880,-7.0076337,-117.4198456
3630,6.6941538,1.4006008,1.6735384,61.2900772,-18.0763359,-124.1755753
3640,6.5098009,1.4652439,1.0965388,50.2595406,-27.3587780,-131.4427490
3650,6.1267309,1.4508789,0.8116302,37.4427490,-34.6870232,-138.0610657
3660,5.3222833,1.3766589,0.6703730,23.1908398,-40.9083977,-143.1374054
3670,4.4914994,1.1061156,0.6081241,9.5114508,-46.6793900,-145.5267181
3680,3.5745249,1.0055596,0.4644727,-5.3740458,-52.1297722,-143.5267181
3690,2.9233053,0.8762733,0.2513899,-22.2595425,-54.3587799,-138.7709961
3700,2.4755919,0.8140244,0.2274480,-42.0228996,-52.0534363,-132.5954132
3710,1.9105632,0.7014975,0.5937590,-62.3969460,-47.8854980,-125.6717529
3720,1.6280488,0.5769997,0.6129125,-82.7328262,-41.7633591,-118.8625946
3730,1.2545552,0.2513899,1.0965388,-102.7862625,-38.2900772,-114.0610657
3740,0.8379663,-0.0909792,2.0470319,-119.2977066,-38.0687027,-111.7633591
3750,0.4333483,-0.6129125,3.1962428,-130.8396912,-42.2442741,-111.3206100
3760,0.0502780,-1.1994889,4.5226240,-136.3435059,-48.8854980,-112.2748108
3770,-0.2992737,-1.5418580,6.1458845,-136.4274750,-56.2213745,-113.9923630
3780,-0.5650287,-1.8435259,7.6302819,-132.9694672,-52.0228996,-116.7251892
3790,-1.3790531,-2.0853391,8.2503767,-128.6030579,-37.4656487,-119.4503784
3800,-2.6216373,-2.2170193,8.3102312,-127.5343475,-16.5496178,-119.8778610
3810,-4.1563129,-2.7078283,7.9295554,-131.4351196,10.0152674,-114.7709961
3820,-5.8513989,-2.9137285,7.5776095,-137.7251892,35.1297722,-103.4961853
3830,-6.9958215,-3.0932927,7.1897511,-144.8473358,52.7480927,-87.8320618
3840,-8.0037756,-2.9783716,6.8689294,-152.0458069,59.6259537,-71.2213745
3850,-8.8920193,-2.5617826,6.7109132,-159.5343475,53.8473282,-54.2748108
3860,-9.3229742,-2.3486998,6.9000540,-167.7862549,35.9541969,-37.9389305
3870,-9.1386213,-2.4564383,7.7116842,-177.0763397,10.7480917,-23.5648861
3880,-8.9662399,-2.2505381,9.0931320,-184.0152740,-12.8320608,-10.2748089
3890,-8.8704720,-2.3391230,10.9222927,-188.0686951,-28.4656487,3.6488550
3900,-8.9422979,-2.4708035,12.8352499,-187.3053436,-38.0839691,19.1068707
3910,-9.2511482,-2.4468615,14.6093445,-180.8091583,-41.7022896,37.5038185
3920,-9.1577749,-2.4085546,15.9189653,-171.0458069,-39.8778610,56.9465637
3930,-8.9614515,-2.7245877,16.7521439,-161.0458069,-34.0610695,76.0152664
3940,-8.8513184,-2.8993635,17.4991302,-151.9313049,-27.8167934,93.5038147
3950,-8.8177996,-3.0310438,18.3490677,-143.1450348,-24.0458012,113.7251892
3960,-8.3126259,-3.3949606,19.3139267,-132.6259613,-22.2671757,133.9465637
3970,-7.6709828,-3.8737986,19.6126022,-119.5496216,-21.0152664,154.1450348
3980,-7.0724359,-4.4651632,19.6126022,-106.9389343,-19.5954189,175.5267181
3990,-5.9567432,-4.9200592,19.6126022,-94.6564865,-16.2519093,195.9694672
4000,-4.8673873,-5.1139889,19.6126022,-81.4885483,-11.7328243,214.6106873
4010,-3.6774750,-5.2815819,19.6126022,-67.0687027,-6.9007635,229.1068726
4020,-2.3870070,-5.5401545,19.6126022,-49.3129768,-2.8549619,238.8702240
4030,-1.1827296,-5.6359220,19.6126022,-30.2595425,-2.4885497,242.5725250
4040,-0.0023942,-5.4755111,19.6126022,-10.4503813,-3.8931298,241.2977142
4050,1.1109039,-5.2839761,19.6126022,8.2748089,-5.9083967,235.0229034
4060,1.9273225,-5.0373745,19.6126022,25.7709923,-8.7251911,224.2977142
4070,2.4468615,-4.8721757,19.2708302,41.2137413,-12.4961834,211.4885559
4080,2.8873925,-5.0445571,18.5956688,55.2519073,-20.0229015,197.2290039
4090,2.9328821,-5.1522956,18.4591999,70.5343475,-33.1755714,182.7480927
4100,2.6216373,-5.3725610,18.3873749,89.2977066,-50.9389305,170.5954132
4110,2.4133430,-5.6502872,18.2580891,110.8702316,-69.6946564,162.5801544
4120,2.6982515,-5.8011212,17.7313671,133.9313049,-85.6870193,156.9923706
4130,3.4284792,-5.8035154,17.2692890,155.0229034,-93.9389343,152.4809113
4140,4.6686692,-5.7580256,16.5079365,175.0381622,-91.5648880,147.1450348
4150,5.7652082,-5.4731169,15.4664640,192.5801544,-82.9312973,139.2061005
4160,6.6127515,-5.2049680,14.4154148,205.2748108,-77.1145020,130.4274750
4170,7.3908629,-4.9416070,13.8479919,214.9084015,-71.8320618,120.8167953
4180,8.0947542,-4.7788019,13.5535069,224.5114441,-69.7938919,111.3740463
4190,8.7172441,-4.8937230,13.6516685,235.9847260,-71.3664093,103.2366409
4200,9.6485834,-4.9080882,13.8695393,250.1297760,-75.0687027,93.7175598
4210,10.5296450,-5.1546898,13.6684275,250.1297760,-78.6641235,79.0381699
4220,11.2574787,-5.2863703,12.6796274,250.1297760,-82.5648880,60.3740463
4230,11.8177195,-5.2839761,10.8384953,250.1297760,-93.1603088,38.4198456
4240,12.1792421,-4.8793583,8.4012108,250.1297760,-104.9923630,14.4351149
4250,12.1672707,-4.2041965,5.6957769,250.1297760,-121.0534363,-11.4274807
4260,12.1169930,-3.1794837,3.1651185,250.1297760,-140.8091583,-38.5190849
4270,12.2438850,-1.8100072,1.2186425,250.1297760,-161.6259613,-67.0687027
4280,12.1912127,-0.6488253,0.0550664,250.1297760,-175.6488495,-96.8473282
4290,11.4490137,-0.1053443,-0.4118006,250.1297760,-178.8931274,-125.6793900
4300,10.3500814,0.1221037,-0.1197095,225.8167877,-171.2900696,-145.1984711
4310,9.5576038,0.1484398,-0.4405309,197.8167877,-150.8091583,-154.1603088
4320,8.6693602,0.3303981,-1.0127422,166.8702240,-121.3816757,-155.8396912
4330,8.0899658,0.7852941,-1.2928623,133.2671814,-85.2213745,-152.7709961
4340,7.6805596,0.9648584,-1.2114599,102.0763321,-52.0916023,-148.8702240
4350,7.4674768,1.1492109,-1.0989330,75.1908417,-24.7633591,-149.6259613
4360,6.6821828,1.4580613,-0.9935886,53.5877876,-8.9007635,-153.2824402
4370,6.0477223,1.3814473,-0.7948709,40.0228996,-3.1832061,-158.3969421
4380,5.0924411,1.4556671,-0.8690908,28.9083977,-10.0076332,-162.1679382
4390,4.2520804,1.5179161,-0.9385223,18.7251911,-24.2519093,-164.0992432
4400,3.5434003,1.6855093,-0.9720409,9.7175570,-39.9389305,-165.4580078
4410,2.8778157,1.8722562,-1.1659702,0.7251908,-54.1450386,-167.0915985
4420,2.2696917,1.9608412,-1.3527170,-10.6259546,-66.7709961,-168.3435059
4430,1.5945302,1.9392935,-1.7477583,-24.7480907,-75.0916061,-168.2748108
4440,0.8499373,1.8602852,-2.2553265,-43.3511467,-79.7862625,-166.1068726
4450,0.3232156,1.7142396,-2.5186872,-66.0763321,-83.3893127,-163.1755676
4460,-0.3615226,1.4484847,-2.2194135,-90.7404556,-86.0534363,-159.8549652
4470,-1.3263810,1.0199248,-1.7717001,-112.0763321,-89.5038147,-153.9236603
4480,-2.3941894,0.6177009,-1.2713146,-131.8473358,-91.6183243,-144.6030579
4490,-3.1986370,0.4333483,-0.9217629,-150.9084015,-93.4580154,-133.0534363
4500,-4.1323709,0.1340746,-0.5937590,-169.8625946,-95.0457993,-119.8015289
4510,-4.8721757,-0.1891410,-0.1484398,-187.9236603,-97.8320618,-104.9083939
4520,-4.8745699,-0.7709290,0.0981618,-206.9084015,-100.9389343,-90.3053436
4530,-4.6902170,-1.5059452,0.5865764,-227.7480927,-100.3282471,-78.6030502
4540,-4.7500720,-2.3702476,1.8483143,-244.4961853,-102.7938919,-67.8549652
4550,-4.7069764,-2.6982515,3.1699069,-250.1374054,-102.8854980,-57.3893127
4560,-5.9136481,-2.7317703,4.8578105,-250.1374054,-103.0000000,-46.4885483
4570,-7.9391322,-2.7820482,6.6678176,-250.1374054,-114.4045792,-30.0687027
4580,-9.1912937,-2.9376705,8.9542685,-250.1374054,-122.9465637,-2.1221373
4590,-9.3469152,-3.2896163,10.9701757,-243.6259613,-107.8244247,35.1755714
4600,-9.4450769,-3.6918402,12.4593620,-236.0305328,-66.6030502,75.6564865
4610,-9.3325500,-3.9815371,13.9940376,-228.2213745,-12.9389315,114.1832047
4620,-8.9446917,-3.9767487,15.2174683,-215.7557220,37.1068687,146.6641235
4630,-8.3748751,-3.4548154,15.1504307,-199.2366486,66.6412201,170.3129730
4640,-7.5488791,-2.5330524,14.1640244,-187.0305328,74.8015289,182.3893127
4650,-6.1650376,-1.6950861,13.6971579,-180.5419922,65.9770966,180.1297760
4660,-5.0756817,-1.1180865,13.7857428,-176.1755676,46.1908379,168.7328186
4670,-4.3598189,-1.0271072,14.5399122,-170.9007568,26.2977104,151.8167877
4680,-5.0230093,-1.3598996,15.4856176,-163.3435059,7.0000000,138.2137451
4690,-6.2057390,-1.9033806,16.6659527,-152.9236603,-15.2442751,135.9160309
4700,-6.0932121,-2.1404054,18.2796364,-141.3358765,-36.0076332,139.2366486
4710,-5.4970589,-2.3774302,19.6126022,-127.6488571,-42.9618340,144.6564941
4720,-5.0206151,-2.7293761,19.6126022,-110.9389343,-39.1908379,151.8702240
4730,-4.2472920,-2.8466914,19.6126022,-91.7404556,-28.9694653,158.5954132
4740,-3.6080434,-2.7628946,19.6126022,-72.6030502,-18.9160309,162.0381622
4750,-3.2728570,-2.8155668,19.6126022,-55.9847336,-18.1679382,164.2900696
4760,-3.0286496,-2.9089401,19.5677109,-42.2900772,-25.9236641,167.1755676
4770,-2.2912393,-2.9903426,18.8422718,-31.7175579,-36.7633591,170.8702240
4780,-1.1970947,-2.9616125,18.6651001,-21.8702297,-43.8167953,174.3053436
4790,0.0766141,-3.1196289,18.5645447,-13.2213745,-42.1679382,178.4122162
4800,1.5442522,-3.0214672,18.6579189,-5.6564884,-30.6946564,182.0992432
4810,2.9616125,-2.9927368,18.4208927,1.5877863,-13.8931293,182.1221313
4820,3.8498566,-2.9520357,17.8822002,6.9923663,2.2977099,180.8702240
4830,4.7476778,-2.8849983,17.4081516,10.7557249,12.1526718,177.4427490
4840,5.7987270,-3.0023136,17.5134964,13.8702288,15.0763359,170.6641235
4850,6.9623032,-3.1603301,18.2963963,20.0229015,16.7938938,160.8167877
4860,7.6877422,-3.4715748,18.7824154,30.7862587,18.8091602,148.0076294
4870,7.9654684,-3.8307030,19.0577488,45.7251892,19.3282452,135.3893127
4880,8.0037756,-4.1730723,18.9715576,63.9618340,14.6335878,122.7633591
4890,7.9822278,-4.4986820,18.5525742,82.8549652,5.3053436,110.8396912
4900,8.4227581,-4.5633249,18.0952835,100.6183243,-2.1221373,99.6564865
4910,8.7579451,-4.3598189,17.2932301,117.9923630,-2.3435113,87.5038147
4920,8.5783806,-4.3981261,16.2948532,132.4122162,-4.8167939,74.6946564
4930,8.5855637,-4.2257442,15.3898497,145.9084015,-10.2213745,62.1068687
4940,8.6693602,-4.0868812,14.4513273,158.2748108,-17.8854961,48.8778610
4950,8.9422979,-3.7804251,13.7019463,169.4732819,-30.5419846,34.1145020
4960,9.0811605,-3.4643922,13.0363617,179.8091583,-45.0000000,18.7862587
4970,9.4211359,-3.1890604,12.9166517,190.8396912,-64.7862625,2.7633588
4980,10.1513634,-3.0262554,13.1512823,205.0000000,-83.7480927,-13.6870232
4990,10.9175043,-2.8371146,13.2709923,223.3893127,-97.7175598,-32.1450386
5000,11.9853125,-2.6838863,12.2414904,242.0992432,-110.2900772,-53.3664131
5010,12.8735571,-2.2888451,9.9047613,250.1297760,-115.6870193,-76.5572510
5020,12.9980545,-1.7932479,7.5273318,250.1297760,-117.9007645,-99.7251892
5030,12.5192165,-1.1276633,6.0309634,242.7251892,-124.0992355,-121.7786255
5040,11.8751793,-0.7398046,5.4467812,226.8549652,-131.5496216,-140.4122162
5050,11.1425581,-0.8379663,5.0924411,212.3740387,-125.3816757,-156.0381622
5060,9.9885588,-0.8427547,4.8290801,199.9007568,-110.0152664,-165.0229034
5070,8.7100611,-0.8906385,4.0820932,186.9389343,-95.4961853,-167.0534363
5080,7.4579000,-0.6775556,3.0549858,173.2900696,-85.5267181,-163.5648804
5090,6.8042865,-0.4764437,1.9728121,156.9313049,-77.5801544,-157.2366486
5100,6.5768385,-0.0047884,1.0965388,137.8549652,-69.0687027,-150.8244324
5110,6.4691000,0.3471575,0.4405309,117.7786255,-58.9312973,-146.6641235
5120,6.1099715,0.5650287,-0.0814024,98.2290039,-47.9236641,-144.3129730
5130,5.6933827,0.6871324,-0.6009415,78.6641235,-38.5114517,-143.4274750
5140,5.1594782,0.9002152,-0.9816177,58.2213745,-28.7938938,-143.7251892
5150,4.4220681,0.8427547,-1.3144100,37.9923668,-19.7862587,-144.6946564
5160,3.4236910,0.7900825,-1.6974803,19.5419846,-17.1145039,-144.5343475
5170,2.4372849,0.7517755,-2.2146254,0.0916031,-21.2366409,-143.1908417
5180,1.8171898,0.7421987,-2.5067163,-20.5190830,-28.4961834,-141.3587799
5190,1.2234308,0.7206510,-2.2050486,-40.6870232,-38.1679382,-139.2748108
5200,0.7733232,0.5554519,-1.5586174,-57.6564903,-47.0000000,-136.9313049
5210,0.2968795,0.3950413,-1.2090657,-72.1679382,-54.7251892,-133.4885559
5220,-0.1675933,0.3878587,-0.9768293,-85.6335907,-63.4351158,-129.5954132
5230,-0.6368544,0.4812321,-0.6320660,-99.8549652,-71.1679382,-125.4809189
5240,-1.1492109,0.5386927,-0.1364688,-114.0687027,-81.1450348,-120.6183243
5250,-1.3958124,0.4141948,0.3160330,-127.1450348,-90.9312973,-116.6106873
5260,-1.6472024,0.2442073,1.0773853,-137.7022858,-103.9312973,-113.3893127
5270,-1.8914096,0.0215477,1.8267666,-145.5343475,-116.7633591,-110.7786255
5280,-2.4157372,-0.5482694,2.3247581,-151.4656525,-131.4351196,-106.1450348
5290,-3.1842721,-1.1563935,2.7102225,-155.2595367,-153.5572510,-96.8931274
5300,-3.3063757,-1.1970947,3.4404502,-158.3511505,-178.1755676,-85.1068726
5310,-2.5282640,-1.1899122,5.0086441,-161.3740387,-190.3893127,-75.2290039
5320,-1.8435259,-0.6823440,7.1442614,-160.6259613,-179.3740387,-66.4045792
5330,-1.8147956,-0.1364688,8.4826136,-157.4656525,-143.6946564,-58.5114517
5340,-2.7868366,0.1101327,8.8034344,-156.8549652,-96.3435135,-49.7862587
5350,-4.4172797,-0.0526722,8.1713686,-160.9236603,-57.6183205,-35.4427490
5360,-5.6287394,-0.1675933,7.8026633,-169.8549652,-35.4045792,-17.5343513
5370,-6.1003947,-0.2873027,8.0348997,-181.6641235,-26.3206100,-0.4580153
5380,-6.3613615,-0.6584021,9.3205795,-192.5267181,-19.6641216,16.6030540
5390,-6.4619174,-1.1851238,10.8504667,-199.1221313,-8.4885492,34.5038185
5400,-6.5720501,-1.3215926,12.2510672,-201.4961853,4.7938933,52.7251892
5410,-6.4691000,-1.2162483,13.8599625,-200.8854980,18.2519093,67.8854980
5420,-6.2919297,-1.7094513,15.1504307,-194.4885559,32.3511467,78.9694672
5430,-6.3206601,-1.9847831,15.8112268,-185.7633514,37.7938919,86.7862625
5440,-6.2775645,-2.4636209,16.2445755,-177.0534363,35.8549614,92.1832047
5450,-6.3948798,-2.8395088,16.8119984,-168.9541931,27.6564884,96.3053436
5460,-6.4595232,-3.2106080,17.8558655,-158.9236603,16.4580154,102.4503784
5470,-6.5744443,-3.6152260,18.8494530,-145.2748108,8.9389315,111.9007645
5480,-6.3661499,-3.8690102,19.4264526,-127.9542007,6.5343513,125.4732819
5490,-6.0692701,-4.0940638,19.4695492,-110.4045792,5.8931298,140.2519073
5500,-5.2193332,-4.1826491,18.8733959,-94.5648880,7.8702292,155.5954132
5510,-4.0342093,-4.0940638,18.0234585,-84.4274826,15.2824430,168.3969421
5520,-3.2513094,-4.3095412,16.8814297,-82.2442780,27.3893127,179.2213745
5530,-2.7221935,-4.4292507,16.4911766,-84.9618301,33.3511467,190.8473358
5540,-1.6304430,-4.5322008,17.1423969,-87.0916061,37.3664131,201.4122162
5550,-0.4046180,-4.6566987,17.9061432,-84.5267181,41.2442741,207.1526642
5560,0.5889706,-4.7931671,18.4352589,-76.2671738,43.7633591,209.4656525
5570,1.5274929,-4.7620430,18.6315823,-65.2366409,45.5038185,209.2900696
5580,2.4803803,-4.8362627,18.8302994,-53.1908379,47.7786255,205.6793823
5590,3.2656744,-4.8554163,18.7967815,-40.5572510,50.1450386,198.8473358
5600,3.6966286,-4.9487896,18.9045200,-28.9770985,51.0839691,191.4580078
5610,3.8235207,-5.1546898,18.9595871,-16.2977104,47.1145020,184.2977142
5620,4.0892754,-5.3198891,18.6938305,-4.3282442,41.8778610,178.7022858
5630,4.2712340,-5.4946647,18.6483421,6.3053436,36.5038185,174.2519073
5640,4.5010762,-5.5425487,18.5238438,16.6793900,32.2748108,171.2671814
5650,4.8769641,-5.6838059,18.7177734,26.9312973,31.2671757,168.4351196
5660,5.1570840,-5.5449429,18.9380379,39.1679382,31.2442741,164.7099304
5670,5.5066357,-5.6526814,18.7752342,55.3816795,28.9236641,158.9389343
5680,5.9639258,-5.7197185,18.3490677,72.0076370,25.0229015,151.6641235
5690,6.6917596,-5.6239510,17.8079815,89.2595444,20.9083977,141.4122162
5700,7.2855186,-5.3270717,17.1974621,103.8244247,14.3893127,128.8854980
5710,7.7380204,-4.9775200,16.6922894,122.2213745,3.4351146,112.4961853
5720,8.0277176,-4.7716198,16.0554352,141.5038147,-9.4427481,93.6030502
5730,8.1689749,-4.5369892,15.1432486,161.5648804,-21.5496178,76.6183243
5740,8.1953106,-4.2832050,13.9509420,178.8625946,-35.9771004,59.4122124
5750,8.2767134,-4.0054789,13.0483322,192.8702240,-52.9312973,41.8473282
5760,8.6909075,-3.5793133,12.2438850,204.6030579,-65.0381699,23.9236641
5770,8.9997578,-3.3710186,11.5519638,214.5725250,-69.9542007,4.3740458
5780,9.1458035,-3.0430148,10.8073711,223.5648804,-72.0916061,-13.8320608
5790,9.1290445,-2.7988074,10.1417866,229.5190887,-74.1832047,-31.0687027
5800,9.0883436,-2.8083842,9.2080526,235.6412201,-75.7328262,-47.4122124
5810,8.7794924,-2.6862805,8.3485384,239.6793823,-80.8931274,-61.6793900
5820,8.4395180,-2.6144550,7.7164726,242.6488495,-90.4198456,-74.4122162
5830,8.3988171,-2.3965836,6.9694853,244.9923706,-101.6259537,-85.6946564
5840,8.3389616,-2.3319404,6.2560172,247.5801544,-115.6564865,-96.5725174
5850,8.2719250,-1.8602852,5.2528515,249.0686951,-133.8396912,-109.1374054
5860,8.4538832,-1.5059452,3.8642218,246.2442780,-150.8320618,-122.0076370
5870,8.2958660,-1.0486550,2.3798244,236.7862549,-155.6946564,-134.9313049
5880,7.9654684,-0.4788379,1.1037214,220.5725250,-154.1526642,-145.3206177
5890,7.4315639,0.0263361,0.1628049,197.5801544,-147.9465637,-153.3740387
5900,6.7731619,0.5123565,-0.6224893,171.8473358,-139.2595367,-158.7328186
5910,6.2033448,0.8116302,-1.1348459,143.3893127,-128.0458069,-162.1374054
5920,5.5425487,1.1683644,-1.4077834,115.0457993,-113.8702316,-163.7938995
5930,5.0038562,1.4101776,-1.5394639,85.9312973,-98.0763321,-164.1755676
5940,4.4244623,1.6065011,-1.6088953,57.6946564,-80.2061081,-164.3664093
5950,3.6128318,1.6041069,-1.4820032,30.1984730,-65.1450348,-164.1908417
5960,2.5809362,1.6041069,-1.1803354,4.6946564,-51.8702278,-162.1297760
5970,1.7142396,1.6495966,-0.9983770,-18.1603050,-42.2137413,-158.6793823
5980,0.9121862,1.5466464,-0.7421987,-38.7709923,-36.1068687,-155.3129730
5990,0.2059003,1.3886299,-0.4285599,-58.3358765,-34.7328262,-151.1068726
6000,-0.2849085,1.0151364,-0.1891410,-76.4351120,-39.8931313,-147.6106873
6010,-0.6703730,0.7350162,0.1388630,-92.9770966,-48.5114517,-144.9770966
6020,-0.9576758,0.4501076,0.6488253,-108.6717529,-55.7633591,-143.3893127
6030,-1.4843974,0.0407012,1.2641320,-123.5267181,-60.0992355,-141.8396912
6040,-2.1571648,-0.3184272,2.1763182,-136.3740387,-63.7633591,-138.0686951
6050,-2.8586621,-0.3280039,2.9592183,-146.4961853,-66.9542007,-133.1374054
6060,-3.7756367,-0.4572902,3.5769191,-153.7709961,-74.4809189,-127.9542007
6070,-4.4795284,-0.7206510,3.8809812,-160.9847260,-83.2137375,-121.8854980
6080,-5.0876527,-1.0438666,4.3933377,-169.3664093,-88.2900772,-113.9542007
6090,-5.3917146,-1.6807210,5.1307478,-179.3282471,-88.6717529,-103.8625946
6100,-6.1243367,-2.2720859,6.2368636,-188.2519073,-80.8931274,-90.7022934
6110,-7.2065101,-2.4899571,7.6015515,-193.1221313,-69.0457993,-71.9083939
6120,-7.9702568,-2.4181314,8.9925756,-193.4351196,-57.4274826,-49.4885483
6130,-8.6789370,-2.2433555,9.8760319,-188.4198456,-47.9465637,-23.5801525
6140,-8.7866755,-1.8914096,10.2662840,-183.2061005,-40.4198456,1.6030535
6150,-8.5041609,-1.9345051,10.6038647,-179.5267181,-32.4274826,24.5954189
6160,-8.2144642,-2.2577207,11.0683374,-177.7480927,-23.0229015,46.1755714
6170,-8.1546097,-2.7748656,11.7195578,-176.5419922,-13.3435116,67.2671738
6180,-8.1282730,-3.3135581,12.7777891,-171.9313049,-8.6793890,88.4809189
6190,-8.3174143,-3.9671719,13.8192616,-160.8320618,-7.1297708,112.3816757
6200,-8.5233145,-4.0102673,14.2550039,-148.1603088,-5.5038166,139.0534363
6210,-8.1881275,-3.5290353,14.1736012,-140.8854980,0.6488550,166.9160309
6220,-7.2998838,-3.3087699,13.7618008,-144.4961853,16.4427490,191.3664093
6230,-6.1147599,-3.1148405,13.9820662,-156.5114441,36.4427490,210.7480927
6240,-4.6662750,-3.1124463,15.1815557,-168.8015289,51.9236641,221.4503784
6250,-3.3015873,-3.0789278,17.3004131,-173.3129730,60.1297722,222.2442780
6260,-2.0877333,-2.7796540,19.1271801,-166.8167877,61.5496178,213.0534363
6270,-1.5418580,-2.3894010,19.6126022,-150.0458069,57.3587799,196.2442780
6280,-1.3694763,-1.9584470,19.6126022,-124.5801544,45.6412201,175.1603088
6290,-1.7860653,-1.8866212,19.6126022,-91.9770966,26.9541988,153.1221313
6300,-2.8658447,-1.7908537,19.6126022,-60.2137413,1.2671756,135.7175598
6310,-3.6726866,-2.0566087,19.5629215,-36.0610695,-26.7251911,129.0000000
6320,-3.9791429,-2.2242019,18.3682213,-20.6335869,-48.1374054,131.9084015
6330,-3.6942344,-2.2744799,18.1000729,-10.4580154,-58.3282433,140.2595367
6340,-3.1627243,-2.5976956,17.7337608,-3.4198472,-55.8396950,151.3511505
6350,-2.3750360,-3.0023136,17.5374374,1.8625954,-47.5038185,164.5038147
6360,-1.4796091,-3.3398943,17.4967365,8.6335878,-39.2900772,176.4580078
6370,-0.4309541,-3.6535332,17.1376076,14.5267172,-32.7175560,186.7862549
6380,1.0223188,-3.7660601,17.1232433,20.4427490,-25.1679382,191.9541931
6390,2.4492557,-3.8426740,17.4249115,28.6183205,-21.4961834,190.4274750
6400,3.1315999,-4.0366035,17.5877151,40.5954208,-25.3893127,183.4885559
6410,3.6008608,-4.1658897,17.6619358,56.5038185,-36.4274826,175.2748108
6420,4.2472920,-4.0773048,17.2836533,73.2977066,-48.1297722,166.8931274
6430,4.8171091,-3.9719603,16.9341011,89.0610657,-55.9389305,157.0305328
6440,5.3366485,-3.9480183,16.3882275,102.2366409,-57.9007645,147.6030579
6450,5.7604198,-3.9528067,15.9596672,112.8015289,-56.0000000,139.3893127
6460,6.3900914,-3.9049230,15.8303804,123.1832047,-50.5267181,131.3740387
6470,7.0963774,-3.6463506,15.5263186,132.9236603,-40.7175560,122.4274826
6480,7.7835097,-3.3853838,15.1624022,141.7099304,-30.1145039,111.2290039
6490,8.3820572,-3.2153964,14.8104563,150.5648804,-22.0152664,97.2824402
6500,8.5711985,-3.1028695,14.5854025,161.1603088,-17.8473282,82.7938919
6510,8.7579451,-3.0334380,14.2095146,173.5572510,-20.2366409,66.7862625
6520,9.0476418,-2.8299320,13.6803989,188.1679382,-25.1908398,49.1374054
6530,9.4690189,-2.5426292,13.1512823,202.2519073,-34.2137413,30.7480907
6540,9.5240860,-2.4157372,12.2343082,216.5648804,-43.8473282,10.8015270
6550,9.3995876,-2.1116750,11.5639353,230.0305328,-57.8549614,-8.4656487
6560,9.4211359,-1.8818330,10.6302013,242.2824402,-73.9236679,-27.6488552
6570,9.5815458,-1.5825592,9.3947992,250.1297760,-88.7175598,-45.9007645
6580,9.6150646,-1.1396341,8.0277176,250.1297760,-102.1068726,-64.6641235
6590,9.4259243,-0.6081241,6.7659793,250.1297760,-115.8244247,-82.2900772
6600,9.1697454,-0.1460456,5.8681583,249.2977142,-129.9847260,-98.3740463
6610,9.0117292,0.3974355,4.9655490,241.3587799,-139.8702240,-113.3435135
6620,9.0213060,0.8810617,4.5345950,230.8854980,-144.2595367,-128.0305328
6630,8.6095057,1.1180865,3.9791429,219.6946564,-140.7862549,-140.8167877
6640,8.1761570,1.3431402,3.1387823,206.5190887,-136.7480927,-150.2824402
6650,7.6494355,1.6328372,2.3367288,191.3664093,-132.9236603,-156.9541931
6660,7.3669209,2.0590029,1.6807210,174.6641235,-129.6183167,-161.8396912
6670,7.1394730,2.3247581,1.1803354,157.2519073,-126.6183243,-165.6717529
6680,6.8306227,2.6862805,0.8092360,139.5572510,-121.3282471,-168.0610657
6690,6.6750002,2.7030399,0.3399749,120.5419846,-115.6717529,-170.3129730
6700,6.0668759,2.7796540,0.3567342,103.2137375,-111.1984711,-171.7938995
6710,5.9423780,2.8658447,0.0694315,88.6564865,-105.9312973,-171.7938995
6720,5.5186067,2.7796540,-0.7062859,70.0229034,-94.7099228,-171.4656525
6730,4.6830344,2.7892308,-1.2545552,46.7786255,-81.7099228,-169.2442780
6740,3.7971845,2.6144550,-1.5921360,21.4122143,-67.0229034,-164.5954132
6750,2.7581062,2.3989778,-1.8100072,-4.2213740,-53.2595406,-157.1755676
6760,1.6855093,2.2074428,-1.8818330,-30.6488552,-45.0305328,-147.1984711
6770,0.9169745,2.0661855,-2.1619530,-56.7633591,-43.7862587,-135.6106873
6780,0.5051740,2.0398495,-2.1787124,-82.0763321,-48.0000000,-125.3053436
6790,0.4525018,1.8914096,-1.6424140,-105.6183243,-57.3816795,-117.6488571
6800,0.5195391,1.6424140,-0.8690908,-124.6030502,-70.1526718,-112.5572510
6810,0.5386927,1.3215926,0.2681492,-139.3587799,-83.4274826,-110.0457993
6820,0.4165890,0.8690908,1.3168042,-149.9084015,-92.8167953,-107.2290039
6830,0.1388630,0.6248835,2.4013720,-157.8091583,-95.4732819,-103.5190811
6840,-0.2825144,0.5267217,3.6487448,-162.4198456,-94.8854980,-98.8167953
6850,-0.9073978,0.4548960,4.8817525,-161.3053436,-92.1832047,-92.5419846
6860,-1.3072275,0.5410868,5.4659348,-156.6335907,-86.4122162,-85.7480927
6870,-1.7980363,0.4979914,5.7125359,-151.9541931,-81.3740463,-80.6106873
6880,-2.1739240,0.2944853,5.4611464,-149.0992432,-80.4885483,-76.4580154
6890,-2.7892308,-0.1580165,4.9966736,-150.2748108,-82.2824402,-72.1526718
6900,-3.3949606,-0.6129125,4.9104824,-154.4351196,-88.4351120,-65.6564865
6910,-3.7900019,-1.0702027,5.4994531,-159.3587799,-94.5801544,-56.5648842
6920,-4.3071470,-1.0151364,6.1913738,-163.3816833,-96.2748108,-44.8778610
6930,-4.6040263,-0.9169745,6.9216018,-167.2824402,-91.7328262,-31.0229015
6940,-5.1499014,-0.7038917,7.6709828,-170.9236603,-81.3282471,-15.1755724
6950,-5.5090299,-0.5051740,8.1761570,-174.3893127,-69.5267181,2.1832061
6960,-5.5377603,-0.4572902,8.7627335,-177.7786255,-56.9312973,19.0076332
6970,-5.4802995,-0.5410868,9.5528164,-180.5572510,-44.0228996,33.9618340
6980,-5.6862001,-0.6703730,10.3524752,-181.4885559,-32.7633591,49.9541969
6990,-5.5018473,-0.9241571,11.0491848,-180.0458069,-23.7480907,67.5801544
7000,-4.9775200,-0.8499373,11.6788559,-178.0381622,-14.8091602,83.4961853
7010,-4.4340386,-0.7086801,12.3827477,-175.2824402,-6.7633586,96.8549652
7020,-3.8330972,-0.5578461,13.0004492,-172.0763397,-0.4427481,103.5572510
7030,-3.0885043,-0.6775556,13.5798426,-169.2137451,3.6946564,108.0000000
7040,-2.2984219,-0.8906385,14.2526102,-165.8396912,7.2519083,108.8473282
7050,-1.9416877,-1.0917504,15.0379038,-162.1755676,12.8320608,106.5496216
7060,-2.0518203,-1.3335636,15.9069948,-157.1297760,17.6106873,103.9618301
7070,-2.6072724,-1.5514348,16.8742466,-149.9618378,18.9770985,105.0076370
7080,-2.8921809,-1.5897418,17.7385502,-139.4885559,16.9847336,109.5267181
7090,-3.1100521,-1.7357874,18.7369270,-125.1984711,12.8854961,116.4351120
7100,-3.0142846,-1.7740943,19.1319675,-108.7175598,10.3358774,125.2061081
7110,-2.7820482,-1.7884595,19.2349186,-92.4809189,11.4961834,135.3053436
7120,-2.0949159,-1.8363433,19.0792961,-77.9083939,16.7480907,144.7938995
7130,-1.6687500,-1.8291607,18.6196117,-65.7022934,20.7938938,151.3358765
7140,-1.0630201,-1.7860653,18.1527443,-54.9312973,21.8167934,155.3129730
7150,-0.5865764,-1.7142396,17.8103752,-45.4122124,20.5114498,158.3587799
7160,0.0526722,-1.7549409,17.5494080,-34.8015251,15.1374044,159.2137451
7170,0.4070122,-2.0135133,17.2309818,-23.7633591,6.0000000,158.6183167
7180,0.9457048,-2.3486998,16.8622761,-14.5038166,-4.2290077,160.0000000
7190,1.8531027,-2.5522060,17.0011387,-6.0000000,-11.4045801,161.4885559
7200,2.7964132,-2.6982515,17.0681763,3.5114503,-12.0763359,160.6030579
7210,3.4189026,-2.6647329,17.0514164,13.4885492,-8.5343513,158.1068726
7220,3.6559272,-2.6120608,17.0346584,23.2671757,-4.3358779,155.3358765
7230,3.9025288,-2.5641768,16.6180687,31.7404575,0.1603053,153.0152740
7240,4.3598189,-2.3558824,16.4385052,38.4885483,6.4580154,148.3893127
7250,4.3502421,-2.4827745,16.1559906,44.3206100,12.1450386,142.9007568
7260,4.3670015,-2.5953014,15.9740324,50.4122124,14.5572519,137.7480927
7270,4.3334827,-2.8035958,15.9644556,58.6870232,11.9618320,131.9923706
7280,4.2855992,-2.9209111,15.8088331,69.3969498,6.0992365,127.3282471
7290,4.4172797,-2.8371146,15.7370071,81.3893127,-1.0763359,124.1068726
7300,4.6806402,-2.4755919,15.2940826,92.9542007,-8.2519083,120.5954208
7310,5.2720051,-2.4253139,14.8798876,102.1450348,-12.0763359,116.4961853
7320,6.1746144,-2.4923513,14.4369621,109.6870193,-10.2366409,111.4045792
7330,7.5704269,-2.4827745,14.1424770,115.8625946,-1.7862595,104.9847336
7340,8.8776541,-2.0398495,13.7163115,119.2442780,9.1984730,95.5496216
7350,9.4426832,-1.5658000,13.4481621,121.3664093,19.5648861,79.9465637
7360,9.7036495,-1.3598996,13.3691540,124.7709961,25.6183205,63.7175560
7370,9.8544836,-1.4341195,13.1321287,129.9007568,27.7862587,47.1145020
7380,9.6725254,-1.4053892,12.6963863,136.7862549,23.8244267,31.0763359
7390,9.5049324,-1.4484847,12.3109226,146.3053436,14.1984730,14.7633591
7400,9.4690189,-1.3694763,11.6908274,156.6412201,2.3664122,-1.0458015
7410,9.4833841,-1.1587877,10.8768024,166.5725250,-8.8702288,-17.2366409
7420,9.3110027,-0.8930327,10.1250277,174.4503784,-17.9694653,-33.0687027
7430,8.9087791,-0.6320660,9.1218615,179.8396912,-29.1603050,-48.5877876
7440,8.6789370,-0.5003856,8.1402445,181.6412201,-40.2290077,-62.0381660
7450,8.3557215,-0.2801202,7.1418672,181.6412201,-48.4045792,-75.0916061
7460,8.0133524,-0.1436514,6.3039007,179.5572510,-56.8320618,-87.2900772
7470,7.5895805,0.1101327,5.4276276,175.6183167,-69.5038147,-98.2137375
7480,7.2519999,0.4644727,4.7572546,171.1679382,-85.4427490,-108.6259537
7490,7.1442614,0.7924767,4.1443419,166.5419922,-103.8396912,-119.0839691
7500,7.1227136,1.2330076,3.5888901,160.9541931,-122.2213745,-130.2748108
7510,6.9431496,1.6448082,3.1292057,154.7786255,-138.1832123,-140.8702240
7520,6.8832946,1.9392935,2.5617826,146.0534363,-150.9618378,-151.5114441
7530,6.9455438,2.0781565,2.0398495,134.2290039,-156.8015289,-161.7938995
7540,6.7564025,2.0159075,1.3191984,119.3282471,-155.3129730,-171.2442780
7550,6.2344694,1.8578910,0.7278336,98.4427490,-147.5877838,-178.1755676
7560,5.3965030,1.5562232,0.2250538,76.3053436,-136.9541931,-181.4351196
7570,4.4579806,1.4604555,0.1651991,51.9236641,-125.4427490,-179.8702240
7580,3.5505829,1.2497669,0.4716553,28.8625946,-115.9847336,-176.0763397
7590,2.6695213,1.1707586,1.1037214,11.3664122,-109.8778610,-170.1450348
7600,1.8171898,1.1755470,1.4029950,-2.2137403,-106.3358765,-161.2595367
7610,1.2018831,1.1731528,1.5514348,-15.6030531,-104.1145020,-151.3435059
7620,0.8259954,1.2593436,1.6591733,-30.1068707,-102.0916061,-141.9084015
7630,0.5650287,1.1300575,1.5035510,-45.2748108,-98.6717529,-132.2366486
7640,0.3351865,1.0199248,1.1396341,-64.7328262,-92.6259537,-122.6030502
7650,0.2202654,0.8427547,1.3191984,-87.6870193,-84.0000000,-112.9618301
7660,-0.0143651,0.4644727,2.2768741,-107.4656525,-75.4427490,-104.8625946
7670,-0.5937590,0.0718257,3.2225790,-121.0839691,-72.7175598,-96.2824402
7680,-1.1276633,0.0119709,4.2520804,-128.3816833,-74.8015289,-87.6183243
7690,-1.4197544,0.1149211,5.3845320,-130.0076294,-76.5954208,-79.5648880
7700,-1.4125718,0.1699875,5.9615316,-128.0076294,-76.6717529,-73.8854980
7710,-1.8100072,0.2202654,6.2105274,-126.2977066,-72.4580154,-69.4732819
7720,-2.4971397,-0.0071826,6.1267309,-127.0000000,-64.8320618,-63.6335869
7730,-3.1890604,-0.2681492,5.8777351,-131.4656525,-57.4885483,-54.1755714
7740,-3.7325413,-0.4261657,5.8202744,-138.1984711,-53.5038185,-42.5801544
7750,-4.0437860,-0.6320660,6.2081332,-145.7557220,-51.1450386,-29.8473282
7760,-4.4555864,-0.7493813,6.8042865,-151.9389343,-49.6183205,-15.5496187
7770,-4.5992379,-0.6200951,7.6781654,-156.1374054,-47.6030540,0.8702290
7780,-4.3310885,-0.7014975,8.4754305,-158.9847260,-42.0076332,16.1068707
7790,-3.9049230,-0.8547257,9.4067707,-161.0839691,-31.3969460,30.7938938
7800,-3.5170643,-1.0175306,10.1968527,-161.0763397,-16.3893127,44.8396950
7810,-3.0789278,-1.2832855,10.8361015,-158.8549652,-0.9236641,57.8854980
7820,-3.0908985,-1.3862357,11.1521349,-153.4427490,9.7557249,69.7328262
7830,-2.9616125,-1.4149660,11.1569233,-148.0992432,16.4961834,81.1450348
7840,-2.8897867,-1.2354017,11.1832590,-145.4351196,24.2824421,94.6106873
7850,-3.3327117,-1.3335636,11.3149395,-146.8396912,34.1068687,108.2977066
7860,-4.1922259,-1.4293311,11.8919392,-151.1068726,43.1221390,125.8625946
7870,-4.4938936,-1.4700323,12.8567972,-155.1221313,52.2977104,146.8167877
7880,-4.0796990,-1.4413021,13.8575687,-155.7328186,62.1984749,164.6564941
7890,-3.4979107,-1.1396341,14.6907463,-154.2213745,70.5954208,175.6488495
7900,-2.8634505,-0.9217629,15.6747580,-149.8015289,73.3969498,179.2748108
7910,-2.0853391,-0.7445929,16.7186241,-140.6259613,67.1679382,175.7557220
7920,-1.2497669,-0.5219333,17.5757446,-126.1755753,53.0152664,165.0534363
7930,-0.5865764,-0.4812321,18.1503506,-109.5877838,33.6793900,149.2137451
7940,-0.4596844,-0.4548960,18.5549679,-93.8702316,11.4198475,131.3511505
7950,-0.3327923,-0.6703730,19.1199970,-77.9236679,-13.1297712,112.5801544
7960,-0.7637464,-0.9864060,19.5940456,-60.8091621,-38.1908379,93.9389343
7970,-1.4772149,-1.3838415,19.6126022,-42.8625946,-61.1526718,85.3740463
7980,-1.9297167,-1.7669119,19.6126022,-26.6717548,-73.8854980,84.3511429
7990,-2.0637913,-2.1787124,19.6126022,-11.6488552,-72.4351120,92.7328262
8000,-1.9105632,-2.7126167,19.6126022,2.0000000,-64.3664093,105.9618301
8010,-1.2952565,-3.1723011,19.6126022,14.9083967,-52.3282433,124.3358765
8020,-0.1460456,-3.3039815,19.4503956,27.3435116,-38.9771004,142.2595367
8030,1.4532729,-3.2776453,19.1247845,38.9541969,-26.9847336,156.3664093
8040,3.2728570,-3.0693510,18.8805771,50.9236641,-16.7938938,163.0610657
8050,4.4699516,-2.8035958,18.2748489,63.9694672,-9.6106873,162.2213745
8060,5.4156566,-2.6838863,17.5063133,77.1526718,-11.3664122,153.5801544
8070,5.9136481,-2.5474176,16.6994705,88.9694672,-21.2137413,143.1374054
8080,6.5935979,-2.4253139,16.1248665,100.1679382,-32.5038185,131.1374054
8090,7.2089043,-2.2649033,15.9453020,107.9007645,-41.1450386,118.3206100
8100,7.6614060,-2.2936335,15.8160152,117.8244247,-44.9541969,104.6183243
8110,8.0109577,-2.6144550,15.6220865,128.6335907,-45.9236641,93.9083939
8120,8.4706421,-2.7485294,15.0738173,139.8549652,-41.8167953,82.9465637
8130,9.1984758,-2.7269819,14.2789459,148.8931274,-32.7709923,73.2213745
8140,9.9095497,-2.3750360,13.2350798,154.2061005,-20.1984730,62.1755714
8150,10.3788109,-2.2050486,12.0834742,155.1679382,-6.1603055,50.0305328
8160,10.9893293,-1.9967541,11.3747940,153.3511505,8.3282442,38.0152664
8170,11.4538021,-1.7717001,10.7810354,150.4656525,23.1755733,24.7099228
8180,11.6237898,-1.6448082,9.9837704,148.7328186,32.4961815,10.0534353
8190,11.9661589,-1.5418580,9.3301563,147.3053436,36.2824440,-5.3816795
8200,12.1936073,-1.2952565,8.8848372,146.6488495,37.8091621,-21.5572510
8210,12.5263996,-1.1970947,8.2934723,147.2595367,37.0916023,-39.7633591
8220,12.7706070,-0.9648584,7.7188668,148.7786255,35.3511467,-59.2137413
8230,13.0579090,-0.7206510,7.0245519,149.3206177,34.0381660,-79.2595444
8240,13.2470503,-0.4740495,6.2440462,148.8091583,35.3358765,-100.7404556
8250,13.1129761,-0.4022238,5.5233951,146.8854980,33.4198456,-122.4961853
8260,12.8208847,-0.3782819,4.8147149,144.8549652,26.8320618,-144.4427490
8270,11.6381550,-0.4501076,3.4835455,142.4045868,13.3587790,-163.1526642
8280,10.1585455,-0.5099624,1.8052188,136.2977142,-7.1221375,-176.2595367
8290,8.9542685,-0.4213773,0.1747758,123.9160309,-29.6641216,-183.5496216
8300,8.0229292,-0.1867468,-1.4508789,105.3740463,-51.1832047,-186.6946564
8310,7.4004397,0.1843526,-2.7293761,81.5419846,-66.8778610,-188.2290039
8320,6.7348547,0.3639168,-3.3446827,53.1526718,-73.8931274,-189.4732819
8330,6.2105274,0.3327923,-3.2537034,23.8702297,-73.4274826,-190.6412201
8340,5.2576399,0.0742199,-2.7102225,-0.6335878,-64.6564865,-189.5496216
8350,4.0150557,-0.2202654,-2.1475880,-20.8778629,-52.2290077,-184.8931274
8360,2.9664006,-0.4118006,-1.8722562,-37.4198456,-37.9389305,-177.5725250
8370,1.9057748,-0.5650287,-1.7549409,-54.5343513,-20.9618320,-167.2595367
8380,0.6775556,-0.7278336,-1.7573351,-71.5038147,-5.9389315,-155.2900696
8390,-0.4596844,-0.8714849,-1.7549409,-89.1603088,2.4427481,-142.0458069
8400,-1.3862357,-1.0510491,-1.6543850,-106.6641235,2.1755726,-129.8473358
8410,-2.0613971,-1.1396341,-0.9648584,-124.6793900,-7.6183205,-119.9923630
8420,-2.5546002,-1.2569494,0.5315101,-139.0992432,-21.2519093,-112.3206100
8430,-2.9376705,-1.4628497,2.4229198,-147.5954132,-31.4809170,-107.3282471
8440,-3.7708483,-1.6400198,4.2041965,-150.4427490,-34.7480927,-103.0381699
8450,-4.8051381,-1.9728121,5.2767935,-150.6564941,-34.2290077,-98.3435135
8460,-5.9854736,-2.4708035,6.2081332,-151.0992432,-33.0076332,-91.8854980
8470,-7.3908629,-2.9975252,6.9694853,-153.4885559,-32.4809151,-80.7251892
8480,-8.3293848,-3.7253587,7.9630742,-157.4274750,-31.9312973,-65.1068726
8490,-8.9806042,-4.1634955,9.1625633,-161.0076294,-31.6030540,-45.8625946
8500,-9.1505919,-4.4244623,10.4602137,-164.1068726,-27.0000000,-24.4732819
8510,-9.5216913,-4.5752959,11.9805241,-164.9160309,-17.6488552,-2.6106870
8520,-9.5432396,-4.4340386,13.2039547,-161.1145020,-4.9618320,20.2595425
8530,-9.1601686,-4.2616572,13.9772778,-155.2290039,11.2519083,40.9465637
8540,-9.1051025,-3.8546450,14.6763811,-146.0839691,23.3740463,55.5725174
8550,-8.9758167,-3.3087699,14.5877962,-138.8396912,27.6793900,64.1145020
8560,-9.2128410,-3.2082138,14.9972029,-128.6412201,22.2213745,69.4580154
8570,-9.5169029,-2.9999194,15.0570574,-116.4274826,7.6259542,73.9312973
8580,-9.5959110,-2.7197993,14.9349537,-104.5343475,-8.4580154,79.3664093
8590,-9.6342182,-2.4516499,14.9445305,-97.2366409,-21.7709923,86.3435135
8600,-9.5288744,-2.4588325,15.1695843,-92.0534363,-28.5801525,96.2748108
8610,-9.4618368,-2.6527619,15.4329453,-89.3435135,-28.1145039,114.5648880
8620,-8.6789370,-2.9089401,15.9620609,-88.2900772,-20.7175579,136.4961853
8630,-7.2328463,-3.0286496,16.5582142,-86.2824402,-7.4503818,157.4427490
8640,-5.6478930,-3.0478032,17.1759148,-81.1374054,8.6641226,173.6641235
8650,-4.3215117,-3.1651185,17.3339310,-72.0305328,21.3816795,183.3053436
8660,-3.1196289,-3.0669568,17.0466290,-59.7786255,25.1145039,185.7557220
8670,-2.0422437,-3.0885043,16.3427372,-45.6870232,16.4732819,179.7480927
8680,-1.4843974,-3.0166788,15.7154598,-32.1908379,0.9618320,169.1908417
8690,-1.3838415,-3.0430148,14.7769375,-19.1603050,-22.8091602,157.9847260
8700,-1.2521610,-3.1579359,13.9700956,-9.9389315,-46.6259537,150.4580078
8710,-0.9145803,-3.2776453,13.7282820,-4.3740458,-62.4503822,146.4274750
8720,-0.6392486,-3.5026991,13.7450418,-1.5190840,-65.5343475,148.8931274
8730,0.1484398,-3.6415622,14.1137466,-1.4045801,-55.5190849,157.0915985
8740,1.0654143,-3.6655040,14.4058380,-1.9618320,-32.8931313,166.1679382
8750,1.8339491,-3.6726866,14.5327301,-2.0458016,-5.0305343,172.9618378
8760,2.5306582,-3.8618276,14.3052816,-0.8091603,16.2519093,176.3129730
8770,2.9711890,-3.7205703,14.2454271,1.1145039,27.3664131,174.8854980
8780,3.4069316,-3.7397239,14.3388004,5.2595420,27.1603050,170.7938995
8790,3.9432299,-3.7708483,14.7410240,10.4961834,21.4885502,166.0458069
8800,4.6997938,-3.7397239,15.2677460,18.0534344,17.3511448,160.2442780
8810,5.3079181,-3.6224086,15.6029329,25.9770985,14.5648851,152.6946564
8820,5.9304070,-3.2824337,15.7274303,31.8167934,13.6793890,145.5801544
8830,6.7611909,-2.9304879,16.2565460,35.8167953,16.7938938,137.2366486
8840,7.4243813,-2.9400647,16.9149494,42.5725174,19.1450386,125.2900772
8850,7.3310080,-2.8347204,17.3985748,53.8473282,17.9312973,112.0916061
8860,7.3190370,-2.8395088,17.5925045,69.5267181,9.3129768,98.5801544
8870,7.5105724,-2.5929072,17.3291435,87.7328262,-2.9160306,85.2595444
8880,7.6901364,-2.1906834,16.6060982,104.8854980,-15.8473282,69.8931274
8890,8.3365679,-2.0613971,15.5502605,117.2595444,-23.4961834,53.5648842
8900,8.9183559,-1.9249283,14.5183649,125.9923630,-24.5877857,35.1679382
8910,9.0404596,-1.9057748,13.4553452,132.1145020,-23.2900772,16.0458012
8920,8.4969788,-1.9440818,12.3300753,135.4885559,-21.9694653,-0.4732825
8930,7.8481531,-1.9847831,11.1784706,136.1068726,-22.8549614,-14.0000000
8940,7.4052281,-2.0135133,10.2447367,134.8320618,-25.0229015,-24.0992374
8950,7.2735476,-2.0063307,9.4307127,132.5114441,-27.3129768,-32.2290077
8960,7.1418672,-1.9321109,8.7483683,130.7175598,-31.6870232,-40.0152664
8970,7.3166428,-1.8435259,7.8553357,127.4503784,-38.7022896,-48.0228996
8980,7.7260494,-1.7525467,7.1753860,123.6259537,-48.2366409,-56.6106873
8990,8.2431946,-1.6232605,6.8665352,119.8091583,-59.9312973,-66.7862625
9000,8.9446917,-1.3886299,6.5648675,117.3435135,-71.8473282,-79.2977066
9010,9.6653433,-1.1156923,6.1123657,114.5648880,-79.8702316,-93.8549652
9020,9.9789820,-0.8188128,5.9567432,110.2213745,-84.8778610,-109.5725174
9030,9.4450769,-0.8427547,5.6694407,106.4122162,-89.2061081,-124.6183243
9040,8.9710283,-0.8643024,5.0014620,102.4885483,-93.8015289,-136.3358765
9050,8.5735922,-0.9097920,4.3789725,95.2671738,-91.9465637,-145.2442780
9060,7.9487090,-1.2593436,3.8522508,83.5343475,-83.5801544,-150.9694672
9070,7.2903070,-1.4820032,3.4835455,69.4351120,-72.1145020,-152.2213745
9080,6.6055689,-1.6879035,3.3710186,56.0687027,-60.4351158,-151.2290039
9090,6.0572991,-1.7405758,3.3303175,44.6259537,-52.7557259,-150.8320618
9100,5.5018473,-1.5610116,3.3135581,34.4351158,-47.2748108,-150.3129730
9110,5.0325861,-1.4676381,3.2369442,24.4198475,-41.9007645,-150.4580078
9120,4.4867110,-1.3670821,3.4643922,16.1603050,-37.2137413,-151.1984711
9130,3.7109938,-1.3168042,3.4308734,10.1374044,-37.1068687,-152.7557220
9140,3.2489152,-1.2042773,3.0980811,3.1908398,-41.9541969,-155.2748108
9150,2.8610563,-1.0247130,3.3039815,-4.7786260,-48.2748108,-160.4503784
9160,2.4564383,-0.8906385,3.4715748,-12.8396950,-54.6335869,-168.4274750
9170,1.4580613,-0.8906385,3.9240766,-21.0076332,-56.7022896,-175.3053436
9180,0.0909792,-1.1037214,4.2089849,-28.7938938,-55.9389305,-177.6106873
9190,-1.5777708,-1.3910241,4.6351509,-35.9160309,-56.5648842,-174.6412201
9200,-3.0837159,-1.5370697,4.9128766,-40.7328262,-61.1526718,-166.7786255
9210,-3.9456241,-1.4508789,4.9679432,-47.2977104,-63.6335869,-155.0381622
9220,-4.2688398,-1.6065011,5.5521255,-54.2595406,-58.7480927,-143.1755676
9230,-4.8937230,-1.6232605,6.0094156,-60.4809151,-50.7786255,-132.3358765
9240,-6.0189924,-1.8842272,6.1315193,-65.4580154,-45.2900772,-120.6946564
9250,-6.9575148,-1.7932479,6.2153158,-71.7786255,-43.4656487,-108.1221390
9260,-7.5895805,-1.8147956,6.9527264,-75.5419846,-45.8702278,-95.6946564
9270,-8.0564480,-1.9464760,6.9910331,-77.4809189,-48.3206100,-82.8625946
9280,-8.5592270,-1.8507085,7.1658092,-78.4656525,-55.1068687,-68.4198456
9290,-8.6645718,-1.6591733,7.2663651,-79.0687027,-64.5725174,-54.7251892
9300,-8.6071110,-1.1635761,7.3166428,-80.1832047,-75.3129807,-41.3282433
9310,-8.0492649,-0.7517755,7.6781654,-84.8167953,-79.0839691,-28.0610695
9320,-7.4052281,-0.4094064,8.3293848,-90.5801544,-71.3511429,-16.5572510
9330,-7.1658092,-0.1580165,9.1027079,-96.3969498,-56.3282433,-5.3816795
9340,-7.0532823,0.0383070,9.5552101,-102.4809189,-41.8549614,5.4045801
9350,-6.7971039,0.0430954,10.3189564,-109.1526718,-28.4274807,14.7480917
9360,-6.9742737,-0.2106887,11.8320847,-106.8931274,-17.9312973,23.2061062
9370,-7.1227136,-0.2777260,12.1481171,-100.2442780,-13.4580154,31.6183205
9380,-7.1370788,-0.2920911,12.4689388,-93.3587799,-11.2900763,39.3893127
9390,-7.2256637,-0.3184272,12.4186611,-88.6641235,-9.5877867,46.9160309
9400,-7.5967631,-0.3758878,12.4473906,-85.2977066,-8.4351149,55.6183205
9410,-7.7308378,-0.4357425,12.5742826,-85.0916061,-7.6946564,68.4274826
9420,-7.3908629,-0.5315101,13.1057930,-85.4503784,-3.7328243,83.0381699
9430,-6.9287844,-0.7350162,13.7163115,-84.1221390,1.7328244,98.1297684
9440,-5.8681583,-1.0031654,14.1640244,-80.0000000,9.0763359,113.5190811
9450,-4.6399393,-1.0342898,14.1209297,-76.8931274,17.8473282,124.7557220
9460,-3.1244173,-1.0845678,13.9820662,-74.1908417,26.0152664,131.4351196
9470,-2.0326669,-0.9145803,13.8958759,-71.2213745,31.8549614,132.0763397
9480,-1.5801650,-1.0295014,13.5080166,-66.5496216,27.6259537,128.6335907
9490,-1.1827296,-1.0917504,13.2685976,-60.8015251,13.3664122,122.5572510
9500,-0.8355721,-1.3383518,12.8711624,-53.5648842,-6.0839696,113.5801544
9510,-0.9744351,-1.4867916,12.6652622,-49.6717567,-24.3740463,106.8473282
9520,-1.0175306,-1.7477583,13.1800127,-45.7022896,-35.6412201,106.2061081
9530,-1.0893562,-1.9153515,13.6061783,-40.1221390,-38.4809151,110.0610657
9540,-0.7948709,-2.0087249,13.7091284,-35.3358765,-34.9465637,117.5877838
9550,-0.3710994,-1.9608412,13.5966015,-31.8625946,-27.0992374,124.2290039
9560,0.0885850,-1.9201399,13.4481621,-29.4503822,-17.4656487,128.3893127
9570,0.7493813,-2.1380112,13.4194317,-28.8549614,-6.0992365,129.2061005
9580,0.9073978,-2.6072724,13.6684275,-28.3664131,3.6259542,127.9465637
9590,0.7781116,-3.1339941,14.4225969,-25.1832066,7.2366414,127.5343475
9600,0.8068419,-3.6391680,15.1288834,-17.1374054,6.6793895,127.6259537
9610,0.9385223,-4.3071470,15.5646257,-4.6717558,0.9770992,126.6793900
9620,0.7829000,-4.8889351,15.8423519,9.6183205,-10.2595415,125.8702316
9630,1.0390782,-5.2696109,16.1176834,22.5419846,-21.7022896,127.6106873
9640,1.7429699,-5.4731169,16.2661228,34.1908379,-22.3129768,130.1221313
9650,2.8203552,-5.7340837,16.0793762,41.4198456,-15.1603050,133.5801544
9660,4.1922259,-5.8346395,15.8231983,42.8396950,-0.5572519,137.1603088
9670,5.1187773,-5.5353661,16.1703548,41.8931313,8.8015270,140.1145020
9680,6.3469963,-5.3749552,17.0801468,44.2137413,9.3129768,140.1679382
9690,7.7523856,-5.2528515,18.1168308,53.1603050,6.5190840,136.6335907
9700,9.3493099,-5.1953912,18.7034073,68.2824402,5.0763359,130.4809113
9710,11.0515785,-4.9009056,18.3801918,83.9694672,10.8473282,121.7862625
9720,12.5000629,-4.5609307,17.3075962,97.0076370,21.1755733,111.1297684
9730,13.3332415,-4.0509686,16.0362816,109.4580154,24.5725193,94.7633591
9740,13.9820662,-3.4069316,14.1544485,120.7251892,18.4656487,77.3893127
9750,14.2741575,-2.8371146,12.6149845,128.9770966,4.6564884,55.6564903
9760,14.2095146,-2.4492557,10.6780853,135.1221313,-15.7557249,33.0610695
9770,14.4465389,-1.6352314,8.0061693,134.2748108,-37.7022896,10.9770994
9780,14.9277716,-1.1396341,5.8753409,120.3511429,-49.2137413,-10.1755724
9790,15.3515425,-0.8140244,4.9224534,102.0305328,-48.0152664,-29.7251911
9800,14.8655224,-0.8116302,4.6950054,82.7938919,-36.2366409,-46.1145020
9810,13.9533358,-0.9576758,4.3765783,67.3206100,-20.1984730,-57.3969460
9820,13.1584654,-1.2138541,4.5681133,55.5648842,-8.1603050,-65.3435135
9830,12.2821922,-1.3670821,4.5824785,51.1221390,-1.6870229,-72.3511429
9840,11.7339230,-1.5370697,4.0485744,49.3587799,2.1374047,-78.6183243
9850,11.4657736,-1.5346755,3.2752512,44.5419846,2.0916030,-86.0152664
9860,10.9629936,-1.4891858,2.9687948,38.4503822,-4.9465647,-95.5496216
9870,10.6397781,-1.5083394,2.8227494,32.8778610,-16.6564884,-104.5801544
9880,10.8983507,-1.4293311,3.0908985,26.1221371,-25.1908398,-116.0000000
9890,10.8145542,-1.3646880,3.7684543,20.1832066,-28.6030540,-130.3511505
9900,10.1058741,-1.6328372,4.3334827,16.0610695,-27.8320618,-144.6106873
9910,8.8249826,-1.9225341,4.9463954,13.0839691,-23.9083977,-156.3129730
9920,7.6446471,-2.2289903,5.1307478,10.3893127,-17.4274807,-164.4351196
9930,6.0189924,-2.4947455,5.5353661,7.7786260,-10.3053436,-169.5648804
9940,4.4699516,-2.7868366,6.2847471,7.6030536,-3.3587787,-172.0000000
9950,2.4995339,-3.1411765,6.4475522,13.3740454,-3.7099237,-171.1755676
9960,0.7278336,-2.6551561,5.4132624,16.9083977,-9.8320608,-167.6335907
9970,-0.0407012,-2.0183017,4.2401094,8.9007635,-13.8396950,-167.1603088
9980,-1.0965388,-1.8147956,3.6056492,-7.4885497,-10.9694653,-169.6488495
9990,-2.6360025,-2.0805507,3.1172347,-29.8320618,-2.1145039,-171.6259613
