timestamp,acclX,acclY,acclZ,gyroX,gyroY,gyroZ
0,2.2792683,1.2258250,9.6797075,0.5725191,0.3664122,3.0916030
10,2.2912393,1.2354017,9.6461897,0.2977099,1.1755725,2.8167939
20,2.2289903,1.2330076,9.7635050,0.4198473,2.4580152,2.8320611
30,2.2098370,1.2186425,9.8880024,0.6870229,3.0229008,3.0839694
40,2.2146254,1.1851238,9.8880024,1.6183206,3.3129771,3.5954199
50,2.1858950,1.2042773,9.8640604,2.5343511,3.7175572,3.7938931
60,2.1763182,1.2497669,9.9239149,3.7938931,3.9541984,3.7099237
70,2.0733681,1.2425843,9.7778702,4.3740458,4.0381680,4.1526718
80,2.0613971,1.3503228,9.5959110,3.1603053,4.5648856,4.6641221
90,1.9823889,1.2784972,9.4785957,1.0992366,5.0381680,4.8244276
100,2.0135133,1.3910241,9.5480280,-0.8320611,6.8702292,5.2595420
110,2.0398495,1.4269369,9.5791521,-3.4427481,9.3664122,5.5190840
120,1.9512644,1.2689204,9.5552101,-5.2213740,9.6106873,5.7709923
130,1.7357874,1.1994889,9.7611103,-5.8473282,7.6946564,7.0152674
140,1.6208663,1.1228749,9.9813757,-5.2137403,5.4885497,9.3740454
150,1.4149660,1.0055596,10.2614956,-0.1374046,-1.5419847,18.7709923
160,2.2625091,1.1156923,9.4115591,6.8091602,-8.6717558,32.7404594
170,3.1244173,1.9488702,7.1658092,-4.6488547,-28.3282452,26.0992374
180,3.6511390,1.7764885,8.1210909,-13.6870232,-25.4427490,19.8320618
190,3.8043671,1.6472024,8.4419117,-18.1984730,-20.6183205,14.1374044
200,3.7397239,1.4269369,9.1290445,-21.1145039,-16.4885502,9.4122133
210,3.5146701,1.3120158,9.4977493,-22.5496178,-12.9465647,6.0229006
220,2.7557120,0.8499373,10.0627785,-21.1908398,-4.0381680,4.7251906
230,1.9033806,0.5362985,10.1010857,-20.2213745,6.8702292,11.6946564
240,1.8961980,0.5458752,10.1753054,-18.4809170,4.7633586,12.8396950
250,1.9608412,0.5171449,10.2064295,-16.2442741,2.0916030,13.1832066
260,1.9512644,0.5841822,10.2950144,-13.2290077,-1.3740458,12.6106873
270,2.0997043,0.5937590,10.3740225,-10.4122133,-4.7633586,11.6870232
280,2.2984219,0.7326220,10.2447367,-8.0076332,-5.2213740,10.3816795
290,2.3367288,0.6655847,9.9741936,-4.4122138,-6.6259542,8.6335878
300,2.4971397,0.7517755,9.9263096,-3.0992367,-8.6259546,8.3206110
310,2.7006457,0.7781116,9.4115591,-10.0610685,-12.0458012,1.0534351
320,2.6623387,0.7182568,9.3540983,-12.7404585,-12.2900763,1.1145039
330,2.7030399,0.7254394,9.4067707,-15.6106873,-13.2213745,0.7099237
340,2.6192431,0.6200951,9.3397331,-19.1908398,-13.6870232,0.5343512
350,2.4013720,0.5841822,9.3157911,-22.0458012,-14.6946564,0.9923664
360,2.1116750,0.5362985,9.2128410,-24.8244267,-19.6641216,1.7022901
370,1.8698620,0.4644727,9.1529865,-27.4656487,-27.7633591,2.1297710
380,1.9392935,0.5482694,9.1721401,-29.9160309,-37.9465637,1.9007634
390,1.9560528,0.5219333,9.2703018,-32.1374054,-48.0381660,1.3587786
400,1.9584470,0.3399749,9.6126709,-33.6335869,-57.3740463,0.9312977
410,1.9512644,0.1675933,9.8832140,-33.1603050,-66.5114517,1.7328244
420,1.8626794,0.0574605,10.3237448,-30.3816795,-73.6946564,3.9389312
430,1.6328372,0.0239419,10.5607700,-26.2824421,-79.2519073,8.2213745
440,1.6902977,0.1029501,10.5320396,-22.8320618,-84.2442780,14.0381680
450,1.8124014,0.1484398,10.1681223,-22.9847336,-84.4122162,20.8854961
460,1.9656296,0.0311245,9.9071560,-24.0305347,-83.8625946,27.0381680
470,1.9368993,0.1053443,9.9765873,-25.1068707,-83.6488571,31.8778629
480,1.3598996,-0.1053443,9.9885588,-24.9618320,-87.3969498,37.5419846
490,1.1396341,-0.2202654,10.0172882,-22.8320618,-93.0992355,44.7251892
500,1.1635761,-0.0837966,10.3524752,-20.9923668,-96.0381699,51.0458031
510,1.2665262,-0.0814024,10.5966825,-18.4122143,-95.1145020,57.7404594
520,1.5442522,0.5506636,11.0300312,-16.7786255,-88.3282471,63.9694672
530,1.7453641,1.0055596,11.3412752,-19.0610695,-70.4122162,69.3816757
540,1.3838415,1.6735384,11.9733410,-24.0381680,-43.8854980,74.7251892
550,0.6536137,2.0757623,12.4737272,-28.2442741,-16.1984730,80.0916061
560,-0.1053443,1.8818330,12.6724443,-30.7404575,0.9312977,85.0152664
570,-0.1053443,1.2593436,13.1943779,-34.1297722,3.5267177,89.7175598
580,-0.1125269,0.5985473,14.6691990,-32.2290077,-4.4274807,95.1984711
590,0.0646431,0.1484398,16.0458584,-21.1984730,-16.8778629,95.7709961
600,0.3088504,-0.1747758,17.1591549,0.0763359,-31.7404575,99.3587799
610,0.6967092,-0.5243275,17.1974621,25.0610695,-45.3358765,103.0839691
620,1.1396341,-0.7326220,16.4528694,46.5038185,-54.7633591,108.9160309
630,2.1092808,-0.8283895,15.4449158,60.7862587,-57.4732819,116.4351120
640,3.2273674,-0.8978211,14.4944229,66.9236679,-51.9007645,123.9847336
650,4.5752959,-1.1061156,14.5111818,66.7480927,-38.5114517,130.6870270
660,5.8154860,-1.1516051,14.8487625,65.4961853,-17.4732819,134.8396912
670,6.8425937,-1.3862357,15.6077213,64.1221390,6.5648856,136.7709961
680,7.8194227,-1.8052188,16.2541523,66.6870193,27.5496178,135.1145020
690,8.3964224,-2.4660151,16.8934002,76.0534363,36.6946564,128.9160309
700,8.6933022,-3.1052637,16.9676208,91.6717529,32.7938919,119.6641235
710,9.3133974,-3.7540891,16.5390606,108.4351120,19.7557259,110.3664093
720,10.6541433,-4.4460096,16.1248665,125.2595444,4.3816795,100.2977066
730,12.6580801,-4.5896611,15.9979744,141.1679382,-5.4351144,86.2137375
740,14.6835642,-4.3502421,15.8231983,156.1679382,-3.5801528,65.1679382
750,16.0602226,-4.4531922,14.9876261,169.8244324,6.6717558,38.4045792
760,16.2876701,-4.6686692,13.9868546,180.1908417,17.2290077,11.4045801
770,15.8064384,-5.0230093,12.6772327,188.5877838,26.0610695,-13.7328243
780,14.9493189,-5.3031297,11.4298601,194.4656525,28.6488552,-34.9389305
790,13.9341822,-5.5162125,10.2998028,197.9770966,25.9312973,-51.5190849
800,13.0890341,-5.3845320,9.4546537,199.8244324,18.5419846,-64.7022934
810,12.4354200,-5.3558016,8.6526003,200.4809113,9.8854961,-76.1450348
820,12.0188313,-5.2815819,7.9965930,201.2595367,0.9465649,-85.7480927
830,12.0619268,-5.0349803,7.4938130,203.2442780,-6.3282442,-94.5267181
840,12.0451670,-4.6519103,6.4834652,204.3587799,-10.2213745,-104.3511429
850,11.8296900,-4.1898317,5.3486195,202.5267181,-13.2900763,-114.2977066
860,11.3747940,-3.7062054,4.0605454,196.8473358,-19.1221371,-122.4961853
870,11.0467901,-3.3375001,3.2153964,189.1450348,-28.5954189,-130.5419922
880,10.8001890,-2.8921809,2.2720859,179.8854980,-39.8625946,-137.9389343
890,10.6589317,-2.4372849,1.4149660,169.4580078,-49.8015251,-145.8854980
900,10.3500814,-2.1451938,0.8283895,158.7404633,-61.0992355,-153.5954132
910,9.8018112,-1.7908537,0.1795642,143.5877838,-70.3282471,-160.1297760
920,9.3540983,-1.5801650,-0.0478838,131.6870270,-78.1984711,-165.3664093
930,8.7842808,-1.4149660,-0.3806761,119.6183243,-85.1603088,-169.9236603
940,8.3222027,-1.2066715,-0.9289455,105.3587799,-87.5496216,-173.0152740
950,7.7236552,-0.9983770,-0.9911944,90.1984711,-85.2748108,-174.9160309
960,6.7587967,-1.0845678,-1.4676381,75.1908417,-81.1450348,-175.0610657
970,5.7699966,-1.1132981,-1.7860653,59.7862587,-76.2137375,-172.6488495
980,4.7811961,-1.1372399,-1.9033806,43.0305328,-73.4885483,-167.9923706
990,3.8498566,-1.2282192,-1.9345051,27.6412220,-69.9312973,-162.3511505
1000,2.8802099,-1.1300575,-2.1667414,13.0000000,-61.2366409,-154.8091583
1010,1.7118455,-0.9217629,-2.4061604,-2.5496182,-55.6717567,-145.8931274
1020,0.7924767,-0.6871324,-2.3343346,-20.3129768,-54.1755714,-136.6717529
1030,-0.0526722,-0.4357425,-1.8770446,-35.5038185,-54.3511467,-126.7709961
1040,-0.7206510,-0.3112446,-1.4149660,-47.6793900,-55.7862587,-116.6946564
1050,-1.2976507,-0.1580165,-1.1731528,-58.8167953,-57.8167953,-107.0763321
1060,-1.7884595,-0.1149211,-0.9959828,-70.7709961,-60.7786255,-96.4274826
1070,-2.3415172,0.0047884,-0.8571198,-83.6793900,-63.8931313,-85.0305328
1080,-2.4971397,0.2394189,-0.5865764,-97.8244247,-66.2824402,-73.7786255
1090,-2.9352763,0.3016679,-0.1915352,-111.5038147,-66.7938919,-64.2137375
1100,-3.4715748,0.4381367,0.2681492,-125.1450348,-68.8396912,-55.3816795
1110,-3.7900019,0.3471575,0.6967092,-139.1679382,-70.4198456,-48.5877876
1120,-4.3023586,0.1771700,1.4460905,-154.7328186,-72.0381699,-41.9083977
1130,-5.0206151,0.0311245,2.7126167,-166.5954132,-74.0839691,-35.0228996
1140,-5.3342543,-0.4477134,3.9695661,-173.9923706,-77.1068726,-26.2595425
1150,-5.8274570,-0.6416427,5.2432747,-175.2824402,-79.0152664,-15.4351149
1160,-6.4379754,-0.6368544,5.9854736,-174.9847260,-81.3129807,-1.1145039
1170,-6.8593526,-0.5339043,6.4331870,-175.4274750,-79.6641235,16.2290077
1180,-6.9120250,-0.3734936,7.0293403,-177.7938995,-75.8091583,35.1145020
1190,-6.4451580,-0.2346306,7.7619624,-180.9465637,-68.5419846,54.5954208
1200,-5.8490047,-0.2322364,8.6454182,-184.1603088,-57.9007645,73.1068726
1210,-5.0565281,-0.4141948,9.4235296,-186.9389343,-44.9312973,90.1145020
1220,-3.9432299,-0.3806761,10.3812056,-189.6946564,-27.4732819,103.8931274
1230,-3.1100521,-0.2489957,11.3724003,-191.9465637,-5.8015265,114.2366409
1240,-2.7724714,0.2920911,12.1672707,-193.4503784,12.0305347,121.3893127
1250,-2.3846128,0.5769997,13.8120794,-185.8244324,23.6946564,124.4503784
1260,-2.1547706,0.9193687,14.1712074,-179.3282471,21.5725193,123.5496216
1270,-2.1068866,0.7852941,14.9277716,-172.3511505,14.6412210,122.8549652
1280,-1.8507085,0.5075682,15.7824965,-162.9541931,4.9923663,124.1145020
1290,-1.4197544,0.2537841,16.2373924,-152.5572510,-3.8473282,126.3129807
1300,-0.8068419,-0.5698171,16.3547077,-148.2595367,-7.8702292,132.4351196
1310,0.2274480,-1.0007712,17.6571465,-141.7404633,-6.9160304,136.8473358
1320,1.0989330,-1.4173602,19.3091373,-130.4656525,-7.4656487,140.9618378
1330,2.1667414,-1.5227045,19.6126022,-115.9923630,-4.6106873,142.6717529
1340,2.8849983,-1.4748207,19.6126022,-99.5954208,1.0992366,141.8625946
1350,3.1459649,-1.6759326,19.6126022,-80.8931274,6.8854961,140.2061005
1360,3.0573800,-1.7932479,19.6126022,-59.6488533,6.2290077,138.4885559
1370,2.7748656,-2.0949159,19.6084118,-40.7099228,-4.1145039,139.7557220
1380,3.2321558,-2.1643472,18.5908813,-25.7099228,-15.6030531,145.1221313
1390,4.1682839,-2.0542145,17.7600975,-14.7328243,-21.0305347,149.3969421
1400,5.0900469,-2.0015423,17.0777531,-8.0687027,-20.8854961,150.8244324
1410,5.8226686,-1.9392935,16.7904510,-3.0152671,-15.5877867,149.8015289
1420,6.1602492,-1.6591733,16.5845509,1.6183206,-9.1145039,146.3129730
1430,6.4283986,-1.5346755,16.4049854,5.1908398,-1.8549619,142.7251892
1440,6.6845770,-1.4963684,16.3020363,6.4122138,5.7175574,137.6793823
1450,6.9503322,-1.5250987,16.6827126,7.4961834,8.6870232,131.6564941
1460,7.1394730,-1.5011568,17.4608231,12.2366409,10.6564884,122.8854980
1470,6.6486640,-1.5370697,18.1958389,21.4122143,8.5572519,114.3206100
1480,6.0884237,-1.3311694,18.7058029,33.5725174,4.7175574,109.2900772
1490,5.7891502,-1.3598996,18.7105904,45.5877876,4.6793895,105.9694672
1500,5.8106980,-1.6519908,18.3347034,51.9389305,10.8396950,104.8931274
1510,6.0692701,-2.3846128,18.3490677,54.5267181,20.2366409,103.4961853
1520,6.1339135,-3.5338237,19.0936604,57.9389305,25.5190830,103.0076370
1530,6.4164276,-4.3741841,19.6126022,67.7786255,25.7022896,103.6106873
1540,6.8473821,-5.2121506,19.6126022,84.1297684,22.8778629,103.4885483
1550,7.3788919,-6.0596933,19.6126022,103.9847336,16.7786255,102.3358765
1560,8.2695303,-6.7109132,19.2301292,126.5648880,9.5954199,101.9542007
1570,9.8065996,-6.9551206,18.2389355,146.8702240,7.7099237,99.1526718
1580,11.3101511,-6.9096308,16.8096046,162.9160309,11.8931293,89.9923630
1590,11.9374285,-6.8449879,15.6460285,175.2442780,16.5267181,79.8549652
1600,12.6461086,-6.8378053,14.4800577,185.7404633,18.7938938,65.7480927
1610,12.7849712,-6.9144192,13.2973280,196.9007568,19.6717548,50.0381660
1620,12.8783455,-6.9694853,12.3181047,206.2824402,17.3129768,35.1068687
1630,12.9046812,-6.6797886,11.1952295,215.8625946,9.5419846,18.5190830
1640,12.7466650,-6.3517847,10.0579901,221.9770966,-1.8931298,4.0000000
1650,12.7299051,-6.1267309,9.5480280,228.8549652,-13.2900763,-10.1755724
1660,12.7179346,-5.7388721,8.8297710,238.0610657,-22.5572510,-24.8702297
1670,12.7466650,-5.2743993,7.3549500,245.3282471,-32.5572510,-40.2671738
1680,12.7610302,-4.7835903,5.7843618,247.5038147,-41.2213745,-56.7328262
1690,12.8759508,-4.1515245,4.0868812,243.1526642,-48.2061081,-73.4885483
1700,12.7131462,-3.4117200,2.6168492,231.9236603,-53.3587799,-90.4961853
1710,12.3827477,-2.8179610,1.4006008,216.2290039,-56.2213745,-105.9694672
1720,11.7722292,-2.2816625,0.7852941,196.8778687,-57.3435097,-118.0687027
1730,10.9582052,-1.9201399,0.5339043,177.5954132,-55.5572510,-127.7251892
1740,10.4889441,-1.3646880,0.1747758,159.2519073,-51.2213745,-136.3740387
1750,9.6414013,-1.1899122,0.0071826,143.7786255,-45.3587799,-144.3969421
1760,8.7747040,-0.9217629,-0.2370248,128.6564941,-42.9618340,-150.8320618
1770,7.9870162,-0.6177009,-0.4022238,113.7480927,-43.2366409,-154.8549652
1780,7.0844064,-0.4237715,-0.8020535,98.9542007,-42.9236641,-157.3129730
1790,6.3254485,-0.3399749,-1.3958124,84.6030502,-41.9694672,-159.4427490
1800,5.5401545,-0.3256098,-1.7908537,68.2290039,-41.8091621,-160.5038147
1810,4.2329268,-0.2322364,-2.2936335,51.9465637,-44.6793900,-159.3358765
1820,2.7652888,-0.0407012,-3.0645626,33.5114517,-49.8778610,-155.9160309
1830,1.6759326,0.0957676,-3.5936785,11.2366409,-54.2290077,-151.5725250
1840,0.6631905,0.2466015,-3.8354914,-13.4274807,-56.2595406,-147.0381622
1850,-0.3423691,0.4572902,-3.7923961,-37.3358765,-57.4351158,-142.2671814
1860,-1.3598996,0.5362985,-3.4596038,-60.1832047,-58.4045792,-137.1832123
1870,-2.4277081,0.4979914,-2.4468615,-79.6641235,-62.6946564,-131.3969421
1880,-3.1699069,0.7541697,-1.4365137,-93.1297684,-70.5114517,-125.5877838
1890,-3.8785870,0.8714849,-0.5769997,-102.7862625,-78.4656525,-118.8091583
1900,-4.3526363,0.9911944,0.3710994,-110.2213745,-83.9923630,-110.6641235
1910,-4.7428894,1.1827296,1.1899122,-117.1832047,-84.1374054,-103.8320618
1920,-5.6574697,1.2114599,1.4867916,-124.1297684,-82.9923630,-98.0152664
1930,-6.5433197,0.7900825,1.5753766,-133.0305328,-84.3358765,-89.9847336
1940,-6.9431496,0.0000000,2.2409613,-144.3816833,-87.2442780,-78.1221390
1950,-7.1705976,-0.5650287,3.2872221,-154.5190887,-88.7175598,-64.2748108
1960,-7.2711535,-0.7565638,4.7021880,-161.4122162,-89.8625946,-47.8320618
1970,-7.2352405,-0.9696468,5.9854736,-164.5038147,-91.1832047,-30.3664131
1980,-7.2424231,-0.8906385,7.3788919,-162.8702240,-93.0916061,-11.0229006
1990,-6.9431496,-0.4070122,8.6238708,-157.9694672,-94.2213745,9.0152674
2000,-6.0142040,-0.1484398,9.1481981,-152.8396912,-87.7328262,26.0534344
2010,-4.6351509,0.2059003,9.4043760,-151.3129730,-73.8625946,38.9236641
2020,-2.9304879,0.4118006,9.5719690,-153.1603088,-55.0152664,46.8244286
2030,-2.0230901,0.7517755,9.8592720,-158.0305328,-31.2290077,48.6564903
2040,-1.8554969,1.1420283,10.8073711,-160.6564941,-12.8091602,48.3282433
2050,-2.1882892,1.5274929,11.3676119,-159.7938995,-4.9618320,47.0763359
2060,-2.5091105,1.9871773,11.7530756,-157.7022858,-4.4503818,44.6183205
2070,-3.1363883,2.0254843,12.5455532,-149.4427490,-10.6946564,41.9694672
2080,-3.9935081,2.3056045,12.4042959,-145.0763397,-27.5267181,43.0687027
2090,-3.9647777,2.3534882,12.6892042,-148.0152740,-37.5267181,50.0305328
2100,-3.8474624,2.1882892,13.9054527,-151.9465637,-37.4427490,61.0076332
2110,-3.2896163,1.7669119,15.4736462,-155.3664093,-29.0381680,76.7709961
2120,-2.5043221,1.0390782,17.2860470,-157.5267181,-10.4351149,91.4580154
2130,-2.3056045,0.3687052,19.4719429,-156.6335907,8.3206110,104.2977066
2140,-2.5857246,-0.3351865,19.6126022,-146.4885559,17.9236641,113.6946564
2150,-3.8905578,-1.3814473,19.6126022,-122.0305328,5.0458016,123.1450348
2160,-5.6526814,-3.0621684,19.6126022,-77.4885483,-40.8091621,139.3893127
2170,-6.0908179,-4.5705075,19.6126022,-13.2900763,-103.5267181,167.3664093
2180,-3.0885043,-5.3677726,19.6126022,46.8778610,-143.9923706,201.1603088
2190,2.0374553,-5.3749552,19.6126022,88.9770966,-129.3511505,231.4656525
2200,7.1418672,-5.0086441,19.6126022,108.2671738,-72.3129807,250.1297760
2210,11.0611553,-4.2855992,19.6126022,104.2671738,-13.1450386,250.1297760
2220,14.4273853,-4.1036406,19.6126022,100.5419846,20.7557259,250.1297760
2230,17.1352139,-3.9599893,19.6126022,108.4503784,25.2366409,228.6717529
2240,19.6126022,-3.3805954,19.6126022,134.3893127,13.7862597,192.5114441
2250,19.6126022,-2.4731977,19.6126022,162.0839691,-4.9465647,145.0305328
2260,19.6126022,-1.6591733,18.9188843,187.7404633,-14.9312973,88.8396912
2270,19.6126022,-1.3239868,16.2086620,204.7099304,-21.0763359,35.3664131
2280,19.6126022,-1.3718705,13.1848011,213.2595367,-19.7022896,-10.4961834
2290,17.8175583,-1.6879035,10.6230183,213.6717529,-12.9770994,-43.1908379
2300,15.7010946,-2.0877333,8.5376797,212.9618378,-3.5267177,-65.0839691
2310,13.7115231,-1.8938038,5.2696109,201.3587799,5.9236641,-75.8320618
2320,11.8895445,-1.6950861,2.4947455,179.9236603,15.8473282,-79.4274826
2330,10.3740225,-1.4460905,-0.1963235,150.2671814,21.0763359,-78.7709961
2340,9.2918491,-1.1539993,-1.7764885,115.4122162,21.9465656,-76.0992355
2350,8.8082228,-0.7445929,-1.7501525,82.3740463,17.6564884,-75.9007645
2360,8.3916340,-0.4357425,-1.0678085,58.8854980,11.8396950,-77.9618301
2370,7.8888540,-0.3758878,-0.0670373,46.3511467,3.1145039,-82.7022934
2380,6.8928714,-0.2466015,0.1628049,40.8091621,-6.2977099,-86.0534363
2390,5.9064655,-0.1125269,-0.3280039,34.8091621,-16.8320618,-86.8473282
2400,5.5377603,0.1460456,-0.9097920,23.8625946,-24.1374054,-85.2595444
2410,5.2241216,0.3639168,-0.9840119,8.5038166,-26.7022896,-84.4427490
2420,4.7931671,0.6895266,-0.7302278,-6.8778625,-24.1450386,-83.0076370
2430,4.4148855,0.8475431,-0.0502780,-21.1068707,-19.3053436,-81.5954208
2440,3.9647777,0.9313397,0.6943150,-33.1832047,-15.6870232,-80.4274826
2450,3.4572096,0.8858501,1.5969244,-41.9847336,-14.8320608,-79.6335907
2460,2.6120608,0.9217629,2.3367288,-47.1450386,-20.5267181,-78.3053436
2470,2.1068866,0.6584021,3.4643922,-48.5801544,-30.2442741,-75.3129807
2480,1.6232605,0.9744351,4.2018023,-47.9236641,-38.1984749,-72.6412201
2490,1.2330076,0.9792235,4.9128766,-47.1908379,-42.0534363,-69.5648880
2500,0.8906385,1.2952565,5.2863703,-48.2137413,-37.8931313,-65.0305328
2510,0.4477134,1.5274929,5.4683285,-51.2824440,-27.0458012,-60.3206100
2520,-0.1077385,1.5155219,5.4515696,-55.9694672,-15.3053436,-55.1984749
2530,-0.6440369,1.7740943,5.5138183,-63.3969460,-5.0839696,-49.8167953
2540,-1.2761030,1.5658000,5.8442163,-70.4809189,-0.1297710,-44.4732819
2550,-2.0566087,1.4173602,6.2320752,-75.0305328,-3.4656489,-38.6183205
2560,-2.4564383,1.6543850,6.4571290,-79.3511429,-13.0000000,-31.7099228
2570,-2.4660151,1.7693061,6.8976598,-82.6564865,-24.2061062,-24.7022896
2580,-2.2984219,1.9416877,7.5847921,-85.3511429,-31.8778629,-17.2900772
2590,-2.1260402,1.8507085,8.5352850,-86.3511429,-31.6106873,-9.5038166
2600,-1.6902977,1.8076130,9.1769285,-87.1068726,-25.9770985,-2.2671757
2610,-1.3646880,1.8435259,9.7275915,-86.0229034,-17.4503822,2.5648854
2620,-1.3551112,1.6591733,10.1082678,-83.3282471,-10.2748089,6.6030536
2630,-1.4772149,1.7477583,10.1824875,-80.5648880,-7.8778625,10.6488552
2640,-1.4077834,1.7214222,10.1369982,-78.3969498,-8.0000000,15.1145039
2650,-1.3215926,1.8698620,9.9143381,-77.1679382,-9.1908398,20.4274807
2660,-1.0558375,1.6495966,9.8377247,-78.9007645,-9.5648851,25.9007626
2670,-0.6775556,1.6017127,10.0795374,-81.1068726,-8.9770994,31.1526718
2680,-0.5075682,1.1923064,11.0204544,-81.1755753,-8.7786255,35.4656487
2690,-0.2513899,1.1061156,11.5902710,-79.4503784,-6.9236641,38.9465637
2700,-0.0742199,0.9792235,12.0020714,-76.2366409,-3.0610688,42.6412201
2710,0.0215477,0.8451489,12.5000629,-72.6488571,1.3358779,47.3740463
2720,-0.3758878,0.5626345,12.8615856,-68.5114517,3.5419848,52.2290077
2730,-0.1628049,0.6440369,12.8448267,-63.9618340,1.0839695,59.5801544
2740,0.0000000,0.1867468,13.6325150,-56.1755714,-6.9618320,67.4961853
2750,0.4309541,-0.0981618,14.2526102,-48.4122124,-14.3816795,74.6259537
2760,1.5897418,0.1197095,14.2526102,-40.3893127,-18.5954189,80.8015289
2770,2.1547706,-0.2801202,14.6955347,-32.1374054,-20.6793900,86.5267181
2780,3.2656744,-0.0766141,14.7146883,-25.5801525,-21.7709923,91.9694672
2790,3.8642218,-0.4141948,15.3323889,-19.1526718,-22.4198475,96.5801544
2800,4.9368186,-0.8140244,15.8638992,-12.0152674,-20.5954189,97.7633591
2810,6.2703824,-0.9097920,16.1631737,-2.9312978,-18.1068707,99.6793900
2820,6.8713236,-1.1252691,16.6396160,8.0763359,-18.6488552,96.6793900
2830,7.9319496,-1.4317253,16.9317074,24.1908398,-21.8931293,95.0992355
2840,8.6789370,-1.7740943,16.9748039,39.1755714,-25.0687027,94.8702316
2850,9.4714136,-1.6136837,16.7665081,55.9083977,-23.6564884,91.0916061
2860,10.4841557,-1.3934183,16.1057129,72.2519073,-19.0916023,85.3435135
2870,11.4873209,-1.1899122,15.1432486,84.9312973,-12.8778629,75.9542007
2880,12.3013458,-0.7733232,14.1233234,93.7633591,-6.3740458,62.3740463
2890,12.5551291,-0.4716553,13.1512823,100.2137375,-0.6870229,45.9007645
2900,12.4258432,-0.3351865,12.1145983,101.7328262,-0.2290076,28.1068707
2910,12.3324699,-0.3447633,11.3724003,106.2671738,-1.8244275,10.6412210
2920,12.1792421,0.2250538,10.1705170,106.4351120,-1.4427481,-5.8702292
2930,11.9541883,0.2370248,9.3110027,105.9923630,-0.3435115,-21.3053436
2940,11.2526903,0.2130829,8.5161324,101.0610657,1.1984733,-35.3816795
2950,10.6278067,0.5267217,7.3812861,98.6030502,1.9541985,-46.7480927
2960,10.0603838,0.6440369,6.8234401,92.2290039,2.2290077,-54.7862587
2970,8.8130112,0.7852941,5.3151007,71.4274826,12.1832066,-70.1755753
2980,8.3557215,0.9624642,4.8602047,62.7862587,16.6335869,-74.3282471
2990,7.6254935,0.7852941,4.8793583,55.2519073,19.5267181,-77.6259537
3000,7.3669209,1.1755470,4.4077029,48.3435097,18.7404575,-80.5648880
3010,6.5265603,0.7900825,4.8961172,43.7862587,12.9541988,-82.5190811
3020,5.7364779,0.7805058,4.7524662,38.4809151,-4.0458016,-85.3129807
3030,5.2743993,0.8643024,4.7644372,36.8167953,-10.6641226,-86.1526718
3040,4.9631548,0.9528874,4.3454537,34.1526718,-16.6946564,-86.8320618
3050,4.2951760,0.8307837,4.1874375,30.4885502,-21.1755733,-86.0992355
3060,3.8905578,1.1563935,3.5673423,24.2442741,-22.5114498,-84.4274826
3070,3.2896163,1.1803354,3.1483591,16.6870232,-23.1679382,-80.8778610
3080,3.0525916,1.5131277,2.5498118,5.8625956,-19.3587780,-76.3511429
3090,2.5162930,1.5107336,2.1116750,-6.9083967,-15.5343513,-70.6641235
3100,2.0973101,1.5586174,1.9368993,-19.5419846,-15.6335878,-64.2137375
3110,1.9464760,1.6735384,1.7525467,-32.7938919,-17.9847336,-58.9923668
3120,1.9057748,1.8243724,1.8100072,-45.4198456,-19.0763359,-55.7328262
3130,1.7357874,1.8770446,1.7669119,-58.8625946,-19.7022896,-53.5877876
3140,1.4580613,1.5825592,2.0685797,-71.7175598,-21.9694653,-52.4122124
3150,1.2617378,1.5227045,1.9416877,-85.2519073,-26.2366409,-52.8854980
3160,0.7900825,1.1587877,2.2553265,-99.0076370,-33.7786255,-54.4351158
3170,0.6368544,0.7445929,3.0214672,-111.9389343,-43.3282433,-56.4274826
3180,0.4094064,0.2585725,3.9599893,-121.5419846,-52.7099228,-58.1297722
3190,-0.4477134,-0.1508339,4.7572546,-127.9083939,-64.5419846,-57.8167953
3200,-1.0725969,-0.4501076,5.0469513,-127.9389343,-81.5496216,-53.4427490
3210,-1.8578910,-0.7972651,5.5449429,-128.9160309,-99.3893127,-46.1755714
3220,-2.0374553,-1.1779412,6.3374195,-131.6412201,-114.0534363,-35.7786255
3230,-2.2888451,-1.2090657,7.3501616,-134.1984711,-124.6946564,-24.3587780
3240,-2.3151813,-1.1731528,8.6214762,-133.7938995,-129.9084015,-11.1832066
3250,-2.6168492,-1.4748207,9.8042059,-129.4274750,-132.1603088,4.2977099
3260,-1.9536586,-1.8171898,10.5775290,-125.6946564,-124.8931274,21.9160309
3270,-1.1180865,-1.4341195,11.4873209,-126.2061081,-100.7404556,35.9847336
3280,-0.7350162,-1.3096216,12.3731709,-131.7633514,-67.1526718,44.4885483
3290,-1.6711442,-2.2649033,13.9892492,-135.9618378,-40.3129768,53.6641235
3300,-3.3422885,-3.1411765,15.9716377,-134.3511505,-32.6870232,67.9770966
3310,-4.0749106,-3.7181761,17.7888279,-122.2061081,-42.2213745,85.7251892
3320,-4.4603748,-4.4172797,19.6126022,-99.1145020,-64.5572510,104.6030502
3330,-4.2113791,-5.3893204,19.6126022,-65.4656525,-86.8854980,125.9923630
3340,-3.3183465,-5.1977854,19.6126022,-30.0076332,-95.8396912,148.6793823
3350,-1.5466464,-4.7045822,19.6126022,-1.0687023,-86.6870193,173.0076294
3360,0.0766141,-4.5322008,19.6126022,17.2824421,-58.4274826,199.1297760
3370,2.4420733,-3.4380560,19.6126022,26.9770985,-15.3282442,223.2671814
3380,4.2425036,-3.2034254,19.6126022,34.9160309,22.3129768,241.0076294
3390,6.0022330,-3.0956869,19.6126022,44.8473282,47.4656487,250.1297760
3400,7.4555058,-3.1100521,19.6126022,57.0076332,59.1526718,250.1297760
3410,9.3588867,-2.7413468,19.6126022,73.2061081,53.7404594,249.8702240
3420,11.4011297,-2.0326669,19.6126022,92.4198456,38.9389305,234.6564941
3430,13.1441002,-1.8195840,19.6126022,111.3893127,23.9618320,207.5343475
3440,13.8240499,-1.8985922,19.6126022,125.2671738,11.1450386,173.6946564
3450,14.0802279,-1.2186425,19.6126022,134.5190887,2.4351146,138.5419922
3460,13.4553452,-1.5418580,19.6126022,143.0000000,-8.3282442,105.4503784
3470,11.8703909,-2.9592183,19.3306866,151.9465637,-22.7328243,80.7251892
3480,11.4514084,-4.0030847,18.4041348,161.6870270,-32.2900772,64.5114517
3490,10.9438400,-4.9870968,17.6092644,169.4198456,-38.3358765,55.6412201
3500,10.8504667,-6.1243367,17.1926746,181.3282471,-41.5877876,50.4809151
3510,11.9039097,-6.9024482,16.4576588,195.5572510,-39.3358765,47.8167953
3520,13.1441002,-7.1658092,15.7274303,213.3587799,-28.9847336,43.4045792
3530,14.5925846,-7.2519999,14.2238798,227.7099304,-17.5190830,34.1679382
3540,16.0817699,-7.0532823,12.2414904,236.3587799,2.2442749,20.4427490
3550,16.6851063,-6.7252784,10.2710724,241.2213745,23.0381680,4.3282442
3560,16.4744167,-6.4283986,8.3844519,243.7022858,34.6870232,-11.8167934
3570,16.2421818,-6.3493905,6.6678176,245.3893127,34.6870232,-26.6412220
3580,16.3594971,-5.9639258,4.7596488,245.0839691,27.5648861,-40.3893127
3590,16.3810444,-5.3965030,2.6264257,239.3435059,14.2137403,-55.7099228
3600,16.1727505,-4.8506279,1.2306134,227.3206177,-8.1221371,-73.3129807
3610,15.9907913,-4.2161674,0.5458752,213.9389343,-35.8091621,-91.7633591
3620,16.0745888,-3.5912843,-0.0790083,202.9084015,-59.5725174,-109.5190811
3630,15.7801027,-3.1579359,-1.0175306,189.3893127,-76.9160309,-126.8320618
3640,15.7465839,-3.0717452,-1.8459201,170.4732819,-87.0229034,-142.2748108
3650,15.0067797,-2.8251436,-1.9776005,150.6183167,-89.6106873,-157.2977142
3660,13.7665892,-3.0071020,-1.9321109,134.3893127,-92.0763321,-167.0381622
3670,12.8831339,-2.8873925,-2.1020982,122.0763321,-98.5343475,-174.4274750
3680,11.7889891,-2.8826041,-2.5354466,112.0076370,-107.1221390,-180.0686951
3690,10.4602137,-2.7509236,-3.3422885,102.4045792,-119.9923630,-182.9770966
3700,9.4187412,-2.6719155,-4.0318151,92.4885483,-140.8244324,-183.7328186
3710,8.8704720,-2.2912393,-4.7237358,78.8702316,-156.6564941,-181.9694672
3720,8.6717539,-1.9919657,-5.3893204,59.9236641,-155.4351196,-180.9389343
3730,8.1570034,-1.8243724,-6.0668759,35.2519073,-135.7404633,-179.9923706
3740,6.7252784,-1.9608412,-6.3805151,5.2290077,-106.3206100,-174.7175598
3750,5.1786318,-2.3917952,-6.4116392,-26.1603050,-77.8778610,-164.8244324
3760,3.8019729,-2.5929072,-5.9423780,-56.2061081,-56.3816795,-152.7862549
3770,2.6383967,-2.7676830,-5.0277977,-79.6717529,-48.9771004,-141.5954132
3780,2.0470319,-2.8897867,-3.8881636,-95.6488571,-54.0305328,-132.7022858
3790,1.2090657,-2.7317703,-2.7197993,-104.4503784,-68.1679382,-125.8931274
3800,0.0957676,-2.7317703,-1.8722562,-108.5267181,-89.6641235,-118.3358765
3810,-0.3639168,-2.1906834,-0.8068419,-111.5801544,-115.6793900,-109.7099228
3820,-0.5602403,-1.8339491,0.2035061,-112.2824402,-132.5877838,-101.0839691
3830,-0.9935886,-1.3168042,0.6560079,-114.6870193,-137.0381622,-92.0763321
3840,-1.5586174,-0.8786675,0.7541697,-120.7480927,-130.4351196,-80.7633591
3850,-2.0326669,-0.7637464,0.5434810,-132.5877838,-113.1908417,-67.0610657
3860,-2.3391230,-0.4836263,0.6775556,-150.1450348,-88.3435135,-54.5725174
3870,-2.8873925,-0.6296718,1.0702027,-169.4122162,-64.1221390,-44.0916023
3880,-3.6511390,-0.7781116,1.8076130,-185.7557220,-53.4503822,-36.5267181
3890,-4.6399393,-0.6967092,3.0549858,-197.7633514,-58.5954208,-30.9618320
3900,-5.1163831,-0.4620786,4.6040263,-206.1374054,-71.1526718,-26.3816795
3910,-5.4922705,-0.9576758,6.3493905,-211.8396912,-85.3129807,-20.1679382
3920,-5.7939386,-1.4389079,8.4299412,-211.8625946,-99.7938919,-10.3664122
3930,-5.5832496,-2.1212518,10.3261395,-204.5114441,-106.6488571,3.0610688
3940,-5.3055239,-2.9017577,11.6022425,-191.5190887,-103.8320618,19.5725193
3950,-5.0661049,-2.7796540,12.3875360,-177.1068726,-91.5343475,40.4656487
3960,-4.7333126,-2.4396791,13.4721041,-161.4122162,-63.3511467,64.5954208
3970,-4.1036406,-1.3000449,13.7378588,-150.6030579,-23.1832066,84.3587799
3980,-4.3574247,-0.1364688,13.8408089,-142.1145020,10.6564884,96.3893127
3990,-4.7644372,0.1460456,13.1848011,-141.7099304,25.1297703,97.8015289
4000,-5.9160423,-0.3878587,12.9669304,-140.8015289,6.8091602,90.9083939
4010,-6.8832946,-1.3622938,13.1895895,-133.5419922,-42.3969460,90.0534363
4020,-6.4667058,-2.4157372,13.7402534,-124.9007645,-95.6564865,96.4885483
4030,-5.5425487,-2.3654592,14.9014349,-117.9236679,-115.5190811,111.6335907
4040,-4.6375451,-2.1643472,16.6180687,-113.8625946,-98.4656525,135.7557220
4050,-3.7469065,-1.8076130,18.1455612,-111.5572510,-62.7251892,164.3358765
4060,-2.3319404,-1.9129574,19.6126022,-108.6259537,-27.2061062,192.9847260
4070,-0.2226596,-1.8866212,19.6126022,-98.7862625,1.1832061,217.0458069
4080,1.8531027,-1.9512644,19.6126022,-82.9160309,16.9847336,232.9847260
4090,4.5010762,-2.0278785,19.6126022,-63.7480927,25.2748089,241.6870270
4100,7.5393028,-1.9392935,19.6126022,-46.3053436,32.6335869,240.9465637
4110,10.0196829,-1.6831152,19.6126022,-36.4045792,39.6946564,231.8702240
4120,11.7746239,-1.1875180,19.6126022,-24.4580154,39.7328262,213.2977142
4130,12.1361465,-0.6584021,19.6126022,-9.5343513,26.9770985,188.0152740
4140,11.3388815,-1.4796091,19.6126022,13.1297712,5.9160304,168.6717529
4150,10.4961262,-1.4772149,19.6126022,47.6793900,-17.0076332,151.0915985
4160,9.9143381,-2.3774302,19.6126022,64.0839691,-31.4885502,144.6488495
4170,10.1800938,-3.1315999,19.6126022,74.5572510,-25.4809170,150.3587799
4180,11.3939476,-3.7038112,19.6126022,86.1603088,-11.8778629,158.5572510
4190,12.4162664,-3.3422885,19.6126022,101.4045792,4.0687022,164.8091583
4200,13.7282820,-2.9304879,19.6126022,112.5877838,19.4122143,162.4198456
4210,14.7841196,-2.3702476,19.2037945,122.0610657,39.5038185,153.5648804
4220,15.0977583,-2.2457497,17.6427822,127.2519073,51.5801544,138.9313049
4230,14.5997677,-2.5857246,16.5270901,131.4503784,40.7022896,119.9694672
4240,14.0419216,-3.3063757,15.9285421,140.7404633,11.0992365,100.4122162
4250,14.1400833,-3.8307030,15.2222567,153.6259613,-21.4122143,84.4351120
4260,14.6979294,-3.8785870,14.3507719,164.6641235,-42.6717567,69.8931274
4270,15.4951944,-3.6511390,13.6229382,172.3282471,-47.8702278,56.0458031
4280,16.2062683,-3.6511390,12.9286232,178.4045868,-38.2977104,40.6870232
4290,16.3523140,-3.7995787,12.1792421,182.9236603,-22.3206100,24.8091602
4300,16.3475246,-4.1443419,11.4083128,187.7862549,-6.2748094,9.6030531
4310,15.9692440,-4.4579806,10.4889441,192.2900696,6.0076337,-5.1450381
4320,15.5574427,-4.6231799,9.4690189,196.2595367,8.9465647,-18.6488552
4330,15.0019913,-4.5681133,8.4107876,200.5190887,2.5572519,-31.2442741
4340,14.7865143,-4.4005203,7.0245519,203.2290039,-9.1221371,-43.6412201
4350,14.8798876,-4.2353210,5.5593081,202.0152740,-24.7404575,-56.1374054
4360,15.2174683,-3.9959023,5.0780759,197.7480927,-40.6564903,-69.6412201
4370,15.7298250,-3.7397239,4.5872669,192.7938995,-50.6946564,-84.2290039
4380,15.9285421,-3.2489152,3.8283088,187.6106873,-54.7862587,-100.6641235
4390,15.5239248,-3.0071020,3.0621684,178.4809113,-54.2748108,-114.8625946
4400,15.1001530,-2.7892308,2.0661855,165.8625946,-44.9541969,-125.8778610
4410,14.6787758,-2.5162930,1.1875180,150.0458069,-32.9694672,-133.4274750
4420,14.1137466,-2.1787124,0.6224893,133.6870270,-26.2595425,-141.1068726
4430,13.7043400,-2.0973101,0.0191535,118.6641235,-18.4122143,-151.9007568
4440,13.0435438,-2.3247581,0.3136388,107.5114517,-19.1374054,-163.5267181
4450,12.3635941,-1.4820032,0.2992737,100.6793900,-30.0152664,-173.3587799
4460,12.3851423,-1.1779412,0.0287303,96.9083939,-47.8167953,-184.6870270
4470,12.1720591,-1.1827296,-0.3136388,92.0610657,-61.5114517,-199.0229034
4480,11.1976242,-1.1923064,-0.5506636,85.8625946,-68.7709961,-211.9465637
4490,9.9263096,-1.3407460,-1.1300575,76.9312973,-65.4122162,-219.8091583
4500,8.3581152,-1.5227045,-1.6304430,63.4885483,-51.1068687,-221.4580078
4510,6.6414814,-1.7166338,-2.1619530,45.6870232,-29.6793900,-216.8091583
4520,4.5944495,-1.8961980,-2.7030399,27.9847336,-9.7175570,-205.9541931
4530,2.7748656,-1.5658000,-3.0885043,10.3206110,3.7862597,-191.4732819
4540,1.6280488,-0.9002152,-3.1627243,-5.3511453,20.3893127,-181.6870270
4550,0.3471575,-1.7070571,-4.2640514,-21.6183205,6.9770994,-167.0534363
4560,-0.8906385,-1.4532729,-4.5441718,-43.6335869,-26.1908398,-149.2061005
4570,-0.8164186,-0.6248835,-3.2130022,-61.7099228,-53.4732819,-138.6259613
4580,-0.9289455,-0.3208214,-1.9416877,-71.9389343,-73.9236679,-132.7251892
4590,-1.3886299,-0.3782819,-0.8403605,-77.8854980,-91.0305328,-126.3969498
4600,-1.8507085,-0.3447633,-0.1388630,-82.5954208,-99.1297684,-117.8549652
4610,-2.5593886,-0.3663110,0.7014975,-84.7022934,-107.2977066,-107.4274826
4620,-3.1172347,-0.0167593,0.8283895,-86.9312973,-116.4122162,-94.3664093
4630,-2.9592183,0.3639168,0.7469871,-92.6030502,-118.4274826,-80.8625946
4640,-2.7557120,0.6009415,0.7757174,-102.3282471,-112.9923630,-69.3206100
4650,-2.9137285,0.6943150,0.9193687,-114.6564865,-105.5801544,-58.9389305
4660,-3.1339941,0.6488253,1.3048333,-128.2824402,-99.1145020,-49.1297722
4670,-3.4380560,0.3806761,1.8914096,-140.9313049,-95.0687027,-39.3511467
4680,-3.6655040,0.3495516,2.8706331,-151.0458069,-92.8778610,-28.3969460
4690,-3.6200144,0.3495516,3.9432299,-158.3511505,-90.7328262,-16.7862587
4700,-3.6535332,0.2394189,5.2097564,-162.8854980,-87.0000000,-5.4351144
4710,-3.6200144,0.2466015,6.5217719,-163.7251892,-82.0687027,7.4122138
4720,-3.4428444,0.6368544,7.6254935,-160.9847260,-74.3740463,22.8015270
4730,-2.8179610,0.7445929,8.3868456,-157.4351196,-60.0458031,38.0992355
4740,-2.0518203,1.1156923,8.7603388,-155.3511505,-40.8091621,49.9312973
4750,-0.9313397,1.2737088,8.7387915,-157.9618378,-15.8549614,58.3358765
4760,-0.3256098,1.0007712,8.7794924,-164.0152740,8.5954199,61.4351158
4770,-0.1628049,0.8810617,9.1458035,-171.0458069,21.4122143,60.8625946
4780,-0.3878587,1.0175306,9.8473015,-174.5954132,22.6335869,57.7633591
4790,-0.8331779,1.2784972,11.1641054,-172.5954132,12.3740454,53.2595406
4800,-1.1659702,1.2042773,12.3204985,-164.7557220,-5.2213740,49.1374054
4810,-1.4053892,1.1444225,13.1033993,-153.6488495,-20.6106873,46.8549614
4820,-1.4796091,0.7637464,13.4050665,-142.9618378,-29.7709923,47.4961815
4830,-1.6902977,0.1364688,13.5367470,-135.9236603,-30.3816795,54.1374054
4840,-1.7932479,-0.1364688,13.5391417,-132.3206177,-23.2824421,66.6641235
4850,-1.5538290,-0.2082945,13.9341822,-134.0000000,-8.7938929,82.6106873
4860,-0.7086801,-0.0933734,14.3675308,-135.7175598,10.4885492,96.9847336
4870,-0.2657550,-0.1628049,14.5447006,-139.8931274,31.4961834,108.6030502
4880,0.1508339,-0.5817881,15.6005383,-137.2595367,48.3053436,114.0457993
4890,-0.0167593,-0.9121862,16.3403435,-128.0305328,41.7175560,113.1450348
4900,0.3854645,-1.0366840,16.6851063,-113.8015289,18.5038166,111.3969498
4910,0.9457048,-1.3215926,17.2046452,-98.2748108,-7.8244276,110.5877838
4920,1.3359578,-1.5035510,17.5374374,-85.2671738,-26.3816795,109.8320618
4930,2.0063307,-1.6639616,18.4735661,-66.4656525,-37.5954208,110.7328262
4940,2.7820482,-1.4293311,18.0043049,-57.1145020,-40.0534363,114.3969498
4950,3.3782012,-1.4796091,18.6842537,-45.8549614,-32.2519073,116.5190811
4960,3.4572096,-1.5873476,18.7201672,-32.5648842,-24.3358784,118.1832047
4970,3.2273674,-1.6759326,18.3011837,-20.2595425,-19.2900772,118.9083939
4980,3.3351059,-1.7717001,17.7074261,-12.1984730,-18.7251911,120.4885483
4990,3.1339941,-1.9488702,17.4727955,-5.5419846,-17.5114498,124.5267181
5000,3.0980811,-2.1858950,17.6547527,1.9312977,-19.1297703,131.7633514
5010,3.8091555,-2.0853391,17.6834831,10.4885492,-19.6946564,140.3435059
5020,4.4914994,-2.5929072,18.3083668,21.0152664,-18.4427490,147.3206177
5030,5.4779053,-2.4516499,17.8534698,31.6717548,-11.4351149,151.2671814
5040,6.0189924,-2.7293761,17.8007984,40.6946564,-3.4961832,152.1832123
5050,6.9790621,-2.4636209,16.5677910,46.6641235,5.0763359,149.8015289
5060,7.3956513,-2.6575503,16.2182388,51.0534363,10.6335878,144.9084015
5070,7.5153608,-3.0214672,16.2421818,54.8702278,9.4885492,141.0534363
5080,8.0636301,-3.1675127,16.4025917,60.7480927,4.3893127,137.2519073
5090,8.7363977,-3.5649481,17.1543674,73.5648880,-2.5572519,131.9313049
5100,9.4594421,-4.0796990,17.4727955,90.6946564,-10.5267172,125.4198456
5110,10.3596573,-4.3646073,17.2477417,108.7251892,-14.7709923,118.6793900
5120,11.3843708,-3.9695661,16.6204624,126.1984711,-9.7862597,111.4580154
5130,12.7490587,-3.6200144,15.3754845,137.1755676,2.6335878,101.1908417
5140,13.0722742,-3.7325413,14.5542774,145.7404633,16.6946564,88.6412201
5150,13.0698805,-3.5553713,13.6899757,149.7404633,27.3129768,75.9083939
5160,13.2207146,-3.4955165,13.0004492,156.1832123,32.2595406,63.1603050
5170,13.4457684,-3.3470769,12.2151546,162.5648804,33.2748108,49.9389305
5180,13.3284531,-3.2106080,11.4825325,168.5114441,28.3511448,36.4122124
5190,13.4122496,-2.9448531,10.9127159,174.6030579,22.4580154,23.3282452
5200,13.7785606,-2.8610563,10.1346035,179.6335907,19.4274807,9.8702288
5210,13.8216553,-2.3726418,9.2056589,184.8091583,18.2519093,-4.8091602
5220,13.9796724,-1.7453641,7.7811155,184.3282471,18.5267181,-19.6412220
5230,14.0898046,-1.4317253,6.8880830,179.6412201,22.2900772,-35.2900772
5240,13.7426472,-1.0893562,5.7221127,172.1068726,25.4045811,-51.2748108
5250,13.0363617,-0.7038917,4.8003497,162.6106873,25.5114498,-64.5725174
5260,12.3683825,-0.4692611,4.0773048,151.8320618,21.4427490,-75.0534363
5270,11.8033543,-0.0742199,3.7014170,140.9847260,15.4427481,-84.8473282
5280,11.3652172,0.1149211,3.3758070,131.5267181,10.2213745,-94.6793900
5290,10.8313131,0.2082945,2.9424589,122.1679382,5.5877862,-103.2213745
5300,10.2279778,0.3327923,2.5450234,111.7786255,2.8320611,-109.1450348
5310,9.5480280,0.4620786,2.2840567,99.2366409,-0.5419847,-113.3282471
5320,9.1745338,0.7493813,2.0230901,91.7404556,-3.8320611,-116.4274826
5330,8.8944139,0.9720409,1.7812769,83.1755753,-7.3206105,-121.3129807
5340,8.3700867,1.1252691,1.4700323,75.0457993,-11.3358774,-127.0000000
5350,7.6135225,1.0342898,1.0318956,67.0381699,-17.2977104,-132.3358765
5360,6.7971039,0.9433106,0.6799498,58.4503822,-23.7251911,-136.4045868
5370,6.1267309,0.9361281,0.2801202,48.5038185,-29.9007626,-138.4656525
5380,5.6670465,0.9552816,-0.1101327,35.6183205,-32.5114517,-139.1145020
5390,5.3462253,0.9313397,-0.2106887,21.7251911,-28.1450386,-139.4732819
5400,4.6543045,0.8906385,-0.1197095,6.4045801,-20.2748089,-139.6717529
5410,3.8043671,0.7206510,0.0359128,-6.3206105,-13.3893127,-138.4427490
5420,2.5929072,0.6943150,0.1364688,-18.1450386,-11.9541988,-134.5267181
5430,1.7597293,0.5937590,0.0622489,-29.7328243,-12.2442751,-129.2977142
5440,1.0606259,0.5003856,0.2896969,-39.9771004,-15.3358774,-123.4503784
5450,0.4046180,0.4285599,0.5075682,-50.5801544,-21.0763359,-117.1984711
5460,-0.2059003,0.3160330,0.5746055,-61.2366409,-29.5572510,-110.2595444
5470,-0.6033357,0.0023942,0.8643024,-73.7175598,-39.8244286,-103.3358765
5480,-0.9097920,0.0143651,1.6424140,-85.5496216,-48.4656487,-96.7862625
5490,-1.1994889,-0.0191535,2.6024840,-94.2824402,-53.6793900,-90.2519073
5500,-1.2808913,-0.1699875,3.6535332,-99.1297684,-56.2671738,-84.3893127
5510,-1.5011568,-0.1436514,4.4100971,-101.3816757,-56.5343513,-79.7709961
5520,-1.8363433,-0.2226596,4.8841467,-101.4809189,-55.2519073,-75.5801544
5530,-2.2744799,-0.3710994,5.2983413,-102.1526718,-52.7862587,-71.4351120
5540,-3.0238612,-0.5267217,5.4180508,-103.0305328,-51.6030540,-64.4503784
5550,-3.4045374,-0.7038917,5.2887645,-104.6106873,-53.0228996,-57.1297722
5560,-3.7133877,-0.6512195,5.3079181,-108.2366409,-53.1297722,-48.6793900
5570,-4.0222383,-0.6177009,5.6766233,-112.6488571,-52.6030540,-38.1068687
5580,-4.2784166,-0.5195391,6.0142040,-115.7251892,-52.2442741,-27.1068707
5590,-4.6040263,0.0047884,6.2536230,-118.9312973,-52.5954208,-15.6106873
5600,-4.4962878,0.2035061,6.5289545,-124.4656525,-52.6793900,-4.7709923
5610,-4.1563129,0.0933734,7.2304521,-130.2977142,-53.6335869,3.8396947
5620,-3.6319854,-0.4764437,8.4538832,-136.4503784,-54.9618340,8.8091602
5630,-3.0382264,-0.3782819,9.1146793,-142.1755676,-53.2061081,12.1832066
5640,-2.8730273,-0.7469871,10.9151096,-136.8244324,-53.1526718,14.7709923
5650,-3.0597742,-0.7876883,11.7961712,-129.1679382,-52.3893127,20.3893127
5660,-3.4476328,-0.7565638,12.4928808,-124.5954208,-44.6412201,30.2290077
5670,-3.4069316,-0.5410868,12.8376436,-125.8778610,-32.2290077,42.3816795
5680,-3.4069316,-0.7900825,13.8958759,-125.4427490,-17.9694653,56.4732819
5690,-3.1555417,-0.9576758,14.7793312,-121.2748108,-5.0229006,71.5801544
5700,-2.5091105,-1.1180865,15.3419657,-113.8473282,7.2061067,85.1068726
5710,-1.9009864,-1.2042773,15.6723642,-104.6259537,17.8854961,94.8854980
5720,-0.9672526,-1.3335636,15.5071650,-95.5801544,27.0152664,100.2824402
5730,-0.5339043,-1.4053892,15.0187502,-89.6641235,33.5801544,103.1908417
5740,-0.2537841,-1.5107336,14.8391867,-87.0916061,33.6946564,107.0229034
5750,0.2011119,-1.6519908,15.2031031,-83.9083939,29.0076332,110.4503784
5760,0.8666966,-1.5921360,15.7753143,-77.5572510,21.4045811,113.2977066
5770,1.9416877,-1.4149660,16.0003681,-69.1984711,16.9770985,114.5114517
5780,2.6743097,-1.6352314,16.5246964,-58.0305328,16.4045811,112.7480927
5790,3.4189026,-1.4939742,16.1775379,-47.8473282,17.6564884,109.6030502
5800,3.6894460,-1.3383518,16.0769825,-38.1374054,21.9465656,105.2671738
5810,3.9360476,-0.7421987,15.3156300,-30.4885502,27.8854961,98.7480927
5820,3.8378856,-0.4165890,14.3986549,-27.3358784,35.0228996,91.1679382
5830,3.0956869,-0.2442073,13.8671455,-25.4122143,37.4656487,82.8854980
5840,2.1595588,-0.1699875,13.2446556,-23.6717548,30.3816795,75.8244247
5850,1.3838415,-0.3327923,13.1201582,-23.0381680,13.8396950,72.4198456
5860,1.2330076,-0.4548960,13.4242201,-19.2824421,-2.5114503,71.9160309
5870,1.3096216,-0.5793939,13.5487185,-13.8167934,-10.5267172,73.0076370
5880,1.5059452,-0.6512195,13.4481621,-9.8091602,-12.6183205,74.6259537
5890,1.4293311,-0.8403605,13.2111378,-8.5190840,-11.3206110,77.7404556
5900,1.8387375,-0.9097920,13.3619709,-8.8702288,-7.4045801,84.5343475
5910,2.6910689,-1.0151364,13.5798426,-8.6793890,-1.9541985,88.9542007
5920,3.5529771,-1.1923064,13.9772778,-8.2366409,1.9694656,88.3664093
5930,3.9264708,-1.3311694,14.5566721,-7.2595420,2.9007633,84.8320618
5940,3.9575951,-1.6376256,15.4784346,-4.1755724,-2.1603053,78.9770966
5950,3.8235207,-1.9895715,16.7234135,3.5190840,-15.4732828,72.2595444
5960,3.9216824,-2.5737536,17.9348736,17.6106873,-31.2824421,66.5725174
5970,4.0030847,-3.1675127,18.6100349,35.3358765,-40.5801544,63.6641235
5980,4.1826491,-3.4548154,18.9164906,53.8549614,-44.5725174,63.7557259
5990,4.6351509,-3.6655040,18.8015690,71.5725174,-43.6946564,66.9389343
6000,5.2360926,-3.6655040,18.0761299,87.6564865,-35.2519073,70.9618301
6010,6.0333576,-3.3566537,17.1783085,97.7862625,-22.5496178,74.4656525
6020,6.8425937,-3.2704628,16.0865593,102.2366409,-7.9618320,75.1068726
6030,7.4842362,-3.2872221,15.3299952,107.1755753,2.9465649,73.9770966
6040,8.1210909,-3.3614421,14.8272152,109.8549652,8.5725193,71.1832047
6050,8.5831690,-3.2441268,14.6548338,114.2290039,9.8091602,66.0992355
6060,9.0213060,-2.9951310,14.4944229,122.4427490,7.7022901,59.2290077
6070,9.6174593,-2.7940190,14.1209297,133.8778687,3.1450381,50.4045792
6080,10.2950144,-2.6623387,13.3619709,145.3282471,0.5419847,39.1526718
6090,10.8504667,-2.4899571,12.4856977,155.2442780,0.9847328,26.2366409
6100,11.7147694,-1.9680238,11.3700056,162.4198456,6.1832061,11.1603050
6110,12.0858688,-1.4796091,10.1322098,165.8778687,15.8778629,-6.2824426
6120,11.6190014,-0.9888002,8.7028790,165.0076294,24.0305347,-22.8549614
6130,10.9869356,-0.7158626,7.5440907,161.2748108,28.7175579,-36.7862587
6140,10.1992474,-0.5937590,6.5576849,156.2290039,29.0839691,-48.4732819
6150,9.3277617,-0.5339043,5.4108682,150.0915985,24.5038166,-57.2061081
6160,8.4945841,-0.2801202,4.1323709,142.0839691,15.1374044,-63.3740463
6170,7.9199786,-0.1221037,3.0932927,129.6106873,5.6030536,-67.6412201
6180,7.5297260,0.1747758,2.4803803,114.1908417,-2.2366412,-71.2137375
6190,7.1897511,0.3423691,2.1858950,99.2366409,-6.0076337,-74.8473282
6200,6.8569584,0.3974355,1.9297167,85.5954208,-7.8167939,-78.0152664
6210,6.3326311,0.4836263,1.8411317,74.1374054,-9.1374044,-81.4427490
6220,5.8346395,0.5051740,1.8195840,64.0916061,-12.6793890,-84.9236679
6230,5.3246775,0.5961532,1.8674678,57.0228996,-17.2824421,-88.0916061
6240,4.7309184,0.5099624,1.5897418,51.0992355,-21.3816795,-90.2442780
6250,4.2568688,0.5195391,1.1300575,44.8320618,-26.5190830,-91.2824402
6260,3.7828193,0.6512195,0.6991033,36.7557259,-30.2671757,-90.9160309
6270,3.4284792,0.7613522,0.2418131,24.7328243,-32.4809151,-89.4961853
6280,3.1292057,0.7733232,0.0694315,10.1068707,-31.4961834,-87.6106873
6290,2.9496415,0.7062859,0.2633608,-5.5877862,-26.6412220,-86.1450348
6300,2.6288199,0.4884146,0.4213773,-22.6870232,-19.6183205,-83.6793900
6310,2.1475880,0.4740495,0.9696468,-39.6030540,-9.8167934,-80.3129807
6320,1.4556671,0.5841822,1.8626794,-53.7175560,-1.7022901,-76.5801544
6330,1.1755470,0.6320660,2.8155668,-62.7633591,0.9694657,-73.7709961
6340,0.8643024,0.7134684,3.6248028,-66.6641235,0.3053435,-73.3282471
6350,0.5410868,0.8666966,4.2616572,-67.7175598,-1.8549619,-75.1145020
6360,0.2537841,0.7278336,4.5369892,-68.2442780,-6.6259542,-78.3358765
6370,-0.1604107,0.5674229,4.7093706,-69.3282471,-15.6641226,-82.5496216
6380,-0.7421987,0.5315101,5.0756817,-69.8244247,-28.4045811,-87.0152664
6390,-1.5322813,0.4141948,5.4898763,-70.0839691,-39.9312973,-88.3587799
6400,-2.2505381,0.4955972,5.7532372,-70.2595444,-48.1984749,-86.1374054
6410,-2.7078283,0.9504932,5.5784616,-74.5954208,-49.9847336,-81.0839691
6420,-3.3039815,0.6272776,6.2416520,-78.9847336,-46.4503822,-73.9847336
6430,-3.6942344,0.7254394,6.1961622,-84.7709961,-41.8702278,-64.5343475
6440,-4.1347651,0.6631905,6.2536230,-95.3129807,-33.4198456,-52.8396950
6450,-4.2401094,0.7062859,7.0173693,-106.2595444,-22.9312973,-40.8091621
6460,-4.5848727,0.8379663,8.0660238,-111.9160309,-15.0763359,-28.7862587
6470,-4.6950054,1.0342898,8.9303265,-113.8473282,-11.9007635,-17.5725193
6480,-4.8003497,1.3766589,9.5576038,-113.6488571,-12.3282442,-7.8549619
6490,-4.5130472,1.6304430,10.2423429,-112.9923630,-12.2290077,-0.2137405
6500,-4.0126615,1.7405758,10.6924505,-113.1297684,-8.8244276,4.9389315
6510,-3.5673423,1.6017127,11.2838144,-112.5648880,-7.5343513,4.7022901
6520,-3.3159523,0.9337339,11.7889891,-110.0000000,-14.8015270,-0.2519084
6530,-3.2177906,0.0000000,12.2414904,-105.2824402,-32.0228996,-6.7328243
6540,-3.3901722,-0.6799498,13.1991663,-97.5954208,-55.5496178,-12.6793890
6550,-3.5362179,-1.0175306,14.0898046,-86.7709961,-82.3740463,-15.7022905
6560,-3.6798692,-1.0223188,14.9110117,-72.5877838,-108.0229034,-14.7480917
6570,-3.6798692,-0.9217629,15.4042149,-57.0839691,-124.8854980,-8.0458012
6580,-3.5960727,-0.6655847,15.3132353,-45.7175560,-128.3740387,5.5801525
6590,-2.9640064,-0.4261657,15.1600075,-41.1526718,-114.8320618,23.8167934
6600,-2.3606708,-0.3854645,15.2916880,-41.7328262,-87.4656525,44.5572510
6610,-1.5203103,-0.4285599,15.3395720,-43.9618340,-54.2900772,65.0229034
6620,-0.7062859,-0.4716553,15.6244802,-45.3282433,-21.1526718,84.4045792
6630,0.1077385,-0.5434810,15.7370071,-45.8625946,1.8015267,97.9618301
6640,0.5315101,-0.7445929,16.1488075,-44.5725174,10.3893127,110.4198456
6650,1.3886299,-0.9864060,17.0753593,-37.3511467,5.8702292,119.7404556
6660,2.7102225,-1.1947005,17.9133263,-24.2671757,-2.8320611,125.2519073
6670,4.4603748,-1.1851238,18.4041348,-9.4427481,-9.9847326,125.9923630
6680,6.1219425,-1.2665262,19.0433826,5.8549619,-11.1832066,121.0305328
6690,7.4890246,-1.2306134,19.4216652,23.3511448,-6.4427481,112.2442780
6700,8.6909075,-1.1755470,18.9739513,38.7557259,7.4732823,101.0457993
6710,9.0189114,-1.2976507,18.4208927,51.5419846,21.0305347,89.8167953
6720,9.1481981,-1.2689204,17.3482971,60.6717567,27.6793900,78.4351120
6730,9.0093346,-1.3958124,16.7162304,68.9618301,29.6717548,69.7022934
6740,9.2870607,-1.5298871,16.3954086,78.4656525,29.2061062,62.7557259
6750,9.4690189,-1.7860653,16.1535969,89.3282471,26.0916023,55.8320618
6760,10.1250277,-1.5227045,15.6723642,101.3740463,24.4274807,49.0687027
6770,10.8217363,-1.4029950,15.2198620,111.4122162,27.9160309,40.6488533
6780,11.2598734,-1.1970947,14.2693691,121.9389343,34.7328262,30.4580154
6790,11.4753504,-0.9480990,12.8304615,128.6030579,43.0763359,19.9847336
6800,11.5399933,-0.6081241,11.3963413,131.9465637,50.5496178,8.6030531
6810,11.1880474,-0.3950413,10.0388365,132.8702240,52.5725174,-2.8473282
6820,10.7499104,-0.1604107,8.8656836,132.1450348,48.6259537,-13.8549614
6830,10.3285332,-0.0047884,7.7667508,130.4503784,42.6793900,-24.4351139
6840,9.8185711,0.2011119,6.8641410,127.7022934,33.5877876,-35.1374054
6850,9.2679071,0.3423691,5.9950504,123.6641235,24.0152664,-44.3053436
6860,8.8441362,0.5267217,5.1020179,117.0305328,19.0534344,-52.0992355
6870,8.2695303,0.6033357,4.2257442,106.8091583,19.9312973,-57.4274826
6880,7.5752153,0.6272776,3.6415622,94.3282471,22.8702297,-59.5038185
6890,7.2639709,0.6823440,3.2201848,79.8396912,26.9160309,-60.3511467
6900,6.8617468,0.7062859,3.1914546,66.6488571,29.2748089,-61.0534363
6910,6.5457139,0.6512195,3.4332676,55.8549614,27.6030540,-62.7633591
6920,6.1626434,0.5626345,3.4452386,48.2061081,23.0534344,-64.7328262
6930,5.7699966,0.6009415,3.6607156,42.7938919,17.0381680,-67.8625946
6940,5.3414369,0.6703730,3.7947903,39.2824440,10.8244276,-71.2213745
6950,4.2329268,0.6368544,3.3183465,32.3129768,-2.5343511,-79.3816757
6960,3.5697365,0.6129125,3.0023136,26.0000000,-7.5267177,-82.4198456
6970,2.7365584,0.7613522,2.7748656,17.6030540,-10.2213745,-83.7175598
6980,1.9225341,0.8690908,2.7437410,7.3435116,-10.0458012,-83.5496216
6990,0.9720409,0.8547257,2.8993635,-2.5114503,-11.7480917,-81.1145020
7000,0.1484398,1.1013272,2.9376705,-12.7328243,-14.6793890,-76.9542007
7010,-0.4764437,1.0989330,3.1387823,-22.7786255,-17.8549614,-72.4809189
7020,-1.0199248,1.0127422,3.4476328,-32.4198456,-22.0152664,-68.5190811
7030,-1.5562232,1.0271072,3.6152260,-41.9465637,-27.8625946,-65.0305328
7040,-1.9033806,0.7924767,4.1778607,-50.7404594,-35.9923668,-61.3129768
7050,-2.2840567,0.7493813,4.7117648,-58.5343513,-43.2213745,-57.3358765
7060,-2.4660151,0.8331779,5.4779053,-64.0534363,-48.8931313,-53.0916023
7070,-2.5833304,0.7924767,6.2727766,-67.4351120,-53.5801544,-48.3664131
7080,-2.9065459,0.6296718,6.9000540,-68.2213745,-55.7633591,-44.1297722
7090,-3.2417326,1.0247130,6.9623032,-68.1145020,-58.4809151,-38.4885483
7100,-3.3710186,1.0749911,6.8545642,-69.9923630,-60.0763359,-32.2137413
7110,-3.5003049,0.9552816,6.7492199,-73.9312973,-59.9771004,-25.2061062
7120,-3.5697365,0.9457048,6.7444315,-80.3816757,-56.0381660,-17.1450386
7130,-3.7540891,0.9552816,7.1059542,-87.5572510,-51.0916023,-7.8473282
7140,-3.8570392,1.1731528,7.4770536,-93.2671738,-47.3435097,1.3664122
7150,-3.8594334,1.1947005,8.1019373,-98.1450348,-44.5267181,9.5343513
7160,-3.8259149,1.3287752,8.8393478,-101.3893127,-42.3511467,16.6335869
7170,-3.7421181,1.3551112,9.6437950,-103.0687027,-39.8396950,23.0687027
7180,-3.8019729,1.4006008,10.3907824,-102.9618301,-34.6335869,30.1908398
7190,-4.0773048,1.2497669,10.9605989,-102.9389343,-26.8320618,39.3358765
7200,-4.1706781,1.0534433,11.6668854,-102.5801544,-19.3511448,49.7251892
7210,-4.0581512,0.8834559,12.3228931,-101.8473282,-12.9541988,60.6870232
7220,-3.7516949,0.5722113,13.1057930,-100.9465637,-7.3587785,69.8244247
7230,-3.5410061,0.1963235,14.0107965,-100.0839691,-3.4427481,77.1755753
7240,-3.2632802,-0.4189832,15.2821112,-98.0763321,-4.4351144,82.7404556
7250,-2.9783716,-1.0127422,17.1783085,-91.2671738,-10.9465647,88.1526718
7260,-2.5306582,-1.4580613,19.0577488,-76.9312973,-18.4885502,94.7022934
7270,-1.8794388,-1.8339491,19.6126022,-56.7099228,-23.2366409,100.9770966
7280,-1.3407460,-1.8004304,19.6126022,-33.0839691,-24.2137413,108.8625946
7290,-0.5099624,-1.6807210,19.6126022,-11.4961834,-20.5038166,117.0610657
7300,0.3471575,-1.7286048,19.6126022,4.5877862,-14.5190840,124.6030502
7310,1.7118455,-1.6902977,19.0170460,15.5496187,-6.7786260,129.9618378
7320,2.9041519,-1.4365137,18.5022964,23.0000000,2.4503818,132.7862549
7330,3.9360476,-1.1300575,18.3299141,29.2213745,8.0305347,130.9541931
7340,4.3382711,-0.9576758,18.3490677,37.3816795,6.7480917,125.8091583
7350,4.6686692,-1.1037214,18.2580891,47.8778610,0.6259542,121.1755753
7360,5.2360926,-1.2880739,18.1503506,59.2824440,-7.7175574,116.6183243
7370,5.5329719,-1.1970947,18.0737362,71.8702316,-16.4503822,111.7557220
7380,5.7652082,-1.1970947,17.9851513,84.6106873,-24.6335869,107.7709961
7390,5.9615316,-0.9073978,17.8151646,97.0000000,-31.0610695,104.4045792
7400,6.5121951,-0.7948709,17.3770275,106.9160309,-31.5267181,100.0839691
7410,7.4291697,-0.8259954,16.8981895,114.8396912,-24.9618320,94.5648880
7420,8.0420828,-0.9313397,16.4169579,121.1374054,-15.5954199,89.0992355
7430,8.3796635,-1.2473727,15.9548788,127.6793900,-9.5725193,82.3358765
7440,8.9877872,-1.5753766,15.7202482,136.9618378,-8.6641226,76.5801544
7450,9.7850523,-1.5873476,15.2821112,148.9770966,-9.6259546,68.7328262
7460,10.3859940,-1.0127422,14.5542774,161.6564941,-11.7251911,58.1603050
7470,11.1808643,-0.8786675,13.2470503,170.3282471,-9.9083967,45.1374054
7480,11.8296900,-0.6967092,11.9613705,173.3816833,-1.0305344,31.9770985
7490,12.2989511,-0.6727672,10.8408899,173.5114441,9.2977095,18.6030540
7500,12.6030130,-0.5482694,9.8018112,172.5801544,16.3206100,4.2061067
7510,13.0172081,-0.4094064,8.7675219,170.6870270,19.3358784,-11.9389315
7520,13.2255030,-0.2106887,7.6542239,166.4274750,22.4427490,-30.0305347
7530,12.9453821,-0.1963235,6.5696559,160.7099304,24.8931293,-48.3435097
7540,12.2271252,-0.2178712,5.7771792,154.5190887,22.0381680,-65.2671738
7550,11.2311430,-0.3543400,5.2313042,149.8244324,13.3816795,-79.9083939
7560,10.4075413,-0.5362985,4.7381010,147.0686951,2.3664122,-91.0305328
7570,9.5528164,-0.6751614,3.9719603,144.3435059,-6.8931298,-99.2290039
7580,9.1003141,-0.4285599,3.2130022,140.2748108,-14.5725193,-105.0687027
7590,8.5975342,-0.2968795,2.2888451,133.7328186,-19.6946564,-110.1984711
7600,8.0540533,-0.1316804,1.5873476,125.4427490,-24.5801525,-115.1374054
7610,7.4938130,-0.0167593,0.8236012,116.8320618,-31.1450386,-119.9312973
7620,6.8018923,0.1580165,0.1029501,107.2824402,-41.8473282,-124.3053436
7630,6.3398137,0.1795642,-0.6440369,97.3893127,-52.5801544,-128.8854980
7640,5.7197185,0.2849085,-1.1300575,85.0076370,-62.0839691,-133.3358765
7650,4.6973996,0.5171449,-1.7046629,71.5419846,-67.8473282,-135.1679382
7660,3.8809812,0.5339043,-2.5713594,52.5419846,-63.2671738,-133.3282471
7670,2.8395088,0.6129125,-2.9687948,28.8625946,-51.9083977,-129.2671814
7680,1.7262106,0.3950413,-2.9400647,3.5038168,-39.0458031,-122.0610657
7690,0.7517755,0.1508339,-2.7102225,-20.5267181,-25.5267181,-112.5343475
7700,-0.2489957,0.2178712,-2.1356170,-41.1068687,-17.0458012,-101.5954208
7710,-1.1300575,0.2370248,-1.4652439,-56.4503822,-16.5801525,-89.4351120
7720,-1.4939742,0.4237715,-0.8331779,-67.1526718,-23.0458012,-77.2595444
7730,-1.6424140,0.5793939,-0.3687052,-76.0534363,-33.7862587,-67.5038147
7740,-1.4173602,0.7062859,-0.0263361,-85.1755753,-45.3969460,-60.2671738
7750,-1.2617378,0.7254394,0.4525018,-95.0076370,-56.2137413,-56.5801544
7760,-1.2497669,0.8164186,1.3670821,-105.0457993,-63.0076332,-55.5877876
7770,-1.4077834,0.8379663,2.1404054,-113.8091583,-67.1832047,-55.6870232
7780,-1.7740943,0.8068419,3.0358322,-120.6030502,-68.9923630,-54.2671738
7790,-2.2936335,0.5434810,3.9025288,-124.2137375,-71.9847336,-50.6870232
7800,-2.8562679,0.4118006,4.6471219,-127.3129807,-74.2061081,-44.6259537
7810,-3.4117200,0.3303981,5.0924411,-130.0992432,-76.9618301,-35.6870232
7820,-4.0509686,0.1795642,5.7819676,-133.4503784,-77.4351120,-22.7404575
7830,-4.2544746,0.3639168,6.5409255,-137.0076294,-73.5725174,-7.3740458
7840,-4.2448978,0.3256098,7.2759418,-138.6259613,-65.6412201,9.4427481
7850,-3.9911139,0.5913648,7.8601241,-140.2977142,-53.0381660,25.1832066
7860,-3.5745249,1.1013272,8.1809454,-143.0610657,-37.9541969,37.7862587
7870,-3.1148405,1.4987626,8.7004843,-147.7022858,-23.0229015,44.6564903
7880,-2.8347204,1.7908537,9.4881725,-151.6412201,-9.4809160,47.0534363
7890,-2.7652888,1.7405758,10.1250277,-154.2824402,1.8702290,45.4656487
7900,-2.8035958,1.7525467,10.3069859,-157.6946564,10.6793890,41.6717567
7910,-3.1794837,1.0510491,10.8480721,-162.0610657,14.3816795,37.0228996
7920,-4.2975702,0.6296718,12.2055779,-157.4580078,13.2213745,35.4503822
7930,-5.1714492,0.5195391,12.7107515,-151.2213745,2.8549619,37.4351158
7940,-6.0764527,0.2466015,13.2135315,-147.4351196,-8.1450386,43.1984749
7950,-6.6702118,-0.3088504,14.0945930,-144.0229034,-16.7404575,54.5877876
7960,-6.7875271,-0.7421987,15.0426922,-138.7557220,-19.0992374,70.1679382
7970,-6.4954362,-1.2737088,15.8926296,-130.9236603,-14.0992365,85.0152664
7980,-6.2440462,-1.7405758,16.2637291,-122.0534363,-7.3435116,98.3435135
7990,-5.9878678,-2.2649033,16.3307667,-114.1832047,-1.5954199,109.1603088
8000,-6.1985564,-2.6168492,16.1152897,-108.0000000,-3.7175572,119.2213745
8010,-6.4164276,-3.2010312,16.6372223,-102.3664093,-19.6106873,134.3435059
8020,-5.6862001,-3.7325413,17.7002430,-92.7557220,-42.2977104,155.4351196
8030,-3.4117200,-4.0102673,19.0553532,-79.4732819,-56.6335869,178.3358765
8040,-0.3112446,-3.9528067,19.6126022,-63.3511467,-54.7251892,197.4198456
8050,2.8227494,-3.9432299,19.6126022,-43.9160309,-38.5572510,207.6412201
8060,5.6000090,-3.4045374,19.6126022,-24.0763359,-15.7786255,205.8625946
8070,7.2567883,-2.5953014,19.6126022,-6.7404580,3.4045801,193.2290039
8080,7.5823979,-2.2984219,18.9308567,4.6335878,7.2213740,175.7480927
8090,7.3956513,-2.4396791,17.9420567,12.8778629,-4.0534353,159.9618378
8100,7.7332320,-2.5785420,17.8343182,20.9236641,-22.3893127,146.5648804
8110,8.3605099,-2.8227494,18.1120434,30.5801525,-37.4885483,133.5496216
8120,8.8632889,-3.0645626,18.6603127,42.2748108,-46.2366409,121.7175598
8130,9.3014259,-3.2752512,19.0194416,56.5267181,-47.8244286,111.5496216
8140,9.5791521,-3.6248028,19.0673256,71.3893127,-42.9771004,103.9923630
8150,10.1753054,-3.7636659,18.8374825,86.1221390,-32.7251892,99.1603088
8160,10.9270811,-3.8666160,18.4783535,102.0916061,-19.6488552,94.0457993
8170,11.5783005,-3.9049230,17.9420567,114.2824402,-4.8549619,85.6564865
8180,11.8871508,-4.0102673,17.0801468,128.9541931,6.5572519,76.5725174
8190,12.4545736,-3.8402798,15.8998117,142.7557220,14.0763359,65.9618301
8200,12.8544035,-3.4643922,14.4130201,154.2824402,18.2061062,52.1984749
8210,12.8807392,-3.2058196,13.0291786,162.5343475,15.9083967,35.9160309
8220,12.8256731,-2.9472473,11.7794123,168.1221313,8.4351149,18.2519093
8230,12.9334116,-2.6383967,10.6254129,171.5801544,0.4351145,-0.5877863
8240,12.7634239,-2.4253139,9.6078825,173.4580078,-5.9007635,-19.4045811
8250,12.3803539,-2.1763182,8.8010406,173.3740387,-11.8091602,-36.2748108
8260,12.2893744,-2.0159075,7.9774394,172.6106873,-16.7099228,-52.0992355
8270,12.1576939,-1.7884595,7.2136927,170.3587799,-19.7480907,-67.0610657
8280,11.6597023,-1.5586174,6.5505023,166.8702240,-21.0916023,-81.0076370
8290,11.0970678,-1.2665262,5.7460546,162.1526642,-24.1908398,-93.1145020
8300,10.4889441,-1.0630201,5.0972295,155.9084015,-27.9007626,-102.2442780
8310,10.1944590,-0.8762733,4.4292507,148.0915985,-29.7938938,-108.8167953
8320,9.9789820,-0.4836263,3.7349355,138.8473358,-29.4656487,-113.9542007
8330,9.9263096,-0.0574605,3.2177906,128.0915985,-29.4427490,-119.4045792
8340,9.8975792,0.2322364,2.7820482,117.1374054,-30.7862587,-126.2213745
8350,9.8856087,0.6129125,2.4324965,106.3511429,-32.0458031,-135.0152740
8360,9.5815458,0.8092360,2.1140692,96.9542007,-33.9694672,-144.8778687
8370,9.1386213,0.8379663,1.8746504,86.6564865,-39.0381660,-154.9160309
8380,8.5328913,0.6344602,1.5466464,75.3664093,-43.9007645,-163.0839691
8390,7.9654684,0.6799498,1.5250987,62.4732819,-47.0916023,-169.4961853
8400,7.2328463,0.5195391,1.5514348,50.1221390,-47.4656487,-174.7786255
8410,6.0980005,0.3256098,1.6065011,38.6259537,-46.6335869,-177.6412201
8420,5.1044121,0.2681492,1.4269369,26.9770985,-45.3358765,-177.7328186
8430,4.1802549,0.1747758,1.3479286,14.0763359,-41.9847336,-175.5343475
8440,3.1483591,0.1388630,1.2761030,0.8396947,-37.4885483,-171.6183167
8450,1.9608412,0.0383070,1.0702027,-12.5725193,-34.0534363,-165.6717529
8460,0.6991033,-0.0885850,0.8283895,-27.2366409,-33.6717567,-156.2900696
8470,-0.4189832,-0.2466015,0.5506636,-43.5114517,-38.9312973,-144.5267181
8480,-0.9385223,-0.1484398,0.5985473,-60.6641235,-49.2519073,-133.1526642
8490,-1.1827296,-0.2849085,1.1037214,-76.9847336,-63.8702278,-124.2519073
8500,-1.8004304,-0.3136388,2.1930776,-89.8091583,-77.8854980,-115.7480927
8510,-2.2553265,-0.4788379,3.0501974,-98.9923630,-88.3740463,-105.3435135
8520,-2.6216373,-0.4213773,3.9719603,-106.3206100,-93.7862625,-93.8702316
8530,-2.6264257,-0.4094064,5.0206151,-112.0000000,-91.2137375,-83.3893127
8540,-2.9328821,-0.6033357,5.4611464,-115.9236679,-84.1984711,-74.4045792
8550,-3.5074875,-0.8164186,5.6383162,-120.0152664,-78.4198456,-65.0305328
8560,-4.0509686,-1.4532729,5.8442163,-127.1297684,-71.7328262,-54.8854980
8570,-4.3933377,-1.5179161,5.9136481,-137.5267181,-62.6335869,-42.6488533
8580,-4.8362627,-1.4317253,6.8090749,-141.9007568,-54.2824440,-28.2595425
8590,-5.2049680,-1.3000449,7.5249376,-144.7633514,-50.0076332,-12.7633591
8600,-4.8937230,-0.9480990,8.2551651,-144.0915985,-45.5496178,1.4580153
8610,-4.7692256,-0.9313397,8.9375095,-142.4961853,-39.0381660,14.2213745
8620,-4.6207857,-1.1061156,9.6150646,-141.3206177,-27.9923668,24.8854961
8630,-4.5872669,-1.0271072,10.0699606,-140.7328186,-16.1526718,35.2366409
8640,-4.5489597,-1.0989330,10.4003592,-139.1755676,-4.7404580,44.0916023
8650,-4.6231799,-0.9409165,10.8073711,-137.0152740,3.0992367,51.2671738
8660,-4.9320302,-0.6584021,11.0515785,-134.2748108,5.3206105,58.5572510
8670,-5.0469513,-0.4357425,11.3053627,-131.0152740,2.4122138,66.6106873
8680,-5.0637107,-0.2322364,11.9230633,-128.1374054,-2.1145039,73.8167953
8690,-4.9056940,-0.1053443,12.3899307,-125.6259537,-3.7557251,81.5801544
8700,-4.5082588,-0.2346306,13.1273403,-124.1679382,0.0381679,89.2900772
8710,-4.3646073,-0.2944853,13.8432035,-122.2213745,6.9312978,96.9923630
8720,-4.2688398,-0.4884146,14.5662489,-119.5190811,14.2213745,102.1603088
8730,-4.5010762,-0.8331779,15.2845058,-115.5801544,18.0305347,110.4732819
8740,-4.3670015,-1.1611819,16.1464138,-108.2595444,17.4045811,120.8396912
8750,-3.9336534,-1.3958124,16.8934002,-98.6793900,13.5267172,130.9313049
8760,-3.2106080,-1.7693061,17.6547527,-88.9694672,9.4656487,141.1526642
8770,-2.2529323,-2.2026544,18.3179436,-78.5419846,7.8320613,150.3664093
8780,-1.3072275,-2.6168492,19.0242290,-65.7480927,6.9541984,158.5877838
8790,-0.0287303,-2.8610563,19.4168758,-51.1145020,8.6946564,163.2824402
8800,0.8547257,-2.6790979,19.4599724,-36.4580154,11.1832066,163.7938995
8810,1.0941446,-2.7317703,19.3019562,-21.3969460,8.8015270,162.2290039
8820,1.2880739,-3.0454090,18.8159351,-7.2137403,0.4656489,162.2213745
8830,1.7429699,-3.2058196,18.4448357,5.6412215,-10.0992365,164.8091583
8840,2.7557120,-3.3279233,18.4328651,18.1603050,-18.5801525,166.0839691
8850,3.6463506,-3.4835455,18.4328651,31.0763359,-23.8854961,165.4656525
8860,4.4938936,-3.7038112,18.3466740,44.9541969,-25.1297703,164.2213745
8870,5.4755111,-3.6487448,18.1048603,58.0839691,-22.1603050,162.0458069
8880,6.2895355,-3.6559272,17.5494080,69.6717529,-16.0229015,156.7862549
8890,6.5864153,-3.6128318,16.9700146,79.0076370,-11.3740454,150.0763397
8900,6.8330169,-3.6655040,16.3092194,87.0916061,-7.7404580,144.1908417
8910,7.1035600,-3.7612717,15.8591108,94.5343475,-6.0992365,138.2213745
8920,7.5776095,-3.8666160,15.2940826,102.0381699,-6.8473282,132.4045868
8930,8.1713686,-3.8235207,14.9732609,109.1297684,-7.2442746,125.8167953
8940,8.8082228,-3.7876077,14.7122946,118.3282471,-8.1603050,117.3129807
8950,9.5863342,-3.5218527,14.1807842,127.6793900,-8.1908398,105.8167953
8960,10.2974091,-3.2704628,13.6109667,137.7938995,-8.2595415,92.7557220
8970,10.7475166,-2.9855542,12.9860840,147.2900696,-7.5496182,75.8778610
8980,11.1856527,-2.5737536,12.4090843,155.8320618,-7.9465647,58.4732819
8990,11.3412752,-2.0757623,12.1026278,163.9160309,-8.9007635,40.5114517
9000,11.5495701,-1.7788827,11.5615406,171.7099304,-9.2137403,21.1526718
9010,11.3652172,-1.6615674,10.9175043,179.7938995,-12.3740454,1.7862595
9020,11.0180597,-1.5610116,10.1561518,186.5190887,-19.3435116,-15.4122133
9030,10.6110477,-1.3622938,9.3205795,191.3282471,-29.7251911,-31.2900772
9040,10.5655584,-0.8451489,8.7699156,194.4809113,-42.8473282,-46.6030540
9050,10.9031391,-0.2561783,8.8465300,198.2900696,-54.0610695,-63.3816795
9060,10.9893293,-0.0885850,8.2719250,203.7251892,-63.4274826,-82.1450348
9070,10.7020273,0.1628049,7.2974896,205.6106873,-72.8015289,-99.6870193
9080,10.5775290,0.3639168,6.1387019,200.8015289,-80.3129807,-114.6946564
9090,10.4650021,0.7398046,5.3390427,190.2366486,-83.4122162,-127.8702316
9100,9.9933472,0.9959828,4.5226240,177.4656525,-79.2366409,-138.9465637
9110,9.4642305,1.1851238,3.7995787,162.5496216,-72.3053436,-146.8396912
9120,8.9782104,1.3503228,3.2704628,145.9541931,-67.8396912,-151.9465637
9130,8.3581152,1.3191984,2.6958573,130.4351196,-56.9618340,-156.5267181
9140,7.6542239,1.4700323,2.3103929,116.7022934,-46.3816795,-159.2748108
9150,6.7803445,1.6687500,1.6711442,101.7404556,-43.1526718,-159.9847260
9160,6.3206601,1.7070571,0.9241571,87.7328262,-43.9771004,-161.0839691
9170,5.7340837,1.7980363,0.1675933,70.4732819,-43.2519073,-162.1832123
9180,5.0804701,1.8363433,-0.1795642,50.8625946,-38.8702278,-162.6030579
9190,4.1874375,1.6591733,-0.6368544,29.9389305,-32.3587799,-161.2213745
9200,3.1315999,1.4748207,-1.0079538,7.1526718,-21.8778629,-157.4122162
9210,1.8698620,1.3191984,-1.2425843,-16.5648861,-10.2061071,-150.5877838
9220,0.7230452,1.1875180,-1.4029950,-42.1832047,3.4427481,-140.4427490
9230,-0.2849085,1.1635761,-1.1994889,-66.7633591,14.5419846,-129.4427490
9240,-1.2306134,0.9480990,-0.7709290,-88.8091583,21.9160309,-118.2595444
9250,-2.3702476,0.7972651,-0.2705434,-106.8473282,20.9923668,-105.8931274
9260,-2.9664006,0.5099624,0.4022238,-121.3053436,12.2366409,-93.4732819
9270,-3.1938488,0.3830703,1.4221486,-130.9007568,-1.5343511,-82.3664093
9280,-3.1459649,0.1651991,2.3582766,-136.1145020,-18.9160309,-72.7251892
9290,-3.0334380,-0.0023942,3.3590479,-136.9618378,-34.6259537,-64.6946564
9300,-2.8610563,0.0311245,4.2736282,-135.4122162,-48.8167953,-58.4885483
9310,-2.7221935,0.1364688,4.8697815,-132.1603088,-58.9465637,-54.4045792
9320,-2.8251436,0.2753318,5.3222833,-129.4274750,-62.9541969,-50.5648842
9330,-2.7772598,0.4381367,5.0996237,-130.3740387,-60.7251892,-46.7633591
9340,-2.9376705,0.0814024,5.2049680,-132.4656525,-56.9083977,-41.8549614
9350,-3.7301471,0.1173153,4.9224534,-138.7862549,-54.0458031,-34.9541969
9360,-4.2281384,-0.4620786,5.0254035,-150.3740387,-55.1297722,-25.8167934
9370,-4.4962878,-0.4309541,5.6933827,-163.6870270,-53.5648842,-15.9160309
9380,-4.6590929,-0.4979914,6.9383612,-174.5648804,-51.8396950,-4.8015265
9390,-4.8769641,-0.6967092,8.1163025,-181.9236603,-45.3664131,6.4809160
9400,-5.1139889,-0.6584021,9.3373384,-185.8244324,-36.5725174,17.0610695
9410,-5.1618724,-0.6416427,10.7523050,-185.4274750,-28.8931293,25.6717548
9420,-5.3079181,-0.6200951,12.2031832,-179.9694672,-22.0839691,31.7557259
9430,-5.5497313,-0.6631905,13.4816809,-169.9160309,-14.6106873,38.1755714
9440,-5.9160423,-0.7996593,14.3531656,-156.0992432,-9.5343513,45.3893127
9450,-6.1219425,-0.8666966,14.7146883,-140.4045868,-7.2442746,54.3358765
9460,-6.1099715,-1.0678085,14.6045561,-126.6335907,-5.0992365,64.3206100
9470,-6.0118098,-1.3407460,14.3699255,-117.1679382,-2.7404580,75.0534363
9480,-5.7723908,-1.3838415,14.4417505,-112.0610657,-1.7633588,86.5038147
9490,-5.3270717,-1.4772149,14.9852314,-108.9465637,-0.4198473,97.5343475
9500,-5.0900469,-1.5131277,15.6292686,-103.9312973,-0.1832061,107.7633591
9510,-4.6136031,-1.4221486,16.5677910,-95.6793900,-0.8473282,116.4961853
9520,-4.0366035,-1.4987626,17.2764702,-83.9923630,-2.2671757,122.6717529
9530,-3.6726866,-1.6759326,17.5781384,-70.4961853,-5.6183205,127.8396912
9540,-3.3542595,-1.7812769,17.5541973,-58.0000000,-12.8396950,132.2213745
9550,-3.1028695,-2.1332228,17.4249115,-45.2442741,-23.8778629,137.2213745
9560,-2.4899571,-2.4588325,17.3985748,-33.6717567,-36.7251892,143.5190887
9570,-1.6663558,-2.7437410,17.4584293,-21.5877857,-47.1068687,152.3053436
9580,-0.3375807,-2.7509236,17.6882725,-9.7862597,-50.5190849,161.5725250
9590,1.2162483,-2.7174051,17.8271351,2.4351146,-44.9236641,169.7099304
9600,2.6695213,-2.5354466,17.5901108,13.9389315,-31.9770985,174.6259613
9610,4.1730723,-2.4229198,17.0729656,22.6183205,-14.2900763,176.1984711
9620,5.1666608,-2.3989778,16.4768124,27.4885502,5.3053436,173.7786255
9630,5.7388721,-2.4157372,15.9716377,29.1755733,18.1450386,169.0686951
9640,6.3015065,-2.4396791,15.8184099,31.2671757,21.8778629,163.0000000
9650,7.0508881,-2.5402350,16.1966915,36.0381660,17.6335869,154.2748108
9660,7.7763271,-2.4277081,16.7090473,45.2290077,8.0000000,142.5648804
9670,8.6430235,-2.2864509,17.1471844,59.1450386,-2.1297710,127.3816757
9680,9.1027079,-2.2385671,17.0729656,75.4122162,-10.6030531,109.7786255
9690,9.1673517,-2.0805507,16.4528694,90.2977066,-15.5648851,93.3358765
9700,9.1769285,-1.9704180,15.8686876,102.5267181,-16.2061062,77.6183243
9710,9.0069408,-1.8890154,15.2294388,113.5114517,-15.7862597,63.2442741
9720,8.8201942,-1.7645177,14.5566721,123.7480927,-14.5801525,50.0916023
9730,8.5185261,-1.5873476,13.7474356,132.0686951,-14.3969469,38.3893127
9740,8.2096758,-1.3335636,13.0004492,139.0686951,-15.7480917,27.3893127
9750,7.9534974,-1.1444225,12.3540173,145.0915985,-18.1450386,17.2213745
9760,7.7021074,-0.9720409,11.7075863,150.1679382,-21.4198475,7.2137403
9770,7.7452030,-0.8930327,11.1066446,153.7633514,-25.0534344,-2.1297710
9780,8.0109577,-0.7038917,10.6445665,156.2900696,-27.6259537,-11.8015270
9790,8.1929159,-0.4764437,10.1393919,158.1221313,-27.7786255,-22.4427490
9800,8.2886839,-0.2226596,9.4666252,158.9923706,-26.8854961,-32.6641235
9810,8.4083929,-0.0263361,8.6597834,158.1679382,-25.3740463,-42.7786255
9820,8.4945841,0.1364688,7.9175844,154.5038147,-23.8931293,-52.3129768
9830,8.4155760,0.4788379,7.2879128,149.6946564,-23.0687027,-61.5038185
9840,8.3222027,0.6655847,6.5265603,143.1450348,-21.9847336,-70.3740463
9850,8.0564480,0.7421987,5.8466105,135.4427490,-25.1068707,-78.6793900
9860,7.5129666,0.7134684,4.9296360,127.5801544,-32.8015251,-85.0305328
9870,6.8018923,0.7541697,3.5697365,118.3893127,-50.0916023,-87.7099228
9880,6.7133074,1.2138541,2.5306582,104.6641235,-74.7709961,-90.7328262
9890,7.4602942,1.7405758,1.9321109,87.9923630,-101.2366409,-97.6030502
9900,8.2503767,2.0566087,1.9105632,69.9847336,-119.0687027,-108.8625946
9910,8.5424681,2.1643472,2.2840567,55.4885483,-125.3587799,-121.1068726
9920,8.2886839,2.1715298,2.6407909,44.0228996,-127.2061081,-131.7251892
9930,8.0205345,2.0326669,2.9400647,34.9083977,-127.3511429,-139.1679382
9940,7.8744893,1.8411317,3.2058196,28.0687027,-124.5725174,-145.3969421
9950,7.3262196,1.5753766,3.0717452,22.8091602,-120.5648880,-149.6259613
9960,6.5696559,1.2784972,2.4755919,17.0381680,-116.6946564,-151.0763397
9970,5.8609757,1.1444225,1.7214222,6.6717558,-111.3740463,-148.7251892
9980,5.2863703,1.2186425,1.2593436,-9.2900763,-103.2061081,-143.8091583
9990,4.8865409,1.1827296,1.2617378,-28.5038166,-90.7938919,-138.2977142
