timestamp,acclX,acclY,acclZ,gyroX,gyroY,gyroZ
0,1.0295014,1.1037214,10.2255831,-21.5038166,-25.1068707,25.9770985
10,1.2377959,1.0534433,10.2016411,-19.0381680,-21.5954189,27.8396950
20,1.3144100,1.0079538,10.1896706,-17.2824421,-18.2290077,29.8778629
30,1.3814473,1.0965388,10.2543135,-16.5267181,-13.7328243,32.5419846
40,1.6424140,1.0223188,10.2112179,-15.4656487,-8.4732828,33.4427490
50,1.6855093,1.0702027,10.2471304,-14.4961834,-5.1755724,34.4809151
60,1.8770446,1.0678085,9.9957409,-14.6335878,-2.2061069,35.5114517
70,2.4779861,1.6807210,9.2918491,-34.9541969,0.8854962,6.0152674
80,2.1260402,1.6280488,9.4474716,-37.5267181,3.2137403,4.4351144
90,1.7501525,1.7118455,9.7730818,-38.5038185,5.5038166,4.0839696
100,1.5562232,1.8219782,9.7802639,-38.7938919,9.0381680,4.5496182
110,0.9050036,1.4891858,10.2303715,-40.2824440,14.6488552,2.7022901
120,0.4572902,1.3838415,10.6062593,-39.4580154,14.0534353,3.2671757
130,0.0837966,1.2713146,10.7139978,-37.5267181,14.2671757,5.1221375
140,-0.3088504,1.1755470,11.0276365,-34.3740463,14.6564884,8.0000000
150,-0.5362985,1.1156923,11.1018562,-31.7251911,17.9160309,12.4351149
160,-0.8068419,1.0199248,11.0827026,-29.4198475,23.4427490,17.5572510
170,-1.0103480,0.9935886,11.1641054,-27.1755733,29.6412220,22.2671757
180,-1.1180865,1.0582317,10.9270811,-26.2442741,40.0152664,27.0534344
190,-1.1994889,1.1300575,10.6469603,-27.8244267,52.0381660,31.7328243
200,-0.5171449,0.4788379,10.6828737,-29.9312973,66.7633591,31.5954189
210,-2.1882892,1.5107336,10.2974091,-33.7099228,81.3664093,35.8091621
220,-2.0829449,0.9672526,10.1561518,-37.4274826,85.8015289,39.4961815
230,-2.4803803,0.6368544,10.0555954,-40.9465637,85.1145020,38.8854980
240,-3.2872221,0.3854645,10.3357162,-42.0687027,70.5267181,39.5572510
250,-3.4835455,0.0550664,10.2519188,-44.7709923,41.3664131,42.8396950
260,-4.0126615,-0.5793939,11.1880474,-36.2519073,21.4656487,41.7251892
270,-4.5106530,-0.1364688,11.7195578,-26.8931293,-3.8931298,47.0228996
280,-4.3526363,-0.3950413,11.8272963,-20.0839691,-21.4198475,53.4503822
290,-4.2425036,-0.5051740,12.2367020,-15.4045801,-32.6946564,60.0763359
300,-4.1706781,-0.3902529,12.5934362,-11.1755724,-38.2977104,69.5267181
310,-3.6870518,-0.3591284,12.7610302,-9.7328243,-35.6259537,80.8320618
320,-3.5769191,-0.5817881,12.9310169,-7.9541984,-26.3664131,93.9618301
330,-3.2321558,-0.6871324,12.9789009,-6.7251906,-15.0381680,106.2824402
340,-2.7748656,-0.8643024,13.0291786,-7.0916033,-2.3282442,118.2671738
350,-2.5474176,-1.1013272,13.2159262,-8.0381680,8.6564884,128.1450348
360,-2.3654592,-1.4317253,13.6851873,-7.6183205,15.2595415,136.0381622
370,-2.3726418,-1.9368993,14.1783895,-2.7938931,14.6106873,142.1526642
380,-2.4779861,-2.4731977,14.5207586,5.7557254,6.4274807,148.3893127
390,-2.8466914,-2.8203552,14.6500454,14.8625956,-7.7938933,157.0381622
400,-2.5569944,-3.1603301,14.8224268,23.8091602,-21.7099228,167.9160309
410,-1.7956421,-3.6631098,14.9708662,31.8244267,-31.1068707,177.8931274
420,-0.9073978,-4.2664456,15.1671906,37.4045792,-39.1832047,187.0839691
430,0.2466015,-5.0445571,15.6364517,41.4580154,-43.0992355,194.7786255
440,1.6783268,-5.7508430,16.5294838,49.9389305,-43.8473282,201.6870270
450,3.0166788,-5.9447722,17.4344883,61.9007645,-44.2137413,206.7328186
460,4.4795284,-6.3541789,17.9205074,79.8244247,-39.2519073,209.1221313
470,6.2009506,-6.8401995,18.1623211,101.2748108,-38.9771004,204.3435059
480,6.9216018,-6.6582408,18.0928898,126.1221390,-50.7862587,194.7251892
490,7.9630742,-6.7611909,17.9109306,151.7099304,-69.1068726,182.3129730
500,9.3445215,-6.7444315,16.9556503,175.9923706,-83.5725174,166.8396912
510,11.2048063,-6.2368636,16.3666782,197.1603088,-88.6946564,147.2442780
520,13.2039547,-5.2265158,15.5933561,214.7862549,-86.3129807,120.0992355
530,14.8655224,-4.1994085,14.8559456,229.3511505,-75.2595444,86.5801544
540,15.6843348,-3.4332676,13.9892492,240.9313049,-63.1984749,47.1297722
550,15.5670195,-3.0023136,13.4290085,250.1297760,-56.2671738,7.2366414
560,15.3802729,-2.8227494,12.5024576,250.1297760,-56.2290077,-32.3969460
570,14.8343983,-2.9233053,11.0396080,250.1297760,-56.3206100,-68.5114517
580,13.8982697,-2.9783716,9.0883436,250.1297760,-56.8625946,-99.6183243
590,12.6963863,-2.8586621,6.8042865,250.1297760,-60.7709923,-122.5190811
600,11.3891592,-2.5522060,5.0493455,250.1297760,-69.9542007,-139.5801544
610,10.1705170,-1.9584470,3.6271970,250.1297760,-84.6030502,-150.9465637
620,9.5887289,-1.5155219,2.5905130,239.3053436,-100.1145020,-159.2061005
630,9.4163475,-1.0558375,2.1188576,222.9923706,-111.8473282,-166.6946564
640,9.3612804,-0.3447633,1.8578910,206.6870270,-120.1297684,-174.5877838
650,9.2918491,0.0502780,1.5873476,190.8320618,-126.3816757,-183.9313049
660,8.9638453,0.5410868,1.2593436,175.8244324,-132.0610657,-194.9618378
670,8.4778252,0.6631905,1.1037214,162.0839691,-139.5267181,-205.6412201
680,7.8936424,0.7613522,0.8355721,149.5190887,-148.3511505,-214.4961853
690,7.2376347,0.8499373,0.6129125,137.2977142,-159.0076294,-221.0381622
700,6.4858594,0.7972651,0.5267217,125.1984711,-168.8931274,-225.7633514
710,5.6167684,0.8236012,0.4979914,112.8702316,-178.9007568,-228.6259613
720,4.7716198,0.8954269,0.3926471,101.9847336,-189.0763397,-228.9084015
730,3.9671719,0.9097920,0.4261657,87.8625946,-196.3129730,-226.5877838
740,3.3087699,1.1228749,0.4381367,73.6946564,-197.9007568,-222.0381622
750,2.6312141,1.1204807,0.2705434,58.0916023,-195.3282471,-215.9236603
760,1.8004304,1.4006008,0.3208214,40.8244286,-186.7404633,-207.1221313
770,1.0127422,1.5394639,0.3327923,21.7709923,-173.3358765,-195.5496216
780,0.3327923,1.7022687,0.5410868,2.2442749,-155.7251892,-182.9618378
790,-0.4237715,1.9081690,0.6847382,-17.3664131,-137.0992432,-169.5572510
800,-1.2880739,2.0590029,0.9528874,-35.5267181,-120.7404556,-154.7251892
810,-2.0853391,2.1092808,1.2593436,-51.3282433,-107.6641235,-138.8473358
820,-2.8012016,2.0206959,1.7836711,-64.1984711,-100.5190811,-122.3206100
830,-3.1842721,1.9895715,2.3367288,-74.0000000,-101.0305328,-106.0457993
840,-3.3494711,2.0374553,2.8059900,-79.2213745,-107.2213745,-92.0457993
850,-3.3327117,1.9297167,3.2465210,-81.6183243,-116.8854980,-80.6793900
860,-3.4979107,2.0470319,3.4428444,-82.6488571,-127.2137375,-70.3511429
870,-3.3877780,2.1164634,3.5793133,-84.8854980,-137.0839691,-60.9618340
880,-3.2273674,2.0470319,3.6200144,-87.9083939,-144.4274750,-52.8473282
890,-3.3063757,1.9416877,3.7038112,-92.1526718,-148.0992432,-45.0228996
900,-3.3566537,1.7238164,3.4763632,-99.3816757,-148.5267181,-36.6106873
910,-3.2896163,1.5466464,3.5314295,-109.3816757,-142.9847260,-28.6488552
920,-3.1507533,1.2425843,3.7133877,-120.4274826,-132.1450348,-21.5877857
930,-3.1866663,0.7206510,3.8666160,-131.3435059,-118.3282471,-15.2977095
940,-3.3494711,0.2130829,4.0078731,-143.4427490,-102.7633591,-9.1603050
950,-3.4883339,-0.2944853,4.2329268,-156.1450348,-86.3816757,-2.9465649
960,-3.8307030,-0.4908088,4.4460096,-168.5572510,-71.2900772,4.2061067
970,-3.7014170,-0.9265513,4.6878228,-180.4427490,-60.0458031,9.2442751
980,-3.7516949,-1.3407460,4.7764082,-191.8473358,-59.8320618,11.2366409
990,-3.7325413,-1.5155219,4.9894910,-204.2824402,-72.4274826,9.7404585
1000,-3.6702924,-1.7046629,5.8035154,-216.5648804,-94.5038147,4.0458016
1010,-3.6511390,-2.2242019,7.4148049,-226.8473358,-115.4656525,-2.1908398
1020,-3.9192882,-2.6695213,9.6030941,-233.1221313,-123.5038147,-4.7480917
1030,-4.6064205,-2.9376705,11.8919392,-234.8473358,-116.8244247,-1.8931298
1040,-5.5090299,-2.9328821,14.4369621,-230.6946564,-93.3893127,7.4045801
1050,-6.6438756,-2.9592183,16.7234135,-219.8320618,-58.3664131,23.5496178
1060,-7.8601241,-2.7796540,17.7888279,-202.9770966,-15.8549614,48.5419846
1070,-8.8992023,-2.5258698,17.6284161,-184.8396912,25.2900772,80.9542007
1080,-9.1458035,-2.2481439,16.2852764,-173.3893127,55.1679382,117.4885483
1090,-8.4562769,-2.2720859,14.6093445,-176.0839691,68.5801544,151.3206177
1100,-6.9934273,-2.4181314,14.7625723,-187.0992432,63.7938919,178.6564941
1110,-5.2720051,-2.3463056,16.5797615,-194.6641235,51.0305328,197.2442780
1120,-3.5481887,-2.1715298,18.7536869,-192.9389343,41.7175560,208.4885559
1130,-1.7046629,-1.8794388,19.6126022,-182.6106873,41.0534363,212.9618378
1140,-0.6033357,-1.3072275,19.6126022,-166.0229034,51.0381660,213.4961853
1150,-0.2322364,-1.0031654,19.6126022,-146.1221313,66.7404556,212.6870270
1160,-0.3447633,-0.9097920,19.6126022,-125.9923630,79.8244247,214.5572510
1170,-0.5219333,-1.1492109,19.6126022,-107.1374054,84.6183243,218.2824402
1180,-0.5099624,-1.2234308,19.6126022,-90.2366409,73.2290039,221.7862549
1190,-0.1460456,-1.5011568,19.6126022,-76.6106873,57.7557259,226.2977142
1200,0.2585725,-1.7717001,19.6126022,-63.0916023,45.4274826,231.8702240
1210,0.8643024,-2.1140692,19.6126022,-48.9083977,36.1526718,238.6106873
1220,1.6735384,-2.5546002,19.6126022,-34.1450386,27.6488552,242.6870270
1230,2.3175755,-2.7078283,19.6126022,-20.4274807,21.7022896,243.6946564
1240,2.6455793,-3.2321558,19.6126022,-7.4580154,19.1832066,243.6259613
1250,3.1363883,-3.7564833,19.6126022,4.9160304,18.8473282,243.0915985
1260,3.1172347,-3.7852135,19.6126022,18.8931293,19.0687027,241.3511505
1270,3.2082138,-3.8307030,19.5413742,34.1755714,20.9083977,238.2977142
1280,3.1220231,-4.1251884,18.4759598,46.4961815,22.4809170,235.4198456
1290,2.7030399,-4.4651632,17.6020813,54.5267181,18.7022896,233.8167877
1300,2.7078283,-5.1163831,17.1926746,62.0992355,6.0229006,233.9084015
1310,2.8897867,-5.6478930,17.1735210,72.0076370,-13.7022905,233.3511505
1320,3.4212968,-6.3086891,17.6475697,85.2824402,-37.4732819,231.7099304
1330,4.8195033,-6.6558466,18.3706150,102.7404556,-58.0839691,226.3053436
1340,6.0980005,-6.8306227,19.0433826,125.4503784,-72.5267181,216.5496216
1350,7.0580707,-6.8330169,19.1750641,151.3816833,-85.1450348,204.3358765
1360,7.7571740,-6.5337429,18.7153797,178.4580078,-95.3435135,190.8778687
1370,8.6071110,-6.1889796,17.7816448,203.9007568,-102.1068726,175.5267181
1380,9.8305416,-5.7771792,16.8072090,225.6335907,-104.1068726,157.3358765
1390,11.2359314,-5.4850879,15.7010946,244.3893127,-100.0992355,135.7557220
1400,12.7155399,-4.9152708,14.9708662,250.1297760,-91.5725174,112.1221390
1410,14.9086180,-4.0294209,14.7075062,250.1297760,-70.4885483,86.0534363
1420,16.3331604,-2.9209111,13.6684275,250.1297760,-40.1679382,52.6030540
1430,16.5701847,-2.1404054,11.7506819,250.1297760,-16.1145039,16.7099228
1440,15.8567171,-1.5562232,9.4043760,250.1297760,-12.0839691,-17.5801525
1450,15.3467541,-2.0254843,7.3788919,250.1297760,-4.8473282,-49.2748108
1460,14.0586805,-1.7717001,5.8466105,250.1297760,-8.5954199,-77.6030502
1470,12.6389265,-1.4772149,4.4579806,250.1297760,-22.4351139,-100.1755753
1480,11.4490137,-1.1659702,3.4117200,250.1297760,-39.9771004,-119.9618301
1490,10.4650021,-0.9888002,2.5522060,245.8091583,-57.3282433,-137.4274750
1500,9.6246414,-0.7661406,1.8195840,231.4732819,-75.8320618,-152.2442780
1510,9.0476418,-0.5291159,1.3215926,216.7938995,-90.5496216,-165.6870270
1520,8.3174143,-0.3782819,0.9289455,202.5572510,-102.9465637,-178.6717529
1530,7.3357964,-0.3064562,0.6775556,189.1297760,-114.1068726,-188.6106873
1540,6.4786768,-0.1244979,0.4333483,177.0305328,-125.9465637,-195.7557220
1550,5.4850879,-0.0191535,0.2729376,166.7786255,-139.2213745,-201.7404633
1560,4.4603748,0.2226596,0.0167593,157.2824402,-155.1068726,-204.3740387
1570,3.6271970,0.4668669,-0.2896969,147.3893127,-170.6030579,-203.3664093
1580,3.0621684,0.5506636,-0.8092360,135.5954132,-182.3358765,-201.8091583
1590,2.6096666,0.6655847,-1.4245427,120.8091583,-187.6488495,-200.1603088
1600,1.9680238,0.7565638,-2.2289903,101.7938919,-186.8091583,-196.7175598
1610,1.0702027,0.9217629,-2.7700772,75.8320618,-182.2977142,-190.1908417
1620,0.2585725,0.9193687,-2.9807658,48.4122124,-175.0229034,-181.2748108
1630,-0.3663110,1.1061156,-2.7461352,20.7099228,-166.8015289,-170.3587799
1640,-1.1539993,1.1085097,-2.2529323,-5.4656487,-155.4656525,-156.8778687
1650,-1.7429699,1.3910241,-1.5945302,-28.5801525,-142.6717529,-141.3816833
1660,-2.1044924,1.6352314,-1.1204807,-50.1297722,-129.9389343,-126.1526718
1670,-2.4731977,1.8171898,-0.7661406,-70.5419846,-118.3664093,-111.5343475
1680,-2.6431851,1.7453641,-0.3016679,-89.0763321,-110.5877838,-98.0763321
1690,-2.7533178,1.5107336,0.3016679,-105.2824402,-108.3969498,-85.0534363
1700,-2.6455793,1.3048333,0.8762733,-117.9007645,-110.8625946,-74.9618301
1710,-2.7006457,1.3742647,1.7190280,-126.1984711,-118.2366409,-66.3053436
1720,-2.7341642,1.5705882,2.3941894,-131.4122162,-130.1297760,-58.9923668
1730,-2.6790979,1.6376256,2.9161227,-134.9007568,-141.3358765,-53.2977104
1740,-2.6767037,1.7262106,3.4069316,-137.7786255,-148.0915985,-48.9847336
1750,-2.6599445,1.7333932,3.5864959,-142.1450348,-151.6793823,-46.6564903
1760,-2.6168492,1.6184721,3.6583214,-149.2671814,-147.0915985,-45.8473282
1770,-3.1244173,1.4796091,3.9240766,-159.0305328,-137.1908417,-44.0534363
1780,-3.6631098,1.3359578,4.2137733,-170.7099304,-124.3664093,-39.9007645
1790,-4.3670015,1.2258250,4.5968437,-182.9084015,-107.1603088,-33.4122124
1800,-4.9200592,1.1396341,5.0613165,-195.7786255,-89.8854980,-24.6412220
1810,-5.4874821,0.7589580,6.0237808,-206.9084015,-73.9847336,-14.5725193
1820,-6.2081332,0.3112446,7.3334022,-213.1145020,-62.8320618,-3.1832061
1830,-6.9551206,-0.1244979,8.5903521,-213.6183167,-58.0992355,10.0152674
1840,-7.5728211,-0.4261657,9.7012558,-209.2366486,-58.4656487,27.0305347
1850,-8.0109577,-0.8259954,10.7163916,-201.9236603,-61.1832047,47.9236641
1860,-8.1402445,-1.0151364,11.4083128,-194.1297760,-63.9465637,72.3587799
1870,-7.7595682,-1.0295014,11.9254580,-189.7404633,-61.7862587,99.3587799
1880,-7.0987716,-1.0366840,12.8160963,-188.3282471,-52.6335869,124.8625946
1890,-6.1123657,-0.9433106,13.9796724,-187.5114441,-37.1450386,148.7938995
1900,-5.1163831,-0.9911944,15.3587255,-184.9007568,-14.6793890,169.4503784
1910,-4.1946201,-0.8188128,16.9317074,-179.6641235,12.3358774,185.7099304
1920,-3.3782012,-0.6057299,18.2030220,-170.1755676,42.9389305,197.5114441
1930,-2.7724714,-0.3663110,18.7752342,-159.3435059,71.1755753,204.1374054
1940,-2.6048782,0.0167593,19.1894283,-147.1526642,86.2442780,205.2824402
1950,-2.4157372,0.2346306,19.4049053,-133.0229034,86.5801544,200.4656525
1960,-2.4851687,0.1556223,19.4839134,-117.0610657,72.3129807,192.0000000
1970,-3.0310438,0.0359128,19.4575768,-98.9007645,49.3664131,184.5343475
1980,-3.3782012,-0.3639168,19.1056328,-80.4274826,24.5572510,180.3893127
1990,-3.7325413,-0.9840119,18.4927197,-65.0763321,1.6717557,180.7557220
2000,-4.2329268,-1.7094513,18.2054157,-52.7786255,-20.0381680,189.8778687
2010,-4.1275826,-2.6814921,18.1790810,-40.3206100,-40.3129768,206.1145020
2020,-3.5481887,-3.5817075,18.3083668,-27.5954189,-55.3435097,226.7480927
2030,-2.1643472,-4.2257442,18.4232883,-14.9160309,-60.1068687,248.1450348
2040,-0.2035061,-4.4723458,18.5932751,-3.6488550,-53.1679382,250.1297760
2050,1.9392935,-4.7309184,18.5453911,4.0839696,-38.5572510,250.1297760
2060,4.3263001,-4.9559722,18.9452209,10.6259546,-20.2748089,250.1297760
2070,6.2296810,-4.7835903,19.6126022,21.7328243,-6.7557254,250.1297760
2080,7.4890246,-4.3598189,19.6126022,38.8549614,-4.5877862,250.1297760
2090,8.7531567,-4.0366035,19.6126022,58.5496178,-12.2595415,243.5725250
2100,9.5097208,-3.6032550,19.2229462,78.4885483,-30.8702297,219.1145020
2110,10.1848822,-3.0166788,18.8614254,100.5877838,-55.2137413,192.4503784
2120,10.9725704,-2.5546002,18.2413292,118.6717529,-79.6946564,165.6870270
2130,11.6860390,-2.2337787,17.5254669,134.7404633,-97.9389343,137.0229034
2140,12.1983957,-1.8459201,16.7210197,146.1526642,-109.0534363,109.0229034
2150,12.2845860,-1.6855093,16.1583843,156.7480927,-113.8931274,84.9465637
2160,12.3252869,-1.8147956,15.4592810,166.8702240,-111.5267181,65.1068726
2170,12.1840305,-1.7812769,14.7194767,176.4961853,-105.5725174,49.4885483
2180,12.3564119,-1.6711442,13.8336267,184.4961853,-95.9236679,37.4580154
2190,12.6724443,-1.6184721,13.0219965,191.2977142,-86.5267181,26.1221371
2200,12.9142580,-1.4269369,12.2486734,196.6259613,-75.8091583,13.7022905
2210,13.3452120,-1.2138541,11.6740675,201.9923706,-65.2748108,0.0076336
2220,13.8432035,-1.0606259,11.1066446,207.7862549,-52.8854980,-16.4503822
2230,13.8862991,-0.8379663,10.4003592,213.6259613,-41.1908379,-34.7786255
2240,13.3380299,-0.7541697,9.8640604,219.8931274,-35.0839691,-52.9389305
2250,12.7490587,-1.0366840,8.9782104,227.6564941,-34.1984749,-70.4656525
2260,11.9517937,-1.2306134,8.1378498,233.7938995,-40.1450386,-84.7022934
2270,11.3747940,-1.2234308,7.5153608,239.4122162,-48.0992355,-97.0763321
2280,11.0013008,-1.1587877,6.8545642,245.4351196,-56.5267181,-108.4122162
2290,10.5631638,-0.9959828,5.8944945,250.1297760,-64.7404556,-119.2748108
2300,10.0555954,-0.9648584,4.6878228,250.1297760,-75.4427490,-129.6870270
2310,9.5695753,-0.7517755,3.1076579,250.1297760,-89.2213745,-137.9084015
2320,9.1051025,-0.4022238,1.6783268,246.2748108,-105.7099228,-145.4274750
2330,8.5544386,-0.1556223,0.2729376,235.0000000,-126.2519073,-152.8396912
2340,7.6973190,0.3878587,-1.1899122,221.2748108,-148.8244324,-158.9389343
2350,7.0652533,1.0893562,-2.6479735,202.7175598,-167.3664093,-162.3587799
2360,6.6678176,1.4676381,-3.1363883,179.9389343,-187.3664093,-164.8778687
2370,6.4307928,1.8243724,-3.0837159,158.4580078,-205.7938995,-165.5190887
2380,6.5050125,2.0805507,-3.0908985,138.0534363,-219.0763397,-165.1679382
2390,6.8761120,2.4253139,-3.1938488,116.9618301,-224.7404633,-167.3282471
2400,6.9694853,2.7605004,-3.3375001,94.8549652,-221.1603088,-171.9389343
2410,6.5959921,2.8586621,-3.1124463,72.1908417,-214.3053436,-177.5877838
2420,6.0070214,2.7269819,-3.0861101,51.5572510,-204.3129730,-181.6335907
2430,5.4036856,2.7197993,-3.0837159,32.2977104,-191.4045868,-183.6412201
2440,4.6519103,2.8012016,-3.2297616,12.8473282,-180.4122162,-185.2137451
2450,3.6319854,2.8227494,-3.3542595,-6.7251906,-169.7022858,-184.9084015
2460,2.6527619,2.6527619,-3.0741394,-25.5801525,-159.4885559,-180.7862549
2470,1.6543850,2.5929072,-2.8371146,-41.8015251,-151.3816833,-172.5190887
2480,0.8259954,2.5905130,-2.6000898,-57.6946564,-145.1832123,-161.9618378
2490,0.4261657,2.5067163,-2.5282640,-73.6564865,-136.8931274,-152.0229034
2500,-0.1795642,2.4755919,-2.4133430,-91.0992355,-130.0000000,-142.1603088
2510,-0.6655847,2.3319404,-1.9871773,-108.7557220,-123.3129807,-131.4427490
2520,-1.0390782,2.2768741,-1.6041069,-125.9083939,-114.7022934,-121.2748108
2530,-1.4317253,2.1667414,-1.0366840,-141.3511505,-106.4732819,-111.0992355
2540,-1.6879035,1.9680238,-0.5386927,-155.1221313,-98.2977066,-101.7099228
2550,-1.9752063,1.6304430,-0.1460456,-167.9313049,-91.2290039,-92.5343475
2560,-2.3965836,1.2569494,0.1987177,-180.7938995,-84.0610657,-83.0305328
2570,-2.7533178,0.9911944,0.5291159,-193.0381622,-78.2671738,-73.2442780
2580,-3.2848279,0.8236012,0.7374104,-205.0076294,-76.5954208,-63.4045792
2590,-3.7325413,0.5937590,0.7948709,-219.5267181,-79.0916061,-53.3435097
2600,-4.0389977,0.0885850,0.7517755,-237.7633514,-83.6946564,-43.3282433
2610,-3.9695661,-0.5985473,0.6488253,-250.1374054,-97.9083939,-33.6564903
2620,-3.8043671,-1.6974803,1.3239868,-250.1374054,-112.7709961,-23.2595425
2630,-3.6295912,-2.9592183,2.8179610,-250.1374054,-118.1145020,-10.4351149
2640,-3.6391680,-3.7660601,5.6838059,-250.1374054,-112.1679382,5.0992365
2650,-3.6750808,-4.0294209,9.0404596,-250.1374054,-95.3129807,21.3664131
2660,-3.6726866,-3.9025288,12.0643206,-250.1374054,-65.5190811,35.7862587
2670,-4.0222383,-3.3111639,14.8008795,-250.1374054,-24.0916023,49.0839691
2680,-4.4436154,-2.9089401,16.5079365,-250.1374054,30.9312973,61.8549614
2690,-4.9942794,-3.0071020,16.8862190,-250.1374054,92.1984711,75.0839691
2700,-6.1530671,-3.1746953,15.4592810,-250.1374054,139.2977142,91.5725174
2710,-6.8545642,-3.1938488,13.2853575,-250.1374054,151.5954132,108.3206100
2720,-6.5265603,-2.9185169,11.9829178,-250.1374054,142.5725250,119.5267181
2730,-6.2177100,-2.7102225,11.6118193,-250.1374054,120.5725174,123.8778610
2740,-5.5808558,-2.7150109,12.5311880,-250.1374054,90.0152664,122.2213745
2750,-4.7955613,-2.8945751,14.5542774,-250.1374054,57.2290077,117.3206100
2760,-4.1108232,-3.2010312,16.3954086,-243.5877838,33.0992355,110.2748108
2770,-3.7660601,-3.6080434,17.5805340,-229.3587799,25.5801525,102.9923630
2780,-4.2760224,-4.1730723,18.5429974,-215.7938995,27.9923668,99.3969498
2790,-5.1331420,-4.4938936,19.5820751,-199.8778687,30.4503822,101.7480927
2800,-5.9974446,-4.7596488,19.6126022,-179.9770966,29.1679382,108.3816757
2810,-7.0556765,-5.1427188,19.6126022,-159.1526642,24.3893127,121.5190811
2820,-8.0277176,-5.4994531,19.6126022,-141.1221313,14.4732828,141.8778687
2830,-8.1210909,-6.1075773,19.6126022,-124.9465637,3.3893130,167.2519073
2840,-7.2352405,-6.6031747,19.6126022,-109.2137375,-1.3969465,193.7709961
2850,-6.0836353,-7.1801744,19.6126022,-97.8091583,8.1603050,218.4885559
2860,-5.4946647,-7.5895805,19.6126022,-94.3893127,30.9007626,242.4122162
2870,-5.0373745,-8.0995426,19.6126022,-95.6106873,55.8091621,250.1297760
2880,-4.5705075,-8.2862902,19.6126022,-97.4961853,76.9465637,250.1297760
2890,-4.3358769,-8.4107876,19.6126022,-94.6412201,87.5496216,250.1297760
2900,-4.1419477,-8.4514885,19.6126022,-83.2366409,85.1297684,250.1297760
2910,-3.2393384,-8.7699156,19.6126022,-64.0534363,72.2290039,250.1297760
2920,-2.2050486,-8.9566631,19.6126022,-38.2213745,52.8244286,250.1297760
2930,-1.1180865,-9.0428534,19.6126022,-11.4503813,28.7175579,250.1297760
2940,-0.0191535,-9.0476418,18.7010136,13.8244276,6.7175574,250.1297760
2950,1.1228749,-8.8130112,17.8247414,35.5648842,-13.1832066,250.1297760
2960,1.8722562,-8.7148495,17.0969067,54.0228996,-32.5496178,250.1297760
2970,2.4540441,-8.4730368,16.3930149,70.6870193,-53.8854980,250.1297760
2980,3.1555417,-8.3796635,16.1152897,87.6641235,-77.5572510,250.1297760
2990,3.6583214,-8.2455883,15.9069948,106.5801544,-105.1526718,250.1297760
3000,4.5393834,-7.9965930,15.7489786,129.6412201,-132.1526642,250.1297760
3010,5.6790175,-7.4555058,15.3443604,152.8702240,-154.9618378,250.1297760
3020,7.3717093,-6.5959921,14.8535509,175.2213745,-170.5419922,250.1297760
3030,9.0835552,-5.3869262,14.3531656,195.5877838,-180.6488495,249.3129730
3040,10.4961262,-4.1132174,13.6444855,212.5343475,-186.2442780,217.2595367
3050,11.7650471,-2.9424589,12.9238348,227.2213745,-190.2671814,180.1755676
3060,12.3755655,-1.8578910,12.1840305,239.9084015,-198.1832123,140.4961853
3070,12.4761209,-0.9935886,11.3269100,250.1297760,-209.7328186,99.2519073
3080,12.4306316,-0.5075682,10.3405046,250.1297760,-222.9389343,60.9923668
3090,12.5168228,-0.0526722,9.5288744,250.1297760,-238.5343475,23.2824421
3100,12.4569674,0.1723816,8.6286592,250.1297760,-250.1374054,-13.8702288
3110,12.0667152,0.3519458,7.8816719,250.1297760,-250.1374054,-50.5801544
3120,11.4945040,0.4668669,6.7492199,250.1297760,-250.1374054,-83.9618301
3130,10.8265247,0.7445929,5.6670465,250.1297760,-250.1374054,-113.0000000
3140,10.4769726,0.9026094,4.5010762,250.1297760,-250.1374054,-137.3893127
3150,10.1393919,1.1683644,3.2632802,250.1297760,-250.1374054,-160.7175598
3160,9.7180147,1.2425843,1.9991482,250.1297760,-250.1374054,-180.4885559
3170,9.3756456,1.4628497,0.8643024,250.1297760,-250.1374054,-195.8320618
3180,8.6406298,1.3670821,0.2513899,232.9007568,-250.1374054,-210.0915985
3190,8.0708122,1.4173602,0.1604107,216.8091583,-250.1374054,-220.3053436
3200,7.4339581,1.3335636,-0.1436514,201.8778687,-250.1374054,-226.5343475
3210,6.7013364,1.4293311,-0.6488253,186.5419922,-250.1374054,-228.5038147
3220,6.0309634,1.6184721,-1.3958124,167.3358765,-250.1374054,-226.6717529
3230,5.5664907,1.7262106,-2.1523764,143.0534363,-250.1374054,-222.9618378
3240,5.2815819,1.9345051,-2.6264257,115.0687027,-250.1374054,-218.4656525
3250,4.7021880,2.0829449,-2.7054341,85.9389343,-250.1374054,-212.8244324
3260,4.1275826,2.0733681,-3.2130022,57.2137413,-218.4198456,-206.9236603
3270,3.2321558,2.2409613,-3.3039815,29.2900772,-170.9389343,-198.9236603
3280,2.1811066,2.4731977,-3.3710186,0.7633588,-127.1755753,-186.4122162
3290,1.3814473,2.7054341,-3.4141142,-25.6717548,-87.1145020,-172.2213745
3300,0.7374104,2.8514795,-3.4643922,-49.8015251,-50.6412201,-157.5572510
3310,0.0622489,3.0358322,-3.6367738,-72.6183243,-20.8320618,-142.6793823
3320,-0.1843526,3.2896163,-3.6918402,-94.1984711,-0.7099237,-129.7480927
3330,-0.4046180,3.5386121,-3.4883339,-113.2595444,8.1068707,-119.1450348
3340,-0.5698171,3.5841017,-3.1363883,-129.3587799,5.3740458,-111.9083939
3350,-0.8690908,3.5577655,-2.7197993,-142.9236603,-7.1679387,-106.3282471
3360,-1.1468167,3.3542595,-2.1236460,-154.0915985,-27.4122143,-101.4427490
3370,-1.3287752,3.1651185,-1.3359578,-162.1068726,-50.8854980,-96.5572510
3380,-1.6041069,2.9855542,-0.5817881,-167.2900696,-76.5114517,-90.4885483
3390,-1.7621235,2.8419030,-0.1197095,-171.8015289,-99.5954208,-83.3664093
3400,-1.8866212,2.7772598,0.2178712,-177.9541931,-119.6335907,-76.1832047
3410,-1.9776005,2.8634505,0.2992737,-187.9541931,-134.7938995,-69.1755753
3420,-1.9177457,2.7820482,0.5817881,-201.8702240,-143.1603088,-62.2137413
3430,-1.7645177,2.3486998,1.0486550,-218.9465637,-146.9541931,-56.1755714
3440,-1.7333932,1.8483143,1.5921360,-238.2213745,-143.3435059,-49.3129768
3450,-1.9871773,1.2976507,2.2026544,-250.1374054,-130.9541931,-40.4351158
3460,-2.7126167,0.6679789,2.8227494,-250.1374054,-115.5038147,-27.7633591
3470,-3.4212968,0.3256098,3.2489152,-250.1374054,-97.3053436,-9.4961834
3480,-3.9336534,-0.1460456,3.5242469,-250.1374054,-72.0687027,12.1832066
3490,-3.8354914,-0.7278336,3.7445123,-250.1374054,-27.2671757,31.0458012
3500,-3.7229645,-1.4915800,5.2169390,-250.1374054,37.2137413,44.5572510
3510,-4.2903876,-2.6048782,8.1881275,-250.1374054,108.4961853,54.7862587
3520,-5.3318601,-3.6176202,11.2359314,-250.1374054,167.5954132,63.7938919
3530,-6.2296810,-4.1802549,14.1903610,-250.1374054,209.4351196,70.8473282
3540,-7.3286138,-4.5417776,15.8926296,-250.1374054,240.6564941,76.2977066
3550,-8.6023226,-4.9463954,16.8143921,-250.1374054,243.6564941,82.3664093
3560,-8.9973640,-4.7764082,17.0107155,-250.1374054,209.6946564,86.9312973
3570,-8.4299412,-4.5298066,16.4001980,-250.1374054,163.8396912,86.0381699
3580,-7.8649125,-4.5657191,15.5311069,-250.1374054,115.3129807,80.9236679
3590,-7.5871863,-4.6686692,15.5670195,-246.5801544,79.6717529,76.0381699
3600,-7.5728211,-4.8266859,15.4975882,-226.9465637,62.8549614,73.7633591
3610,-8.1833391,-5.1427188,14.9205885,-213.5496216,54.8931313,74.5190811
3620,-9.3588867,-5.5712790,14.5279417,-208.5190887,48.7557259,81.0839691
3630,-10.9653873,-6.3374195,14.9158001,-206.5267181,40.3740463,95.5801544
3640,-12.5886478,-6.9623032,16.0195217,-200.4580078,22.1297703,121.5190811
3650,-13.7929258,-7.7212610,17.6020813,-187.4885559,-0.5267175,157.7480927
3660,-13.7833490,-8.2791071,18.9380379,-168.4961853,-13.7862597,199.5267181
3670,-13.0315733,-9.0117292,19.4288483,-148.1221313,-15.6564884,244.0915985
3680,-11.6357603,-9.7539282,19.0074692,-130.7938995,-12.0458012,250.1297760
3690,-10.1920643,-10.3381100,18.4663830,-117.5801544,-8.7938929,250.1297760
3700,-8.6118994,-10.7906122,18.0809193,-106.3129807,-7.6717558,250.1297760
3710,-7.1083484,-11.2598734,18.1862640,-95.1068726,-11.7175570,250.1297760
3720,-5.5808558,-11.7458935,18.6243992,-78.2213745,-20.9083977,250.1297760
3730,-4.3047528,-12.3037395,18.9164906,-54.6259537,-36.6488533,250.1297760
3740,-3.2991931,-12.6341381,18.8135414,-26.6259537,-61.7938919,250.1297760
3750,-2.4564383,-12.8424320,18.9691639,5.1755724,-97.3358765,250.1297760
3760,-1.6831152,-13.1848011,18.8015690,43.7938919,-139.2366486,250.1297760
3770,-0.3854645,-13.0052376,17.9372673,84.4503784,-181.0000000,250.1297760
3780,1.2832855,-12.2462788,16.1990852,119.1908417,-216.2595367,250.1297760
3790,2.5713594,-11.6381550,14.5183649,143.0534363,-243.2290039,250.1297760
3800,4.1204000,-10.8815908,13.4936514,159.4198456,-250.1374054,250.1297760
3810,6.4164276,-9.7515335,12.9477768,171.2213745,-250.1374054,250.1297760
3820,9.6366129,-7.9151902,13.2949343,183.1832123,-250.1374054,250.1297760
3830,12.8184900,-5.4252334,13.4960461,197.2671814,-250.1374054,250.1297760
3840,15.0762110,-3.3135581,13.1584654,211.4427490,-250.1374054,250.1297760
3850,16.6659527,-1.5227045,12.4378138,223.8549652,-250.1374054,211.8931274
3860,17.4919491,-0.2801202,11.3340931,233.5954132,-249.3587799,155.9694672
3870,17.3482971,0.3998296,9.7874460,238.9389343,-249.9694672,101.8702316
3880,16.4504757,0.7493813,8.1833391,238.5419922,-250.1374054,51.5648842
3890,15.4066095,0.8858501,7.2112985,234.5877838,-250.1374054,7.7709923
3900,14.6787758,0.9935886,6.3230543,231.1145020,-250.1374054,-32.1755714
3910,14.2166967,1.1348459,5.1834202,226.5343475,-250.1374054,-67.5572510
3920,14.2310619,1.2904681,4.2544746,217.0839691,-250.1374054,-99.8396912
3930,14.3555603,1.5610116,3.7636659,204.5267181,-250.1374054,-131.8167877
3940,14.4728756,1.6400198,3.8450682,195.7022858,-250.1374054,-163.8244324
3950,14.7075062,1.6759326,3.7445123,188.1984711,-250.1374054,-196.0000000
3960,14.3124647,1.3503228,3.6224086,183.6106873,-250.1374054,-227.4732819
3970,13.5678720,1.0941446,3.3087699,180.0381622,-250.1374054,-250.1374054
3980,12.5862541,0.1699875,2.5641768,177.0000000,-250.1374054,-250.1374054
3990,11.0731258,-0.1125269,2.4636209,177.3206177,-250.1374054,-250.1374054
4000,9.7515335,-0.3303981,1.3742647,176.5038147,-250.1374054,-250.1374054
4010,8.1498213,-0.5219333,0.2944853,169.9007568,-250.1374054,-250.1374054
4020,6.9383612,-0.3902529,-0.7493813,156.0610657,-250.1374054,-250.1374054
4030,6.3637557,-0.2825144,-1.3790531,135.5343475,-250.1374054,-250.1374054
4040,6.1363077,0.1699875,-1.5586174,114.7557220,-250.1374054,-250.1374054
4050,5.7795734,0.5410868,-1.6304430,96.4198456,-250.1374054,-250.1374054
4060,5.3869262,1.0869620,-2.0063307,76.7328262,-250.1374054,-250.1374054
4070,4.9511838,1.2018831,-2.7365584,53.7633591,-250.1374054,-250.1374054
4080,4.3406653,1.2928623,-3.5888901,26.7938938,-250.1374054,-250.1374054
4090,3.5769191,1.1683644,-4.5130472,-3.4427481,-217.9084015,-250.1374054
4100,2.3702476,1.0702027,-4.8554163,-35.1145020,-181.2290039,-250.1374054
4110,0.9888002,1.0725969,-5.0541339,-65.8549652,-150.4580078,-250.1374054
4120,-0.6320660,1.1970947,-5.2073622,-93.8167953,-129.3282471,-250.1374054
4130,-1.9392935,1.2330076,-5.0541339,-120.0534363,-118.1603088,-236.4045868
4140,-2.4684093,1.6041069,-4.9128766,-143.1526642,-117.1374054,-215.8473358
4150,-2.4636209,1.9009864,-4.6686692,-165.1679382,-123.5725174,-198.6488495
4160,-2.5043221,1.9081690,-4.2209558,-186.1145020,-129.5877838,-184.8778687
4170,-2.9137285,1.5203103,-3.9552009,-207.2366486,-133.5496216,-170.7404633
4180,-3.3734128,1.1539993,-3.5841017,-230.5648804,-133.6412201,-155.7251892
4190,-3.7756367,0.5698171,-2.9831600,-250.1374054,-126.3893127,-140.0992432
4200,-4.2784166,-0.0478838,-1.8363433,-250.1374054,-107.1832047,-122.6488571
4210,-4.6351509,-0.4477134,-0.4501076,-250.1374054,-81.4198456,-104.9007645
4220,-5.4611464,-0.6536137,0.8259954,-250.1374054,-54.0152664,-86.9923630
4230,-6.2320752,-1.0103480,1.9033806,-250.1374054,-33.3511467,-68.0839691
4240,-6.6199336,-1.3311694,2.7245877,-250.1374054,-23.1068707,-48.4809151
4250,-6.8809004,-1.6998745,3.7756367,-250.1374054,-19.2366409,-28.6183205
4260,-6.4667058,-1.9249283,4.9080882,-250.1374054,-16.5572510,-9.6793890
4270,-5.9711084,-2.4157372,5.7652082,-250.1374054,-16.2977104,6.0534353
4280,-5.3007355,-2.9975252,7.2543941,-250.1374054,-33.9541969,16.9160309
4290,-4.3670015,-3.2896163,9.8927908,-250.1374054,-57.4732819,24.1984730
4300,-3.8474624,-3.5410061,11.5471754,-250.1374054,-60.3358765,31.0992374
4310,-4.2592630,-3.9121056,11.8823624,-250.1374054,-30.8167934,43.6412201
4320,-5.7436604,-4.3957319,10.7139978,-250.1374054,7.9160304,63.2290077
4330,-6.7492199,-4.6830344,9.3469152,-250.1374054,35.3206100,83.5114517
4340,-7.3788919,-5.2648225,8.5735922,-250.1374054,45.3282433,98.1908417
4350,-7.8002691,-6.2751703,9.4594421,-250.1374054,27.5419846,114.0000000
4360,-7.4579000,-7.0628591,10.9294748,-250.1374054,9.5496187,128.5954132
4370,-7.1275020,-7.6207051,12.0427732,-250.1374054,3.0305343,141.9465637
4380,-7.0868006,-8.5927458,13.1560707,-250.1374054,1.5572519,157.5572510
4390,-7.2879128,-9.5552101,14.0299501,-250.1374054,7.9618320,175.1603088
4400,-7.8720951,-10.4817610,14.7170830,-250.1374054,20.4198475,195.4732819
4410,-8.6861191,-11.3508520,15.8782644,-250.1374054,19.3816795,217.5190887
4420,-9.0428534,-12.4569674,17.6882725,-250.1374054,1.2900764,240.3206177
4430,-9.2918491,-13.5319586,19.6126022,-250.1374054,-10.8320608,250.1297760
4440,-9.9263096,-14.4369621,19.6126022,-250.1374054,-13.3053436,250.1297760
4450,-10.4290895,-15.4616756,19.6126022,-250.1374054,-22.1603050,250.1297760
4460,-10.0053177,-15.5957499,19.6126022,-221.8244324,-43.6717567,250.1297760
4470,-8.8465300,-15.5909615,19.6126022,-168.3358765,-62.5725174,250.1297760
4480,-7.0628591,-15.8064384,19.6126022,-123.1374054,-73.1908417,250.1297760
4490,-5.2217274,-15.8567171,19.6126022,-84.5343475,-83.4122162,250.1297760
4500,-3.1196289,-15.9046001,19.6126022,-45.5114517,-96.1908417,250.1297760
4510,-1.7525467,-15.5909615,19.6126022,-6.9541984,-111.5496216,250.1297760
4520,-0.7086801,-15.2677460,19.6126022,31.5038166,-127.1603088,250.1297760
4530,-0.3519458,-14.7434187,19.6126022,70.2977066,-142.4503784,250.1297760
4540,-0.1532281,-14.4297800,19.6126022,109.7251892,-159.8015289,250.1297760
4550,-0.0167593,-13.8360205,18.7105904,150.9770966,-179.0152740,250.1297760
4560,0.2298422,-13.3691540,16.9843807,187.7786255,-203.8931274,250.1297760
4570,1.0438666,-12.5982246,14.4321737,216.2137451,-229.8244324,250.1297760
4580,2.1739240,-11.7818060,11.9182749,236.2366486,-250.1374054,250.1297760
4590,3.0262554,-10.8911676,9.3588867,248.9694672,-250.1374054,250.1297760
4600,4.4938936,-9.4833841,7.1993275,250.1297760,-250.1374054,250.1297760
4610,7.7164726,-7.3166428,6.2679882,248.5648804,-250.1374054,250.1297760
4620,11.7818060,-3.9767487,6.6486640,239.0381622,-250.1374054,250.1297760
4630,15.3730907,-0.6967092,7.4243813,230.8320618,-250.1374054,250.1297760
4640,17.6619358,1.6088953,8.1881275,228.1984711,-250.1374054,180.0992432
4650,18.1144371,2.7820482,7.9319496,230.8320618,-250.1374054,109.2900772
4660,17.2980194,3.3590479,6.7204900,232.7557220,-250.1374054,44.4580154
4670,16.1919041,3.4045374,4.8386569,228.7328186,-250.1374054,-14.4122133
4680,15.1624022,3.0525916,3.4428444,218.4732819,-250.1374054,-63.4732819
4690,14.2071199,2.7844424,3.0454090,207.3587799,-250.1374054,-103.6488571
4700,13.1680422,2.7102225,2.9280937,196.2442780,-250.1374054,-134.6259613
4710,12.7370882,2.5330524,3.4045374,190.1908417,-250.1374054,-161.5267181
4720,12.1792421,2.3558824,3.9791429,191.4809113,-250.1374054,-184.5114441
4730,11.5950594,2.5450234,4.3119354,196.3969421,-250.1374054,-202.9694672
4740,11.9470053,2.3486998,3.8474624,199.0458069,-250.1374054,-220.2595367
4750,11.5280218,2.2194135,3.5817075,197.7862549,-250.1374054,-237.1145020
4760,10.8887739,2.0829449,2.6192431,191.1221313,-250.1374054,-248.9389343
4770,10.5320396,2.0206959,1.8890154,178.9389343,-250.1374054,-250.1374054
4780,9.6844959,1.8914096,0.9073978,163.5572510,-250.1374054,-250.1374054
4790,8.5185261,1.6735384,0.1675933,145.8778687,-250.1374054,-250.1374054
4800,7.4315639,1.5227045,-0.5817881,127.7709961,-244.8473358,-250.1374054
4810,5.9519548,1.2641320,-1.5107336,109.1603088,-207.4732819,-250.1374054
4820,4.9056940,1.3503228,-2.2529323,90.3053436,-175.0686951,-250.1374054
4830,3.9097114,1.4029950,-2.8873925,71.7709961,-145.0992432,-250.1374054
4840,2.9807658,1.5921360,-3.4883339,53.9160309,-122.1526718,-250.1374054
4850,2.3989778,1.9057748,-3.9575951,36.3053436,-109.2900772,-244.0839691
4860,2.2816625,2.5067163,-4.2472920,19.7251911,-107.2748108,-234.1145020
4870,1.9967541,2.9879484,-4.5393834,4.0229006,-112.4045792,-228.4122162
4880,1.3407460,3.1220231,-4.5800843,-11.7938929,-122.5725174,-222.9847260
4890,0.7637464,3.3949606,-4.7357068,-28.7251911,-135.5572510,-217.5648804
4900,0.2920911,3.5505829,-4.6255741,-46.7633591,-150.0000000,-212.0458069
4910,-0.2992737,3.4955165,-4.1419477,-65.4656525,-161.4427490,-205.2519073
4920,-0.7996593,3.4404502,-3.7516949,-84.8244247,-166.2977142,-196.0458069
4930,-1.1420283,3.4236910,-3.2106080,-104.1984711,-163.3816833,-185.3282471
4940,-0.6847382,3.5505829,-2.7748656,-124.8625946,-157.6488495,-176.6870270
4950,-0.3591284,3.3039815,-2.3702476,-144.5572510,-144.9618378,-171.9618378
4960,-0.3375807,3.0741394,-2.4157372,-165.6259613,-131.5038147,-170.0839691
4970,-0.7757174,2.7078283,-2.4684093,-189.1374054,-122.6335907,-169.0686951
4980,-1.6065011,1.9105632,-1.6902977,-210.6870270,-119.0229034,-164.4961853
4990,-2.7150109,1.5179161,-0.8762733,-228.0458069,-117.4809189,-154.8702240
5000,-4.0246325,1.0199248,0.0526722,-241.9618378,-121.1374054,-138.6183167
5010,-4.6136031,0.7709290,1.1156923,-250.1374054,-129.4122162,-117.3587799
5020,-4.5800843,0.8092360,2.3199697,-250.1374054,-130.5572510,-95.0992355
5030,-4.5010762,0.8643024,3.2848279,-250.1374054,-120.0916061,-72.9618301
5040,-3.8785870,0.5291159,3.5936785,-250.1374054,-101.8396912,-54.2977104
5050,-3.1435707,-0.2274480,3.5003049,-250.1374054,-78.6488571,-43.3664131
5060,-2.8059900,-1.4389079,3.7038112,-250.1374054,-61.0916023,-38.2748108
5070,-2.8107784,-2.0374553,4.7381010,-250.1374054,-52.8091621,-35.5877876
5080,-3.6439564,-3.0382264,7.0149751,-250.1374054,-49.6717567,-30.7633591
5090,-5.0661049,-3.6559272,8.4371233,-250.1374054,-42.8320618,-17.5038166
5100,-6.7252784,-4.3119354,9.2726955,-250.1374054,-28.9083977,8.1908398
5110,-7.6326761,-4.6973996,9.3995876,-250.1374054,-11.1603050,44.5801544
5120,-7.4076223,-4.8625989,9.3493099,-250.1374054,16.3893127,81.8244247
5130,-6.3326311,-5.0254035,9.1529865,-250.1374054,48.3206100,112.6106873
5140,-4.9463954,-5.1068063,9.0763721,-250.1374054,71.7633591,131.0610657
5150,-2.9017577,-5.1403246,9.3995876,-250.1374054,87.4885483,134.5725250
5160,-1.9033806,-4.9320302,10.4266949,-250.1374054,95.7175598,126.6870193
5170,-2.1260402,-5.0301919,11.7171631,-250.1374054,91.8702316,112.9007645
5180,-3.0334380,-5.1187773,12.9046812,-250.1374054,69.1297684,101.1221390
5190,-3.9312592,-4.9009056,14.5087881,-250.1374054,37.4198456,95.6106873
5200,-4.2927818,-4.7979555,15.9022064,-250.1374054,12.8320608,92.9083939
5210,-4.6686692,-4.6662750,16.4768124,-250.1374054,2.0916030,96.1297684
5220,-4.6088147,-4.5585365,16.2421818,-250.1374054,11.1068707,104.5343475
5230,-5.0158267,-4.8817525,15.1887379,-250.1374054,27.4045811,112.3893127
5240,-5.4108682,-5.7125359,14.7553892,-250.1374054,31.5267181,120.8778610
5250,-5.7316895,-6.3948798,15.3443604,-250.1374054,27.7709923,130.3816833
5260,-6.2344694,-6.9192076,15.7896795,-250.1374054,22.1755733,140.9618378
5270,-7.4459291,-7.4674768,15.4520988,-250.1374054,14.7557249,152.8015289
5280,-8.2695303,-8.1929159,15.5622311,-250.1374054,0.9312977,169.9160309
5290,-8.3916340,-8.9470863,15.5742025,-250.1374054,-7.8473282,190.3740387
5300,-8.2192526,-9.7012558,15.5191364,-250.1374054,-8.0229006,212.6259613
5310,-8.3078375,-10.4554253,15.5646257,-250.1374054,-5.5419846,235.7938995
5320,-8.2120695,-11.1449518,15.8231983,-250.1374054,-7.1984735,250.1297760
5330,-7.9008250,-12.1744537,16.6252518,-250.1374054,-16.8778629,250.1297760
5340,-8.0444765,-12.9573536,17.4823723,-236.4809113,-29.2137413,250.1297760
5350,-7.9870162,-13.6875811,18.8207226,-209.5343475,-45.5572510,250.1297760
5360,-7.7811155,-14.5039997,19.6126022,-170.9160309,-68.9770966,250.1297760
5370,-6.9623032,-14.6572275,19.6126022,-117.6412201,-99.1145020,250.1297760
5380,-5.5880380,-14.9828377,19.6126022,-58.0763359,-122.6717529,250.1297760
5390,-4.5920553,-15.2557755,19.6126022,1.1145039,-143.4656525,250.1297760
5400,-3.2393384,-15.0522690,19.6126022,57.0228996,-160.3129730,250.1297760
5410,-2.6264257,-14.5039997,18.2078114,106.2213745,-180.5343475,250.1297760
5420,-2.4540441,-13.9557304,15.9836092,146.9618378,-212.4809113,250.1297760
5430,-1.2904681,-13.2111378,13.8982697,177.5801544,-247.4885559,250.1297760
5440,-0.2968795,-12.2438850,12.3396521,198.8931274,-250.1374054,250.1297760
5450,0.5386927,-11.3508520,11.2670555,216.2748108,-250.1374054,250.1297760
5460,1.3814473,-10.7738523,10.3668404,233.3358765,-250.1374054,250.1297760
5470,2.1308286,-10.0077124,9.3493099,250.1297760,-250.1374054,250.1297760
5480,3.6439564,-8.7076674,8.2958660,250.1297760,-250.1374054,250.1297760
5490,5.8705525,-6.8425937,7.1993275,250.1297760,-250.1374054,250.1297760
5500,9.0404596,-4.1084290,6.2033448,250.1297760,-250.1374054,250.1297760
5510,12.0906563,-0.8403605,4.9631548,250.1297760,-250.1374054,212.6183167
5520,14.2550039,2.0733681,3.8857694,250.1297760,-250.1374054,153.6106873
5530,15.8758707,3.9767487,3.4955165,250.1297760,-250.1374054,88.6030502
5540,16.0841656,4.9248476,3.4308734,250.1297760,-250.1374054,20.2366409
5550,14.8942528,5.0277977,3.2106080,250.1297760,-250.1374054,-43.3893127
5560,13.3978844,4.5992379,2.5713594,245.2748108,-250.1374054,-93.8625946
5570,12.1672707,4.2113791,1.8531027,230.0686951,-250.1374054,-129.4045868
5580,11.6261835,3.8714044,1.7142396,212.6793823,-250.1374054,-155.4198456
5590,11.1521349,3.8330972,1.5227045,195.0458069,-250.1374054,-176.4656525
5600,10.6924505,3.5936785,1.0390782,174.5877838,-250.1374054,-193.4198456
5610,10.1178446,3.2537034,2.1930776,158.1603088,-250.1374054,-204.4885559
5620,9.6509781,3.2465210,2.7174051,147.4809113,-250.1374054,-211.4351196
5630,9.4235296,3.0166788,2.8610563,141.0381622,-250.1374054,-213.7099304
5640,9.1745338,2.9065459,2.6647329,132.3358765,-250.1374054,-213.4503784
5650,9.0452480,3.0956869,1.7836711,119.4198456,-250.1374054,-213.5190887
5660,8.5688038,3.3135581,0.8403605,101.8931274,-212.7480927,-213.1526642
5670,8.0468712,3.4404502,-0.0933734,82.5496216,-148.8931274,-212.5114441
5680,8.0325060,3.5841017,-0.7685348,62.4122124,-93.5648880,-213.1832123
5690,7.7643566,3.8546450,-1.2641320,45.6717567,-48.9007645,-216.2137451
5700,6.9694853,3.8761928,-1.9392935,30.9541988,-16.6564884,-219.5648804
5710,6.3637557,3.9959023,-2.5498118,17.2061062,-2.4503818,-221.4198456
5720,6.0405402,4.0150557,-3.1435707,3.6412213,-1.4809160,-225.0763397
5730,4.9631548,3.8666160,-3.1746953,-7.5725193,-12.5038166,-228.1297760
5740,3.4955165,3.7732425,-3.1746953,-16.6335869,-33.0458031,-226.8396912
5750,2.5043221,3.9097114,-2.8993635,-25.1374054,-66.2824402,-222.8091583
5760,2.0853391,4.1419477,-2.3486998,-32.8931313,-101.2748108,-218.5496216
5770,1.7046629,4.2808108,-1.6448082,-38.5114517,-128.0763397,-213.5954132
5780,1.0582317,4.3574247,-1.1923064,-43.4274826,-146.3740387,-207.4580078
5790,0.6799498,4.4579806,-1.0175306,-49.9771004,-157.2442780,-199.1603088
5800,0.7038917,4.6399393,-0.8643024,-59.5419846,-161.3969421,-190.8091583
5810,0.9720409,4.7021880,-0.7158626,-71.1068726,-156.3282471,-184.2442780
5820,0.9552816,4.7548604,-0.4932030,-82.7786255,-141.1374054,-178.4961853
5830,0.2226596,4.7285242,-0.4022238,-95.5343475,-119.7175598,-171.7557220
5840,-0.3327923,4.7069764,-0.6368544,-110.5267181,-101.2061081,-164.9618378
5850,-0.7565638,4.5130472,-0.5362985,-126.6106873,-82.9618301,-158.5648804
5860,-1.7309990,4.3933377,-0.1939293,-141.0610657,-65.9160309,-149.6564941
5870,-2.4660151,4.2760224,0.1197095,-153.7862549,-54.8320618,-137.5877838
5880,-2.4516499,4.1970143,0.5722113,-165.2061005,-49.6183205,-125.5725174
5890,-2.0685797,4.2832050,0.9097920,-174.6030579,-44.5877876,-116.5190811
5900,-2.4013720,4.2281384,1.2856797,-182.9465637,-39.9312973,-108.9465637
5910,-3.0525916,4.1658897,1.9440818,-189.4274750,-36.3664131,-98.6335907
5920,-3.3877780,4.1251884,2.5450234,-193.3893127,-34.9771004,-86.1221390
5930,-3.2441268,4.3933377,3.2010312,-195.4122162,-34.2519073,-74.1450348
5940,-3.2513094,4.4627690,3.7876077,-195.5648804,-28.3358784,-64.1908417
5950,-3.0525916,4.4986820,3.8618276,-196.1603088,-20.5190830,-55.3358765
5960,-2.7868366,4.3550305,4.0030847,-197.7404633,-12.2366409,-48.5343513
5970,-3.0549858,4.0629396,4.1515245,-200.4274750,-4.4274807,-42.2900772
5980,-3.2920105,3.6870518,4.3789725,-203.9007568,-6.7709923,-35.5648842
5990,-3.1339941,3.3758070,5.0828643,-205.5114441,-19.8244267,-29.9389305
6000,-2.8873925,3.0741394,5.8585815,-203.9313049,-34.6335869,-25.3206100
6010,-2.5378408,2.8514795,6.5840211,-201.0229034,-42.9083977,-20.8625946
6020,-2.1882892,2.5306582,6.6893654,-200.2061005,-38.1603050,-15.6412210
6030,-2.2505381,2.3941894,6.1051831,-205.2595367,-24.9618320,-10.8167934
6040,-2.6719155,2.0063307,5.7292953,-217.8473358,-11.7557249,-4.3206105
6050,-2.9951310,1.4867916,6.0668759,-233.1221313,-5.5343513,4.7480917
6060,-2.9185169,0.9744351,7.1466556,-245.2977142,-10.8015270,14.1832066
6070,-2.5857246,0.6200951,8.1689749,-250.1374054,-22.6412220,21.7480907
6080,-2.5067163,0.1651991,9.3253679,-250.1374054,-24.0610695,28.7633591
6090,-2.8586621,-0.2346306,10.0603838,-250.1374054,-10.0458012,37.8091621
6100,-3.8115497,-0.5291159,10.4219065,-250.1374054,11.7557249,50.1526718
6110,-4.6854286,-0.8188128,10.6421719,-250.1374054,30.1145039,64.4885483
6120,-5.1187773,-1.0103480,10.6948442,-250.1374054,41.7251892,77.7709961
6130,-5.4755111,-1.1827296,10.7499104,-250.1374054,44.4503822,89.3435135
6140,-5.4826937,-1.4317253,10.7570934,-250.1374054,40.4885483,97.7022934
6150,-5.1977854,-1.7333932,11.5375986,-250.1374054,27.6259537,107.3053436
6160,-4.9607606,-1.8674678,12.0523500,-250.1374054,19.4274807,115.3435135
6170,-4.9248476,-2.0398495,11.9158812,-250.1374054,23.3664131,124.6488571
6180,-5.2073622,-2.3606708,11.2862091,-250.1374054,26.1832066,136.1297760
6190,-5.3629842,-2.9687948,11.5998478,-250.1374054,26.1145039,148.4732819
6200,-5.8466105,-3.6367738,12.1241751,-250.1374054,29.7633591,162.0534363
6210,-6.5289545,-4.5082588,12.5431585,-250.1374054,36.9160309,180.2671814
6220,-6.9766679,-5.4874821,13.0746689,-250.1374054,45.7022896,203.0610657
6230,-7.1969333,-6.5217719,13.4792862,-250.1374054,57.4351158,225.6183167
6240,-7.8768835,-7.6877422,13.7641954,-250.1374054,70.1068726,249.9541931
6250,-8.5855637,-9.1194677,14.1185350,-250.1374054,76.4274826,250.1297760
6260,-9.1697454,-10.5847120,14.7506008,-250.1374054,80.9465637,250.1297760
6270,-9.6461897,-12.2438850,15.7944679,-250.1374054,83.0610657,250.1297760
6280,-9.7730818,-13.4194317,17.3698444,-250.1374054,76.5954208,250.1297760
6290,-9.3205795,-14.5087881,19.0601425,-250.1374054,56.8549614,250.1297760
6300,-8.4850073,-15.7537670,19.6126022,-250.1374054,28.2442741,250.1297760
6310,-7.1251078,-16.3834381,19.6126022,-216.3358765,-9.5572519,250.1297760
6320,-5.2025738,-16.8981895,19.6126022,-141.6106873,-56.0228996,250.1297760
6330,-2.8993635,-16.2876701,19.6126022,-56.8625946,-107.1526718,250.1297760
6340,-0.9648584,-15.5837793,19.6126022,26.6946564,-154.7786255,250.1297760
6350,0.0550664,-14.0467091,19.6126022,104.2290039,-199.7938995,250.1297760
6360,0.1795642,-12.4306316,18.9859219,165.4885559,-238.3511505,250.1297760
6370,0.1939293,-11.3077564,15.9381189,208.6793823,-250.1374054,250.1297760
6380,0.2394189,-9.7180147,14.0682573,237.1984711,-250.1374054,250.1297760
6390,0.4644727,-8.8201942,12.8520088,250.1297760,-250.1374054,250.1297760
6400,0.6727672,-8.2144642,11.8703909,250.1297760,-250.1374054,250.1297760
6410,1.1683644,-7.4148049,10.8480721,250.1297760,-250.1374054,247.5954132
6420,3.1220231,-6.3254485,9.3564920,250.1297760,-250.1374054,222.2977142
6430,5.7939386,-4.5130472,7.8026633,250.1297760,-250.1374054,186.9770966
6440,7.9032192,-1.8674678,5.6742291,250.1297760,-250.1374054,141.3282471
6450,9.9789820,0.8547257,3.8809812,250.1297760,-250.1374054,88.8015289
6460,12.2702208,3.3877780,1.8602852,250.1297760,-250.1374054,26.5725193
6470,12.8807392,4.9368186,-0.7445929,250.1297760,-250.1374054,-39.5496178
6480,11.8895445,5.6766233,-3.5266411,250.1297760,-250.1374054,-96.1450348
6490,10.8193426,5.6862001,-5.3366485,250.1297760,-250.1374054,-136.9923706
6500,11.0300312,5.5688848,-5.6407104,250.1297760,-250.1374054,-170.1145020
6510,10.7546988,5.1163831,-4.1850433,230.6641235,-250.1374054,-193.9923706
6520,10.7427282,4.9080882,-2.4731977,196.3969421,-250.1374054,-209.9007568
6530,10.6517487,4.2233500,-1.2282192,170.4961853,-250.1374054,-219.5572510
6540,10.7451220,3.6176202,-0.6272776,147.7404633,-250.1374054,-223.0763397
6550,11.2407198,3.4117200,0.0526722,128.1832123,-250.1374054,-226.7633514
6560,11.4849272,3.6439564,0.4237715,112.1068726,-250.1374054,-235.8473358
6570,11.0348196,3.5721307,-0.0502780,98.0687027,-250.1374054,-250.1374054
6580,9.7491398,3.4069316,-1.2617378,77.9007645,-246.3435059,-250.1374054
6590,8.7986460,3.2991931,-2.6719155,54.7480927,-166.3969421,-250.1374054
6600,8.4371233,3.2728570,-4.4029145,27.4580154,-90.7404556,-250.1374054
6610,7.0844064,2.6671271,-6.0261750,-1.4274809,-27.5725193,-250.1374054
6620,5.2696109,2.2457497,-7.0556765,-30.6335869,13.4580154,-250.1374054
6630,3.9073172,2.0709739,-7.4890246,-57.3282433,24.1755733,-250.1374054
6640,2.6024840,1.9967541,-7.2184811,-78.9618301,9.1145039,-250.1374054
6650,1.2521610,2.0159075,-6.2823529,-94.1603088,-22.1603050,-250.1374054
6660,0.3088504,2.2194135,-5.1953912,-105.1297684,-62.8091621,-250.1374054
6670,-0.1316804,2.7054341,-3.9360476,-112.3282471,-102.3282471,-244.9770966
6680,-0.3160330,3.1962428,-2.8921809,-116.7557220,-130.6488495,-231.9618378
6690,-0.3543400,3.4093258,-2.6599445,-122.7251892,-142.2519073,-219.7557220
6700,-0.2513899,3.6224086,-2.9089401,-135.5572510,-145.3053436,-209.0686951
6710,-0.3639168,3.3973548,-2.9256995,-154.7022858,-135.3587799,-199.3053436
6720,-0.6392486,3.1962428,-2.5976956,-176.2824402,-115.7251892,-190.2137451
6730,-0.8164186,3.0741394,-2.2313845,-198.6030579,-87.2748108,-182.3053436
6740,-0.6823440,2.9328821,-2.0566087,-220.6106873,-57.0610695,-177.8473358
6750,-1.4772149,2.6623387,-1.8961980,-242.4198456,-31.2290077,-175.0992432
6760,-3.0094962,2.3056045,-1.4245427,-250.1374054,-12.6946564,-169.2595367
6770,-4.2927818,1.9656296,-0.5291159,-250.1374054,-2.6946564,-158.1450348
6780,-5.7771792,1.6902977,0.5099624,-250.1374054,4.0992365,-142.4198456
6790,-6.6175399,1.6376256,1.1803354,-250.1374054,0.5954198,-123.6488571
6800,-6.9359670,1.7405758,1.6400198,-250.1374054,-3.7557251,-105.6641235
6810,-7.4387465,1.4053892,1.8698620,-250.1374054,-6.3664122,-86.1374054
6820,-7.3525558,0.9888002,2.2529323,-250.1374054,-11.6564884,-66.6106873
6830,-7.2065101,0.6440369,2.6407909,-250.1374054,-11.9847326,-48.4122124
6840,-7.1298962,0.3710994,2.7652888,-250.1374054,-4.3435116,-30.9923668
6850,-7.4555058,-0.1316804,2.8849983,-250.1374054,6.8167939,-13.6183205
6860,-8.1450329,-0.7900825,3.3015873,-250.1374054,12.8396950,3.7404580
6870,-8.1282730,-1.5155219,3.8546450,-250.1374054,8.5877867,21.4580154
6880,-7.9582858,-2.2409613,4.3765783,-250.1374054,4.3053436,39.1374054
6890,-7.6183109,-3.0478032,4.8937230,-250.1374054,0.7938932,57.1603050
6900,-7.1251078,-3.5242469,5.4228392,-250.1374054,-0.0763359,73.5190811
6910,-6.6630292,-4.3023586,6.3733325,-250.1374054,-1.7022901,87.5190811
6920,-6.4619174,-4.7093706,7.7739329,-250.1374054,-5.2671757,97.7633591
6930,-6.3853035,-5.1858144,8.8656836,-250.1374054,-6.4045801,110.4809189
6940,-6.4092450,-5.6981707,9.4331064,-250.1374054,-10.8091602,121.6412201
6950,-6.0501165,-6.0094156,10.5751352,-250.1374054,-18.0763359,132.1297760
6960,-5.7747850,-6.4762826,11.7506819,-250.1374054,-19.9618320,143.1145020
6970,-5.8801293,-6.8593526,12.4066896,-250.1374054,-14.5343513,154.4122162
6980,-6.6007805,-7.2591825,12.5144281,-250.1374054,-11.8244276,167.7633514
6990,-6.8210459,-7.9439206,12.6197729,-250.1374054,-17.0229015,182.4045868
7000,-6.8425937,-8.6885138,12.8663740,-250.1374054,-25.8778629,197.3053436
7010,-6.8497758,-9.6773138,13.4098549,-250.1374054,-32.3129768,213.0992432
7020,-7.3501616,-10.5344334,14.4034433,-250.1374054,-39.1679382,232.7557220
7030,-7.8888540,-11.4514084,15.1600075,-250.1374054,-47.7862587,250.1297760
7040,-7.8361821,-12.1792421,15.8998117,-250.1374054,-55.1679382,250.1297760
7050,-7.6877422,-13.1249466,16.1224709,-250.1374054,-49.3206100,250.1297760
7060,-7.4411407,-14.0874109,16.4792061,-250.1374054,-34.6030540,250.1297760
7070,-7.3693151,-15.3036594,16.9101601,-250.1374054,-25.4274807,250.1297760
7080,-6.7659793,-15.9716377,17.8247414,-250.1374054,-35.1221390,250.1297760
7090,-5.4252334,-16.6539822,18.5741215,-223.0381622,-48.6259537,250.1297760
7100,-4.4819226,-17.0897236,19.6126022,-184.6946564,-60.1832047,250.1297760
7110,-3.7469065,-17.0370522,19.6126022,-136.4351196,-80.9465637,250.1297760
7120,-2.9831600,-16.6827126,19.6126022,-74.8854980,-110.8320618,250.1297760
7130,-1.9368993,-15.8519287,19.6126022,-6.5038166,-137.1145020,250.1297760
7140,-0.9289455,-14.5901909,19.6126022,63.0763359,-161.4809113,250.1297760
7150,-0.0909792,-13.7522240,19.3187141,119.2824402,-182.1603088,250.1297760
7160,1.0055596,-12.8783455,16.8143921,157.4274750,-199.7328186,250.1297760
7170,2.7078283,-11.7123747,15.2509871,182.4274750,-209.8396912,250.1297760
7180,4.3885493,-10.1848822,14.2717638,199.8244324,-215.5801544,250.1297760
7190,6.4355812,-8.5209198,13.4074612,213.3282471,-216.4045868,250.1297760
7200,9.4474716,-6.3589673,12.9382000,222.9618378,-208.9007568,250.1297760
7210,11.2263546,-3.7014170,12.4521790,230.7022858,-208.4885559,227.9465637
7220,10.5440102,-1.3934183,11.6836443,240.4885559,-238.3282471,162.4809113
7230,9.5743637,-0.0957676,10.8361015,250.1297760,-250.1374054,101.1145020
7240,8.3269911,0.4405309,10.0819321,250.1297760,-250.1374054,45.0610695
7250,6.6917596,0.6895266,9.8664551,250.1297760,-250.1374054,-2.0000000
7260,5.4611464,0.7661406,9.3086090,250.1297760,-250.1374054,-41.4274826
7270,4.4819226,0.9744351,8.4897957,250.1297760,-250.1374054,-75.8778610
7280,4.0054789,1.1468167,6.8761120,250.1297760,-250.1374054,-107.2290039
7290,3.5050933,1.8531027,3.9839313,250.1297760,-250.1374054,-133.9847260
7300,3.7325413,3.1986370,-0.5171449,250.1297760,-250.1374054,-152.6641235
7310,5.4372044,4.7476778,-3.6750808,250.1297760,-250.1374054,-164.6488495
7320,7.8122401,6.0309634,-5.7723908,250.1297760,-250.1374054,-178.7938995
7330,10.2519188,6.6941538,-5.6622581,250.1297760,-250.1374054,-199.1603088
7340,11.8679972,6.4451580,-4.3741841,201.1832123,-250.1374054,-223.6564941
7350,12.3755655,5.6287394,-2.2337787,150.3358765,-250.1374054,-247.4961853
7360,12.0858688,4.6112089,-0.0885850,112.3358765,-250.1374054,-250.1374054
7370,11.4585905,3.9288650,1.3120158,86.8015289,-250.1374054,-250.1374054
7380,10.3548698,3.2345500,1.5011568,69.7175598,-250.1374054,-250.1374054
7390,8.8632889,2.8299320,0.7876883,54.0610695,-212.5419922,-250.1374054
7400,7.3381906,2.6503677,-0.7493813,35.5648842,-127.7175598,-250.1374054
7410,5.6502872,2.5953014,-2.5162930,13.6183205,-52.9312973,-250.1374054
7420,3.9432299,2.5522060,-4.3646073,-11.0916033,4.2595420,-250.1374054
7430,3.1411765,2.7461352,-5.3198891,-35.7328262,37.1145020,-250.1374054
7440,3.4404502,3.2944047,-5.8801293,-57.2977104,38.1832047,-250.1374054
7450,3.2848279,3.2369442,-5.4922705,-72.2824402,15.4503813,-250.1374054
7460,1.6879035,3.1196289,-5.1929970,-81.7557220,-26.1984730,-250.1374054
7470,0.1388630,3.1339941,-4.3526363,-90.9312973,-75.2290039,-250.1374054
7480,-0.4237715,3.2896163,-3.4715748,-102.2900772,-112.2137375,-250.1374054
7490,-0.7709290,3.7133877,-2.8442972,-117.2977066,-126.9236679,-250.1374054
7500,-1.5083394,3.8905578,-2.5378408,-137.7404633,-121.5496216,-234.5725250
7510,-2.6790979,3.8594334,-2.2002602,-161.7251892,-103.7862625,-212.6717529
7520,-3.4189026,4.0222383,-1.8459201,-186.3358765,-84.1450348,-189.5038147
7530,-3.6655040,4.0342093,-1.1587877,-209.6183167,-67.6717529,-168.7480927
7540,-3.9982965,3.8211265,-0.1987177,-228.6641235,-47.2595406,-149.7938995
7550,-4.3430595,3.6990228,0.1532281,-245.7862549,-26.3969460,-131.3129730
7560,-5.0206151,3.5984666,0.7182568,-250.1374054,-8.8473282,-114.2900772
7570,-6.2608056,3.3351059,1.5777708,-250.1374054,2.6641221,-94.4961853
7580,-7.1227136,3.2153964,2.4348907,-250.1374054,10.5801525,-72.7633591
7590,-7.3717093,3.1579359,3.0932927,-250.1374054,9.7862597,-49.3511467
7600,-7.1825686,2.8802099,3.2225790,-250.1374054,8.5801525,-28.6488552
7610,-7.0389171,2.5210814,3.5434003,-250.1374054,9.2213745,-8.3206110
7620,-6.2943239,2.0661855,3.8618276,-250.1374054,16.8778629,10.9847326
7630,-5.2145448,1.7525467,4.0605454,-250.1374054,30.1755733,25.4961834
7640,-4.7811961,1.3934183,4.1970143,-250.1374054,48.0000000,34.0839691
7650,-4.6112089,0.6823440,4.6447277,-250.1374054,62.9694672,39.3511467
7660,-5.0349803,-0.0359128,5.0924411,-250.1374054,72.7709961,43.8625946
7670,-5.6095858,-0.8619082,5.7292953,-250.1374054,75.4045792,48.9312973
7680,-5.0254035,-1.4820032,6.5816269,-250.1374054,80.3816757,56.5038185
7690,-3.7301471,-1.9249283,6.5074067,-250.1374054,98.6183243,61.0305328
7700,-2.4684093,-2.0230901,6.1291251,-250.1374054,122.2366409,56.7099228
7710,-2.6096666,-2.6096666,6.0070214,-250.1374054,137.9770966,43.7862587
7720,-3.8139439,-3.4452386,6.3661499,-250.1374054,124.4732819,30.7480907
7730,-5.4204450,-4.2018023,7.5464849,-250.1374054,86.2290039,23.2824421
7740,-6.3110833,-4.8793583,8.5688038,-250.1374054,39.8931313,23.0916023
7750,-6.6558466,-5.4563580,9.0380650,-250.1374054,4.9770994,28.0610695
7760,-7.1131368,-6.1841912,9.2846670,-250.1374054,-14.5190840,37.4732819
7770,-7.8337879,-7.0437055,9.6342182,-250.1374054,-18.9389305,51.7404594
7780,-8.4850073,-7.8792777,10.4865494,-250.1374054,-19.1908398,69.7786255
7790,-9.0404596,-8.9782104,11.2742386,-250.1374054,-18.0152664,90.1679382
7800,-9.7874460,-9.7970228,11.9063044,-250.1374054,-26.4656487,111.0305328
7810,-10.4386663,-10.6996326,12.8280668,-250.1374054,-45.8167953,134.5877838
7820,-10.4554253,-11.4753504,13.3356352,-250.1374054,-66.6335907,161.1221313
7830,-10.1944590,-12.1983957,13.3859129,-250.1374054,-79.7175598,190.2519073
7840,-9.3756456,-13.0267849,13.2973280,-250.1374054,-85.9770966,220.5954132
7850,-8.1163025,-13.3045111,13.2015610,-250.1374054,-83.2366409,247.2290039
7860,-7.2879128,-13.7594070,13.2973280,-250.1374054,-79.8015289,250.1297760
7870,-7.0724359,-14.1281118,13.9461536,-231.4122162,-87.1984711,250.1297760
7880,-6.4547348,-14.2382450,14.9277716,-206.1755676,-100.6183243,250.1297760
7890,-6.1315193,-14.2214851,15.8519287,-175.5190887,-114.6564865,250.1297760
7900,-5.7963328,-14.0275564,16.7138367,-140.1068726,-126.5572510,250.1297760
7910,-5.4228392,-13.7761660,17.2214050,-101.7022934,-140.4198456,250.1297760
7920,-5.3151007,-13.3212700,17.7146072,-61.4274826,-159.0763397,250.1297760
7930,-5.2193332,-13.0962162,17.9995155,-21.8091602,-175.2977142,250.1297760
7940,-4.3670015,-12.7322998,17.7289734,15.0000000,-182.6183167,250.1297760
7950,-3.3758070,-12.2271252,17.1232433,45.8244286,-181.1679382,250.1297760
7960,-2.2936335,-11.7794123,16.3954086,69.1908417,-179.7328186,250.1297760
7970,-1.4508789,-11.4442253,15.8279867,89.6412201,-182.3435059,250.1297760
7980,-0.5075682,-10.9989061,15.5670195,107.5725174,-189.3129730,250.1297760
7990,1.1180865,-10.3716288,15.3802729,128.5648804,-199.5343475,250.1297760
8000,2.1523764,-9.6677370,15.0690289,150.8549652,-211.7022858,250.1297760
8010,3.3853838,-8.6980906,14.5494890,175.7786255,-229.7633514,250.1297760
8020,4.3310885,-7.6614060,13.6995516,202.3740387,-250.1374054,250.1297760
8030,5.1235652,-6.4283986,12.5216112,228.0076294,-250.1374054,250.1297760
8040,6.0956063,-5.1379304,11.3245163,249.9923706,-250.1374054,246.1603088
8050,7.1083484,-3.8666160,10.0220766,250.1297760,-250.1374054,211.1374054
8060,8.1953106,-2.1571648,8.7340031,250.1297760,-250.1374054,171.9465637
8070,8.9231443,-0.6224893,7.7260494,250.1297760,-250.1374054,130.5114441
8080,10.0579901,0.6943150,7.1682034,250.1297760,-250.1374054,89.4122162
8090,11.0204544,1.6974803,6.8066807,250.1297760,-250.1374054,47.1221390
8100,11.6812506,2.4588325,6.1913738,250.1297760,-250.1374054,4.0458016
8110,11.7004042,2.7964132,5.4372044,250.1297760,-250.1374054,-38.1755714
8120,11.1138277,2.8921809,4.8841467,250.1297760,-250.1374054,-76.1297684
8130,10.5128860,2.8251436,4.4220681,244.6717529,-250.1374054,-108.3816757
8140,9.8688488,2.8371146,3.6080434,235.5419922,-250.1374054,-132.7099304
8150,9.6222477,2.9544299,3.0094962,223.8167877,-250.1374054,-152.6946564
8160,9.7491398,3.1315999,2.6695213,212.8015289,-250.1374054,-170.9313049
8170,9.8760319,3.4021432,2.1212518,199.7480927,-250.1374054,-188.4198456
8180,9.7467451,2.9807658,1.4365137,182.6488495,-250.1374054,-206.1603088
8190,9.5504217,2.9448531,1.6208663,166.4809113,-250.1374054,-218.2900696
8200,9.5743637,2.9424589,1.4796091,150.4045868,-250.1374054,-226.8244324
8210,9.6773138,2.8706331,1.2832855,134.5954132,-250.1374054,-235.5190887
8220,9.2296000,2.8155668,1.0366840,118.3587799,-250.1374054,-245.0458069
8230,8.3724804,2.7557120,0.4165890,100.3053436,-250.1374054,-250.1374054
8240,7.2089043,2.5761478,-0.2130829,86.3358765,-220.2519073,-250.1374054
8250,6.4499464,2.5186872,-0.6129125,70.6488571,-181.7175598,-250.1374054
8260,6.2631998,2.7820482,-1.0342898,56.5648842,-148.6183167,-250.1374054
8270,5.8513989,2.8945751,-1.5801650,44.1984749,-117.9770966,-250.1374054
8280,5.0780759,2.7940190,-2.2050486,32.0152664,-94.2748108,-250.1374054
8290,4.1682839,2.8131726,-2.8897867,18.6946564,-78.6030502,-250.1374054
8300,3.1770895,2.9328821,-3.2369442,5.5114503,-71.2442780,-250.1374054
8310,2.2960277,3.1315999,-3.1890604,-6.8473282,-69.2977066,-250.1374054
8320,1.8531027,3.2776453,-2.9807658,-18.6183205,-68.6717529,-250.1374054
8330,1.2066715,3.4931223,-3.2225790,-31.6946564,-69.7862625,-249.7786255
8340,0.2442073,3.6271970,-3.5960727,-47.6030540,-71.3511429,-243.8473358
8350,-0.8978211,3.5936785,-3.4260850,-66.7099228,-72.2290039,-234.0076294
8360,-1.7908537,3.7349355,-3.3590479,-87.5648880,-70.9236679,-221.5648804
8370,-2.4205256,3.7971845,-3.0190730,-108.4122162,-67.3893127,-209.0000000
8380,-3.1292057,3.7469065,-2.4324965,-128.3206177,-65.7404556,-195.0000000
8390,-3.4524212,3.6822634,-1.7549409,-145.3816833,-65.6793900,-179.8625946
8400,-3.4332676,3.8235207,-1.0534433,-159.1450348,-65.5877838,-166.4503784
8410,-4.1084290,3.7062054,-0.5267217,-171.4198456,-63.2061081,-151.9847260
8420,-4.5752959,3.6439564,0.0167593,-182.9465637,-63.1068687,-134.7175598
8430,-4.5082588,3.8091555,0.6631905,-193.5572510,-61.7404594,-117.9542007
8440,-4.6351509,3.8857694,1.3886299,-202.8091583,-56.8320618,-102.7862625
8450,-4.7500720,3.8259149,1.9201399,-210.9160309,-53.6488533,-87.5190811
8460,-4.2760224,3.7540891,2.5067163,-218.5877838,-48.9312973,-74.1450348
8470,-3.9073172,3.6702924,2.8538737,-226.7328186,-34.6870232,-62.6335869
8480,-3.8929520,3.5050933,3.0597742,-236.4656525,-17.9160309,-52.7251892
8490,-4.0437860,3.0190730,3.1723011,-248.4198456,-6.7633586,-44.2442741
8500,-4.2855992,2.6623387,3.6319854,-250.1374054,-1.2824427,-36.3053436
8510,-4.7189474,1.9392935,4.4579806,-250.1374054,-0.9694657,-28.5801525
8520,-5.3079181,0.9600700,5.7628140,-250.1374054,-3.3358779,-18.6564884
8530,-4.8961172,0.4548960,6.6534524,-250.1374054,3.2137403,-6.3053436
8540,-4.8506279,-0.1795642,7.6709828,-250.1374054,21.9312973,8.0152674
8550,-4.8793583,-0.6392486,8.4443064,-250.1374054,42.2519073,21.1526718
8560,-5.7388721,-0.9241571,9.6390066,-250.1374054,48.8549614,31.8244267
8570,-6.2584114,-0.9888002,10.5751352,-250.1374054,40.4503822,44.6259537
8580,-6.5121951,-0.6248835,10.7523050,-250.1374054,26.5648861,58.3587799
8590,-6.4643116,-0.0814024,10.2184010,-238.2061005,14.1450386,73.7633591
8600,-5.7963328,0.2920911,9.0165176,-234.2061005,7.8931298,90.9847336
8610,-4.5010762,0.6823440,8.3006544,-242.1450348,8.1145039,105.3816757
8620,-2.9328821,0.9983770,8.0468712,-250.1374054,14.8091602,112.1145020
8630,-1.6136837,1.2162483,7.8242111,-250.1374054,22.7862587,111.0992355
8640,-1.2401901,0.8978211,8.2695303,-250.1374054,24.4809170,103.0916061
8650,-2.0470319,0.3687052,9.2391768,-250.1374054,21.6259537,94.4122162
8660,-3.5960727,-0.4764437,10.0891142,-250.1374054,20.7557259,95.9236679
8670,-5.0517397,-1.3287752,10.8648319,-250.1374054,18.1755733,103.8167953
8680,-6.0405402,-2.4636209,12.1983957,-250.1374054,15.7175570,117.7328262
8690,-6.3374195,-3.5864959,13.4816809,-250.1374054,23.5954189,135.1450348
8700,-6.8737178,-4.9056940,14.5470953,-250.1374054,35.3969460,154.4198456
8710,-7.7906923,-6.3661499,15.7082767,-250.1374054,43.9083977,175.6717529
8720,-8.3413563,-7.8146343,16.7928448,-250.1374054,48.0992355,200.2061005
8730,-9.0476418,-9.1721401,17.9899387,-250.1374054,44.3282433,227.0229034
8740,-9.6509781,-10.3452930,19.6126022,-250.1374054,33.8931313,250.1297760
8750,-9.5767574,-10.9103212,19.6126022,-250.1374054,26.1221371,250.1297760
8760,-9.3924055,-11.4777441,19.6126022,-211.1297760,13.5954199,250.1297760
8770,-9.0260944,-11.6956158,19.6126022,-163.6793823,-5.8396945,250.1297760
8780,-8.0660238,-11.6070309,19.6126022,-117.7328262,-30.2442741,250.1297760
8790,-6.4906478,-11.7315283,19.5653172,-75.8625946,-59.1450386,250.1297760
8800,-4.3502421,-11.6381550,18.3586445,-41.4580154,-83.8167953,250.1297760
8810,-2.3702476,-11.2455082,17.4751892,-13.7480917,-99.2671738,250.1297760
8820,-1.0510491,-10.6373835,16.9724083,9.9541988,-107.7328262,250.1297760
8830,-0.2370248,-9.9167328,17.0394459,33.3282433,-118.2061081,250.1297760
8840,0.0215477,-9.3086090,17.2573185,60.6183205,-134.9923706,250.1297760
8850,0.2920911,-8.7507620,17.3794212,94.2900772,-157.1374054,250.1297760
8860,1.0606259,-7.9918046,17.2142220,132.2519073,-187.5572510,250.1297760
8870,1.7645177,-7.4674768,16.3666782,173.1526642,-221.7480927,250.1297760
8880,2.6312141,-7.0149751,15.1121235,214.3587799,-250.1374054,250.1297760
8890,3.7756367,-6.5337429,13.8862991,250.1297760,-250.1374054,250.1297760
8900,6.4499464,-5.3390427,13.8048964,250.1297760,-250.1374054,250.1297760
8910,8.2838955,-3.4548154,13.7282820,250.1297760,-250.1374054,216.3282471
8920,9.3756456,-2.2122312,13.0603037,250.1297760,-250.1374054,168.8778687
8930,10.7977943,-1.0390782,11.7291346,250.1297760,-250.1374054,118.0000000
8940,11.4298601,-0.0598547,7.6925306,250.1297760,-250.1374054,63.8320618
8950,9.6844959,1.1563935,0.5985473,250.1297760,-250.1374054,16.2442741
8960,7.9247670,3.0573800,-6.3469963,250.1297760,-250.1374054,-14.4580154
8970,8.3150196,4.5202298,-9.9765873,250.1297760,-250.1374054,-38.6641235
8980,9.3852224,5.0349803,-8.8608952,250.1297760,-250.1374054,-62.0534363
8990,10.3213511,5.2121506,-6.2129216,226.4580078,-250.1374054,-87.3358765
9000,10.3668404,5.2672167,-3.2153964,186.7862549,-250.1374054,-109.0305328
9010,10.0172882,5.1379304,-1.0271072,167.6717529,-250.1374054,-128.6106873
9020,9.6030941,4.8123207,-0.0742199,159.1221313,-250.1374054,-146.5343475
9030,9.2822723,4.7093706,-0.0550664,152.4198456,-250.1374054,-162.7480927
9040,8.9111729,4.5729017,-0.5650287,140.9847260,-250.1374054,-176.9770966
9050,9.2415714,4.4962878,-1.3886299,121.8702316,-250.1374054,-188.8396912
9060,9.7419567,4.7021880,-1.9345051,99.2290039,-250.1374054,-202.6488495
9070,9.7635050,4.6447277,-2.5019281,69.9542007,-250.1374054,-217.6335907
9080,9.6054878,4.4364328,-2.6048782,38.3740463,-219.4198456,-231.5419922
9090,9.1649570,4.3622131,-2.0135133,9.7022905,-181.8320618,-243.5572510
9100,8.1258793,4.2185616,-1.6208663,-13.3893127,-146.1145020,-250.1374054
9110,7.0460997,4.0581512,-1.3862357,-31.6335869,-116.6106873,-250.1374054
9120,5.6431046,4.0916696,-1.7381816,-48.6870232,-93.5038147,-250.1374054
9130,4.6902170,4.1323709,-1.5969244,-65.2748108,-76.5801544,-250.1374054
9140,3.8283088,4.5417776,-1.6160779,-80.5877838,-62.2137413,-244.4809113
9150,2.9256995,4.7404952,-1.4867916,-93.8091583,-52.8931313,-239.9389343
9160,1.8674678,4.7955613,-0.9983770,-102.9770966,-53.0305328,-234.8549652
9170,0.9361281,4.8218975,-0.7589580,-109.9770966,-59.5801544,-227.1603088
9180,0.3543400,4.8027439,-0.6200951,-115.9083939,-69.3358765,-219.9389343
9190,-0.7517755,4.7141590,-0.7134684,-122.0229034,-77.5038147,-211.5801544
9200,-1.0486550,4.7500720,-0.8427547,-132.3358765,-83.9160309,-201.1755676
9210,-1.5586174,4.8482337,-1.5825592,-148.2977142,-76.3282471,-189.7633514
9220,-2.8155668,4.7764082,-3.2967989,-173.7099304,-52.2748108,-172.3740387
9230,-4.6112089,4.3334827,-5.6119800,-214.4503784,-20.0687027,-149.5801544
9240,-5.8968887,3.5362179,-7.0748301,-250.1374054,7.8625956,-123.3664093
9250,-5.9064655,2.8227494,-6.1027889,-250.1374054,21.7938938,-99.6106873
9260,-4.7404952,1.9392935,-3.2944047,-250.1374054,27.9312973,-84.1221390
9270,-4.2855992,1.1635761,-0.3399749,-250.1374054,34.8473282,-74.6335907
9280,-4.5345950,0.4692611,1.9584470,-250.1374054,39.2366409,-65.4732819
9290,-4.2425036,0.0047884,4.1084290,-250.1374054,41.9236641,-55.7862587
9300,-4.3047528,-0.0167593,5.6885943,-250.1374054,45.1984749,-48.7480927
9310,-5.2121506,0.0143651,7.0269461,-250.1374054,43.8931313,-42.3664131
9320,-5.9567432,-0.0143651,7.9965930,-250.1374054,32.0687027,-31.7480907
9330,-6.2153158,0.1101327,8.8489246,-250.1374054,21.2824421,-17.5877857
9340,-5.7245069,0.3040621,9.2032642,-250.1374054,17.7251911,-3.5877862
9350,-5.2217274,0.1723816,9.2798786,-250.1374054,15.2595415,7.1603055
9360,-4.7740140,0.1508339,9.5456333,-250.1374054,7.0000000,15.9694653
9370,-3.9911139,0.2106887,9.6485834,-242.2366486,-3.5954199,22.6717548
9380,-3.2273674,0.2489957,9.3588867,-227.9007568,-10.0305347,25.9465656
9390,-2.5905130,0.2346306,8.9255381,-219.4351196,-12.0687027,27.9083977
9400,-2.6407909,0.0287303,8.4897957,-217.5801544,-11.6946564,29.0152664
9410,-2.9616125,0.0023942,8.0636301,-221.6793823,-9.9541988,32.2442741
9420,-3.2130022,-0.4046180,7.8649125,-230.6717529,-9.6564884,37.5648842
9430,-3.1675127,-0.7565638,8.4706421,-240.0458069,-14.4732828,44.6030540
9440,-2.6072724,-1.1324517,9.3277617,-245.5954132,-16.7633591,50.0687027
9450,-2.3558824,-1.2880739,9.6892843,-249.6793823,-10.6183205,53.2824440
9460,-2.7078283,-1.7477583,9.8233595,-250.1374054,0.1221374,56.0992355
9470,-3.3015873,-2.3247581,9.7730818,-250.1374054,8.5648851,60.5114517
9480,-3.6535332,-2.9879484,10.0579901,-250.1374054,11.0610685,66.5572510
9490,-3.8522508,-3.7277529,10.5631638,-250.1374054,11.1679392,72.7328262
9500,-4.1132174,-4.3574247,10.9653873,-250.1374054,11.1145039,78.7862625
9510,-4.6878228,-5.1020179,11.4346485,-250.1374054,8.8854961,86.4580154
9520,-5.2552457,-5.6143742,12.1265697,-250.1374054,4.1603055,95.1145020
9530,-5.4946647,-6.3350253,12.5551291,-250.1374054,2.0152671,107.0000000
9540,-5.9160423,-6.8713236,12.8424320,-250.1374054,0.8396947,120.9923630
9550,-6.4547348,-7.5943689,13.0052376,-250.1374054,-1.9160305,137.6183167
9560,-6.9455438,-8.4036045,13.6492739,-250.1374054,-8.8549614,157.0229034
9570,-7.4674768,-9.1888990,14.5614605,-241.2519073,-15.2977095,180.0152740
9580,-7.7260494,-10.0340481,15.8615055,-227.5648804,-16.9389305,206.7557220
9590,-7.7475972,-10.5679522,16.7976341,-208.5419922,-15.9312973,234.2290039
9600,-7.5105724,-11.1210098,17.6499653,-184.3816833,-19.1832066,250.1297760
9610,-6.9575148,-11.4298601,18.4065285,-154.4351196,-28.7099228,250.1297760
9620,-6.3924856,-11.8201132,18.6986198,-120.0534363,-38.2900772,250.1297760
9630,-5.6526814,-11.9326401,19.0625362,-83.9694672,-51.2290077,250.1297760
9640,-5.0852585,-11.8488436,19.2373123,-46.3511467,-67.0763321,250.1297760
9650,-4.7716198,-12.1050215,19.1990051,-8.0992365,-79.1908417,250.1297760
9660,-4.0964580,-12.3947191,18.6291885,26.4503822,-80.7404556,250.1297760
9670,-3.8115497,-12.4665442,17.6667233,58.4198456,-74.1908417,250.1297760
9680,-4.3023586,-12.6580801,16.5366669,81.7709961,-73.9236679,250.1297760
9690,-4.0749106,-12.8879223,16.2373924,103.7938919,-86.0687027,250.1297760
9700,-3.0789278,-13.0507269,16.1727505,126.0076370,-99.7404556,250.1297760
9710,-2.8083842,-13.7594070,15.4209747,159.6717529,-135.5038147,250.1297760
9720,-1.7573351,-13.8910875,13.7618008,197.8244324,-190.1221313,250.1297760
9730,-0.1699875,-13.0363617,11.1736822,229.3893127,-243.8549652,250.1297760
9740,1.9009864,-11.7506819,8.9925756,250.1297760,-250.1374054,250.1297760
9750,4.5561423,-9.4331064,7.6614060,250.1297760,-250.1374054,250.1297760
9760,8.0325060,-6.2703824,7.0484939,250.1297760,-250.1374054,250.1297760
9770,11.5830889,-2.5809362,6.8761120,250.1297760,-250.1374054,250.1297760
9780,14.0730457,0.4429250,6.2440462,250.1297760,-250.1374054,223.7938995
9790,15.1360655,3.0047078,6.6917596,250.1297760,-250.1374054,153.0686951
9800,16.0602226,4.7572546,5.0684991,250.1297760,-250.1374054,74.9389343
9810,15.3084478,5.5329719,2.6599445,250.1297760,-250.1374054,0.8702290
9820,13.9030581,6.3254485,0.4453192,250.1297760,-250.1374054,-60.1450386
9830,12.3372583,6.0501165,-0.2059003,250.1297760,-250.1374054,-107.7862625
9840,11.0036945,5.3055239,-0.2154770,221.6870270,-250.1374054,-140.4885559
9850,10.1369982,4.8697815,0.7182568,189.9770966,-250.1374054,-158.3740387
9860,9.7443514,4.4316444,2.0613971,164.3893127,-250.1374054,-168.8015289
9870,9.6797075,3.9288650,3.7014170,148.5190887,-250.1374054,-175.4885559
9880,9.7419567,3.8546450,5.2145448,144.3358765,-250.1374054,-180.6412201
9890,9.8209648,4.0150557,5.5162125,147.3893127,-250.1374054,-186.2366486
9900,10.0555954,4.0485744,4.9032998,150.5572510,-250.1374054,-194.8091583
9910,10.0843258,4.1275826,3.5984666,147.7709961,-250.1374054,-204.8091583
9920,9.6366129,4.2448978,1.6232605,136.6183167,-250.1374054,-215.7557220
9930,9.0667953,4.3023586,-0.1316804,119.1984711,-211.0229034,-226.6335907
9940,8.1665802,4.4962878,-1.3168042,96.9847336,-176.0000000,-235.6488495
9950,7.6422529,4.6806402,-1.9776005,73.5419846,-148.5419922,-242.1068726
9960,7.4243813,4.7165532,-2.6431851,52.9083977,-130.2137451,-247.7175598
9970,7.0676475,4.8482337,-2.8634505,35.1526718,-126.4045792,-250.1374054
9980,6.1075773,4.5345950,-2.7772598,20.9541988,-134.0381622,-250.1374054
9990,4.8075323,4.2377152,-2.1811066,10.9083967,-150.0000000,-250.1374054
