timestamp,acclX,acclY,acclZ,gyroX,gyroY,gyroZ
0,0.9696468,5.0876527,4.0581512,2.5343511,55.0687027,19.4961834
10,1.0127422,5.2456689,4.4388270,-16.0229015,50.5190849,18.2290077
20,0.9840119,5.4084740,5.0134325,-22.7938938,43.8625946,16.1526718
30,1.0845678,5.4874821,5.5569139,-26.8167934,34.5572510,13.2748089
40,0.9169745,5.6407104,6.5457139,-25.7480907,9.7633591,6.6793895
50,1.1947005,5.5976148,6.7204900,-25.0687027,-10.0839691,2.4885497
60,1.1587877,5.5329719,6.9623032,-28.5114498,-14.6793890,0.9083970
70,1.2306134,5.5521255,7.3860745,-31.2977104,-15.2519083,0.4809160
80,1.3120158,5.4539638,7.6039457,-34.1679382,-14.5648851,-0.0076336
90,1.1947005,5.2241216,7.9056134,-37.5190849,-11.4351149,1.0000000
100,1.6735384,4.9416070,8.7363977,-44.2595406,2.9083970,2.0458016
110,1.6136837,5.0230093,8.7842808,-46.3893127,7.6412215,0.2977099
120,1.4939742,4.8266859,9.0524302,-46.2137413,10.9465647,-2.0152671
130,1.3479286,4.5944495,9.1529865,-43.4274826,11.5572519,-3.7938931
140,0.4189832,4.1299767,9.2128410,-32.9618340,-3.5801528,-2.9007633
150,0.3615226,4.2496862,9.2583303,-28.1526718,-10.1679392,-0.3282443
160,0.7302278,4.4340386,9.0979195,-25.4732819,-14.8549614,1.5648855
170,1.1635761,4.6902170,9.0380650,-24.6946564,-14.5572519,1.7404580
180,1.4053892,4.6207857,8.7531567,-27.0610695,-12.0992365,0.5343512
190,1.6543850,4.6231799,8.7435799,-31.7328243,-8.2824430,-1.3816794
200,1.4867916,4.6662750,8.9039907,-36.1450386,-5.0076337,-3.9083970
210,1.4484847,4.6710634,9.2894554,-38.1221390,-3.3969467,-5.7938933
220,1.2545552,4.4053087,9.3708572,-37.7557259,-2.3664122,-6.7175574
230,1.1276633,4.3095412,9.4378948,-37.4732819,-3.1679389,-6.7251906
240,0.9864060,4.4507980,9.4905672,-37.7557259,-5.0534353,-7.2137403
250,0.9385223,4.5824785,9.7012558,-37.1221390,-8.2824430,-7.6335878
260,1.1994889,4.7333126,9.3971939,-37.9007645,-10.3969469,-8.9312973
270,1.4293311,4.8769641,9.3540983,-40.8854980,-10.0839691,-11.7022905
280,1.6902977,5.1163831,9.6988611,-43.1832047,-9.0229006,-15.5877867
290,1.7597293,5.2049680,9.8880024,-43.5419846,-9.8015270,-20.7175579
300,1.4221486,5.2241216,10.1800938,-43.1526718,-11.5801525,-24.2213745
310,1.0031654,5.4467812,10.6062593,-40.7328262,-15.9083967,-25.7480907
320,0.6033357,5.6454988,10.8744087,-36.9694672,-20.4122143,-25.3358784
330,0.0766141,6.0189924,11.3101511,-30.9847336,-26.0076332,-21.9541988
340,-0.2609667,6.7659793,11.5663290,-23.2213745,-36.2519073,-15.9236641
350,-0.3351865,7.5895805,11.7147694,-14.6564884,-46.0152664,-8.5954199
360,-0.1053443,8.2958660,11.5471754,-6.5190840,-57.8091621,-1.0229008
370,0.2777260,9.2487535,11.5711174,-1.4427481,-66.8778610,5.4809160
380,0.9169745,10.0268650,11.4298601,3.4885497,-71.9007645,10.0458012
390,1.8100072,10.8839855,11.1976242,4.9236641,-72.6030502,11.5343513
400,2.6000898,11.5759058,11.1521349,2.9083970,-66.4503784,10.7404585
410,2.8371146,12.1792421,11.4609852,-0.2824427,-53.5419846,7.0000000
420,2.5737536,12.4497852,11.7387114,-2.5954199,-39.7328262,2.9389312
430,1.5562232,12.3803539,11.7722292,-2.0916030,-29.0839691,3.2671757
440,0.5674229,12.6844158,11.2694502,0.2595420,-28.0152664,7.1832061
450,-0.0454896,12.7299051,10.4195127,-0.4580153,-35.8931313,12.8778629
460,-0.3208214,12.8615856,9.9023676,-3.8702290,-46.4656487,19.1679382
470,-0.1939293,13.0579090,9.9310980,-4.9007635,-59.5648842,23.6564884
480,0.0718257,13.3308468,9.8473015,-4.5877862,-74.1450348,24.6259537
490,0.2585725,13.2207146,9.3564920,-4.0916033,-87.0763321,23.7175579
500,0.2250538,12.8472204,8.9542685,-4.7862597,-101.7328262,22.2824421
510,0.0742199,12.4426022,8.5711985,-2.9160306,-119.2671738,20.3511448
520,-0.2585725,11.9853125,8.1139078,0.0381679,-139.1450348,20.2366409
530,0.0837966,11.3436699,6.8617468,2.7862597,-160.8854980,22.3587780
540,0.7230452,10.2950144,4.4292507,0.2137405,-180.3206177,24.7328243
550,1.7142396,8.6142941,2.2074428,-12.5190840,-188.5954132,27.3893127
560,2.3726418,6.5552907,0.8954269,-33.3129768,-183.4198456,29.9007626
570,3.0908985,4.2760224,0.0047884,-55.6106873,-164.8778687,33.2671738
580,4.0006905,1.4460905,-0.8834559,-79.4045792,-132.9465637,37.0076332
590,5.2911587,-1.6017127,-1.8076130,-107.9312973,-85.0229034,38.0228996
600,6.9192076,-5.5664907,-2.6288199,-139.4274750,-32.6335869,32.4045792
610,9.2367830,-10.1465750,-1.9512644,-164.7328186,2.4045801,16.5190830
620,12.0188313,-15.0139618,-0.4740495,-174.1221313,16.9618320,-13.0992365
630,14.4082317,-19.6131992,0.9433106,-167.8473358,11.0687027,-54.2748108
640,15.1432486,-19.6131992,1.2928623,-156.8320618,-24.0610695,-96.8167953
650,13.9198179,-19.6131992,1.2497669,-156.4809113,-86.8091583,-125.7633591
660,12.3300753,-19.6131992,1.9536586,-176.0534363,-161.5038147,-136.7633514
670,12.0523500,-19.6131992,4.4077029,-213.7862549,-205.7862549,-140.6030579
680,13.3284531,-18.0665531,8.2312231,-250.1374054,-186.9313049,-164.3053436
690,11.8656025,-15.1456423,12.4449968,-250.1374054,-100.7328262,-209.1832123
700,5.7580256,-15.3276005,19.6126022,-250.1374054,-2.7175572,-235.4885559
710,-2.3247581,-16.4959660,19.6126022,-250.1374054,81.1984711,-214.2519073
720,-7.0844064,-14.6835642,19.6126022,-151.2977142,137.6488495,-150.5572510
730,-8.5209198,-12.5192165,19.6126022,8.7404585,182.7022858,-71.7251892
740,-7.2974896,-12.4904861,19.6126022,152.2824402,181.8091583,2.7709923
750,-4.0653338,-13.4409800,15.3826675,245.6412201,140.1908417,62.8854980
760,0.6033357,-13.7354650,4.4651632,250.1297760,88.7557220,107.2366409
770,5.8011212,-12.9549589,-2.5354466,250.1297760,49.7251892,132.6717529
780,9.6701307,-11.5998478,-4.9870968,225.4656525,46.3358765,140.3511505
790,12.2007895,-9.9382801,-3.9504125,178.4045868,76.0916061,139.8473358
800,12.7490587,-8.3413563,-1.3718705,145.1984711,120.7709961,134.5267181
810,12.2965574,-7.3118544,0.7805058,128.1145020,156.5190887,127.7251892
820,10.7594872,-6.4355812,2.3486998,123.9923630,174.2977142,122.7633591
830,9.5576038,-5.0732875,3.3039815,127.7099228,174.8244324,119.2137375
840,8.4467001,-3.7923961,3.6367738,132.2137451,168.1603088,115.5877838
850,7.7140784,-2.2888451,3.0478032,130.8549652,161.0992432,112.6106873
860,7.0915890,-0.8882443,2.6024840,121.1068726,153.4351196,108.3664093
870,6.3661499,0.2082945,2.7485294,105.7786255,144.7786255,103.9618301
880,6.0764527,0.9265513,3.2010312,88.6030502,134.4885559,100.0152664
890,5.8202744,1.8602852,4.0150557,70.7404556,125.8396912,94.6259537
900,5.4850879,2.8586621,4.9440012,54.1755714,118.6793900,87.4045792
910,4.7620430,3.7636659,6.1530671,42.1984749,106.4961853,79.4351120
920,4.0366035,5.9519548,9.2511482,45.9312973,-9.0763359,5.9847326
930,3.8354914,5.6933827,9.3133974,48.3282433,-32.5572510,-15.6106873
940,3.6104376,4.7764082,9.1984758,47.1068687,-58.4732819,-36.7022896
950,3.1555417,4.5202298,9.6533718,40.9007645,-76.7557220,-56.2213745
960,2.1763182,4.4436154,10.9175043,33.0839691,-82.3893127,-70.7404556
970,0.4309541,4.8051381,12.9405937,32.1679382,-80.6717529,-78.2977066
980,-1.3790531,5.9495606,14.5662489,46.3511467,-79.7404556,-77.3435135
990,-2.0087249,7.0173693,14.1305065,71.0534363,-80.0534363,-68.5954208
1000,-1.8171898,8.2503767,11.5926657,91.6412201,-66.7404556,-56.2366409
1010,-1.1276633,9.7898407,7.4866304,91.1832047,-32.7633591,-40.1984749
1020,-0.1843526,11.0108776,2.9041519,61.7099228,21.0687027,-22.5648861
1030,0.0000000,12.0595322,-0.4812321,9.5267172,83.3206100,-3.6564887
1040,-0.4836263,12.4904861,-1.8554969,-52.3587799,131.6870270,16.8931293
1050,-1.0414724,12.2007895,-0.7326220,-106.4732819,146.4122162,33.7022896
1060,-1.3168042,11.7602587,2.4013720,-141.4732819,123.0381699,44.0076332
1070,-0.9504932,11.1473465,5.9543490,-156.2137451,80.9083939,50.0076332
1080,-0.3591284,10.1872759,9.5552101,-149.9389343,42.5038185,55.0152664
1090,0.5171449,9.6222477,12.3899307,-127.2061081,12.6412210,58.5954208
1100,1.5274929,9.0883436,13.9437590,-95.0687027,-0.9770992,59.7862587
1110,2.3367288,8.7004843,13.9820662,-61.5877876,-4.6564884,58.7480927
1120,3.0071020,8.5233145,12.8113079,-33.6717567,-1.1221374,55.3664131
1130,3.4189026,8.5448618,11.2215662,-17.9541988,2.5190840,50.7557259
1140,4.2640514,8.4395180,9.1242561,-22.2900772,10.8778629,39.1603050
1150,4.2879934,7.8529415,8.9877872,-31.8778629,14.2748089,30.5725193
1160,3.9695661,7.0628591,9.8113880,-39.7251892,11.6946564,23.8015270
1170,3.8043671,6.4116392,10.9342632,-41.1526718,6.6412215,18.5038166
1180,3.9791429,5.8154860,11.8632088,-36.0152664,-0.7557252,11.4503813
1190,3.8905578,5.4659348,12.6915979,-25.1755733,-11.9618320,1.4656489
1200,3.6559272,5.2384863,13.3236647,-8.7862597,-25.0610695,-9.4732828
1210,3.4260850,5.1235652,13.1848011,9.7251911,-35.0381660,-18.1221371
1220,3.1411765,5.2887645,12.1600885,25.7786255,-38.6259537,-23.9160309
1230,2.9400647,5.8466105,10.9007444,34.0458031,-38.1068687,-26.6793900
1240,2.9664006,6.5744443,9.7970228,34.9007645,-30.4656487,-28.6870232
1250,2.8251436,7.1466556,8.6765423,29.8702297,-19.5648861,-30.3206100
1260,2.3151813,7.6422529,7.6614060,18.2977104,-13.1908398,-31.8167934
1270,1.4843974,8.1163025,7.6422529,1.7633588,-13.9923668,-29.6488552
1280,1.1228749,8.5304966,8.6933022,-12.5190840,-16.8625946,-23.7633591
1290,1.0055596,8.7723103,10.1441803,-20.7862587,-17.6412220,-16.0458012
1300,0.8906385,9.1458035,11.2502966,-24.2824421,-14.2213745,-7.4122138
1310,1.2641320,9.7898407,12.4186611,-25.0076332,-5.2137403,0.8702290
1320,1.5059452,10.3907824,13.3045111,-22.3053436,5.1603055,5.4122138
1330,1.4365137,10.9893293,13.4888630,-16.8854961,9.9312973,8.1755724
1340,1.4652439,11.5639353,12.8974981,-13.3282442,10.4656487,9.9694653
1350,1.6160779,12.1816359,12.1145983,-14.9465647,4.9770994,10.2671757
1360,1.8746504,12.6796274,11.7219515,-23.1908398,2.3587787,9.8167934
1370,1.7932479,12.9286232,11.7004042,-36.4580154,9.3282442,10.2366409
1380,1.5801650,13.0148134,12.2702208,-50.3893127,19.5267181,10.5190840
1390,1.1731528,12.5742826,13.1345234,-57.5954208,26.5038166,9.0534353
1400,0.7110743,11.5567522,13.8384151,-53.8702278,22.7786255,9.6259546
1410,0.4620786,10.4602137,13.8503857,-38.9465637,7.6335878,12.7709923
1420,0.2226596,9.3157911,13.2015610,-15.9618320,-20.1679382,15.9389315
1430,0.2154770,7.7260494,12.0331964,12.8091602,-60.3206100,19.5496178
1440,0.5075682,5.7316895,9.6246414,44.6870232,-108.8854980,21.7480907
1450,0.9433106,3.7349355,6.7085190,71.6030502,-157.9694672,23.4961834
1460,2.1068866,1.2330076,4.0102673,91.2977066,-201.3053436,26.0839691
1470,3.4356618,-1.2521610,1.1707586,100.3893127,-216.5190887,29.5954189
1480,5.4994531,-4.5178356,-2.0183017,89.2290039,-197.0534363,32.5038185
1490,7.7021074,-7.8744893,-4.1706781,59.2748108,-153.8167877,31.6793900
1500,10.4243011,-11.4442253,-5.3869262,11.7786255,-92.7251892,19.4351139
1510,12.9046812,-14.6931410,-5.3749552,-44.5038185,-38.4656487,-8.5877867
1520,13.2733860,-18.2532997,-6.5768385,-105.7404556,6.2213740,-53.8854980
1530,11.6740675,-19.6131992,-5.6311336,-170.9847260,13.8549614,-99.2900772
1540,8.7268209,-19.6131992,-1.8842272,-222.0305328,-34.8854980,-131.9084015
1550,6.4738884,-19.6131992,3.3949606,-245.9084015,-124.4580154,-149.1374054
1560,5.2313042,-19.6131992,8.9231443,-248.1450348,-216.7251892,-155.4045868
1570,4.3933377,-18.3227310,13.6660337,-232.7938995,-250.1374054,-159.7557220
1580,3.2537034,-15.9405136,18.5429974,-203.6717529,-250.1374054,-161.6564941
1590,1.9464760,-14.1496601,19.6126022,-159.4122162,-250.1374054,-157.4122162
1600,0.5889706,-12.9310169,19.6126022,-96.9007645,-246.2137451,-140.2061005
1610,-0.1963235,-12.1289635,19.6126022,-18.8396950,-194.3587799,-111.3129807
1620,0.5961532,-11.3747940,19.6126022,73.1145020,-128.9236603,-77.2824402
1630,2.3678534,-10.8265247,19.6126022,157.9160309,-55.7480927,-45.9007645
1640,4.5345950,-10.7523050,17.4392757,218.0915985,15.3587790,-19.4809170
1650,5.8968887,-11.0898857,11.6213961,248.4580078,75.9465637,2.6183207
1660,6.6390872,-10.7977943,5.9256191,250.1297760,119.4885483,25.0000000
1670,7.0676475,-9.9717989,1.3527170,239.8167877,143.6030579,46.6870232
1680,7.4243813,-8.7555504,-1.4987626,211.4274750,153.5496216,64.5267181
1690,7.6901364,-6.6558466,-2.5115047,177.0152740,156.7633514,76.0610657
1700,8.0396881,-4.9463954,-1.2808913,148.6641235,154.1526642,81.8015289
1710,8.7938576,-3.5553713,0.6871324,132.2442780,150.2595367,82.9160309
1720,9.6030941,-1.9919657,1.5274929,120.6641235,150.5801544,78.3511429
1730,10.1178446,-0.4955972,2.0877333,107.5038147,158.1908417,68.2137375
1740,9.1865053,1.2282192,2.8059900,94.0152664,170.9541931,57.1068687
1750,7.9127960,2.6958573,3.2034254,81.6412201,177.7022858,49.0992355
1760,6.8976598,3.1172347,3.4308734,69.5267181,177.5801544,44.6641235
1770,5.7005649,3.5362179,3.7181761,56.6488533,174.7099304,45.6641235
1780,4.8051381,4.5417776,4.3047528,44.2061081,166.2900696,50.3206100
1790,4.8937230,5.0756817,5.1834202,35.2290077,146.9465637,53.3969460
1800,4.9583664,5.5377603,5.8968887,29.4198475,122.8931274,52.4656487
1810,5.2648225,6.2201042,6.7300668,27.8931293,100.9618301,47.7938919
1820,4.7357068,7.6709828,7.4698710,24.8549614,41.5954208,4.4885497
1830,3.8283088,7.1131368,6.8162575,19.4198475,21.7251911,-13.3511448
1840,3.5098817,6.8976598,6.9503322,14.5954199,12.7480917,-21.8702297
1850,2.2409613,6.8928714,7.1993275,6.2442746,1.3282443,-29.1832066
1860,1.3048333,7.3070664,6.8569584,-10.8702288,4.9541984,-31.4580154
1870,0.7134684,7.3812861,7.4698710,-18.0152664,3.3664122,-29.3129768
1880,0.3232156,6.8928714,8.1593981,-19.6793900,-9.4656487,-25.7938938
1890,0.5075682,6.4738884,8.9494801,-17.6870232,-26.8854961,-20.5343513
1900,1.2713146,6.4451580,9.5216913,-11.3893127,-40.7633591,-16.3511448
1910,2.1164634,6.3134775,9.7539282,-4.5114503,-52.0076332,-15.9236641
1920,2.6695213,6.2727766,9.8113880,1.2213740,-58.0305328,-17.0916023
1930,2.5522060,6.5289545,9.7539282,5.6259542,-57.9694672,-18.0992374
1940,2.3870070,6.7396431,9.6390066,10.2137403,-55.3816795,-17.3740463
1950,2.4324965,6.7324610,9.2104464,12.9389315,-50.1755714,-14.8015270
1960,2.7221935,6.7324610,8.4155760,11.4503813,-42.6946564,-11.3816795
1970,3.4332676,6.7683735,7.1705976,-7.3435116,-16.6106873,-7.6183205
1980,3.4811516,6.6462698,6.9790621,-23.0992374,-1.7633588,-6.0381680
1990,3.5362179,6.7683735,7.2328463,-39.2824440,13.3664122,-3.1908398
2000,3.5625539,6.9263902,8.1067257,-51.1526718,25.0687027,-0.0992366
2010,3.5601597,7.1131368,10.0412302,-52.4885483,29.0000000,4.4351144
2020,3.6990228,7.2017217,10.6996326,-42.4961815,15.7709923,3.3129771
2030,3.9384418,7.4028339,11.1353750,-27.9160309,-9.7099237,-0.4427481
2040,4.1443419,7.6494355,11.2909975,-12.1297712,-39.7251892,-4.8931298
2050,4.5322008,7.9654684,11.1090393,-1.6259542,-59.8625946,-8.4045801
2060,4.8865409,8.3461447,10.6278067,-0.0229008,-60.5572510,-9.1450386
2070,4.8697815,8.8154058,10.1202393,-6.5954199,-41.3969460,-6.3664122
2080,4.6399393,8.9590569,10.1250277,-35.4274826,25.4656487,12.3358774
2090,4.6710634,8.8441362,10.6996326,-49.1984749,55.0839691,23.4503822
2100,4.9296360,8.7914639,11.0276365,-59.3893127,75.1908417,32.1145020
2110,5.5617023,8.9159613,11.2239599,-65.4503784,81.4656525,33.8091621
2120,6.2895355,8.9662399,11.7746239,-65.9465637,69.0916061,26.0992374
2130,6.5983863,9.1314383,12.5479469,-57.4580154,34.5190849,9.8244276
2140,6.6295104,9.2846670,13.5271702,-40.4656487,-13.8854961,-11.1297712
2150,6.5145893,9.3828287,14.2789459,-19.6335869,-60.1145020,-31.2977104
2160,6.3469963,9.6677370,14.1544485,-2.1221373,-88.8244247,-46.4961815
2170,6.0453281,10.0101061,13.4888630,5.0687022,-88.9694672,-54.8244286
2180,5.5569139,10.3620520,12.5240049,0.8320611,-60.5954208,-56.5114517
2190,4.6950054,10.7211800,11.5184450,-14.7709923,-5.6412215,-52.5190849
2200,3.5553713,10.5655584,10.1848822,-39.7480927,57.8320618,-41.6564903
2210,2.3654592,10.2543135,9.0021524,-72.0076370,117.3282471,-26.6793900
2220,1.2425843,9.8401184,8.1713686,-108.1526718,157.8396912,-11.2519083
2230,0.0239419,9.0931320,9.0117292,-142.1297760,182.5190887,3.3511450
2240,-0.8547257,8.5257082,11.9374285,-161.7938995,192.3587799,13.7099237
2250,-2.1068866,7.6183109,14.6907463,-162.5496216,201.0152740,25.5801525
2260,-2.9999194,6.5457139,16.5510311,-146.6870270,205.9541931,43.3206100
2270,-3.2728570,6.3230543,17.0083218,-115.9236679,200.7099304,59.4045792
2280,-3.0118904,6.3039007,15.5167418,-78.3129807,175.2519073,68.2213745
2290,-2.5809362,6.6247220,12.9501705,-43.6793900,121.9618301,65.6412201
2300,-1.4963684,6.9263902,11.1617117,-13.0916033,43.2977104,51.9312973
2310,-0.1963235,7.0437055,10.7139978,21.4656487,-45.6412201,28.4732819
2320,0.6224893,7.1825686,9.8377247,56.6412201,-111.3511429,3.8854961
2330,0.2561783,6.5912037,7.4626884,79.6488571,-144.4656525,-9.8015270
2340,-0.2442073,5.8585815,4.6471219,86.5954208,-151.8549652,-9.9618320
2350,-0.3351865,4.7237358,1.6136837,78.8702316,-136.1297760,1.4427481
2360,0.0143651,3.3087699,-1.2521610,53.9083977,-99.3511429,19.0305347
2370,0.6296718,0.9217629,-3.4572096,13.6335878,-52.0534363,41.4427490
2380,2.1835008,-1.5227045,-4.6926112,-32.5419846,-11.9160309,60.6030540
2390,4.4196739,-4.6183915,-4.3622131,-72.8320618,13.4885492,64.6183243
2400,7.3501616,-6.9287844,-2.4205256,-96.5114517,25.5496178,49.3511467
2410,10.5176744,-9.9239149,-0.7421987,-101.8320618,24.4885502,14.1908398
2420,12.9908724,-12.7179346,0.2130829,-96.4580154,4.2366414,-40.6259537
2430,14.0730457,-15.0426922,0.6751614,-90.5954208,-34.5648842,-104.8091583
2440,13.8623571,-16.9293137,1.1803354,-92.4274826,-87.3053436,-165.7862549
2450,12.3133163,-17.6403885,2.0087249,-102.3816757,-139.4656525,-215.9541931
2460,9.8760319,-17.4033623,3.5050933,-122.2061081,-177.1297760,-245.8549652
2470,8.3629036,-16.7784805,5.9663200,-147.1374054,-189.0839691,-250.1374054
2480,6.4331870,-15.4497042,8.8393478,-167.3893127,-167.2137451,-250.1374054
2490,2.9185169,-14.6883526,11.4418316,-179.0305328,-125.1221390,-250.1374054
2500,-1.6783268,-15.1647959,15.0809994,-169.5801544,-99.7557220,-250.1374054
2510,-6.0788469,-15.4281569,19.6126022,-125.0916061,-109.5648880,-243.6259613
2520,-8.4730368,-14.4369621,19.6126022,-47.9083977,-115.9847336,-188.0152740
2530,-9.1194677,-13.2662039,19.6126022,43.5954208,-98.5725174,-122.6183243
2540,-8.3437500,-13.1871958,19.6126022,130.0763397,-59.0610695,-49.9312973
2550,-5.5257893,-14.2430334,19.1726685,191.8549652,0.4503817,23.7633591
2560,-1.2449785,-15.4066095,12.6628675,214.2213745,85.1145020,95.2824402
2570,3.1411765,-15.8806591,7.0939832,194.6946564,191.0000000,157.4274750
2580,6.5720501,-16.0147324,3.1387823,146.1526642,250.1297760,207.1145020
2590,8.0899658,-15.5215302,1.7166338,91.8854980,250.1297760,244.6335907
2600,8.0540533,-14.2023315,2.3846128,56.7786255,250.1297760,250.1297760
2610,7.9822278,-12.1145983,3.3183465,46.4961815,250.1297760,250.1297760
2620,8.1402445,-9.7012558,3.9815371,53.4351158,250.1297760,250.1297760
2630,8.6693602,-6.7899213,4.5752959,70.9618301,250.1297760,250.1297760
2640,9.6006994,-4.3310885,5.0684991,93.4045792,200.1068726,236.5343475
2650,11.4035244,-2.4899571,5.1570840,114.9694672,136.2900696,195.1603088
2660,12.0523500,-0.7829000,4.9847026,132.0305328,93.0763321,144.5419922
2670,10.2160063,0.7326220,4.3693957,141.4656525,64.3816757,95.3969498
2680,8.1593981,1.6495966,3.8354914,141.9465637,44.6870232,62.2519073
2690,5.9926562,2.5354466,3.3207407,133.8167877,38.2748108,42.0687027
2700,3.4045374,4.1515245,2.8993635,117.1526718,38.6717567,31.9694653
2710,1.2521610,10.6086531,4.6973996,36.5877876,42.1679382,15.2748089
2720,1.1899122,11.5974541,5.2097564,12.7099237,67.9923630,10.3053436
2730,0.4548960,12.8496151,5.4874821,-14.6259546,102.8091583,8.5343513
2740,-0.9935886,13.2877512,6.2799587,-43.6793900,140.0381622,9.5572519
2750,-3.0094962,13.9892492,8.1857338,-61.4809151,165.5877838,15.6793890
2760,-4.6351509,14.0467091,9.6916790,-65.3587799,180.2366486,26.5801525
2770,-5.3629842,13.6660337,10.2591019,-61.2824440,186.5954132,41.9541969
2780,-5.6143742,12.9717188,10.1705170,-58.9160309,192.4732819,61.3587799
2790,-5.5928264,12.6532917,10.1537571,-61.4885483,200.9160309,82.2900772
2800,-5.2815819,12.2390966,10.4027529,-66.4351120,210.0610657,102.5190811
2810,-4.7189474,11.7315283,10.9797525,-73.3587799,220.3435059,120.6946564
2820,-4.6830344,11.2167778,11.4777441,-82.2671738,229.9084015,134.7709961
2830,-4.6112089,10.1322098,12.4761209,-88.9083939,224.2366486,144.4503784
2840,-4.4268565,9.0069408,14.5638542,-84.8091583,193.7251892,147.3358765
2850,-4.5250182,7.6470413,16.6659527,-62.6564903,135.1297760,143.6183167
2860,-4.1802549,6.2655940,17.7577038,-24.6335869,58.9389305,135.6335907
2870,-2.9089401,5.7245069,17.3243542,21.6641216,-18.4122143,120.9923630
2880,-2.1284344,6.1051831,15.0642405,60.1450386,-87.1374054,100.4045792
2890,-1.6831152,6.1410961,11.8368731,76.0992355,-134.0610657,79.8015289
2900,-1.7764885,5.9495606,9.2966375,68.8396912,-160.3206177,65.3129807
2910,-1.8578910,5.3127065,8.5041609,49.1832047,-168.4656525,61.1068687
2920,-1.2569494,4.6758518,8.9231443,26.6183205,-157.9007568,63.9083977
2930,-0.2322364,4.4460096,9.8473015,8.4351149,-133.3358765,67.0763321
2940,0.6344602,4.4196739,10.9103212,-2.1221373,-100.1908417,65.9618301
2950,1.1707586,4.3215117,11.8416615,-2.7709923,-69.4503784,61.6641235
2960,1.5442522,4.3933377,11.8943329,4.2595420,-45.1297722,55.1068687
2970,2.4181314,4.9176650,10.4123297,9.3740454,-27.6259537,43.3053436
2980,3.6942344,5.7556314,6.7803445,-11.1450386,-1.2519084,-0.9312977
2990,3.3973548,5.7747850,6.2416520,-26.9007626,-6.3893127,-29.0839691
3000,3.3662305,5.8537931,5.9447722,-40.7862587,-25.1832066,-57.8396950
3010,3.2297616,5.7388721,5.8825235,-55.7404594,-41.7404594,-85.2824402
3020,2.5689652,5.4300218,6.4619174,-70.6641235,-53.6717567,-108.3282471
3030,1.6495966,4.9847026,7.6398587,-82.2977066,-62.3358765,-123.6335907
3040,1.1396341,4.9128766,8.5161324,-90.8244247,-63.0992355,-130.9236603
3050,0.8212070,5.2193332,9.3157911,-98.5114517,-52.6259537,-133.6030579
3060,0.5147507,5.5545197,10.2926207,-105.1374054,-37.0228996,-134.0610657
3070,0.4453192,6.2081332,11.6788559,-108.8854980,-19.8778629,-131.6335907
3080,0.5267217,7.1993275,12.9286232,-108.8015289,-4.5572519,-130.6564941
3090,-0.1364688,7.8792777,14.3699255,-104.4351120,8.0763359,-129.6183167
3100,-1.2042773,8.0325060,16.0434628,-93.2290039,11.9465647,-123.5496216
3110,-1.9680238,8.1498213,17.7074261,-73.5648880,8.9770994,-113.8778610
3120,-2.2481439,8.3054428,18.7321377,-48.3206100,3.2748091,-103.2137375
3130,-2.0997043,8.5328913,18.6100349,-25.6106873,1.1374046,-92.2213745
3140,-1.8147956,8.4514885,17.7984047,-9.0610685,5.3664122,-82.3664093
3150,-1.1132981,7.7021074,16.9724083,-1.2671756,14.8625956,-76.4580154
3160,-1.0702027,7.2783360,16.1320477,-3.1221373,27.7404575,-74.0534363
3170,-1.4532729,7.2903070,15.8854465,-13.4274807,46.9847336,-74.4732819
3180,-3.2513094,7.2615767,16.5007534,-24.9770985,71.0457993,-74.4961853
3190,-5.2289100,7.4531116,17.8079815,-27.2977104,85.0839691,-71.0992355
3200,-7.1993275,7.7619624,19.2588596,-10.4656487,78.2671738,-64.3129807
3210,-8.3245964,8.4275465,19.6126022,25.9541988,47.7557259,-53.1984749
3220,-8.1067257,9.8185711,19.3235035,75.7328262,-0.1450382,-45.0228996
3230,-6.3972740,10.6325951,16.4672356,127.1221390,-55.0534363,-47.1526718
3240,-4.8673873,11.5423870,11.7674408,162.3053436,-105.0610657,-57.5343513
3250,-2.6958573,11.3915539,7.1107426,174.2366486,-145.8854980,-71.3282471
3260,-0.8475431,10.7738523,3.3782012,164.6717529,-171.5877838,-89.4961853
3270,-0.6847382,9.6222477,1.0534433,141.0686951,-176.7633514,-101.8396912
3280,-1.2880739,7.1562324,-0.5099624,107.8244247,-154.9770966,-100.0229034
3290,-2.3056045,4.2472920,-1.5059452,71.2595444,-114.3435135,-81.7709961
3300,-3.0885043,1.2617378,-1.8076130,38.3053436,-72.1984711,-53.3511467
3310,-2.9304879,-1.9991482,-2.0039365,12.9465647,-40.0534363,-20.7022896
3320,-1.1204807,-5.8825235,-1.9153515,-4.3893127,-23.7404575,9.8549614
3330,1.6304430,-9.4283180,-1.7453641,-16.8778629,-17.2366409,28.4732819
3340,4.5657191,-12.7921543,-1.5059452,-24.8396950,-23.6030540,29.6564884
3350,7.0125809,-16.2278156,-1.5658000,-30.1297703,-50.8473282,15.6259546
3360,7.8840661,-18.9308567,-1.4915800,-38.0152664,-101.4809189,-7.1450381
3370,6.8785062,-19.6131992,-1.7094513,-54.8091621,-177.3587799,-31.1908398
3380,4.0126615,-19.2085819,-0.9816177,-86.4427490,-250.1374054,-40.6488533
3390,0.7757174,-17.3195667,1.5107336,-128.6564941,-250.1374054,-33.1145020
3400,-1.3120158,-15.9548788,6.7324610,-163.5343475,-250.1374054,-8.3816795
3410,-1.1707586,-15.2509871,12.7993364,-175.8549652,-250.1374054,23.1755733
3420,-0.3758878,-14.2238798,19.6126022,-162.6412201,-250.1374054,52.3664131
3430,0.0981618,-12.6604738,19.6126022,-120.1908417,-250.1374054,76.3893127
3440,1.2306134,-12.0236197,19.6126022,-51.7099228,-169.7862549,95.2671738
3450,3.1746953,-10.9294748,19.6126022,30.6564884,-97.8854980,99.5725174
3460,5.6263452,-9.9574337,19.6126022,103.6564865,-39.2213745,91.7480927
3470,7.6039457,-9.5097208,17.8726234,157.5267181,4.0381680,68.9694672
3480,8.2240410,-9.9310980,11.8512383,184.6641235,42.9465637,44.8396950
3490,7.2400289,-10.1393919,7.0796180,189.7938995,74.2290039,26.5114498
3500,5.3342543,-9.9095497,3.9911139,184.9923706,87.5877838,17.1145039
3510,3.6487448,-9.4522600,2.3103929,176.3511505,82.9160309,16.4885502
3520,2.5354466,-8.7411861,1.9201399,170.1984711,70.3893127,21.6259537
3530,1.7046629,-7.1634150,1.7166338,166.2595367,59.7022896,31.7633591
3540,1.7262106,-5.1642666,1.1587877,156.4274750,60.6870232,40.4885483
3550,2.1739240,-3.3662305,0.9696468,139.3053436,71.5419846,45.8473282
3560,2.5617826,-1.3072275,1.0007712,119.0076370,91.2900772,47.3740463
3570,2.4660151,0.4932030,1.0271072,97.7557220,108.0763321,45.8091621
3580,1.8363433,1.6663558,1.5250987,73.7557220,115.8396912,46.1221390
3590,0.9528874,2.9831600,2.5067163,55.3053436,117.7938919,51.2213745
3600,0.4860204,4.1060348,3.7181761,43.3358765,110.3969498,58.0763359
3610,1.4532729,9.9813757,7.5440907,27.5877857,2.9541984,59.4274826
3620,2.3534882,10.0148945,8.0827837,27.6717548,-21.4580154,55.9771004
3630,3.4284792,9.8903971,9.2535419,29.9618320,-44.3740463,53.1908379
3640,4.8578105,10.0603838,10.3740225,36.1526718,-64.0457993,49.3358765
3650,6.7157016,10.1250277,11.1880474,43.2900772,-71.4961853,40.6488533
3660,7.9391322,10.1753054,11.5567522,50.0992355,-67.4580154,27.7786255
3670,8.6262646,10.0316534,11.2431135,54.3129768,-49.3664131,11.7709923
3680,8.2384062,9.5935173,10.3069859,53.5877876,-20.5114498,-3.7175572
3690,7.3741035,9.1362267,8.8489246,46.0534363,12.9770994,-17.2366409
3700,6.2440462,8.4658537,7.4171991,31.7251911,43.8320618,-27.4732819
3710,4.6040263,7.7787213,6.1051831,14.3740454,68.6106873,-33.9007645
3720,2.7557120,7.0365229,5.4515696,-2.9618320,76.7251892,-34.5267181
3730,1.2593436,6.7157016,5.3821378,-17.7404575,66.1603088,-29.0610695
3740,0.2370248,6.6941538,5.8777351,-29.2824421,43.7786255,-19.7328243
3750,0.2130829,6.5552907,7.0748301,-34.1068687,17.2595425,-9.3893127
3760,0.8068419,6.6319046,8.1378498,-34.0839691,-5.3206105,-0.3206107
3770,1.7286048,7.0245519,8.7292147,-32.3969460,-20.1068707,5.7022901
3780,2.9807658,7.1107426,8.9686337,-31.3816795,-27.2061062,6.9236641
3790,3.9192882,7.1538382,8.7675219,-35.2977104,-25.0076332,3.8396947
3800,4.5681133,7.0245519,8.8130112,-43.2366409,-14.9541988,-1.9465649
3810,5.2839761,6.9144192,9.1553802,-52.2061081,0.0381679,-10.3206110
3820,5.0852585,6.7180958,9.3804340,-61.4732819,16.6030540,-21.4809170
3830,4.0533628,6.4044566,10.1322098,-67.2671738,25.5038166,-29.3740463
3840,3.1842721,6.0285692,10.8361015,-67.4503784,24.9923668,-33.5877876
3850,2.3894010,5.7699966,11.4226780,-62.5648842,19.8320618,-34.5572510
3860,2.0350611,5.7484488,11.7195578,-53.8625946,9.0534353,-31.8931293
3870,2.2864509,6.0285692,11.5088692,-45.8320618,-1.3206106,-28.8931293
3880,2.9687948,6.6223278,11.2862091,-40.8778610,-5.6335878,-28.3435116
3890,3.5362179,7.3836803,10.9462337,-39.7022896,-3.7328243,-31.4580154
3900,3.6702924,8.1498213,10.7355452,-42.2137413,3.7022901,-38.3893127
3910,3.1986370,8.7459745,10.8073711,-45.1145020,12.1145039,-45.6488533
3920,2.6288199,9.3014259,10.7906122,-47.0152664,15.5496187,-51.3740463
3930,1.7357874,9.7970228,10.8097658,-47.3893127,15.2748089,-56.8931313
3940,1.0007712,10.1585455,10.6373835,-45.2290077,5.4045801,-62.0458031
3950,0.3663110,10.5895004,9.9837704,-43.7633591,-7.1603055,-66.5038147
3960,-0.0598547,10.8145542,9.6988611,-47.0687027,-16.6870232,-67.0687027
3970,0.2394189,11.3245163,9.0667953,-56.8244286,-12.1145039,-65.0457993
3980,-0.4764437,11.7722292,8.3413563,-75.9542007,5.5496182,-60.4656487
3990,-1.7645177,11.2239599,8.4299412,-100.1221390,22.9847336,-47.7709923
4000,-2.8993635,10.6038647,9.4953556,-120.2671738,34.9923668,-27.8473282
4010,-3.7085996,10.1705170,11.3508520,-129.8167877,36.3969460,-3.1221373
4020,-4.1539187,9.9598284,13.4577389,-126.1221390,22.8778629,25.2213745
4030,-3.0238612,10.0603838,14.6907463,-111.8702316,2.2824428,52.5572510
4040,-0.7757174,10.9510221,14.9948082,-96.2900772,-14.1755724,74.0152664
4050,2.1092808,11.7099810,14.3579540,-85.7938919,-24.3358784,84.1450348
4060,4.8027439,12.1600885,14.1257181,-76.7862625,-36.0992355,82.2290039
4070,7.1538382,12.5144281,14.1544485,-64.0916061,-55.3435097,66.8778610
4080,11.0803089,13.1680422,13.4816809,-47.8320618,-73.5496216,33.5496178
4090,12.9070749,12.5311880,11.8272963,-38.3511467,-89.6641235,-19.6793900
4100,10.8504667,10.5344334,11.2838144,-32.3511467,-114.3969498,-66.2519073
4110,8.2767134,7.7787213,11.6118193,-19.1145039,-144.5267181,-93.3358765
4120,5.9447722,5.2480631,11.0659437,-1.8778626,-170.3206177,-101.5419846
4130,4.4986820,2.7126167,10.0220766,14.2290077,-183.9084015,-92.9236679
4140,4.0677280,0.1484398,8.6502066,28.8778629,-176.7404633,-72.4427490
4150,4.9966736,-2.7892308,6.5169835,40.3969460,-154.4198456,-47.9923668
4160,7.0508881,-6.4092450,4.0796990,45.5267181,-122.5954208,-30.1984730
4170,9.8065996,-10.0005293,1.6232605,41.3206100,-92.9923630,-27.2213745
4180,12.6628675,-13.6708221,0.2346306,30.1984730,-71.5038147,-42.9465637
4190,14.7003231,-16.9029770,-0.9696468,13.9618320,-57.1603050,-76.4580154
4200,14.8990412,-18.7824154,-1.8124014,-11.3435116,-52.4656487,-123.2519073
4210,12.8974981,-19.4288483,-2.1380112,-46.5725174,-60.2977104,-172.6793823
4220,8.4419117,-19.3785686,-1.7693061,-92.6106873,-78.1145020,-214.0610657
4230,1.9153515,-19.0936604,0.1604107,-143.4427490,-100.8473282,-231.2213745
4240,-5.1187773,-18.3682213,4.2736282,-184.2137451,-120.2290039,-217.0763397
4250,-10.7403336,-17.7553082,7.9726510,-201.8473358,-120.3511429,-174.7022858
4260,-15.9189653,-17.8630466,12.5790710,-188.6259613,-116.4503784,-102.9007645
4270,-18.2030220,-16.8048153,17.1998577,-139.1068726,-127.9618301,-12.5343513
4280,-15.4209747,-15.0379038,19.6126022,-59.7862587,-158.6259613,73.2442780
4290,-8.1210909,-12.9645357,19.6126022,34.0763359,-189.3206177,132.1221313
4300,0.5530578,-11.2215662,19.3115330,117.4503784,-181.4198456,151.2671814
4310,8.1258793,-9.6940727,15.4425220,179.1526642,-152.3893127,134.2061005
4320,12.7682123,-9.2439651,11.1186161,216.7862549,-118.6259537,93.0000000
4330,13.9246063,-9.7682934,7.0149751,232.7175598,-83.8625946,46.0992355
4340,12.1122046,-10.3428984,3.7564833,235.0610657,-51.3206100,11.2366409
4350,9.1721401,-10.2447367,1.4460905,224.7175598,-27.3664131,-3.0534351
4360,7.2184811,-9.5599985,1.0031654,213.7480927,-12.6717558,0.0916031
4370,6.7085190,-8.3605099,0.8164186,205.5572510,11.2748089,11.9083967
4380,7.0939832,-6.3781209,-0.0191535,191.0305328,52.8015251,25.8320618
4390,7.6350703,-4.4531922,-0.6967092,167.4274750,104.5877838,35.5190849
4400,7.3405848,-2.4540441,-0.6057299,140.3587799,153.9541931,43.5267181
4410,6.7540083,-0.1340746,-0.3160330,112.2900772,193.6412201,53.1068687
4420,6.5912037,1.5562232,0.0790083,84.7633591,221.0915985,62.6335869
4430,6.9239960,3.5338237,0.8307837,60.1145020,237.8167877,68.9465637
4440,7.3764977,5.3486195,1.9608412,39.7328262,241.3664093,68.2213745
4450,7.3956513,6.7204900,3.3422885,24.9389305,234.6412201,61.0000000
4460,6.8210459,7.6111283,4.4053087,15.3358774,216.4656525,50.5801544
4470,6.1387019,8.2838955,5.2983413,10.4885492,185.4503784,40.4274826
4480,6.3134775,9.2272062,6.9168134,10.7328243,111.3511429,16.5496178
4490,6.3350253,9.8975792,7.2352405,7.7175574,88.1145020,3.7480917
4500,6.9479380,10.0244713,7.7284436,-0.2977099,75.7251892,-12.3587790
4510,6.9886389,9.8544836,8.3126259,-9.2671757,72.8396912,-29.8931293
4520,6.2584114,9.5456333,8.7268209,-17.8854961,74.9923630,-44.6412201
4530,4.9248476,9.0596132,8.7459745,-27.2519093,81.7099228,-53.7251892
4540,3.3351059,8.4227581,8.7914639,-36.1603050,90.3129807,-55.2748108
4550,1.6567791,8.3030491,8.8177996,-43.9541969,91.3587799,-50.0381660
4560,0.8666966,8.1905222,9.1314383,-50.7480927,85.6030502,-42.4656487
4570,0.2178712,8.1282730,9.5240860,-55.1832047,75.2061081,-34.5877876
4580,0.2082945,8.1043310,10.0962973,-56.3129768,60.5267181,-26.9541988
4590,1.2162483,7.9726510,10.5583754,-56.5572510,48.1755714,-22.0839691
4600,2.3870070,7.8433647,10.8265247,-58.4732819,41.1679382,-23.4656487
4610,3.1028695,7.4004397,11.1114330,-61.8091621,37.6793900,-28.9389305
4620,2.8083842,6.8162575,11.7913828,-62.1297722,33.0534363,-33.1145020
4630,2.4133430,6.1650376,12.4521790,-57.4580154,25.6641216,-33.5801544
4640,2.1667414,5.9950504,12.7011747,-50.4809151,18.5343513,-31.7328243
4650,1.7693061,6.2655940,12.7849712,-44.1908379,12.7480917,-28.0381680
4660,1.3838415,6.3134775,12.8280668,-38.5267181,9.2824430,-23.8625946
4670,1.2042773,6.1123657,12.8879223,-33.2366409,6.2824426,-18.9618320
4680,1.0678085,5.7412663,13.0243902,-27.0076332,-0.5190840,-14.3587790
4690,1.3359578,5.6359220,13.1105814,-19.6641216,-9.8625956,-10.5038166
4700,2.1954718,5.7053533,12.9118633,-12.0610685,-14.9694653,-10.1755724
4710,2.9520357,5.8777351,12.4497852,-7.2061067,-13.9541988,-14.4885492
4720,2.7940190,5.8633699,12.0355902,-4.0534353,-10.5343513,-20.0916023
4730,2.4731977,5.5593081,11.5232334,-1.9465649,-8.3969469,-23.6183205
4740,2.3463056,5.3414369,10.8337069,-3.3893130,-3.4198472,-26.1297703
4750,2.1308286,4.9248476,10.3428984,-8.5190840,4.3740458,-27.6412220
4760,1.9536586,4.2975702,10.2136126,-13.4580154,11.7099237,-29.7480907
4770,1.8052188,3.4428444,10.1681223,-17.3053436,12.8931293,-33.3740463
4780,1.6807210,3.2177906,10.2160063,-21.5648861,5.8702292,-38.7480927
4790,1.8315549,2.8251436,10.5440102,-24.1679382,-4.8396945,-47.3893127
4800,2.2625091,2.4301023,11.1593170,-23.7022896,-15.2519083,-60.0228996
4810,2.2768741,2.1523764,11.8320847,-20.3664131,-21.7404575,-74.1221390
4820,1.3742647,1.8698620,11.9302464,-15.6793890,-23.3816795,-84.0992355
4830,0.2537841,1.8626794,11.9685535,-9.9007635,-21.6030540,-85.0229034
4840,-0.9888002,2.0781565,11.8009596,-3.2366412,-17.2824421,-76.8625946
4850,-1.7693061,2.6336083,11.3532467,3.0076337,-13.4656487,-62.1221390
4860,-1.4724265,3.4308734,10.7834291,6.1450381,-11.5572519,-44.2671738
4870,-0.6967092,4.7093706,10.3165627,4.3129773,-6.9389315,-30.2213745
4880,0.1628049,6.1913738,10.1944590,-1.3358779,2.4656489,-20.0076332
4890,0.7206510,7.3525558,10.2734671,-9.1832066,14.6335878,-13.7938929
4900,0.8978211,8.2695303,10.6086531,-15.7175570,25.3664131,-10.5648851
4910,0.7374104,8.9494801,10.6900558,-19.3129768,29.8473282,-7.2519083
4920,0.6703730,9.4331064,10.9510221,-21.8854961,28.8854961,-4.0076337
4930,0.5339043,10.0771437,11.5878773,-21.8320618,23.1603050,-1.1450381
4940,0.2873027,10.4769726,12.1361465,-18.3511448,15.0000000,2.4732823
4950,0.2466015,10.6685085,12.2462788,-13.8473282,7.3664122,7.5801525
4960,0.4046180,11.0587606,12.1840305,-10.3358774,-1.6717557,12.8396950
4970,0.8164186,11.4777441,11.8057480,-9.3587790,-10.9770994,17.4122143
4980,1.5849534,11.7243462,11.7291346,-9.4045801,-20.1374054,18.7938938
4990,2.1547706,11.9110928,11.2957859,-9.1755724,-28.6870232,16.9541988
5000,3.0621684,12.2845860,10.6661139,-10.6106873,-38.1374054,12.3740454
5010,4.1443419,11.8201132,10.0101061,-12.1984730,-47.9541969,1.3129771
5020,3.9360476,11.0252428,9.5264797,-11.8320608,-63.9312973,-10.6717558
5030,3.2680686,9.6318245,9.0356712,-7.8244276,-88.6412201,-16.8931293
5040,2.9113343,7.9630742,8.6717539,0.8320611,-112.0992355,-18.8549614
5050,2.3391230,6.3278427,7.7116842,12.0687027,-134.9618378,-15.2442751
5060,2.4396791,4.2209558,6.6031747,24.6793900,-154.4809113,-7.5419846
5070,3.7995787,1.8794388,5.2145448,34.5267181,-157.2137451,2.1297710
5080,5.4874821,-0.6392486,3.2656744,35.0152664,-127.0152664,10.9236641
5090,7.1945391,-3.4260850,1.3263810,23.6946564,-73.4961853,15.8549614
5100,8.7292147,-6.5624733,-0.1915352,3.7938931,-9.4198475,14.2977095
5110,10.0412302,-9.5743637,-0.9409165,-20.4732819,48.5877876,5.2671757
5120,10.1369982,-11.7889891,-1.3335636,-49.9160309,89.9847336,-11.5954199
5130,10.3261395,-14.2095146,-1.2928623,-78.1374054,107.5038147,-38.1068687
5140,9.7922344,-15.6484222,-0.4812321,-104.2519073,102.2671738,-75.6335907
5150,7.4794478,-15.7777081,2.1356170,-121.2519073,58.3740463,-115.4580154
5160,4.2448978,-15.4018211,5.4611464,-122.1679382,-13.0381680,-150.8091583
5170,0.2537841,-14.8296099,8.9327211,-111.0534363,-91.2442780,-170.9923706
5180,-3.2321558,-14.5207586,12.7825775,-91.5267181,-153.4809113,-170.5343475
5190,-5.2121506,-13.7665892,16.5701847,-61.3206100,-180.7099304,-155.0839691
5200,-5.6167684,-13.1105814,19.4599724,-24.7022896,-159.2595367,-131.0000000
5210,-6.5576849,-13.4050665,19.4025116,6.7251906,-83.2213745,-96.2595444
5220,-5.9735026,-14.0754395,18.8662128,33.0000000,18.7480907,-51.1908379
5230,-4.6183915,-13.9629126,17.4751892,62.1908379,104.0229034,-4.3511453
5240,-2.4205256,-13.6205435,14.3196468,88.1603088,154.8931274,37.0916023
5250,0.4692611,-13.3332415,11.0036945,103.1297684,180.2290039,69.3740463
5260,2.7820482,-12.3899307,7.8744893,112.0763321,180.9007568,90.4122162
5270,5.3749552,-11.0013008,5.2193332,109.5877838,163.8702240,99.1450348
5280,7.2400289,-9.4594421,3.7085996,100.9312973,142.8396912,94.1068726
5290,7.5273318,-7.3190370,2.8419030,87.9389343,125.5419846,84.2977066
5300,6.3781209,-5.3007355,2.4708035,71.1832047,114.7251892,74.8473282
5310,5.1858144,-3.3039815,2.7892308,52.9160309,112.6030502,71.9923630
5320,4.0581512,-1.0534433,3.4380560,35.2519073,112.9465637,71.8015289
5330,3.3183465,1.0462608,3.9911139,19.3053436,109.8625946,71.8015289
5340,2.7628946,4.3837609,7.7021074,-12.7938929,71.9007645,65.3587799
5350,2.8778157,5.3174949,8.6597834,-15.3053436,56.8625946,59.8473282
5360,2.9807658,6.4978304,9.4762020,-18.7557259,44.4045792,52.9618340
5370,3.0693510,7.6614060,10.7690639,-18.0458012,33.9236641,44.0381660
5380,3.0286496,8.3365679,12.0451670,-11.6488552,24.3282452,31.3053436
5390,2.6048782,8.7483683,12.4210548,-3.1526718,17.7633591,17.7557259
5400,2.0374553,8.8082228,12.0236197,3.1145039,17.3893127,4.9160304
5410,0.3160330,7.2280579,10.3572636,-1.8396946,24.6564884,-5.7862597
5420,-0.2681492,6.6199336,10.1178446,-11.6641226,26.0458012,-6.1832061
5430,-0.6200951,6.0285692,10.5033092,-18.2977104,18.8244267,-5.2900763
5440,-1.0965388,5.9830794,11.2838144,-18.5801525,4.9160304,-4.3282442
5450,-1.0821736,5.9711084,11.7602587,-13.3816795,-9.2595415,-1.5114504
5460,-0.1244979,5.8346395,11.8296900,-7.8167939,-13.7404585,-0.0916031
5470,0.3399749,5.6670465,11.0156660,-8.3969469,-7.1603055,-0.8396947
5480,0.1077385,5.4587522,10.6852674,-14.7099237,3.7557251,-1.5801526
5490,-0.2489957,5.3366485,10.7116032,-17.9541988,11.3435116,0.3435115
5500,-0.0837966,5.2432747,10.4841557,-19.0687027,16.5190830,3.4885497
5510,-0.0023942,5.4563580,10.0340481,-22.1603050,20.1832066,5.3511453
5520,-0.5339043,5.8585815,10.2638903,-24.6564884,19.3587780,8.0687027
5530,-0.5937590,6.1650376,10.6182299,-23.5496178,16.3740463,11.3206110
5540,-0.2537841,6.3924856,10.7403336,-19.5648861,12.8473282,12.7938929
5550,0.0071826,6.5121951,10.4195127,-16.3587780,9.2290077,11.4732828
5560,-0.1077385,6.1434903,10.1369982,-15.9541988,-3.8015268,3.6412213
5570,0.0646431,5.9160423,10.6062593,-13.8091602,-16.0229015,1.9465649
5580,0.1316804,5.6981707,10.9438400,-11.2824430,-26.4122143,0.5419847
5590,0.0814024,5.6000090,11.5375986,-8.3511448,-34.6488533,0.9160305
5600,0.2178712,5.6215568,12.0403786,-4.1145039,-39.0763359,4.1221375
5610,0.7876883,5.5856438,11.9853125,-1.2137405,-35.1908379,7.1145039
5620,1.3407460,5.6311336,11.7865944,-1.9541985,-22.1908398,8.9389315
5630,1.7932479,5.1379304,11.9374285,-6.1679387,2.8015268,8.4580154
5640,1.9560528,4.9056940,12.2941628,-2.9236641,6.0916033,4.2900763
5650,1.4413021,4.3502421,12.0715036,11.8702288,-14.4351149,-6.2671757
5660,1.4604555,4.3430595,11.9541883,20.9770985,-31.8320618,-10.3435116
5670,1.5035510,4.6231799,11.7195578,29.1450386,-46.1068687,-14.8931293
5680,1.3646880,4.8482337,11.6046362,35.6717567,-54.6259537,-18.7175579
5690,1.0486550,4.9511838,11.2072010,38.2977104,-54.6183205,-20.0687027
5700,0.9193687,5.4467812,10.4793673,36.1984749,-50.1145020,-18.3282452
5710,1.2952565,6.0549049,9.9239149,27.0610695,-40.0228996,-15.3893127
5720,1.8076130,6.8042865,9.8161764,13.3587790,-23.1526718,-12.7175570
5730,1.8243724,7.7619624,10.3357162,-1.8931298,-4.0076337,-11.6412210
5740,1.5921360,8.5903521,11.3700056,-12.8015270,8.6793890,-12.1984730
5750,0.7972651,9.4378948,12.7107515,-16.9083977,10.1679392,-15.0305347
5760,-0.3447633,10.6254129,13.8360205,-13.0381680,3.1526718,-19.4122143
5770,-2.0350611,11.8129311,14.9493189,-3.8015268,-16.9160309,-22.7709923
5780,-4.1754665,12.9525652,16.4911766,12.2595415,-50.9465637,-19.0992374
5790,-5.6024032,14.1329002,18.3873749,45.5038185,-106.2061081,-6.8549619
5800,-4.6806402,14.3244352,18.6411591,90.2137375,-172.7786255,7.7022901
5810,-2.4588325,14.9876261,16.4983597,128.4503784,-221.4732819,18.0534344
5820,0.0766141,15.1695843,12.6293497,141.2366486,-237.0000000,24.0305347
5830,2.9065459,15.3802729,8.7483683,128.1450348,-217.9084015,27.2748089
5840,4.9200592,15.3228121,5.4252334,94.3206100,-175.1832123,26.2290077
5850,5.8202744,14.3411951,3.2656744,50.6030540,-124.9542007,22.9389305
5860,6.0165982,12.4042959,2.5306582,9.1755724,-84.3053436,19.2748089
5870,5.8561873,10.2591019,2.7748656,-19.6564884,-60.4198456,14.0381680
5880,5.5449429,7.8553357,2.8826041,-36.6564903,-47.4580154,7.7404580
5890,5.0397687,5.0301919,2.7078283,-44.6030540,-40.9465637,2.3206108
5900,4.8697815,2.0637913,2.4324965,-45.1374054,-42.9923668,-1.9312977
5910,5.5425487,-1.1420283,1.8674678,-42.6488533,-48.0992355,-6.0000000
5920,6.4188218,-4.5681133,1.0725969,-40.9007645,-47.8473282,-12.4045801
5930,7.5297260,-8.1426382,0.2729376,-41.7022896,-45.2671738,-22.0305347
5940,8.9135675,-11.5854826,-0.5171449,-47.0458031,-46.4809151,-35.1908379
5950,9.9023676,-14.6141329,-1.6759326,-60.2442741,-52.0610695,-53.2366409
5960,10.4769726,-17.5446205,-2.2481439,-84.3206100,-67.0610657,-73.6488571
5970,9.9215212,-18.9835281,-2.4588325,-118.9847336,-89.2061081,-95.0610657
5980,8.2647419,-18.6291885,-1.3311694,-162.2824402,-120.7328262,-110.2061081
5990,7.5201492,-17.8127689,1.3263810,-206.1374054,-142.7022858,-118.5725174
6000,7.0053983,-16.7904510,5.1187773,-243.9084015,-133.3816833,-128.2366486
6010,5.6598639,-15.5670195,8.7770987,-250.1374054,-89.5648880,-141.7251892
6020,2.9209111,-14.9158001,14.3148584,-250.1374054,-44.7480927,-152.2595367
6030,-0.4668669,-14.1424770,19.6126022,-248.7328186,-7.4045801,-149.0381622
6040,-3.6822634,-13.5702658,19.6126022,-188.0229034,16.4045811,-126.0381699
6050,-5.4970589,-12.3372583,19.6126022,-106.2137375,19.8015270,-88.0000000
6060,-4.6040263,-10.8217363,19.6126022,-9.7557249,21.5114498,-44.7022896
6070,-2.2840567,-9.9574337,19.6126022,81.6259537,28.3511448,-6.0458016
6080,1.4221486,-9.4618368,16.8263626,147.7480927,43.6335869,22.9923668
6090,4.8578105,-9.0117292,11.1234045,183.6259613,67.8396912,42.4122124
6100,7.2663651,-8.6765423,6.3685441,191.9694672,90.9770966,54.1374054
6110,9.0284882,-8.0540533,2.8754215,180.1984711,110.8778610,60.4045792
6120,10.0077124,-7.1538382,1.1875180,157.0152740,130.7404633,60.4427490
6130,9.8377247,-6.0501165,0.9744351,134.6870270,147.7786255,57.2595406
6140,8.6573887,-5.0110383,1.4891858,120.0610657,155.6488495,54.5190849
6150,7.4171991,-3.1124463,1.9799947,111.7709961,152.5648804,54.5572510
6160,6.6295104,-1.6041069,2.3032103,106.6870193,142.1908417,53.2595406
6170,5.7915444,0.2585725,2.6072724,100.6488571,125.7328262,50.2137413
6180,5.1666608,2.3343346,3.0047078,96.2366409,110.4580154,46.0687027
6190,5.3941088,6.7635851,6.6342988,87.2061081,50.4961815,-11.2213745
6200,3.9623835,7.1227136,8.1402445,102.7022934,7.4656487,-31.6564884
6210,3.4979107,7.0891948,8.6956959,127.0000000,-47.0687027,-44.3740463
6220,3.7229645,6.7587967,7.4315639,143.4122162,-92.1374054,-53.6870232
6230,4.5010762,6.9072366,5.3270717,137.7328186,-105.9847336,-62.3816795
6240,4.2137733,7.3621325,4.1036406,114.7251892,-96.4961853,-70.0839691
6250,2.2696917,7.7811155,3.4883339,80.4274826,-77.3358765,-69.2442780
6260,0.7876883,7.4938130,3.6535332,42.3816795,-48.8702278,-56.8549614
6270,-0.2082945,7.1849627,4.1539187,4.6412215,-13.9541988,-38.5954208
6280,-1.1276633,6.2608056,4.9727316,-31.7786255,16.9694653,-16.4198475
6290,-1.4149660,5.2001796,6.4260044,-63.2671738,46.3435097,9.1526718
6300,-0.7589580,4.4579806,8.5807753,-83.8931274,71.1832047,33.0381660
6310,0.3160330,4.1132174,10.6469603,-91.4427490,91.2290039,49.8854980
6320,0.4357425,4.1970143,12.1744537,-85.6259537,103.7175598,60.0381660
6330,1.2569494,4.3693957,12.6748390,-72.1526718,112.6641235,65.1526718
6340,1.6160779,4.9583664,11.7530756,-59.9236641,116.5877838,62.9160309
6350,2.1380112,5.2408805,10.9989061,-51.1755714,109.0305328,53.2137413
6360,1.3551112,5.5138183,10.1944590,-43.7328262,89.8167953,40.6106873
6370,0.6847382,5.6790175,9.9885588,-35.2595406,56.4351158,30.3129768
6380,0.5985473,5.2815819,9.9047613,-27.1908398,21.0763359,21.2748089
6390,0.2346306,5.3797436,9.8640604,-23.5267181,-3.9007633,16.8091602
6400,0.2489957,5.3222833,9.9143381,-24.4885502,-12.0381680,17.7099228
6410,0.5410868,5.3318601,10.4051476,-28.1526718,-6.3435116,20.4351139
6420,0.0263361,6.1698260,11.0348196,-31.6183205,7.2366414,24.9389305
6430,-0.5386927,7.0580707,11.6381550,-30.0916023,22.3969460,32.9694672
6440,-0.8834559,7.6829538,11.7051926,-24.4274807,34.9771004,42.3587799
6450,-0.5410868,8.1306677,10.9103212,-21.0076332,42.4351158,50.9083977
6460,0.2466015,8.4921904,10.0723553,-22.2213745,43.8778610,56.4809151
6470,1.3551112,8.6669655,9.5935173,-25.0610695,42.0305328,57.1679382
6480,3.0334380,9.0883436,9.4450769,-28.0076332,38.7480927,50.5114517
6490,3.7708483,9.6964674,9.5264797,-31.5038166,34.4427490,36.8854980
6500,4.0054789,9.9670105,10.0460186,-32.4198456,28.0763359,19.7251911
6510,3.0645626,10.1896706,10.9270811,-25.4809170,13.6030531,3.2977099
6520,2.1188576,10.2854376,11.6190014,-11.4045801,-10.9007635,-7.5419846
6530,1.3575054,10.5272512,11.5854826,2.5725191,-34.3129768,-12.1450386
6540,1.0534433,11.0348196,11.5495701,15.3053436,-50.9389305,-13.3358774
6550,1.0821736,11.3867655,11.9086981,29.7022896,-69.5572510,-12.9541988
6560,1.5825592,11.4753504,11.4466200,43.3282433,-89.0534363,-13.1450386
6570,2.5713594,11.5567522,10.3261395,47.8931313,-100.1297684,-13.5801525
6580,3.5529771,11.7554703,9.8281479,40.7175560,-98.2137375,-15.2061071
6590,4.6279683,12.0834742,10.1776991,26.2748089,-84.7175598,-18.8167934
6600,5.3151007,12.2821922,11.2790270,12.0763359,-63.2290077,-25.8473282
6610,4.9440012,12.3755655,12.4402084,5.2290077,-45.3435097,-33.9541969
6620,3.9839313,12.2510672,13.0028429,6.4122138,-37.4274826,-40.3129768
6630,2.6503677,12.3612003,13.3404236,14.0229006,-41.2213745,-43.3129768
6640,1.2808913,12.5527353,12.8280668,25.2442741,-52.6717567,-42.5038185
6650,0.1819584,12.8160963,11.5663290,33.0381660,-66.7022934,-38.2748108
6660,-0.5937590,12.9932661,10.1729107,34.2519073,-80.6106873,-31.3740463
6670,-0.6775556,12.9046812,9.0452480,31.4809170,-92.0992355,-22.1755733
6680,0.6224893,13.0028429,7.4890246,21.9770985,-94.3969498,-14.6412210
6690,2.0135133,13.4361916,5.8059096,-2.2442749,-75.6259537,-12.3816795
6700,2.2744799,13.3284531,4.6016321,-37.7175560,-42.5725174,-12.3129768
6710,1.9823889,12.4090843,4.5274124,-70.2061081,-18.3511448,-11.1526718
6720,1.2521610,10.9797525,5.3629842,-88.6030502,-13.0916033,-6.9541984
6730,0.9241571,9.0069408,5.9615316,-91.5572510,-32.2213745,1.2290076
6740,1.2354017,6.5983863,6.1099715,-83.4274826,-64.2977066,10.3664122
6750,2.1667414,3.8666160,6.1410961,-67.4122162,-98.3816757,21.0610695
6760,3.5960727,0.7852941,5.6071916,-46.5572510,-122.0152664,31.3282452
6770,5.3821378,-2.8706331,4.2544746,-26.9160309,-125.8549652,41.2290077
6780,7.4052281,-6.6678176,1.5370697,-14.4198475,-124.8625946,47.5725174
6790,10.2423429,-10.4075413,-2.7868366,-19.5648861,-142.1679382,41.4961815
6800,12.6221666,-13.8910875,-7.5033898,-51.4732819,-166.4732819,21.9389305
6810,14.2550039,-17.1304264,-11.5064745,-112.6564865,-201.9847260,-7.6717558
6820,13.7498302,-19.6131992,-12.1600885,-199.7328186,-220.9084015,-45.0534363
6830,11.7482872,-19.6131992,-5.6838059,-250.1374054,-224.1145020,-70.2671738
6840,9.4905672,-19.6131992,4.9727316,-250.1374054,-232.8091583,-81.5801544
6850,7.5105724,-19.6131992,14.1664190,-250.1374054,-225.3435059,-81.8244247
6860,6.0644817,-17.1759148,19.6126022,-233.3282471,-207.5038147,-80.7862625
6870,3.8498566,-14.4010496,19.6126022,-154.3435059,-177.8549652,-76.0610657
6880,1.8387375,-12.4952745,19.6126022,-78.0000000,-135.5877838,-60.1832047
6890,1.3910241,-10.9246864,19.6126022,-16.6335869,-88.6106873,-34.7709923
6900,2.9664006,-9.3110027,19.6126022,36.3664131,-40.8931313,-12.4656487
6910,4.8841467,-8.1857338,18.7249565,81.9083939,1.3816794,-0.2824427
6920,6.2512288,-7.3501616,14.9565020,117.1679382,41.0534363,7.0381680
6930,7.7930865,-7.2831244,11.6046362,143.0686951,71.5877838,10.1832066
6940,9.0691900,-7.3573442,8.3293848,160.0686951,97.1145020,10.7328243
6950,9.6964674,-7.1777802,5.6047974,165.0915985,124.4580154,9.8396950
6960,9.7132263,-7.3357964,3.8043671,160.4656525,152.0915985,10.1221371
6970,9.4067707,-7.2855186,2.8802099,151.3206177,185.1679382,13.6335878
6980,8.3150196,-6.9838505,2.3702476,142.0534363,219.5877838,20.9389305
6990,6.5385313,-6.0118098,1.9776005,133.3664093,245.8320618,33.0839691
7000,4.9751258,-4.8338685,1.5155219,125.9542007,250.1297760,49.6793900
7010,3.9097114,-3.4500270,1.0821736,116.4274826,250.1297760,68.0992355
7020,3.7780309,-1.9033806,0.9289455,104.1297684,241.0229034,84.4198456
7030,4.1060348,-0.9002152,1.0606259,90.1603088,224.2366486,97.4045792
7040,4.8242917,0.2729376,1.5801650,70.8396912,215.6870270,106.0381699
7050,5.1475072,1.9488702,2.6312141,49.1297722,212.6793823,108.6641235
7060,4.8099265,3.4811516,4.0150557,29.9389305,200.6793823,104.4274826
7070,4.2903876,4.6614871,5.6909885,18.5190830,177.2900696,95.2442780
7080,3.5266411,5.3151007,7.3334022,17.0076332,140.7328186,87.1679382
7090,3.7995787,4.6088147,9.8951855,56.6793900,1.4732825,72.2061081
7100,4.5657191,5.2648225,9.1553802,62.9618340,-17.0610695,70.2137375
7110,6.1722202,5.8274570,8.7316093,60.4503822,-17.7328243,65.8931274
7120,7.2950954,6.7779503,8.2407999,49.4580154,2.9847329,55.7175560
7130,5.5545197,7.2974896,8.8393478,14.5725193,63.5954208,5.0000000
7140,3.0693510,6.3637557,8.6885138,13.2290077,42.5190849,-12.4580154
7150,2.2672975,6.1698260,8.6142941,12.3511448,28.1374054,-15.1603050
7160,1.4963684,6.1051831,8.5281029,10.1526718,18.9694653,-13.7328243
7170,1.2880739,6.3613615,8.6142941,6.6030536,16.6946564,-7.6870227
7180,1.1923064,6.5193777,8.7962523,1.7022901,22.3587780,-0.0076336
7190,1.5179161,6.5457139,8.9111729,-3.0458016,29.6946564,5.6946564
7200,1.7525467,6.7659793,9.2200232,-6.7786260,35.0076332,8.2290077
7210,2.0518203,6.7516141,9.3517036,-8.0152674,34.9694672,9.2824430
7220,2.3415172,6.7468257,9.6126709,-7.7328243,30.8091602,8.1984730
7230,2.1619530,6.9239960,9.6821022,-5.7251906,23.3664131,6.5038166
7240,2.1284344,7.1370788,9.7539282,-2.8549619,12.1603050,6.7557254
7250,1.9991482,7.3310080,9.7611103,0.3816794,0.8015267,8.0763359
7260,2.0111191,7.6135225,9.6437950,3.3816793,-8.5190840,10.5419846
7270,3.1483591,7.2855186,10.1657286,-0.0763359,-12.9923668,15.5801525
7280,3.3398943,7.0532823,10.7187862,-0.0229008,-16.0152664,14.1603050
7290,4.0270267,7.1155310,11.0731258,0.8244275,-18.1679382,10.3893127
7300,3.3303175,7.2304521,12.3875360,8.8091602,-12.4656487,-1.7022901
7310,2.8275378,7.2543941,12.1792421,16.2977104,-14.2977095,-0.6259542
7320,2.6623387,7.3932571,11.6644907,22.6564884,-16.0534344,2.8854961
7330,2.7533178,7.7859039,10.7858238,25.7633591,-16.3282452,6.0916033
7340,3.3877780,10.3261395,8.6454182,4.4580154,-23.6717548,-2.7786260
7350,3.4476328,10.7858238,8.8800488,0.1603053,-33.6030540,-6.4198475
7360,3.7493007,11.3245163,9.2008705,-3.3740458,-41.9083977,-10.5801525
7370,3.9192882,11.8320847,9.5863342,-6.2442746,-44.9923668,-14.7022905
7380,3.6846576,12.2247314,10.0125008,-9.3740454,-42.8549614,-18.2061062
7390,3.0382264,12.3635941,10.6661139,-11.8625956,-36.0763359,-19.3053436
7400,1.7405758,12.7730007,11.1401634,-12.0763359,-29.8396950,-15.9389315
7410,0.7421987,13.1177645,11.4801388,-11.5648851,-25.0916023,-5.9694657
7420,0.5219333,13.1345234,11.1234045,-10.3129768,-19.6030540,6.8091602
7430,0.5147507,13.2302914,10.4243011,-10.7251911,-17.0687027,19.8549614
7440,0.9959828,13.4457684,9.2104464,-11.1145039,-20.3358784,30.7175579
7450,2.2577207,14.0969877,7.5919747,-13.3587790,-28.3053436,34.7633591
7460,3.5745249,15.0019913,5.4922705,-19.7404575,-39.6870232,26.7480907
7470,4.5944495,15.3539371,3.2082138,-30.4351139,-60.4198456,7.5877862
7480,4.8649931,14.9062233,1.3790531,-46.1908379,-90.6564865,-16.8396950
7490,4.6686692,13.4361916,0.3950413,-64.9770966,-123.1908417,-39.7328262
7500,4.3023586,10.7283630,0.1436514,-79.3053436,-154.4656525,-56.6412201
7510,4.0964580,7.8912482,0.0119709,-85.4885483,-183.1832123,-64.5267181
7520,4.5202298,4.1395535,-1.1539993,-90.0000000,-200.8396912,-64.2671738
7530,4.8362627,-0.1005560,-2.6695213,-99.5419846,-207.5114441,-57.2137413
7540,6.1698260,-4.6375451,-3.9073172,-114.7862625,-205.0763397,-46.5572510
7550,8.1522150,-9.7443514,-4.7835903,-135.6259613,-191.9007568,-38.2366409
7560,10.2543135,-14.4537220,-4.8147149,-161.9923706,-167.8625946,-36.5038185
7570,12.0092545,-18.1742916,-3.5026991,-188.4274750,-145.2213745,-41.4961815
7580,12.9884777,-19.6131992,-1.5059452,-209.2366486,-126.1374054,-50.4198456
7590,13.0650921,-19.6131992,0.9504932,-224.1145020,-111.0534363,-56.9541969
7600,12.6772327,-19.6131992,3.7564833,-234.5801544,-93.2290039,-60.8854980
7610,11.5208397,-19.4336357,6.3924856,-244.5725250,-70.1068726,-65.6717529
7620,10.2471304,-16.4241390,9.5264797,-250.1374054,-45.8625946,-77.2824402
7630,8.3820572,-13.6732159,13.2542324,-250.1374054,-22.9312973,-93.1526718
7640,5.7699966,-12.1217813,18.1623211,-232.7709961,-6.2442746,-103.2595444
7650,3.3398943,-11.5495701,19.6126022,-180.9389343,3.6259542,-100.6641235
7660,0.9169745,-10.2950144,19.6126022,-92.2977066,8.8931293,-82.7404556
7670,-0.2681492,-9.4714136,19.6126022,17.6106873,18.1526718,-52.2213745
7680,0.2681492,-9.3971939,19.6126022,125.1679382,34.2824440,-19.9770985
7690,1.7118455,-9.9406748,16.8622761,203.2671814,44.6946564,10.1603050
7700,3.4284792,-9.5336628,9.4714136,236.8167877,54.8091621,33.4274826
7710,5.0613165,-9.1745338,4.2712340,239.0992432,69.4351120,54.0076332
7720,6.6750002,-8.9399033,0.7350162,220.7709961,91.2061081,71.6106873
7730,8.3341732,-8.2623482,-1.0893562,192.2366486,118.0457993,84.0992355
7740,9.4211359,-7.2783360,-1.4197544,160.8854980,149.2442780,90.0305328
7750,9.5863342,-6.1506729,-0.7805058,132.6412201,182.3664093,91.9160309
7760,9.1194677,-4.6830344,0.3351865,110.3435135,211.6259613,91.9618301
7770,8.1139078,-3.2249732,1.2497669,93.8015289,230.0458069,89.9694672
7780,6.7827387,-1.6998745,2.0230901,79.5038147,233.8320618,88.1297684
7790,5.4779053,-0.4644727,2.9903426,69.7938919,220.3816833,87.1755753
7800,4.9727316,0.2753318,4.2975702,65.1297684,196.0534363,87.8778610
7810,4.9751258,1.0582317,5.1307478,63.0381660,171.4351196,87.8702316
7820,5.4300218,1.9776005,5.6526814,61.8320618,148.2748108,84.4580154
7830,5.8298512,2.7413468,5.9998388,59.3358765,126.4580154,77.7709961
7840,6.0309634,3.5050933,6.2847471,54.6564903,111.9312973,69.6335907
7850,6.3757267,4.1850433,6.3829093,45.1526718,108.0457993,60.4045792
7860,6.4978304,5.1451130,6.6414814,31.1145039,114.1984711,47.9007645
7870,5.5880380,5.7843618,7.1083484,15.9541988,120.1679382,31.9236641
7880,2.1715298,6.2272868,8.8273764,7.0763359,94.5954208,8.8549614
7890,1.6088953,6.2033448,9.1290445,10.6030531,70.5343475,3.1297710
7900,1.5801650,5.5760674,9.1098909,8.3282442,28.7099228,-9.3664122
7910,2.0661855,5.6622581,9.0572186,-1.0534351,32.2519073,-12.7099237
7920,2.1140692,5.6311336,9.5983057,-11.3206110,40.9007645,-17.8396950
7930,1.4245427,5.6646523,10.3620520,-18.0381680,46.6488533,-22.5954189
7940,0.4596844,5.5090299,11.0013008,-18.5877857,45.4198456,-25.4427490
7950,-0.1244979,5.0708933,11.5639353,-13.0305347,35.6412201,-25.3969460
7960,-0.5793939,4.7740140,11.6046362,-4.8244276,21.1679382,-24.4961834
7970,-1.3072275,4.7213416,11.4609852,4.9923663,4.4045801,-20.4198475
7980,-1.3814473,4.7548604,11.1257982,12.7175570,-10.3358774,-12.9770994
7990,-1.2066715,4.8530221,10.5224628,14.4656487,-17.8244267,-4.4427481
8000,-0.9002152,5.0469513,10.0651722,9.7786255,-14.3435116,5.5190840
8010,-0.1867468,5.1522956,9.7778702,-1.2213740,-1.3740458,14.0534353
8020,0.3663110,5.3366485,10.1106625,-14.2519083,17.6030540,19.4427490
8030,0.4692611,5.1786318,10.9510221,-22.3740463,34.3969460,22.8320618
8040,0.3902529,5.1355362,11.6956158,-22.1145039,40.7480927,24.3053436
8050,0.5147507,5.1953912,11.8536320,-16.0534344,38.4580154,25.1984730
8060,0.6823440,5.1427188,11.3604288,-11.3587790,34.3129768,23.9007626
8070,0.6416427,5.3581958,11.1832590,-7.7404580,27.1832066,22.4580154
8080,0.9528874,5.4922705,11.1880474,-3.1908398,17.2900772,20.1679382
8090,1.7262106,5.9782910,10.8648319,0.3893130,8.3282442,13.9923668
8100,2.3032103,6.7971039,10.4530315,0.0763359,5.2977099,4.2748094
8110,2.0015423,7.6733770,10.3357162,-15.8091602,10.7938929,-16.6106873
8120,1.2497669,8.0516596,10.8552551,-23.1679382,10.9847326,-23.8549614
8130,-0.1819584,8.4347296,11.3053627,-26.6259537,0.2671756,-26.0305347
8140,-1.1492109,8.8992023,11.8895445,-27.8167934,-20.3587780,-21.1450386
8150,-1.5969244,9.4594421,12.7299051,-26.5114498,-42.9236641,-12.6488552
8160,-1.4413021,10.2303715,13.2997227,-23.7328243,-62.1908379,-4.3358779
8170,-0.4884146,10.7810354,13.8360205,-20.3435116,-73.3511429,3.5801528
8180,1.1061156,11.3173332,14.2526102,-20.7251911,-67.9694672,8.0916033
8190,2.3319404,11.2263546,14.8296099,-23.5343513,-43.8320618,9.4961834
8200,3.2967989,10.7116032,14.9205885,-27.2366409,-13.5496187,7.2748094
8210,3.1890604,9.9717989,14.7386303,-33.5038185,17.9465656,1.8625954
8220,2.0901275,9.1146793,14.6189203,-39.4045792,37.3435097,-2.0152671
8230,0.5961532,8.5592270,14.9062233,-42.4885483,43.4198456,-1.5877863
8240,-0.5243275,8.1761570,15.8040447,-37.4656487,37.8702278,3.4122138
8250,-0.9864060,8.3126259,16.5725803,-20.6488552,23.1679382,10.0381680
8260,-0.6823440,9.8377247,15.0067797,31.1908398,-33.7633591,17.8091602
8270,0.6991033,10.2878323,12.5383701,55.7404594,-74.8091583,15.0839691
8280,3.8570392,11.3245163,9.1697454,67.9542007,-109.1221390,2.4656489
8290,7.0652533,12.2175484,5.9351954,62.1450386,-125.2519073,-23.5190830
8300,8.7818871,12.1576939,3.4979107,41.5038185,-126.6259537,-57.8473282
8310,9.1577749,10.9773588,2.3630650,11.9770994,-114.4351120,-90.9770966
8320,8.3940287,9.4211359,2.2481439,-19.3206100,-91.5114517,-117.7709961
8330,7.3429790,7.2065101,3.0071020,-43.1526718,-63.3282433,-134.1221313
8340,6.2991123,4.1754665,3.6631098,-56.1374054,-39.5267181,-141.5572510
8350,5.2360926,1.0654143,3.8570392,-59.1984749,-22.9694653,-140.3511505
8360,4.2353210,-1.9368993,3.6655040,-54.4961815,-18.0534344,-131.0763397
8370,3.9192882,-4.9104824,3.6559272,-43.4961815,-21.4427490,-115.8244247
8380,4.1874375,-7.8888540,3.3734128,-29.6106873,-27.1832066,-98.0229034
8390,4.8889351,-10.6230183,2.6647329,-16.0763359,-34.8778610,-81.4351120
8400,5.5688848,-12.7155399,1.5969244,-8.1908398,-44.7251892,-67.1374054
8410,6.5983863,-14.3507719,0.4285599,-10.3206110,-55.2595406,-58.1526718
8420,7.5680327,-15.5095596,-1.0366840,-28.7633591,-63.7099228,-55.5190849
8430,7.3884687,-15.6388454,-2.3463056,-69.5801544,-73.2061081,-60.2900772
8440,6.4571290,-15.2701406,-2.0733681,-130.0305328,-94.0381699,-68.1679382
8450,5.7005649,-15.4927998,1.0534433,-193.6717529,-119.5572510,-74.4274826
8460,5.3438311,-16.1871147,6.2560172,-242.8549652,-131.8778687,-77.5496216
8470,4.4196739,-16.3355541,13.7187052,-250.1374054,-125.8091583,-75.6030502
8480,4.0509686,-15.2916880,19.6126022,-218.2519073,-97.5801544,-69.4122162
8490,4.6854286,-13.2901459,19.6126022,-127.2900772,-36.3816795,-63.6564903
8500,5.3510137,-11.9063044,19.6126022,-4.9694657,56.5114517,-60.3435097
8510,5.9423780,-12.2103662,19.6126022,113.2977066,150.1603088,-53.0152664
8520,5.4228392,-12.7107515,16.3164005,193.3893127,192.2748108,-40.6030540
8530,4.4555864,-12.1960011,6.8976598,229.2290039,175.8167877,-23.2595425
8540,5.4180508,-10.5224628,0.0047884,227.8167877,124.6488571,-9.0916033
8550,7.7906923,-8.1905222,-3.4548154,199.5190887,69.5572510,-7.8854961
8560,9.9263096,-5.7149301,-3.9121056,159.4809113,48.7328262,-20.3893127
8570,9.3852224,-3.6056492,-1.7549409,121.1526718,66.9770966,-38.6641235
8580,6.5959921,-1.9632354,0.9720409,97.0152664,102.6412201,-47.6793900
8590,3.1723011,-1.2258250,2.9161227,82.7557220,127.9007645,-42.2748108
8600,0.4596844,-0.5075682,3.8546450,74.7938919,144.8320618,-24.2900772
8610,-1.4676381,0.1939293,4.0126615,69.0305328,156.2595367,1.4961832
8620,-1.5993185,1.0917504,4.0318151,62.3893127,161.0915985,29.8702297
8630,-0.5362985,1.8602852,3.6032550,52.7862587,165.3053436,51.7099228
8640,0.1460456,3.0071020,2.8442972,37.9771004,169.5496216,63.4122124
8650,0.0143651,5.0301919,2.6096666,19.3740463,171.5267181,69.6870193
8660,0.0814024,6.5648675,2.6623387,-5.3740458,170.5496216,69.5954208
8670,-0.1077385,7.6015515,3.0406206,-33.4732819,174.4580078,64.9847336
8680,-0.8523315,7.7954807,3.9384418,-61.2824440,181.0000000,58.9236641
8690,-1.5801650,7.5632443,5.3390427,-82.2748108,184.2824402,54.6335869
8700,-2.0470319,7.0053983,7.0293403,-91.9007645,175.5648804,51.0228996
8710,-2.5498118,6.6582408,8.6789370,-90.5801544,154.0076294,46.2213745
8720,-3.1770895,6.9910331,10.0292597,-79.9694672,127.4503784,41.1068687
8730,-3.4476328,7.0101867,10.9175043,-64.4656525,99.8854980,36.0228996
8740,-3.3997490,7.4148049,11.2814207,-48.1297722,76.9236679,27.7404575
8750,-3.4380560,7.9343438,10.9941177,-33.5877876,58.3587799,14.6412210
8760,-4.0006905,8.1091194,10.5152798,-23.4198475,42.2748108,2.9847329
8770,-4.2185616,7.7188668,9.4211359,-21.3435116,30.9618320,-4.7404580
8780,-4.4268565,7.3525558,8.4874020,-29.1679382,25.9618320,-9.0076332
8790,-4.3646073,6.6055689,8.1977043,-41.6106873,23.4885502,-10.3969469
8800,-4.6566987,6.1817970,8.1258793,-59.5496178,24.2824421,-9.5267172
8810,-4.7955613,5.8561873,9.3517036,-74.8931274,28.3969460,-6.3282442
8820,-5.1211715,5.6454988,10.8672256,-83.2824402,32.7099228,-1.5419847
8830,-5.3366485,5.4156566,12.3683825,-82.2442780,34.1908379,5.3587785
8840,-5.0445571,4.9535780,13.2542324,-73.5877838,30.3816795,11.9618320
8850,-4.8506279,4.6519103,13.7019463,-63.1068687,24.9618320,16.3511448
8860,-4.4531922,4.7452836,13.9509420,-52.9771004,20.3664131,18.4274807
8870,-3.8091555,4.5298066,14.0562859,-42.2824440,18.1679382,17.9618320
8880,-3.2656744,4.3933377,13.7115231,-32.9465637,18.3893127,13.5725193
8890,-3.0573800,4.1994085,13.4768925,-24.9694653,19.0839691,7.9312978
8900,-3.2297616,3.9360476,13.0483322,-18.6030540,18.6488552,2.7175572
8910,-3.6463506,3.7708483,12.7418766,-12.4122133,16.1450386,-0.1755725
8920,-3.8618276,3.5769191,12.4713326,-4.5038166,9.8320608,-0.2061069
8930,-3.9073172,3.3327117,11.7818060,3.0992367,1.7404580,1.1679389
8940,-3.7852135,3.2944047,10.2543135,4.3740458,-15.3358774,7.8091602
8950,-3.2632802,3.2177906,9.9837704,-3.0916030,-17.6412220,11.0687027
8960,-2.8203552,3.0430148,10.3788109,-10.9160309,-14.0305347,13.3816795
8970,-2.3151813,2.5689652,10.9701757,-16.6946564,-8.3664122,12.8854961
8980,-2.3343346,2.2984219,11.3532467,-20.5496178,-3.0381680,11.1526718
8990,-2.4205256,2.1858950,12.1074162,-19.6793900,0.3740458,9.1832066
9000,-2.7006457,2.1427996,12.4737272,-12.8778629,1.2519084,7.3282442
9010,-3.5122759,2.2457497,12.3420467,-1.9007634,-6.1603055,6.8931298
9020,-3.9168940,2.5905130,11.5974541,8.8549614,-22.3511448,8.0229006
9030,-4.0030847,2.9664006,11.0180597,15.5419846,-36.5572510,10.4427481
9040,-3.7684543,3.3901722,10.6014709,18.3969460,-45.1603050,13.6946564
9050,-3.4667864,3.8187323,10.4650021,19.9541988,-49.6335869,16.2824421
9060,-2.9304879,3.9743545,10.2686787,18.9770985,-49.0381660,17.9694653
9070,-2.6240315,4.2161674,10.0412302,15.5419846,-44.0152664,17.6641216
9080,-2.6767037,4.7021880,10.2112179,11.5496187,-41.5190849,17.6106873
9090,-2.7389526,5.0732875,10.2471304,8.4198475,-41.8015251,17.0152664
9100,-2.6886747,5.2720051,10.5895004,6.3587785,-44.0916023,15.3816795
9110,-3.0980811,5.4228392,11.0874910,8.6412210,-54.6106873,13.8854961
9120,-3.3949606,5.3318601,11.5783005,13.6106873,-71.7557220,14.4351149
9130,-3.1507533,5.3366485,11.9613705,18.5877857,-86.3893127,17.2290077
9140,-2.5857246,5.6646523,12.9334116,25.6870232,-92.1526718,19.9541988
9150,-2.2888451,5.8729467,13.5606890,37.0152664,-92.8854980,21.0687027
9160,-2.2050486,6.2105274,13.5199881,51.7099228,-93.9923630,22.1755733
9170,-1.9345051,6.4858594,12.7658186,65.6793900,-94.5190811,22.0000000
9180,-1.5035510,6.3661499,11.4992924,75.8854980,-98.4961853,20.1297703
9190,-0.7900825,6.2679882,10.3189564,82.1297684,-111.4503784,15.3587790
9200,0.0311245,6.1147599,9.4307127,84.0916061,-131.4045868,8.9847326
9210,0.5602403,6.2991123,9.5216913,83.5267181,-156.3435059,0.9694657
9220,1.3000449,6.3805151,10.1992474,85.3740463,-190.9694672,-9.7480917
9230,2.2936335,6.8162575,11.4226780,91.1984711,-232.4961853,-25.0687027
9240,2.7197993,7.2017217,12.9118633,102.0916061,-250.1374054,-41.5572510
9250,2.9759774,7.4650826,14.3483772,115.8549652,-250.1374054,-56.9847336
9260,2.1092808,7.7571740,14.6715927,132.9084015,-250.1374054,-65.9160309
9270,0.6847382,8.5807753,12.9789009,144.2290039,-238.4580078,-66.3740463
9280,-0.2513899,9.7850523,10.3548698,144.4122162,-215.5801544,-62.5114517
9290,-0.7589580,10.7307568,7.3334022,130.6793823,-195.3740387,-55.8473282
9300,-1.2210367,11.0396080,5.1570840,105.7099228,-172.2442780,-43.7404594
9310,-1.3575054,11.0635490,3.6583214,78.6793900,-148.5648804,-26.0763359
9320,-1.3168042,11.3891592,2.3798244,50.3511467,-127.0916061,-6.5801525
9330,-0.8762733,11.6836443,1.6280488,20.9312973,-109.8778610,12.8244276
9340,0.0478838,11.1042509,1.4341195,-6.4198475,-94.2824402,28.2442741
9350,0.7206510,9.8473015,1.7860653,-27.3282452,-83.6183243,39.9312973
9360,0.7565638,8.2312231,2.3989778,-37.6488533,-79.8778610,48.9465637
9370,0.7302278,6.5265603,2.5593886,-37.8702278,-89.6870193,56.7175560
9380,1.6998745,4.7069764,2.3917952,-30.8167934,-113.4274826,62.6870232
9390,3.7564833,2.8107784,1.5514348,-21.2213745,-136.6030579,61.5648842
9400,5.7292953,-0.0622489,0.3926471,-15.3358774,-147.6946564,55.3893127
9410,8.2048874,-3.3494711,-0.4908088,-15.1526718,-137.6717529,46.5496178
9420,10.1585455,-6.9886389,-2.1882892,-29.6259537,-97.4961853,37.2137413
9430,10.5942879,-10.2519188,-3.8570392,-62.7404594,-41.6106873,29.4885502
9440,10.5440102,-14.3124647,-5.0397687,-107.7938919,11.5038166,22.9618320
9450,9.3588867,-17.0131111,-4.9583664,-161.7557220,38.7251892,22.8854961
9460,7.3812861,-18.3777981,-3.8809812,-223.1068726,29.5801525,30.8091602
9470,5.7436604,-19.2899837,-0.4812321,-250.1374054,-15.7175570,46.4427490
9480,5.0134325,-19.3330803,5.6550756,-250.1374054,-78.5190811,65.6946564
9490,5.5856438,-18.4975071,13.9868546,-250.1374054,-146.8091583,81.5267181
9500,7.2783360,-16.5079365,19.6126022,-250.1374054,-202.2061005,85.8549652
9510,10.6230183,-13.3236647,19.6126022,-175.9084015,-220.1526642,75.3587799
9520,13.4170380,-9.8616667,19.6126022,-55.2366409,-185.6870270,47.6641235
9530,15.3323889,-8.1354561,19.6126022,65.4045792,-103.7862625,12.2671757
9540,14.8559456,-8.1426382,19.6126022,160.6717529,5.7786260,-21.1145039
9550,12.5982246,-9.0620070,15.6556044,211.6259613,92.5267181,-40.3740463
9560,9.7515335,-10.3333216,6.9192076,221.0381622,153.7251892,-41.4732819
9570,7.1227136,-10.6110477,0.6129125,198.6870270,189.6335907,-26.3816795
9580,5.1570840,-9.6988611,-2.8442972,157.1526642,201.5343475,-3.9694657
9590,4.7117648,-8.4083929,-2.5809362,114.4045792,200.2442780,15.4122133
9600,5.2073622,-7.6350703,0.6344602,89.5114517,195.3053436,26.1145039
9610,5.6095858,-6.9407554,3.1842721,86.0992355,196.0229034,29.7709923
9620,5.1906028,-5.6478930,4.3837609,95.2442780,199.5114441,31.7480907
9630,4.5561423,-3.9456241,4.1227942,101.8931274,203.0305328,35.1450386
9640,3.6966286,-2.2672975,3.2632802,104.9847336,205.3129730,40.2595406
9650,2.7293761,-0.2944853,2.2984219,98.8396912,208.2366486,47.6183205
9660,1.9943599,1.4891858,1.3575054,81.2290039,207.5954132,56.3511467
9670,1.3934183,2.4923513,0.8475431,59.4198456,202.1068726,66.4580154
9680,1.5227045,3.1339941,1.6112895,35.0228996,189.3129730,78.5190811
9690,2.0302727,3.8761928,3.3015873,14.5114508,171.8473358,88.1374054
9700,3.9384418,6.1985564,7.0820122,-0.0839695,120.2900772,92.7328262
9710,5.4683285,7.6494355,9.1146793,4.5267177,98.6335907,66.2977066
9720,4.8218975,8.1258793,9.4690189,9.7328243,83.3435135,49.1145020
9730,2.4324965,8.5304966,7.8697009,4.8778625,44.2519073,12.2061071
9740,1.8722562,8.1139078,8.2096758,-4.9312978,31.1679382,8.1755724
9750,1.2282192,7.4052281,9.6773138,-9.8778629,1.3816794,3.7938931
9760,1.0199248,7.0939832,9.9023676,-5.4656487,-8.6717558,6.9465647
9770,1.1228749,6.6797886,9.7635050,-3.1679389,-13.4427481,13.6030531
9780,1.6328372,6.8785062,9.8401184,-11.4503813,-0.8167939,27.6259537
9790,2.3534882,6.9646969,10.0699606,-16.3587780,14.6183205,33.4961815
9800,3.3159523,6.8401995,9.6653433,-25.3053436,37.2748108,33.6564903
9810,3.3829896,6.9479380,9.2583303,-38.0152664,62.1832047,29.5419846
9820,2.9472473,6.7947097,9.5456333,-49.3282433,78.6030502,23.4274807
9830,2.2816625,7.2591825,9.0260944,-56.0839691,84.1526718,18.5954189
9840,2.3175755,4.8985114,10.0843258,-61.0000000,73.4045792,13.4351149
9850,1.2952565,4.5681133,10.8720140,-58.5038185,64.9389343,6.6488547
9860,0.6033357,4.8147149,11.3963413,-52.2824440,50.7328262,6.5038166
9870,1.0271072,4.4100971,11.4250717,-46.3587799,38.5648842,6.9694657
9880,1.2354017,4.4220681,11.6022425,-41.4656487,36.3664131,6.0992365
9890,1.4101776,4.3598189,11.2766323,-40.2061081,40.4809151,5.6488547
9900,1.3072275,4.3693957,11.1569233,-42.5038185,46.3435097,5.7938933
9910,0.9480990,4.2808108,11.2718439,-44.6412201,51.8473282,7.2671757
9920,0.8355721,4.3454537,11.7195578,-43.2748108,51.0228996,9.8167934
9930,0.4381367,4.5010762,12.1912127,-39.8549614,47.6793900,13.2519083
9940,1.2210367,4.7716198,12.0475616,-37.1603050,44.3893127,14.6641226
9950,1.4484847,5.1139889,11.7602587,-37.1145020,43.8625946,13.5648851
9960,1.5298871,5.2528515,12.2271252,-37.3587799,44.1374054,11.3435116
9970,1.6663558,5.2959471,12.4449968,-36.4198456,43.0916023,8.2977095
9980,1.6735384,5.4084740,12.5862541,-35.4351158,45.4961815,4.5648856
9990,1.3670821,5.5186067,12.9046812,-33.4045792,46.9312973,0.9465649
