timestamp,acclX,acclY,acclZ,gyroX,gyroY,gyroZ
0,1.1779412,1.4796091,6.4906478,3.4274809,31.5190830,14.8931293
10,0.9720409,1.4604555,6.4643116,3.9465649,30.3893127,12.2519083
20,0.9624642,1.6567791,5.9663200,2.7099237,26.8625946,8.6412210
30,0.7613522,1.8243724,5.5210009,0.6183206,21.2290077,4.0458016
40,0.4525018,1.7860653,5.2169390,-2.4198472,16.9083977,1.7251909
50,0.2633608,1.7836711,4.8482337,-7.9312978,15.5801525,2.1908398
60,0.2035061,2.3103929,4.5609307,-41.2977104,12.2290077,10.9007635
70,1.3024391,2.8203552,9.0236998,-79.3282471,14.1145039,31.4503822
80,1.6783268,2.4037662,11.0707321,-78.9694672,41.1679382,36.7404594
90,1.3527170,2.6216373,10.8983507,-76.9618301,43.9465637,43.0839691
100,2.3870070,2.6767037,11.1497402,-75.0610657,47.2213745,44.8625946
110,2.7150109,2.6407909,11.6142130,-72.2213745,54.6641235,42.1526718
120,2.8442972,2.5881188,11.5926657,-70.9083939,65.2137375,37.1832047
130,2.7102225,2.3343346,12.5575237,-69.4961853,58.8854980,32.5038185
140,2.8945751,2.0542145,13.2805691,-60.9083977,51.2061081,24.7328243
150,2.8203552,1.7980363,13.5032282,-49.7175560,41.7709923,16.7404575
160,2.4013720,1.5059452,13.4409800,-39.4732819,30.3740463,8.8167934
170,1.9416877,1.2569494,13.4960461,-30.3587780,20.6946564,3.4503818
180,1.5681942,0.9696468,13.4050665,-20.9236641,12.2137403,0.9847328
190,1.5849534,1.0127422,13.2422619,-11.9541988,-2.5267177,-0.6030535
200,1.7190280,1.2521610,12.7083578,-3.8778627,-17.7862587,-4.4122138
210,2.4372849,1.3718705,12.0044661,2.5419848,-36.2519073,-10.8473282
220,2.1212518,0.7709290,12.0044661,1.0000000,-18.9312973,-10.4961834
230,1.7142396,1.2617378,11.6836443,3.1526718,-24.1297703,-8.7862597
240,1.9345051,1.2952565,11.1928358,5.8015265,-21.6259537,-7.2061067
250,1.6783268,1.2497669,11.0539722,8.8320608,-23.0992374,-6.8320613
260,1.3287752,1.2449785,10.5392218,11.8625956,-26.1221371,-4.3664122
270,1.5777708,1.2018831,9.8712435,13.0152674,-28.1297703,-2.6183207
280,1.3239868,1.2234308,9.6270361,11.9389315,-28.3511448,-0.2824427
290,1.6639616,1.6208663,9.1960821,9.6335878,-33.3664131,0.1603053
300,1.6519908,1.7573351,9.0141230,-3.2900763,-31.6335869,-0.5190840
310,1.6424140,1.7357874,9.2439651,-5.9923663,-30.1450386,-0.5801527
320,1.5945302,1.7286048,9.4570484,-8.1755724,-29.0763359,-0.3206107
330,1.5945302,1.6879035,9.6509781,-9.2519083,-28.8091602,-0.2595420
340,1.6495966,1.6567791,9.8018112,-9.5190840,-29.2748089,-0.3435115
350,1.7309990,1.6783268,10.1034794,-8.6259546,-30.7938938,-0.2061069
360,1.7980363,1.5945302,10.4266949,-6.9541984,-32.8702278,-0.3129771
370,1.8267666,1.7453641,10.3716288,-4.0381680,-37.4961815,-0.6030535
380,2.1475880,1.8435259,10.3596573,-1.7175573,-42.6412201,-1.6030535
390,2.3032103,1.9680238,10.5176744,0.0229008,-46.5038185,-2.7480917
400,2.6096666,2.1451938,10.7331514,2.1297710,-49.4732819,-3.9007633
410,2.9496415,2.4516499,10.8073711,4.4122138,-51.2748108,-6.2748094
420,2.9759774,2.6910689,10.6493549,5.7480917,-50.5496178,-8.8702288
430,2.8514795,2.7605004,10.5727406,5.0687022,-45.4351158,-10.0687027
440,2.9448531,2.9280937,10.4434547,4.0687022,-42.0152664,-9.6641226
450,3.1339941,3.4667864,10.4434547,2.5572519,-39.0228996,-9.5801525
460,3.2704628,3.8881636,10.3045912,0.4122137,-36.9312973,-9.5648851
470,3.2010312,4.1467361,9.9215212,-1.9160305,-38.7786255,-9.4122133
480,3.5697365,4.6638808,9.6797075,-6.1908398,-44.5725174,-11.0229006
490,4.1443419,5.0517397,9.6222477,-12.4045801,-48.3511467,-14.0992365
500,4.3430595,5.2049680,9.5121145,-20.3664131,-54.1984749,-17.1755733
510,4.9176650,6.0836353,9.4139528,-30.6564884,-60.4580154,-18.5954189
520,5.7628140,6.8497758,10.1944590,-47.5648842,-53.1450386,-22.7709923
530,5.9447722,7.1370788,12.7442703,-62.0152664,-34.7709923,-28.8167934
540,5.2432747,7.1179252,15.6699696,-64.3282471,-13.1832066,-33.3740463
550,3.6774750,6.9694853,17.6140518,-52.8091621,1.8549619,-34.4809151
560,2.0613971,6.9479380,18.6052456,-31.0152664,1.1450381,-30.5267181
570,0.7900825,7.4746594,18.9428272,-6.9694657,-7.2442746,-23.4351139
580,0.0981618,8.1282730,18.6363716,18.6870232,-20.6870232,-12.3893127
590,0.2298422,8.8728657,17.4081516,42.8931313,-29.7251911,0.1603053
600,0.7996593,9.8425131,15.5813847,62.2671738,-33.3358765,10.2824430
610,1.4293311,10.7235746,12.9286232,72.4961853,-35.9160309,16.5954189
620,2.5713594,11.2143831,9.3708572,68.6717529,-40.2824440,16.9312973
630,3.7469065,11.6237898,7.0125809,51.7709923,-44.6412201,8.5419846
640,4.2616572,11.6142130,6.2009506,32.1068687,-51.9389305,-5.6870227
650,4.4531922,11.0467901,6.5433197,17.1450386,-59.7633591,-23.1984730
660,3.9647777,10.2184010,6.6486640,9.0381680,-66.1297684,-39.4809151
670,2.8012016,9.2343884,6.0237808,4.8320613,-78.5877838,-51.7480927
680,1.5107336,8.3102312,5.4850879,0.4274809,-93.4427490,-56.9389305
690,0.5339043,7.3621325,5.2576399,-4.5877862,-107.4427490,-56.6641235
700,-0.3758878,6.0932121,5.4898763,-6.8549619,-114.5648880,-49.3053436
710,-0.4979914,4.3765783,4.9607606,-6.8473282,-109.0687027,-33.7786255
720,-0.3998296,2.7509236,3.7301471,-10.3816795,-89.6793900,-12.8625956
730,0.4189832,1.1324517,2.4947455,-18.8931293,-62.4503822,9.9770994
740,1.9177457,-0.6248835,1.8411317,-28.0992374,-33.0076332,27.4885502
750,3.6248028,-3.2393384,1.4221486,-33.4885483,-5.8549619,37.7404594
760,4.9152708,-6.3230543,0.9528874,-34.7480927,9.1068707,40.7175560
770,6.4954362,-9.2224178,0.5602403,-32.4427490,7.4732823,37.0992355
780,7.7595682,-12.5263996,-0.0143651,-30.2748089,-8.3664122,26.8473282
790,8.7363977,-15.2964764,-0.9193687,-35.2061081,-33.1908379,13.7862597
800,9.4235296,-17.2477417,-1.9871773,-53.5572510,-57.7862587,-1.2061069
810,9.5480280,-18.1838684,-2.9640064,-94.6412201,-79.4580154,-15.2213745
820,9.3086090,-18.9212799,-2.4037662,-154.8015289,-99.9694672,-25.2824421
830,8.8920193,-18.6315823,1.2258250,-225.6564941,-108.9465637,-32.6335869
840,8.6741486,-18.2269650,7.1729918,-250.1374054,-75.0229034,-37.8167953
850,7.6518297,-18.3131542,14.5566721,-250.1374054,-0.8931298,-43.6335869
860,4.3957319,-17.6571465,19.6126022,-250.1374054,101.5648880,-42.3358765
870,0.1436514,-16.1176834,19.6126022,-227.3664093,191.1908417,-22.0839691
880,-1.6232605,-14.5614605,19.6126022,-109.7022934,250.1297760,12.6030531
890,-2.0709739,-14.9277716,19.6126022,25.4198475,250.1297760,55.1603050
900,-0.9911944,-14.8056679,16.4001980,129.5801544,220.8549652,97.2061081
910,1.9177457,-12.8759508,5.9854736,175.6488495,149.7404633,122.3206100
920,5.3581958,-10.2830439,-0.6991033,173.4809113,83.4809189,125.1526718
930,7.2041159,-8.1498213,-2.7054341,141.8778687,48.9465637,112.2977066
940,7.7811155,-6.4044566,-1.6041069,106.8244247,40.5496178,96.0152664
950,7.4435349,-5.7652082,0.8068419,83.2595444,44.7099228,80.2900772
960,6.5289545,-5.5832496,3.2560976,77.6870193,48.2061081,67.4122162
970,4.9990678,-5.3318601,4.8027439,85.4122162,39.6106873,58.7251892
980,3.9671719,-4.7500720,5.4491754,100.3511429,25.2061062,56.4961815
990,3.3805954,-3.6271970,5.3581958,114.0534363,12.5648851,58.4580154
1000,2.6024840,-1.6280488,4.4531922,119.8015289,7.2977099,63.3053436
1010,2.5498118,-0.0790083,3.8474624,113.9389343,1.8473282,67.1221390
1020,2.8945751,0.6775556,3.7109938,100.7328262,-1.6641221,66.0916061
1030,2.3870070,2.5953014,4.5944495,54.3129768,-14.6641226,66.8244247
1040,1.6352314,3.4356618,5.8777351,38.0687027,-18.6488552,70.9542007
1050,1.7022687,4.1898317,7.2089043,26.5343513,-29.1526718,82.5648880
1060,3.1627243,4.9727316,8.4419117,18.8702297,-31.1908398,93.9312973
1070,4.6375451,5.6766233,9.0931320,12.6793890,-22.6641216,92.7938919
1080,6.5768385,6.7659793,12.0068598,2.2977099,-11.0839691,48.9236641
1090,5.9256191,6.5313487,12.4354200,10.5343513,-21.5267181,30.6030540
1100,5.0876527,6.4882536,12.3324699,21.9007626,-36.0839691,20.3206100
1110,4.6040263,6.7348547,11.7434988,31.1145039,-47.3664131,16.7862587
1120,4.8985114,6.9311786,11.0755205,34.5877876,-50.8625946,15.4885492
1130,5.0421629,7.1969333,10.5847120,27.5801525,-43.9694672,13.7633591
1140,5.7867560,7.3693151,10.3333216,13.6870232,-30.9694653,10.6564884
1150,6.2631998,7.3645267,10.5990763,-2.4351146,-15.3587790,5.2290077
1160,6.1865854,7.0915890,11.0922794,-15.1526718,2.4351146,-0.9312977
1170,5.8154860,6.5002246,11.5064745,-20.9541988,16.4427490,-3.8931298
1180,5.7388721,6.0788469,11.4561968,-21.2519093,24.9236641,-3.0381680
1190,5.8011212,5.8992829,11.2072010,-18.9465656,31.1374054,-0.7557252
1200,5.9567432,5.9878678,10.8815908,-16.3358784,32.3053436,-0.0839695
1210,6.1698260,6.0333576,10.4195127,-14.6335878,32.5496178,-2.6488550
1220,6.1817970,5.8729467,10.0675669,-14.2290077,31.6259537,-8.0992365
1230,6.0620875,5.7508430,9.7323799,-15.1450386,26.6335869,-15.1908398
1240,6.0788469,5.5042415,9.5839405,-16.0229015,19.3511448,-23.8473282
1250,5.8178802,5.1929970,9.5288744,-16.1679382,13.6793890,-33.6030540
1260,4.9870968,4.7835903,9.7539282,-13.7480917,5.0763359,-41.3816795
1270,3.9192882,4.6088147,9.6246414,-12.7099237,-6.3816795,-45.1832047
1280,3.2560976,4.2832050,9.7658987,-11.1832066,-17.0992374,-42.0687027
1290,3.3111639,4.1539187,9.7611103,-11.6335878,-18.3740463,-34.7557259
1300,3.3758070,4.0820932,9.5216913,-15.6030531,-9.8549614,-25.6183205
1310,3.7062054,4.0054789,9.5097208,-22.5343513,0.8702290,-16.3893127
1320,4.0916696,3.9192882,9.7132263,-27.9847336,8.6641226,-11.5877867
1330,4.3837609,3.6535332,10.0340481,-30.9312973,11.4198475,-9.9694653
1340,4.5010762,3.3327117,10.1585455,-31.1221371,9.8244276,-10.7022905
1350,4.6255741,2.9951310,10.2782555,-29.6412220,4.6412215,-13.0152674
1360,4.5872669,2.8682389,10.4482431,-27.4580154,-6.2442746,-17.2671757
1370,4.3310885,2.7533178,10.8839855,-24.1450386,-19.2977104,-22.0992374
1380,4.0222383,2.6575503,11.4418316,-17.0381680,-33.4198456,-25.9770985
1390,3.8354914,2.4947455,11.6597023,-6.1145039,-45.3893127,-27.7938938
1400,3.7947903,2.4253139,11.5304165,4.4351144,-49.2595406,-27.3511448
1410,3.5984666,2.4684093,11.0539722,11.2290077,-46.6106873,-25.0763359
1420,3.4763632,2.6312141,10.5535870,15.1221371,-41.5648842,-21.9847336
1430,3.3183465,2.7437410,9.8496952,16.2290077,-38.5267181,-17.9694653
1440,3.5960727,3.0861101,9.3564920,14.2671757,-38.3587799,-13.9007635
1450,4.3215117,3.6535332,8.7723103,7.8702292,-35.7099228,-12.8396950
1460,4.9511838,4.0366035,8.7196379,-1.9160305,-25.8625946,-14.2290077
1470,5.1762376,4.2999644,9.1410151,-12.7633591,-13.7175570,-16.8015270
1480,4.9918852,4.2975702,9.6390066,-20.6946564,-3.7099237,-18.3206100
1490,4.3071470,4.3119354,10.2686787,-24.8625946,-2.0763359,-17.5954189
1500,3.6894460,4.6997938,11.0132713,-26.3664131,-7.3511453,-14.6106873
1510,3.2201848,4.9942794,11.9086981,-25.4809170,-16.7480907,-10.3893127
1520,3.1675127,5.4060798,12.9166517,-20.6335869,-24.5801525,-5.0458016
1530,2.9544299,5.8753409,13.6013899,-11.0916033,-33.5190849,0.4351145
1540,3.2967989,6.4140334,13.8168669,-0.0152672,-42.9007645,5.5038166
1550,3.6176202,7.1083484,13.4864693,10.8778629,-49.1297722,8.9160309
1560,4.2377152,7.8697009,12.5718889,16.3358784,-49.1984749,10.3664122
1570,4.7548604,8.4395180,11.4897156,17.1908398,-45.6793900,8.8854961
1580,5.5377603,9.2415714,10.3452930,11.7938929,-37.1832047,5.0458016
1590,5.3462253,10.4745789,9.0955257,-10.7480917,-10.6870232,-11.4351149
1600,4.4771342,11.3029680,9.1697454,-21.8015270,-5.6793895,-20.3206100
1610,4.0006905,11.5256281,9.4163475,-31.2061062,-6.9465647,-28.6335869
1620,3.8330972,10.4578199,9.3540983,-35.5190849,-8.7480917,-38.3358765
1630,2.5234756,9.1529865,9.1529865,-33.8244286,-16.2748089,-44.8778610
1640,1.2904681,7.6470413,8.7052727,-26.2442741,-32.4580154,-43.3740463
1650,0.6081241,5.4970589,7.7906923,-16.2900772,-47.9618340,-34.9007645
1660,0.5434810,3.2704628,6.3469963,-6.7251906,-58.6793900,-19.5343513
1670,2.4612267,-2.1427996,3.9935081,6.1679387,-55.4885483,16.8778629
1680,4.0725164,-4.9368186,3.0885043,10.8931293,-46.3816795,29.9618320
1690,6.3398137,-8.1929159,2.1811066,14.9541988,-44.0763359,34.3664131
1700,8.5664101,-12.0571384,1.0103480,16.4961834,-50.8167953,27.7862587
1710,10.3812056,-15.5215302,-0.0454896,12.7251911,-58.8778610,10.1221371
1720,11.5711174,-17.6116581,-0.8714849,-2.0763359,-73.6564865,-10.8625956
1730,12.6197729,-19.0170460,-1.4413021,-35.8778610,-90.6259537,-36.3358765
1740,12.9908724,-18.7488976,-1.5801650,-95.6564865,-93.8473282,-69.1832047
1750,11.8703909,-17.0681763,0.8116302,-170.5725250,-79.9770966,-105.4198456
1760,9.6677370,-16.4121685,7.1825686,-232.6717529,-46.6793900,-140.5648804
1770,5.9735026,-16.8910065,15.4975882,-250.1374054,-1.4274809,-165.8320618
1780,0.9624642,-17.7170029,19.6126022,-224.2061005,55.1297722,-167.8473358
1790,-2.8538737,-18.2628765,19.6126022,-143.2061005,106.5496216,-138.4045868
1800,-4.5896611,-17.5182838,19.6126022,-34.2977104,147.3358765,-88.9312973
1810,-2.8059900,-16.6659527,19.6126022,64.4580154,177.7709961,-35.2977104
1820,-0.7900825,-15.3084478,13.2111378,128.1450348,185.7938995,11.3206110
1830,1.4508789,-13.5630836,4.5920553,149.5267181,165.0915985,46.0076332
1840,3.2537034,-11.7434988,-0.6344602,138.2061005,127.6793900,69.3282471
1850,5.4276276,-9.7491398,-1.9632354,115.5801544,92.7404556,78.5648880
1860,6.9742737,-7.5512733,-0.7517755,97.4961853,70.9236679,75.3358765
1870,7.2041159,-5.2576399,1.6879035,89.5877838,66.6793900,64.8854980
1880,6.3589673,-3.0142846,3.2704628,93.3664093,66.5496216,50.7404594
1890,4.0509686,-1.7717001,3.5577655,96.5190811,58.4809151,44.0305328
1900,2.6120608,-0.7278336,3.4452386,98.2061081,36.2442741,49.3740463
1910,5.5832496,1.7597293,3.0837159,76.6335907,7.5038166,62.9923668
1920,3.5745249,4.5082588,6.7587967,0.9770992,56.2977104,82.5343475
1930,2.8371146,5.2648225,7.4243813,-13.3664122,65.5038147,97.4656525
1940,2.7221935,6.2871413,7.8960366,-27.2671757,69.1984711,108.2977066
1950,3.2752512,6.6678176,8.9949694,-36.7328262,63.3129768,109.8091583
1960,4.3598189,6.2991123,9.7730818,-40.2366409,53.4198456,102.5496216
1970,4.9104824,5.8442163,10.5296450,-40.2748108,42.6641235,89.4732819
1980,5.2648225,5.5281835,11.2359314,-36.7557259,30.7938938,75.8244247
1990,5.0708933,5.0301919,11.9230633,-29.0610695,17.0305347,63.8549614
2000,4.7740140,4.6902170,12.1122046,-17.7709923,-0.5496183,55.2213745
2010,4.7620430,4.6112089,12.1529055,-5.3893127,-17.7786255,51.0916023
2020,5.3773494,4.7141590,11.7889891,3.3435113,-22.6259537,48.3435097
2030,6.2823529,4.8458395,11.3388815,6.9541984,-13.8167934,43.7022896
2040,6.9670911,4.8051381,10.8935623,6.2748094,3.8091602,35.5801544
2050,7.3597383,4.2975702,10.0484133,1.9541985,38.8778610,7.3740458
2060,2.9304879,3.8259149,8.0779953,11.5038166,-7.5190840,-47.8091621
2070,2.6790979,3.5841017,7.5919747,8.6183205,-27.8244267,-51.0992355
2080,2.6407909,3.3662305,7.8050575,1.3893130,-40.2519073,-50.2290077
2090,2.7748656,3.4093258,8.9015961,-5.4351144,-42.7633591,-45.8473282
2100,3.3375001,3.1579359,9.9478569,-5.6870227,-37.2061081,-39.1145020
2110,4.1036406,2.8035958,10.2471304,-5.3511453,-24.9007626,-33.0763359
2120,4.4986820,3.1244173,10.3285332,-8.7328243,-6.0763359,-29.7404575
2130,4.9344244,3.6415622,10.3644457,-13.8473282,11.5496187,-29.6412220
2140,5.0445571,3.5434003,10.1776991,-19.7938938,27.4885502,-32.9083977
2150,4.5848727,3.3590479,10.2710724,-26.0992374,37.6717567,-37.6335869
2160,3.8857694,3.0837159,10.7523050,-29.1068707,39.5877876,-41.8473282
2170,3.2225790,2.8658447,11.2048063,-26.7786255,34.2900772,-45.0152664
2180,2.5665710,2.5115047,11.4945040,-20.0229015,24.6641216,-46.0534363
2190,2.1308286,2.1835008,11.4561968,-12.1297712,13.2366409,-45.6564903
2200,1.8219782,2.0039365,11.2287483,-4.3816795,2.1984732,-43.0381660
2210,1.8531027,1.7501525,10.7858238,1.0992366,-6.9007635,-39.7328262
2220,2.0350611,1.5801650,10.3285332,2.7404580,-13.2061071,-36.9160309
2230,2.0757623,1.5418580,9.9789820,0.3053435,-15.1221371,-33.4732819
2240,2.3894010,1.6232605,9.8137827,-5.8625956,-12.6335878,-29.3893127
2250,2.9687948,1.7525467,10.0196829,-12.4961834,-4.8244276,-25.8091602
2260,3.2201848,2.0661855,10.4123297,-17.8244267,5.4274807,-24.0610695
2270,3.2201848,2.2385671,10.8432837,-20.3740463,12.8778629,-23.0839691
2280,2.8802099,2.1715298,11.2072010,-19.1221371,14.5801525,-21.7251911
2290,2.3654592,2.2864509,11.4681673,-14.0305347,8.5725193,-17.9618320
2300,2.7317703,2.9807658,11.1856527,-7.4274807,-2.1297710,-14.9083967
2310,3.7708483,4.1347651,10.7020273,-4.7557254,-7.4885497,-16.1755733
2320,5.1642666,5.9998388,10.3955708,-8.3893127,-6.3893127,-23.7480907
2330,5.4180508,8.0588417,9.7419567,-20.5190830,-6.4656487,-37.5038185
2340,5.3988972,9.7491398,9.4785957,-42.5343513,-16.5801525,-50.9771004
2350,4.6207857,11.2718439,10.9390516,-68.1832047,-23.5419846,-58.5496178
2360,4.3885493,11.4585905,14.0179796,-86.9465637,-19.4656487,-58.1679382
2370,4.3478479,10.5823174,17.7960110,-90.8091583,-6.0305343,-54.3053436
2380,3.3853838,10.8265247,19.6126022,-76.5877838,9.8244276,-45.4732819
2390,2.6767037,11.0563669,19.6126022,-50.0076332,29.7480907,-34.1679382
2400,1.7645177,11.1664991,19.6126022,-19.7938938,51.3129768,-24.0229015
2410,0.7637464,11.9158812,19.0529594,3.6564887,56.0610695,-15.1526718
2420,0.4572902,12.2295198,15.9405136,15.0152674,45.0305328,-9.2748089
2430,0.5650287,12.2726154,13.6229382,16.6793900,24.3587780,-7.2061067
2440,1.4269369,12.1744537,12.9429884,18.2977104,-4.5648856,-11.3664122
2450,2.1499822,10.9965124,12.2103662,28.4351139,-38.9541969,-22.5496178
2460,2.8323262,9.9957409,10.6541433,43.8396950,-79.3664093,-37.0305328
2470,2.9975252,8.7890692,8.9566631,58.0152664,-119.8320618,-53.6793900
2480,2.0805507,7.0389171,7.3334022,66.4580154,-149.9313049,-62.8931313
2490,1.0534433,4.8937230,6.0381460,72.3816757,-170.4580078,-60.1145020
2500,0.3926471,2.6551561,4.8937230,77.1679382,-180.5954132,-45.7557259
2510,0.7781116,0.2968795,3.5529771,82.3969498,-179.2595367,-22.0687027
2520,2.4444675,-2.7724714,1.6424140,85.8244247,-166.8625946,1.3206106
2530,4.6566987,-6.2009506,-0.5219333,85.0916061,-128.5877838,16.1603050
2540,7.2496057,-9.7036495,-2.6288199,75.0763321,-86.2595444,18.2900772
2550,9.9334917,-13.9748840,-4.6973996,58.6488533,-54.9007645,4.7786260
2560,11.1712875,-18.2317524,-6.7994981,34.0610695,-37.3969460,-19.8167934
2570,10.7379398,-19.6131992,-8.0756006,-2.5343511,-33.4885483,-46.4732819
2580,9.3133974,-19.6131992,-7.8936424,-53.5038185,-64.6870193,-68.4351120
2590,7.4052281,-19.6131992,-6.1674318,-107.9083939,-142.2137451,-85.6946564
2600,6.4619174,-18.8470592,-3.3327117,-159.7862549,-240.9541931,-90.9694672
2610,6.0692701,-17.5781384,1.2449785,-209.2900696,-250.1374054,-88.7709961
2620,5.8250628,-16.1105003,7.3693151,-244.3969421,-250.1374054,-83.5648880
2630,6.2919297,-15.6579990,16.9748039,-244.6870270,-250.1374054,-76.8854980
2640,7.0125809,-14.8535509,19.6126022,-190.7099304,-250.1374054,-70.5572510
2650,8.2168579,-13.5032282,19.6126022,-91.8015289,-250.1374054,-64.4885483
2660,9.7802639,-11.9278517,19.6126022,19.7404575,-222.2137451,-63.5343513
2670,10.8815908,-11.2359314,19.6126022,116.0992355,-101.1908417,-64.6183243
2680,11.0228481,-11.2550850,18.6363716,180.3664093,34.7786255,-62.1526718
2690,10.0915089,-11.4226780,9.7371683,205.0076294,152.4656525,-52.3511467
2700,7.8050575,-11.3939476,2.2505381,196.5725250,240.5038147,-31.1450386
2710,5.8825235,-10.8337069,-2.9328821,168.7633514,250.1297760,-3.1450381
2720,3.6942344,-9.6030941,-4.6782460,131.6870270,250.1297760,27.4274807
2730,2.7485294,-7.1227136,-3.8043671,104.3129807,215.9694672,52.7175560
2740,3.3686244,-4.7261300,-2.5258698,86.9083939,165.8244324,67.6641235
2750,5.4156566,-2.9376705,-0.3399749,80.3358765,124.5419846,72.6564865
2760,6.7228842,-0.9050036,1.3335636,76.4045792,105.9923630,67.8015289
2770,6.6558466,1.6088953,2.4181314,69.5877838,104.7251892,60.9160309
2780,7.2735476,3.3853838,3.0358322,58.2595406,114.3664093,52.4198456
2790,7.5560617,5.0684991,3.2321558,39.3740463,128.7709961,41.8091621
2800,6.9120250,5.6000090,4.3693957,20.2366409,139.9313049,34.4656487
2810,6.1794028,7.3334022,9.3181858,3.3511450,91.2824402,38.7404594
2820,5.8729467,9.8568783,11.8249016,10.3435116,51.7938919,38.3053436
2830,6.3039007,7.6230993,11.1521349,9.6946564,43.1450386,3.0076337
2840,5.6622581,6.9623032,10.9462337,14.7328243,35.8015251,-5.2366414
2850,4.9559722,6.6773944,10.5751352,20.4351139,26.7099228,-10.0229006
2860,4.0892754,6.4882536,10.2016411,24.9236641,19.5725193,-10.0916033
2870,3.4883339,5.1044121,8.2000990,20.9007626,21.6564884,0.3206107
2880,3.5864959,4.7572546,8.0061693,15.8167934,18.6412220,1.2366412
2890,3.5098817,4.5058646,8.1498213,11.5572519,13.6717558,0.6717557
2900,3.8043671,4.5944495,8.1737623,9.0458012,7.7633586,-0.5801527
2910,3.8977404,4.5513539,8.6741486,7.8931298,5.4961834,-3.4809160
2920,4.0605454,4.4364328,8.9063845,7.0839696,3.6412213,-7.6335878
2930,4.1515245,4.3023586,8.9590569,6.5190840,3.6335878,-12.1679392
2940,3.7804251,4.0533628,9.2296000,7.3893127,4.4351144,-15.4961834
2950,3.2656744,3.4955165,7.7835097,8.5801525,6.4809160,-10.8778629
2960,3.4452386,3.3877780,7.7835097,1.8015267,8.2366409,-11.7404585
2970,3.8618276,2.9185169,8.2958660,-10.5801525,11.3282442,-13.1526718
2980,4.1778607,2.8442972,8.8513184,-16.0763359,14.4503813,-14.9541988
2990,4.1347651,2.8514795,9.4546537,-19.6412220,17.7175579,-17.2748089
3000,3.7612717,2.9017577,10.0891142,-19.5877857,21.0534344,-18.5419846
3010,3.5649481,2.9137285,10.5128860,-17.1832066,23.2671757,-18.2824421
3020,3.1172347,3.2225790,10.6302013,-13.0534353,23.7557259,-16.9465656
3030,2.6240315,3.5793133,10.8624372,-7.6641221,19.1297703,-13.3282442
3040,2.3510940,4.2664456,10.7475166,-1.2824427,11.3358774,-8.0152674
3050,2.3989778,4.9847026,10.6948442,4.3740458,2.8473282,-2.1145039
3060,2.5665710,6.0237808,10.5559816,8.9083967,-4.5648856,3.2061069
3070,2.9041519,7.2735476,10.4386663,10.7938929,-10.0381680,7.0916033
3080,3.5098817,9.6773138,10.6397781,8.1526718,-13.3435116,11.8778629
3090,3.9982965,10.1322098,11.1712875,7.2824426,-14.4198475,13.7022905
3100,4.7907729,10.4027529,11.7219515,9.7862597,-11.4427481,14.1068707
3110,5.1762376,10.9773588,12.5671005,15.5954199,-5.9694657,11.2519083
3120,4.6686692,11.9829178,12.5048513,24.0458012,-0.1145038,9.0763359
3130,4.0102673,12.7179346,12.2558556,24.3053436,9.8473282,10.8854961
3140,3.0980811,13.3332415,12.6006193,33.5038185,7.4503818,11.9312973
3150,2.2816625,13.9868546,11.8799677,44.2748108,-9.8549614,14.9007635
3160,1.7262106,14.3411951,10.8073711,54.6870232,-37.1526718,16.5725193
3170,1.6519908,15.0450869,9.3421268,59.0534363,-70.4427490,16.7557259
3180,1.2306134,16.0027618,8.7244263,61.0610695,-104.3206100,15.9770994
3190,1.1755470,16.5151196,8.0229292,60.5572510,-138.0610657,19.3129768
3200,1.0941446,16.2014809,6.9527264,57.5877876,-165.4351196,24.2748089
3210,1.1827296,15.3443604,5.7149301,52.2900772,-185.0152740,32.5114517
3220,1.8076130,13.9868546,4.3646073,43.5801544,-194.1908417,42.7709923
3230,2.5378408,12.5000629,2.8012016,31.7938938,-188.6335907,51.3511467
3240,2.7892308,10.4817610,1.1396341,15.2519083,-170.6793823,57.8244286
3250,3.3590479,7.8098459,-0.2489957,-5.1832061,-142.6412201,63.7786255
3260,4.0174499,4.5345950,-1.5705882,-29.6488552,-104.1221390,67.5038147
3270,5.3534074,0.6488253,-2.0518203,-56.6259537,-61.6870232,66.9770966
3280,7.2376347,-3.9192882,-1.8985922,-82.0381699,-17.2671757,59.1603050
3290,8.8680773,-8.6837254,-1.6472024,-103.8625946,30.3816795,41.4732819
3300,9.1912937,-12.9645357,-1.4006008,-120.4198456,63.9618340,16.5572510
3310,8.6166878,-17.2573185,-0.2705434,-130.2977142,60.5648842,-6.1984735
3320,7.2759418,-19.6131992,0.6679789,-136.4656525,26.4427490,-18.2442741
3330,6.1267309,-19.6131992,1.4628497,-145.0458069,-27.8702297,-17.8167934
3340,5.9950504,-19.6131992,2.7940190,-160.4885559,-87.5725174,-7.5343513
3350,7.3238254,-18.2125988,4.6662750,-183.9084015,-117.5877838,-1.0076336
3360,8.6526003,-15.0331154,7.3501616,-215.1374054,-95.2824402,-9.4427481
3370,8.4921904,-12.5838594,11.3221216,-238.2671814,-47.0000000,-31.2977104
3380,6.8952656,-11.5280218,16.7928448,-237.0839691,-7.6335878,-55.2061081
3390,4.8530221,-11.5280218,19.6126022,-202.1755676,20.9770985,-68.8015289
3400,3.1028695,-11.7099810,19.6126022,-135.0229034,36.0839691,-69.4961853
3410,2.6431851,-11.2502966,19.6126022,-52.3587799,42.0228996,-59.7786255
3420,3.5194585,-10.8624372,19.6126022,32.6412201,55.0610695,-49.6641235
3430,4.0892754,-10.2136126,16.4792061,98.6412201,74.8473282,-43.1374054
3440,4.0485744,-10.0532017,11.1928358,135.9541931,98.9236679,-35.0916023
3450,3.7445123,-9.7036495,6.4451580,148.5114441,119.6641235,-23.4274807
3460,4.0557570,-9.1553802,2.9711890,140.7938995,135.1679382,-9.2900763
3470,4.6614871,-8.7387915,0.9337339,119.9770966,147.4198456,3.6335878
3480,4.7788019,-7.5680327,0.1053443,95.6030502,161.8549652,12.7709923
3490,4.2018023,-6.4212160,1.0702027,76.3282471,168.3053436,21.8854961
3500,3.6894460,-5.6143742,2.3127871,66.9312973,164.1374054,31.1832066
3510,2.9520357,-3.6607156,3.5625539,64.6412201,154.3664093,40.3587799
3520,2.4779861,-1.3790531,4.1323709,66.9770966,139.1145020,49.0610695
3530,2.4588325,0.6296718,4.2472920,67.4503784,121.4732819,54.0916023
3540,3.1986370,2.2696917,4.0581512,62.7786255,103.4809189,52.3893127
3550,3.7636659,6.5361371,7.6422529,0.3358779,67.4427490,16.1755733
3560,4.4795284,9.0476418,10.6876621,19.0916023,17.0229015,42.3893127
3570,5.6622581,8.8441362,8.9135675,-16.1832066,56.5877876,17.5877857
3580,4.0940638,7.4602942,10.7523050,-24.7175579,31.5419846,0.0305344
3590,3.7923961,6.9694853,11.3101511,-20.0076332,10.8091602,-3.8091602
3600,3.9001346,6.8042865,11.6812506,-13.8625956,-6.6488547,-6.4961834
3610,3.8953462,6.6965480,11.7315283,-9.1679392,-17.6488552,-9.9923668
3620,4.1108232,6.4810710,11.7482872,-6.0000000,-22.1526718,-13.3435116
3630,4.1204000,6.0884237,11.5567522,-5.3435116,-20.0916023,-16.5572510
3640,4.2209558,5.5473371,11.3484583,-7.3587785,-13.2137403,-19.5648861
3650,4.0605454,4.7811961,11.2718439,-10.0839691,-6.3893127,-22.8702297
3660,3.6056492,4.0342093,11.5328102,-11.4045801,-3.8167939,-25.9465656
3670,3.2728570,3.3303175,12.0092545,-8.2137403,-5.5114503,-27.8473282
3680,2.8586621,2.6383967,12.2223368,-1.8473282,-9.5877867,-28.5038166
3690,2.4301023,2.2385671,12.2774038,5.9312978,-16.0687027,-28.2748089
3700,2.1667414,1.9392935,12.2726154,15.3435116,-22.2213745,-26.8702297
3710,1.9392935,1.7477583,11.8368731,23.4274807,-25.5038166,-24.1755733
3720,1.8818330,1.5825592,11.1664991,26.7633591,-21.1145039,-19.9312973
3730,1.7645177,1.3886299,10.4865494,25.7938938,-11.1984730,-14.3511448
3740,2.0949159,0.7972651,9.1817169,7.0839696,20.4351139,-0.4274809
3750,2.0015423,0.6392486,9.5240860,3.0229008,21.6641216,0.4045801
3760,1.9680238,0.8523315,9.4522600,4.6564884,16.9236641,-0.1603053
3770,2.0206959,0.7613522,9.0236998,6.7633586,9.8931293,-1.1679389
3780,2.1404054,0.7876883,8.7196379,6.7862597,2.2137403,-2.1755726
3790,2.3630650,0.9289455,8.1665802,4.2824426,-5.0305343,-4.1068702
3800,2.6216373,1.1683644,7.3405848,-13.4961834,-5.8702292,-6.7480917
3810,2.6862805,1.2952565,7.6853480,-24.0687027,-0.8091603,-6.3664122
3820,2.6958573,1.6591733,8.8177996,-37.4885483,12.8015270,-4.5648856
3830,2.1882892,2.3439114,9.4450769,-37.7251892,16.6030540,-1.9389313
3840,2.8419030,3.6535332,9.5169029,-34.5267181,13.0916033,10.3053436
3850,3.0717452,4.6471219,10.0555954,-35.0381660,10.8854961,7.0305343
3860,1.7621235,7.3788919,11.4131012,-18.9312973,4.9465647,11.5877867
3870,1.2330076,8.0396881,11.8871508,-11.2519083,-0.2290076,14.6259546
3880,0.9720409,8.7052727,11.9733410,-1.4198474,-10.9389315,18.4732819
3890,1.4029950,8.8393478,11.9230633,8.5725193,-23.1221371,20.0916023
3900,1.8985922,9.0644016,11.3652172,14.8778629,-36.5954208,20.1068707
3910,2.5833304,9.3540983,10.9270811,13.3358774,-41.6106873,19.7557259
3920,3.2417326,9.4618368,11.1210098,6.9236641,-35.5038185,19.0992374
3930,3.3901722,9.4522600,11.5064745,-0.2595420,-20.9007626,20.0076332
3940,3.0741394,9.4019823,11.9374285,-5.8244276,-2.4122138,23.2137413
3950,2.5953014,9.4738073,12.2917690,-9.4122133,17.1145039,29.2061062
3960,2.4995339,9.4738073,12.1098099,-14.0534353,31.0992374,34.5267181
3970,2.5976956,9.2128410,12.4186611,-18.8778629,36.7557259,35.4198456
3980,2.5138988,9.0691900,12.8639803,-20.4045811,36.6259537,32.5114517
3990,2.2792683,8.9901810,13.1464939,-16.7557259,29.4885502,27.6488552
4000,2.2864509,8.6956959,12.9238348,-9.4885492,17.5419846,20.9160309
4010,1.8626794,8.4059992,12.2343082,-1.6412214,-1.1145039,11.6793890
4020,1.8411317,9.5001440,10.4602137,11.6564884,-65.9542007,-0.0916031
4030,3.0238612,9.9574337,9.4762020,10.2061071,-86.8854980,-9.8854961
4040,4.0701222,9.1146793,8.1426382,0.5648855,-90.3816757,-23.1374054
4050,3.6248028,7.6709828,7.0676475,-12.8015270,-86.5877838,-33.8396950
4060,2.7964132,6.2009506,6.4643116,-24.0687027,-86.4351120,-37.4580154
4070,2.3127871,4.8793583,6.4882536,-28.7557259,-96.4961853,-35.2061081
4080,2.9448531,3.2824337,6.5169835,-25.6335869,-114.3053436,-31.9770985
4090,4.0773048,1.0749911,6.2584114,-14.6717558,-129.9465637,-31.3893127
4100,5.1355362,-1.4269369,5.9543490,1.8244275,-141.0458069,-32.2977104
4110,6.3326311,-3.8139439,5.5401545,19.9770985,-140.7328186,-31.8854961
4120,7.4746594,-6.2272868,4.3837609,33.7099228,-123.7175598,-33.7709923
4130,8.4155760,-9.1314383,2.6503677,40.5572510,-101.1450348,-36.7251892
4140,9.2798786,-12.2582502,0.7637464,35.6030540,-64.1755753,-38.7328262
4150,9.6677370,-15.4425220,-1.2545552,12.4045801,-18.9465656,-43.1679382
4160,8.7220325,-16.3594971,-2.8682389,-31.3435116,25.3206100,-45.1832047
4170,7.3453732,-15.3204184,-2.3103929,-89.6259537,50.8625946,-46.7709923
4180,5.8897061,-14.3771076,0.7996593,-147.3664093,48.0076332,-52.7557259
4190,4.4244623,-13.9102411,5.6143742,-188.2824402,26.4274807,-64.0916061
4200,2.6288199,-13.6851873,11.4729557,-199.1145020,-4.8091602,-74.5877838
4210,0.2298422,-13.3116932,18.1575336,-174.1984711,-43.2213745,-75.2213745
4220,-1.3886299,-13.2757807,19.6126022,-113.8396912,-88.1374054,-59.8244286
4230,-0.6033357,-13.1752243,19.6126022,-30.3587780,-98.9312973,-36.8778610
4240,1.0342898,-12.8280668,19.6126022,58.7404594,-67.9160309,-15.4656487
4250,2.7341642,-12.1026278,19.6126022,129.9923706,-26.0916023,-0.2977099
4260,3.8642218,-11.2694502,14.2669754,171.3969421,12.6183205,8.7633591
4270,4.6279683,-10.6445665,8.7866755,181.3053436,51.1526718,16.0534344
4280,4.7979555,-10.2950144,5.3414369,172.7786255,78.8702316,22.7022896
4290,4.5944495,-9.6174593,2.8562679,157.1145020,87.1603088,28.2366409
4300,4.4531922,-9.0691900,1.1755470,135.5648804,92.4656525,35.6412201
4310,4.4699516,-8.1857338,1.3144100,116.0992355,98.2595444,43.5801544
4320,4.6854286,-6.9096308,2.1763182,105.2366409,104.1221390,48.6030540
4330,4.3239059,-5.7005649,3.0669568,98.1068726,107.7175598,51.7786255
4340,3.5912843,-3.8905578,3.3805954,93.7786255,104.9770966,56.3511467
4350,2.3606708,-1.6472024,3.1028695,89.0305328,97.4198456,66.2442780
4360,3.6343796,-1.3790531,3.5434003,81.3511429,91.7251892,70.8625946
4370,3.7804251,-0.0119709,3.6631098,76.4427490,89.0992355,69.7022934
4380,2.2888451,7.4267755,6.8593526,6.6793895,48.0076332,38.5954208
4390,2.2864509,7.5560617,7.3142486,3.6641221,34.1297722,37.3435097
4400,2.7341642,7.4459291,7.5009956,-4.9770994,8.1755724,35.7328262
4410,3.2010312,8.1330614,7.7404146,-11.7709923,-2.7786260,37.8473282
4420,4.3430595,9.0452480,8.0468712,-20.9847336,-3.9923663,40.8320618
4430,6.5624733,10.4650021,9.1194677,-38.1679382,8.2366409,29.9770985
4440,6.6438756,10.5368280,9.8042059,-47.6564903,18.0152664,20.2977104
4450,6.4691000,10.1393919,10.5751352,-53.5343513,26.1374054,10.8625956
4460,5.8609757,9.3900108,11.1473465,-54.3206100,30.2366409,2.3435113
4470,5.0708933,8.7100611,11.1976242,-52.2595406,29.8396950,-3.3053436
4480,4.1108232,8.1378498,11.2574787,-50.3053436,24.8931293,-4.1755724
4490,3.5242469,7.6614060,11.4825325,-47.7557259,16.4427490,-2.4503818
4500,3.4093258,7.5321202,11.8057480,-43.5496178,4.3206105,-0.0763359
4510,3.7014170,7.3094602,11.8608141,-38.7862587,-7.9007635,0.4732825
4520,4.4460096,6.8761120,11.9470053,-35.6641235,-11.5496187,-0.8015267
4530,4.7404952,6.3805151,11.9446115,-34.4351158,-7.9312978,-4.9618320
4540,4.5298066,6.0956063,12.1505117,-32.4427490,-3.1984732,-10.2061071
4550,4.1443419,5.5497313,12.2582502,-28.2671757,0.3206107,-14.9541988
4560,3.8235207,5.1139889,11.9206696,-23.7022896,4.6946564,-19.1603050
4570,3.3686244,4.6255741,11.4226780,-20.6793900,9.4885492,-23.6946564
4580,2.5498118,4.2448978,11.1377697,-18.9770985,12.9694653,-26.7786255
4590,1.7956421,3.8977404,11.0539722,-15.3206110,11.2595415,-27.9847336
4600,1.3575054,3.5936785,10.5895004,-10.0229006,4.3740458,-27.2977104
4610,1.0318956,3.4404502,9.6509781,-6.6412215,-4.9236641,-24.7709923
4620,0.9792235,3.3207407,9.0428534,-6.4351144,-12.8931293,-21.8015270
4630,1.1923064,3.5074875,8.3126259,-10.8854961,-21.5267181,-19.2824421
4640,1.5131277,3.7038112,8.1330614,-19.2061062,-26.6183205,-17.9847336
4650,1.7214222,3.6966286,8.2431946,-26.8625946,-30.3511448,-17.9770985
4660,1.9225341,3.6439564,8.3796635,-33.9160309,-29.0916023,-17.8167934
4670,2.1140692,3.5170643,8.7004843,-40.1603050,-24.5419846,-16.2290077
4680,1.8435259,3.3901722,9.3397331,-43.1450386,-17.0381680,-12.3358774
4690,2.0039365,3.3686244,10.0196829,-41.0305328,-7.3358779,-5.5496182
4700,2.0230901,3.3279233,11.0994625,-27.4122143,12.3893127,10.5572519
4710,2.1882892,3.6104376,11.3963413,-18.7557259,13.2519083,16.7480907
4720,2.5330524,3.8570392,11.4825325,-9.9770994,10.6183205,20.1221371
4730,4.5585365,6.2057390,11.6740675,-16.6641216,7.5801525,14.0305347
4740,3.8833754,7.3357964,13.8001080,-11.0763359,-6.1832061,-1.6641221
4750,3.4667864,7.4171991,13.9940376,-1.1374046,-20.3129768,-4.7175574
4760,3.1675127,7.5823979,13.8216553,12.4656487,-36.2824440,-5.8320613
4770,3.2632802,8.1593981,13.2350798,26.2137413,-52.9541969,-4.7557254
4780,3.9839313,8.7387915,12.4545736,34.6488533,-61.5114517,-4.0610685
4790,4.3454537,9.4570484,11.3795824,33.8244286,-59.8549614,-2.1221373
4800,4.6375451,10.0077124,10.5464048,24.5267181,-46.7786255,1.8931298
4810,5.0924411,10.1226330,10.2926207,9.7480917,-22.1984730,5.3740458
4820,4.7189474,8.8034344,10.3788109,-31.9541988,57.1526718,16.3587780
4830,4.3693957,8.3389616,11.1449518,-50.9771004,83.5114517,20.4198475
4840,3.5721307,8.0013809,12.2989511,-58.9160309,87.0916061,18.4656487
4850,3.0071020,7.9702568,13.2925396,-52.5419846,64.2595444,10.7099237
4860,2.9352763,7.9175844,13.8168669,-34.3816795,24.5267181,-0.9847328
4870,3.6607156,7.8864598,12.9597473,-10.4427481,-20.3816795,-16.2366409
4880,4.9320302,7.5081782,10.7666702,10.2213745,-55.9083977,-35.4885483
4890,5.5545197,7.0556765,7.7882981,17.5572510,-79.2671738,-55.3664131
4900,5.5281835,6.3134775,5.3174949,11.5877867,-96.4580154,-74.8091583
4910,5.4156566,4.7811961,3.8666160,-1.0076336,-114.2824402,-90.9465637
4920,5.3270717,2.8538737,2.5785420,-14.2366409,-133.6030579,-101.8167953
4930,6.1889796,0.1556223,1.4820032,-28.9770985,-133.0000000,-111.0457993
4940,6.5864153,-2.9185169,0.5961532,-46.2137413,-103.4961853,-116.2366409
4950,6.6295104,-6.6438756,-0.1125269,-64.3053436,-55.6030540,-115.1526718
4960,6.3469963,-10.5344334,0.1819584,-74.5190811,-19.1450386,-113.6717529
4970,5.6431046,-13.7977142,-0.0191535,-78.1068726,-2.2061069,-110.1908417
4980,4.1826491,-16.4672356,-1.1539993,-81.1908417,-14.0458012,-100.4045792
4990,3.0621684,-17.9205074,-1.9895715,-93.6259537,-53.8091621,-83.5954208
5000,2.4205256,-17.7816448,-1.7309990,-115.0381699,-101.5267181,-62.6870232
5010,3.3446827,-16.7712975,0.1915352,-141.8473358,-130.3053436,-41.2519073
5020,5.4252334,-15.3204184,3.6846576,-171.3511505,-117.5725174,-28.3511448
5030,6.3206601,-13.9700956,7.8960366,-191.5877838,-64.5419846,-29.9770985
5040,5.2720051,-13.3811245,12.2965574,-200.4580078,-2.6030533,-38.6183205
5050,2.7533178,-13.8815107,17.4416695,-181.9541931,43.5801544,-39.8549614
5060,0.0718257,-14.2334566,19.6126022,-125.8549652,64.2748108,-27.2137413
5070,-1.1037214,-14.0898046,19.6126022,-44.2442741,52.1297722,-4.0839696
5080,-0.1460456,-13.2949343,19.6126022,39.9389305,33.1297722,17.3206100
5090,1.0893562,-12.9549589,15.8303804,104.8778610,22.3893127,31.1068707
5100,2.1835008,-12.6341381,11.3029680,151.3129730,13.1374044,40.4122124
5110,3.4763632,-12.0906563,7.3262196,175.0763397,6.5343513,46.7786255
5120,4.6279683,-11.2431135,3.2680686,177.2519073,7.7099237,50.8931313
5130,6.2943239,-10.5535870,1.1731528,162.2442780,28.8015270,52.9541969
5140,7.2591825,-9.5049324,1.0247130,144.6259613,66.8396912,51.5648842
5150,6.7061248,-7.6254935,1.0797794,126.8549652,108.1297684,51.9618340
5160,5.6742291,-5.8442163,1.2210367,109.8549652,142.8549652,55.5343513
5170,4.4196739,-3.8474624,1.7166338,98.4580154,161.7938995,59.1603050
5180,2.9568241,-1.9368993,2.1427996,85.5877838,157.1526642,60.1832047
5190,1.6759326,-0.4692611,2.9975252,78.2748108,134.4198456,62.4580154
5200,1.7429699,0.3112446,3.6008608,73.0534363,103.5114517,67.2824402
5210,3.3303175,10.6158361,8.0660238,-21.0152664,91.3358765,47.7938919
5220,2.3079987,10.8049774,9.4235296,-29.8854961,65.3206100,30.2824421
5230,1.8004304,10.4003592,10.7235746,-32.7862587,27.0076332,17.7938938
5240,2.1811066,9.5504217,11.6860390,-30.5648861,-1.1221374,9.6335878
5250,2.5689652,9.5456333,12.7442703,-26.8091602,-13.0229006,4.7557254
5260,3.5553713,9.7563219,13.1728306,-26.1526718,-5.3282442,0.5114504
5270,4.1898317,9.4187412,13.5870247,-27.8702297,16.3358784,-7.2595420
5280,3.8450682,8.9207497,13.9270000,-31.0076332,42.9312973,-15.4045801
5290,3.1746953,7.9822278,14.1616306,-32.9923668,64.1145020,-20.9694653
5300,2.3774302,6.7851329,14.2454271,-30.1603050,70.5190811,-25.3435116
5310,1.6998745,5.9256191,14.1783895,-23.9083977,63.1068687,-28.1297703
5320,1.0247130,5.0182209,14.1544485,-14.6488552,47.6641235,-29.0534344
5330,0.9121862,4.4555864,13.3978844,-5.1603055,28.8244267,-29.2366409
5340,0.5362985,4.2568688,12.8137016,1.9694656,11.3435116,-28.7938938
5350,0.3734936,4.1347651,12.4330254,6.3587785,-4.6717558,-26.1984730
5360,0.3830703,4.0030847,12.1074162,9.1679392,-15.7480917,-22.8778629
5370,0.5027798,3.8642218,11.8344784,8.0916033,-22.1526718,-19.1984730
5380,0.8068419,3.7277529,11.6764622,5.9083967,-25.9618320,-16.4732819
5390,1.2042773,3.5793133,11.9110928,5.4427481,-27.5801525,-14.8625956
5400,1.5203103,3.4069316,11.8320847,6.7633586,-26.2366409,-13.8854961
5410,1.6160779,3.2824337,11.3269100,8.2671757,-26.0076332,-13.8396950
5420,1.8746504,3.2704628,10.8337069,6.9694657,-22.9541988,-15.1755724
5430,1.8219782,2.9807658,10.6996326,4.5343513,-17.6335869,-16.2671757
5440,1.6112895,2.6886747,10.7139978,4.5725193,-12.7175570,-16.2442741
5450,1.3359578,2.3750360,10.4147243,5.2442746,-7.5496182,-15.0000000
5460,1.1324517,2.0374553,10.0532017,5.4885497,-3.5954199,-12.9465647
5470,0.8595140,1.6879035,10.0029240,6.0763359,-3.2977099,-11.1450386
5480,0.7757174,1.4413021,9.8209648,7.2671757,-4.8167939,-8.7404585
5490,0.9073978,1.2617378,9.3517036,7.3358779,-5.0992365,-7.3358779
5500,1.0869620,1.0965388,9.2559366,6.0305343,-4.5038166,-6.1832061
5510,1.2832855,0.8523315,9.2391768,5.2442746,-3.6183207,-5.6183205
5520,1.2401901,0.6919208,9.1553802,4.2900763,-3.1526718,-5.8854961
5530,1.1755470,0.5841822,9.0524302,3.2137403,-3.1068702,-5.5725193
5540,1.0414724,0.4548960,9.0308828,2.0458016,-4.0916033,-4.7938933
5550,1.0582317,0.5291159,10.0053177,2.7633588,-8.7175570,1.4885496
5560,0.8954269,0.8140244,9.9095497,5.9160304,-8.2900763,4.1908398
5570,1.2401901,1.0247130,9.6557665,6.2900763,-8.8015270,6.3587785
5580,1.5131277,1.4891858,9.4929609,4.0152674,-6.4427481,6.4045801
5590,1.5035510,2.0230901,9.6294298,1.0534351,-6.0839696,5.5038166
5600,1.1444225,3.6224086,10.7618818,-1.4427481,-13.8854961,5.4503818
5610,1.0702027,4.4747400,11.4753504,-0.9083970,-19.7404575,6.9923663
5620,0.9073978,6.4762826,12.9908724,5.0381680,-39.8549614,13.1145039
5630,1.5634058,7.7404146,13.9509420,10.6106873,-50.7022896,16.9618320
5640,2.4420733,8.6645718,14.5662489,18.2748089,-55.1832047,18.4961834
5650,3.4715748,9.5456333,14.5542774,25.2213745,-51.7175560,18.6106873
5660,4.2879934,10.1561518,13.8025026,28.0992374,-39.9618340,15.7557249
5670,4.1036406,10.3716288,12.9501705,25.6259537,-34.6793900,9.9389315
5680,3.3805954,10.8720140,12.9429884,23.9236641,-42.3053436,3.1908398
5690,2.9280937,11.4083128,12.8783455,28.0839691,-62.1832047,-4.2824426
5700,2.9424589,11.8536320,12.1074162,33.2900772,-87.7404556,-13.8931293
5710,3.1124463,11.9901009,11.4490137,33.8320618,-109.6717529,-25.7404575
5720,2.9496415,11.8153248,10.9917240,35.4656487,-128.0000000,-35.8931313
5730,2.7820482,11.7339230,9.6916790,37.1145020,-139.1755676,-42.2519073
5740,2.3510940,11.4011297,8.0732069,31.3664131,-136.1832123,-42.4274826
5750,1.5873476,11.1234045,6.8521700,16.2519093,-117.0534363,-33.5114517
5760,0.6584021,10.5272512,5.5425487,-5.5190840,-75.0687027,-14.9389315
5770,0.0981618,9.3062143,4.0174499,-32.0763359,-28.2366409,9.0000000
5780,-0.0766141,8.1091194,3.4955165,-59.2366409,6.5877862,31.0916023
5790,0.6296718,7.0796180,3.5170643,-79.3129807,23.8320618,46.8625946
5800,2.0159075,5.7795734,3.6655040,-90.9465637,30.0687027,52.5343513
5810,3.7181761,3.9767487,3.7564833,-93.2366409,27.3435116,45.7557259
5820,5.0684991,1.9345051,3.2225790,-90.1297684,18.9007626,27.7862587
5830,7.1945391,-3.8977404,0.8164186,-80.3053436,-6.8625956,-29.4656487
5840,8.2120695,-8.2743187,0.3016679,-74.6641235,-27.4503822,-63.6641235
5850,8.4155760,-13.0172081,0.0526722,-66.0534363,-53.5343513,-97.1297684
5860,7.4650826,-17.3626614,-0.2274480,-58.3664131,-85.7557220,-113.7633591
5870,5.4779053,-19.6131992,-0.3208214,-59.2213745,-130.4198456,-102.6259537
5880,4.0389977,-19.6131992,0.2035061,-76.6793900,-178.6030579,-60.6641235
5890,3.5194585,-19.6131992,1.2761030,-109.6412201,-197.1297760,-13.7251911
5900,3.7253587,-17.2668934,4.1826491,-150.8167877,-183.6564941,24.1526718
5910,5.4324160,-11.7075863,8.5688038,-194.5038147,-136.5114441,24.3206100
5920,5.6239510,-9.9430685,14.2214851,-218.4427490,-70.4656525,-1.8549619
5930,3.2967989,-11.6764622,19.6126022,-200.3893127,-15.1068707,-14.3587790
5940,0.6871324,-13.1656475,19.6126022,-136.0763397,23.9465656,-4.7938933
5950,-0.4046180,-13.0986109,19.6126022,-46.0076332,37.6870232,20.1908398
5960,1.3790531,-12.3204985,19.6126022,52.3511467,37.6030540,40.3740463
5970,3.8283088,-11.5328102,19.6126022,133.3587799,45.9007645,46.4122124
5980,5.3079181,-11.4657736,13.3500004,186.0686951,56.4198456,46.7251892
5990,6.3182659,-11.6764622,6.3302369,206.9007568,56.2900772,46.5954208
6000,6.8018923,-11.1329813,0.9552816,199.5801544,52.5954208,45.0076332
6010,6.9958215,-9.9310980,-1.9153515,171.2671814,53.7251892,41.7938919
6020,7.2160869,-9.0979195,-1.9249283,133.6870270,67.3969498,38.2595406
6030,7.3788919,-7.8792777,-0.2106887,100.7557220,89.0381699,34.0305328
6040,7.2304521,-7.6685886,2.1356170,78.1832047,115.9083939,29.2137413
6050,5.9974446,-7.2711535,4.5561423,71.0076370,132.6335907,25.5343513
6060,4.6159973,-6.5337429,6.2847471,77.6641235,129.2519073,24.1679382
6070,3.4859397,-5.6454988,6.9479380,92.2366409,108.6793900,26.5725193
6080,2.1427996,-3.7277529,6.6247220,107.4732819,74.8625946,34.1297722
6090,2.5019281,-1.7190280,5.3055239,117.2595444,35.5801544,43.2137413
6100,3.9144998,2.3726418,3.1986370,111.9160309,-8.0458012,49.1221390
6110,3.9384418,10.0651722,7.8744893,33.8931313,13.3206110,27.5343513
6120,3.8067613,9.8401184,8.0516596,10.3282442,7.7557254,15.2213745
6130,3.8714044,9.4594421,8.3700867,1.5343511,11.1374044,15.0916033
6140,4.2472920,9.5671806,9.1745338,-15.3587790,18.7404575,18.3664131
6150,4.5848727,9.3038206,9.1051025,-23.4045811,20.3129768,12.0305347
6160,4.3215117,7.4219875,9.9143381,-38.5496178,13.4427481,-7.6259542
6170,3.6655040,6.3853035,10.2662840,-44.0610695,5.5877862,-16.4656487
6180,2.8849983,5.5233951,11.1928358,-44.7404594,-5.2137403,-20.9160309
6190,2.2457497,4.8218975,12.0188313,-37.5496178,-18.2595425,-20.0916023
6200,1.9752063,4.1946201,12.1169930,-26.5190830,-29.4427490,-14.1297712
6210,2.2361729,3.7493007,11.7387114,-16.5114498,-34.6641235,-6.1908398
6220,2.8251436,3.4045374,11.2335367,-10.7786255,-33.2595406,2.0305343
6230,3.7229645,3.2225790,10.8025827,-10.1908398,-21.7862587,9.1908398
6240,4.9392128,3.2489152,10.3931761,-12.3129768,-2.8396947,13.2442751
6250,5.8322453,3.2872221,9.7970228,-16.0381680,20.6793900,10.0839691
6260,5.3246775,2.9975252,9.8616667,-25.8549614,49.9694672,-14.7099237
6270,4.2185616,2.5426292,10.3548698,-21.1526718,41.5877876,-30.8778629
6280,3.2010312,1.7597293,10.3021975,-10.4961834,20.5725193,-45.0610695
6290,2.0613971,1.2928623,9.8425131,-0.5877863,-2.4351146,-53.9236641
6300,1.2617378,1.0342898,9.4522600,3.4580152,-23.6335869,-54.0610695
6310,0.8355721,1.1420283,9.4355011,2.6793892,-34.5954208,-45.4732819
6320,1.2952565,1.5418580,9.6174593,-1.3664122,-30.7633591,-31.3511448
6330,1.8626794,2.2218077,9.8257532,-8.2519083,-10.7175570,-16.3664131
6340,2.3630650,2.8754215,10.2351599,-16.2290077,14.6641226,-4.7709923
6350,2.5043221,3.2513094,10.9270811,-19.2748089,32.9847336,2.4122138
6360,2.2720859,3.4284792,11.2718439,-14.8931293,40.3511467,8.2748089
6370,2.3989778,3.6080434,11.3556404,-6.6030536,35.3282433,12.6030531
6380,3.0885043,4.1395535,11.0874910,15.3511448,-1.9847329,12.1832066
6390,3.5960727,4.3071470,10.2064295,19.0229015,-12.0000000,11.4427481
6400,4.0773048,4.6782460,9.7754755,15.5801525,-12.4656487,10.2366409
6410,4.4412212,4.9870968,9.6749191,8.4732828,-5.0305343,7.5267177
6420,4.3933377,5.0206151,9.9430685,1.5648855,3.5190840,4.7633586
6430,4.1323709,4.7740140,10.3883877,-2.1297710,7.0000000,2.5877862
6440,3.8139439,4.5872669,10.8361015,-0.9236641,1.1603054,1.0076336
6450,3.9360476,4.4364328,10.9558105,3.8396947,-10.1221371,-0.7175573
6460,4.2784166,4.3885493,10.8911676,9.2061071,-19.2213745,-3.1297710
6470,4.3933377,4.4675574,10.6110477,11.5877867,-23.5190830,-5.8778625
6480,4.3670015,4.5226240,10.3931761,12.3740454,-26.8091602,-8.7709923
6490,4.1970143,4.8123207,10.3213511,11.5801525,-32.6412201,-11.2137403
6500,4.0102673,5.0828643,10.1082678,9.3129768,-37.1297722,-12.9923668
6510,3.5912843,5.4994531,10.0843258,4.5343513,-37.0381660,-12.1984730
6520,3.0214672,5.8705525,10.4626083,-0.7175573,-34.3129768,-6.9160304
6530,2.7796540,6.4738884,10.9031391,-5.3893127,-30.7862587,3.2366412
6540,2.9448531,7.0269461,11.4633789,-10.2137403,-23.9160309,16.4427490
6550,3.4212968,7.5273318,11.7961712,-13.5801525,-14.7175570,30.6106873
6560,4.1227942,8.2862902,12.2127600,-17.1984730,-1.3969465,41.9160309
6570,4.8266859,8.6573887,12.7945480,-18.6870232,13.0000000,49.8396950
6580,5.1929970,9.0380650,13.3691540,-15.8167934,26.6564884,53.0076332
6590,5.0684991,9.5839405,13.5606890,-7.4427481,29.6564884,50.6946564
6600,4.6231799,10.0412302,13.0267849,3.2977099,17.1297703,42.4427490
6610,3.6750808,10.5080976,11.8632088,14.2290077,-13.7633591,33.3358765
6620,3.7062054,11.0515785,10.6613255,21.8625946,-54.1603050,25.5572510
6630,4.7141590,11.1688938,9.4666252,24.4503822,-89.6183243,14.5801525
6640,5.7005649,10.9055328,8.1378498,22.1068707,-105.8015289,-0.3129771
6650,5.8490047,10.3309278,6.9910331,13.5419846,-105.1679382,-13.0000000
6660,5.4683285,9.5528164,6.1746144,-2.5877862,-85.5343475,-18.3587780
6670,4.4507980,8.4107876,5.3845320,-27.2519093,-48.3587799,-16.3893127
6680,3.0406206,7.3357964,4.9344244,-57.5114517,-0.8625954,-7.5038166
6690,1.9799947,2.8155668,7.1873569,-96.2977066,55.8167953,-2.1679389
6700,2.3917952,0.9050036,7.4219875,-79.3282471,36.2519073,-9.1374044
6710,3.4931223,-1.2952565,6.5145893,-57.5572510,13.3893127,-19.7633591
6720,4.8721757,-3.5410061,5.2001796,-37.7328262,-1.6488550,-34.0000000
6730,6.1626434,-6.2703824,3.7852135,-21.2748089,-11.9694653,-52.2748108
6740,7.3645267,-9.5887289,2.1475880,-10.6946564,-19.0458012,-72.4732819
6750,8.3078375,-12.5862541,0.8523315,-5.2213740,-21.8320618,-94.0457993
6760,8.2767134,-15.3060532,0.0718257,-5.3740458,-24.0458012,-113.1526718
6770,6.3158717,-16.2349987,0.1484398,-12.9083967,-29.8015270,-121.8625946
6780,4.0006905,-17.6763000,1.5203103,-27.0916023,-41.2213745,-112.6335907
6790,2.0302727,-17.5015240,4.5513539,-43.8702278,-56.3129768,-89.3206100
6800,0.6799498,-15.2988710,6.9814563,-60.4045792,-49.1832047,-63.5801544
6810,0.0263361,-13.1177645,9.8233595,-74.2290039,-21.1679382,-40.2977104
6820,-0.4070122,-11.3700056,12.4856977,-72.7480927,16.1068707,-23.5801525
6830,-1.0295014,-10.2758608,14.8535509,-58.5419846,50.3129768,-10.5419846
6840,-2.0326669,-9.9454632,16.8550930,-27.7328243,63.9923668,4.2824426
6850,-2.6575503,-9.7491398,17.5518036,18.2290077,50.2977104,22.1679382
6860,-2.3463056,-8.9399033,16.3355541,69.4961853,11.3511448,39.3740463
6870,-1.1085097,-8.6382351,13.5056229,113.0000000,-29.4656487,51.5572510
6880,0.3064562,-8.6406298,10.6206245,143.8015289,-69.8473282,58.9541969
6890,1.8315549,-8.8058290,8.3365679,162.9389343,-111.9770966,61.4732819
6900,3.3686244,-8.5592270,6.5481081,174.2519073,-156.6106873,59.0000000
6910,5.0708933,-8.1282730,4.8961172,178.0229034,-192.8931274,51.8015251
6920,6.7396431,-7.6877422,3.7253587,178.7480927,-203.1221313,40.7328262
6930,7.8361821,-7.0221577,1.7764885,162.0839691,-180.5572510,33.2595406
6940,8.5927458,-6.2560172,0.8690908,133.0686951,-131.1068726,33.1679382
6950,9.1841106,-5.8226686,0.9672526,98.4427490,-60.3664131,37.7786255
6960,8.6454182,-5.0277977,1.7693061,72.0992355,20.6717548,48.0992355
6970,8.2934723,-3.5649481,2.4875629,50.7938919,96.2442780,62.2748108
6980,8.2599535,-1.8650736,3.2560976,32.6870232,153.3511505,73.1450348
6990,7.8744893,-0.3184272,4.0461802,15.6335878,191.3206177,75.3358765
7000,6.0453281,1.8890154,5.1020179,-7.0687022,212.0763397,50.8702278
7010,4.0653338,3.2944047,5.8609757,-9.6183205,198.5496216,41.1221390
7020,2.1068866,4.0054789,6.1410961,-9.8778629,167.5725250,35.5419846
7030,0.3519458,4.4124913,6.8425937,-3.3282442,117.0000000,36.8167953
7040,0.3926471,5.6215568,6.6223278,8.8549614,4.9465647,65.0916061
7050,4.9751258,7.7739329,5.6431046,-12.9312973,-23.9160309,92.1755753
7060,6.7204900,9.9430685,5.9902620,-38.5877876,-2.2290077,88.6030502
7070,7.8720951,11.2886028,7.0006099,-67.2671738,16.8396950,75.3053436
7080,7.8481531,11.1329813,8.5472565,-91.6564865,22.1984730,53.2900772
7090,7.1227136,10.0196829,10.5631638,-102.1068726,14.6870232,30.6183205
7100,6.1602492,9.2296000,12.3995075,-99.2442780,-4.1679387,15.6335878
7110,5.2959471,8.3174143,13.0219965,-89.6946564,-24.2519093,11.5343513
7120,4.9224534,7.5033898,13.3069048,-79.8091583,-39.3053436,15.6793890
7130,5.4132624,7.0700417,13.8719339,-70.0534363,-47.0916023,22.4961834
7140,6.1626434,6.7396431,14.1257181,-58.5725174,-46.3664131,28.9770985
7150,6.9096308,6.3374195,14.0467091,-53.4732819,-41.0381660,32.8625946
7160,8.2958660,6.1003947,14.2741575,-48.5038185,-32.5877876,31.3969460
7170,9.4450769,5.7364779,14.8152447,-41.1679382,-22.6106873,22.3206100
7180,9.8018112,5.2432747,15.3180237,-29.5419846,-17.9770985,6.9389315
7190,9.7251978,4.5705075,15.2821112,-13.9007635,-17.9389305,-11.6030531
7200,8.7914639,3.8929520,14.3651371,0.1984733,-16.7938938,-27.1068707
7210,7.6973190,3.2489152,13.3571825,8.7557249,-11.0076332,-36.2824440
7220,6.6941538,2.7078283,12.6245613,12.1679392,-0.0992366,-40.1068687
7230,5.5353661,2.2912393,12.1098099,12.7938929,14.7480917,-39.4351158
7240,4.5369892,1.8267666,11.8225079,14.3740454,28.8625946,-33.5496178
7250,3.7636659,1.4460905,11.5830889,17.0458012,40.6259537,-24.7022896
7260,3.3518653,1.0917504,11.2167778,21.5648861,49.0687027,-14.2900763
7270,3.3255291,1.0917504,10.7546988,27.0000000,51.0687027,-5.4885497
7280,3.8163381,1.2138541,9.4642305,34.0076332,45.0916023,2.4274809
7290,4.5609307,1.4293311,8.7028790,33.2824440,42.2442741,0.5267175
7300,4.6040263,1.8650736,7.8026633,21.9923668,30.6030540,-12.9541988
7310,4.5992379,1.8339491,7.8337879,17.4503822,20.6564884,-21.2748089
7320,4.4244623,1.8483143,7.7380204,13.9007635,12.4503813,-27.9923668
7330,3.8714044,1.7453641,7.7787213,2.2061069,-14.3053436,-36.8015251
7340,4.0366035,1.6926919,7.9965930,-3.8549619,-13.7633591,-34.5725174
7350,4.3119354,2.0518203,8.0779953,-11.7862597,-6.2900763,-31.1832066
7360,4.5824785,2.4564383,8.4754305,-21.0916023,5.0305343,-29.1297703
7370,4.4005203,2.8490853,9.2870607,-28.1832066,13.7099237,-28.6335869
7380,4.1299767,3.0741394,10.1393919,-30.3435116,15.8702288,-27.9312973
7390,3.7995787,3.1866663,10.8911676,-27.5343513,10.8396950,-25.1679382
7400,3.9049230,3.6846576,11.5328102,-21.6641216,1.0458015,-19.8091602
7410,4.4388270,4.1802549,11.8344784,-14.3664122,-8.3740454,-13.5954199
7420,5.1953912,4.9296360,12.1648769,-6.1679387,-16.9007626,-9.1832066
7430,5.7460546,6.1267309,12.7873659,4.1068702,-26.0381680,-6.1297708
7440,6.2703824,7.6087341,13.2781744,17.6335869,-38.1145020,-3.5190840
7450,7.0652533,9.0069408,13.5008345,33.0000000,-47.5954208,-2.9236641
7460,7.7428088,10.0867205,13.1608591,46.2061081,-49.6335869,-5.7251906
7470,8.0803890,10.9366570,12.5024576,52.8244286,-45.3282433,-12.2061071
7480,8.0732069,11.5304165,11.4633789,53.0381660,-37.0305328,-20.4045811
7490,7.5440907,11.6812506,10.3644457,46.0839691,-26.1832066,-29.0763359
7500,6.4643116,11.6956158,9.6964674,35.7938919,-18.8854961,-35.8091621
7510,5.2576399,11.7698355,9.6294298,26.1450386,-19.3206100,-40.0305328
7520,4.1347651,11.6166077,9.4618368,19.4045811,-24.2748089,-40.6106873
7530,3.4045374,11.3556404,9.3157911,14.0381680,-29.2061062,-37.1679382
7540,2.9592183,11.2407198,9.0596132,8.7633591,-31.6259537,-31.6412220
7550,3.0094962,10.8528605,9.1577749,6.1450381,-35.3129768,-26.3435116
7560,2.8826041,10.4219065,9.0117292,8.0534353,-42.0228996,-22.0305347
7570,2.6790979,10.2710724,8.4036045,12.0763359,-52.0992355,-17.7786255
7580,2.5426292,9.9239149,7.3836803,15.5572519,-63.1908379,-13.1297712
7590,3.0166788,8.9590569,6.1506729,15.2671757,-68.5343475,-9.3435116
7600,4.0389977,6.1339135,3.3614421,-9.5648851,-37.5725174,-1.7862595
7610,3.9791429,4.3981261,2.4061604,-30.6488552,-11.9160309,1.5038168
7620,4.7428894,0.8810617,2.4684093,-55.2519073,-17.2290077,-3.7022901
7630,6.3134775,-1.7429699,2.6168492,-53.0228996,-44.7328262,-18.3969460
7640,8.0708122,-4.8961172,2.9472473,-41.6793900,-76.2900772,-40.5648842
7650,10.0627785,-8.1186962,2.6982515,-28.0229015,-100.2977066,-67.7328262
7660,11.6237898,-11.5998478,1.3934183,-26.5725193,-88.5190811,-93.6641235
7670,11.9086981,-15.4425220,-1.2976507,-46.8015251,-33.3435097,-112.1374054
7680,10.1753054,-18.0617657,-3.4093258,-87.8931274,43.1832047,-123.8625946
7690,7.3357964,-18.6627064,-3.0454090,-145.3969421,102.2595444,-127.3664093
7700,4.7572546,-18.0641594,-0.0742199,-202.2366486,126.9465637,-121.7328262
7710,3.6152260,-17.2908363,3.9911139,-241.2290039,144.8549652,-120.2061081
7720,1.4772149,-16.5270901,8.3509331,-250.1374054,162.5190887,-126.7557220
7730,-1.6711442,-16.4744167,14.8727045,-242.5419922,152.1984711,-126.1755753
7740,-4.5681133,-15.9716377,19.6126022,-187.6030579,109.1603088,-109.4122162
7750,-5.5904322,-15.2150736,19.6126022,-106.2595444,55.7557259,-78.5190811
7760,-4.7692256,-14.3723192,19.6126022,-19.6946564,15.8549614,-42.7862587
7770,-3.0238612,-13.6636391,19.6126022,56.3740463,8.0152674,-9.4580154
7780,-0.8307837,-13.0411501,17.2022514,111.1755753,11.0458012,19.0458012
7790,1.6376256,-13.0770626,12.6078014,142.8854980,21.3053436,41.2671738
7800,3.8163381,-13.3571825,9.1386213,154.1145020,42.8549614,59.3053436
7810,5.8202744,-12.6700506,6.5888095,152.8854980,63.9771004,71.3816757
7820,7.3597383,-11.2431135,4.4005203,144.3664093,72.8931274,74.3129807
7830,7.9008250,-9.5839405,3.1411765,134.6335907,78.6259537,70.4732819
7840,7.2136927,-7.9223728,2.8131726,130.6946564,81.2137375,66.2748108
7850,6.3589673,-6.4882536,2.5737536,126.6259537,76.8473282,66.5877838
7860,6.0046272,-4.9176650,2.1427996,121.5801544,75.3206100,68.9007645
7870,5.5521255,-2.4779861,1.5346755,111.4122162,81.1603088,71.4351120
7880,2.8323262,4.9080882,-0.0383070,30.8625946,96.6488571,59.8015251
7890,2.2553265,5.3725610,1.4149660,0.7709923,80.8702316,54.6793900
7900,2.4731977,5.7460546,3.3805954,-21.3893127,50.3816795,49.0610695
7910,2.4444675,5.8657641,5.0110383,-36.7022896,19.2442741,45.2290077
7920,2.5067163,5.9423780,6.6199336,-48.8167953,-2.4656489,43.4198456
7930,2.7317703,6.4379754,8.9997578,-53.9923668,-16.8473282,42.1450386
7940,3.2920105,6.5505023,11.2143831,-50.8549614,-19.6946564,38.8091621
7950,4.6375451,6.7204900,12.7610302,-38.8244286,-1.0076336,29.1679382
7960,3.9097114,7.6135225,14.3699255,-22.8702297,7.0458016,21.0687027
7970,2.5737536,7.1729918,13.3619709,2.1832061,3.5801528,11.6183205
7980,2.5689652,6.3972740,12.5240049,4.3511453,-7.3511453,9.7709923
7990,0.8666966,6.7659793,12.3875360,4.2061067,-23.2290077,16.4045811
8000,1.1875180,7.6230993,12.2223368,4.6793895,-32.9160309,23.7938938
8010,2.4851687,8.0492649,12.3971128,5.4503818,-37.7557259,26.7175579
8020,3.5864959,8.3078375,12.7730007,6.6259542,-37.6488533,25.2824421
8030,4.2544746,8.4179697,12.8711624,10.6488552,-33.9160309,19.0839691
8040,4.9463954,8.3126259,12.4976692,15.5190840,-28.3053436,10.1068707
8050,4.6040263,8.1761570,11.9541883,17.5190830,-21.2442741,-0.0610687
8060,3.8546450,7.9247670,11.3843708,17.1145039,-18.3053436,-7.5114503
8070,2.8897867,7.4626884,11.0252428,15.8320608,-17.5801525,-9.6183205
8080,1.9799947,7.3884687,10.7235746,13.3664122,-19.8473282,-5.4885497
8090,1.5634058,7.4076223,10.3524752,10.3053436,-22.0610695,3.0076337
8100,2.0446377,7.3381906,10.0148945,5.6183205,-23.3206100,12.4122133
8110,2.7461352,7.0748301,9.7778702,-0.2595420,-25.3358784,18.2366409
8120,3.4883339,7.0700417,9.9382801,-3.8702290,-28.5572510,19.5801525
8130,4.2257442,6.8689294,10.2351599,-4.7480917,-32.3969460,17.8320618
8140,4.9823084,6.9575148,10.3021975,-4.0381680,-33.0839691,12.7938929
8150,5.5473371,7.3717093,10.2495251,-3.1755726,-30.3740463,4.0229006
8160,5.5569139,7.6949248,10.0292597,-3.2442749,-24.0152664,-5.9694657
8170,5.2121506,7.6614060,9.9598284,-3.2137403,-18.0916023,-15.5648851
8180,4.8482337,6.9790621,9.9885588,-0.8549618,-11.9847326,-25.6106873
8190,3.0406206,7.5345144,9.7395630,2.3816793,-17.3664131,-28.2900772
8200,2.1092808,7.7475972,9.5097208,6.2595420,-36.4732819,-26.7022896
8210,1.3072275,8.4227581,9.2080526,8.6641226,-58.8473282,-22.4274807
8220,0.9504932,9.3780403,9.0859489,7.9923663,-82.7862625,-13.7175570
8230,1.6352314,10.1824875,9.4019823,3.7251909,-95.9236679,-2.9083970
8240,3.2752512,10.9342632,9.9430685,-4.3511453,-93.9618301,4.5954199
8250,4.5082588,11.8632088,11.0372133,-14.0992365,-73.6488571,6.1603055
8260,4.8530221,12.4856977,12.5096397,-17.9312973,-52.2290077,5.0076337
8270,4.6136031,12.8807392,13.6684275,-12.8244276,-38.2290077,1.9312977
8280,3.7349355,13.1919842,13.9126348,-2.5648854,-36.5725174,-3.1068702
8290,2.6958573,13.6205435,13.5008345,11.3587790,-51.9618340,-6.0916033
8300,2.4133430,13.7713776,12.6149845,24.3511448,-78.3664093,-4.9618320
8310,2.3726418,13.8455973,11.1664991,33.7175560,-107.9694672,-2.9007633
8320,2.4133430,14.7290535,9.8113880,40.1068687,-135.7709961,-0.3511450
8330,2.3894010,14.9397421,8.4490948,43.1679382,-162.8396912,3.3664122
8340,2.8155668,13.9796724,6.9599090,44.0687027,-184.2748108,6.1068702
8350,2.6934631,12.3061342,5.3605900,45.4198456,-197.9618378,9.1068707
8360,2.4133430,10.4410601,3.3422885,44.4503822,-207.0763397,15.4732828
8370,2.4971397,8.2431946,1.3311694,38.1450386,-206.6488495,24.6717548
8380,3.2704628,5.5712790,-0.3543400,24.0152664,-184.7175598,34.4885483
8390,4.4364328,2.4779861,-1.4987626,2.7557251,-151.9770966,42.5190849
8400,6.4044566,-1.8650736,-1.8363433,-21.3816795,-110.9847336,43.8625946
8410,9.3229742,-6.9814563,-1.9345051,-41.2366409,-41.5496178,30.3358784
8420,10.5248566,-11.8584204,-2.4755919,-61.0152664,39.5572510,8.8091602
8430,10.6421719,-16.5199070,-2.6455793,-81.8778610,100.4580154,-13.5496187
8440,9.8951855,-19.6131992,-2.4564383,-103.0610657,121.5114517,-28.1450386
8450,8.1498213,-19.6131992,-1.8171898,-127.1832047,105.7480927,-31.0916023
8460,6.8641410,-19.6131992,-0.1388630,-156.5954132,58.7557259,-22.8931293
8470,6.2201042,-19.6131992,2.5761478,-185.8167877,-4.0839696,-10.9541988
8480,6.5720501,-18.8015690,6.1195483,-211.5801544,-49.0763359,-9.0839691
8490,6.9096308,-15.8136215,11.2239599,-226.0915985,-67.0305328,-24.6488552
8500,5.9471664,-13.1417055,16.2493629,-222.1984711,-66.9465637,-48.9694672
8510,4.6734576,-12.7394819,19.6126022,-195.7251892,-66.5267181,-63.2213745
8520,4.1682839,-13.7139168,19.6126022,-139.9160309,-52.1374054,-61.6488533
8530,3.8570392,-14.1520538,19.6126022,-63.4656487,-15.7175570,-44.1755714
8540,5.4587522,-13.3643656,19.6126022,15.4351149,20.2671757,-23.4809170
8550,8.0492649,-12.9980545,19.1415443,80.7175598,66.2213745,-12.9694653
8560,10.0532017,-13.4266148,13.4337969,119.4885483,127.8244247,-9.3511448
8570,10.1848822,-13.5463238,8.5831690,139.1603088,182.3664093,-8.7480917
8580,8.9758167,-13.3547888,4.5369892,149.2366486,211.5496216,-3.5419848
8590,7.4794478,-12.7394819,1.3000449,156.9541931,212.8702240,6.2442746
8600,6.0309634,-11.2766323,-1.2234308,160.7557220,185.8396912,17.7251911
8610,5.9711084,-8.3772688,-2.9520357,155.8854980,149.7480927,25.5343513
8620,5.7747850,-4.9392128,-3.6631098,144.3511505,125.5343475,26.8015270
8630,5.1546898,-1.4867916,-3.8761928,121.8549652,112.8702316,24.9312973
8640,4.4005203,0.6727672,-3.1100521,95.1679382,102.8473282,20.5954189
8650,3.3638363,1.8507085,-1.4987626,70.3129807,91.6641235,18.9770985
8660,5.5952206,8.7747040,4.7428894,6.7099237,17.3053436,67.7404556
8670,5.3246775,9.9550400,6.4331870,-23.2595425,14.9923668,55.7557259
8680,6.0860295,8.6813307,7.9487090,-34.9771004,-12.1832066,41.7480927
8690,6.3302369,8.6430235,8.3557215,-39.9847336,-25.8549614,36.9160309
8700,6.4427638,9.2487535,9.0165176,-46.2213745,-35.0381660,34.3969460
8710,7.4483232,9.8975792,9.5408449,-55.1145020,-30.2671757,30.2519093
8720,8.3365679,10.5655584,10.6804790,-64.4732819,-22.9618320,16.4732819
8730,8.5424681,10.6828737,11.9757357,-70.6870193,-16.0152664,-5.2061067
8740,7.3764977,9.8784256,13.3571825,-71.8625946,-0.5725191,-26.1450386
8750,4.8937230,9.1146793,14.0443153,-62.2213745,6.9694657,-36.2442741
8760,3.7229645,8.9877872,13.2326851,-55.5954208,1.0076336,-41.8549614
8770,2.2960277,8.4826136,13.2829628,-51.9160309,-5.7862597,-36.6335869
8780,2.5785420,7.8984308,13.1680422,-49.1984749,-4.8091602,-28.2442741
8790,3.2369442,7.4794478,13.5942078,-47.0381660,-3.2900763,-21.5038166
8800,4.7045822,7.0820122,14.0706511,-41.7786255,0.0763359,-18.6564884
8810,6.4164276,6.7635851,13.8360205,-36.0992355,4.4503818,-21.5648861
8820,7.0628591,6.7971039,13.5175934,-32.5572510,5.4427481,-30.2671757
8830,6.7468257,6.8282285,13.6253319,-30.3511448,3.9160306,-37.8320618
8840,5.9926562,6.5624733,14.0730457,-23.4122143,-1.7022901,-40.6717567
8850,5.1355362,6.3924856,14.3579540,-11.9847326,-12.2519083,-38.7022896
8860,4.2688398,6.5050125,14.0155849,0.3129771,-26.4809170,-32.0687027
8870,4.0485744,6.5528965,13.2781744,8.5954199,-39.6412201,-20.6488552
8880,4.5441718,7.2639709,12.4904861,9.3740454,-43.0916023,-7.9923663
8890,6.8473821,10.2495251,12.3372583,-8.8244276,-12.4198475,0.5648855
8900,6.8641410,11.7099810,12.2558556,-19.0839691,7.5267177,-4.9389315
8910,5.6646523,12.4306316,12.0834742,-23.5572510,14.5496187,-10.4961834
8920,4.9128766,12.6604738,11.4322548,-19.9923668,1.1984733,-15.9541988
8930,4.3454537,13.2925396,10.3740225,-12.5877867,-25.8320618,-23.7862587
8940,3.6918402,13.5966015,8.7316093,-12.7022905,-57.9618340,-32.9465637
8950,3.0478032,13.9126348,7.7188668,-26.9618320,-83.6106873,-36.5572510
8960,4.0629396,12.9573536,8.6526003,-47.8167953,-96.5954208,-36.5572510
8970,4.6590929,11.0084829,10.6421719,-60.8091621,-104.5725174,-37.7022896
8980,3.4619980,9.7108326,12.7346935,-59.6870232,-116.3206100,-34.5343513
8990,1.8147956,9.2750902,13.4673157,-43.9236641,-118.6259537,-20.3587780
9000,1.3742647,7.7308378,11.3077564,-22.1450386,-103.0916061,-0.6946565
9010,1.2545552,5.4946647,7.2208753,-4.6412215,-83.0763321,18.7633591
9020,3.7828193,-1.0366840,0.1628049,-8.2213745,-25.6183205,47.3587799
9030,6.4786768,-5.0445571,-1.1228749,-21.1679382,18.8167934,51.2748108
9040,9.2224178,-9.3349447,-1.6495966,-32.5267181,55.2824440,38.9618340
9050,11.8727856,-14.2933111,-2.0398495,-39.4809151,79.2442780,7.4351144
9060,12.8352499,-17.7529144,-2.1260402,-45.4885483,81.5190811,-36.3740463
9070,11.4514084,-19.4168758,-2.0877333,-54.0305328,57.8931313,-78.0229034
9080,8.3988171,-19.6131992,-1.4700323,-66.9923630,1.0305344,-101.3129807
9090,5.5832496,-19.6131992,-0.0622489,-85.7175598,-78.3969498,-101.6946564
9100,4.3143296,-18.4759598,1.8914096,-108.5725174,-147.0381622,-84.4122162
9110,4.7859845,-16.3906212,5.0397687,-134.7633514,-179.1984711,-64.1297684
9120,5.7388721,-14.3292236,8.3892403,-156.1450348,-159.8396912,-55.0687027
9130,5.6526814,-13.6995516,12.1912127,-166.4045868,-100.7175598,-53.5725174
9140,3.5625539,-13.3715477,17.2860470,-149.8854980,-23.3435116,-47.0305328
9150,1.8004304,-13.3859129,19.6126022,-97.3435135,24.9618320,-26.3511448
9160,2.4660151,-14.0323448,19.6126022,-17.6488552,54.0458031,-0.5114504
9170,4.2209558,-14.2957048,18.3011837,60.8015251,72.1908417,19.1755733
9180,5.9854736,-14.3268299,12.4138727,120.4885483,78.2213745,31.5114498
9190,7.6973190,-14.2143030,6.6750002,151.5419922,85.7709961,38.1450386
9200,9.0931320,-14.1616306,2.5115047,157.2671814,108.0687027,41.5725174
9210,9.6964674,-13.0722742,0.0119709,149.3435059,140.2900696,42.0763359
9220,8.6310530,-10.8265247,-1.6017127,132.9618378,164.1374054,38.4503822
9230,6.2009506,-8.3437500,-1.5562232,115.0610657,157.6183167,32.4885483
9240,3.4165084,-5.8178802,-0.9696468,98.6030502,116.5114517,31.7251911
9250,1.7956421,-2.8299320,0.4955972,85.9465637,55.9236641,39.7404594
9260,3.9504125,-0.9576758,1.6041069,70.1832047,-4.4580154,51.9236641
9270,5.7029591,0.3758878,2.6024840,56.6412201,-30.1603050,46.3816795
9280,6.6941538,2.4708035,3.5936785,47.1908379,-28.8320618,34.5343513
9290,5.2887645,5.6167684,5.6407104,52.8015251,4.0839696,26.2671757
9300,4.4484038,8.2479830,6.8066807,90.3740463,-53.4809151,-5.2824426
9310,4.3143296,7.9008250,6.4691000,90.0534363,-61.5877876,-8.5954199
9320,3.4596038,7.9511032,6.1961622,83.1374054,-55.4122124,-0.6030535
9330,3.4260850,8.2527714,5.7532372,67.5419846,-53.2671738,14.0992365
9340,4.1275826,8.9087791,5.1906028,44.6870232,-49.3740463,26.7480907
9350,5.4970589,9.2774839,5.8083038,24.1221371,-35.5954208,37.0610695
9360,6.7133074,9.4594421,7.0245519,11.0839691,-18.4274807,40.3358765
9370,7.8888540,9.2272062,7.4459291,2.2824428,-3.6030533,34.4503822
9380,8.1737623,8.7914639,7.4650826,-6.5343513,4.1374044,23.3358784
9390,6.0429344,6.8761120,9.5025377,-28.6793900,-7.7938933,-5.7786260
9400,5.1642666,6.4020624,10.7403336,-20.6183205,-23.6564884,-12.3053436
9410,5.1546898,6.0549049,11.2502966,-6.1755724,-32.8854980,-14.2595415
9420,5.2504573,6.0405402,11.1401634,7.2748094,-26.4961834,-12.0000000
9430,5.3198891,6.3948798,10.9222927,14.7404585,-11.2748089,-7.2366414
9440,5.1307478,6.7899213,10.7092094,15.3969469,8.3664122,2.5038168
9450,4.2784166,6.2823529,10.6924505,11.3969469,25.2290077,20.5877857
9460,6.6438756,7.7906923,10.9989061,-0.9083970,60.8473282,46.2671738
9470,7.0389171,7.5584559,11.6477318,-3.7099237,62.1908379,49.8091621
9480,6.8066807,7.3022780,12.1074162,-3.1145039,48.5419846,49.1603050
9490,7.4076223,7.4195933,12.9836893,15.7557249,19.4961834,41.9847336
9500,7.6973190,9.1242561,9.0524302,-7.7251906,-1.1679389,-34.4656487
9510,5.8777351,8.5113440,10.5727406,-14.4198475,-11.1145039,-38.0687027
9520,5.0325861,8.6334467,11.4968977,-10.1603050,-27.3435116,-31.0610695
9530,4.8697815,9.6916790,12.1792421,-3.3435113,-43.0228996,-22.3969460
9540,5.0996237,11.1545286,12.3635941,3.3358779,-53.5114517,-16.6259537
9550,5.2743993,11.9302464,12.2151546,9.9236641,-63.1679382,-11.8854961
9560,6.0118098,12.5048513,11.4298601,15.1908398,-70.3435135,-7.8931298
9570,8.3293848,13.2374735,10.0699606,15.1068707,-71.7938919,-11.8015270
9580,8.3748751,15.5478659,8.4586716,5.5419846,-61.8473282,-26.0305347
9590,8.2288294,17.1376076,7.0796180,-14.7328243,-53.4503822,-42.3664131
9600,8.0420828,16.3810444,5.8729467,-38.3358765,-50.8396950,-60.3893127
9610,7.1586266,14.1736012,5.4659348,-58.1068687,-52.9923668,-76.5954208
9620,6.0381460,12.1241751,5.6909885,-69.0916061,-62.9847336,-87.9083939
9630,4.6758518,10.1058741,5.7340837,-69.1603088,-80.7480927,-92.4198456
9640,3.2321558,7.7811155,5.4084740,-59.8015251,-104.0687027,-88.4198456
9650,2.5138988,4.6566987,4.3167233,-46.9541969,-118.7404556,-74.9312973
9660,2.8538737,1.2330076,2.8634505,-35.7251892,-115.9160309,-57.6412201
9670,4.4627690,-2.8371146,1.2641320,-28.8549614,-91.4885483,-41.9083977
9680,6.4930420,-8.0779953,-0.2106887,-26.6412220,-47.2442741,-30.9312973
9690,8.5233145,-13.7258883,-1.4149660,-27.3206100,4.1145039,-24.7786255
9700,9.5073261,-18.1718979,-2.7820482,-29.8396950,35.8320618,-20.8702297
9710,9.6054878,-19.6131992,-4.5489597,-48.9160309,71.4809189,-13.9389315
9720,8.0779953,-19.6131992,-5.4850879,-92.3664093,79.2671738,-3.0000000
9730,6.1626434,-19.6131992,-4.8434453,-153.9618378,53.4045792,16.1908398
9740,4.8649931,-19.6131992,-2.0063307,-217.7328186,-0.0687023,34.4198456
9750,5.6526814,-16.7617207,3.3351059,-250.1374054,-61.3358765,37.0152664
9760,6.3733325,-15.4257622,9.4594421,-250.1374054,-103.5038147,27.3969460
9770,6.0142040,-15.1959200,17.1088772,-250.1374054,-115.4656525,18.6030540
9780,5.9160423,-13.8025026,19.6126022,-219.2442780,-101.2671738,19.4198475
9790,7.2017217,-12.2438850,19.6126022,-100.0610657,-54.6259537,24.2366409
9800,9.2200232,-10.9605989,19.6126022,47.5038185,23.2519093,19.9847336
9810,10.2543135,-11.4131012,19.6126022,179.4045868,99.6488571,5.6106873
9820,8.8776541,-12.8089132,13.7091284,250.1297760,137.1832123,-4.8396945
9830,6.4930420,-14.2023315,2.3941894,250.1297760,133.6488495,1.8473282
9840,5.0182209,-13.4218264,-6.2871413,250.1297760,100.7480927,18.8854961
9850,5.6694407,-11.1617117,-10.0460186,211.2671814,68.5343475,34.7099228
9860,7.7619624,-9.0189114,-7.9870162,151.7938995,63.8167953,41.6412201
9870,9.1386213,-7.3525558,-3.5290353,116.8702316,81.4503784,36.4503822
9880,8.4036045,-5.3534074,0.1556223,110.4580154,99.6793900,28.0916023
9890,6.3254485,-3.0118904,1.8076130,117.5038147,104.2595444,23.9007626
9900,4.1108232,-0.7589580,1.9584470,122.3969498,96.7633591,28.3511448
9910,3.2201848,1.4149660,1.5993185,117.4274826,84.2442780,38.1679382
9920,3.9312592,2.5522060,1.5035510,104.5038147,72.2671738,48.5572510
9930,7.5393028,8.5783806,6.6510582,-17.4351139,113.0763321,35.1603050
9940,6.5433197,7.5081782,8.1881275,-28.2366409,100.5725174,18.1374054
9950,3.8929520,5.6526814,10.1585455,-6.8091602,6.4351144,-10.8473282
9960,3.2201848,5.7604198,9.9239149,11.4656487,-42.4580154,-12.4351149
9970,3.8115497,6.4810710,8.8297710,21.4580154,-62.6488533,-7.5648856
9980,4.7811961,7.4483232,7.6614060,18.8091602,-58.1374054,-2.0992367
9990,6.7372489,8.0971489,6.1554613,-45.4656487,41.5877876,-22.9236641
