timestamp,acclX,acclY,acclZ,gyroX,gyroY,gyroZ
0,0.2466015,1.5945302,9.8903971,-5.8854961,23.6870232,-10.8396950
10,-0.2801202,1.4125718,10.0986910,-8.3129768,27.5267181,-8.6106873
20,-0.3232156,1.3694763,10.3357162,-7.7099237,26.3435116,-6.6488547
30,-0.1532281,1.2401901,10.6110477,-5.0839696,26.3740463,-6.0458016
40,-0.1268920,1.1156923,10.8217363,-0.5496183,24.7022896,-7.4122138
50,-0.0742199,1.0295014,11.1784706,6.0763359,21.2900772,-9.1145039
60,-0.2633608,0.9864060,10.9989061,14.3816795,18.0076332,-10.0534353
70,-0.3471575,0.9217629,10.6397781,20.2671757,14.3206110,-10.3587790
80,-0.6129125,0.9696468,10.2184010,25.0763359,9.3511448,-8.8396950
90,-0.7900825,0.9935886,9.4402885,29.8167934,-2.2977099,-4.1832061
100,-0.7661406,1.3479286,8.8369532,22.5877857,-16.3816795,9.2519083
110,-0.2130829,1.6280488,8.9782104,21.7938938,-20.3664131,11.1374044
120,-0.0574605,1.7788827,9.2056589,22.2061062,-22.9770985,10.9160309
130,0.4836263,2.2672975,8.9087791,24.0763359,-34.6183205,-2.3587787
140,0.4094064,2.3127871,8.7100611,20.3664131,-38.0916023,-4.3664122
150,0.4668669,2.2098370,9.0141230,19.4580154,-41.4427490,-6.9007635
160,0.3423691,2.3750360,9.2343884,19.9007626,-44.3435097,-8.1908398
170,0.4094064,2.2840567,9.2894554,20.8244267,-47.2137413,-9.2442751
180,0.5147507,2.2649033,9.3397331,21.5419846,-48.7022896,-10.0763359
190,0.4860204,2.2529323,9.4259243,21.9083977,-50.1145020,-10.8015270
200,0.3830703,2.1571648,9.4139528,22.7862587,-51.4885483,-10.6717558
210,0.4692611,2.2696917,9.3062143,22.7786255,-51.5190849,-8.9541988
220,0.5267217,2.2026544,9.2511482,22.1832066,-49.5725174,-7.5267177
230,0.5315101,2.2361729,9.2798786,20.3358784,-46.7022896,-6.2595420
240,0.5315101,2.1571648,9.5552101,19.0992374,-43.6335869,-3.7938931
250,0.3878587,2.1212518,9.6677370,18.8549614,-41.1068687,-1.4885496
260,0.9169745,2.4277081,9.3540983,12.2061071,-16.3664131,10.0916033
270,1.0151364,2.5282640,9.4857788,8.3053436,-5.6259542,11.9923668
280,1.0366840,2.5689652,9.4450769,7.7022901,-3.2900763,11.7251911
290,0.9840119,2.6503677,9.4187412,6.9312978,-3.2366412,10.5114508
300,1.1300575,2.5905130,9.4402885,7.4732823,-4.6412215,8.7633591
310,1.0965388,2.5881188,9.2152348,5.9160304,-6.5801525,7.0381680
320,1.1109039,2.5210814,9.3469152,3.1145039,-7.5190840,5.4122138
330,1.1037214,2.4779861,9.6150646,2.5572519,-9.6641226,4.7328243
340,1.1803354,2.5953014,9.8927908,4.4045801,-13.7480917,3.3435113
350,1.1635761,2.6934631,9.7108326,7.1832061,-17.6106873,1.4274809
360,1.2306134,2.7197993,9.6174593,7.3893127,-19.5038166,0.6106870
370,1.0366840,3.2010312,10.0053177,0.3358779,-13.2137403,-0.5343512
380,0.9959828,3.3566537,10.1322098,0.3969466,-12.6946564,-0.2519084
390,1.1683644,4.2903876,10.1322098,2.0458016,-9.2519083,3.0305343
400,1.1516051,4.5944495,10.0532017,2.0763359,-8.8931293,3.2824428
410,1.1923064,7.7428088,12.6030130,10.3282442,-13.2213745,7.6564884
420,0.8690908,8.1474266,12.5814657,16.3358784,-15.9083967,9.0534353
430,0.2106887,8.3245964,12.7730007,23.4198475,-22.0763359,15.2595415
440,-0.2298422,8.7866755,13.0818510,34.5648842,-30.2290077,26.0687027
450,-0.0239419,10.3165627,12.3923244,46.4122124,-41.7251892,37.0152664
460,0.7038917,11.4178896,11.1042509,51.0839691,-50.7022896,42.8931313
470,1.9752063,11.9302464,9.5743637,46.4961815,-58.9923668,42.5725174
480,3.2728570,12.4378138,9.0691900,36.3740463,-62.6793900,37.9312973
490,4.5729017,12.8783455,9.0236998,26.5038166,-60.5114517,28.0229015
500,5.7149301,12.7107515,9.2750902,19.0000000,-58.9389305,11.7022905
510,5.6335278,12.4234495,9.1793222,12.4045801,-61.0381660,-7.2442746
520,5.4467812,12.4737272,9.0141230,4.8854961,-62.0000000,-25.6106873
530,4.6806402,11.9182749,8.8106174,-6.4045801,-50.0000000,-39.1450386
540,2.8514795,11.4992924,8.7890692,-19.9770985,-33.1755714,-42.9083977
550,1.3838415,11.1329813,8.8824425,-32.2213745,-20.1526718,-40.0763359
560,0.3399749,11.0156660,9.1721401,-42.5267181,-9.2137403,-32.3969460
570,-0.0167593,10.3740225,9.1434097,-49.4732819,-2.5954199,-25.1297703
580,-0.5458752,9.3612804,8.6310530,-49.9847336,-4.7328243,-18.7938938
590,-0.6871324,8.4754305,7.1849627,-50.3435097,-11.2137403,-11.4122133
600,-0.4596844,7.1035600,5.2959471,-54.8854980,-15.7786255,-6.2900763
610,0.1508339,5.3151007,3.0334380,-65.3129807,-18.7404575,-4.8396945
620,0.8571198,2.1380112,0.7589580,-87.2977066,-9.8778629,-7.4961834
630,0.9768293,-0.4141948,-0.0143651,-112.4580154,-1.7175573,-13.4656487
640,1.2186425,-4.0030847,0.5650287,-127.9465637,-8.5343513,-23.7709923
650,1.6902977,-7.8840661,1.3239868,-128.8702240,-26.4885502,-37.7633591
660,1.8339491,-12.0236197,1.8411317,-119.8931274,-51.3206100,-49.3664131
670,1.8650736,-16.1081066,2.2577207,-104.4961853,-82.9236679,-52.5801544
680,1.7764885,-19.4743366,1.9799947,-88.2290039,-109.0916061,-44.8702278
690,1.3814473,-19.6131992,0.8738791,-83.1221390,-138.7862549,-22.6564884
700,1.6735384,-19.6131992,-0.2466015,-97.2290039,-169.6946564,16.7709923
710,3.4979107,-19.6131992,-0.3351865,-135.3435059,-197.0458069,65.0076370
720,8.0181408,-19.6131992,3.4667864,-183.6564941,-215.0763397,99.1297684
730,13.4960461,-18.3801918,10.8384953,-210.4732819,-204.7251892,101.5725174
740,17.3075962,-15.3443604,19.4240589,-198.8625946,-177.0305328,70.9312973
750,18.7800217,-12.7777891,19.6126022,-141.9618378,-128.2213745,15.9007635
760,17.3123837,-11.3747940,19.6126022,-52.4427490,-63.8854980,-44.0152664
770,13.5415354,-11.5926657,19.6126022,62.5038185,3.8702290,-90.6870193
780,8.4945841,-13.4194317,19.6126022,184.2595367,57.3435097,-110.6259537
790,3.9528067,-14.7913027,14.8727045,250.1297760,74.4961853,-104.4732819
800,1.0175306,-14.6859579,4.8171091,250.1297760,67.3053436,-82.5572510
810,-1.2856797,-12.8903160,-4.3957319,250.1297760,58.5877876,-50.3206100
820,-2.1691356,-9.9287033,-10.0819321,242.0381622,47.1068687,-15.2824430
830,-0.5434810,-6.7276726,-9.9310980,164.7938995,33.3358765,10.8625956
840,1.3814473,-4.5178356,-5.5090299,102.5419846,35.9083977,24.0610695
850,2.5115047,-2.7605004,-0.7469871,75.2290039,49.8167953,30.1984730
860,3.3542595,-1.1013272,2.4995339,66.1832047,66.3511429,34.4427490
870,3.7397239,-0.3758878,4.6279683,63.6030540,82.4809189,37.3664131
880,6.6271162,7.0101867,9.0596132,37.9312973,7.8015265,1.2213740
890,1.6208663,6.0453281,8.5424681,25.3358784,-9.1450386,-23.5114498
900,1.1563935,6.5313487,8.7747040,23.9770985,-29.8396950,-19.1145039
910,1.6543850,6.9455438,8.7699156,22.3053436,-50.9541969,-16.8015270
920,2.5833304,7.6661944,8.8513184,18.8167934,-66.1068726,-19.0610695
930,3.4284792,8.0995426,9.4283180,15.5343513,-65.7786255,-23.8473282
940,3.7756367,8.0301113,9.2583303,13.0000000,-48.8015251,-26.1450386
950,3.4955165,7.6733770,8.6166878,7.1755724,-18.3435116,-23.9312973
960,2.4684093,7.4411407,7.7021074,-12.1832066,30.1908398,-10.2366409
970,1.4413021,7.2112985,7.7835097,-15.4732828,37.9236641,-0.4198473
980,0.9768293,7.0724359,7.3932571,-14.7480917,30.5572510,11.8549614
990,1.4221486,7.1370788,7.1490498,-16.2213745,13.7175570,22.4198475
1000,2.4564383,7.5656385,7.8074517,-19.0534344,-1.2137405,28.0763359
1010,3.2656744,8.0157461,8.4826136,-18.6412220,-8.8473282,29.3206100
1020,4.2784166,8.2168579,8.7699156,-16.9083977,-9.4198475,26.2519093
1030,5.2360926,8.3796635,8.8273764,-17.7404575,-2.1068702,19.5343513
1040,5.6095858,8.3557215,8.8177996,-21.3053436,12.7480917,10.0610685
1050,4.1108232,7.1203194,8.6813307,-27.2213745,36.2595406,-5.1526718
1060,2.9137285,6.6271162,8.6669655,-28.0610695,34.6870232,-6.0458016
1070,2.2242019,6.2751703,8.9063845,-27.2900772,29.3969460,-1.7404580
1080,2.6096666,5.8106980,9.7443514,-23.7022896,17.7022896,13.1832066
1090,3.2776453,5.7676024,10.3452930,-18.0916023,16.6335869,19.2366409
1100,4.1323709,5.7628140,10.3692341,-11.2442751,18.8702297,22.2366409
1110,4.9463954,5.8753409,10.1250277,-7.1450381,24.4274807,20.8244267
1120,5.2863703,6.3853035,9.6414013,-5.6870227,37.4427490,7.2900763
1130,4.4436154,6.6103573,9.0476418,-5.3816795,16.9694653,-12.9465647
1140,4.6566987,6.9455438,8.0875721,-13.9847326,2.9083970,-36.8320618
1150,4.6997938,6.9575148,8.1091194,-23.8473282,3.0000000,-45.7862587
1160,4.6734576,7.1897511,8.4586716,-31.4274807,5.1603055,-52.4427490
1170,4.3382711,7.5105724,8.6310530,-41.2977104,15.5572519,-56.8244286
1180,3.2297616,7.2998838,10.0484133,-45.7709923,30.6030540,-56.4732819
1190,2.2242019,7.2519999,10.7690639,-48.4885483,34.2137413,-48.5954208
1200,1.5897418,7.2136927,10.8744087,-50.4580154,28.9465656,-41.3282433
1210,1.0989330,7.1418672,11.3795824,-48.7328262,26.4732819,-33.3129768
1220,0.5243275,7.1849627,11.9182749,-41.9312973,21.1297703,-22.8473282
1230,0.5482694,7.6614060,11.7889891,-33.7709923,15.4503813,-11.6030531
1240,0.9433106,8.0540533,11.7123747,-27.0305347,8.7251911,-2.4045801
1250,1.4820032,8.8704720,12.1241751,-19.2671757,18.3816795,2.4809160
1260,1.8961980,9.3900108,12.3157110,-15.1145039,24.8778629,4.1603055
1270,2.4348907,9.5671806,12.6748390,-12.9694653,28.2900772,1.4045801
1280,2.6814921,9.6605549,13.1369171,-8.9236641,29.1679382,-4.1755724
1290,2.2912393,9.6366129,13.3404236,-2.4045801,25.4580154,-9.0992365
1300,1.6663558,9.7611103,13.1297350,3.1984732,18.7328243,-11.0992365
1310,0.8044477,10.3955708,12.8998928,12.1145039,-13.2977095,-8.0229006
1320,1.3168042,10.3692341,12.0858688,17.7862587,-23.9541988,-7.7099237
1330,1.6112895,10.7020273,10.6541433,18.4045811,-22.4045811,-6.7557254
1340,2.0350611,10.7786407,8.7723103,12.5114508,-8.2595415,-5.2748094
1350,1.2497669,7.6135225,3.1531475,-20.8244267,26.2290077,-12.6717558
1360,0.5650287,5.3222833,1.6352314,-28.6259537,3.3740458,-19.7175579
1370,0.5841822,2.9041519,0.4908088,-33.4274826,-35.7328262,-27.4961834
1380,1.0630201,0.3184272,-0.4812321,-40.0458031,-64.6488571,-33.0610695
1390,2.0757623,-2.9065459,-1.5179161,-50.7557259,-73.2061081,-34.0381660
1400,3.0741394,-6.3541789,-1.9752063,-63.4122124,-60.6870232,-33.2213745
1410,3.8163381,-9.7658987,-2.5737536,-75.5038147,-42.5877876,-33.9847336
1420,3.9959023,-13.5511122,-3.2896163,-87.3282471,-40.6106873,-34.3969460
1430,5.4108682,-18.3466740,-5.1642666,-101.3587799,-81.0152664,-33.3969460
1440,7.4890246,-19.6131992,-6.3493905,-130.1679382,-172.1755676,-35.2366409
1450,9.5623922,-19.6131992,-4.9392128,-174.6106873,-250.1374054,-36.9847336
1460,14.2310619,-19.6131992,-0.1699875,-220.9465637,-250.1374054,-37.8549614
1470,17.4703999,-19.6131992,7.5488791,-250.1374054,-250.1374054,-41.0228996
1480,18.1048603,-19.6131992,17.7074261,-248.3511505,-225.2824402,-47.3282433
1490,15.0977583,-18.5836983,19.6126022,-196.2824402,-88.1221390,-51.6183205
1500,7.9319496,-14.2023315,19.6126022,-101.9236679,25.5801525,-39.8320618
1510,6.7133074,-16.5246964,19.6126022,36.4961815,136.3435059,-18.8778629
1520,2.9424589,-17.9851513,19.6126022,198.2061005,190.3587799,5.1679387
1530,0.8643024,-14.6284971,8.9997578,250.1297760,137.5648804,36.7709923
1540,1.9560528,-11.4633789,-1.6112895,250.1297760,82.5572510,43.0534363
1550,1.9033806,-7.0293403,-8.4706421,250.1297760,29.5343513,38.3816795
1560,2.2265961,-3.3351059,-11.9302464,215.7328186,1.8015267,39.5419846
1570,2.8227494,-0.4860204,-10.5559816,121.9236679,9.3511448,46.3664131
1580,3.4715748,1.8171898,-5.7699966,41.6488533,38.7099228,55.0687027
1590,4.1180058,2.6982515,-0.1005560,-5.9312978,75.0610657,60.5725174
1600,3.9264708,3.3973548,4.6399393,-23.3511448,95.6946564,60.7938919
1610,3.7277529,3.6583214,7.7547798,-19.4274807,97.0000000,60.2977104
1620,4.0485744,4.4795284,10.2830439,12.1755724,65.5572510,54.6488533
1630,4.2137733,5.3031297,10.5296450,24.7404575,46.4580154,49.1908379
1640,4.9056940,6.3829093,10.4626083,28.5419846,33.6335869,43.8320618
1650,5.5186067,7.1370788,10.6469603,25.0916023,28.9007626,36.0000000
1660,5.3869262,7.4555058,11.0683374,17.9923668,31.4274807,28.3893127
1670,5.3174949,7.0413113,11.3867655,11.3053436,37.3435097,25.2824421
1680,5.2408805,6.9455438,11.5543585,-0.7938932,53.8015251,23.4885502
1690,4.8266859,7.0891948,11.4274664,-5.4580154,56.3282433,18.3969460
1700,4.2329268,7.4914188,11.6261835,-9.0839691,53.7404594,12.8396950
1710,3.2201848,6.8234401,11.5830889,-7.5038166,35.0076332,-4.0610685
1720,2.6695213,6.4954362,11.1736822,-6.6183205,26.1374054,-10.1374044
1730,1.9632354,6.0501165,10.9534168,-5.7404580,19.9083977,-12.9007635
1740,1.3886299,5.5640965,10.2998028,-6.0076337,15.5267172,-12.0458012
1750,0.8930327,5.0876527,10.0316534,-9.9083967,12.2595415,-7.2137403
1760,0.5937590,4.8218975,10.2567072,-14.4198475,10.5954199,1.3893130
1770,0.5386927,4.7979555,10.7020273,-15.3969469,13.2442751,11.8702288
1780,0.9361281,4.6926112,10.7714586,-14.3893127,17.1068707,21.8702297
1790,1.4820032,4.7261300,10.8265247,-13.9389315,24.7328243,30.5496178
1800,2.4612267,4.7045822,10.6637201,-14.7938929,34.1908379,35.9465637
1810,3.2058196,4.6638808,10.4793673,-17.4656487,43.2900772,36.3435097
1820,3.8067613,4.9631548,10.2375546,-22.0000000,49.1603050,32.6106873
1830,3.8283088,5.0517397,10.4123297,-26.6946564,49.6183205,25.4885502
1840,3.4883339,5.1020179,10.8839855,-27.9770985,39.3587799,16.4732819
1850,3.1675127,5.2145448,11.5040808,-25.3206100,20.6335869,7.1145039
1860,2.9711890,5.3079181,12.2438850,-18.5954189,-2.2213740,-1.8778626
1870,2.8251436,5.3869262,12.7490587,-9.0992365,-19.8625946,-9.1679392
1880,2.9664006,5.5880380,12.7969427,0.1068702,-22.1755733,-13.7786255
1890,2.2744799,6.5050125,12.7275114,4.2290077,-28.1908398,-13.3740454
1900,2.5546002,6.6773944,12.6221666,8.4198475,-21.4656487,-11.6717558
1910,2.4037662,7.0341287,12.5120344,11.2366409,-12.6183205,-9.4656487
1920,1.9967541,7.2400289,12.3204985,14.1832066,-6.1297708,-6.7938933
1930,1.4293311,7.5129666,12.0738974,18.6259537,-7.6488547,-2.8244274
1940,1.1851238,7.8720951,11.8991213,25.1984730,-19.1679382,1.4809160
1950,1.5059452,8.5711985,11.4753504,29.0916023,-34.3587799,4.3816795
1960,1.8770446,8.9997578,11.0635490,28.3206100,-44.0305328,6.6641221
1970,2.4851687,9.4570484,11.3604288,25.1450386,-48.8167953,7.9770994
1980,2.9831600,10.0532017,12.1313581,23.7251911,-51.0839691,6.5343513
1990,3.2513094,10.4578199,12.4545736,22.3282452,-47.0076332,7.1297708
2000,3.6080434,10.8241301,12.0930510,12.3664122,-27.4351139,12.6564884
2010,3.7181761,11.2095947,12.2414904,-4.0916033,11.0839691,21.0610695
2020,3.0262554,11.5567522,13.0698805,-17.3129768,53.1145020,33.0687027
2030,2.5426292,11.9206696,13.7857428,-23.7175579,74.1908417,40.4809151
2040,2.2577207,11.8967276,14.3938665,-21.9160309,70.5343475,38.0839691
2050,1.9967541,12.2295198,14.5016060,-11.0839691,46.4580154,29.7099228
2060,1.9536586,12.2438850,13.5247765,5.1755724,11.1832066,16.0687027
2070,1.4293311,12.3899307,11.6237898,19.7633591,-31.1832066,0.4732825
2080,1.3335636,12.5814657,9.1745338,27.8778629,-71.0992355,-13.8854961
2090,1.5562232,12.0308018,6.8066807,25.1679382,-99.9083939,-25.6412220
2100,1.3503228,10.5464048,5.0684991,17.6412220,-120.8015289,-33.8167953
2110,1.4221486,9.0500364,3.4811516,8.3893127,-129.4809113,-35.9389305
2120,2.1475880,6.9455438,1.3527170,-5.6030536,-114.1908417,-35.3053436
2130,3.0166788,3.4691806,-0.8978211,-24.4427490,-79.8015289,-33.6564903
2140,4.0964580,-1.0725969,-2.6719155,-47.4351158,-51.6870232,-35.8091621
2150,5.6000090,-6.1075773,-2.6719155,-66.8015289,-42.0687027,-47.1908379
2160,6.6223278,-11.6788559,-0.9696468,-69.0457993,-58.4198456,-63.9160309
2170,6.7324610,-16.5007534,-0.4141948,-59.9312973,-90.6870193,-77.0610657
2180,6.7013364,-19.6131992,-0.9504932,-58.6106873,-121.0076370,-76.5190811
2190,6.5624733,-19.6131992,-1.7262106,-79.0534363,-138.0610657,-60.3893127
2200,6.0142040,-19.6131992,-0.4716553,-117.0381699,-144.4503784,-31.6488552
2210,6.9311786,-19.6131992,3.7205703,-171.6946564,-157.4732819,-1.4351145
2220,8.1689749,-19.6131992,11.5878773,-209.8702240,-157.6183167,17.8396950
2230,10.8791971,-18.3873749,19.6126022,-196.2213745,-131.0381622,13.2748089
2240,11.4609852,-16.1440201,19.6126022,-128.5877838,-75.7251892,-8.9389315
2250,10.2423429,-14.5614605,19.6126022,-21.4809170,0.9007633,-33.9923668
2260,8.2815018,-14.0347385,19.6126022,100.0534363,80.0076370,-51.9236641
2270,6.2943239,-14.6261034,19.6126022,197.3129730,147.8244324,-57.2137413
2280,4.4124913,-14.5399122,9.6701307,249.3511505,181.5496216,-48.6870232
2290,2.5498118,-13.8120794,0.6392486,250.1297760,200.5496216,-28.2290077
2300,0.0239419,-11.0874910,-5.3174949,242.7938995,178.7022858,2.7251909
2310,0.6200951,-8.3652983,-7.2352405,197.6335907,140.8244324,29.9923668
2320,1.0749911,-4.8602047,-6.1746144,145.3053436,88.2061081,47.5801544
2330,4.0054789,-3.9767487,-1.9249283,112.7022934,79.1450348,45.2137413
2340,3.1268115,-1.7980363,0.6823440,98.4809189,88.2290039,45.5343513
2350,4.1227942,-0.5051740,3.2537034,96.6412201,147.9084015,45.0839691
2360,1.8435259,1.9273225,4.8338685,90.3053436,142.5648804,54.5954208
2370,1.7836711,3.4165084,4.6926112,79.7022934,133.4122162,67.1679382
2380,3.1986370,4.3646073,4.8195033,72.4732819,137.2519073,79.0534363
2390,4.5872669,5.6862001,4.4795284,61.8854980,140.2061005,86.1755753
2400,5.1834202,7.0006099,4.8027439,46.4732819,126.1832047,90.7557220
2410,6.4882536,7.5656385,5.6909885,29.9160309,109.1908417,87.1679382
2420,6.5792327,8.8034344,10.1393919,29.8091602,78.6717529,22.0229015
2430,4.7213416,7.4674768,10.1082678,54.3053436,57.2595406,-12.7862597
2440,3.5649481,6.8665352,9.5073261,64.2442780,43.3358765,-22.9694653
2450,2.9233053,6.7611909,8.6502066,63.3129768,28.6412220,-29.3969460
2460,2.6575503,6.8425937,7.6781654,50.0228996,24.3358784,-34.9007645
2470,2.0183017,7.2041159,7.4028339,29.2748089,30.7099228,-37.9694672
2480,0.7445929,7.2567883,8.5496502,-2.8396947,45.4580154,-38.5114517
2490,0.3351865,7.1155310,9.3157911,-8.6793890,42.2595406,-37.6870232
2500,0.1029501,6.6821828,9.6677370,-10.0381680,35.9236641,-37.9694672
2510,-0.0718257,6.3254485,9.7132263,-9.5419846,28.4274807,-38.7938919
2520,-0.3064562,6.0285692,9.7395630,-9.2442751,25.1984730,-38.2824440
2530,-0.4333483,5.8466105,9.4498653,-10.9007635,26.5419846,-35.0228996
2540,-0.7685348,5.9399838,9.4019823,-14.0076332,32.9007645,-29.7404575
2550,-0.7206510,5.8370337,9.0955257,-17.4122143,41.7175560,-23.4427490
2560,-1.0414724,5.8370337,8.5951405,-23.4885502,48.0610695,-18.4580154
2570,-1.0079538,5.9615316,8.5735922,-29.6870232,50.0687027,-13.4122133
2580,-1.0199248,5.9112539,8.5855637,-33.7938919,46.9847336,-9.6030531
2590,-1.0941446,6.0189924,8.7435799,-35.6183205,39.5419846,-6.9236641
2600,-0.9217629,6.3350253,8.8369532,-35.5190849,32.0610695,-4.4274807
2610,-0.6847382,6.4643116,8.7579451,-36.5496178,25.6183205,-2.7633588
2620,-0.5961532,6.4451580,8.9279327,-37.9465637,15.1679392,-2.9160306
2630,-0.3639168,6.3685441,9.3684635,-35.2061081,4.0610685,-3.4122138
2640,-0.2681492,6.0860295,9.8449068,-29.1450386,-6.5343513,-4.6564884
2650,-0.2561783,5.8059096,9.9741936,-21.6488552,-14.7709923,-5.1145039
2660,-0.2011119,5.6598639,9.8233595,-16.0610695,-19.5648861,-3.2213740
2670,0.1388630,5.7316895,9.6892843,-14.3816795,-20.5190830,-1.6564885
2680,0.5003856,5.8537931,9.8113880,-13.8854961,-17.6564884,-1.6564885
2690,1.1803354,5.3558016,10.0795374,-13.1603050,-14.3282442,-3.7480917
2700,0.3782819,6.1794028,9.8999729,-9.6259546,-11.2900763,-6.8244276
2710,0.7613522,5.7843618,9.7706871,-11.6259546,-14.1908398,-9.6793890
2720,0.5147507,5.4659348,9.9334917,-14.4580154,-14.7022905,-12.5190840
2730,0.3543400,5.1139889,10.2399483,-16.2366409,-14.2213745,-13.7938929
2740,0.2370248,4.7309184,10.5895004,-15.7938929,-13.3206110,-14.3435116
2750,-0.1532281,4.4986820,11.0970678,-12.1526718,-12.7099237,-13.1221371
2760,-0.5171449,4.4771342,11.2981796,-6.5877862,-12.9618320,-9.1679392
2770,-0.7469871,4.4484038,11.1593170,0.4961832,-11.6717558,-3.3129771
2780,-0.0071826,5.3725610,9.8042059,6.5038166,5.6030536,12.1984730
2790,-0.1005560,5.6047974,9.4666252,4.7557254,4.0076337,13.0839691
2800,-0.0407012,6.6151457,9.5623922,1.9770992,-12.4274807,15.6030531
2810,-0.0454896,7.1873569,10.3907824,5.8091602,-19.8320618,18.8320618
2820,-0.0047884,7.1921453,10.6876621,11.0000000,-23.7480907,22.0916023
2830,0.0694315,7.2448173,10.7570934,16.3511448,-26.9847336,26.2213745
2840,0.3926471,7.6159167,10.4602137,20.8778629,-29.8015270,30.9465656
2850,0.6177009,8.2838955,10.0172882,23.8244267,-30.8702297,34.7404594
2860,1.3814473,9.2583303,9.3205795,21.7557259,-28.6946564,36.9007645
2870,2.0781565,10.0795374,8.7459745,15.5877867,-22.8778629,35.7480927
2880,2.5522060,10.4697905,8.7268209,5.8015265,-13.2366409,32.6106873
2890,2.3630650,10.5559816,8.9734221,-3.1984732,-2.9465649,28.5725193
2900,1.7549409,10.9390516,10.2638903,-12.9236641,-0.5725191,22.8091602
2910,1.4125718,11.1664991,11.2167778,-11.3893127,-7.7709923,20.8091602
2920,1.1085097,11.7219515,11.6573086,-6.6717558,-17.9694653,19.8854961
2930,0.8140244,12.5431585,11.9781294,-0.1526718,-31.7480907,19.4274807
2940,0.9672526,13.2183199,11.6956158,8.6870232,-49.2137413,17.5877857
2950,1.5107336,13.6684275,10.6373835,16.9541988,-72.8549652,12.9160309
2960,2.3367288,13.9485474,8.7938576,18.1068707,-93.1755753,4.7099237
2970,2.8514795,13.4553452,7.1035600,11.3893127,-108.5572510,-6.2671757
2980,2.6719155,12.6580801,5.6814117,1.1984733,-124.3664093,-15.5801525
2990,2.3319404,11.6405487,4.3837609,-7.9160304,-141.4351196,-21.9541988
3000,2.8490853,10.5248566,2.6910689,-15.5496187,-161.4885559,-30.3129768
3010,2.9879484,8.5304966,0.7924767,-25.6793900,-190.5038147,-45.5267181
3020,2.5857246,5.6239510,-0.6248835,-38.8167953,-235.6030579,-60.8320618
3030,2.4708035,1.9895715,-1.5729824,-53.6259537,-250.1374054,-69.5877838
3040,2.9687948,-1.8602852,-1.9680238,-75.1908417,-250.1374054,-70.5572510
3050,3.2249732,-6.2608056,-2.0805507,-107.8091583,-250.1374054,-62.3053436
3060,3.0454090,-10.3237448,-1.0630201,-144.2137451,-188.6870270,-44.9541969
3070,2.8107784,-13.6947641,1.5586174,-169.2595367,-100.0457993,-23.1145039
3080,2.9640064,-17.2357693,4.0461802,-181.4045868,-20.8091602,1.8167939
3090,3.2345500,-19.6131992,5.3701668,-191.8244324,40.1450386,28.2595425
3100,3.1746953,-19.6131992,6.9599090,-201.7862549,65.8396912,52.9923668
3110,3.9001346,-19.6131992,10.5057030,-202.0839691,45.8549614,72.5801544
3120,6.5409255,-18.7225609,14.7601776,-185.7786255,1.1679389,80.1145020
3130,10.0412302,-16.4121685,19.6126022,-148.8854980,-42.4885483,68.0916061
3140,12.3827477,-13.4792862,19.6126022,-86.1068726,-73.1755753,37.9618340
3150,13.6157551,-11.5352049,19.6126022,0.0229008,-73.5572510,-1.3740458
3160,13.0842457,-10.8552551,19.6126022,89.9770966,-34.0076332,-39.3358765
3170,9.8640604,-11.1784706,18.0904961,164.5801544,19.4198475,-63.6488533
3180,6.2201042,-11.2814207,9.6102762,202.1297760,51.8091621,-69.7938919
3190,3.1076579,-10.8313131,2.5809362,202.5038147,67.1908417,-62.1908379
3200,1.1970947,-9.3947992,-1.3838415,173.2900696,72.0610657,-44.4427490
3210,0.9911944,-7.2879128,-2.4420733,128.8320618,72.2519073,-25.6946564
3220,1.9584470,-5.4156566,0.0047884,91.9542007,84.6106873,-12.2900763
3230,2.5569944,-3.7014170,2.8203552,74.0534363,104.2137375,-4.8702292
3240,2.2337787,-1.9345051,4.2664456,68.9160309,123.5725174,0.4122137
3250,1.5442522,-0.0502780,4.6471219,66.6183243,127.8015289,5.2977099
3260,0.8379663,1.2737088,4.5920553,64.4732819,114.1755753,10.8625956
3270,4.9152708,8.3940287,8.4945841,-18.0000000,76.7175598,22.6030540
3280,4.5585365,7.5680327,10.1561518,-22.6717548,69.6870193,12.2900763
3290,3.8163381,7.0796180,11.1952295,-15.6946564,46.0916023,3.9312978
3300,2.7221935,9.4881725,11.5328102,8.4351149,2.7709923,4.1603055
3310,2.4755919,13.2757807,10.0723553,-3.8015268,27.1679382,6.6259542
3320,2.5881188,13.1153698,10.2519188,-8.2213745,27.1450386,6.8778625
3330,2.6934631,13.3116932,10.5655584,-13.2442751,30.2290077,7.6183205
3340,2.4899571,13.8336267,11.3724003,-16.3740463,35.9618340,9.0763359
3350,2.3008161,14.3795023,11.7243462,-17.2671757,40.5496178,11.0763359
3360,1.9129574,14.6668043,11.7434988,-18.1679382,41.6183205,13.2442751
3370,1.1611819,14.7984848,11.9206696,-15.9007635,30.0229015,15.8244276
3380,0.5171449,15.1336718,12.1193867,-9.4732828,3.0839694,20.4809170
3390,1.3096216,15.7872849,11.7123747,-7.3282442,-26.0763359,23.1832066
3400,1.9895715,17.1112728,11.4274664,-17.0152664,-40.4122124,20.5267181
3410,2.2337787,18.5789108,12.9070749,-31.9465656,-44.3740463,15.5954199
3420,2.2792683,18.6291885,15.1145182,-34.2519073,-49.9160309,9.1908398
3430,1.8219782,18.4280758,15.5885677,-20.2137413,-62.8167953,4.8854961
3440,1.5035510,18.3634338,13.7594070,-0.1908397,-83.3893127,5.1526718
3450,2.5019281,18.3562508,9.7658987,11.0152674,-98.6030502,5.3511453
3460,4.7381010,16.5558205,1.0295014,-30.0610695,-89.5343475,-5.5801525
3470,4.8218975,12.9477768,-0.8403605,-66.6946564,-87.1221390,-12.3664122
3480,4.7692256,8.3365679,-1.2545552,-94.9618301,-90.8854980,-14.4885492
3490,4.9751258,3.1746953,-1.2090657,-114.5267181,-91.6870193,-13.7786255
3500,5.9016771,-2.6599445,-0.4285599,-123.1450348,-88.1221390,-14.8931293
3510,7.2280579,-8.5113440,0.5506636,-123.2824402,-84.5038147,-20.4198475
3520,9.0284882,-14.5327301,0.8571198,-126.0534363,-69.2137375,-30.6488552
3530,9.9334917,-19.6131992,1.9680238,-130.2824402,-39.3740463,-45.8320618
3540,9.1649570,-19.6131992,3.8570392,-132.4198456,-15.5190840,-54.8625946
3550,5.7436604,-19.6131992,5.0254035,-140.0839691,-15.6946564,-49.0152664
3560,2.4492557,-19.6131992,6.8641410,-154.7251892,-53.0687027,-29.4656487
3570,1.0773853,-19.6131992,11.3125448,-164.1526642,-109.0687027,-5.6106873
3580,3.5841017,-17.9037495,17.0370522,-156.3206177,-143.0152740,4.0076337
3590,5.2169390,-14.7434187,19.6126022,-121.7175598,-124.4351120,-5.0458016
3600,4.9823084,-13.1752243,19.6126022,-47.7480927,-66.8167953,-17.5954189
3610,4.9080882,-12.8759508,19.6126022,56.6946564,5.3893127,-21.9770985
3620,4.6495161,-13.3907013,19.6126022,153.8931274,73.2442780,-18.4580154
3630,4.4364328,-14.4249916,13.1225519,215.2900696,111.9923630,-5.9923663
3640,4.5345950,-14.1329002,3.3255291,233.8015289,124.1755753,9.9465647
3650,4.9152708,-12.5455532,-3.3614421,211.4198456,120.4503784,24.0458012
3660,5.2456689,-10.3357162,-4.9320302,170.9541931,115.6488571,35.0916023
3670,5.8585815,-7.3453732,-2.7940190,140.7862549,107.7175598,38.7404594
3680,6.3374195,-5.3390427,0.1651991,132.2748108,95.5190811,34.0000000
3690,6.0237808,-3.8402798,1.9895715,135.8625946,80.5572510,27.2442741
3700,5.2576399,-2.5019281,1.7764885,142.2519073,64.6793900,22.8473282
3710,4.5345950,-0.4932030,0.5506636,141.8854980,43.2442741,21.4427490
3720,4.0964580,1.4676381,-0.4165890,130.3129730,23.5267181,21.4427490
3730,4.0653338,3.4212968,-0.3998296,110.5496216,5.5648856,21.8244267
3740,4.9679432,6.4068508,1.2449785,67.1984711,-14.3358774,14.1755724
3750,5.6215568,6.9599090,1.8794388,42.5877876,-9.4274807,9.1374044
3760,5.8681583,7.3621325,1.8794388,8.2366409,3.6717558,4.3435116
3770,5.9830794,7.7140784,6.3206601,-54.3129768,46.0000000,-0.8320611
3780,6.2392578,7.5249376,8.3030491,-53.8167953,49.7709923,-8.2290077
3790,6.3158717,7.6446471,9.9813757,-39.7938919,61.2366409,-20.1832066
3800,4.8961172,7.9247670,10.3428984,-21.2290077,70.3206100,-32.0610695
3810,3.0454090,8.3652983,9.1793222,-12.6183205,68.4656525,-39.4198456
3820,1.3814473,8.5257082,8.5233145,-15.3358774,59.6641235,-43.6793900
3830,0.0526722,8.5879574,8.2791071,-22.6870232,40.0763359,-45.1603050
3840,-1.1061156,7.9056134,9.0021524,-28.8244267,12.8091602,-42.2366409
3850,-2.6168492,7.8744893,10.2543135,-28.7175579,-14.7633591,-29.9847336
3860,-2.5833304,8.9111729,11.2072010,-22.0610695,-39.0228996,-9.4351149
3870,-0.4932030,10.2112179,11.0300312,-20.1984730,-43.2137413,6.4580154
3880,1.9704180,11.3125448,10.7355452,-28.9389305,-20.6412220,13.2061071
3890,3.5721307,12.2965574,11.1353750,-44.0610695,18.5572510,11.3816795
3900,3.1411765,12.4856977,11.9134865,-56.5343513,47.8167953,5.4503818
3910,1.9225341,12.2534618,13.2638092,-59.6717567,51.5725174,1.3511450
3920,0.8379663,12.3181047,14.0275564,-52.3893127,31.2137413,0.4122137
3930,-0.2729376,12.8376436,14.9972029,-38.3511467,-4.8854961,4.1374044
3940,-0.2226596,13.4361916,15.5670195,-19.3587780,-45.3511467,9.9541988
3950,0.5698171,13.9485474,15.5478659,-0.7633588,-71.0381699,17.3282452
3960,2.2744799,14.4656925,14.5830078,11.1374044,-76.4961853,22.0076332
3970,3.7947903,15.5789909,13.4242201,10.0000000,-60.9007645,21.8473282
3980,3.9623835,17.1783085,13.2231083,-0.0916031,-37.3664131,18.5801525
3990,3.4931223,18.3394909,13.5942078,-8.4427481,-26.4885502,13.2977095
4000,3.1938488,18.6651001,14.2454271,-12.1145039,-27.9694653,8.0458012
4010,3.0358322,18.0665531,14.0323448,-6.0687022,-37.9389305,4.1755724
4020,3.3207407,17.4560356,12.4282379,2.0534351,-57.0763359,1.3358779
4030,3.8570392,17.5518036,10.2447367,6.3053436,-79.0839691,-4.9694657
4040,5.1882086,17.6451759,7.7523856,4.2061067,-101.3664093,-19.8931293
4050,5.5257893,16.5270901,5.1499014,-12.3511448,-124.8778610,-44.2366409
4060,4.5729017,14.3866844,3.7660601,-40.2290077,-138.3664093,-62.0992355
4070,3.5769191,10.8863792,3.0789278,-66.8244247,-124.1603088,-67.0916061
4080,2.9735832,6.5241661,1.8411317,-86.8167953,-87.3740463,-62.4122124
4090,2.8323262,1.4413021,0.6129125,-104.7328262,-46.9771004,-51.6946564
4100,3.4548154,-3.1914546,0.4884146,-118.5114517,-7.6412215,-41.2290077
4110,4.1994085,-7.8529415,0.2825144,-126.2061081,29.9083977,-31.1145039
4120,5.4060798,-13.9940376,1.5298871,-123.2366409,50.7404594,-25.3664131
4130,5.9088597,-18.4711723,2.0661855,-112.1908417,55.2748108,-17.9541988
4140,6.5169835,-19.6131992,1.8315549,-106.2977066,53.1755714,-5.5496182
4150,6.3685441,-19.6131992,1.2880739,-111.1297684,41.4580154,6.3664122
4160,6.0668759,-19.6131992,1.1611819,-130.0229034,9.5038166,16.8396950
4170,5.6359220,-19.6131992,1.7238164,-160.1526642,-34.2213745,21.5038166
4180,5.4204450,-17.5518036,4.2496862,-193.6870270,-87.4122162,17.2748089
4190,5.6909885,-15.4090033,9.0452480,-215.8931274,-125.9847336,3.6259542
4200,5.2696109,-14.2573986,15.7202482,-210.6488495,-148.0381622,-11.1984730
4210,4.5800843,-12.4593620,19.6126022,-168.9694672,-146.0839691,-22.6030540
4220,3.8019729,-10.9797525,19.6126022,-86.3206100,-109.0229034,-27.7404575
4230,3.3877780,-10.2567072,19.6126022,20.9160309,-40.6335869,-28.4045811
4240,3.4428444,-11.5687237,19.6126022,129.5114441,29.1221371,-22.5648861
4250,3.3422885,-13.2159262,14.8463688,209.8778687,74.5114517,-8.8473282
4260,3.0478032,-13.1345234,4.1802549,241.2595367,88.4885483,7.7099237
4270,3.0190730,-12.1600885,-2.9089401,225.5725250,87.3282471,23.9160309
4280,3.3710186,-10.2040358,-6.2416520,177.2213745,79.3511429,37.6717567
4290,3.9432299,-8.2288294,-4.7189474,126.9083939,70.2442780,47.6946564
4300,5.3414369,-6.7516141,-0.9720409,98.0992355,69.8778610,52.1679382
4310,6.8497758,-5.3438311,2.1284344,89.9847336,91.0229034,52.8702278
4320,7.1801744,-3.7876077,3.9719603,91.8015289,118.3740463,50.9160309
4330,6.2943239,-1.7908537,4.5537481,98.1450348,137.1679382,50.3664131
4340,5.0277977,0.3327923,4.0868812,101.3358765,138.9007568,51.9312973
4350,5.0397687,2.0087249,3.0669568,100.3740463,121.8396912,50.3435097
4360,5.0852585,2.9496415,2.1020982,89.2748108,102.2442780,43.5648842
4370,4.6566987,10.0460186,7.2472115,13.2442751,91.4427490,-4.8854961
4380,2.0254843,8.0636301,11.7554703,0.6717557,39.1068687,6.6412215
4390,2.1404054,8.1258793,12.3181047,7.9923663,44.6183205,8.8015270
4400,2.0661855,7.6877422,11.3652172,16.5725193,51.6335869,10.6335878
4410,2.4181314,7.0389171,9.4474716,17.7404575,56.5114517,9.9236641
4420,2.2577207,6.6534524,7.9511032,7.2824426,56.7557259,6.7709923
4430,0.8930327,9.5001440,10.8672256,-38.3969460,31.8473282,1.4122137
4440,0.6727672,10.2543135,12.7538471,-39.8473282,21.7175579,-1.0534351
4450,0.2226596,10.5775290,13.9246063,-34.2519073,7.0000000,-2.4656489
4460,0.1316804,10.8241301,14.6237087,-25.9160309,-9.3053436,-1.1450381
4470,0.2322364,11.6118193,15.2701406,-16.0076332,-23.7099228,1.1145039
4480,0.6536137,13.0219965,15.5718079,-6.3893127,-35.3358765,1.7175573
4490,1.4029950,13.8886929,15.4856176,1.7633588,-44.5496178,-0.7480916
4500,1.7262106,14.3004932,15.2509871,7.3664122,-46.9312973,-5.3740458
4510,0.7900825,14.9301653,14.7936964,8.0305347,-53.4427490,-7.8625956
4520,-0.6392486,16.2206345,15.6627874,6.7862597,-71.5038147,-6.0916033
4530,-1.4413021,17.1854916,17.9229031,16.7938938,-107.7633591,-0.9236641
4540,-1.0797794,17.2621059,19.0673256,42.4427490,-158.0458069,7.5725193
4550,0.3591284,17.5877151,16.8383350,61.5496178,-188.7328186,18.9160309
4560,3.9719603,17.5182838,14.3866844,70.6870193,-185.1603088,25.6793900
4570,7.1490498,18.6603127,10.7642756,67.6641235,-163.3129730,15.8931293
4580,8.6238708,18.8901539,6.5289545,40.5801544,-129.5648804,-3.6488550
4590,8.3868456,17.5661678,4.0270267,1.8702290,-95.5725174,-25.0076332
4600,7.1849627,15.0666342,2.9256995,-32.2977104,-66.3587799,-41.4122124
4610,6.0884237,11.8272963,2.0230901,-53.0305328,-46.6564903,-51.0076332
4620,5.0158267,8.0564480,0.5985473,-65.6183243,-29.5267181,-56.0076332
4630,4.5106530,4.2041965,-1.0175306,-76.7480927,-18.3053436,-57.8625946
4640,4.8434453,-0.6177009,-2.1188576,-90.6870193,-13.3664122,-58.9160309
4650,5.6838059,-5.9232249,-1.4939742,-102.9236679,-9.7022905,-60.8549614
4660,6.5792327,-11.4226780,0.2011119,-105.9007645,8.1603050,-63.7175560
4670,6.8306227,-16.3618908,1.3096216,-98.6412201,34.0839691,-64.2748108
4680,6.6199336,-19.6131992,1.7836711,-88.3587799,50.5725174,-61.5190849
4690,5.6550756,-19.6131992,0.8643024,-88.0763321,50.2213745,-54.6183205
4700,4.0605454,-19.6131992,-0.7445929,-109.9542007,24.9160309,-41.0381660
4710,2.7628946,-19.6131992,-1.5035510,-160.6641235,-20.2213745,-23.9618320
4720,2.0805507,-19.6131992,1.9345051,-221.1068726,-71.9465637,-10.0916033
4730,2.6503677,-19.3450508,8.6980906,-250.1374054,-118.0305328,-4.8549619
4740,2.8538737,-18.1503506,17.7960110,-250.1374054,-141.0458069,-2.9389312
4750,2.6910689,-15.9093885,19.6126022,-201.2595367,-136.9618378,-3.4809160
4760,2.5186872,-13.4170380,19.6126022,-96.0534363,-107.6030502,-2.9007633
4770,3.1411765,-12.3228931,19.6126022,46.6335869,-38.7938919,2.1450381
4780,4.0246325,-13.5319586,19.6126022,188.9923706,23.5419846,12.0687027
4790,4.4388270,-13.9413652,13.7594070,250.1297760,45.0152664,24.6030540
4800,5.2648225,-13.1369171,1.0055596,250.1297760,46.0458031,33.0458031
4810,5.5784616,-10.8408899,-6.9934273,250.1297760,49.0534363,36.9923668
4820,5.2815819,-7.5847921,-9.4474716,192.0686951,45.8778610,37.0152664
4830,5.2193332,-5.0900469,-6.7516141,121.0916061,43.4809151,34.7633591
4840,5.3917146,-3.3973548,-1.3742647,83.2519073,51.2442741,29.7328243
4850,5.0277977,-2.6000898,2.5905130,71.5114517,65.3053436,26.7175579
4860,4.5106530,-1.9512644,5.0589223,74.4961853,81.7480927,28.2290077
4870,3.7756367,-1.0007712,6.1267309,87.1145020,100.0152664,35.0228996
4880,3.4811516,0.6416427,5.5114241,96.8549652,113.0076370,45.9618340
4890,3.6080434,2.9161227,4.0629396,93.8625946,121.5496216,53.1755714
4900,4.1850433,4.6806402,3.0669568,78.6335907,124.2137375,51.3129768
4910,4.2855992,5.4395986,2.8993635,57.9389305,118.7633591,43.8396950
4920,4.1515245,5.6718349,3.9480183,36.2824440,102.4809189,33.9618340
4930,3.4907281,8.5544386,8.5448618,20.1832066,52.9389305,9.7480917
4940,2.5976956,8.9542685,8.8249826,14.6488552,45.1221390,1.8091604
4950,2.4013720,8.1498213,9.3086090,12.8931293,9.5267172,-9.2824430
4960,2.6360025,7.5009956,9.2487535,11.1526718,-2.9236641,-15.2748089
4970,1.3287752,7.0077925,9.7922344,4.2977099,-11.2137403,-17.2366409
4980,1.1779412,7.0053983,9.9670105,3.8396947,-12.5343513,-10.8854961
4990,1.2162483,7.7068958,9.4474716,-8.9389315,4.6641221,0.1145038
5000,1.9033806,6.8809004,10.3668404,-32.0076332,35.9312973,13.4656487
5010,2.0997043,6.7180958,10.7427282,-38.5267181,51.7786255,16.5801525
5020,1.5490406,7.8289995,11.5663290,-43.4580154,67.0839691,19.8931293
5030,1.4269369,9.1912937,12.3420467,-48.9083977,83.3053436,22.2290077
5040,0.5554519,10.4554253,13.4122496,-55.6564903,98.5496216,21.7328243
5050,-0.7757174,12.2007895,15.2318335,-58.4580154,91.8854980,21.5954189
5060,-0.3902529,13.2614155,16.9556503,-53.1297722,71.8625946,21.1374054
5070,0.2777260,13.8048964,18.3921642,-40.4351158,52.5190849,16.9160309
5080,0.7014975,14.8296099,19.1343613,-21.9389305,33.1984749,13.1450386
5090,1.0486550,15.7705259,18.9332504,-1.8778626,16.6488552,7.8702292
5100,0.7110743,16.6827126,17.7337608,15.8778629,-8.1374044,1.0992366
5110,0.4979914,16.9748039,15.9620609,29.2442741,-33.5954208,-5.4351144
5120,-0.0646431,17.2812595,14.1520538,38.2213745,-54.3740463,-7.8244276
5130,-0.6679789,17.6571465,12.2989511,45.8396950,-78.0992355,-6.4198475
5140,-0.2489957,17.6188393,9.7467451,51.9465637,-102.0457993,-3.3511450
5150,0.6368544,17.6260223,6.3517847,48.0458031,-115.8473282,-1.7022901
5160,1.9416877,17.6882725,3.2130022,29.1755733,-115.1755753,0.4122137
5170,3.9144998,17.2405586,1.3000449,-3.8473282,-101.8167953,-3.3129771
5180,4.7692256,15.8375635,0.3950413,-39.9847336,-76.4198456,-12.6030531
5190,5.3629842,13.2781744,-0.2801202,-73.5343475,-48.7328262,-21.3740463
5200,5.3366485,10.3045912,-0.6536137,-101.3893127,-31.4351139,-31.9389305
5210,4.8362627,7.3741035,-0.2178712,-120.5038147,-33.1068687,-41.3893127
5220,4.9870968,3.7971845,1.1779412,-126.4045792,-43.2595406,-50.0305328
5230,5.0637107,-0.3136388,3.3782012,-113.0305328,-62.6412201,-59.8320618
5240,5.5976148,-4.3191175,4.5250182,-78.0839691,-93.9847336,-70.1679382
5250,6.9383612,-8.1234846,1.9847831,-56.3282433,-102.4885483,-74.6259537
5260,8.7651272,-13.0172081,1.6065011,-49.1832047,-70.0992355,-82.9083939
5270,9.1051025,-17.8414993,2.1116750,-40.3053436,-31.7251911,-92.7328262
5280,7.8098459,-19.6131992,1.0007712,-43.1145020,-1.7328244,-89.4274826
5290,5.7436604,-19.6131992,-1.6352314,-83.7633591,7.5801525,-71.7786255
5300,2.8921809,-19.6131992,-2.7892308,-170.2442780,-42.7633591,-46.8244286
5310,0.6991033,-19.6131992,4.1347651,-250.1374054,-144.1145020,-18.5725193
5320,2.4181314,-19.6131992,18.1766872,-250.1374054,-217.1145020,0.9618320
5330,4.7381010,-19.6131992,19.6126022,-250.1374054,-235.4045868,2.9618320
5340,6.7252784,-18.7177734,19.6126022,-100.7480927,-179.6564941,-1.4122137
5350,6.6965480,-14.6189203,19.6126022,81.5648880,-77.4809189,-1.5343511
5360,8.1067257,-15.3754845,19.6126022,250.1297760,33.4580154,-3.8702290
5370,6.4044566,-15.6101151,14.1352949,250.1297760,95.4427490,1.1145039
5380,4.3622131,-14.9660778,-2.5761478,250.1297760,110.7938919,18.0534344
5390,2.9113343,-10.9007444,-13.8743277,250.1297760,91.5267181,36.2824440
5400,3.6415622,-5.6071916,-17.1040897,190.1526642,44.5648842,42.5648842
5410,5.5497313,-2.9113343,-10.2830439,80.9923630,25.9007626,33.6183205
5420,5.7604198,-2.3151813,-1.6256547,33.9694672,44.9694672,22.9923668
5430,4.5752959,-1.0295014,4.3406653,29.4656487,67.8549652,16.9923668
5440,3.6894460,-0.3136388,6.9575148,48.4961815,82.5419846,15.8320608
5450,3.0334380,-0.3256098,7.7499914,78.3435135,90.4656525,19.2977104
5460,2.6838863,0.0215477,6.9048424,104.6564865,90.9389343,26.6793900
5470,2.7054341,0.9624642,4.4077029,120.1297684,83.9465637,35.2595406
5480,3.5314295,1.1923064,2.1212518,115.6335907,70.3282471,40.7022896
5490,2.5450234,8.0708122,7.1993275,7.9083967,87.8091583,1.2824427
5500,1.2090657,9.0093346,7.6638002,8.2366409,58.5419846,-3.7633588
5510,0.5051740,10.0316534,8.1953106,11.6946564,27.5648861,-7.6412215
5520,0.5937590,10.2375546,7.8840661,1.2977099,-14.0687027,-13.0000000
5530,1.1635761,9.7347746,8.4802189,-7.9923663,-25.2137413,-18.8167934
5540,1.3910241,8.6717539,9.1505919,-13.9847326,-32.7633591,-26.4122143
5550,1.1492109,7.8170285,9.0524302,-20.8778629,-32.5496178,-30.2595425
5560,1.2617378,6.9431496,8.6454182,-34.8702278,-17.6106873,-28.6106873
5570,1.1061156,6.2919297,9.2631187,-49.2595406,4.1984735,-27.3969460
5580,0.1795642,6.2081332,10.4266949,-55.1221390,21.0229015,-22.2900772
5590,-0.5003856,6.0046272,11.1712875,-53.0152664,33.2366409,-11.8167934
5600,-0.7062859,5.8059096,11.3939476,-47.2366409,43.7022896,0.3129771
5610,-0.3423691,5.4922705,11.1425581,-41.9312973,45.9771004,9.6335878
5620,-0.0215477,5.0541339,10.7211800,-40.8625946,38.9312973,15.1679392
5630,0.5195391,4.8147149,10.9103212,-41.7557259,28.5877857,18.3358784
5640,1.3718705,4.5752959,11.3053627,-41.0152664,18.3129768,18.4122143
5650,2.1523764,4.3071470,11.7051926,-37.3664131,8.9618320,14.1450386
5660,2.2912393,4.2137733,12.0308018,-18.8244267,-4.5267177,4.5954199
5670,2.3846128,4.3310885,11.5136566,-10.5725193,-6.0992365,0.4809160
5680,2.2792683,4.4747400,10.7546988,-7.7251906,-3.9618320,-3.0152671
5690,1.9680238,4.9727316,9.8473015,-19.9694653,16.7480907,-7.9847326
5700,1.7070571,4.9416070,10.1561518,-27.0076332,20.6870232,-10.7480917
5710,1.3958124,4.6734576,11.1329813,-28.6335869,16.7709923,-12.6946564
5720,1.1635761,4.2448978,12.0882626,-22.4885502,9.1908398,-14.5114508
5730,0.9959828,4.1443419,12.5862541,-11.0992365,3.6030533,-14.5419846
5740,-0.0598547,4.7045822,12.0475616,10.3053436,0.1526718,-6.1374044
5750,-0.2370248,4.7093706,10.6278067,12.9312973,14.2137403,10.5572519
5760,2.3223639,4.9416070,10.4386663,7.8778625,8.4351149,12.1297712
5770,2.1978660,4.8673873,10.4841557,12.1450386,-13.4274807,0.6183206
5780,2.0781565,5.1283536,10.4266949,13.0152674,-15.0763359,-0.7251908
5790,1.9847831,5.6814117,10.3476868,12.8396950,-12.3358774,-0.3435115
5800,1.7836711,7.5608501,10.1513634,5.5267177,-4.1908398,2.4274809
5810,2.0350611,9.8760319,10.6349897,-14.3511448,-8.0534353,5.2366414
5820,2.5546002,10.5655584,11.3364868,-18.6641216,-5.1374044,6.1145039
5830,3.0837159,11.4801388,11.8632088,-21.3129768,5.5496182,3.9618320
5840,3.0597742,11.9398232,12.0499554,-23.5343513,15.7175570,-0.2824427
5850,2.5162930,12.4114780,12.1241751,-24.5190830,15.4427481,-5.4732823
5860,1.8914096,12.5479469,12.1936073,-23.2213745,2.3893130,-10.4274807
5870,1.5203103,12.5144281,12.4234495,-16.2213745,-25.4427490,-15.4580154
5880,1.4077834,12.5096397,12.5383701,-4.4198475,-60.5877876,-19.5877857
5890,1.6184721,12.6628675,12.1600885,8.6030531,-92.9542007,-23.3358784
5900,2.2409613,12.7203283,11.2574787,19.1221371,-119.0839691,-26.7709923
5910,3.1794837,12.8448267,9.6437950,22.8854961,-128.8702240,-32.2977104
5920,4.3646073,12.5216112,7.1921453,14.4885492,-121.8167953,-42.4045792
5930,4.3622131,11.5304165,5.0852585,-4.0534353,-105.0457993,-53.9389305
5940,4.0174499,9.5121145,3.8163381,-26.2442741,-93.8015289,-62.8549614
5950,3.2321558,6.6989422,3.1746953,-35.0228996,-99.5877838,-74.0076370
5960,2.5785420,4.1347651,1.0486550,-50.6030540,-117.5038147,-75.7022934
5970,3.5601597,0.0646431,0.5362985,-67.4045792,-129.0839691,-77.7938919
5980,4.0844874,-3.7804251,2.0781565,-70.3358765,-137.8854980,-83.1145020
5990,4.5681133,-7.6254935,3.5026991,-62.3587799,-142.4961853,-86.2442780
6000,4.8865409,-12.2175484,4.5609307,-46.2748108,-129.2137451,-82.8320618
6010,4.6255741,-16.2230282,4.7141590,-29.3129768,-100.8244247,-69.1832047
6020,3.8929520,-18.9476147,3.2417326,-26.8396950,-52.5572510,-44.8549614
6030,2.4372849,-19.6131992,1.0773853,-48.7480927,-0.8854962,-9.6030531
6040,1.2641320,-19.6131992,0.1292862,-96.5267181,34.5496178,31.9389305
6050,1.3311694,-18.1934452,1.2976507,-158.8396912,43.1068687,67.0381699
6060,2.7221935,-16.0841656,5.7628140,-215.6946564,33.8702278,83.9465637
6070,4.1060348,-14.6883526,12.4833040,-239.9007568,13.2900763,79.4351120
6080,4.9056940,-13.5678720,19.2540722,-220.9313049,-17.6183205,60.2366409
6090,5.3605900,-12.3085279,19.6126022,-154.9923706,-47.7557259,35.1526718
6100,5.6359220,-11.4107065,19.6126022,-56.6412201,-56.4885483,11.0000000
6110,5.6646523,-10.8696203,19.6126022,53.9541969,-26.6335869,-5.9923663
6120,5.0421629,-11.1688938,19.6126022,153.8015289,25.5419846,-11.2366409
6130,4.4292507,-11.9613705,15.9548788,223.5648804,81.6870193,-2.8244274
6140,4.2472920,-11.2670555,7.9558916,250.1297760,128.3664093,11.9389315
6150,4.0413918,-9.3181858,1.0486550,245.4809113,158.7557220,27.2824421
6160,3.9192882,-6.5481081,-4.3334827,204.8396912,162.7251892,37.0228996
6170,3.7277529,-3.6678982,-6.4188218,140.8625946,150.8702240,41.7175560
6180,3.8809812,-1.8171898,-5.0493455,77.3282471,141.2137451,42.7938919
6190,3.7205703,-0.6344602,-1.6495966,32.3129768,140.8396912,43.3282433
6200,2.9951310,1.2377959,4.2712340,-13.7786255,125.1068726,43.7022896
6210,2.6455793,1.7262106,7.0556765,-18.8625946,114.5648880,45.7480927
6220,2.7102225,2.1044924,9.0596132,-13.2519083,101.0305328,48.2290077
6230,2.4420733,2.5354466,10.2662840,-0.4580153,92.2671738,49.9541969
6240,2.2026544,3.5410061,10.6421719,14.9694653,85.4274826,51.8702278
6250,2.6000898,4.0318151,10.2399483,26.8244267,80.9542007,52.8473282
6260,3.6583214,4.7668314,8.4490948,9.4503813,90.1755753,23.0763359
6270,1.8985922,4.0126615,9.9263096,-6.3816795,76.6793900,5.0000000
6280,0.5578461,5.4348102,11.0324249,24.7633591,26.7022896,-1.0381680
6290,0.6224893,5.4132624,10.6469603,25.9541988,23.3816795,-10.1832066
6300,0.3806761,4.9607606,10.0843258,23.0305347,25.3358784,-18.7022896
6310,-0.4692611,4.9056940,9.1242561,11.5114508,31.0000000,-22.9312973
6320,-1.0941446,4.5633249,9.2511482,-2.9007633,38.1145020,-23.2977104
6330,-2.3175755,4.5226240,10.0268650,-9.1832066,37.0152664,-19.4656487
6340,-3.4691806,5.2169390,10.9318695,-6.3358779,25.7709923,-9.4274807
6350,-3.4284792,5.8083038,11.2694502,4.6030536,9.9312973,2.6946564
6360,-2.3343346,6.1913738,10.7523050,15.6793890,0.1145038,10.2519083
6370,-1.7693061,6.4212160,9.5695753,15.6564884,-2.1450381,13.9160309
6380,0.2513899,7.0269461,10.6589317,-12.8778629,-1.9694656,2.2900763
6390,-0.3088504,7.0389171,11.0443964,-8.4045801,-11.2061071,2.9389312
6400,-0.1651991,6.9670911,11.0898857,-2.3129771,-18.5419846,4.3816795
6410,0.2394189,7.0341287,10.6828737,-1.4732825,-19.4427490,8.5038166
6420,0.3974355,6.8162575,10.8121595,-3.5496182,-14.8625956,9.2977095
6430,0.5722113,6.3853035,11.0731258,-4.5114503,-11.6259546,9.8778629
6440,0.8738791,5.8490047,11.2502966,-3.9618320,-12.6946564,8.6793890
6450,1.4628497,5.3725610,11.4131012,-2.4732823,-15.2977095,5.6488547
6460,1.9009864,4.8147149,11.6644907,6.4198475,-14.1374044,-5.3053436
6470,1.4772149,4.8697815,11.3293047,12.2900763,-13.5038166,-9.4045801
6480,1.0534433,4.7788019,10.9605989,17.3053436,-14.1908398,-11.3587790
6490,0.6320660,4.7907729,10.4985209,21.4732819,-15.7404585,-12.2977095
6500,0.2130829,4.8218975,9.7228031,23.3206100,-17.2671757,-11.3129768
6510,0.2418131,4.8530221,9.1601686,22.0992374,-16.1450386,-9.3282442
6520,0.1867468,4.9870968,8.7340031,18.0152664,-12.2671757,-6.4809160
6530,0.7613522,5.7292953,8.6334467,8.1450386,-7.3435116,-3.2290077
6540,1.2066715,6.1147599,8.6454182,5.5343513,-8.6106873,-5.6335878
6550,1.3934183,7.1131368,8.7028790,-2.5114503,-18.3358784,-10.6030531
6560,1.5227045,7.5680327,9.3469152,-9.5572519,-21.1145039,-13.2671757
6570,1.5753766,7.8936424,10.1058741,-15.5801525,-22.7099228,-16.9618320
6580,1.3910241,7.9989872,11.1928358,-18.5038166,-24.7786255,-19.5343513
6590,1.0821736,8.2264347,11.9829178,-15.9923668,-28.7557259,-22.1526718
6600,0.7182568,8.6023226,12.2965574,-11.2748089,-34.9847336,-24.4122143
6610,0.5865764,9.0883436,12.3037395,-6.1145039,-39.7404594,-26.1374054
6620,0.6775556,9.2248116,11.7267399,-4.2137403,-33.9236641,-27.5190830
6630,0.2968795,9.0644016,10.7523050,-7.9541984,-18.5954189,-26.3969460
6640,-0.0598547,8.7914639,9.8688488,-16.7175579,-0.3053435,-23.4809170
6650,-0.7565638,8.5520449,9.1266499,-27.3129768,14.3664122,-18.7022896
6660,-1.2306134,8.3054428,8.6765423,-36.6030540,17.6412220,-13.3129768
6670,-1.1252691,7.8936424,8.2503767,-44.2977104,10.4198475,-8.4809160
6680,-0.4620786,7.7571740,8.2360115,-49.9618340,-2.7938931,-6.2519083
6690,0.4596844,7.9247670,8.1881275,-52.4503822,-16.5419846,-7.5190840
6700,1.3598996,8.5233145,7.5536675,-53.9618340,-27.0229015,-12.9465647
6710,3.0071020,9.1218615,6.2536230,-61.2748108,-25.8015270,-23.5343513
6720,4.1275826,7.9702568,5.2384863,-76.0839691,-7.0534353,-38.5954208
6730,3.9719603,6.9407554,4.0366035,-88.3206100,9.9770994,-57.6030540
6740,4.0940638,5.1499014,2.5593886,-106.4045792,12.0610685,-75.2366409
6750,4.3861551,2.7174051,1.9608412,-126.0687027,5.6335878,-96.0534363
6760,4.1850433,0.6320660,2.7628946,-137.1526642,-11.2442751,-116.3129807
6770,4.5752959,-1.7357874,3.7660601,-137.1221313,-35.7480927,-134.8702240
6780,5.3462253,-4.8314743,4.2688398,-130.9007568,-54.2366409,-153.0305328
6790,5.1594782,-7.7595682,4.6734576,-123.8091583,-60.4351158,-166.2824402
6800,4.4220681,-10.4697905,5.0230093,-115.5038147,-64.4656525,-170.3129730
6810,3.7397239,-12.6987810,5.8513989,-101.0076370,-80.4656525,-165.2977142
6820,3.3829896,-14.2526102,6.4427638,-80.2290039,-109.8320618,-152.9618378
6830,3.0813217,-15.1073351,6.8282285,-59.5572510,-140.3206177,-133.0000000
6840,2.8897867,-15.1073351,7.1203194,-44.6259537,-158.3358765,-105.0381699
6850,3.3877780,-15.3659077,6.9120250,-44.8625946,-152.0229034,-76.1984711
6860,3.9384418,-14.8391867,7.3070664,-62.7022896,-119.9847336,-53.1679382
6870,4.3957319,-13.7067347,9.3181858,-90.3435135,-66.1450348,-40.5954208
6880,3.8163381,-13.2207146,12.5910425,-111.1603088,-1.3740458,-39.3053436
6890,1.3431402,-13.0028429,16.8263626,-107.4045792,57.0152664,-39.9236641
6900,-2.2050486,-12.8855276,19.6126022,-71.6641235,97.2595444,-28.6946564
6910,-4.8649931,-12.9549589,19.6126022,-5.1984735,125.0305328,1.1755725
6920,-6.1267309,-12.8759508,19.6126022,76.4198456,133.2900696,45.6564903
6930,-5.2145448,-12.4162664,16.3738613,147.1526642,122.2748108,94.7404556
6940,-2.5857246,-11.3987360,11.0922794,193.0534363,99.3282471,134.6641235
6950,0.4525018,-9.9694052,6.2775645,209.6183167,84.1374054,159.7022858
6960,3.5242469,-8.3724804,2.6000898,200.4580078,69.7557220,168.6183167
6970,6.1674318,-6.3541789,0.4189832,173.1832123,69.3435135,163.8778687
6980,7.5632443,-4.0844874,-0.4357425,135.2213745,85.8549652,147.8931274
6990,7.4100165,-1.7142396,0.1244979,95.1145020,103.6106873,125.9923630
7000,5.8154860,0.0790083,1.6998745,56.8625946,115.2137375,106.0839691
7010,4.1132174,0.9217629,3.7971845,30.7557259,116.1908417,94.2671738
7020,2.6910689,1.3191984,5.8873119,17.3053436,103.1145020,87.5801544
7030,2.0949159,1.8147956,10.3955708,15.8015270,52.4045792,93.5496216
7040,2.5593886,2.6575503,11.4202833,22.6641216,48.5877876,95.4885483
7050,3.4979107,3.4715748,12.0451670,32.5343513,55.3816795,93.0763321
7060,3.9408360,3.7660601,12.1145983,41.6717567,65.1832047,81.9236679
7070,3.7229645,4.1994085,11.7985659,49.0763359,70.4732819,67.2213745
7080,3.3231349,3.9288650,11.0946741,52.9847336,68.1908417,51.1679382
7090,2.7437410,3.7516949,10.4650021,55.5496178,62.0305328,36.0076332
7100,0.9864060,4.4124913,8.9518747,55.2900772,35.8167953,3.5267177
7110,-0.3734936,5.7460546,8.1330614,31.5496178,39.2824440,-16.9083977
7120,-1.2832855,5.9304070,8.4371233,19.4198475,38.7022896,-24.1145039
7130,-1.8985922,5.6119800,9.0452480,12.0610685,29.4274807,-28.9541988
7140,-2.3989778,5.1834202,9.5145092,11.2213745,13.7175570,-32.0534363
7150,-3.1794837,5.1642666,9.9454632,15.7480917,-7.4045801,-32.0305328
7160,-3.2201848,5.3198891,9.9095497,22.6030540,-25.9541988,-28.0305347
7170,-3.3614421,5.8154860,9.2822723,25.0839691,-32.7786255,-22.3587780
7180,-2.8562679,6.3996682,8.6166878,18.7099228,-29.6030540,-16.7328243
7190,-2.5929072,6.6390872,8.4036045,6.3816795,-19.9160309,-13.5190840
7200,-2.4444675,6.7803445,8.8201942,-5.9083967,-7.4198475,-10.0687027
7210,-2.1691356,6.6199336,9.3852224,-14.4809160,1.4656489,-9.3587790
7220,-2.3151813,6.5768385,10.4410601,-17.5801525,3.1221373,-10.6106873
7230,-2.4372849,6.4164276,11.1186161,-12.7404585,-2.3511450,-11.5114508
7240,-2.6767037,6.4116392,11.2167778,-4.9389315,-9.3511448,-10.6183205
7250,-2.7150109,6.6654234,11.0036945,1.7099236,-13.5419846,-8.5343513
7260,-2.6599445,6.9838505,10.6182299,4.1145039,-11.8625956,-7.3587785
7270,-2.9041519,7.1945391,10.3931761,2.8854961,-6.6946564,-5.2595420
7280,-2.9616125,7.1682034,10.8983507,-2.0152671,14.7557249,4.9389315
7290,-2.7174051,7.4555058,10.8744087,-8.7404585,42.1450386,12.3206110
7300,-2.4851687,7.5943689,10.5344334,-23.4274807,80.6870193,20.2442741
7310,-2.1954718,7.6278877,10.6182299,-40.9160309,123.1145020,25.7099228
7320,-2.7461352,7.4363523,11.4945040,-48.1603050,150.4809113,29.3358784
7330,-3.3829896,6.9910331,11.7818060,-43.3511467,150.8473358,32.2213745
7340,-3.7828193,6.7779503,11.6812506,-30.0000000,122.2900772,33.0381660
7350,-3.5577655,6.5361371,11.4298601,-11.7633591,72.9694672,29.4274807
7360,-3.0047078,6.5816269,11.1808643,8.3587790,11.1526718,21.3816795
7370,-2.2242019,6.4092450,10.8193426,26.9541988,-41.4351158,11.4122133
7380,-1.4269369,6.4619174,10.1369982,40.4961815,-75.7786255,2.2213740
7390,-0.9816177,6.4547348,9.4426832,46.4732819,-91.5954208,-6.1450381
7400,-0.9648584,6.4068508,8.8249826,45.3053436,-96.8244247,-12.3893127
7410,-1.0151364,6.2967181,8.8441362,40.9236641,-93.1526718,-15.3740454
7420,-1.1779412,6.4212160,8.7076674,32.3053436,-80.3893127,-16.5114498
7430,-1.6687500,6.4691000,9.1266499,21.3740463,-64.3435135,-15.5572519
7440,-2.2074428,6.4355812,9.5983057,12.7404585,-49.6564903,-11.5877867
7450,-2.6838863,6.5457139,10.1465750,7.2900763,-36.2519073,-4.7404580
7460,-3.3183465,6.9910331,10.2782555,4.6488547,-30.0687027,3.8015268
7470,-3.4643922,7.5009956,10.4290895,4.4122138,-29.4809170,13.0076332
7480,-3.3686244,7.8864598,10.6804790,6.3969464,-29.6717548,21.5114498
7490,-3.3925664,8.8968077,10.8552551,10.5343513,-24.1908398,31.2519093
7500,-2.9161227,9.9095497,10.4362717,12.0916033,-8.6335878,41.8473282
7510,-1.9033806,10.4650021,9.4905672,6.8167939,16.7633591,48.5725174
7520,-1.4269369,11.0372133,8.7818871,-3.5267177,48.5725174,51.7862587
7530,-1.3790531,11.0970678,7.9678626,-16.0229015,76.7862625,51.6870232
7540,-1.9608412,11.3316984,7.4914188,-26.9770985,91.8625946,49.6717567
7550,-2.3391230,11.3843708,7.2065101,-30.8931293,81.5267181,46.4656487
7560,-2.3798244,10.9007444,6.8689294,-27.6793900,48.1908379,40.5267181
7570,-2.4492557,10.4554253,6.4331870,-18.6183205,-6.8473282,36.0916023
7580,-1.6328372,9.3110027,6.3757267,1.9465649,-71.6564865,29.6412220
7590,-0.9935886,8.6286592,4.9248476,18.8549614,-132.1984711,23.2519093
7600,0.5889706,7.0030041,3.5721307,28.0229015,-171.6793823,17.3664131
7610,2.7174051,5.0684991,2.1691356,27.0229015,-179.4580078,8.0381680
7620,5.5377603,2.5306582,0.3375807,8.0992365,-141.3129730,-6.7022901
7630,7.6254935,-1.0893562,-2.1380112,-34.8702278,-62.5648842,-30.2977104
7640,7.8050575,-5.0661049,-3.3662305,-93.4885483,8.8625956,-59.6870232
7650,7.4818420,-9.2248116,-1.5298871,-144.3435059,32.0000000,-92.0610657
7660,6.4691000,-13.5678720,1.3838415,-174.7709961,2.3282442,-124.0152664
7670,5.0613165,-16.6324348,4.3789725,-183.7404633,-70.3587799,-146.3893127
7680,3.8115497,-18.7105904,7.7739329,-177.5648804,-171.9389343,-156.7404633
7690,3.5721307,-19.6131992,10.9510221,-164.3587799,-250.1374054,-158.2671814
7700,3.3901722,-19.5365868,14.1257181,-153.8702240,-250.1374054,-155.1603088
7710,3.1100521,-18.2796364,17.7744617,-146.4656525,-250.1374054,-149.0839691
7720,2.3798244,-16.9724083,19.6126022,-136.1297760,-250.1374054,-139.9160309
7730,0.8188128,-15.4281569,19.6126022,-109.5572510,-203.5267181,-123.8396912
7740,-1.0534433,-14.5231533,19.6126022,-59.0534363,-81.3435135,-100.4503784
7750,-3.4955165,-14.2645807,19.6126022,13.7022905,29.2671757,-64.4732819
7760,-4.9080882,-14.1496601,19.6126022,99.4885483,110.9847336,-14.4732828
7770,-4.1682839,-13.7139168,19.6126022,175.5038147,159.0915985,38.8778610
7780,-2.2768741,-12.6724443,13.3571825,227.5114441,178.1755676,85.3740463
7790,0.1604107,-10.8408899,6.3757267,243.8549652,168.2137451,118.4122162
7800,2.6144550,-8.8656836,1.3886299,229.3816833,136.5496216,134.6946564
7810,4.5944495,-6.5912037,-1.1970947,198.2824402,101.5038147,136.5572510
7820,5.9615316,-4.7309184,-1.4053892,165.0610657,73.0610657,127.9389343
7830,6.1315193,-2.6599445,-1.1516051,132.8320618,58.6488533,114.0000000
7840,5.8681583,-1.0534433,0.4357425,106.0229034,57.7862587,99.4885483
7850,2.8083842,6.5433197,8.0732069,10.0839691,8.9618320,25.6946564
7860,2.6312141,6.5983863,8.6454182,6.9618320,0.7480916,18.9923668
7870,2.6455793,6.5074067,9.2942438,5.7099237,-6.8778625,12.3206110
7880,1.9488702,6.4691000,9.9430685,8.0000000,-16.9541988,5.7404580
7890,1.5945302,6.3182659,10.2806492,14.0687027,-28.2213745,3.0458016
7900,1.8914096,5.9591374,10.1992474,19.8396950,-38.7938919,0.6641222
7910,2.3343346,6.3446021,9.9598284,21.6870232,-42.5190849,-3.0839694
7920,2.6479735,6.5888095,10.0077124,20.4198475,-40.9771004,-8.7633591
7930,2.8035958,6.4786768,9.7587166,16.5572510,-32.9465637,-16.0000000
7940,2.1835008,6.7061248,9.8784256,11.1832066,-23.0610695,-23.0076332
7950,1.1803354,7.0293403,9.9287033,8.8625956,-16.7862587,-26.9312973
7960,0.5434810,6.5457139,10.1010857,9.6183205,-15.4198475,-27.3358784
7970,0.0861908,6.0932121,9.7491398,10.8396950,-13.5648851,-26.1068707
7980,-0.3040621,6.0118098,9.3469152,11.5496187,-10.8702288,-22.2977104
7990,-0.2944853,5.7747850,9.0500364,11.8778629,-8.9541988,-18.2748089
8000,-0.2226596,5.5305777,8.5807753,9.6564884,-7.8702292,-14.7862597
8010,-0.1651991,5.3749552,8.2838955,-2.5801528,-10.0839691,1.6641221
8020,-0.0311245,5.6478930,8.3605099,-5.4351144,-12.7480917,7.5877862
8030,0.1891410,5.7460546,8.4467001,-8.0534353,-14.5038166,13.9083967
8040,0.5961532,5.7508430,8.3676920,-11.4503813,-14.6183205,19.5572510
8050,1.0199248,5.9447722,8.5735922,-15.3816795,-13.7938929,22.4580154
8060,1.5418580,6.2033448,8.7866755,-18.9160309,-12.3129768,22.0076332
8070,1.6807210,6.2943239,9.0045462,-21.8396950,-9.7938929,19.1603050
8080,1.8124014,6.2991123,9.1865053,-23.2748089,-6.5343513,15.4274807
8090,1.9081690,6.3613615,9.3564920,-23.5496178,-2.3740458,10.4885492
8100,2.0446377,6.3637557,9.2367830,-23.4732819,2.5343511,4.2442746
8110,1.5394639,5.8729467,8.6909075,-28.2748089,10.2748089,-6.5190840
8120,1.2210367,5.8202744,8.8465300,-31.1755733,11.0458012,-8.4732828
8130,1.1348459,5.5329719,9.4259243,-36.9236641,-0.3893130,-6.2519083
8140,1.0845678,5.4731169,9.6773138,-36.7709923,-9.5496187,-4.5114503
8150,1.4532729,5.4132624,9.8832140,-35.8702278,-17.4198475,-3.2061069
8160,1.7142396,5.6814117,10.2040358,-34.0305328,-24.1450386,-3.6488550
8170,1.9632354,5.8250628,10.4458485,-31.2977104,-29.5801525,-4.6488547
8180,2.1858950,5.9711084,10.6302013,-28.2748089,-32.6946564,-6.4809160
8190,2.3103929,6.2057390,10.8313131,-25.0000000,-33.2900772,-9.3511448
8200,2.3319404,6.3374195,10.9558105,-21.9694653,-32.0916023,-12.2595415
8210,2.2218077,6.3733325,11.0683374,-18.6335869,-28.2595425,-14.0229006
8220,2.0494261,6.3134775,11.1569233,-15.8091602,-22.3969460,-14.8702288
8230,1.8052188,6.2344694,11.3221216,-12.6030531,-16.0229015,-14.7022905
8240,1.4676381,6.2488346,11.3460636,-7.7557254,-9.4045801,-12.5343513
8250,1.1324517,6.1913738,11.3412752,-1.8320611,-3.7786260,-8.5725193
8260,0.5937590,6.3709383,10.6062593,8.1068707,-3.1984732,1.5801526
8270,1.7717001,7.2998838,9.4043760,8.7709923,-23.1374054,9.9694653
8280,2.4205256,7.5033898,9.4498653,2.8778627,-28.7557259,6.5267177
8290,3.0142846,8.0301113,9.9167328,-2.7480917,-36.1526718,-0.7557252
8300,3.4907281,8.4682484,10.1657286,-8.2977095,-38.6106873,-10.4656487
8310,2.9711890,8.5640154,10.6900558,-12.3358774,-36.5725174,-18.3282452
8320,2.3606708,8.6047173,11.2526903,-13.6106873,-34.7404594,-21.5419846
8330,1.3790531,8.5616217,11.9446115,-9.9847326,-33.1450386,-20.4427490
8340,0.5961532,8.8417416,12.0020714,-3.3206108,-31.4885502,-13.1679392
8350,0.2513899,8.9782104,11.6860390,2.6641221,-24.4045811,-2.0839694
8360,0.5195391,9.3660688,10.3213511,1.4809160,-11.5496187,12.8167934
8370,2.7844424,10.8289185,8.5735922,-27.4503822,43.0000000,30.5801525
8380,4.6399393,11.4202833,9.1697454,-48.7557259,80.8778610,26.2290077
8390,5.1834202,11.2814207,10.3285332,-64.0229034,117.4045792,14.1297712
8400,4.3047528,10.5535870,11.1832590,-70.2977066,137.9618378,3.1068702
8410,2.9376705,9.8856087,11.4561968,-68.0839691,142.0534363,-3.2442749
8420,1.8339491,9.4163475,10.9438400,-62.5877876,129.5877838,-7.1297708
8430,1.0893562,9.0308828,10.3189564,-55.4351158,100.3740463,-10.0687027
8440,1.4748207,8.9949694,9.7706871,-47.4427490,59.2290077,-16.0534344
8450,2.3439114,8.8441362,9.1458035,-40.0610695,12.9847326,-29.3893127
8460,2.6503677,8.6693602,8.8130112,-32.8167953,-30.7099228,-47.7862587
8470,3.0047078,8.3844519,8.2384062,-25.2213745,-71.9160309,-68.7099228
8480,2.6743097,7.8002691,7.4004397,-19.5801525,-105.2137375,-90.2061081
8490,1.7214222,7.4100165,6.6773944,-16.7709923,-131.5267181,-106.3969498
8500,1.2210367,6.8665352,5.7149301,-17.3206100,-141.7251892,-116.7709961
8510,1.4125718,5.0708933,4.1946201,-27.2442741,-114.2977066,-123.7328262
8520,1.0366840,1.7597293,2.5306582,-46.2061081,-47.8625946,-124.0305328
8530,0.2729376,-2.1619530,1.2880739,-67.9847336,29.7328243,-117.1679382
8540,-0.4453192,-5.9998388,0.9935886,-84.9770966,87.1450348,-101.9694672
8550,-0.9935886,-10.3069859,1.6184721,-90.8167953,108.1755753,-80.1526718
8560,-0.6991033,-14.3052816,2.3343346,-87.6335907,87.3587799,-54.0610695
8570,1.4939742,-18.5046902,3.2321558,-76.1984711,35.4198456,-31.1450386
8580,4.4100971,-19.6131992,2.8802099,-70.9847336,-34.0152664,-20.9923668
8590,6.5002246,-19.6131992,1.6855093,-87.7480927,-107.7862625,-29.8854961
8600,6.7779503,-19.6131992,2.0087249,-125.2213745,-180.2366486,-50.9160309
8610,5.8537931,-17.9683914,4.9128766,-173.1755676,-233.7938995,-73.7404556
8620,4.8434453,-16.0506458,9.7156210,-211.1755676,-250.1374054,-93.4885483
8630,2.4827745,-15.2892942,15.8998117,-230.4427490,-227.6106873,-102.4274826
8640,-1.4436963,-14.8918581,19.6126022,-212.4809113,-167.5267181,-85.4427490
8650,-4.3382711,-13.3811245,19.6126022,-144.2366486,-85.8320618,-42.2824440
8660,-4.2089849,-11.7267399,19.6126022,-28.9160309,-0.9694657,10.7022905
8670,-2.0781565,-12.0834742,19.6126022,104.0763321,71.0839691,60.0305328
8680,0.1987177,-12.3109226,19.6126022,211.1755676,106.4961853,100.4274826
8690,3.1555417,-11.6620970,11.2742386,250.1297760,107.7709961,128.4045868
8700,5.9878678,-10.6900558,2.9065459,250.1297760,94.6183243,139.1984711
8710,7.7930865,-9.5887289,-2.3989778,248.0610657,75.3206100,136.6106873
8720,8.9758167,-8.1426382,-4.8530221,191.9160309,61.9312973,125.2519073
8730,9.1386213,-6.8976598,-3.3183465,138.0305328,61.4427490,109.7709961
8740,8.0995426,-5.6957769,0.2657550,106.6488571,72.0000000,96.9923630
8750,6.4834652,-4.5369892,3.0214672,96.4961853,76.2977066,86.3358765
8760,4.5585365,-3.6080434,4.9128766,101.2137375,64.6641235,81.9847336
8770,3.2153964,-2.8012016,5.8944945,110.1832047,41.3664131,83.4503784
8780,2.7221935,-2.3558824,6.3302369,126.1908417,15.7175570,88.1603088
8790,3.1579359,-1.6519908,5.5329719,133.1450348,2.2748091,95.8396912
8800,4.0054789,-0.3471575,4.7907729,128.2824402,7.5267177,100.3435135
8810,4.6710634,1.1228749,4.5441718,116.4580154,20.4961834,101.4885483
8820,5.5712790,1.9728121,4.8865409,99.9770966,37.1145020,100.2748108
8830,3.8761928,7.2759418,8.0827837,33.4427490,15.6412210,4.0458016
8840,3.7636659,7.5105724,7.9295554,22.8244267,33.2748108,-15.9618320
8850,2.9376705,7.7068958,8.0325060,16.9847336,42.3969460,-26.8931293
8860,1.6208663,7.8026633,8.1019373,12.7862597,42.8549614,-34.1145020
8870,0.7014975,7.5752153,8.3317795,11.0534353,35.9083977,-38.0458031
8880,-0.0814024,7.4602942,7.9846220,10.2900763,28.4885502,-39.5190849
8890,-0.6081241,7.5440907,7.7452030,7.5496182,21.9847336,-37.8702278
8900,-0.8978211,7.4914188,7.5081782,2.8702290,15.5801525,-34.5877876
8910,-0.9720409,7.1634150,7.1777802,-4.4045801,9.6488552,-30.2671757
8920,-1.3742647,7.0293403,7.3860745,-13.8015270,1.7938931,-23.8320618
8930,-1.3096216,6.8497758,7.9798336,-20.1984730,-7.4885497,-15.4427481
8940,-0.8738791,6.7157016,8.3988171,-22.6488552,-16.8091602,-7.4274807
8950,-0.1340746,6.7587967,8.7459745,-25.8244267,-26.3053436,-1.9694656
8960,0.6320660,7.0030041,9.0308828,-29.7709923,-32.6259537,0.4503817
8970,1.4915800,7.0820122,9.4953556,-32.9007645,-36.9389305,-0.9618320
8980,1.9345051,7.2519999,10.0005293,-34.4045792,-35.7480927,-4.1908398
8990,2.5665710,7.3669209,10.4650021,-35.3893127,-27.6870232,-8.4427481
9000,2.9520357,7.4531116,10.4530315,-36.3282433,-13.5114508,-15.4122133
9010,2.5162930,7.3884687,10.4171181,-38.8244286,1.8015267,-22.2442741
9020,1.8315549,7.0891948,10.4697905,-40.7175560,16.3740463,-26.7480907
9030,0.8379663,6.7372489,10.5176744,-40.8167953,25.2824421,-27.8320618
9040,-0.0670373,6.3805151,10.5990763,-38.1984749,25.9694653,-25.0458012
9050,-0.5650287,6.2129216,10.6325951,-33.2442741,16.7099228,-20.1145039
9060,-0.7852941,5.9758968,10.5583754,-26.9389305,1.4961832,-13.4885492
9070,-0.6847382,6.0692701,10.4147243,-21.1679382,-13.6641226,-5.7175574
9080,0.0167593,6.1530671,10.0292597,-17.6335869,-25.6564884,1.0534351
9090,0.6512195,6.3326311,9.9765873,-16.6946564,-34.8854980,3.7480917
9100,1.3886299,6.4810710,10.1250277,-16.5954189,-42.9771004,3.5038168
9110,2.1284344,6.4547348,10.3907824,-14.5648851,-48.4122124,-0.1374046
9120,2.5091105,6.3996682,10.3165627,-13.3740454,-51.5267181,-7.0839696
9130,2.5282640,6.2033448,10.4578199,-13.9770994,-54.6870232,-14.9465647
9140,2.1164634,5.9256191,10.7882175,-13.5343513,-57.1832047,-21.3053436
9150,1.7525467,5.3941088,11.0850973,-10.5572519,-58.9083977,-24.0076332
9160,1.3120158,5.0732875,11.2838144,-6.9847326,-56.7557259,-23.6106873
9170,0.8930327,4.9176650,11.4753504,-2.7786260,-52.3053436,-19.8396950
9180,0.8116302,4.8051381,11.7482872,2.6259542,-46.2442741,-14.3664122
9190,0.5506636,4.8649931,11.7099810,9.4274807,-36.4961815,-8.1068707
9200,0.4860204,5.0924411,11.4298601,15.2366409,-23.3969460,-0.7633588
9210,0.8499373,6.8114691,10.5080976,16.2900772,18.3053436,16.6717548
9220,1.4987626,7.5177550,10.3931761,13.2977095,23.6793900,19.5190830
9230,1.8626794,8.2910776,10.5128860,10.1221371,28.9770985,20.4198475
9240,1.8291607,9.9310980,12.0020714,10.9465647,26.8702297,23.0992374
9250,1.7501525,10.8791971,12.7706070,19.3740463,22.3969460,24.5190830
9260,2.0925217,11.4418316,13.1369171,30.2977104,21.1297703,24.5801525
9270,2.3510940,11.9302464,12.8017311,40.7099228,24.8015270,22.8244267
9280,2.3247581,12.2367020,11.8679972,47.0305328,34.6488533,20.0687027
9290,2.2050486,12.1720591,10.6709023,46.1145020,48.9923668,18.7175579
9300,1.9536586,11.8057480,9.4642305,38.9465637,65.0839691,18.0458012
9310,1.3479286,11.9877062,8.1234846,23.4885502,79.1297684,17.7633591
9320,-0.0694315,12.2941628,8.3724804,-20.6030540,83.3893127,18.3816795
9330,-0.2298422,12.2414904,10.2471304,-29.2519093,72.3435135,16.2213745
9340,-0.1316804,11.9901009,11.3532467,-24.7480907,57.0610695,10.7557249
9350,-0.2178712,11.1760759,10.9222927,-12.5267172,33.4961815,3.5419848
9360,-0.5841822,10.5296450,9.3588867,-0.5801527,-0.3664122,-1.6717557
9370,-1.0223188,9.8089943,6.9886389,7.9160304,-50.3969460,-3.4656489
9380,-0.7350162,9.9263096,4.1323709,10.4427481,-114.3206100,-2.1984732
9390,2.0446377,10.0364418,1.6088953,-0.0763359,-176.1068726,-8.0687027
9400,5.3965030,9.6605549,0.5267217,-22.2442741,-215.8091583,-29.1679382
9410,7.7763271,7.7116842,0.3303981,-48.8778610,-221.8854980,-59.9694672
9420,8.2000990,4.5393834,0.0239419,-74.6488571,-195.9389343,-89.3129807
9430,7.1729918,0.6440369,-0.9840119,-100.0839691,-164.8702240,-110.9160309
9440,6.2416520,-2.5474176,-2.0111191,-126.3664093,-144.7404633,-124.1221390
9450,5.8274570,-6.1698260,-2.3032103,-153.8015289,-134.9160309,-131.7022858
9460,5.9423780,-10.0125008,-1.6400198,-180.1297760,-119.2442780,-134.9694672
9470,6.7228842,-14.3914728,-0.5458752,-209.5343475,-79.5114517,-134.6259613
9480,6.4355812,-18.4448357,1.1970947,-242.6412201,-26.9083977,-132.8167877
9490,4.5992379,-19.6131992,4.6566987,-250.1374054,7.5267177,-124.8015289
9500,3.2537034,-19.6131992,9.0787668,-250.1374054,7.0763359,-107.1297684
9510,2.6216373,-19.6131992,13.5606890,-250.1374054,-16.7557259,-84.8167953
9520,2.1954718,-19.6131992,18.5741215,-221.1526642,-48.4122124,-60.0992355
9530,2.7461352,-18.8614254,19.6126022,-165.8320618,-64.3206100,-39.2213745
9540,3.4739690,-16.7329903,19.6126022,-93.5190811,-54.6488533,-25.5801525
9550,3.3375001,-14.8631277,19.6126022,-13.9160309,-19.1068707,-17.2290077
9560,2.1068866,-13.4553452,19.6126022,70.3282471,24.6870232,-5.8473282
9570,0.4213773,-12.8663740,19.6126022,145.4274750,49.9236641,13.9541988
9580,-0.4022238,-12.2295198,13.7067347,198.9465637,51.1450386,39.6183205
9590,-0.0694315,-11.0372133,7.7140784,227.7786255,38.3664131,65.1297684
9600,1.1061156,-9.3780403,2.7892308,230.9007568,23.5648861,85.2290039
9610,2.6120608,-7.6829538,0.0742199,209.3740387,14.9007635,96.7786255
9620,4.0246325,-6.0549049,-0.6153067,174.5725250,19.2290077,101.2900772
9630,5.0254035,-5.0924411,0.7206510,145.4351196,32.0687027,100.1374054
9640,5.3031297,-4.6926112,2.7533178,131.7786255,43.2671738,94.7022934
9650,4.8649931,-3.8737986,3.6655040,129.0915985,48.5954208,95.1603088
9660,4.7764082,-3.0813217,4.0964580,128.4656525,53.6641235,93.2748108
9670,4.5585365,-2.0853391,4.1467361,127.2748108,59.7328262,92.3511429
9680,4.1706781,-0.9840119,4.0964580,124.7633591,63.9618340,92.6259537
9690,4.0366035,0.1556223,3.8809812,119.4503784,67.6641235,94.2671738
9700,3.6655040,1.3287752,3.8905578,110.5954208,66.5267181,94.5496216
9710,3.4524212,2.0302727,4.1060348,100.6335907,60.1221390,95.6106873
9720,4.3717899,6.8904772,6.8066807,29.6641216,28.6412220,1.4427481
9730,3.6439564,7.4866304,6.8162575,9.5572519,36.7480927,-8.8473282
9740,2.9975252,8.0229292,7.6470413,-7.1450381,41.2977104,-17.2137413
9750,3.0956869,7.9343438,8.0181408,-12.2061071,42.2137413,-21.8625946
9760,3.1723011,7.6183109,8.2264347,-16.9465656,42.8854980,-28.1526718
9770,3.0118904,7.5225434,8.6190825,-21.2290077,42.7862587,-35.2519073
9780,2.6623387,7.2711535,8.9614515,-23.3129768,40.3740463,-42.1297722
9790,2.0781565,6.9862447,9.2032642,-22.9465656,37.8167953,-47.0763359
9800,1.1037214,7.0317345,8.9399033,-21.5114498,34.2137413,-49.1145020
9810,0.2657550,7.2687593,8.6717539,-20.2137413,26.2824421,-45.9541969
9820,0.0670373,7.3884687,8.4945841,-19.6564884,17.2442741,-41.7480927
9830,-0.3136388,7.5776095,8.0971489,-21.6106873,8.8167934,-37.5954208
9840,-0.5793939,7.8864598,7.9319496,-26.9007626,-0.6335878,-32.6870232
9850,-0.6607963,8.0277176,8.5257082,-31.3511448,-11.7175570,-25.5343513
9860,-0.4309541,8.2192526,9.2104464,-33.2366409,-21.9465656,-17.9007626
9870,-0.2920911,8.9255381,9.7635050,-31.6641216,-34.2671738,-11.8320608
9880,0.1316804,9.7060442,10.5727406,-27.9847336,-48.9083977,-6.5572519
9890,1.2066715,9.9310980,10.9773588,-23.1450386,-57.0992355,-4.0076337
9900,2.0925217,9.9526453,11.0252428,-19.6564884,-57.4045792,-5.0839696
9910,2.3822186,9.8999729,10.9893293,-19.9694653,-52.0305328,-7.6870227
9920,2.3415172,9.4618368,11.1234045,-20.8396950,-46.3435097,-8.9770994
9930,2.0230901,8.8944139,11.3340931,-18.3206100,-42.5114517,-8.7480917
9940,1.9584470,8.2575598,11.2335367,-12.0000000,-37.7328262,-6.6030536
9950,2.0470319,7.6326761,10.8097658,-6.8320613,-31.0458012,-4.3893127
9960,2.1260402,7.1346846,10.0268650,-5.3969464,-24.4351139,-3.1603053
9970,1.9464760,6.6989422,9.6078825,-7.9236641,-19.1679382,-2.7938931
9980,2.0422437,6.0477223,9.6390066,-10.5725193,-14.7786255,-2.5419848
9990,2.1356170,5.6263452,9.7658987,-11.8320608,-9.9007635,-3.2213740
