timestamp,acclX,acclY,acclZ,gyroX,gyroY,gyroZ
0,4.2903876,4.5585365,6.7587967,-29.8244267,45.8320618,20.0763359
10,4.2640514,4.5178356,6.8330169,-47.8396950,28.1984730,25.1984730
20,4.7045822,4.5633249,7.4698710,-56.7862587,25.0076332,25.2519093
30,4.6566987,4.7093706,8.4179697,-60.0381660,21.3893127,21.8396950
40,4.5705075,4.8625989,9.0859489,-59.4198456,13.3511448,17.8091602
50,4.1347651,4.7021880,10.0962973,-48.9771004,1.2137405,18.4732819
60,4.3550305,4.6566987,10.4961262,-38.2977104,-1.5114504,20.1755733
70,4.5345950,4.5729017,10.5847120,-26.6717548,-1.5190840,20.0534344
80,4.5178356,4.3526363,10.3381100,-15.4961834,-1.2977099,19.7862587
90,4.2879934,4.1994085,9.2726955,-4.5343513,7.8320613,23.3358784
100,4.2377152,4.3310885,9.0787668,1.9770992,10.2137403,14.7862597
110,4.0820932,4.2065907,8.8034344,6.1221375,7.9465647,13.5801525
120,3.9480183,4.1994085,8.6956959,10.8778629,5.9618320,12.0229006
130,3.9935081,4.2640514,8.1234846,13.9923668,2.8549619,10.5114508
140,3.8187323,4.3813667,7.9056134,15.0916033,1.0763359,8.5114508
150,3.7493007,4.2736282,7.8529415,15.5801525,2.4656489,7.1297708
160,3.5745249,4.1515245,7.6709828,16.2366409,4.6106873,7.1068702
170,3.5218527,4.1587071,7.2424231,15.7938929,6.5572519,7.9160304
180,3.5386121,4.1970143,6.9048424,13.3053436,5.9618320,8.2061071
190,3.4308734,4.1898317,6.6031747,8.3282442,2.2977099,7.7328243
200,3.4165084,4.1682839,6.3565731,1.4427481,-3.3511450,6.9083967
210,3.5146701,4.1587071,6.5265603,-5.3129773,-7.7786260,6.6946564
220,3.8474624,4.0126615,7.3669209,-12.3206110,-16.0000000,6.9923663
230,3.9025288,3.8953462,7.8409705,-11.9541988,-20.7099228,6.6870227
240,4.4867110,3.7923961,8.4778252,3.5877862,-34.3358765,0.6870229
250,4.6136031,4.0940638,7.8313937,-2.2900763,-22.0534344,-3.7938931
260,4.5681133,4.0030847,7.9032192,-7.3587785,-14.9389315,-2.6870229
270,4.5106530,3.9671719,8.1402445,-11.8702288,-7.4122138,-0.8244275
280,4.3263001,3.8450682,8.7842808,-16.8015270,3.0610688,3.8625953
290,4.2903876,3.7947903,9.0883436,-15.6641226,4.7022901,5.9770994
300,4.2496862,3.7229645,9.2535419,-12.3282442,5.5496182,7.8931298
310,4.3119354,3.7445123,9.2942438,-7.8778625,5.3511453,9.5343513
320,4.3622131,3.8115497,9.2319946,-3.0458016,3.0534351,10.2213745
330,4.4627690,4.0150557,8.9446917,1.2290076,0.5038168,10.1068707
340,4.5106530,4.2161674,8.6262646,2.8473282,-2.0076337,9.0992365
350,4.6758518,4.4100971,8.2384062,2.5572519,-3.2595420,7.7480917
360,4.6590929,4.6064205,7.9894104,0.5419847,-3.7328243,6.9923663
370,4.6447277,4.8482337,7.7475972,-3.5343511,-2.8015268,6.3893127
380,4.8410511,5.0301919,7.7356262,-8.2595415,1.5725191,6.2900763
390,4.9487896,5.1714492,7.8936424,-12.2290077,7.2519083,6.9465647
400,4.6495161,5.5114241,7.5225434,-12.2137403,42.6412201,11.0916033
410,4.5824785,5.5186067,7.3405848,-12.9083967,36.2595406,12.0839691
420,4.6375451,5.5856438,7.4148049,-16.3969460,24.9083977,12.1679392
430,4.6878228,6.8689294,8.8106174,-18.0152664,-17.4503822,2.8778627
440,4.8817525,7.4124107,9.0117292,-14.7404585,-31.6793900,-0.7022901
450,5.2720051,8.0875721,8.8608952,-11.6183205,-40.8320618,-4.6030536
460,5.4348102,8.4347296,8.6693602,-10.2366409,-45.4045792,-8.6564884
470,5.2432747,8.8704720,8.3413563,-10.7328243,-47.3740463,-10.3587790
480,4.9894910,9.1601686,8.0516596,-15.5725193,-43.1297722,-8.2824430
490,4.6519103,9.7347746,7.9582858,-24.8244267,-32.3435097,-3.0687022
500,4.4436154,9.9406748,7.9343438,-37.1145020,-17.2290077,3.8015268
510,4.1922259,9.9741936,8.6310530,-60.7480927,-5.8091602,11.9923668
520,4.0988522,9.8784256,9.3660688,-66.3511429,-14.2748089,13.6488552
530,4.0318151,10.1513634,10.3381100,-69.1068726,-23.6335869,16.5801525
540,4.6183915,10.5583754,11.2143831,-71.5572510,-25.2442741,19.0381680
550,5.2145448,10.3548698,11.9541883,-73.1374054,-15.7557249,17.0687027
560,4.6806402,10.4027529,12.3133163,-74.1908417,-0.7328244,15.2061071
570,3.6032550,10.6038647,12.3540173,-72.7709961,10.0687027,17.2137413
580,3.3973548,10.4602137,11.6812506,-71.3740463,14.4656487,19.5877857
590,3.4548154,9.9646168,10.6685085,-72.8625946,20.4885502,19.9007626
600,3.4404502,8.8441362,9.0979195,-81.2442780,31.9160309,19.0152664
610,3.1435707,7.4387465,8.0085640,-91.8167953,32.7557259,15.5572519
620,2.9999194,4.4555864,6.9407554,-87.5725174,-28.4885502,-2.2595420
630,3.9887197,3.1028695,6.0285692,-72.8320618,-81.8473282,-17.3511448
640,5.6263452,1.0462608,4.3095412,-63.3206100,-126.3587799,-38.0305328
650,7.7140784,-1.5873476,3.2369442,-56.2061081,-157.8473358,-65.6106873
660,9.4259243,-4.4627690,2.2385671,-51.1374054,-173.5267181,-97.2519073
670,10.8313131,-8.2503767,0.7589580,-55.1297722,-166.8320618,-124.8625946
680,11.5208397,-12.6461086,-0.6488253,-67.2595444,-144.2824402,-148.1297760
690,11.2167778,-16.8431225,-1.8626794,-88.1526718,-124.1450348,-161.1221313
700,9.8880024,-19.6131992,-2.4277081,-118.2366409,-125.7328262,-156.2671814
710,8.0564480,-19.6131992,-2.3103929,-159.2595367,-143.8473358,-130.5877838
720,7.3956513,-19.6131992,-0.9983770,-214.0000000,-158.7633514,-87.7404556
730,9.0787668,-18.4759598,1.4245427,-250.1374054,-145.6488495,-58.2061081
740,10.5128860,-16.0290985,5.1570840,-250.1374054,-97.4274826,-62.8244286
750,9.5959110,-15.2078915,11.9015160,-250.1374054,-23.7328243,-84.1374054
760,5.7316895,-14.3483772,19.6126022,-250.1374054,45.9923668,-95.2290039
770,0.7302278,-12.2151546,19.6126022,-250.1374054,66.3893127,-76.6030502
780,-0.2801202,-10.0364418,19.6126022,-103.2748108,106.3129807,-31.0305347
790,0.6584021,-11.6429434,19.6126022,70.3129807,169.6717529,15.2748089
800,1.4341195,-12.5120344,19.6126022,223.0152740,192.8549652,51.3740463
810,2.0302727,-12.0236197,13.8216553,250.1297760,164.0381622,83.8625946
820,3.5577655,-12.1145983,5.0589223,250.1297760,103.0000000,103.5725174
830,5.3438311,-10.9414454,-1.9823889,250.1297760,34.2900772,108.8091583
840,6.8689294,-8.6933022,-6.9886389,250.1297760,-17.9770985,108.4351120
850,8.5233145,-6.6079631,-9.6916790,250.1297760,-27.0076332,106.0305328
860,9.7587166,-4.5537481,-8.8800488,200.1374054,11.6717558,100.7328262
870,10.1920643,-3.1435707,-6.0908179,131.1832123,71.9236679,96.5038147
880,10.0771437,-2.7174051,-2.1619530,82.1374054,121.5496216,98.7786255
890,9.5528164,-2.5426292,1.7166338,56.5419846,150.0763397,97.1603088
900,8.2815018,-1.8124014,4.7620430,51.3740463,158.8091583,102.0381699
910,8.1713686,-1.4436963,6.9694853,58.3740463,146.2061005,102.9389343
920,8.2024927,-0.9385223,8.1593981,76.4122162,130.4885559,98.5648880
930,8.4658537,-0.7398046,8.3150196,99.3358765,116.2137375,87.8854980
940,8.3174143,-0.1316804,7.8266053,119.0992355,97.1297684,74.3511429
950,8.5855637,0.2753318,6.6510582,132.6106873,75.9465637,58.9694672
960,8.1186962,0.7421987,5.4156566,136.4274750,57.6564903,42.0610695
970,7.3262196,1.5897418,4.5920553,131.0458069,44.3282433,28.3358784
980,6.6773944,2.0422437,4.2281384,120.2213745,32.1068687,15.4732828
990,4.9679432,2.6575503,5.2624283,99.6335907,14.4274807,0.2824427
1000,3.8235207,3.3518653,5.6383162,77.2213745,29.6641216,0.2366412
1010,3.4548154,3.6271970,5.9256191,64.9847336,38.0381660,2.7862597
1020,3.2584918,3.6774750,6.3589673,55.1526718,44.8625946,8.6183205
1030,3.5146701,6.0549049,7.4986014,28.3282452,35.1908379,8.0152674
1040,2.8442972,6.0405402,7.7332320,24.0229015,20.8015270,0.0534351
1050,2.3343346,6.1171541,8.3317795,24.0763359,3.3816793,-4.1145039
1060,2.1619530,6.0453281,8.7411861,29.9541988,-17.9694653,-4.8320613
1070,2.2313845,6.0357518,8.7603388,38.6946564,-37.9465637,-2.9618320
1080,3.2177906,7.3070664,7.7499914,34.0152664,-59.2519073,-1.7786260
1090,3.1507533,7.2639709,7.8337879,28.4580154,-62.0458031,-4.5419846
1100,2.5737536,6.2105274,8.3557215,21.7938938,-56.7099228,-3.3435113
1110,3.1292057,7.2304521,8.4562769,17.5648861,-45.7175560,-0.2290076
1120,4.0102673,7.2639709,8.6071110,13.3816795,-37.8778610,-2.2671757
1130,3.6631098,6.9024482,8.6741486,12.2137403,-29.6106873,-4.6564884
1140,3.2680686,6.4188218,8.3150196,10.5038166,-18.8473282,-0.9160305
1150,2.9687948,6.4882536,7.9295554,6.6030536,-8.8625956,6.0839696
1160,3.0118904,6.8258343,8.5448618,5.1297708,-7.6259542,12.4274807
1170,3.3279233,7.0556765,8.7866755,6.9923663,-6.2519083,18.0381680
1180,4.3095412,7.0796180,8.3557215,7.7938933,5.0000000,22.8167934
1190,5.0708933,7.4100165,7.7475972,4.9694657,22.5725193,23.6335869
1200,6.1554613,7.7739329,5.9447722,-15.6717558,59.1297722,14.2290077
1210,4.0222383,6.8354111,6.6103573,-48.0687027,73.0381699,-4.0076337
1220,3.1890604,6.4116392,7.4890246,-47.6106873,56.6717567,-5.3129773
1230,2.7940190,6.1674318,8.2886839,-41.1374054,36.1221390,-3.7251909
1240,2.8012016,5.8466105,9.0045462,-19.7862587,1.5572519,5.0381680
1250,2.8993635,5.9136481,8.8656836,-10.7175570,-8.5954199,10.6946564
1260,3.2560976,6.2272868,8.4083929,-5.3893127,-13.2290077,17.2366409
1270,3.9911139,6.5840211,7.9151902,-4.9389315,-11.0839691,22.1221371
1280,4.9392128,6.7971039,8.1713686,-23.8625946,7.4961834,8.1221371
1290,4.6375451,6.6247220,8.7483683,-21.7557259,1.2824427,4.9007635
1300,4.6159973,6.4906478,9.4331064,-7.8015265,-16.2290077,-0.3206107
1310,4.4507980,7.3549500,7.2855186,-0.3129771,-33.9541969,-4.6335878
1320,4.8985114,7.2543941,7.4100165,-6.2977099,-29.1679382,-6.0916033
1330,4.9847026,6.9814563,7.4674768,-12.1984730,-23.3053436,-8.3816795
1340,4.6016321,6.9072366,8.0013809,-15.1679392,-21.5267181,-10.5725193
1350,4.2640514,7.0772243,8.4514885,-14.4885492,-25.3435116,-11.5114508
1360,4.0533628,7.4100165,8.7818871,-10.9389315,-31.3282452,-11.0687027
1370,4.3717899,7.6374645,8.6142941,-6.9389315,-36.1145020,-9.8778629
1380,4.3693957,7.8026633,8.4993725,-6.1984735,-37.8320618,-8.6717558
1390,4.4843168,8.2336178,8.4802189,-8.4656487,-38.1450386,-5.0916033
1400,4.2161674,8.6454182,8.6861191,-10.8091602,-39.9389305,-0.5343512
1410,4.8913293,9.0931320,9.3397331,-13.6488552,-42.9083977,3.4198472
1420,5.9878678,9.4666252,9.9119444,-13.9923668,-43.9389305,0.9923664
1430,6.9982157,9.7419567,10.2255831,-12.6870232,-49.3664131,-11.9923668
1440,6.8066807,9.3253679,10.4673967,-9.7557249,-60.6488533,-29.8244267
1450,5.6359220,8.9686337,10.6709023,-3.5725191,-79.9770966,-42.8396950
1460,4.4867110,9.1529865,10.8432837,6.7404580,-103.4274826,-46.8702278
1470,4.1706781,9.4929609,10.2950144,17.0381680,-120.6870193,-46.6717567
1480,3.8618276,9.7563219,9.2272062,21.0534344,-123.0381699,-44.1145020
1490,3.1004753,9.5911226,8.1258793,17.8702297,-109.5496216,-35.4580154
1500,2.4181314,9.7682934,7.1370788,7.6564884,-85.0610657,-18.7251911
1510,1.7908537,9.8999729,5.8106980,-26.8549614,-15.4198475,21.1374054
1520,2.1954718,8.8968077,5.3390427,-52.7328262,11.0763359,43.3587799
1530,2.5354466,7.9511032,5.2791877,-55.2137413,-3.4122138,45.9771004
1540,2.9975252,7.0460997,4.9751258,-51.6259537,-29.6870232,45.2213745
1550,4.0174499,6.1051831,4.1299767,-50.3816795,-51.7251892,42.9923668
1560,5.3869262,4.6040263,3.2034254,-56.3893127,-56.5954208,38.4809151
1570,6.7803445,2.5450234,2.5785420,-67.8396912,-47.9541969,30.6488552
1580,7.5488791,0.3112446,2.4516499,-77.9542007,-36.9312973,18.0839691
1590,7.9870162,-1.9752063,2.4564383,-81.1450348,-36.4961815,2.3053436
1600,8.1593981,-4.6973996,2.8179610,-75.9542007,-53.7099228,-16.2824421
1610,8.9087791,-6.6247220,2.3223639,-65.1374054,-82.5801544,-34.5267181
1620,9.3540983,-9.0979195,1.2641320,-56.5725174,-114.3664093,-52.3816795
1630,9.5336628,-11.7506819,0.0071826,-55.7938919,-149.5648804,-67.1679382
1640,8.9183559,-13.6205435,-1.2497669,-68.7251892,-183.9313049,-72.6335907
1650,8.6095057,-14.5566721,-1.8315549,-95.0076370,-210.9541931,-69.7709961
1660,8.3317795,-14.3675308,-1.0366840,-128.9084015,-221.7633514,-60.0916023
1670,8.4802189,-13.7043400,0.3591284,-166.9007568,-212.9694672,-45.5114517
1680,9.0069408,-12.7035694,2.9496415,-202.8473358,-183.5114441,-30.9847336
1690,9.5576038,-11.3101511,6.2464404,-231.1145020,-131.6641235,-22.4045811
1700,9.4522600,-10.3500814,9.8161764,-246.5648804,-70.5190811,-20.8931293
1710,8.8896255,-9.5935173,14.0538921,-239.8854980,-17.3053436,-24.4885502
1720,7.4387465,-8.7747040,18.0306416,-205.2442780,14.0076332,-27.4885502
1730,6.2608056,-8.1354561,19.6126022,-141.7633514,20.0992374,-25.2748089
1740,6.0644817,-7.2567883,19.6126022,-60.7633591,19.4045811,-19.4885502
1750,6.4451580,-6.5313487,19.6126022,24.8625946,19.4122143,-13.3358774
1760,7.0221577,-6.2057390,17.9659977,101.5190811,27.1145039,-9.4427481
1770,7.2735476,-6.1985564,13.5822372,159.5419922,38.9847336,-5.7480917
1780,7.3573442,-6.2943239,9.7754755,194.3206177,48.5114517,0.1145038
1790,7.2184811,-6.2201042,5.6694407,208.9465637,57.4885483,8.5801525
1800,7.1011658,-5.5018473,2.2218077,205.1984711,65.4198456,19.5190830
1810,6.7372489,-4.1946201,-0.2274480,185.7022858,71.9465637,30.4427490
1820,6.8521700,-2.9568241,-1.9536586,155.7862549,78.2290039,38.4427490
1830,7.0868006,-2.1835008,-2.2864509,121.2900772,84.6335907,42.7557259
1840,7.2519999,-1.1970947,-0.9289455,91.2366409,84.5572510,43.6183205
1850,7.4076223,-0.2011119,0.7613522,70.5343475,79.1603088,40.8396950
1860,7.0484939,3.4979107,6.8737178,6.9694657,81.5572510,41.1755714
1870,7.0724359,3.5625539,7.8936424,2.6412213,85.1526718,38.3435097
1880,6.9958215,3.6224086,8.6980906,2.5725191,69.6488571,28.3969460
1890,6.6989422,3.5266411,9.3564920,8.5648851,45.2290077,18.3358784
1900,6.6965480,3.3135581,9.6222477,28.2671757,7.6412215,7.2213740
1910,7.1394730,3.6248028,9.0787668,31.7633591,9.1679392,4.3129773
1920,7.0820122,3.9935081,8.3078375,25.3587780,26.8854961,4.5725193
1930,6.5121951,4.5106530,8.2120695,13.9541988,50.7099228,8.7862597
1940,6.2536230,4.5417776,8.2479830,2.7862597,71.9312973,15.2290077
1950,5.5210009,5.9567432,8.9518747,3.1450381,53.1145020,27.0458012
1960,6.3110833,6.7157016,8.7818871,5.2061067,40.1297722,22.3893127
1970,6.5696559,7.2927012,8.3605099,4.0992365,32.3587799,14.5419846
1980,6.7300668,7.3477674,8.0492649,-2.3358779,29.4122143,8.0839691
1990,6.4762826,7.2041159,8.2503767,-9.8625956,28.1908398,4.5419846
2000,4.7309184,7.6566176,9.6102762,-17.2748089,26.4351139,13.4809160
2010,4.3478479,8.0732069,9.8664551,-20.0763359,27.0534344,22.0000000
2020,4.1443419,8.1785507,10.2998028,-22.9923668,28.0305347,31.2595425
2030,4.3670015,8.0708122,11.0467901,-23.4885502,23.1526718,39.6793900
2040,5.0541339,7.6470413,11.7889891,-19.6106873,9.7328243,44.3969460
2050,5.8921003,7.1490498,12.3061342,-11.2366409,-8.9541988,44.5648842
2060,6.8689294,6.8330169,12.6724443,-0.4351145,-28.3893127,39.6106873
2070,7.8697009,6.5528965,12.9477768,12.5419846,-43.3282433,29.5343513
2080,8.3054428,6.3709383,12.6078014,25.7557259,-51.6030540,17.1297703
2090,8.3868456,5.8968887,11.5663290,35.1603050,-53.6870232,4.8625956
2100,8.0468712,5.3414369,10.4386663,37.9312973,-49.1297722,-5.4045801
2110,7.3621325,4.8865409,9.5935173,36.7099228,-42.1908379,-12.6717558
2120,6.6151457,4.3646073,8.9829988,34.2442741,-34.7328262,-16.1297703
2130,5.8729467,4.0366035,8.4850073,31.6564884,-28.2061062,-16.1755733
2140,5.5138183,3.8019729,8.1570034,29.2290077,-22.2671757,-14.8167934
2150,5.2815819,3.4907281,7.9199786,27.0610695,-15.7938929,-13.2595415
2160,5.0876527,3.3087699,7.5512733,24.6030540,-11.4351149,-12.4961834
2170,4.7620430,3.2584918,7.3884687,22.0839691,-10.1679392,-11.7786255
2180,4.6351509,4.4914994,6.8401995,2.9389312,6.5343513,0.6106870
2190,4.5034704,4.5681133,7.0269461,-4.0916033,12.9389315,2.8778627
2200,4.3358769,4.5752959,7.4674768,-8.5038166,16.3435116,6.7251906
2210,3.9695661,5.1618724,8.5017672,-7.0916033,6.4580154,24.9541988
2220,4.6351509,5.4922705,8.6956959,-3.7786260,0.8625954,30.9618320
2230,5.6263452,6.0070214,8.4323349,-1.5496184,1.0229008,33.3129768
2240,6.1363077,6.6175399,7.9080076,-4.8091602,9.8854961,33.0916023
2250,6.1746144,6.9718795,7.4770536,-13.2442751,23.0305347,32.3206100
2260,6.1841912,7.0484939,7.3429790,-21.8931293,32.6412201,30.5725193
2270,5.7795734,7.0915890,7.4842362,-26.5496178,27.5419846,27.3435116
2280,5.5617023,7.2256637,7.5632443,-19.7480907,-26.2900772,15.4503813
2290,6.0357518,7.4531116,6.9168134,-14.9083967,-59.8931313,7.0763359
2300,6.9431496,7.4459291,6.3469963,-14.1374044,-85.1832047,-3.2900763
2310,7.5680327,7.0915890,5.4755111,-20.6335869,-92.0763321,-14.3282442
2320,7.4674768,6.5959921,4.7811961,-35.4580154,-82.0457993,-22.3893127
2330,6.7971039,5.8801293,4.7788019,-53.1450386,-65.9389343,-26.1679382
2340,6.3015065,5.0277977,5.0110383,-68.3969498,-51.7404594,-26.0687027
2350,5.9136481,4.2065907,5.4084740,-78.6183243,-43.2290077,-25.2900772
2360,5.4611464,3.7085996,5.8130918,-79.5038147,-49.1603050,-24.7328243
2370,5.1235652,3.5649481,5.4994531,-76.1526718,-67.2824402,-24.4045811
2380,5.2456689,3.2872221,5.0900469,-73.4427490,-88.9312973,-25.3587780
2390,6.0070214,2.5354466,4.5369892,-76.8625946,-95.2366409,-25.3435116
2400,6.4475522,1.3359578,3.7876077,-91.8625946,-71.1755753,-22.5496178
2410,6.1410961,0.2011119,4.2353210,-109.9694672,-34.8702278,-17.5496178
2420,5.8490047,-1.0917504,5.0541339,-121.4274826,-0.6793893,-8.0381680
2430,6.2991123,-2.5569944,5.8490047,-122.8625946,25.7633591,-0.3435115
2440,7.0365229,-3.6343796,6.2536230,-115.0457993,36.8854980,0.1908397
2450,7.7882981,-5.1163831,6.6797886,-98.3282471,33.0839691,-7.6488547
2460,8.3940287,-6.3302369,6.4643116,-74.5190811,11.5648851,-21.6870232
2470,8.8417416,-7.5249376,5.6239510,-52.2595406,-19.3816795,-39.3969460
2480,8.8154058,-8.5592270,4.6040263,-36.6335869,-55.5725174,-56.6335869
2490,8.5233145,-9.1769285,3.3734128,-32.8320618,-86.7786255,-68.5114517
2500,8.0325060,-9.3349447,2.2313845,-43.6183205,-101.1908417,-74.7633591
2510,7.3262196,-9.1625633,1.8914096,-65.8854980,-103.4580154,-75.5038147
2520,6.5457139,-8.9015961,1.8411317,-97.6717529,-89.0152664,-73.6793900
2530,5.8130918,-8.3652983,2.9304879,-133.6564941,-63.0381660,-70.7251892
2540,4.9870968,-8.2431946,6.1003947,-161.1374054,-38.5954208,-64.9542007
2550,4.2185616,-8.9039907,10.0699606,-166.7633514,-14.9847326,-53.1450386
2560,3.7397239,-9.0452480,14.2190914,-145.9847260,1.4580153,-35.5648842
2570,4.0677280,-8.4419117,17.2094345,-101.7099228,16.2366409,-21.4580154
2580,4.6902170,-7.5345144,18.7297440,-43.2671738,31.9389305,-13.6870232
2590,4.2951760,-6.6917596,18.6435528,22.8931293,43.5496178,-7.6412215
2600,4.0437860,-6.5816269,16.1799316,84.9312973,48.3511467,3.6870229
2610,4.2712340,-6.6702118,12.4162664,132.8244324,45.1221390,20.5190830
2620,4.9392128,-6.2272868,8.9542685,160.5648804,38.2671738,36.4274826
2630,5.8370337,-5.1092005,5.2121506,167.2595367,38.9465637,49.3664131
2640,6.8449879,-4.1443419,2.4157372,153.4274750,46.7480927,58.3893127
2650,7.5584559,-3.1579359,1.0223188,126.7251892,61.3893127,62.3587799
2660,7.8170285,-1.9488702,1.0965388,96.4809189,77.1603088,62.0381660
2670,7.4746594,-1.3263810,2.5258698,68.9083939,87.9465637,60.1679382
2680,7.3214312,-0.6224893,4.2951760,52.8167953,87.7328262,58.8167953
2690,6.7755561,-0.2561783,6.2272868,47.1145020,78.8702316,58.8320618
2700,7.5512733,1.6591733,8.1378498,52.4809151,11.6564884,7.5038166
2710,7.7188668,1.0989330,8.0325060,50.0916023,19.5114498,2.3816793
2720,5.0182209,0.7517755,8.4251528,40.1603050,51.8320618,3.6412213
2730,5.1427188,1.3359578,8.2455883,43.1068687,47.6030540,7.2748094
2740,4.9559722,1.0462608,8.3629036,44.1068687,41.6259537,8.3435116
2750,5.3031297,1.6663558,8.1043310,43.9007645,35.6641235,7.6946564
2760,5.5138183,1.8267666,7.9941988,44.1145020,31.3893127,6.5038166
2770,5.8130918,1.5969244,7.8385763,44.8091621,26.5801525,4.7862597
2780,6.1051831,1.5801650,7.5608501,44.6564903,21.1832066,1.9236641
2790,4.6159973,3.4907281,7.2184811,31.9618320,22.1832066,1.6259542
2800,4.8673873,3.8642218,7.3573442,26.0839691,21.7175579,5.2366414
2810,4.9392128,4.1587071,7.7523856,20.4122143,18.8167934,6.1374044
2820,5.1259594,4.1156116,8.1809454,17.3206100,13.3129768,7.0687022
2830,5.6407104,4.0868812,8.6190825,17.9083977,8.5343513,7.4809160
2840,6.2392578,4.2544746,8.6885138,19.8625946,5.5648856,5.4045801
2850,6.6534524,4.8530221,8.4850073,18.7251911,4.3816795,0.5343512
2860,4.9248476,5.7292953,8.3581152,-0.6717557,25.5801525,-18.5267181
2870,3.8618276,5.6095858,8.3485384,-3.1755726,18.3053436,-15.2824430
2880,3.5481887,5.4060798,8.7770987,-3.3511450,6.5496182,-8.1068707
2890,3.9336534,5.5952206,9.1721401,-0.5801527,-1.7633588,0.2519084
2900,5.3917146,6.5505023,9.2511482,1.4045801,4.0992365,6.0610685
2910,7.6614060,8.1881275,8.6190825,-4.6946564,34.9389305,2.7557251
2920,10.0436249,9.3086090,7.3142486,-24.7022896,97.7480927,-11.6793890
2930,9.9215212,9.9789820,6.1889796,-55.3511467,173.6946564,-36.5419846
2940,6.0884237,9.2176294,5.5712790,-84.9770966,220.0686951,-56.0610695
2950,1.3168042,8.5592270,6.1243367,-103.3129807,219.0839691,-58.4427490
2960,-2.3056045,8.6214762,7.6063399,-110.0381699,177.6030579,-44.4045792
2970,-3.4763632,8.8848372,9.2008705,-109.8931274,122.1908417,-19.5038166
2980,-2.7078283,8.9782104,10.5655584,-106.0839691,67.3511429,5.1755724
2990,0.2346306,9.8185711,12.1217813,-103.0305328,30.1984730,20.5419846
3000,3.6200144,10.2471304,13.7019463,-101.6030502,28.8091602,20.3740463
3010,4.9990678,10.2758608,14.9756546,-97.0916061,43.5419846,7.9160304
3020,4.4507980,9.5815458,15.8782644,-83.0229034,45.0534363,-6.8473282
3030,3.2345500,8.9782104,16.0434628,-59.9618340,17.7480907,-16.4198475
3040,2.8107784,8.9877872,15.8974180,-34.8167953,-23.9083977,-21.7404575
3050,3.2608860,9.1266499,15.6532106,-11.2213745,-61.3358765,-25.0610695
3060,4.0749106,9.1817169,15.5167418,8.3969469,-80.1374054,-29.2824421
3070,3.4643922,9.6533718,15.1767673,26.6641216,-92.3282471,-31.0000000
3080,3.1555417,9.7275915,14.3364067,45.2290077,-111.0916061,-29.3816795
3090,3.7373297,10.2471304,12.8615856,61.5572510,-129.9160309,-28.4045811
3100,5.2935529,11.0850973,10.4841557,68.9312973,-139.2290039,-32.5419846
3110,6.8282285,11.8512383,7.4507174,60.9389305,-135.4961853,-45.0458031
3120,7.4076223,12.1744537,4.6614871,39.6106873,-131.5114441,-63.8396950
3130,6.2919297,12.5575237,3.2417326,10.3664122,-133.5343475,-83.0687027
3140,4.2736282,12.7849712,3.3279233,-17.4580154,-140.2366486,-94.4732819
3150,2.4205256,11.5998478,4.4867110,-35.8778610,-151.1068726,-95.4503784
3160,0.9983770,8.4850073,4.6447277,-41.0534363,-156.9465637,-83.8091583
3170,-0.2873027,4.6973996,3.6248028,-41.2061081,-156.4274750,-56.4656487
3180,-0.1388630,0.5626345,2.3965836,-38.4198456,-153.1068726,-17.8549614
3190,2.3870070,-4.2784166,1.5753766,-33.2671738,-138.9465637,22.0610695
3200,6.1075773,-9.6916790,0.4788379,-25.8015270,-114.5038147,48.8778610
3210,10.4961262,-16.6180687,-0.9145803,-20.0458012,-87.4274826,58.3816795
3220,13.8192616,-19.6131992,-2.5498118,-24.3358784,-76.1450348,48.9160309
3230,15.8231983,-19.6131992,-3.8402798,-44.3206100,-95.3053436,26.8778629
3240,16.2565460,-19.6131992,-4.6447277,-90.9083939,-141.7709961,3.2900763
3250,15.3826675,-19.6131992,-3.1723011,-167.4961853,-186.0229034,-25.3740463
3260,15.1480370,-17.3937855,1.7190280,-250.1374054,-175.3511505,-69.3206100
3270,13.5966015,-14.4441452,10.0915089,-250.1374054,-108.0076370,-131.7022858
3280,7.6111283,-17.9564209,19.6126022,-250.1374054,9.5038166,-178.1068726
3290,-1.7142396,-18.6220055,19.6126022,-241.4656525,99.4885483,-170.1603088
3300,-7.5297260,-16.9053726,19.6126022,-48.8320618,137.4045868,-110.3435135
3310,-6.5744443,-16.8072090,19.6126022,145.6564941,143.4885559,-28.1603050
3320,-1.9488702,-16.5701847,19.1032372,250.1297760,117.8167953,38.1603050
3330,3.6966286,-14.6189203,2.8155668,250.1297760,77.9847336,79.8473282
3340,8.6933022,-11.6620970,-9.7994175,250.1297760,66.6106873,98.6564865
3350,12.0284081,-7.8242111,-13.3284531,192.1526642,103.3740463,97.8778610
3360,11.8560257,-5.0828643,-9.2966375,113.6259537,159.4351196,94.9923630
3370,9.4091644,-3.5026991,-3.4284792,73.8549652,193.7557220,95.9770966
3380,7.6207051,-2.1427996,0.7805058,67.0534363,193.7709961,99.5725174
3390,6.4762826,-0.7302278,3.2273674,78.6106873,170.0152740,102.9847336
3400,5.8873119,0.7062859,3.6702924,89.8396912,137.6488495,102.8320618
3410,5.7460546,2.4779861,3.3853838,92.5877838,107.2977066,100.3893127
3420,5.7412663,7.7284436,8.8201942,48.9923668,15.1603050,8.5496187
3430,5.0828643,7.9774394,8.2743187,45.9618340,11.8854961,2.0839694
3440,4.2784166,7.7715387,7.4243813,40.1297722,7.6335878,-4.8091602
3450,3.6319854,6.9838505,6.7635851,29.8473282,2.0381680,-8.6641226
3460,3.5864959,6.2536230,6.8713236,19.6641216,-3.4580152,-10.4503813
3470,4.1563129,5.4443870,7.2519999,11.3969469,-4.1374044,-11.8015270
3480,5.0637107,4.5705075,7.2065101,3.5725191,3.1755726,-14.7786255
3490,4.7381010,4.1754665,7.4339581,-3.1755726,13.9541988,-18.8625946
3500,3.6990228,4.3981261,7.5704269,-7.9007635,21.4656487,-19.4732819
3510,2.6096666,4.6351509,7.4507174,-13.0076332,25.5114498,-16.8244267
3520,1.6519908,4.5010762,7.6829538,-16.8473282,22.1145039,-12.2442751
3530,2.7126167,3.6080434,8.2360115,-14.8015270,-10.8091602,10.7251911
3540,4.1539187,3.4189026,8.0732069,-19.1297703,-4.2366414,13.6870232
3550,5.2121506,3.3638363,8.1019373,-25.4351139,9.6717558,9.6946564
3560,4.8937230,3.0047078,8.7986460,-35.5572510,27.9160309,-7.4503818
3570,4.3717899,2.3439114,9.0141230,-34.5572510,27.9007626,-14.0992365
3580,3.5912843,1.7333932,8.9111729,-33.0916023,27.8778629,-15.7328243
3590,2.9065459,1.6472024,8.9877872,-32.1068687,30.5038166,-12.4580154
3600,2.6288199,1.6256547,8.4586716,-33.8931313,36.8473282,-6.0076337
3610,5.4539638,1.6328372,11.2766323,-54.5496178,51.1297722,-6.8015265
3620,5.0541339,1.4939742,12.2702208,-42.5801544,45.5954208,-13.6870232
3630,4.4005203,1.5610116,12.4689388,-28.1068707,40.9007645,-16.4198475
3640,4.0773048,1.7262106,11.8727856,-15.4198475,36.3206100,-16.7251911
3650,3.4739690,2.0278785,11.1305866,-7.8244276,26.7938938,-16.8015270
3660,3.1268115,2.5402350,10.6900558,-2.0305343,11.0229006,-15.4122133
3670,3.1124463,3.3398943,10.0364418,1.4351145,-3.3282442,-13.2671757
3680,3.7301471,3.7780309,9.7323799,1.3511450,-12.0000000,-10.2671757
3690,4.4172797,4.2568688,9.6892843,-2.6946564,-11.5725193,-8.4732828
3700,4.2999644,5.7723908,10.3333216,-13.1908398,1.3664122,-5.2977099
3710,3.8163381,6.7157016,10.8265247,-17.7480907,1.8778626,-3.1526718
3720,3.7469065,7.6973190,11.7075863,-21.3282452,-3.8854961,-0.5190840
3730,4.2281384,8.6262646,12.5982246,-21.9160309,-11.2137403,0.4580153
3740,5.1020179,9.7515335,13.3930960,-21.3129768,-15.0305347,-1.4656489
3750,5.0613165,11.0156660,14.4010496,-20.8167934,-16.5801525,-3.5038168
3760,4.1874375,12.7299051,15.4880114,-15.7938929,-22.0152664,-1.7251909
3770,4.0773048,14.5351238,16.4456882,-6.3664122,-29.1221371,1.0152671
3780,4.2760224,16.0051556,16.3690739,3.9541984,-32.0305328,-2.1984732
3790,3.7469065,17.2860470,15.6484222,10.6946564,-36.2061081,-12.3969469
3800,2.4779861,17.6858768,15.1647959,17.7251911,-50.2671738,-23.2290077
3810,0.8762733,18.0282459,14.0443153,31.2824421,-80.1603088,-25.3358784
3820,0.8738791,18.6603127,11.8703909,41.1374054,-112.6564865,-23.4885502
3830,1.8746504,19.0864792,9.7443514,39.9694672,-131.4732819,-22.3358784
3840,2.3582766,18.9931049,8.2192526,31.5267181,-137.0839691,-21.2977104
3850,1.6879035,17.7289734,6.9407554,20.9770985,-138.0381622,-15.4732828
3860,0.9241571,15.3730907,6.0118098,13.0458012,-141.2977142,-2.9083970
3870,-0.0407012,12.4138727,5.0756817,9.5343513,-143.9313049,16.4961834
3880,-0.3447633,9.4450769,4.1587071,10.6564884,-137.2977142,45.6183205
3890,0.5602403,5.6862001,2.3223639,11.6183205,-110.8549652,75.3664093
3900,2.6336083,0.9552816,0.0814024,7.3206105,-63.8320618,102.2824402
3910,6.9383612,-4.2927818,-0.3974355,-0.2519084,-6.8549619,111.1755753
3920,11.5543585,-10.7834291,-1.1492109,-3.2519083,56.1526718,87.5267181
3930,16.1296539,-18.0521889,-1.7238164,0.2519084,89.4503784,36.4656487
3940,18.4615955,-19.6131992,-3.9121056,1.0687023,88.0305328,-37.0458031
3950,16.4792061,-19.6131992,-6.0812411,-25.1068707,33.2213745,-107.2900772
3960,12.4761209,-19.6131992,-5.8346395,-83.8396912,-88.0152664,-149.1450348
3970,7.8409705,-19.6131992,-0.4501076,-156.6030579,-234.3740387,-158.9618378
3980,4.4364328,-19.6131992,7.9463148,-228.7022858,-250.1374054,-155.3664093
3990,3.6990228,-18.4352589,19.6126022,-250.1374054,-250.1374054,-170.0915985
4000,1.0175306,-19.6131992,19.6126022,-216.9618378,-228.2671814,-185.5725250
4010,-3.3494711,-19.6131992,19.6126022,-51.2977104,-119.5801544,-154.5496216
4020,-6.3158717,-18.4639893,19.6126022,116.3206100,19.5114498,-80.4809189
4030,-5.4156566,-16.7641144,19.6126022,219.7251892,116.1526718,15.0381680
4040,1.5945302,-13.4026728,6.0549049,230.4809113,141.5190887,86.1297684
4050,10.5871058,-8.8393478,-2.8826041,180.0381622,154.8854980,100.1374054
4060,14.8822813,-6.3733325,-2.8179610,118.0992355,185.0992432,78.0000000
4070,13.6803989,-4.9631548,0.1149211,87.2213745,211.0381622,53.0916023
4080,9.9550400,-4.8171091,0.8379663,77.3740463,209.5725250,44.8167953
4090,7.4986014,-4.0174499,2.1978660,77.5343475,178.0686951,50.6488533
4100,6.7085190,-2.7940190,3.0454090,86.5038147,148.2061005,59.4885483
4110,6.3278427,-1.2354017,2.9113343,96.5267181,128.2290039,66.6946564
4120,6.5768385,0.4477134,2.2194135,97.2366409,117.4351120,72.2213745
4130,7.4339581,2.3630650,1.3168042,86.7099228,118.3664093,73.3587799
4140,7.5823979,4.5441718,0.3327923,65.3129807,129.1068726,70.4427490
4150,7.3836803,6.1147599,0.3375807,35.7251892,139.9389343,65.3740463
4160,5.9974446,7.4195933,4.0389977,-8.1374044,122.7099228,54.4427490
4170,6.1985564,7.2759418,5.9519548,-14.5419846,95.1297684,46.9694672
4180,6.5672617,6.8306227,7.2448173,-14.2290077,58.9771004,35.7175560
4190,7.0844064,6.8186517,8.2623482,-10.1984730,23.4885502,20.1297703
4200,6.6055689,7.0772243,9.0380650,-4.5114503,-3.6564887,3.9007633
4210,5.5617023,6.4020624,10.2998028,10.9465647,-20.8702297,-14.7099237
4220,4.9966736,5.9136481,9.8520899,16.7709923,-8.2748089,-16.0763359
4230,4.3622131,5.5593081,8.9925756,15.4274807,10.3511448,-14.5648851
4240,2.2577207,4.7141590,7.1705976,-11.6564884,6.2061067,-10.5877867
4250,2.7605004,4.3813667,7.3764977,-16.1221371,-5.2061067,-10.8167934
4260,2.9017577,4.3622131,7.8697009,-18.6335869,-12.1603050,-11.9236641
4270,3.2537034,4.1778607,8.1306677,-19.3969460,-16.2061062,-13.0000000
4280,3.0549858,3.7923961,8.4754305,-20.0229015,-14.8091602,-12.4809160
4290,2.8658447,3.2082138,8.7555504,-19.2595425,-13.7099237,-9.1297712
4300,2.7916248,3.1004753,8.8177996,-19.8167934,-12.4961834,-4.1984735
4310,3.0956869,3.7612717,8.8632889,-30.4198475,0.9083970,7.3664122
4320,3.0597742,3.7229645,9.3660688,-34.8091621,3.9312978,7.9694657
4330,2.9209111,3.4955165,9.9406748,-34.7022896,2.8091602,9.8473282
4340,3.1675127,3.1675127,10.0603838,-32.1526718,-1.4961832,13.2442751
4350,4.0222383,2.7724714,10.0125008,-30.5877857,-4.5038166,13.8167934
4360,4.8218975,2.6503677,10.2399483,-32.1526718,-4.1297708,11.5648851
4370,5.3079181,2.6360025,10.6780853,-33.3358765,-1.5496184,6.3282442
4380,5.6287394,2.3894010,11.1377697,-30.3435116,-2.4274809,-1.7633588
4390,5.5593081,2.0613971,11.5447817,-23.0610695,-8.6793890,-11.8549614
4400,4.9511838,1.7669119,11.6381550,-12.2061071,-15.9007635,-20.1679382
4410,4.2592630,1.7070571,11.2742386,0.2671756,-24.4580154,-24.3206100
4420,3.9599893,1.5083394,10.7642756,12.3435116,-31.3816795,-25.9465656
4430,3.8953462,1.2497669,9.9263096,21.1374054,-32.0305328,-27.5954189
4440,3.5769191,1.0845678,8.9925756,25.2977104,-30.4198475,-29.9465656
4450,3.5074875,0.7900825,8.7531567,27.3358784,-28.2519093,-31.5954189
4460,3.8618276,0.3878587,8.7363977,29.1450386,-24.0305347,-35.2366409
4470,6.8856888,0.6129125,8.1905222,28.0076332,-23.7862587,-59.1221390
4480,2.4157372,1.2593436,8.1186962,26.9389305,-24.7938938,-63.8549614
4490,-1.5873476,-0.7014975,8.6502066,41.2977104,-7.4503818,-28.5343513
4500,2.3846128,1.1420283,6.8665352,27.8167934,-0.4503817,-30.3358784
4510,0.4333483,1.8985922,7.1298962,13.3435116,5.9160304,16.1374054
4520,3.3470769,4.9535780,6.8809004,-18.6335869,27.0687027,56.6106873
4530,5.8250628,6.1554613,7.2472115,-41.1526718,52.3816795,55.6488533
4540,6.7228842,6.8832946,8.1354561,-61.4732819,71.9618301,42.5572510
4550,6.6414814,6.9646969,9.6270361,-71.9847336,75.6564865,24.0534344
4560,5.6933827,6.6151457,11.1712875,-69.2824402,61.6641235,6.7557254
4570,4.6303625,6.2248926,12.3612003,-56.9694672,32.9160309,-4.7404580
4580,4.1706781,6.1506729,13.1919842,-38.3129768,-1.3435115,-11.3282442
4590,4.1299767,6.3996682,13.2757807,-19.8931293,-29.1908398,-14.3969469
4600,4.2281384,6.5840211,13.0148134,-7.5801525,-43.5572510,-15.5267172
4610,4.5585365,6.5888095,12.3683825,-1.1984733,-45.5877876,-14.6946564
4620,4.6734576,6.6247220,12.2606440,2.3053436,-40.1450386,-12.2748089
4630,5.0900469,6.6366930,12.0331964,4.9236641,-30.8931293,-9.6641226
4640,5.3414369,6.7109132,11.7482872,6.5801525,-18.8854961,-8.7557249
4650,4.3286943,6.7540083,10.4673967,0.4961832,-12.3969469,-7.9694657
4660,3.8211265,7.2184811,10.6517487,-1.8625954,-20.5114498,-6.2900763
4670,3.6774750,7.6422529,10.7499104,-4.2137403,-27.2442741,-4.2900763
4680,3.4189026,7.7404146,11.0874910,-5.7404580,-32.3740463,-0.5572519
4690,3.2177906,8.1354561,11.3819771,-3.7099237,-37.1068687,4.1908398
4700,3.3398943,9.0165176,11.3628235,10.0916033,-50.2900772,7.0152674
4710,3.4189026,9.4474716,10.8696203,16.7480907,-67.1450348,6.0992365
4720,3.8307030,9.6629486,10.4027529,20.4885502,-87.7786255,7.1526718
4730,4.9344244,9.4283180,10.1346035,20.9160309,-103.1603088,10.2824430
4740,6.4667058,9.3828287,10.0220766,19.9694653,-108.5267181,11.4656487
4750,7.4602942,9.6150646,10.0340481,16.0076332,-99.5343475,8.9083967
4760,7.4914188,9.8712435,9.7970228,8.7099237,-79.4427490,6.1374044
4770,6.8809004,8.0540533,8.4251528,-17.0763359,-17.4427490,3.7786260
4780,6.1123657,6.7037306,7.6853480,-27.2977104,5.6564884,5.0534353
4790,2.7652888,5.0038562,7.8553357,-17.2900772,-50.3587799,2.8473282
4800,3.7157819,1.9177457,6.8928714,29.6946564,-150.6030579,0.5190840
4810,5.5545197,0.9792235,5.1858144,48.4732819,-180.7633514,-2.2442749
4820,7.0508881,0.2226596,3.4404502,53.7328262,-179.0610657,-7.5877862
4830,8.4323349,-1.4053892,1.4341195,42.3129768,-136.1832123,-13.6717558
4840,9.2080526,-3.9767487,0.8571198,24.2290077,-74.1984711,-21.3053436
4850,9.5815458,-5.8537931,-0.8690908,2.3893130,-18.3969460,-24.8396950
4860,9.6868906,-8.5807753,-2.4564383,-30.5038166,35.9465637,-22.5877857
4870,10.0508070,-12.0308018,-3.2920105,-64.2137375,64.6488571,-25.0610695
4880,10.0268650,-14.2789459,-2.6383967,-93.5725174,53.8931313,-38.4351158
4890,9.5336628,-14.2550039,-1.6543850,-123.4274826,4.6564884,-59.4885483
4900,8.7675219,-13.3284531,-0.2873027,-152.3893127,-60.9618340,-83.6183243
4910,8.2599535,-12.7322998,1.9129574,-175.1679382,-121.2900772,-105.3282471
4920,8.2192526,-12.6461086,4.5657191,-193.0763397,-154.4198456,-123.7175598
4930,7.2879128,-12.7346935,6.2105274,-210.0915985,-158.0381622,-139.7328186
4940,5.5640965,-12.9980545,8.3317795,-227.6030579,-137.2366486,-148.2366486
4950,3.0597742,-13.3284531,11.8823624,-232.2671814,-106.7557220,-141.7022858
4960,1.5250987,-13.3212700,16.6132812,-209.8854980,-74.7709961,-120.3740463
4970,1.2713146,-12.8089132,19.6126022,-158.9618378,-41.8702278,-88.6412201
4980,2.1068866,-11.8536320,19.6126022,-87.7099228,-4.4351144,-57.3664131
4990,3.6655040,-10.6565371,19.6126022,-3.7557251,45.5038185,-30.4732819
5000,5.1403246,-10.1753054,19.6126022,80.2061081,101.9007645,-10.4122133
5010,6.9335728,-10.4362717,16.4744167,153.4503784,157.3206177,4.2442746
5020,7.1801744,-10.1729107,11.6884327,205.8854980,194.4351196,17.9618320
5030,6.7468257,-9.6174593,7.5345144,238.4885559,203.3511505,34.0381660
5040,6.2440462,-8.6717539,4.1658897,250.1297760,183.8396912,52.5114517
5050,6.2201042,-6.9024482,0.4357425,250.1297760,141.3587799,70.1526718
5060,6.4667058,-4.3933377,-3.0382264,246.9541931,93.1450348,82.3587799
5070,6.8593526,-1.1132981,-5.4707227,209.4198456,66.4656525,86.0457993
5080,7.5728211,2.2218077,-6.5050125,152.4503784,67.6946564,81.4961853
5090,7.7595682,4.6686692,-5.8801293,84.3358765,88.6488571,72.4503784
5100,7.4507174,5.9184365,-3.4859397,18.4885502,117.4503784,63.8854980
5110,6.3996682,6.7444315,-0.2370248,-35.0687027,141.3664093,58.1145020
5120,5.2360926,7.0676475,3.0549858,-70.6793900,149.8244324,53.0763359
5130,4.2520804,6.9862447,6.2584114,-88.6564865,140.2519073,49.6335869
5140,3.5769191,6.6534524,8.7770987,-91.7862625,117.2748108,47.8091621
5150,3.5769191,5.8968887,11.1569233,-83.1145020,83.4427490,49.2366409
5160,4.2664456,4.9679432,12.3420467,-65.3664093,59.3358765,51.0228996
5170,4.9056940,4.3286943,12.8328552,-44.6030540,50.5648842,50.2900772
5180,5.1211715,4.2592630,13.1105814,-24.7633591,43.7938919,48.2519073
5190,5.5880380,4.3598189,12.9453821,-5.6412215,36.0839691,44.0381660
5200,5.9519548,4.4986820,12.3683825,11.7633591,29.4656487,34.7786255
5210,5.8537931,4.7428894,11.4107065,24.7709923,20.4656487,20.2824421
5220,5.2911587,4.6183915,10.3668404,31.2442741,8.2213745,5.5038166
5230,3.5697365,4.0150557,8.8465300,25.6488552,-15.2900763,-4.3816795
5240,3.6200144,4.0964580,8.5185261,18.2900772,-19.7557259,-0.4656489
5250,4.5944495,3.5601597,9.9909525,8.5572519,-27.5038166,0.8320611
5260,4.9176650,3.2656744,10.8648319,8.6564884,-34.1679382,-2.0152671
5270,5.6287394,2.9304879,11.9661589,13.4274807,-35.4885483,-7.4809160
5280,5.3558016,3.2058196,12.4162664,22.4503822,-32.1755714,-13.2061071
5290,4.9224534,3.7181761,11.9517937,29.5496178,-23.2977104,-15.3511448
5300,4.4388270,3.4739690,10.7020273,28.8702297,-8.4198475,-13.3435116
5310,3.5362179,3.4141142,9.9598284,23.1068707,6.5801525,-9.1374044
5320,2.0733681,4.2113791,9.5743637,22.5419846,3.0992367,27.3053436
5330,6.2440462,6.0094156,9.4666252,18.1908398,1.7251909,40.6641235
5340,7.8170285,7.2448173,9.7108326,8.8396950,18.0687027,13.6870232
5350,5.8346395,7.0101867,10.2279778,13.7786255,2.4427481,-17.1908398
5360,4.4843168,6.7635851,10.1896706,21.1908398,-15.6335878,-23.3206100
5370,3.5218527,6.8785062,10.1657286,29.1603050,-35.7709923,-23.0916023
5380,3.2776453,6.8042865,9.7060442,34.7557259,-54.1526718,-20.6335869
5390,3.5697365,6.6175399,9.4450769,35.9541969,-69.0076370,-18.0839691
5400,4.1970143,6.4882536,9.6581602,36.6030540,-78.8244247,-15.0534353
5410,5.2600341,6.3853035,9.3588867,36.7480927,-79.0534363,-14.0000000
5420,5.9543490,6.3733325,8.9063845,32.7022896,-69.7175598,-16.6183205
5430,6.2201042,6.3158717,8.8585014,25.7786255,-58.4656487,-23.0076332
5440,5.7292953,6.0429344,9.1577749,21.0992374,-49.0305328,-29.5343513
5450,5.0613165,5.6646523,9.2846670,20.7251911,-43.6488533,-32.2366409
5460,4.3502421,5.1522956,9.1577749,23.0458012,-38.7786255,-30.4885502
5470,3.6966286,4.8697815,8.8776541,26.2290077,-37.7633591,-24.7557259
5480,3.1531475,4.7333126,8.3605099,30.2595425,-43.7938919,-17.4122143
5490,2.8012016,4.6638808,7.9127960,36.7862587,-58.5419846,-8.7022905
5500,7.5847921,5.3246775,5.6215568,16.3206100,-39.3053436,-8.6335878
5510,6.9072366,4.9894910,5.5449429,3.8702290,-18.3053436,-17.8396950
5520,5.3366485,4.6327567,5.3701668,-7.1374044,-8.8244276,-19.7709923
5530,3.8211265,4.0988522,5.7125359,-15.1068707,-11.0458012,-13.3587790
5540,3.2130022,3.6774750,6.6295104,-18.0534344,-23.0152664,-2.6946564
5550,3.0837159,3.3087699,6.9144192,-9.2442751,-48.4351158,10.6412210
5560,4.8625989,5.0708933,5.2025738,-3.8549619,-53.1374054,22.9847336
5570,7.0413113,4.0509686,4.7357068,-17.5725193,-24.0763359,28.5038166
5580,7.5369086,4.0892754,5.1953912,-29.2137413,-5.0381680,22.2290077
5590,7.4124107,4.2113791,5.6287394,-35.2290077,-1.8244275,14.8931293
5600,6.4403696,2.9831600,7.1682034,-34.3053436,-24.7633591,-0.0229008
5610,6.2536230,2.7293761,8.0636301,-28.4885502,-41.6183205,-1.4656489
5620,6.9790621,2.9352763,8.3581152,-22.1297703,-45.7938919,-2.9465649
5630,6.6462698,3.5003049,8.5640154,-18.7633591,-41.1374054,-2.9694657
5640,5.8274570,4.3526363,8.3437500,-18.2519093,-35.1603050,1.4732825
5650,4.5274124,5.4970589,8.9015961,-21.0076332,-31.7557259,11.5877867
5660,4.5896611,7.0987716,9.8185711,-21.7786255,-28.8244267,26.2290077
5670,5.4659348,9.1098909,11.3197279,-20.0992374,-27.3969460,35.8015251
5680,5.9232249,10.8768024,11.8895445,-14.1221371,-23.2595425,42.2442741
5690,6.3086891,12.4282379,12.2534618,-5.8244276,-20.7175579,47.2900772
5700,6.6510582,14.3699255,11.4968977,4.2519083,-23.8015270,49.7022896
5710,6.6582408,16.3475246,9.9933472,9.8854961,-33.2137413,46.7175560
5720,5.4084740,19.3139267,8.4251528,6.8396945,-41.4274826,43.0000000
5730,5.2265158,19.6126022,7.3812861,-8.4351149,-50.3664131,38.0000000
5740,6.0118098,19.6126022,6.7875271,-30.0687027,-55.3893127,23.5572510
5750,4.7811961,19.6126022,6.6366930,-45.9694672,-70.4732819,11.4961834
5760,4.1132174,17.6068687,6.1434903,-55.2900772,-99.6870193,6.6870227
5770,3.6894460,15.6268749,5.3103123,-61.7786255,-126.2824402,6.4732823
5780,3.8570392,13.2302914,3.9097114,-68.1145020,-143.0839691,10.8702288
5790,4.3885493,9.9622221,2.0015423,-77.6870193,-142.2748108,19.0305347
5800,5.4060798,6.3709383,-0.4118006,-94.5572510,-120.4961853,29.2061062
5810,7.5632443,2.0374553,-1.8267666,-115.4732819,-80.9312973,32.7480927
5820,10.7211800,-2.7581062,-2.5067163,-137.7862549,-24.4656487,25.7175579
5830,13.9006643,-7.9750452,-1.9297167,-147.0915985,40.8854980,-1.1679389
5840,14.7529955,-14.6165266,-2.0877333,-141.8091583,84.2290039,-33.5267181
5850,16.1248665,-19.6131992,-2.1739240,-128.7480927,88.9160309,-71.0992355
5860,15.5598373,-19.6131992,-2.6096666,-117.3587799,52.3206100,-107.9542007
5870,13.5535069,-19.6131992,-3.8426740,-120.8244247,-35.4122124,-125.6870193
5880,11.0659437,-19.6131992,-4.4292507,-158.5801544,-140.2595367,-120.6946564
5890,6.9766679,-19.6131992,0.7565638,-220.2061005,-207.5343475,-97.4809189
5900,9.6605549,-18.6052456,5.3366485,-250.1374054,-194.7938995,-76.5954208
5910,5.9902620,-16.6731358,18.5789108,-250.1374054,-187.9770966,-81.2061081
5920,4.2855992,-16.7210197,19.6126022,-250.1374054,-175.0839691,-71.0534363
5930,4.7979555,-14.1903610,19.6126022,-91.9083939,-120.7786255,-53.7480927
5940,7.6973190,-13.1728306,19.6126022,123.1526718,-33.2442741,-37.1908379
5950,9.9885588,-14.9995966,19.6126022,250.1297760,62.3893127,-27.0305347
5960,9.4785957,-15.7681322,8.3317795,250.1297760,117.3816757,-11.5419846
5970,9.1434097,-15.2054968,-7.7188668,250.1297760,148.8473358,13.3511448
5980,9.6988611,-12.1912127,-16.5390606,250.1297760,160.2061005,36.6870232
5990,11.4250717,-8.4826136,-17.4799767,218.5267181,156.5114441,42.8854980
6000,12.1002331,-5.9399838,-11.5567522,133.4885559,159.8167877,26.7022896
6010,10.4937325,-4.5465660,-4.2999644,103.3664093,142.6030579,7.4427481
6020,9.3157911,-4.2640514,0.3184272,122.6870193,115.1221390,-6.3969464
6030,8.6358414,-3.5434003,2.9041519,163.6183167,90.5267181,-16.5190830
6040,8.1450329,-2.7054341,1.6591733,192.4885559,81.5419846,-21.5267181
6050,7.9056134,-2.5258698,-0.9289455,196.0305328,95.6717529,-18.5725193
6060,7.3238254,-2.0350611,-3.0597742,176.8015289,126.2671738,-5.8015265
6070,6.1219425,-0.8714849,-4.0533628,142.0152740,157.7175598,13.2595415
6080,5.5617023,0.7852941,-2.9831600,106.8473282,172.4045868,29.3206100
6090,5.7532372,1.5945302,-0.9385223,84.3969498,171.9007568,39.2137413
6100,6.3589673,1.7214222,0.9840119,73.8549652,163.5343475,43.4809151
6110,7.1298962,2.3319404,2.4875629,74.7938919,142.8396912,38.9771004
6120,7.8481531,3.2704628,3.4596038,81.9847336,119.4885483,26.7480907
6130,7.7404146,4.0605454,3.3758070,87.5419846,105.7175598,13.4732828
6140,7.5009956,4.7572546,3.1411765,86.2366409,96.7557220,3.3816793
6150,6.3565731,7.0173693,3.0837159,72.2900772,73.2061081,-18.9007626
6160,2.1715298,7.0820122,2.7700772,65.0916061,54.5114517,-20.9541988
6170,3.8905578,9.0165176,5.5664907,6.3282442,6.5648856,14.1679392
6180,5.7843618,10.3572636,6.0908179,-14.8015270,44.5572510,4.4351144
6190,5.7125359,10.0460186,6.0740585,-21.6564884,62.2824440,-0.0534351
6200,5.1187773,9.4546537,6.3110833,-26.7404575,66.8396912,-2.5114503
6210,4.1227942,8.9782104,7.0796180,-26.9923668,58.1832047,-0.5419847
6220,2.6958573,10.0627785,8.0157461,-10.5190840,17.9694653,15.0916033
6230,3.6535332,10.1154509,7.5201492,-3.0916030,-3.9083970,24.7709923
6240,4.8075323,10.2854376,6.9694853,-2.5648854,-16.0610695,29.2061062
6250,5.9711084,10.3740225,6.5169835,-7.0000000,-14.7099237,32.6793900
6260,6.9838505,10.2471304,6.1458845,-16.7480907,-6.3740458,33.6183205
6270,8.1713686,10.0220766,6.3613615,-29.9541988,4.1221375,28.2748089
6280,8.6933022,9.6270361,6.7372489,-42.7022896,13.0992365,17.5190830
6290,7.6661944,7.9247670,8.4538832,-53.3206100,12.7328243,-7.8778625
6300,6.6414814,7.2759418,9.1529865,-48.5190849,-0.0534351,-17.1145039
6310,5.8154860,6.6821828,9.5504217,-39.6793900,-16.6106873,-23.4961834
6320,5.0182209,6.2919297,9.9071560,-28.6183205,-31.6412220,-26.0305347
6330,4.4723458,5.8873119,9.8065996,-18.1755733,-42.1450386,-24.4198475
6340,4.2999644,5.7101417,9.6366129,-7.0458016,-47.3282433,-19.6564884
6350,4.2903876,5.5377603,8.9686337,-1.2442749,-44.2977104,-11.1374044
6360,4.9894910,5.7460546,8.3078375,-1.0687023,-33.3893127,-3.6412213
6370,5.5880380,6.0022330,7.7571740,-5.3664122,-17.1908398,-0.0534351
6380,5.7891502,5.4180508,8.0277176,-3.9236641,-22.2442741,-0.5725191
6390,6.0261750,5.3246775,7.6781654,-4.3129773,-24.6793900,-4.3129773
6400,6.1291251,5.2241216,7.4339581,-6.6106873,-24.5572510,-8.2366409
6410,6.1147599,5.1187773,7.5991573,-10.0916033,-22.6946564,-11.2900763
6420,5.9806852,4.8673873,7.9295554,-12.1679392,-20.9694653,-13.2671757
6430,5.8729467,4.4747400,8.1091194,-12.5419846,-20.1908398,-14.0000000
6440,5.8418221,4.3741841,8.3509331,-12.5572519,-19.2977104,-14.2213745
6450,6.0788469,4.4077029,8.6142941,-12.0610685,-16.9083977,-14.4198475
6460,6.2488346,4.5106530,8.8656836,-10.3435116,-12.1984730,-15.0687027
6470,6.2153158,4.7045822,8.6933022,-8.0152674,-6.4961834,-15.1145039
6480,6.1674318,5.0014620,8.4802189,-6.5725193,-0.0305344,-15.2137403
6490,5.0972295,6.1794028,8.1474266,-0.7175573,-2.8015268,-10.7175570
6500,5.1762376,6.6342988,7.3094602,2.6030533,-4.8931298,-6.2977099
6510,4.8841467,7.3286138,7.0604649,0.4427481,-8.8015270,-1.8015267
6520,5.8394279,9.3876171,7.1490498,-6.6870227,-10.4503813,13.2748089
6530,6.3876977,10.0077124,7.4171991,-11.2061071,-4.1526718,14.6335878
6540,6.4834652,10.3189564,7.8218169,-13.5267172,2.5725191,15.2977095
6550,6.3996682,10.5727406,7.9343438,-13.7862597,8.7328243,16.2213745
6560,6.2416520,10.5918941,7.6638002,-13.2442751,10.5190840,16.7709923
6570,5.9926562,10.7666702,7.1921453,-13.0916033,0.2061069,15.5648851
6580,6.2033448,10.9318695,6.9790621,-15.4656487,-16.0229015,12.1984730
6590,6.7133074,11.8057480,6.3637557,-19.2442741,-27.3664131,7.6870227
6600,6.8378053,11.0563669,7.5680327,-21.3511448,-33.9236641,0.6106870
6610,6.4331870,11.0635490,7.1466556,-33.0152664,-25.8167934,-1.9541985
6620,6.1674318,10.3668404,7.1777802,-48.7022896,-3.5038168,-0.5496183
6630,3.5290353,9.1027079,8.3940287,-62.5038185,10.2671757,15.6030531
6640,2.5186872,8.8489246,8.1163025,-58.3893127,-5.4427481,28.1297703
6650,1.4341195,9.6821022,7.8266053,-52.1984749,-36.1221390,40.8473282
6660,1.4724265,9.8544836,7.3525558,-41.0152664,-79.7251892,52.7175560
6670,1.9153515,8.9901810,6.0692701,-27.3435116,-123.7709961,62.8396950
6680,3.4069316,8.7483683,3.8857694,-25.5343513,-146.9923706,77.9007645
6690,5.5449429,7.2400289,2.3271523,-38.3206100,-131.9236603,87.6030502
6700,7.0125809,5.7676024,1.4963684,-51.4580154,-104.4961853,88.7404556
6710,7.0437055,4.3765783,-0.3280039,-69.2213745,-75.6183243,91.5114517
6720,7.9319496,2.0398495,-2.2098370,-93.0687027,-46.9923668,91.1526718
6730,9.4977493,-1.1587877,-3.4739690,-116.3282471,-25.0076332,77.1145020
6740,11.5902710,-4.8673873,-4.6327567,-140.0000000,-15.4503813,45.9312973
6750,14.0443153,-8.4682484,-4.7740140,-165.6106873,-20.0534344,-1.0916030
6760,16.7641144,-13.2733860,-5.7388721,-192.9084015,-4.7862597,-65.5114517
6770,18.3107605,-19.2540722,-3.6726866,-217.3435059,-6.0992365,-147.1450348
6780,14.2190914,-19.6131992,-0.0239419,-228.4351196,-37.5725174,-214.6412201
6790,8.0684185,-19.6131992,3.1651185,-233.7709961,-74.1297684,-208.3969421
6800,4.1539187,-19.6131992,8.1139078,-237.9236603,-117.3435135,-173.3740387
6810,2.4947455,-19.6131992,13.1848011,-240.1068726,-115.9312973,-125.8702316
6820,1.9656296,-16.1105003,18.0713425,-234.2061005,-54.0916023,-96.7099228
6830,-0.1340746,-14.1496601,19.6126022,-209.8167877,29.7022896,-82.7786255
6840,-4.6399393,-13.2015610,19.6126022,-136.3435059,92.3893127,-55.8931313
6850,-6.3589673,-12.8352499,19.6126022,-11.2442751,110.8167953,-8.6564884
6860,-4.8195033,-12.6796274,19.6126022,122.3282471,101.4122162,41.0992355
6870,-1.4508789,-12.1337519,16.6898956,216.1984711,68.3969498,78.1755753
6880,2.5498118,-10.7379398,5.9998388,250.1297760,37.4122124,100.9465637
6890,6.1770086,-9.0308828,-1.2545552,238.5877838,32.1984749,110.9618301
6900,9.0500364,-6.9263902,-4.3358769,202.5648804,52.0534363,110.5648880
6910,10.9414454,-5.0469513,-3.9432299,166.0992432,76.5954208,102.0610657
6920,11.4226780,-3.8067613,-2.0637913,142.6641235,95.1526718,87.9160309
6930,10.5631638,-2.3989778,-0.0981618,134.0381622,103.9007645,74.0687027
6940,9.5192976,-1.3191984,0.5865764,130.4885559,105.8625946,63.3282433
6950,8.3844519,-0.2657550,0.2873027,119.5190811,107.8091583,55.8931313
6960,7.2352405,0.8355721,0.4812321,102.8778610,110.8473282,52.2824440
6970,6.1961622,1.8483143,1.3359578,82.8549652,111.0076370,50.8854980
6980,8.8082228,3.5817075,8.6621771,21.2519093,4.1145039,38.6717567
6990,8.7507620,3.8211265,9.2846670,25.5725193,0.8625954,29.8167934
7000,7.2663651,4.4268565,8.2815018,27.6412220,3.5572519,9.9083967
7010,7.0484939,4.3717899,7.9918046,20.6641216,11.3969469,8.4198475
7020,7.0460997,3.9504125,8.0157461,13.6030531,19.6717548,6.3969464
7030,6.6750002,3.4572096,8.0684185,6.2213740,23.9465656,5.7175574
7040,6.5289545,3.3111639,8.7028790,3.2366412,21.8778629,4.3435116
7050,6.5409255,2.9640064,9.0380650,5.1297708,12.8396950,0.0687023
7060,6.2991123,2.8371146,9.3205795,9.8702288,1.1221374,-5.0687022
7070,6.1961622,3.2082138,7.4818420,4.7938933,2.9465649,-5.1221375
7080,6.1410961,3.3901722,8.4203644,-20.1526718,31.5496178,-8.3664122
7090,5.7556314,3.0861101,8.9901810,-26.0076332,37.8091621,-12.3587790
7100,4.8171091,2.9640064,9.6222477,-26.8778629,37.5038185,-13.6259546
7110,4.4388270,3.0693510,10.2782555,-22.9389305,32.6030540,-12.2442751
7120,4.4220681,3.0190730,10.3021975,-16.0839691,25.5190830,-10.1832066
7130,4.0150557,3.3231349,10.4889441,-8.8778629,17.0916023,-6.4732823
7140,4.3550305,3.7588775,10.3381100,0.8931298,10.1221371,7.2213740
7150,6.3876977,4.7428894,9.7635050,-5.4580154,28.0610695,9.4351149
7160,6.6654234,4.7644372,9.9047613,-8.8778629,35.7709923,5.3206105
7170,6.6414814,4.2496862,10.2950144,-7.8549619,30.3969460,-5.1068702
7180,6.2464404,4.4077029,10.6709023,-3.5038168,22.8702297,-9.5038166
7190,5.7364779,4.7357068,10.8432837,3.1755726,14.9236641,-11.4198475
7200,4.2832050,7.0748301,10.4171181,19.0076332,-8.5572519,-1.4885496
7210,4.3574247,7.6207051,10.5607700,22.5114498,-14.9160309,3.3511450
7220,4.8602047,8.1426382,10.5272512,23.7557259,-18.7175579,6.7709923
7230,5.4539638,8.4897957,10.4506369,23.1908398,-18.5877857,7.3435116
7240,6.3134775,8.5544386,10.5440102,23.0152664,-14.5114508,6.1374044
7250,6.7971039,7.2663651,9.1721401,23.1526718,-10.9083967,-9.4503813
7260,6.6726060,6.6007805,8.4443064,22.4198475,-19.3435116,-13.6030531
7270,6.8425937,5.9591374,7.7140784,19.4961834,-30.0839691,-19.4427490
7280,7.0317345,5.2169390,7.4028339,14.6946564,-38.6717567,-26.0000000
7290,7.3645267,4.3526363,7.4195933,8.5648851,-43.7404594,-33.5877876
7300,7.8984308,3.0573800,7.1825686,-0.7251908,-47.5954208,-42.7251892
7310,8.1953106,1.9416877,6.8210459,-16.9465656,-45.1145020,-53.3053436
7320,8.1186962,0.6943150,7.8074517,-33.8473282,-30.5572510,-63.1374054
7330,7.4650826,-0.6823440,9.5576038,-42.2137413,-13.3511448,-70.6564865
7340,5.9591374,-1.8052188,11.0635490,-38.2977104,-0.0763359,-73.2671738
7350,4.4651632,-2.5689652,12.0667152,-24.2442741,7.5954199,-69.5343475
7360,3.2848279,-3.6463506,12.0978394,-3.6335878,7.3129773,-58.7480927
7370,2.6455793,-3.8139439,10.9318695,16.5114498,3.8015268,-46.1908379
7380,2.5665710,-3.5529771,9.5719690,29.4427490,3.6488550,-32.1145020
7390,2.5474176,-3.3901722,8.8393478,38.5572510,1.9541985,-21.5267181
7400,2.6312141,-2.7126167,7.6087341,41.8549614,3.3893130,-10.9541988
7410,2.6455793,-1.5059452,6.2224984,47.9541969,-0.1526718,-7.0687022
7420,3.5912843,4.4962878,3.8522508,-28.5190830,69.0687027,32.6870232
7430,4.1658897,6.5337429,5.3701668,-48.4503822,88.4503784,34.7328262
7440,3.7708483,7.9080076,7.2831244,-60.6183205,94.4198456,34.2671738
7450,3.4835455,8.9542685,9.2224178,-62.3969460,86.8320618,35.9618340
7460,3.9360476,9.3732519,11.5304165,-51.9312973,65.0534363,35.1068687
7470,4.4867110,10.2303715,12.4856977,-37.7480927,41.3358765,37.6030540
7480,5.7316895,11.1712875,13.1560707,-21.3969460,21.3053436,35.9771004
7490,6.4547348,12.2893744,13.4697094,-3.1679389,-0.6641222,29.5343513
7500,7.4339581,13.0100250,12.9884777,12.4809160,-22.2213745,19.7480907
7510,8.2360115,13.8264437,11.5926657,19.7022896,-33.4580154,7.6564884
7520,8.1713686,13.6923695,11.1305866,19.1450386,-37.8320618,-2.8396947
7530,8.0851774,13.4529505,10.1513634,12.4961834,-33.2442741,-9.8473282
7540,7.3669209,13.2757807,9.6366129,1.0839695,-23.6259537,-13.2900763
7550,7.2543941,13.0028429,8.9662399,-12.3816795,-11.8549614,-13.6717558
7560,6.4379754,12.2438850,9.0213060,-22.8473282,-1.8778626,-12.8167934
7570,5.5928264,11.8895445,9.4857788,-23.8473282,-3.1679389,-13.9694653
7580,5.3151007,11.9589767,8.2743187,-25.2442741,-11.7633591,-14.0229006
7590,5.6287394,11.0779142,7.0820122,-31.5801525,-22.0534344,-19.2900772
7600,4.6112089,10.4913378,6.7851329,-26.8320618,-49.2137413,-29.5267181
7610,3.3111639,9.4977493,6.1698260,-20.1450386,-91.6335907,-33.1145020
7620,3.3470769,8.2216463,5.1307478,-12.0534353,-127.3129807,-33.3740463
7630,3.1794837,6.7540083,3.8546450,-5.2442746,-149.8854980,-30.2977104
7640,3.2513094,4.7859845,2.6551561,-1.4198474,-158.8473358,-22.7633591
7650,3.9671719,0.3375807,3.3446827,14.7709923,-169.1374054,-27.2442741
7660,3.0525916,-1.1659702,2.9472473,55.7022896,-203.4503784,-55.6793900
7670,4.9607606,-5.1307478,-0.5027798,52.6259537,-207.0763397,-63.5419846
7680,9.0141230,-18.4113178,6.6319046,103.1603088,-250.1374054,-210.2290039
7690,7.4076223,-19.6131992,1.0917504,177.0229034,-250.1374054,-250.1374054
7700,-3.2920105,-19.6131992,-0.3064562,124.8167953,-250.1374054,-250.1374054
7710,-18.2987900,-5.0517397,-3.4500270,87.3511429,-250.1374054,-227.6412201
7720,-12.5934362,-19.6131992,5.9375896,17.7938938,-250.1374054,-63.7633591
7730,-9.6270361,2.0997043,-4.7117648,-29.6259537,-250.1374054,201.4885559
7740,12.2462788,-15.5047712,-4.0653338,-64.0534363,-250.1374054,250.1297760
7750,19.6126022,-14.0754395,-4.2281384,-89.0687027,-192.7786255,250.1297760
7760,19.6126022,-6.1602492,1.2258250,-86.2366409,31.0839691,250.1297760
7770,19.6126022,-0.1292862,7.6446471,-70.9389343,248.7709961,250.1297760
7780,19.6126022,2.6958573,14.3196468,-47.5267181,250.1297760,210.5725250
7790,19.6126022,4.6758518,19.6126022,-8.8549614,250.1297760,92.3816757
7800,15.0594521,3.7804251,19.6126022,43.3816795,250.1297760,8.3740454
7810,9.3062143,-1.8842272,17.2118282,76.8473282,162.8549652,-57.9083977
7820,5.3246775,-5.2983413,9.4929609,76.6488571,75.6488571,-121.4809189
7830,-0.5554519,-7.3118544,3.7636659,63.1374054,68.4580154,-125.5419846
7840,-4.8578105,-8.5376797,3.4931223,54.3587799,103.4961853,-69.8931274
7850,-6.6486640,-7.8337879,3.2465210,41.9007645,152.8167877,19.0305347
7860,-5.5976148,-5.9423780,2.4803803,15.5801525,218.5725250,112.4274826
7870,-2.4277081,-4.1874375,2.1787124,-13.9007635,250.1297760,183.8778687
7880,2.6192431,-2.0470319,2.4468615,-31.7175579,250.1297760,225.7022858
7890,8.6214762,0.4213773,2.8610563,-33.9465637,250.1297760,234.3129730
7900,13.7067347,2.3774302,4.0366035,-24.8778629,250.1297760,211.0839691
7910,16.5773678,3.9599893,5.8537931,-9.2137403,216.9389343,165.3282471
7920,17.9683914,4.5106530,7.8481531,9.0916033,150.9313049,105.8167953
7930,18.2844257,4.0437860,9.5911226,28.0229015,91.0000000,41.1832047
7940,16.9436779,2.3726418,10.0819321,40.1526718,68.2977066,-10.7251911
7950,14.0155849,0.7637464,9.7180147,39.2748108,82.7786255,-34.3893127
7960,11.5136566,-0.8379663,9.3062143,28.9694653,115.0763321,-29.7022896
7970,10.0268650,-2.4827745,8.8417416,9.7099237,152.3129730,-10.0305347
7980,7.9965930,-3.4356618,9.0835552,-10.1679392,185.8549652,13.4351149
7990,6.2081332,-3.4045374,9.6773138,-18.0305347,203.8244324,33.1068687
8000,5.7436604,-3.0885043,9.7395630,-15.6946564,203.2671814,42.9541969
8010,5.7173243,-2.6383967,10.2734671,-4.2900763,184.5725250,39.8015251
8020,6.0980005,-1.9297167,10.2112179,14.1603050,151.2442780,23.9694653
8030,5.5640965,-1.3670821,9.5001440,31.7786255,114.8244247,2.2213740
8040,4.4436154,-0.9528874,8.5448618,41.6564903,81.8015289,-14.8015270
8050,3.5697365,-0.2082945,7.8409705,49.5114517,54.0916023,-27.0152664
8060,2.4396791,0.0814024,6.6750002,46.9389305,32.3206100,-27.2900772
8070,2.0135133,0.1484398,5.8681583,38.5267181,24.1755733,-17.0000000
8080,2.7916248,2.7245877,7.2783360,-22.2366409,81.0839691,43.2213745
8090,4.5322008,4.1467361,9.5432396,-32.4961815,104.9694672,59.1908379
8100,6.0836353,5.0517397,9.7012558,-34.9160309,120.2442780,56.3206100
8110,6.5552907,5.6694407,9.1817169,-34.4045792,122.2671738,39.4503822
8120,5.7604198,5.6909885,8.7914639,-35.5419846,101.4961853,17.1755733
8130,3.3614421,4.4292507,10.7451220,-26.5801525,35.0000000,-4.7557254
8140,3.2130022,3.9935081,12.4928808,-13.0687027,13.2977095,0.6488550
8150,3.6343796,2.9711890,12.8304615,2.0458016,1.7862595,8.7022905
8160,4.9823084,3.0525916,11.7506819,15.3969469,15.1832066,21.0458012
8170,6.6510582,3.4476328,10.5009146,-20.4580154,64.9694672,2.0839694
8180,5.8585815,3.2321558,11.4729557,-24.8778629,68.5190811,-8.8473282
8190,5.3462253,2.6455793,12.1600885,-21.1297703,60.9312973,-17.3206100
8200,4.3789725,1.9919657,12.8496151,-12.7480917,44.6259537,-23.3587780
8210,4.3909435,1.6376256,12.7107515,-1.5267175,29.5343513,-25.9007626
8220,3.9767487,1.5346755,12.6054077,10.8473282,18.1068707,-25.0381680
8230,2.8012016,1.6639616,11.6597023,21.8396950,13.4580154,-16.7786255
8240,3.6511390,1.8315549,9.0452480,14.2061071,0.0534351,6.1068702
8250,5.4036856,3.6774750,9.3086090,3.6488550,3.5419848,-0.7328244
8260,4.6830344,2.8395088,9.7395630,-1.3740458,10.7557249,-11.5190840
8270,4.6112089,2.8442972,8.9183559,-7.0152674,13.8854961,-18.9618320
8280,3.9671719,2.1284344,9.5719690,-12.5725193,25.9847336,-24.1526718
8290,3.6511390,1.3503228,10.2375546,-14.8091602,27.5419846,-30.0839691
8300,2.2601149,1.6328372,10.0077124,-12.8854961,25.2213745,-35.4427490
8310,1.0606259,2.2816625,9.9885588,-7.9236641,16.9160309,-35.7099228
8320,1.3670821,2.5402350,9.2655134,1.4885496,-13.8473282,-40.2366409
8330,1.2330076,1.9871773,9.0644016,4.6641221,-29.4809170,-46.7251892
8340,3.1148405,1.8698620,9.5647869,9.0305347,-40.0839691,-58.0992355
8350,0.9457048,1.9967541,8.9446917,12.5496187,-47.7404594,-63.7022896
8360,1.1156923,1.8938038,8.5783806,10.3587790,-47.0916023,-60.4045792
8370,0.6847382,1.7286048,8.5975342,1.4809160,-45.0839691,-59.8778610
8380,0.4644727,1.9225341,8.9351149,-9.4045801,-41.4732819,-55.5267181
8390,0.8020535,2.1835008,9.7275915,-16.6412220,-34.6335869,-48.6641235
8400,1.5418580,2.4037662,10.3452930,-19.0152664,-26.3053436,-42.8549614
8410,1.8938038,2.5498118,10.4195127,-18.8015270,-16.8854961,-38.8015251
8420,1.8578910,3.1028695,10.5080976,-19.2519093,-11.3053436,-35.6030540
8430,1.5921360,3.9504125,10.8025827,-21.1297703,-10.2900763,-32.0381660
8440,1.4221486,4.8769641,11.2455082,-22.9007626,-10.5954199,-26.0152664
8450,2.1164634,5.1451130,11.8895445,-24.8091602,-12.5267172,-20.3664131
8460,2.2984219,6.2536230,12.5024576,-26.3969460,-7.8244276,-18.3664131
8470,2.8562679,7.2448173,13.3428183,-27.6641216,-1.8167939,-11.9007635
8480,3.9192882,7.6829538,14.0419216,-26.0305347,8.6106873,-11.3740454
8490,3.9001346,8.2910776,14.3292236,-22.1526718,18.2748089,-14.2900763
8500,3.2273674,8.4826136,14.6859579,-16.4274807,16.5801525,-16.2061062
8510,2.4037662,8.5544386,14.9995966,-6.3664122,1.2061069,-16.2977104
8520,2.5091105,8.7220325,14.9756546,5.8702292,-21.2213745,-18.0839691
8530,2.8466914,8.9351149,14.5901909,15.7709923,-43.4122124,-19.7251911
8540,3.5050933,9.2822723,14.3172531,21.6717548,-55.7786255,-22.0458012
8550,3.8450682,9.3181858,14.1041698,24.8702297,-57.4732819,-24.2519093
8560,4.0413918,9.5288744,13.7665892,25.6946564,-51.6259537,-27.1297703
8570,3.5769191,9.4809904,13.0986109,24.2824421,-41.9160309,-29.5419846
8580,2.8227494,9.2463598,12.3228931,20.7786255,-36.5190849,-29.2442741
8590,2.0877333,9.1577749,11.7554703,18.4351139,-40.3893127,-27.7557259
8600,2.0901275,9.3517036,11.5112629,19.4732819,-51.2824440,-27.4122143
8610,2.3319404,9.9143381,11.6573086,25.1679382,-67.1221390,-31.3893127
8620,3.0430148,10.8815908,10.7690639,33.1450386,-82.6717529,-41.3206100
8630,3.7900019,11.5711174,9.1146793,35.9618340,-98.1145020,-58.5267181
8640,3.3973548,12.0140429,7.5560617,33.1908379,-119.7786255,-79.9236679
8650,2.5354466,11.1162214,6.4092450,27.8473282,-149.0915985,-97.8549652
8660,1.7166338,9.0596132,5.7412663,24.6641216,-175.4198456,-103.9542007
8670,0.4046180,6.7899213,4.4292507,20.8625946,-188.4656525,-91.2671738
8680,0.0383070,4.2640514,2.7437410,11.8931293,-180.2595367,-61.3053436
8690,0.4477134,1.2545552,0.7996593,-2.0381680,-154.8702240,-22.7480907
8700,2.3032103,-2.3702476,-0.8571198,-20.3893127,-109.5038147,15.8625956
8710,5.3342543,-6.8449879,-2.1332228,-40.5877876,-54.8549614,42.3893127
8720,8.9231443,-11.3053627,-3.1339941,-60.9160309,-5.2442746,49.4122124
8730,12.2678270,-15.9357252,-3.5984666,-80.0839691,29.2366409,33.2061081
8740,14.4034433,-19.4647598,-3.7469065,-98.4656525,36.3969460,-3.1221373
8750,14.5111818,-19.6131992,-3.8163381,-121.0534363,7.6183205,-47.7251892
8760,13.4553452,-19.6131992,-2.7054341,-153.6335907,-54.6335869,-88.9007645
8770,11.9350348,-19.6131992,0.2274480,-191.9007568,-122.8931274,-123.7251892
8780,10.6278067,-17.8295288,4.9104824,-227.4198456,-152.3664093,-156.1984711
8790,8.4730368,-15.2868996,9.2798786,-250.1374054,-131.8854980,-193.4732819
8800,5.0828643,-15.9812145,15.1240950,-250.1374054,-63.8625946,-217.9160309
8810,-1.2066715,-16.9460735,19.6126022,-237.3511505,14.7099237,-207.1603088
8820,-6.9000540,-16.0745888,19.6126022,-135.0915985,65.0076370,-153.9389343
8830,-8.9638453,-14.4369621,19.6126022,5.0229006,95.5496216,-75.1297684
8840,-7.1131368,-13.1800127,19.6126022,133.8854980,95.5114517,-0.0229008
8850,-3.2249732,-12.6341381,12.9525652,212.8015289,72.0229034,57.4656487
8860,1.2832855,-10.9246864,3.9312592,237.0915985,49.5725174,99.2366409
8870,5.5976148,-8.4251528,-2.8490853,215.5801544,47.1908379,121.8549652
8880,8.5664101,-6.1841912,-5.0708933,167.6641235,71.7709961,127.8396912
8890,9.3397331,-4.3215117,-4.0796990,120.6030502,101.9618301,126.2290039
8900,8.8656836,-3.1483591,-1.2545552,90.5496216,120.8854980,121.8320618
8910,7.9750452,-2.0470319,1.5514348,83.0381699,115.6030502,117.2977066
8920,7.6614060,-0.9744351,3.0310438,88.5877838,94.6717529,110.4961853
8930,7.3597383,-0.1556223,3.4715748,93.1984711,78.5572510,103.3129807
8940,5.6502872,4.3023586,10.2375546,43.0992355,12.1145039,71.2519073
8950,6.5289545,4.3023586,10.1561518,51.1603050,-1.1221374,67.1297684
8960,6.9096308,4.5657191,9.0715837,45.6335869,5.7480917,51.8854980
8970,3.0789278,4.6638808,9.1386213,21.0000000,10.0229006,1.5648855
8980,1.8124014,4.3358769,9.1865053,26.5496178,-16.9541988,-0.9465649
8990,2.2098370,4.3334827,8.2096758,23.3511448,-37.8167953,16.4809170
9000,2.7221935,4.7045822,8.0947542,12.9847326,-25.3587780,24.6564884
9010,3.6726866,5.0086441,8.0301113,0.7862595,-6.5648856,29.6488552
9020,4.4148855,5.2384863,8.1115141,-12.8931293,12.2748089,30.6488552
9030,4.7979555,5.0637107,8.1833391,-27.7328243,27.1221371,26.0305347
9040,4.4986820,4.6590929,9.1577749,-37.3206100,33.5038185,20.5801525
9050,4.1180058,4.1922259,10.5847120,-37.8931313,26.9618320,16.8244267
9060,3.8091555,3.9097114,11.4346485,-30.2213745,11.1450386,15.2977095
9070,4.0389977,3.8594334,11.9015160,-19.2442741,-3.7251909,14.8320608
9080,4.4962878,3.9168940,11.7075863,-9.0000000,-10.8625956,14.8244276
9090,4.9487896,3.9025288,11.0994625,-3.1679389,-9.9694653,13.9847326
9100,5.2001796,3.8809812,10.6469603,-2.2671757,-3.6183207,12.4885492
9110,4.3263001,3.6128318,10.6924505,-2.1145039,9.9770994,2.1526718
9120,4.1682839,3.4955165,10.1800938,0.7786260,8.2290077,1.6564885
9130,4.0150557,3.5122759,9.6102762,0.7633588,6.6412215,1.2442749
9140,4.1204000,3.4691806,9.6174593,-2.1603053,5.0916033,0.9465649
9150,3.9791429,3.6391680,9.7754755,-4.7480917,3.6946564,0.3740458
9160,4.0270267,3.9288650,10.3859940,-4.4122138,-3.1832061,-1.2595420
9170,3.9264708,4.6136031,10.1226330,-5.2442746,-3.2748091,-1.9465649
9180,4.5561423,4.1587071,10.4769726,-8.0458012,-3.5496182,-5.1068702
9190,4.0485744,5.1044121,11.3388815,0.1603053,1.7633588,-7.5343513
9200,3.9456241,5.4372044,11.0755205,2.0534351,0.5419847,-8.8854961
9210,4.1251884,6.2895355,11.5016861,15.5725193,-14.0458012,-10.5801525
9220,4.2496862,6.6654234,11.1305866,21.0839691,-21.7328243,-12.0229006
9230,4.3430595,6.8497758,10.9725704,24.0458012,-27.4656487,-12.3969469
9240,4.7021880,7.2136927,10.5535870,23.7633591,-28.1068707,-11.7557249
9250,5.2049680,7.5321202,10.5057030,19.5114498,-23.1679382,-11.2519083
9260,5.4300218,7.9295554,10.8983507,14.8625956,-14.8473282,-12.2213745
9270,5.5066357,8.2838955,11.3005743,11.8244276,-5.5954199,-12.1908398
9280,5.0230093,8.4467001,11.5926657,6.9770994,15.7557249,-10.7786255
9290,4.2832050,8.7747040,10.6517487,-1.0458015,35.6412201,-6.8625956
9300,3.9863255,8.9399033,10.4266949,-0.8473282,33.7709923,-6.5496182
9310,4.8386569,11.2383251,9.3157911,4.2595420,5.6183205,-6.3740458
9320,5.5976148,12.1361465,8.2407999,-1.3511450,5.9007635,-14.1832066
9330,6.0453281,12.2750092,7.1490498,-13.5725193,14.9694653,-26.0381680
9340,5.8370337,11.7985659,6.5457139,-25.7786255,19.3740463,-41.4656487
9350,5.3055239,11.0707321,6.1650376,-34.0763359,8.4198475,-58.2977104
9360,4.4603748,10.1226330,5.9854736,-36.0076332,-16.0381680,-75.4427490
9370,3.5793133,8.8824425,5.9280128,-31.6488552,-54.7251892,-88.2671738
9380,3.2704628,7.5201492,6.0285692,-20.8549614,-101.1832047,-98.7251892
9390,3.1100521,6.0501165,5.4372044,-8.5419846,-146.9694672,-105.5572510
9400,3.3303175,4.3382711,4.7716198,4.0916033,-190.0992432,-110.7557220
9410,3.9839313,2.1930776,3.5817075,15.3511448,-229.2671814,-114.5267181
9420,5.3988972,-0.4237715,2.2649033,22.4503822,-250.1374054,-115.2900772
9430,6.7228842,-3.5577655,0.7565638,21.8702297,-250.1374054,-111.4656525
9440,8.0923605,-7.4674768,-1.0989330,11.2061071,-218.6335907,-100.3893127
9450,9.0069408,-11.2095947,-3.2513094,-14.4427481,-153.6106873,-84.8091583
9460,10.1753054,-14.9636841,-5.5186067,-56.6335869,-80.4961853,-65.6870193
9470,10.3405046,-17.0801468,-7.1131368,-120.1450348,-29.7938938,-55.6412201
9480,6.9359670,-18.2485123,-3.7301471,-182.8396912,5.5419846,-39.9083977
9490,7.0460997,-17.9252968,-0.8331779,-232.6183167,2.0229008,-28.2061062
9500,5.8226686,-16.7449608,4.4867110,-250.1374054,-10.2900763,-22.1679382
9510,5.0876527,-15.5263186,9.1721401,-250.1374054,-26.8549614,-25.7557259
9520,3.5841017,-14.1472654,14.4321737,-228.3511505,-45.4885483,-30.6030540
9530,2.6000898,-13.0219965,19.6126022,-173.0534363,-65.7633591,-29.1068707
9540,1.9752063,-11.4945040,19.6126022,-96.9847336,-74.6564865,-21.3435116
9550,1.6160779,-10.0412302,19.6126022,-15.0687027,-69.2137375,-6.6106873
9560,2.6838863,-8.7028790,19.6126022,56.3893127,-48.1221390,10.6946564
9570,4.9320302,-7.8361821,16.6372223,107.7633591,-12.4122133,25.0916023
9580,6.2799587,-7.2448173,12.0762920,140.3129730,25.1755733,36.1832047
9590,7.2424231,-7.1275020,7.5895805,152.9007568,50.5725174,46.9923668
9600,8.3102312,-6.7731619,4.0509686,147.1755676,68.4503784,57.6870232
9610,9.1051025,-5.9088597,2.1020982,130.0076294,89.6946564,64.7175598
9620,9.4307127,-5.4467812,1.5969244,111.6030502,110.7175598,68.5343475
9630,8.9782104,-4.7021880,1.9129574,97.6564865,130.0915985,72.3206100
9640,8.1977043,-3.5769191,2.3798244,85.7480927,140.5877838,76.5572510
9650,7.2591825,-2.5282640,3.0262554,79.4961853,139.7251892,79.7022934
9660,6.4667058,-1.2306134,3.5649481,76.0916061,126.7862625,83.8091583
9670,6.5313487,-0.2250538,3.8115497,73.0381699,107.3358765,85.2900772
9680,3.4835455,4.6519103,8.2096758,7.9389315,36.4961815,26.6030540
9690,3.4619980,4.9152708,8.5927458,4.6870227,29.3740463,28.5267181
9700,3.9911139,5.0684991,8.7507620,0.5648855,28.2290077,29.7022896
9710,4.5058646,4.7333126,9.1314383,-10.4580154,37.3511467,24.5725193
9720,4.3813667,4.8673873,9.5959110,-12.8396950,35.2290077,17.5801525
9730,4.3358769,4.9727316,10.0723553,-10.7404585,28.5877857,9.3664122
9740,2.6886747,4.3622131,9.6222477,-4.8244276,3.6488550,-5.1832061
9750,1.9919657,4.1634955,9.2080526,-5.0687022,-4.6412215,5.5419846
9760,1.9919657,4.3119354,8.8585014,-10.9160309,-1.0458015,14.1374044
9770,2.9233053,4.4364328,9.7084379,-23.3206100,13.2748089,30.2824421
9780,3.6990228,4.3215117,10.2088242,-25.9465656,19.6564884,33.9618340
9790,4.6519103,4.2784166,10.5775290,-25.5954189,24.1832066,32.3969460
9800,4.6590929,4.1802549,11.0922794,-21.6335869,25.9389305,27.7633591
9810,4.3646073,4.1180058,11.7004042,-11.4580154,21.2137413,23.2595425
9820,4.5705075,4.9320302,8.7842808,25.5190830,-10.2595415,17.4351139
9830,5.4611464,5.1092005,8.3341732,11.9618320,-0.4274809,7.2061067
9840,5.5736732,4.7811961,8.1785507,0.9770992,7.6412215,0.3587786
9850,5.1834202,4.3693957,7.5273318,-15.1374044,21.7938938,-7.4885497
9860,4.4651632,4.0509686,9.7922344,-23.5954189,14.3206110,-12.0305347
9870,4.7069764,3.2656744,10.9869356,-19.4885502,2.0229008,-17.5725193
9880,4.3526363,2.6767037,11.1832590,-14.4732828,-1.1374046,-20.2595425
9890,4.2233500,2.6120608,11.9637651,-9.2137403,-2.6030533,-23.4732819
9900,3.7469065,2.5737536,12.4856977,0.1755725,-3.2748091,-24.9465656
9910,3.4021432,2.1332228,12.4928808,10.3969469,-3.5877862,-24.6335869
9920,3.0501974,2.3774302,12.0260134,19.0305347,-3.4732823,-22.8931293
9930,2.7126167,2.5546002,11.5615406,24.3053436,-0.2900763,-18.8549614
9940,2.6934631,2.7820482,11.1593170,26.1526718,5.8702292,-12.0763359
9950,2.7485294,2.6838863,10.5487986,22.9541988,13.7404585,-5.4580154
9960,2.4564383,3.3303175,10.9510221,14.2519083,26.2366409,14.6259546
9970,2.5761478,3.3758070,11.1952295,18.3053436,20.2290077,18.9923668
9980,2.7844424,3.5960727,11.4561968,24.9541988,11.9083967,21.0381680
9990,3.1746953,4.2999644,11.1808643,41.6793900,-7.4809160,22.6412220
