timestamp,acclX,acclY,acclZ,gyroX,gyroY,gyroZ
0,1.7693061,1.7094513,9.2990322,-43.4351158,26.1374054,11.5648851
10,1.8195840,1.4341195,9.6629486,-45.8625946,24.9618320,13.6183205
20,2.1356170,1.1755470,10.0172882,-43.5648842,25.0992374,13.7709923
30,2.1787124,0.9792235,10.0747490,-37.5190849,25.8396950,13.7328243
40,2.0709739,0.7709290,10.2878323,-29.5419846,25.9160309,14.6030531
50,1.9823889,0.9576758,10.2998028,-21.1679382,22.1984730,16.5801525
60,2.2696917,1.1492109,10.2806492,-13.1679392,15.6641226,17.0152664
70,2.7102225,1.4245427,10.3452930,1.2671756,-1.3053435,7.4045801
80,2.6479735,1.4077834,10.5895004,9.5114508,-10.0610685,-2.1984732
90,2.3582766,1.4365137,10.4266949,16.9541988,-18.8091602,-9.4503813
100,2.4181314,1.1899122,10.3788109,22.9389305,-27.1374054,-13.2519083
110,2.5546002,0.9169745,10.3955708,30.5496178,-27.1068707,-21.5190830
120,1.5753766,1.6783268,10.2591019,35.9923668,-32.7557259,-20.5419846
130,1.6304430,1.8387375,9.6150646,37.2824440,-35.0916023,-18.4961834
140,2.0039365,1.4820032,9.3301563,36.5190849,-33.9312973,-16.9312973
150,1.9823889,1.5107336,9.3756456,33.6335869,-30.4503822,-15.0916033
160,1.9967541,1.7525467,9.4953556,31.5114498,-26.2595425,-11.2824430
170,2.2194135,1.7190280,9.5695753,29.3282452,-23.2137413,-9.9236641
180,2.4899571,1.8315549,9.5336628,26.3740463,-19.5267181,-9.4580154
190,2.5689652,2.0326669,9.4570484,23.6793900,-14.4198475,-10.8931293
200,2.6407909,2.1499822,9.4091644,21.8931293,-10.5267172,-12.3740454
210,2.5162930,2.1188576,9.2128410,19.4503822,-7.6106873,-13.5343513
220,2.2481439,2.1164634,9.2774839,18.4045811,-6.7938933,-13.8549614
230,2.1547706,2.1523764,9.2152348,18.1832066,-8.4961834,-14.4885492
240,2.1427996,2.0542145,9.2200232,18.7022896,-13.5801525,-15.1145039
250,2.0254843,2.0111191,9.3301563,20.2595425,-18.3053436,-15.7557249
260,1.8411317,1.9799947,9.2319946,22.3435116,-24.3511448,-15.4580154
270,1.6998745,2.2122312,9.1793222,23.4274807,-30.9541988,-14.6183205
280,1.8339491,2.2577207,8.9518747,22.1603050,-37.9923668,-13.1374044
290,2.0757623,2.4229198,8.6789370,17.5190830,-42.4351158,-11.7557249
300,2.3702476,2.5665710,8.5113440,9.9923668,-39.4732819,-11.0152674
310,2.5976956,2.5881188,8.6861191,0.7557252,-32.6717567,-10.7862597
320,2.6240315,2.6647329,8.9829988,-6.9312978,-25.1297703,-10.9007635
330,2.5019281,2.6000898,9.2990322,-13.4503813,-18.4122143,-8.9389315
340,2.6048782,2.5210814,9.8425131,-17.1297703,-14.5419846,-7.4961834
350,2.6192431,2.7820482,10.4314833,-17.4198475,-12.5114508,-5.9160304
360,2.8203552,3.0885043,10.8528605,-15.2595415,-15.8625956,-4.6793895
370,2.9807658,3.3015873,10.9510221,-13.2213745,-21.0076332,-4.5267177
380,3.1699069,3.5242469,11.2095947,-11.5114508,-25.5954189,-4.0458016
390,3.7373297,3.7253587,11.5950594,-9.1908398,-31.3358784,-4.1374044
400,4.2281384,3.9432299,12.5048513,-4.4122138,-35.7480927,-6.0534353
410,4.5968437,4.0940638,13.1249466,4.4656487,-39.6870232,-9.6641226
420,4.7213416,4.1970143,13.1297350,13.9389315,-41.2366409,-13.6259546
430,4.5776901,4.3167233,13.0986109,22.7480907,-36.7862587,-16.6106873
440,4.1730723,4.2329268,12.9429884,29.4885502,-29.3816795,-16.1984730
450,3.7469065,4.0940638,12.6724443,33.8778610,-20.8320618,-13.6564884
460,3.4260850,4.0749106,12.7011747,36.1068687,-9.1297712,-9.7328243
470,2.7197993,3.6343796,12.0092545,39.2595406,44.7175560,10.5267172
480,2.0613971,3.6750808,11.2933912,38.9236641,47.6870232,13.2290077
490,2.0733681,3.6224086,11.2455082,44.3358765,43.7022896,11.3816795
500,1.7238164,3.5314295,10.0460186,46.2290077,33.3358765,13.3511448
510,2.3630650,3.6487448,8.2527714,33.2290077,19.5801525,6.5877862
520,2.3774302,3.2465210,9.0380650,25.1526718,20.0763359,1.2290076
530,2.3295465,2.9304879,10.1944590,25.3664131,21.7175579,-4.3129773
540,1.8650736,2.4660151,11.3101511,34.1679382,24.9770985,-9.2671757
550,1.2976507,1.9560528,11.6357603,46.6335869,31.0687027,-10.3893127
560,1.5274929,1.8914096,10.7139978,55.7175560,40.5572510,-9.8625956
570,1.9799947,2.1236460,9.3780403,52.7022896,61.8931313,-11.5114508
580,1.6424140,2.1380112,8.2288294,39.5725174,92.1984711,-13.2442751
590,0.9026094,2.1595588,7.8002691,25.0000000,116.2366409,-12.0610685
600,0.0837966,2.1092808,7.2328463,12.4122133,130.4045868,-8.6564884
610,-0.5985473,2.0446377,7.0413113,0.7557252,138.0915985,-2.2213740
620,-0.7038917,2.2768741,7.2663651,-9.2519083,141.1450348,4.0687022
630,-0.8236012,2.3917952,7.7667508,-14.9160309,140.2213745,10.0381680
640,-0.7350162,2.3894010,8.3293848,-15.2366409,134.3511505,16.6335869
650,-0.1412572,2.6383967,8.4275465,-12.3587790,127.2290039,20.3129768
660,0.3232156,3.0214672,8.2431946,-9.1526718,120.0839691,19.7709923
670,0.2992737,3.3087699,8.2407999,-4.0229006,104.3587799,18.7175579
680,1.0247130,3.8378856,7.8816719,3.8702290,77.4961853,15.4045801
690,1.8531027,4.4436154,7.6949248,9.5877867,54.9007645,8.4274807
700,2.2002602,4.8769641,7.8266053,11.8854961,42.5038185,1.2671756
710,3.2010312,8.1570034,6.3685441,36.8625946,15.5190840,-15.6335878
720,3.6271970,8.8273764,5.2432747,31.7099228,13.0839691,-23.5877857
730,3.7229645,9.2631187,4.4699516,16.3587780,-1.4732825,-41.1450386
740,3.8354914,9.5671806,4.2664456,10.5038166,-11.7404585,-48.8320618
750,4.1299767,9.2008705,4.9344244,12.6717558,-22.2748089,-62.7175560
760,3.4452386,8.8082228,4.8195033,20.0610695,-42.9160309,-73.6183243
770,3.4572096,8.7028790,3.2920105,11.3969469,-52.4732819,-80.1603088
780,2.7892308,8.5927458,3.6463506,-0.2824427,-51.2748108,-87.5190811
790,1.2880739,8.2144642,3.5074875,-8.4656487,-52.7862587,-87.1603088
800,-0.0909792,7.8697009,2.9783716,-22.8854961,-53.2137413,-80.0152664
810,-0.8978211,7.6278877,3.0693510,-44.1450386,-49.4427490,-69.7633591
820,-1.9464760,7.3932571,3.7421181,-64.8473282,-46.6717567,-57.1221390
830,-2.3510940,7.4507174,4.5130472,-84.9389343,-49.7862587,-43.8702278
840,-2.1092808,7.9678626,6.1746144,-103.9160309,-50.8015251,-35.0381660
850,-2.3151813,8.5975342,8.4227581,-115.5801544,-51.1908379,-31.6870232
860,-3.1699069,8.9949694,10.8169479,-115.4656525,-58.0381660,-29.5190830
870,-3.2608860,9.6701307,12.3635941,-103.1374054,-77.1832047,-28.6030540
880,-2.7365584,10.7666702,12.3923244,-95.9007645,-88.0992355,-31.6717548
890,-2.9711890,11.5615406,12.7083578,-100.1297684,-84.4656525,-38.4122124
900,-3.0166788,12.1792421,13.9677010,-101.5343475,-82.4732819,-50.9771004
910,-3.3590479,11.4992924,14.4752693,-93.0534363,-94.8778610,-66.9694672
920,-3.9743545,10.2136126,14.6620159,-74.1984711,-124.8015289,-75.4885483
930,-4.4460096,8.4730368,14.0371332,-49.0763359,-158.7175598,-74.0687027
940,-4.6950054,6.3517847,12.3300753,-22.8931293,-192.0076294,-59.7251892
950,-4.4029145,3.6200144,9.3181858,-2.5267177,-211.5954132,-32.1603050
960,-3.6918402,-0.2346306,5.3390427,7.2900763,-224.0992432,8.5725193
970,-2.0973101,-4.0820932,1.4987626,4.6793895,-217.8854980,56.7022896
980,0.8714849,-8.4562769,-2.1858950,-13.6183205,-188.0229034,103.9007645
990,4.4555864,-13.7091284,-4.9511838,-49.0381660,-143.8015289,140.8473358
1000,9.3014259,-18.8183289,-5.8490047,-99.3740463,-81.3282471,161.4732819
1010,13.0866394,-19.6131992,-5.0014620,-161.2977142,-21.7786255,148.2442780
1020,14.0898046,-19.6131992,-0.5698171,-209.5267181,-8.0992365,106.0916061
1030,13.7450418,-19.6131992,6.6342988,-216.7328186,-45.9847336,50.7099228
1040,12.2917690,-19.6131992,13.7761660,-185.7557220,-106.1832047,-3.6946564
1050,9.8784256,-19.3043499,19.6126022,-129.4427490,-157.0305328,-42.8167953
1060,8.6765423,-17.2860470,19.6126022,-57.2900772,-166.5038147,-66.7404556
1070,6.2703824,-15.2509871,19.6126022,23.5419846,-119.8702316,-78.2519073
1080,3.0645626,-14.5135765,19.6126022,91.1068726,-40.0152664,-75.0381699
1090,-0.0981618,-14.6787758,19.5030670,139.4122162,38.0992355,-52.0534363
1100,-1.7764885,-14.2071199,13.6947641,169.1526642,89.1526718,-16.0458012
1110,-2.7485294,-13.6301203,8.6142941,180.6793823,110.3053436,27.7251911
1120,-2.9687948,-13.3284531,5.2863703,183.2290039,103.1374054,77.6870193
1130,-1.4772149,-12.6149845,3.5769191,182.4503784,83.1526718,127.1145020
1140,1.8387375,-11.2263546,3.2800395,180.7633514,67.0305328,162.2824402
1150,5.6024032,-9.8760319,3.5577655,183.2519073,58.1068687,176.7251892
1160,8.5352850,-8.5137377,3.2967989,188.0229034,61.3358765,175.2900696
1170,10.0675669,-6.5002246,2.4061604,188.4732819,71.6946564,163.2366486
1180,10.2207947,-4.9128766,1.6232605,181.3511505,77.2061081,145.9847260
1190,9.6797075,-3.3111639,1.1085097,170.3740387,77.6488571,128.4885559
1200,9.0667953,-2.0853391,1.0151364,155.9694672,79.2824402,114.1221390
1210,7.5488791,-0.7374104,1.3359578,138.4885559,79.7099228,105.5725174
1220,6.3613615,0.6153067,2.3678534,119.4274826,80.6488571,103.1145020
1230,5.7819676,1.5993185,3.4069316,100.8778610,83.6030502,105.2213745
1240,5.3917146,2.8299320,4.7213416,88.6183243,84.4351120,107.0076370
1250,5.1379304,3.6487448,5.6790175,80.4580154,79.3358765,108.7786255
1260,6.4499464,4.0940638,6.4930420,74.0076370,78.4351120,107.3587799
1270,7.3166428,6.1195483,6.9407554,49.8473282,111.4656525,80.6335907
1280,6.0237808,7.1059542,7.1083484,39.3969460,122.4198456,67.5114517
1290,4.7285242,8.1498213,7.1346846,32.5801544,115.0992355,56.7557259
1300,4.0940638,8.9877872,7.8457589,5.1984735,7.7328243,13.4885492
1310,4.2209558,9.7467451,8.1450329,-0.4503817,2.2519083,7.2290077
1320,4.5657191,10.1920643,8.1570034,-7.9465647,2.2366412,0.5572519
1330,4.6566987,10.4410601,8.2982607,-17.2061062,3.0458016,-8.5954199
1340,3.9671719,10.0891142,8.7866755,-26.5801525,-0.5954198,-14.6946564
1350,3.8905578,9.3732519,9.5959110,-34.0305328,-9.1984730,-15.6106873
1360,4.1658897,8.8896255,10.5631638,-39.4198456,-14.6641226,-14.3511448
1370,4.5800843,8.7148495,11.7722292,-41.7938919,-16.1679382,-12.5038166
1380,4.8793583,8.7842808,12.8017311,-41.2061081,-15.6870232,-12.4122133
1390,5.2552457,8.9183559,13.9581242,-35.9083977,-16.3664131,-13.7557249
1400,5.1283536,9.0883436,14.8080616,-25.0000000,-15.7786255,-17.4961834
1410,4.5752959,9.1817169,15.1312771,-9.3129768,-20.3969460,-21.5038166
1420,4.0533628,9.2343884,14.5399122,8.5648851,-31.5419846,-23.6946564
1430,3.7373297,9.3397331,13.1560707,22.2213745,-42.7557259,-23.2977104
1440,3.6295912,9.3732519,11.4849272,26.8549614,-48.7633591,-22.1374054
1450,3.4045374,9.2894554,10.8289185,27.4961834,-51.8473282,-18.3740463
1460,3.3231349,9.1314383,10.2758608,28.6793900,-52.2748108,-12.7480917
1470,3.9839313,9.3564920,9.7012558,28.0381680,-47.8702278,-8.9847326
1480,4.1682839,9.5935173,9.0093346,24.6412220,-39.8625946,-8.5877867
1490,4.0294209,9.6366129,8.4490948,21.2290077,-30.5114498,-8.4503813
1500,3.7014170,9.7299862,7.7763271,19.7328243,-25.7175579,-8.2671757
1510,3.5481887,9.8161764,7.0748301,19.7938938,-32.3053436,-8.9465647
1520,3.7062054,10.0364418,6.2847471,18.9160309,-46.7633591,-11.7938929
1530,3.9599893,10.3500814,5.9232249,17.9083977,-67.2824402,-16.9923668
1540,4.3191175,10.7906122,6.1123657,17.6870232,-86.9847336,-22.9160309
1550,5.0732875,11.4873209,6.3613615,17.7099228,-96.9923630,-28.7404575
1560,5.4036856,12.0355902,6.3829093,15.1221371,-93.8320618,-35.2900772
1570,5.3677726,12.4497852,6.6223278,11.0687027,-85.7786255,-40.6412201
1580,5.1331420,12.6197729,6.7851329,8.5801525,-75.9618301,-43.0992355
1590,4.9344244,12.7562418,6.0525107,4.3358779,-65.2748108,-41.6488533
1600,4.8290801,13.0267849,5.8944945,-4.1145039,-57.4274826,-41.5725174
1610,4.3550305,13.2997227,6.6845770,-8.1755724,-57.8396950,-41.4885483
1620,4.4986820,13.7881374,7.4243813,-5.2748094,-61.6641235,-41.0000000
1630,5.2193332,14.1400833,6.9407554,-4.5343513,-50.7099228,-43.4503822
1640,5.4970589,14.3388004,5.5856438,-8.4656487,-33.5267181,-52.0305328
1650,4.7165532,13.6995516,3.1459649,-21.0992374,-22.0305347,-63.5725174
1660,3.0478032,13.0267849,1.4604555,-38.5572510,-25.0381680,-72.2519073
1670,2.1930776,12.1098099,0.1029501,-52.7251892,-46.7938919,-77.5267181
1680,1.7333932,10.7546988,-1.9249283,-70.8549652,-73.6335907,-82.8244247
1690,1.6208663,8.4227581,-2.4564383,-95.9847336,-93.0992355,-85.3053436
1700,1.9440818,5.4443870,-2.0685797,-121.4809189,-93.5801544,-84.4885483
1710,1.7980363,2.2002602,-2.0973101,-146.7328186,-72.1984711,-77.8320618
1720,1.3239868,-1.0941446,-2.3151813,-171.8931274,-44.2061081,-65.1908417
1730,0.9528874,-3.9863255,-2.4157372,-193.3893127,-22.4198475,-48.3816795
1740,1.5921360,-7.0053983,-2.0613971,-208.9160309,-14.2366409,-30.6412220
1750,3.4165084,-10.1058741,-1.1755470,-217.9618378,-12.1526718,-16.5419846
1760,7.8242111,-14.3388004,-0.7445929,-227.9236603,10.1145039,-12.9541988
1770,11.9493999,-19.6131992,-0.4046180,-250.1374054,45.5725174,-31.0992374
1780,12.9621420,-19.6131992,1.9656296,-250.1374054,57.2519073,-67.0763321
1790,12.3252869,-19.6131992,7.9918046,-250.1374054,35.5877876,-106.0839691
1800,9.6701307,-19.6131992,18.3993454,-250.1374054,-0.4809160,-135.8473358
1810,4.6327567,-19.6131992,19.6126022,-250.1374054,-41.0381660,-141.9084015
1820,2.3199697,-19.6131992,19.6126022,-147.9236603,-47.1603050,-122.7404556
1830,-1.1348459,-19.6131992,19.6126022,24.0992374,8.5801525,-80.8473282
1840,-2.9879484,-19.6131992,19.6126022,179.5725250,69.4045792,-18.1145039
1850,-2.6814921,-17.9324799,19.0050755,250.1297760,82.2213745,45.2595406
1860,-0.7350162,-15.2533808,9.3540983,250.1297760,81.0457993,92.4198456
1870,2.1380112,-12.5024576,1.5203103,250.1297760,75.1450348,127.0534363
1880,4.9894910,-9.0596132,-5.0493455,250.1297760,56.8091621,142.7099304
1890,7.3645267,-5.2528515,-7.6542239,191.9541931,49.8396950,137.6564941
1900,7.8313937,-2.6503677,-4.7213416,113.2824402,59.5801544,123.4656525
1910,7.5680327,-1.3455344,0.3615226,66.0305328,78.4427490,107.7175598
1920,6.4236102,-0.4405309,4.6207857,52.7633591,88.6717529,94.3893127
1930,3.5314295,6.8976598,9.9837704,21.6183205,71.0839691,8.0687027
1940,2.5498118,7.1035600,9.2272062,27.3129768,59.2748108,1.7022901
1950,1.1228749,7.5704269,7.5584559,3.6030533,21.9389305,-4.0839696
1960,2.3894010,8.1546097,8.4107876,-25.4274807,16.4885502,-7.1984735
1970,2.2720859,8.4897957,8.5664101,-33.5725174,23.6717548,-8.0610685
1980,2.4277081,8.5544386,8.8058290,-39.9847336,24.4656487,-9.1145039
1990,2.1930776,8.6262646,9.4283180,-43.0305328,18.6641216,-10.4122133
2000,1.9560528,8.7866755,9.6126709,-43.7938919,5.7404580,-10.8931293
2010,2.3223639,8.7723103,10.1178446,-43.6641235,-6.4274807,-10.4503813
2020,3.0908985,8.7387915,10.9342632,-41.9923668,-13.7404585,-10.6641226
2030,4.0773048,8.8776541,11.4346485,-39.6946564,-12.2137403,-14.2290077
2040,4.5968437,8.9351149,11.5615406,-38.2671738,-1.3435115,-20.9160309
2050,4.2688398,8.6645718,11.5759058,-36.8396950,10.5572519,-28.4885502
2060,3.1315999,8.2527714,11.3532467,-33.4274826,13.0839691,-33.3282433
2070,1.9752063,7.9511032,11.3388815,-26.1221371,4.2137403,-33.9771004
2080,1.0055596,7.8601241,11.1425581,-15.9160309,-15.3358774,-30.4961834
2090,0.3136388,7.9463148,10.6685085,-6.5496182,-41.7938919,-23.8091602
2100,0.4932030,8.3006544,10.4219065,0.2137405,-64.4961853,-15.5572519
2110,1.0390782,8.8513184,10.1489687,2.7480917,-76.2290039,-8.6946564
2120,1.6543850,9.4139528,10.0005293,2.2900763,-79.5343475,-4.1221375
2130,2.4157372,10.0340481,10.0555954,-0.0458015,-79.3511429,-1.8549619
2140,3.0358322,10.7116032,10.2088242,-2.6335878,-76.0687027,-2.2748091
2150,3.1770895,11.3005743,10.2519188,-5.6183205,-74.3206100,-4.3740458
2160,3.2369442,11.6453371,10.8839855,-6.3969464,-79.2671738,-5.5267177
2170,3.4236910,11.7937775,11.4849272,-2.7938931,-86.8015289,-6.1908398
2180,3.7684543,11.8679972,12.0092545,5.1603055,-97.7480927,-7.1832061
2190,4.3167233,12.1433287,12.2031832,15.4351149,-107.7862625,-10.6259546
2200,4.5441718,12.3061342,11.3819771,22.8473282,-112.8320618,-15.9312973
2210,4.5250182,12.4306316,10.0675669,22.9847336,-114.4961853,-20.9465656
2220,4.5681133,12.5742826,8.6118994,16.0763359,-113.1984711,-25.7786255
2230,4.4962878,12.3612003,7.4315639,2.5801528,-108.6412201,-31.6564884
2240,3.8522508,12.2917690,6.8042865,-14.6717558,-104.3816757,-36.6106873
2250,3.5122759,11.7004042,6.7971039,-29.2290077,-106.6717529,-39.6106873
2260,3.0190730,10.9677820,6.6342988,-37.6564903,-114.4045792,-41.8015251
2270,1.9632354,10.0603838,5.8059096,-41.6946564,-132.0992432,-42.5954208
2280,0.9385223,8.8417416,5.3558016,-41.4503822,-161.2290039,-38.4427490
2290,0.7158626,6.9838505,4.8051381,-34.3282433,-191.0381622,-30.1297703
2300,0.9576758,4.6231799,3.2417326,-24.4045811,-215.7328186,-18.8778629
2310,1.7645177,1.8602852,0.4237715,-22.0152664,-228.5801544,-5.9923663
2320,3.4979107,-1.6974803,-2.1499822,-30.3053436,-221.7404633,5.8778625
2330,5.4228392,-5.9184365,-4.0366035,-48.0305328,-197.2748108,12.1603050
2340,7.4746594,-10.9773588,-4.9200592,-72.7633591,-167.2748108,14.4198475
2350,8.7531567,-16.2661228,-5.0493455,-98.9694672,-144.3587799,15.5648851
2360,9.5552101,-19.6131992,-5.4683285,-132.3587799,-139.0458069,22.3893127
2370,10.4841557,-19.6131992,-4.0701222,-174.0076294,-148.6412201,36.4809151
2380,12.4976692,-19.6131992,-1.0366840,-218.9084015,-151.5496216,50.2900772
2390,14.3675308,-19.6131992,3.1962428,-250.1374054,-128.8931274,46.9771004
2400,13.9748840,-19.6131992,8.6837254,-250.1374054,-78.0839691,15.7251911
2410,10.9198980,-15.4377337,14.8846760,-250.1374054,-20.8625946,-30.5267181
2420,7.0053983,-13.2709923,19.6126022,-250.1374054,15.8473282,-76.3740463
2430,2.0949159,-13.8815107,19.6126022,-232.4122162,17.4656487,-101.5801544
2440,-1.6615674,-15.0307217,19.6126022,-73.3740463,-6.4885497,-92.0992355
2450,-1.8842272,-15.2940826,19.6126022,112.1908417,-24.0152664,-60.6793900
2460,0.1891410,-16.0123386,19.6126022,250.1297760,-19.9312973,-27.6717548
2470,2.6958573,-16.2206345,13.7665892,250.1297760,-0.1374046,2.2748091
2480,4.7452836,-15.9812145,2.7557120,250.1297760,32.6793900,28.8473282
2490,6.2296810,-14.3938665,-4.4819226,250.1297760,74.2748108,52.8091621
2500,7.4076223,-11.7794123,-5.8178802,219.9923706,111.2671738,70.4656525
2510,8.2503767,-8.9494801,-3.1699069,177.9923706,138.7251892,76.7251892
2520,8.7100611,-6.8378053,-0.6919208,163.7175598,150.6564941,72.3511429
2530,8.9135675,-5.0086441,0.8786675,162.8931274,150.5114441,61.2137413
2540,8.3844519,-3.4141142,0.9696468,162.6870270,148.1755676,46.6793900
2550,7.1011658,-2.2864509,0.6320660,155.2519073,145.3511505,36.4351158
2560,5.0230093,-1.0295014,0.2322364,143.7022858,133.8549652,34.7633591
2570,4.0773048,0.2130829,0.6368544,126.6335907,119.7022934,43.9312973
2580,3.9935081,1.2210367,1.5370697,111.1297684,108.0076370,56.9541969
2590,8.2455883,10.0148945,7.2639709,47.1450386,12.0610685,14.4351149
2600,8.7459745,10.9701757,7.1514440,34.0076332,-8.9083967,-9.7251911
2610,8.0205345,11.0922794,7.2783360,26.1297703,-13.0152674,-22.8931293
2620,7.2639709,10.6230183,7.1945391,21.5954189,-17.6793900,-30.5343513
2630,6.5121951,10.4602137,6.6127515,15.7786255,-18.5419846,-32.7786255
2640,5.8968887,11.1042509,6.4547348,7.0992365,-16.2824421,-29.3587780
2650,5.6239510,11.1928358,6.5409255,-1.2519084,-15.9923668,-23.1068707
2660,6.2296810,11.0084829,6.7635851,-8.4961834,-17.1832066,-17.4503822
2670,7.1466556,11.0539722,7.0293403,-14.8778629,-17.6106873,-14.9312973
2680,7.6063399,10.8432837,7.3334022,-20.2748089,-20.0687027,-16.4809170
2690,7.3717093,10.7475166,7.9726510,-20.8244267,-24.5725193,-17.7022896
2700,7.2998838,11.2359314,7.8170285,-18.9312973,-31.4122143,-18.3740463
2710,6.9718795,11.4897156,7.4986014,-18.4885502,-38.2366409,-18.0229015
2720,6.3900914,11.6022425,7.2807302,-20.4122143,-42.7022896,-14.5038166
2730,5.8513989,12.0092545,7.6183109,-21.1755733,-50.6030540,-7.1526718
2740,6.0932121,12.5551291,8.0875721,-19.8167934,-60.6259537,1.0992366
2750,7.0652533,13.1752243,9.1793222,-15.3816795,-62.9083977,5.1221375
2760,8.3509331,14.0969877,9.4019823,-9.4427481,-59.4045792,3.3587787
2770,8.9758167,14.5087881,8.8154058,-6.0458016,-47.7633591,-3.7404580
2780,8.7459745,14.4609041,7.3788919,-9.2061071,-36.7480927,-11.6030531
2790,7.8744893,14.0203733,6.9383612,-16.3053436,-31.2137413,-16.9236641
2800,6.6654234,13.7354650,6.8928714,-21.0610695,-36.7099228,-18.6030540
2810,5.7173243,13.7618008,7.1634150,-19.6030540,-55.0916023,-15.4656487
2820,5.5114241,14.0227680,7.1155310,-13.7251911,-80.3511429,-12.6106873
2830,5.9112539,14.7290535,6.7372489,-6.1526718,-105.9236679,-12.2748089
2840,6.7252784,15.6220865,5.3438311,-4.8854961,-122.6946564,-16.9923668
2850,7.2017217,15.8447456,3.6559272,-13.9923668,-129.7557220,-27.0000000
2860,6.1913738,15.4616756,2.6431851,-30.0992374,-132.5801544,-36.4732819
2870,4.3741841,15.0714226,1.9177457,-45.6412201,-142.4580078,-35.6870232
2880,3.9312592,13.7594070,1.1420283,-60.5114517,-156.0076294,-29.4732819
2890,3.5290353,12.0882626,0.4740495,-74.0152664,-167.3816833,-22.9770985
2900,3.2752512,9.9023676,-0.1149211,-86.0992355,-177.4351196,-13.6259546
2910,3.4117200,7.2496057,-0.7709290,-97.9083939,-177.5801544,-0.4961832
2920,3.7995787,4.2401094,-1.2880739,-110.3893127,-158.1984711,14.3893127
2930,4.6471219,0.6272776,-1.4867916,-128.6106873,-96.9160309,34.2137413
2940,5.6694407,-3.7852135,-2.2170193,-155.0305328,2.9312978,54.7557259
2950,6.6534524,-8.0803890,-1.9057748,-182.9847260,106.2824402,71.0534363
2960,7.7212610,-13.6349087,-1.7070571,-202.2824402,191.1526642,75.5114517
2970,8.4347296,-18.3921642,-1.5586174,-216.2061005,243.0229034,72.0610657
2980,10.3428984,-19.6131992,0.2920911,-222.0839691,250.1297760,59.9541969
2990,12.2390966,-19.6131992,2.3032103,-224.5038147,219.2290039,34.4961815
3000,12.3300753,-19.6131992,4.0413918,-239.0000000,160.2137451,-0.2442748
3010,10.7977943,-19.6131992,8.9901810,-250.1374054,86.9389343,-39.3816795
3020,8.8082228,-19.6131992,16.4289284,-250.1374054,18.0687027,-77.7786255
3030,7.5009956,-17.8367119,19.6126022,-227.0152740,-18.8015270,-112.9465637
3040,5.0493455,-16.7808743,19.6126022,-147.1221313,-9.8549614,-137.5267181
3050,1.9512644,-16.3068237,19.6126022,-9.3740454,34.6717567,-138.1068726
3060,-0.8236012,-17.9803619,19.6126022,155.2137451,106.1755753,-106.0534363
3070,-1.9440818,-19.6131992,19.6126022,250.1297760,152.3511505,-51.3816795
3080,-1.9584470,-19.4695492,5.7269011,250.1297760,155.5267181,9.8396950
3090,-0.2130829,-17.4033623,-5.4850879,250.1297760,143.5496216,64.8320618
3100,3.3063757,-13.6229382,-8.3605099,220.0000000,117.0000000,102.3206100
3110,6.9407554,-10.7906122,-6.5528965,165.7480927,122.0229034,108.7709961
3120,9.0069408,-7.7380204,-1.5490406,141.6335907,138.2290039,96.2213745
3130,9.1769285,-5.7364779,1.9967541,142.5190887,131.0534363,77.7175598
3140,8.1713686,-4.7141590,3.3183465,154.6488495,113.8854980,57.8854980
3150,6.1889796,-3.1675127,2.8897867,166.0229034,96.4885483,48.3969460
3160,5.0062504,-1.5586174,1.7405758,164.7557220,85.3511429,46.9160309
3170,4.0054789,0.0143651,1.3335636,152.1832123,80.9923630,51.0534363
3180,3.5721307,1.7980363,1.8914096,136.1297760,77.3511429,59.8625946
3190,3.7828193,3.2513094,2.3822186,118.6183243,74.3511429,69.4961853
3200,8.0851774,10.2088242,7.9822278,51.6259537,48.4351158,27.8320618
3210,6.7061248,10.6038647,7.3046722,32.9312973,42.0152664,-5.4503818
3220,5.8226686,10.3261395,6.9718795,21.3969460,36.5267181,-17.4045811
3230,4.7668314,9.8329363,6.9838505,11.1603050,26.9847336,-26.3816795
3240,2.6551561,9.5695753,7.8385763,1.5190840,-12.0687027,-33.3816795
3250,2.4420733,9.7563219,7.9654684,-2.2824428,-15.1450386,-29.4961834
3260,2.6623387,9.5767574,7.9918046,-6.9236641,-13.1603050,-25.5038166
3270,2.6144550,9.3062143,8.1378498,-10.8015270,-8.2290077,-22.6335869
3280,2.3391230,9.0500364,8.3820572,-13.5038166,-5.6488547,-18.8244267
3290,2.2385671,8.7148495,8.2982607,-14.1679392,-5.8549619,-13.1755724
3300,2.3630650,8.8848372,7.6374645,-16.2595425,-6.1603055,-6.1450381
3310,3.1483591,10.5320396,9.2846670,-37.0305328,11.5190840,8.3511448
3320,3.1292057,10.5703468,9.9933472,-33.2977104,4.3969464,10.4885492
3330,4.0342093,11.0204544,9.9358864,-26.5954189,-8.6183205,12.3282442
3340,5.0852585,11.8991213,9.8688488,-23.9160309,-15.4198475,9.2671757
3350,5.4036856,12.2726154,10.3237448,-20.2137413,-18.1145039,3.1908398
3360,5.3079181,12.5072460,10.5942879,-11.0916033,-24.7328243,-1.6183206
3370,4.7021880,12.6125898,9.8185711,0.8473282,-37.4427490,-4.2137403
3380,4.0461802,12.8472204,8.4969788,6.5954199,-51.9541969,-4.6488547
3390,4.1012464,12.9741125,7.3812861,6.3129773,-65.9770966,-3.3893130
3400,4.8649931,13.1081877,6.2631998,-0.3740458,-75.3587799,-2.3435113
3410,5.9471664,13.3715477,6.4212160,-11.7175570,-69.9847336,-7.2290077
3420,5.5497313,13.2446556,6.8952656,-21.4809170,-60.7709923,-13.5343513
3430,4.1898317,12.9142580,7.3501616,-25.2290077,-61.9847336,-15.4503813
3440,2.3271523,12.6389265,7.6925306,-22.6793900,-79.4427490,-8.4885492
3450,1.7094513,12.7011747,7.8768835,-16.0152664,-104.1374054,6.3511453
3460,2.8490853,12.5599174,7.5393028,-10.6259546,-110.3129807,23.0610695
3470,4.5082588,12.7849712,6.3230543,-12.7022905,-100.7328262,37.1145020
3480,6.0333576,13.5008345,5.2528515,-23.4274807,-81.6717529,46.9541969
3490,7.8553357,13.7546186,4.1730723,-41.1755714,-51.6946564,50.0534363
3500,9.7371683,13.9916430,2.9879484,-65.1679382,-23.8396950,40.4045792
3510,10.9270811,13.8455973,1.7693061,-93.9923630,-3.4503818,14.9389315
3520,10.5272512,12.3875360,2.2457497,-118.5038147,0.0687023,-19.1221371
3530,9.1314383,10.3812056,3.4643922,-128.3282471,-15.7709923,-52.6946564
3540,6.8904772,7.8098459,4.0988522,-125.7633591,-41.0916023,-74.3969498
3550,5.1283536,4.6997938,4.0461802,-117.5038147,-71.1679382,-83.3587799
3560,3.7780309,1.5035510,4.1227942,-107.6717529,-91.2748108,-80.7175598
3570,3.2010312,-1.5729824,3.7756367,-97.6412201,-86.1832047,-68.7633591
3580,3.2010312,-4.9655490,3.7564833,-87.3282471,-59.1603050,-51.3511467
3590,4.1491303,-8.3269911,3.7181761,-74.6412201,-17.5343513,-35.3740463
3600,4.8266859,-12.2343082,3.3063757,-60.1374054,25.7786255,-23.1374054
3610,5.5233951,-16.0338860,2.0494261,-49.3816795,49.4503822,-10.4045801
3620,6.9766679,-19.3809643,1.1324517,-50.5190849,45.5419846,-0.3206107
3630,9.1242561,-19.6131992,0.1125269,-75.5954208,15.6259546,-1.0687023
3640,9.3947992,-19.6131992,1.5705882,-126.2213745,-43.7022896,-15.4122133
3650,9.2774839,-19.6131992,8.4347296,-168.4809113,-121.0610657,-34.1374054
3660,9.2200232,-19.1798515,18.5693340,-168.3893127,-190.5954132,-54.9771004
3670,10.9127159,-15.3946381,19.6126022,-116.9312973,-211.4885559,-88.7557220
3680,10.0077124,-13.1991663,19.6126022,-23.4885502,-151.7862549,-133.5877838
3690,5.1834202,-14.2741575,19.6126022,74.0534363,-67.3358765,-154.4503784
3700,0.0239419,-15.0426922,19.6126022,152.8931274,7.9541984,-139.1145020
3710,-3.1244173,-14.9445305,13.8072910,196.0534363,47.3969460,-94.6717529
3720,-4.4005203,-13.9629126,5.5257893,202.5190887,40.8854980,-33.9389305
3730,-1.9033806,-11.8703909,1.4580613,186.1984711,2.9312978,21.2442741
3740,2.4660151,-9.4594421,0.3567342,164.6335907,-12.6259546,52.3511467
3750,6.8473821,-7.1370788,0.6248835,148.9770966,5.6641221,62.1221390
3760,8.9973640,-5.1594782,0.9864060,136.1145020,42.7099228,57.3816795
3770,9.0979195,-3.4165084,0.4548960,122.9770966,80.7786255,50.7099228
3780,9.0045462,-2.7126167,-0.0574605,100.3587799,123.0305328,45.0839691
3790,7.6278877,-1.5179161,0.4309541,79.2137375,160.4427490,41.4351158
3800,5.6814117,0.0430954,0.8475431,64.0152664,180.4427490,45.2900772
3810,3.8570392,1.4724265,0.9289455,48.3206100,180.7709961,55.4427490
3820,3.2130022,2.7509236,1.3622938,32.0916023,168.2442780,68.8244247
3830,3.7516949,3.8354914,2.4588325,20.5725193,147.8396912,79.8778610
3840,4.9440012,4.8195033,3.7133877,12.6106873,124.7404556,85.0457993
3850,7.4267755,6.2416520,6.0165982,-4.1526718,113.7175598,79.6030502
3860,7.6853480,6.7803445,7.4291697,-11.4809160,123.7557220,72.7480927
3870,7.4028339,7.6590118,8.5592270,-15.4503813,138.1450348,65.5725174
3880,6.8952656,7.7332320,9.1458035,-14.7862597,146.9694672,57.3664131
3890,6.1123657,7.2783360,9.1529865,-9.7175570,139.8778687,48.8244286
3900,5.4850879,7.0700417,8.7459745,-2.1450381,115.9770966,40.8702278
3910,5.3198891,6.8832946,8.0468712,3.5877862,88.9160309,33.1374054
3920,5.5281835,6.8952656,7.8457589,6.0687022,61.3816795,22.6641216
3930,5.0565281,7.7068958,7.7547798,4.1984735,39.4274826,11.7786255
3940,4.9368186,8.1186962,7.9870162,1.0381680,24.8244267,2.6793892
3950,4.5178356,9.1912937,7.8385763,-5.0458016,15.2442751,-15.9618320
3960,4.2592630,9.0907373,7.0269461,-16.2824421,20.4580154,-23.6259537
3970,3.7014170,8.3030491,6.7947097,-32.3511467,30.1603050,-27.9847336
3980,3.2034254,7.4626884,7.4674768,-47.2290077,39.6030540,-28.9312973
3990,2.8802099,6.5552907,8.4371233,-57.9389305,48.1984749,-27.9465656
4000,2.3032103,5.8370337,9.3708572,-62.9236641,54.0000000,-24.4045811
4010,1.6615674,5.2815819,10.1824875,-61.1679382,56.0458031,-17.4351139
4020,1.3239868,5.0804701,10.4386663,-54.8244286,54.4809151,-7.2137403
4030,1.4077834,4.8889351,10.0603838,-50.6717567,51.3587799,3.4503818
4040,1.6998745,4.8602047,9.8305416,-50.0992355,47.9923668,12.2061071
4050,2.4995339,4.7668314,9.9574337,-50.3664131,43.7480927,19.4351139
4060,3.4404502,4.8266859,10.2734671,-49.6412201,39.4427490,22.0152664
4070,4.2664456,4.9583664,10.4961262,-48.5648842,36.2977104,19.8396950
4080,4.7668314,5.0517397,10.7906122,-47.3816795,35.8625946,13.8625956
4090,4.8075323,5.0996237,10.9246864,-45.1603050,34.9312973,6.4961834
4100,4.7835903,4.9320302,10.7977943,-43.1679382,32.6183205,-0.8854962
4110,4.5944495,4.7811961,10.7882175,-41.9160309,29.8702297,-8.7328243
4120,4.2233500,4.5202298,10.8887739,-40.4427490,27.2900772,-15.8931293
4130,3.7493007,4.1395535,11.1736822,-37.9694672,24.9083977,-20.7404575
4140,3.2345500,3.8809812,11.2119894,-33.9007645,22.9541988,-23.3053436
4150,2.8586621,3.6080434,11.2431135,-29.2442741,20.2748089,-24.6564884
4160,2.4324965,3.4643922,11.0180597,-24.6946564,15.8931293,-24.9465656
4170,2.1715298,3.2704628,10.8097658,-19.9083977,11.2290077,-24.2061062
4180,2.0015423,3.0765336,10.4482431,-16.9389305,6.9770994,-22.1221371
4190,1.7333932,2.9687948,10.2040358,-16.0000000,3.4503818,-19.3816795
4200,1.6352314,2.8083842,10.1417866,-16.4809170,-0.2748092,-17.1755733
4210,2.1140692,2.9376705,10.4195127,-16.9007626,-1.8549619,-15.7557249
4220,2.5976956,2.9807658,10.5990763,-17.7557259,3.8320611,-15.6641226
4230,3.2153964,3.0190730,10.6732969,-21.1984730,17.4732819,-18.3435116
4240,4.1730723,3.2010312,10.9821472,-23.9160309,32.7557259,-24.8778629
4250,4.6806402,3.5362179,11.0467901,-26.5267181,46.3740463,-36.5954208
4260,4.1371593,3.5314295,10.8121595,-28.8625946,53.0000000,-50.2366409
4270,2.5665710,3.4141142,10.8193426,-28.9770985,48.0152664,-57.7404594
4280,0.9648584,3.3949606,10.5440102,-27.0305347,30.3053436,-56.7251892
4290,-0.0718257,3.6583214,10.2447367,-25.2519093,10.9160309,-48.5190849
4300,-0.5865764,4.1371593,10.3692341,-24.8473282,-5.9389315,-34.5038185
4310,0.1915352,4.8338685,10.4362717,-26.8931293,-9.8549614,-20.4351139
4320,0.8978211,5.3677726,11.0635490,-30.9541988,-1.0152671,-10.8702288
4330,1.2282192,5.7436604,11.5854826,-32.3129768,8.3206110,-2.5419848
4340,2.0398495,6.2009506,11.6573086,-31.8549614,16.1221371,1.6870229
4350,2.6431851,6.8497758,11.8129311,-34.2061081,26.0076332,0.9541985
4360,2.4277081,7.4770536,12.1768475,-38.1832047,34.0076332,-1.9847329
4370,2.1020982,8.0085640,12.6437149,-42.6259537,33.9389305,-5.0916033
4380,2.1595588,8.0492649,13.6803989,-45.8320618,29.8778629,-8.6564884
4390,1.8842272,8.1905222,15.2557755,-44.0000000,23.0076332,-12.3816795
4400,1.6735384,8.2455883,17.0753593,-34.8091621,12.2366409,-13.7862597
4410,1.1827296,8.2384062,18.2844257,-17.2213745,1.4274809,-15.3969469
4420,0.1412572,8.4203644,18.5525742,5.6564884,-10.6717558,-14.0381680
4430,-1.0941446,8.5472565,18.1168308,30.2748089,-27.7480907,-6.6641221
4440,-1.5131277,8.8225880,16.6324348,50.9007645,-44.1526718,4.1603055
4450,-0.8714849,9.0931320,14.8200331,63.8167953,-62.7022896,12.6412210
4460,0.0646431,9.2942438,12.8496151,66.9847336,-73.5267181,16.3587780
4470,1.0773853,9.5791521,10.8887739,60.1297722,-73.2748108,17.0305347
4480,1.8387375,9.8975792,9.3277617,43.3206100,-62.4274826,13.3969469
4490,2.1116750,7.5704269,6.8330169,-16.6564884,-38.8091621,-13.8244276
4500,1.6950861,6.6582408,6.6582408,-23.6717548,-62.7557259,-26.1297703
4510,1.4053892,4.5729017,6.2584114,-21.1908398,-101.7938919,-37.5038185
4520,0.9193687,2.8371146,5.7340837,-12.0763359,-148.8396912,-42.2977104
4530,1.4221486,1.3838415,4.9511838,0.8015267,-188.7862549,-41.4045792
4540,3.0094962,-0.8068419,3.1723011,5.8091602,-195.9465637,-36.0839691
4550,4.5585365,-3.5194585,1.5394639,-7.5496182,-151.6564941,-26.7709923
4560,6.5935979,-6.1578555,0.6775556,-35.2977104,-63.3816795,-17.2442741
4570,8.3102312,-9.7228031,0.6009415,-62.1603050,32.3206100,-17.1450386
4580,8.7244263,-13.5822372,2.1954718,-69.8091583,77.1450348,-28.0763359
4590,8.3102312,-17.0202923,3.3327117,-55.6717567,48.5496178,-41.0228996
4600,7.9487090,-18.9883175,3.6583214,-37.6106873,-27.1679382,-47.6488533
4610,7.8289995,-19.0601425,3.6152260,-31.8320618,-111.9312973,-49.8854980
4620,7.9008250,-17.5661678,3.9839313,-44.3511467,-179.3053436,-50.3969460
4630,8.2192526,-14.6787758,5.7340837,-72.1221390,-208.1374054,-55.3740463
4640,8.5472565,-11.5136566,8.8393478,-108.9007645,-190.0686951,-72.3282471
4650,7.8936424,-9.2535419,13.4122496,-134.0915985,-128.9541931,-97.4885483
4660,4.7189474,-9.7180147,18.2437229,-134.9313049,-59.6106873,-114.1526718
4670,0.5722113,-10.9462337,19.6126022,-98.5343475,-14.8625956,-106.9389343
4680,-2.0302727,-10.7427282,19.6126022,-25.8778629,13.5725193,-78.0381699
4690,-2.8897867,-10.4171181,19.6126022,56.6106873,30.7938938,-39.7709923
4700,-1.7908537,-10.3093796,17.4009686,117.8778610,38.8931313,-3.6641221
4710,0.1532281,-9.6509781,11.7698355,153.3893127,46.6946564,21.9923668
4720,1.7309990,-9.0620070,7.2448173,163.6717529,58.8320618,39.7099228
4730,2.9137285,-8.6430235,4.8889351,160.0229034,72.3053436,51.1755714
4740,3.6535332,-7.8529415,3.2249732,150.7099304,85.6412201,59.4427490
4750,4.4962878,-7.4124107,2.5426292,140.9236603,91.7938919,65.2061081
4760,5.5425487,-7.0125809,2.4564383,134.3358765,91.0916061,66.9923630
4770,6.7109132,-6.4738884,2.4516499,128.6717529,89.9847336,63.4885483
4780,7.5776095,-5.8154860,2.2792683,121.5267181,96.3816757,53.4809151
4790,6.6773944,-4.0844874,2.0518203,112.1297684,109.1145020,42.5267181
4800,5.0014620,-1.9776005,1.7118455,99.4351120,115.9923630,35.7328262
4810,3.3470769,-1.3766589,1.8147956,83.7862625,115.3435135,33.1297722
4820,2.1475880,-1.0654143,2.9544299,72.5038147,108.2748108,36.7022896
4830,1.6041069,-0.6775556,3.8043671,66.9007645,95.5954208,43.3740463
4840,1.8004304,-0.4094064,4.3239059,62.8244286,83.4351120,51.1984749
4850,2.9687948,-0.0742199,4.4914994,56.2290077,82.0763321,57.0534363
4860,1.7740943,7.3238254,6.8258343,4.9389315,35.0305328,6.3511453
4870,1.2330076,7.7906923,7.1155310,0.3129771,27.4351139,0.3053435
4880,0.7852941,7.9582858,6.5768385,-4.2748094,6.0839696,-2.5954199
4890,1.1348459,7.9295554,6.5026188,-13.3129768,-20.6106873,-2.0152671
4900,2.3774302,7.8936424,7.1083484,-26.4351139,-33.2748108,-0.6183206
4910,4.1658897,7.7787213,8.2671366,-40.5496178,-27.4885502,-3.0229008
4920,5.1810260,7.8673067,9.9047613,-51.3435097,-9.6106873,-12.0000000
4930,5.2624283,7.5967631,11.2502966,-54.0228996,9.0992365,-25.2213745
4940,4.5154414,6.6726060,11.5735121,-50.2442741,27.4351139,-36.9847336
4950,3.5457945,5.9064655,10.7163916,-47.1984749,41.8549614,-44.2137413
4960,1.8746504,5.5066357,9.9933472,-51.5572510,46.6412201,-47.5190849
4970,0.0359128,5.5401545,10.2016411,-57.2442741,41.8778610,-44.6488533
4980,-1.4006008,5.8083038,10.8265247,-60.4045792,31.9007626,-33.4274826
4990,-2.0422437,6.1195483,11.4442253,-61.4503822,20.4809170,-16.5419846
5000,-1.7740943,6.4978304,12.2223368,-61.0228996,11.3740454,1.5343511
5010,-0.6488253,6.5385313,13.2398672,-58.3893127,8.8167934,17.8702297
5020,1.0079538,6.5241661,13.9365768,-51.9389305,12.8702288,29.2748089
5030,2.5426292,6.5169835,14.0060081,-44.8015251,24.5725193,33.6488533
5040,3.2321558,7.0125809,13.4170380,-41.8320618,36.8778610,32.9694672
5050,3.5553713,7.3717093,13.0986109,-42.5419846,43.0000000,27.2061062
5060,3.2441268,7.5009956,13.3667593,-41.5572510,42.2290077,19.0839691
5070,2.6288199,7.4890246,13.8839045,-35.3511467,31.6259537,11.5114508
5080,2.0470319,7.2639709,14.0993814,-25.0000000,13.3816795,6.8396945
5090,1.4389079,7.1682034,14.2933111,-11.0687027,-9.2671757,5.8244276
5100,2.3486998,7.1466556,13.8575687,18.7099228,-42.7022896,8.5343513
5110,3.5649481,7.5752153,12.8184900,27.4885502,-44.7328262,6.0458016
5120,5.3749552,8.3341732,11.3436699,28.5267181,-39.6641235,-5.4503818
5130,6.5361371,9.1266499,9.8137827,21.4045811,-29.8778629,-27.6564884
5140,6.0549049,9.2008705,8.6885138,8.5877867,-24.9007626,-53.4809151
5150,4.6136031,8.9087791,8.4275465,-2.2137403,-33.7099228,-74.8244247
5160,2.5162930,8.0827837,9.0548248,-7.1603055,-55.0458031,-87.1603088
5170,0.5051740,7.6207051,10.5727406,-3.6717558,-84.4885483,-87.8931274
5180,-0.4836263,7.4363523,12.2438850,6.5496182,-106.1603088,-76.7328262
5190,-0.5027798,7.3836803,13.2877512,16.9312973,-107.6870193,-59.0763359
5200,-0.3256098,7.8026633,13.5654774,23.6717548,-85.9389343,-39.6259537
5210,0.9457048,8.1570034,12.9166517,23.3587780,-52.1984749,-22.2824421
5220,2.0159075,8.8393478,11.8871508,14.3893127,-10.3435116,-12.0458012
5230,1.9919657,9.0787668,10.9510221,-1.2366412,28.7786255,-5.7786260
5240,1.2952565,8.9422979,10.3021975,-17.4427490,49.0610695,-0.1679389
5250,1.2330076,8.9327211,10.4314833,-28.1526718,43.8778610,1.4122137
5260,1.4269369,9.0644016,11.6716738,-28.5801525,13.9770994,-4.8778625
5270,1.7381816,9.3205795,13.3691540,-15.4961834,-30.3587780,-16.8244267
5280,2.3534882,9.6366129,14.6524391,10.3358774,-76.5190811,-32.5877876
5290,2.8419030,9.6461897,14.0682573,39.5572510,-115.4809189,-48.8702278
5300,3.2225790,8.9734221,11.7387114,57.2900772,-137.1832123,-61.9236641
5310,3.1220231,8.1019373,9.1194677,57.6106873,-138.7022858,-68.8854980
5320,2.3343346,7.5153608,7.1107426,48.4427490,-128.2061005,-68.9847336
5330,1.1396341,6.2919297,5.8466105,35.9083977,-115.6488571,-60.5648842
5340,0.3663110,4.8314743,4.9009056,27.3206100,-112.0916061,-46.5419846
5350,-0.0574605,3.2417326,4.2089849,23.9312973,-112.7251892,-29.5648861
5360,0.1508339,0.9744351,3.7062054,26.3740463,-114.2061081,-9.0763359
5370,0.6296718,-1.2114599,3.4356618,36.8549614,-118.0152664,10.0916033
5380,1.3886299,-3.5745249,2.9448531,53.0916023,-131.0992432,27.2595425
5390,2.8442972,-6.0142040,1.8818330,69.2061081,-144.2061005,41.7480927
5400,4.8697815,-8.3461447,0.1412572,76.5877838,-142.8320618,52.7175560
5410,6.4810710,-10.2423429,-1.9919657,65.4885483,-123.2900772,59.4122124
5420,7.5321202,-11.5543585,-3.8929520,29.4503822,-97.2366409,64.7175598
5430,8.6142941,-13.5535069,-6.1003947,-31.6259537,-68.4198456,62.6488533
5440,9.6294298,-14.3699255,-6.5552907,-116.6335907,-48.2595406,54.2290077
5450,10.2351599,-14.1281118,-3.4667864,-209.9389343,-49.0076332,36.1297722
5460,9.8449068,-13.8910875,4.1036406,-250.1374054,-74.5954208,10.8396950
5470,9.4163475,-14.3651371,13.1393118,-250.1374054,-110.4885483,-9.7633591
5480,8.6956959,-13.8551741,19.6126022,-246.3282471,-143.3282471,-23.9083977
5490,9.6916790,-12.0284081,19.6126022,-145.1145020,-151.2824402,-37.5954208
5500,8.7340031,-9.7850523,19.6126022,-20.3969460,-112.6335907,-48.6030540
5510,8.2695303,-8.8513184,19.6126022,80.5801544,-41.0687027,-55.3435097
5520,6.6223278,-8.0636301,19.3713875,138.6030579,35.6183205,-55.6564903
5530,4.7883787,-7.9295554,12.5335817,163.2366486,103.2900772,-43.9465637
5540,3.1483591,-7.4890246,6.6678176,160.1374054,145.9084015,-20.7862587
5550,2.2313845,-6.3853035,2.4827745,135.9847260,161.0076294,5.9541984
5560,2.2553265,-5.6694407,1.2545552,106.9389343,147.5572510,28.4885502
5570,3.3877780,-4.6926112,1.9991482,84.0839691,124.4045792,41.6335869
5580,5.0517397,-3.9216824,3.4931223,73.6259537,108.4885483,44.5877876
5590,6.1099715,-3.3973548,4.5585365,68.9694672,96.2977066,38.5648842
5600,5.6742291,-2.4947455,5.3965030,66.5496216,93.6641235,28.8167934
5610,4.3047528,-0.9600700,5.7699966,67.0381699,89.7709961,24.4961834
5620,3.4739690,-0.2968795,5.8346395,67.0076370,82.1679382,25.6793900
5630,3.3566537,5.9974446,6.4738884,27.9694653,55.6717567,7.0610685
5640,2.7197993,5.5210009,6.2584114,23.0916023,35.6641235,1.1832061
5650,2.2696917,5.2121506,6.3613615,18.6030540,14.4885492,1.1755725
5660,2.4540441,5.1475072,6.7971039,13.9007635,-4.9618320,5.2671757
5670,2.9759774,5.1977854,7.1993275,9.3893127,-17.4961834,9.1297712
5680,4.4148855,5.5162125,7.7978749,-0.7022901,-11.5572519,14.0534353
5690,4.3263001,5.6790175,8.3724804,-39.0305328,65.6717529,-3.9465649
5700,3.4189026,5.2169390,8.3317795,-43.7251892,64.7862625,-6.7938933
5710,2.4372849,5.2217274,8.4514885,-46.3740463,50.2290077,-7.3664122
5720,2.0446377,5.1403246,8.9494801,-46.3282433,30.2290077,-3.1984732
5730,3.2321558,5.6431046,10.0795374,-41.6717567,-5.3511453,15.4732828
5740,4.0198441,5.8825235,10.3740225,-42.2061081,-3.4961832,16.3969460
5750,4.6183915,6.2440462,10.8791971,-40.4732819,5.6870227,14.5267172
5760,4.7668314,6.0525107,10.9390516,-36.7480927,16.2519093,10.7175570
5770,4.5465660,6.0860295,10.7475166,-34.4656487,22.8549614,6.7404580
5780,3.7971845,6.5576849,10.4793673,-32.6335869,26.2900772,3.7480917
5790,2.7341642,7.1131368,10.5296450,-28.9847336,18.9694653,1.5419847
5800,2.1427996,7.7188668,10.7259684,-22.8702297,-4.4198475,1.3740458
5810,2.3032103,7.9726510,10.6182299,-17.3893127,-32.4961815,1.5038168
5820,3.0454090,7.8313937,10.5033092,-14.2748089,-56.3435097,-0.4122137
5830,3.9504125,7.9750452,10.8504667,-12.5725193,-76.7175598,-5.2061067
5840,5.1451130,7.9654684,11.4011297,-9.9847326,-90.7328262,-13.8931293
5850,6.2512288,8.0779953,11.9613705,-7.0534353,-92.5725174,-24.9694653
5860,6.5744443,8.0612354,12.2510672,-5.9847326,-84.4503784,-36.3511467
5870,6.1147599,7.8050575,12.5599174,-6.1068702,-68.9083939,-43.6335869
5880,5.0972295,7.5033898,13.0770626,-3.6641221,-56.4274826,-43.9923668
5890,4.0078731,7.6422529,13.0339670,2.2442749,-50.0992355,-37.1603050
5900,3.0573800,7.9918046,12.8160963,8.3053436,-48.5801544,-23.6030540
5910,2.5546002,8.7363977,12.5144281,10.9923668,-48.5114517,-4.8244276
5920,3.0118904,9.7299862,11.8033543,7.9312978,-45.1984749,13.0534353
5930,4.1299767,10.8935623,11.7794123,0.9541985,-42.4885483,24.6106873
5940,6.1099715,12.4689388,12.5814657,-3.7175572,-41.2442741,25.5343513
5950,7.2543941,13.8072910,13.5391417,-2.2519083,-36.2900772,14.0534353
5960,6.7420373,15.4856176,14.1472654,5.4274807,-34.6030540,-1.4732825
5970,5.6502872,17.2166157,13.9222116,16.7633591,-38.5725174,-14.4503813
5980,4.9056940,18.1168308,12.2343082,22.1908398,-37.3587799,-26.2290077
5990,3.9121056,18.2054157,10.2375546,19.7175579,-31.0916023,-37.1679382
6000,2.9041519,17.7864342,7.4171991,11.3206110,-29.4503822,-44.6946564
6010,2.6910689,16.0530396,3.9360476,-4.3587785,-43.9007645,-52.7404594
6020,2.5306582,14.2406387,1.3048333,-24.3206100,-76.0305328,-62.4885483
6030,3.1244173,11.9948893,-0.1460456,-44.6412201,-119.2824402,-71.6793900
6040,4.0509686,9.2463598,-1.1420283,-63.6259537,-153.9694672,-80.3587799
6050,4.8290801,5.6574697,-1.4436963,-83.9236679,-174.4351196,-85.6335907
6060,5.1858144,1.3790531,-1.5322813,-102.5419846,-176.5419922,-84.5038147
6070,5.1546898,-3.2560976,-1.3120158,-117.1832047,-162.0000000,-73.5648880
6080,5.3629842,-7.5632443,-0.5793939,-125.3435135,-134.8091583,-54.4580154
6090,5.7747850,-11.5735121,0.2059003,-125.4503784,-104.5877838,-31.7557259
6100,6.5433197,-15.2414103,0.9816177,-119.3511429,-67.5801544,-3.2824428
6110,9.0931320,-19.6131992,0.5003856,-119.0229034,-18.7099228,27.5648861
6120,11.9877062,-19.6131992,-0.5219333,-148.0000000,39.4274826,50.1526718
6130,13.7187052,-19.6131992,0.7350162,-194.8625946,76.9694672,50.5648842
6140,14.4393568,-19.6131992,6.1865854,-229.6183167,63.2977104,28.8778629
6150,12.8879223,-19.6131992,13.7761660,-232.9313049,18.3740463,-1.5419847
6160,10.4003592,-19.6131992,19.6126022,-193.3816833,-25.6335869,-27.4351139
6170,8.4467001,-19.6131992,19.6126022,-89.7709961,-49.0305328,-44.7938919
6180,6.4523406,-18.7441101,19.6126022,70.9694672,-28.7480907,-49.3587799
6190,5.4443870,-18.2628765,19.6126022,238.7175598,19.4961834,-37.7404594
6200,5.0708933,-19.3282909,14.6404686,250.1297760,44.2442741,-15.4274807
6210,5.5090299,-18.2437229,1.0893562,250.1297760,52.3816795,3.8702290
6220,6.3565731,-15.5550489,-9.5743637,250.1297760,67.4732819,20.4503822
6230,6.6031747,-11.8392668,-13.8886929,228.5419922,93.1068726,32.8091621
6240,5.8513989,-7.9487090,-10.9270811,127.7404556,118.1068726,41.5954208
6250,5.4060798,-5.1211715,-4.2113791,73.7709961,126.2824402,44.6946564
6260,5.2504573,-3.3949606,1.9105632,65.4351120,123.1374054,43.1755714
6270,5.0637107,-2.0685797,5.3486195,85.5114517,117.0381699,40.7251892
6280,4.3430595,-1.0318956,5.3174949,113.2595444,103.7404556,39.3969460
6290,3.0885043,0.6272776,2.8083842,128.2519073,86.6564865,43.7175560
6300,2.1595588,4.4507980,-0.1412572,117.6564865,61.4198456,51.8778610
6310,2.5378408,7.7356262,-1.2761030,86.7862625,26.0381680,54.4580154
6320,4.4819226,11.5016861,3.2704628,27.1374054,-7.0000000,47.0534363
6330,6.6965480,12.4593620,7.3429790,18.4885502,34.8473282,44.7022896
6340,7.9630742,13.1417055,7.4531116,16.9160309,57.3587799,36.1145020
6350,5.6622581,14.8391867,6.4858594,10.5267172,71.0152664,29.9312973
6360,2.7365584,16.8550930,6.0956063,-3.8244274,67.4274826,38.1984749
6370,2.4277081,18.1264076,6.8282285,-18.3740463,54.5801544,48.8167953
6380,3.5721307,18.4424419,8.3006544,-29.3893127,44.1297722,54.4045792
6390,5.1115947,18.2987900,9.9813757,-33.9923668,37.2213745,55.4961815
6400,6.1913738,18.8231182,11.2311430,-32.4961815,30.9007626,52.0992355
6410,6.7300668,19.2971668,12.4593620,-26.2519093,20.9236641,44.1832047
6420,6.6199336,19.6126022,13.4816809,-14.8167934,6.0763359,33.8167953
6430,6.4547348,19.6126022,13.6588507,-1.3969465,-11.7786255,24.0992374
6440,6.0716643,19.5509510,13.2302914,12.8854961,-30.7862587,15.6106873
6450,5.6694407,18.8733959,12.2750092,27.5190830,-48.7786255,11.8320608
6460,5.9136481,18.3155499,10.3285332,37.8473282,-60.9083977,11.2290077
6470,6.2991123,17.6044750,8.0564480,37.5038185,-66.2442780,10.4198475
6480,6.8066807,17.4320927,6.8354111,25.0534344,-58.3053436,9.4580154
6490,6.8904772,17.2932301,6.9192076,10.9770994,-42.8625946,5.8015265
6500,4.9224534,17.1304264,6.5121951,7.8244276,-41.2977104,-2.3358779
6510,5.5090299,16.3427372,4.0270267,1.7786260,-54.4045792,-7.6641221
6520,4.4795284,15.1743727,1.7836711,-10.2824430,-77.8778610,-16.2748089
6530,2.8442972,13.2949343,0.1077385,-23.5801525,-114.5801544,-17.3740463
6540,2.0566087,11.5519638,-0.8547257,-38.2824440,-158.2366486,-9.3053436
6550,3.7516949,8.3533268,-0.6081241,-59.5038185,-164.6259613,8.6641226
6560,5.5664907,3.9025288,-0.2082945,-96.9312973,-103.2442780,24.6870232
6570,4.3215117,0.5937590,0.2585725,-142.8702240,-0.9465649,35.5954208
6580,2.5426292,-2.9185169,0.9888002,-168.6793823,64.1679382,48.4045792
6590,1.3742647,-7.0987716,0.9409165,-170.4809113,72.8854980,62.5572510
6600,2.3965836,-11.0324249,-0.4429250,-166.1832123,33.6793900,75.8091583
6610,5.6766233,-14.7649660,-0.7350162,-163.7480927,-15.8015270,80.5801544
6620,9.8377247,-18.4999027,0.4836263,-161.3435059,-55.3893127,71.2595444
6630,13.9988260,-19.6131992,2.1212518,-161.6564941,-83.4656525,46.0152664
6640,17.7241840,-19.6131992,3.4691806,-174.5572510,-86.5648880,7.3664122
6650,19.3187141,-19.6131992,5.3342543,-216.0610657,-61.2748108,-43.4351158
6660,16.5845509,-19.6131992,12.6461086,-250.1374054,-42.8702278,-95.0992355
6670,12.7466650,-19.6131992,19.6126022,-241.1297760,-51.0458031,-131.8702240
6680,8.2815018,-19.6131992,19.6126022,-152.0229034,-74.2290039,-151.3358765
6690,4.7189474,-19.6131992,19.6126022,6.5419846,-60.0610695,-152.0763397
6700,0.9935886,-19.6131992,19.6126022,185.8702240,-2.3664122,-129.2595367
6710,-2.0997043,-19.6131992,19.6126022,250.1297760,53.9541969,-84.8625946
6720,-2.8131726,-19.6131992,4.4627690,250.1297760,89.4580154,-31.9541988
6730,-2.1092808,-16.5893383,-6.8162575,250.1297760,105.5648880,16.9770985
6740,-0.2561783,-13.0698805,-11.1928358,212.9923706,94.7251892,55.3816795
6750,2.7245877,-9.6006994,-7.9702568,145.4427490,81.9389343,72.0763321
6760,5.3845320,-6.6247220,-0.9768293,119.2137375,67.0000000,68.0916061
6770,6.9383612,-4.6926112,4.3550305,134.2595367,47.6488533,50.0687027
6780,6.9790621,-3.7133877,4.8554163,161.4274750,32.3129768,31.3435116
6790,6.3158717,-2.7676830,3.1028695,178.2595367,32.5801544,16.5114498
6800,4.5681133,-1.3622938,0.3232156,175.1145020,44.9923668,13.5572519
6810,2.9256995,-0.0359128,-1.2162483,152.5419922,59.6641235,22.7709923
6820,2.4660151,1.6256547,-1.3000449,123.2671738,66.8625946,37.4580154
6830,3.2201848,3.3566537,-0.0933734,100.5648880,65.8091583,48.9083977
6840,6.2368636,10.9055328,3.8785870,31.6564884,78.8854980,39.5954208
6850,6.3733325,11.9350348,5.0780759,19.4961834,76.2595444,30.3969460
6860,6.0620875,12.1313581,5.8370337,14.4198475,65.5877838,19.1832066
6870,5.6191626,11.7075863,5.4922705,13.6412210,45.4580154,10.7938929
6880,5.7915444,10.8576488,4.8865409,8.6259546,29.4885502,4.6641221
6890,5.6933827,10.5775290,4.6064205,-1.8396946,22.9618320,-0.0687023
6900,6.1315193,10.4745789,4.8266859,-13.5267172,22.2290077,-3.4732823
6910,6.0812411,10.4482431,5.4802995,-24.4732819,24.6488552,-6.5038166
6920,5.8537931,10.4482431,6.3134775,-32.5038185,26.6793900,-8.6030531
6930,5.5904322,10.1824875,7.2639709,-36.6259537,28.3969460,-8.6793890
6940,5.8585815,9.6773138,7.7763271,-38.6259537,29.5267181,-8.0076332
6950,5.9902620,9.0883436,8.1426382,-41.5190849,31.0763359,-9.5725193
6960,5.6814117,8.5640154,8.7699156,-42.4885483,30.7938938,-12.2977095
6970,5.0421629,7.8720951,9.1458035,-39.4885483,28.5801525,-11.7633591
6980,4.2233500,6.7492199,8.7172441,-36.3129768,23.0076332,-4.4656487
6990,4.2975702,7.0221577,8.5520449,-46.2137413,21.1603050,14.7786255
7000,5.0900469,7.4914188,9.7395630,-50.7862587,21.3740463,19.8473282
7010,5.9471664,8.0277176,11.3532467,-47.4961815,18.0610695,20.0381680
7020,6.8162575,8.7124557,12.3181047,-36.1526718,9.8854961,15.6488552
7030,7.0149751,8.9446917,12.4210548,-20.6335869,-2.2748091,10.1297712
7040,7.1849627,9.6916790,11.5591469,-5.7404580,-15.4809160,4.6488547
7050,7.4411407,10.8193426,10.1226330,-0.4503817,-25.0152664,0.3587786
7060,7.4459291,11.9350348,9.3397331,-3.0152671,-26.8015270,-4.3587785
7070,7.0341287,12.8711624,9.5025377,-7.7862597,-28.4732819,-7.4656487
7080,7.0748301,13.4385853,10.2279778,-8.8244276,-33.8931313,-10.1221371
7090,6.9623032,14.1065645,11.1162214,-5.1068702,-43.3664131,-10.9389315
7100,7.1705976,14.7314482,11.6573086,1.0916030,-58.7175560,-10.1603050
7110,7.8002691,15.5813847,13.1297350,11.2061071,-80.4274826,-9.6106873
7120,8.9231443,17.1088772,14.5542774,30.9389305,-101.5496216,-8.5419846
7130,10.1681223,18.9691639,14.4154148,53.0152664,-107.0229034,-8.6564884
7140,10.8480721,19.6126022,12.2127600,68.5038147,-92.2900772,-9.2137403
7150,11.6956158,19.6126022,8.6406298,69.3587799,-68.8549652,-13.6106873
7160,12.3899307,19.6126022,4.2137733,52.2519073,-37.4809151,-28.7099228
7170,11.2167778,19.6126022,0.6584021,21.4656487,-17.7328243,-51.4580154
7180,9.1865053,17.8702297,-1.6591733,-11.0916033,-20.1221371,-75.3282471
7190,6.6702118,14.1664190,-2.8849983,-38.9236641,-45.9236641,-97.6106873
7200,3.6248028,9.7922344,-2.5713594,-58.2671738,-94.0000000,-111.0534363
7210,1.0654143,5.0732875,-2.0278785,-68.9389343,-142.6946564,-109.7786255
7220,-1.3191984,0.1149211,-1.3287752,-75.2824402,-174.9541931,-88.9007645
7230,-2.3247581,-4.9870968,-0.5650287,-79.5648880,-174.8320618,-50.7175560
7240,-1.9368993,-10.0603838,-0.2082945,-86.4198456,-123.9312973,0.6412213
7250,-0.3974355,-14.7314482,0.0574605,-98.8091583,-36.5725174,56.2671738
7260,1.9680238,-18.4041348,-0.9600700,-124.6030502,67.7557220,103.1526718
7270,4.5274124,-19.6131992,-1.9273225,-171.9236603,151.8854980,132.1832123
7280,7.5369086,-19.6131992,-0.3327923,-221.1984711,159.3435059,133.8015289
7290,12.9573536,-19.6131992,3.8378856,-247.4045868,90.2671738,103.5572510
7300,18.3897686,-19.6131992,8.9303265,-250.1374054,-42.3816795,34.2213745
7310,19.4120884,-19.6131992,16.0314922,-242.6106873,-215.9923706,-53.8320618
7320,18.3035774,-19.6131992,19.6126022,-201.4732819,-250.1374054,-125.9160309
7330,18.0210648,-17.5134964,19.6126022,-134.9236603,-250.1374054,-183.0686951
7340,14.8008795,-15.9764261,19.6126022,-66.1526718,-197.4045868,-230.9923706
7350,6.9407554,-16.1703548,19.6126022,8.1450386,-10.4274807,-247.5801544
7360,-0.8523315,-17.1471844,19.6126022,97.9542007,134.1145020,-216.0458069
7370,-6.2919297,-17.2956238,16.2685165,180.1603088,205.6412201,-144.3358765
7380,-7.9008250,-15.8231983,3.7900019,218.5190887,183.5038147,-58.9007645
7390,-5.9423780,-12.0475616,-5.2863703,204.1526642,94.3587799,13.4198475
7400,-0.0766141,-7.5033898,-7.1873569,160.6030579,8.2748089,52.2671738
7410,5.4419928,-4.0413918,-4.7644372,119.9389343,-23.9541988,53.1908379
7420,8.1330614,-1.7693061,-0.2513899,103.4503784,-19.8702297,32.6259537
7430,8.0923605,-0.6105183,2.8538737,109.0916061,-11.3969469,8.5648851
7440,6.6342988,-0.3591284,3.9073172,121.3129807,1.6870229,-7.4045801
7450,4.4986820,-0.7374104,3.0549858,127.1450348,24.4580154,-7.5877862
7460,2.2050486,-0.8283895,1.1468167,120.5725174,48.8931313,10.0610685
7470,1.3646880,-0.0311245,0.0000000,102.7786255,74.0381699,40.7709923
7480,1.3982066,2.0039365,-0.2298422,80.4427490,94.3511429,73.1908417
7490,2.4037662,4.2520804,0.4548960,55.5343513,113.8549652,101.9236679
7500,4.2808108,5.9040713,1.5825592,32.1297722,132.8473358,121.0916061
7510,5.9998388,6.9000540,2.9017577,12.5877867,152.2213745,128.7022858
7520,7.5919747,7.4794478,4.1611013,1.3587786,161.5114441,124.8778610
7530,8.8249826,7.0748301,4.8506279,-2.9236641,155.7099304,109.2366409
7540,8.9375095,6.6199336,5.3701668,-3.2900763,138.5725250,88.6259537
7550,8.0061693,6.4571290,5.6957769,-1.3206106,115.4809189,69.9465637
7560,6.9718795,6.6079631,5.9447722,1.9236641,86.5114517,56.1297722
7570,6.0381460,7.4818420,6.2919297,3.9160306,57.6564903,46.8854980
7580,5.6885943,7.9774394,6.3781209,2.5877862,30.5572510,40.3816795
7590,6.7180958,8.0660238,7.2160869,-7.0076337,6.5954199,30.8702297
7600,7.9175844,8.0756006,7.5680327,-12.8854961,12.8625956,22.3740463
7610,8.0851774,7.8457589,7.3501616,-20.2900772,27.3511448,11.9618320
7620,5.0589223,7.9463148,7.5847921,-58.4732819,59.9465637,12.7786255
7630,4.2401094,8.2455883,8.8441362,-63.0381660,51.2595406,19.0534344
7640,4.4029145,8.7411861,10.0460186,-59.0610695,36.6030540,28.3129768
7650,6.1602492,9.3636751,10.8217363,-51.7404594,26.1908398,35.2595406
7660,7.9127960,10.6876621,10.3931761,-48.5954208,29.8396950,36.0076332
7670,9.4187412,12.0858688,9.7874460,-55.7404594,38.6793900,29.7480907
7680,10.0172882,12.7322998,10.1346035,-68.4045792,47.7709923,19.0458012
7690,9.4666252,13.2829628,11.8009596,-74.1984711,46.8396950,8.2366409
7700,8.9949694,13.8240499,13.3069048,-69.7480927,33.0992355,-0.7633588
7710,8.8728657,14.6069498,14.7577839,-60.2442741,13.9389315,-8.7557249
7720,8.8489246,15.1791611,15.8974180,-47.2748108,-4.1374044,-16.5267181
7730,8.9159613,15.5382900,16.3164005,-31.1221371,-18.1450386,-21.4274807
7740,8.3964224,16.4839935,16.1128960,-12.7099237,-26.8625946,-22.5190830
7750,8.1402445,18.5597572,14.8894644,7.2748094,-28.8625946,-20.6717548
7760,9.4378948,19.6126022,11.1952295,19.2671757,-23.2900772,-27.1603050
7770,11.1449518,19.6126022,5.7316895,4.6106873,-12.3664122,-48.7938919
7780,11.5016861,19.6126022,2.2098370,-31.1984730,-0.6870229,-75.1755753
7790,11.1401634,18.1647148,1.5250987,-68.2061081,-11.0610685,-103.7862625
7800,9.5647869,13.4864693,3.4093258,-87.5725174,-54.3587799,-129.7709961
7810,7.6183109,8.4203644,7.4938130,-77.5801544,-128.5343475,-151.8854980
7820,4.8338685,2.8826041,10.7858238,-37.1526718,-189.7328186,-160.2290039
7830,4.0342093,-2.0949159,12.0858688,18.2595425,-213.6106873,-146.0839691
7840,3.9001346,-6.6031747,9.7922344,62.2519073,-167.6946564,-118.5267181
7850,3.4907281,-10.6852674,5.7699966,71.1374054,-62.7709923,-75.7251892
7860,6.5505023,-14.5279417,2.4301023,52.7251892,61.2900772,-34.9236641
7870,13.9677010,-17.8989601,-1.0055596,17.3893127,137.0915985,-25.4580154
7880,19.3642044,-19.6131992,-4.8889351,-56.3969460,140.6870270,-66.2442780
7890,17.8391056,-19.6131992,-2.8826041,-177.9541931,76.5954208,-131.6793823
7900,12.9022865,-19.6131992,10.6278067,-250.1374054,3.8625953,-176.1603088
7910,5.6694407,-19.6131992,19.6126022,-224.6183167,-42.1984749,-183.4656525
7920,0.2896969,-19.6131992,19.6126022,-112.2519073,-37.3053436,-161.5648804
7930,-3.9432299,-19.6131992,19.6126022,19.5877857,43.5267181,-115.9083939
7940,-6.2344694,-19.6131992,19.6126022,131.4427490,138.5114441,-49.6412201
7950,-5.2360926,-17.4895535,14.0802279,195.0076294,190.8396912,19.0000000
7960,-2.6192431,-13.9126348,2.0398495,202.5954132,192.6412201,73.6793900
7970,0.4548960,-10.4075413,-5.9256191,168.1526642,142.1221313,108.1603088
7980,4.1227942,-6.7492199,-8.5927458,111.0305328,75.5954208,119.5038147
7990,7.4770536,-4.0294209,-5.7939386,58.4198456,41.0076332,110.2977066
8000,7.7308378,-1.7214222,-0.8643024,26.2519093,46.1374054,92.6030502
8010,6.3876977,-0.5674229,3.8761928,19.7633591,60.4656487,78.0152664
8020,5.1235652,6.9766679,5.1786318,-27.4045811,40.5114517,87.7099228
8030,4.8147149,7.7021074,7.7859039,-32.2748108,35.5343513,84.4580154
8040,5.0565281,7.8433647,9.6342182,-22.6335869,24.5419846,79.1526718
8050,5.3486195,7.2663651,10.3812056,-6.1832061,12.2061071,71.7709961
8060,5.6909885,6.7659793,10.1920643,10.1297712,-1.9083970,62.9694672
8070,6.0932121,6.7133074,9.1338329,19.9312973,-12.1755724,51.1450386
8080,6.5241661,6.6342988,7.6733770,18.8778629,-16.4274807,37.9160309
8090,5.3366485,7.4124107,7.1538382,-7.5877862,-16.6641216,11.1526718
8100,4.0102673,7.8577299,8.5735922,-17.1755733,-20.2671757,6.5114503
8110,3.1052637,7.9032192,9.7802639,-15.9923668,-29.6106873,7.6870227
8120,3.2967989,7.6781654,10.0603838,-10.7328243,-39.7709923,12.2137403
8130,4.1515245,7.7356262,9.8856087,-9.6870232,-39.1068687,16.3129768
8140,5.7628140,7.7068958,9.7539282,-13.8625956,-25.7709923,17.3435116
8150,6.8162575,8.0660238,9.4378948,-25.6564884,-2.0229008,12.9847326
8160,6.1027889,8.9399033,11.2239599,-48.2671738,31.9312973,-0.0916031
8170,5.2528515,9.1290445,12.3228931,-44.5343513,24.0229015,-3.4045801
8180,5.1618724,9.4402885,13.1560707,-34.0152664,2.3053436,-5.5114503
8190,5.8753409,10.0196829,13.6444855,-21.3129768,-17.5877857,-10.4885492
8200,6.0261750,10.9318695,14.3627424,-6.4198475,-30.8931293,-18.9770985
8210,5.7269011,11.9254580,14.4202032,11.3206110,-44.3587799,-26.8091602
8220,5.6478930,13.2302914,13.7091284,28.4122143,-57.1832047,-33.8244286
8230,4.8745699,14.9181948,12.6461086,41.5114517,-72.5496216,-39.8320618
8240,4.6710634,16.5701847,11.3843708,50.1526718,-92.1603088,-41.9007645
8250,5.4060798,18.0282459,10.0915089,51.5801544,-102.6335907,-41.2595406
8260,6.5528965,18.9260674,9.0260944,45.3969460,-94.1374054,-42.1832047
8270,7.3070664,19.3163204,7.8002691,33.7328262,-73.7404556,-46.1221390
8280,8.2599535,19.2157650,6.1746144,15.9541988,-50.7404594,-55.5267181
8290,8.4443064,18.7584743,4.8195033,-9.9923668,-30.8931293,-72.5801544
8300,7.1682034,17.1184540,4.4460096,-35.9389305,-15.0916033,-88.8625946
8310,5.7340837,15.2007084,4.5010762,-55.5038185,-7.4198475,-97.1297684
8320,4.6040263,12.2127600,4.6543045,-65.3740463,-6.2900763,-99.8854980
8330,3.4763632,9.0883436,4.3334827,-64.5190811,-11.2824430,-98.1984711
8340,2.3223639,5.8609757,3.6008608,-56.5496178,-23.1526718,-90.9618301
8350,2.1164634,1.8961980,2.9041519,-43.7862587,-35.6793900,-76.8702316
8360,2.8778157,-0.1651991,1.4077834,-33.4656487,-36.7938919,-61.6564903
8370,6.1243367,-7.9056134,-0.1268920,-36.9847336,14.6793890,-46.8244286
8380,8.4897957,-15.4688578,-2.0781565,-77.0610657,160.7786255,-35.0000000
8390,7.6709828,-19.6131992,-4.5369892,-146.3282471,250.1297760,-32.0000000
8400,9.0931320,-19.6131992,-3.5793133,-225.3435059,250.1297760,-48.7557259
8410,7.1634150,-19.6131992,2.9544299,-250.1374054,250.1297760,-99.5190811
8420,1.6567791,-19.6131992,12.7682123,-250.1374054,141.3740387,-145.8931274
8430,-3.7708483,-19.6131992,19.6126022,-232.3053436,-17.6488552,-159.8702240
8440,-7.3429790,-19.6131992,19.6126022,-123.1984711,-170.2366486,-146.3358765
8450,-8.8201942,-19.6131992,19.6126022,3.1603053,-250.1374054,-109.5954208
8460,-6.0692701,-19.6131992,19.6126022,115.5725174,-250.1374054,-59.8396950
8470,-0.4788379,-16.8072090,19.6126022,194.8549652,-216.7404633,-18.5419846
8480,3.1890604,-13.6684275,18.0569763,227.2137451,-70.5572510,4.9770994
8490,4.5202298,-11.4346485,10.2998028,225.0229034,64.8778610,20.9770985
8500,3.1699069,-9.7060442,3.9456241,202.4656525,150.3893127,42.1297722
8510,1.2952565,-8.0301113,0.0023942,172.4656525,172.1984711,72.3969498
8520,0.7996593,-6.5265603,-1.2928623,146.2137451,143.4503784,102.6488571
8530,2.2984219,-4.7237358,-1.0127422,129.0763397,99.2213745,126.5648880
8540,4.3861551,-2.5976956,-0.3926471,115.0992355,72.4809189,138.2442780
8550,6.6893654,-0.9768293,0.8140244,101.0916061,74.6717529,137.7404633
8560,8.3030491,1.0462608,1.8028246,85.9618301,94.1145020,129.0152740
8570,8.2024927,3.0071020,1.8866212,72.8320618,116.8167953,116.6030502
8580,7.2400289,4.6854286,1.4341195,57.1526718,128.0992432,102.9007645
8590,5.9280128,5.5688848,1.8171898,41.1068687,123.2290039,94.0687027
8600,4.8649931,6.2105274,2.6144550,27.7557259,104.5419846,88.6335907
8610,6.3517847,7.7236552,6.6558466,6.4809160,11.0763359,79.1526718
8620,7.1945391,7.9343438,7.3453732,2.6412213,15.9847326,68.8854980
8630,3.3949606,6.6199336,8.2240410,-8.1526718,1.1068702,21.9694653
8640,3.7540891,7.0197635,8.6717539,-8.5038166,-13.0229006,20.8396950
8650,4.0006905,7.3262196,8.9518747,-11.1603050,-26.2671757,18.1297703
8660,4.2496862,7.8026633,9.3660688,-14.6488552,-34.3511467,16.4274807
8670,4.9487896,8.2216463,10.0077124,-17.2748089,-36.8167953,14.4045801
8680,5.5018473,8.6813307,10.2543135,-19.6412220,-31.8244267,10.9083967
8690,5.4898763,9.3110027,10.3668404,-22.8931293,-21.7557259,6.9694657
8700,4.5896611,9.8018112,10.4458485,-26.5419846,-15.3358774,5.6335878
8710,3.6774750,10.3405046,10.8576488,-29.0534344,-16.6335869,9.4045801
8720,3.0861101,11.1473465,11.4154949,-29.2519093,-24.1832066,16.6870232
8730,3.7133877,12.1169930,11.7171631,-28.0229015,-34.0228996,23.2519093
8740,4.6064205,12.9884777,12.0355902,-28.4122143,-40.0228996,25.5190830
8750,6.1147599,13.8479919,12.4761209,-29.9541988,-39.0152664,21.9618320
8760,7.5153608,14.8080616,12.9094696,-31.7557259,-29.2366409,11.4045801
8770,7.7739329,15.3084478,12.9525652,-33.0839691,-17.2824421,-2.6030533
8780,7.8649125,15.5861731,12.9214401,-35.0458031,-5.5419846,-13.6030531
8790,7.4411407,15.7896795,13.5271702,-33.5038185,4.0839696,-24.0763359
8800,6.2536230,16.4624462,14.4848461,-23.5725193,7.4503818,-32.7480927
8810,5.4228392,17.3291435,15.0091734,-5.4045801,3.9312978,-37.4732819
8820,4.8937230,17.5374374,14.6332855,16.8244267,-4.9083967,-43.3969460
8830,5.9758968,17.4320927,13.0459385,39.5496178,-8.0152674,-50.1984749
8840,8.5424681,17.2070389,9.9215212,55.2595406,4.2824426,-64.6030502
8850,11.9972830,14.9900198,6.8018923,60.6259537,15.7099237,-99.4198456
8860,11.3963413,13.6492739,3.6990228,61.4503822,11.2442751,-144.5343475
8870,9.5504217,10.4290895,2.0254843,66.8015289,-26.2900772,-185.3664093
8880,6.7276726,5.5593081,1.1013272,78.6030502,-93.1221390,-213.7480927
8890,3.3662305,-0.0095768,-0.0311245,86.3129807,-170.6717529,-223.0381622
8900,0.1891410,-5.2241216,-0.6488253,83.5038147,-230.9389343,-205.1526642
8910,-1.7166338,-9.4450769,-1.9249283,60.6564903,-249.9694672,-159.7557220
8920,-2.9089401,-13.8288383,-4.5729017,-3.7099237,-189.1450348,-95.6641235
8930,-2.4971397,-17.1830978,-6.2272868,-103.8320618,-79.4351120,-22.6564884
8940,-0.4812321,-19.6131992,-4.3885493,-211.3129730,27.4656487,31.4045811
8950,0.8786675,-19.6131992,1.9584470,-250.1374054,84.3053436,57.6259537
8960,2.0661855,-19.6131992,14.1089582,-250.1374054,75.1068726,61.1068687
8970,1.7645177,-19.6131992,19.6126022,-250.1374054,-15.1832066,57.4732819
8980,4.5968437,-19.6131992,19.6126022,-154.2366486,-130.6106873,43.9236641
8990,7.1035600,-17.5877151,19.6126022,7.6793895,-198.1526642,23.2137413
9000,8.0133524,-13.8001080,19.6126022,136.8244324,-202.9160309,3.6030533
9010,8.5089493,-11.7626524,19.6126022,214.0763397,-121.6946564,-12.3129768
9020,7.2855186,-10.0771437,15.0762110,238.9313049,3.5954199,-15.5419846
9030,4.9966736,-8.9422979,7.0796180,226.7786255,108.6946564,-1.6412214
9040,3.0214672,-7.3381906,1.0510491,196.0152740,166.5648804,26.5267181
9050,2.4372849,-5.3797436,-2.2026544,154.2748108,174.2290039,55.9694672
9060,3.2776453,-3.6870518,-2.9568241,117.0687027,150.9541931,77.7175598
9070,4.9344244,-2.3295465,-1.8698620,86.0381699,123.8625946,84.2671738
9080,5.9591374,-1.3096216,-0.3998296,61.0152664,110.0305328,78.8015289
9090,5.7149301,0.1915352,1.4843974,45.5114517,103.0229034,67.8091583
9100,2.4061604,4.4962878,1.8578910,4.1068702,38.8931313,58.4580154
9110,2.3534882,5.3270717,2.3247581,-16.2824421,31.7328243,65.8854980
9120,2.5665710,5.9998388,3.3279233,-37.0763359,26.4961834,72.3969498
9130,2.8826041,6.1410961,4.6902170,-56.4580154,26.9312973,76.9007645
9140,3.2944047,6.1099715,5.6335278,-73.9847336,30.0687027,80.2748108
9150,4.4364328,5.9758968,6.7252784,-88.5038147,36.1145020,79.6870193
9160,5.2360926,6.0309634,8.4514885,-95.4045792,38.4351158,73.1832047
9170,5.1546898,6.3685441,10.4410601,-90.0534363,30.7175579,64.0457993
9180,5.2025738,6.4762826,11.9039097,-74.9083939,15.6870232,55.3587799
9190,5.1977854,6.4858594,12.4258432,-56.8854980,4.3664122,45.8854980
9200,5.2720051,6.5816269,11.7458935,-42.0152664,-4.2900763,35.0763359
9210,5.5257893,6.4236102,10.7523050,-36.2748108,-5.0534353,24.8244267
9220,5.1092005,5.5473371,9.8975792,-50.4656487,22.6183205,11.2595415
9230,4.5226240,5.1068063,10.6254129,-54.6106873,25.6183205,8.2671757
9240,4.1898317,4.9655490,11.6597023,-51.8854980,20.1908398,6.8549619
9250,3.9025288,5.2743993,12.1193867,-44.4580154,14.9083967,6.9236641
9260,4.2832050,5.5210009,12.1983957,-36.8549614,17.6488552,7.2900763
9270,4.5417776,5.6574697,11.8536320,-31.5877857,25.1908398,7.4045801
9280,5.3342543,5.4491754,11.4011297,-29.0992374,32.6564903,6.3206105
9290,6.1410961,5.3917146,10.9222927,-30.7480907,41.5572510,1.1221374
9300,6.3637557,4.8793583,10.8672256,-34.9007645,50.6183205,-8.0763359
9310,6.3948798,4.5752959,11.1329813,-38.6259537,55.8549614,-18.8854961
9320,5.5736732,4.6878228,12.0523500,-37.4351158,61.6259537,-28.8625946
9330,4.1251884,5.0277977,12.9669304,-26.7328243,59.6335869,-35.4580154
9340,2.5330524,5.7771792,13.3547888,-8.1526718,45.3816795,-37.9160309
9350,1.5322813,6.6534524,12.9429884,11.7938929,24.9465656,-37.4732819
9360,1.6400198,7.7595682,11.9182749,25.9083977,8.1526718,-36.6412201
9370,2.1188576,9.2200232,10.9797525,29.9770985,-0.0763359,-38.7557259
9380,2.3486998,10.7738523,10.0364418,24.6106873,-1.1068702,-43.7633591
9390,2.1811066,11.8368731,9.5025377,10.8091602,-1.9007634,-49.4274826
9400,1.8722562,12.2821922,9.7682934,-7.4732823,-3.8625953,-52.1450386
9410,1.3742647,12.4952745,11.2862091,-23.8702297,-10.5114508,-51.7251892
9420,0.8834559,12.6173782,13.9030581,-27.1755733,-26.7938938,-50.1526718
9430,0.6488253,12.4880924,16.4193516,-17.8473282,-46.1297722,-43.3816795
9440,1.1563935,12.5623121,18.4735661,2.2671757,-57.9465637,-33.2748108
9450,2.4348907,13.2422619,19.3570213,28.3206100,-59.5877876,-25.6717548
9460,4.0102673,13.6157551,18.2461185,51.8549614,-48.3282433,-25.0305347
9470,4.9080882,13.8958759,16.4504757,67.0992355,-35.5877876,-30.6488552
9480,5.4467812,14.0778341,14.4393568,77.5114517,-34.5190849,-42.5038185
9490,5.7771792,13.9317884,12.6245613,87.0076370,-46.5954208,-58.3129768
9500,6.1123657,13.7522240,11.0420017,96.7709961,-66.7099228,-76.7328262
9510,6.5050125,13.7378588,9.3157911,107.2366409,-90.2137375,-97.1374054
9520,7.6709828,13.0339670,6.8569584,116.6870193,-109.4427490,-121.5419846
9530,7.3118544,11.2167778,3.4691806,110.4045792,-101.1603088,-144.0763397
9540,5.4228392,9.2655134,0.9433106,81.3435135,-49.3893127,-148.9313049
9550,4.7309184,6.4044566,-0.3375807,34.3816795,40.8625946,-132.8473358
9560,3.0214672,2.5976956,-1.0725969,-26.7938938,184.1679382,-107.0534363
9570,-1.0702027,-3.5793133,-2.0326669,-88.6564865,250.1297760,-68.9923630
9580,-5.1810260,-8.9303265,2.2313845,-132.8320618,250.1297760,-20.3740463
9590,-8.3676920,-11.0874910,9.7347746,-115.5190811,250.1297760,33.8091621
9600,-5.4300218,-12.7706070,14.4800577,-39.3969460,207.9389343,68.6183243
9610,2.0422437,-14.2645807,12.2271252,32.5496178,74.9847336,73.4961853
9620,10.4506369,-14.3986549,4.9224534,43.8625946,0.9389313,35.4198456
9630,15.3132353,-13.5559006,-0.9385223,-14.3206110,-25.1755733,-41.8778610
9640,14.6979294,-15.3611193,2.6144550,-99.5190811,-27.0076332,-128.9770966
9650,8.6741486,-19.5389805,14.1975431,-146.0915985,-15.1374044,-192.1603088
9660,-1.4389079,-19.6131992,19.6126022,-129.6946564,-0.5496183,-200.5496216
9670,-10.0029240,-19.6131992,19.6126022,-68.3816757,5.4961834,-144.5267181
9680,-11.7243462,-19.6131992,19.6126022,13.4656487,18.5038166,-54.9694672
9690,-9.3157911,-15.9788208,19.6126022,94.1679382,27.0610695,29.8473282
9700,-3.2967989,-12.5335817,13.6636391,150.3664093,15.0381680,83.6946564
9710,2.1308286,-9.1769285,6.1626434,168.5725250,2.6030533,100.2519073
9720,4.9440012,-6.4571290,1.7836711,156.6488495,-3.5419848,93.4198456
9730,5.8513989,-4.0629396,-0.0574605,129.4656525,-1.5114504,77.3129807
9740,5.2097564,-2.4612267,-0.3495516,97.4503784,5.7328243,63.5496178
9750,3.6822634,-1.2162483,0.4022238,72.0305328,12.0687027,57.2977104
9760,2.2601149,-0.1197095,1.5777708,53.3664131,12.1145039,57.8091621
9770,0.5099624,6.8282285,2.4253139,2.0763359,24.3740463,88.9694672
9780,0.6200951,7.8266053,3.2369442,-12.1832066,13.6564884,87.8473282
9790,1.0414724,8.6358414,4.1922259,-21.8015270,-2.0610688,82.6946564
9800,1.2737088,9.0476418,4.9511838,-28.4198475,-20.7938938,75.1526718
9810,1.2138541,9.2942438,5.9088597,-32.3053436,-41.4045792,66.6488571
9820,1.7238164,9.1410151,6.8569584,-32.9923668,-61.3435097,57.8778610
9830,2.3917952,8.8896255,7.5033898,-32.7633591,-74.1755753,48.4198456
9840,2.6958573,8.7411861,8.0396881,-35.0305328,-76.1679382,38.2900772
9850,2.8586621,8.6238708,8.6310530,-38.0076332,-68.6946564,28.4732819
9860,2.8658447,8.4347296,9.3229742,-39.3053436,-55.2748108,19.7022896
9870,2.4205256,8.4036045,9.6988611,-39.4351158,-39.7022896,12.1832066
9880,1.5897418,8.2120695,9.8688488,-40.8091621,-25.8244267,7.7938933
9890,0.6224893,7.9870162,10.5344334,-40.6641235,-15.6030531,9.2061071
9900,0.2250538,7.7763271,11.5016861,-35.1450386,-3.4656489,16.1832066
9910,0.0957676,7.4507174,12.0355902,-26.1145039,9.9389315,25.3816795
9920,0.2920911,7.6973190,12.2630386,-17.4656487,17.8091602,34.2824440
9930,0.7110743,7.9918046,12.1145983,-9.3511448,23.4885502,39.5725174
9940,0.5793939,8.0516596,10.9582052,-6.7480917,29.4274807,45.2900772
9950,0.9337339,8.2312231,10.2471304,-12.7404585,26.7480907,50.1832047
9960,1.7908537,8.8034344,10.6397781,-20.6793900,20.6717548,51.1068687
9970,2.4731977,9.5719690,11.4226780,-24.9465656,16.6641216,47.6488533
9980,2.5617826,10.1322098,11.8296900,-28.6259537,13.5267172,43.0076332
9990,2.3726418,10.8289185,12.1936073,-34.4732819,8.1679392,42.0305328
