timestamp,acclX,acclY,acclZ,gyroX,gyroY,gyroZ
0,1.7405758,0.9433106,9.8592720,-0.6183206,0.0992366,1.0763359
10,1.7142396,0.9504932,9.8425131,-0.4961832,0.0763359,1.1068702
20,1.7597293,1.0366840,9.9382801,-0.2824427,-0.3053435,0.8473282
30,1.7238164,0.9696468,9.8951855,-0.0610687,-0.6870229,0.7099237
40,1.6472024,1.0534433,9.8473015,-0.1984733,-0.6106870,0.9083970
50,1.6831152,1.0630201,9.8137827,-0.1374046,-0.6641222,1.0305344
60,1.6926919,0.9959828,9.6725254,-0.4732825,-0.5801527,0.8473282
70,1.6759326,1.0295014,9.7682934,-0.7557252,-0.5496183,0.8167939
80,1.7142396,0.9600700,9.7323799,-1.4274809,-0.3740458,0.7099237
90,1.7621235,1.0318956,9.7060442,-2.0076337,-0.1908397,0.5648855
100,1.7070571,1.0007712,9.7730818,-2.3358779,0.1297710,0.3969466
110,1.7094513,1.0510491,9.7802639,-2.3969467,0.0305344,0.3816794
120,1.6974803,0.9528874,9.8137827,-2.3587787,-0.0610687,0.6259542
130,1.7836711,0.9050036,9.8760319,-2.3206108,0.0381679,0.4809160
140,1.7357874,0.8978211,9.8473015,-2.3435113,-0.4198473,0.5114504
150,1.6160779,0.9169745,9.8185711,-2.0839694,-0.9770992,0.4045801
160,1.6472024,0.9504932,9.8209648,-2.1145039,-1.6412214,0.4503817
170,1.6112895,0.9720409,9.8137827,-2.2442749,-2.8625953,0.7022901
180,1.6208663,0.9840119,9.6581602,-3.0381680,-3.3740458,0.9465649
190,1.5562232,0.9792235,9.5121145,-4.5801525,-4.1984735,1.4198474
200,1.3838415,0.9480990,9.4019823,-6.3969464,-5.5114503,2.3511450
210,1.6208663,0.8906385,9.4522600,-8.8091602,-7.2137403,2.3893130
220,1.4580613,0.5410868,10.1968527,-11.2442751,-8.8931293,0.0687023
230,1.0390782,0.8643024,10.1872759,-8.4122133,-14.8396950,3.2213740
240,0.9696468,0.7996593,10.4482431,-7.2442746,-32.4198456,4.8396945
250,-0.3758878,2.3941894,9.3660688,-8.6183205,-57.9083977,14.5877867
260,1.7669119,-0.2585725,9.7563219,-11.2900763,-70.2977066,19.1832066
270,2.7964132,-0.5434810,9.9239149,-10.9847326,-78.9542007,11.6717558
280,2.9831600,1.1300575,10.2351599,-7.1679387,-90.1374054,2.8167939
290,2.9424589,1.1611819,10.4219065,-5.9389315,-105.9389343,1.6564885
300,3.5912843,0.9050036,10.1274214,-4.4045801,-122.2900772,0.6793893
310,4.3789725,0.9073978,9.7850523,-3.9541984,-135.3969421,-0.7328244
320,5.2648225,1.1180865,9.4738073,-5.3664122,-152.5419922,-2.7328243
330,6.1602492,1.4173602,9.1673517,-8.5038166,-174.2290039,-6.4045801
340,7.0508881,1.8578910,8.9734221,-11.3358774,-194.7175598,-13.6412210
350,8.0396881,2.1236460,8.7770987,-13.2900763,-210.8396912,-24.6183205
360,9.7946291,2.4420733,8.5161324,-17.9923668,-212.6870270,-38.0458031
370,11.5663290,2.7245877,8.2982607,-31.9694653,-191.8473358,-56.0916023
380,11.9853125,2.8395088,9.8808203,-46.6488533,-171.0992432,-75.5419846
390,12.1457233,2.4564383,11.6668854,-52.9771004,-156.2595367,-91.5877838
400,12.0164366,1.5801650,12.7155399,-50.5419846,-150.2519073,-106.5496216
410,11.1066446,1.8674678,13.3715477,-42.2213745,-151.3435059,-122.1297684
420,11.0755205,0.6416427,13.4194317,-28.0916023,-160.3053436,-128.0992432
430,11.9158812,-1.6112895,12.9741125,-20.8931293,-184.1832123,-155.2748108
440,11.5854826,-1.7860653,12.8998928,-12.9847326,-208.5038147,-187.7099304
450,11.0132713,-1.6065011,13.2063494,0.2519084,-237.0305328,-217.7938995
460,12.1744537,-2.5091105,13.2614155,15.2519083,-250.1374054,-250.1374054
470,12.1816359,-2.8778157,13.4649220,29.0076332,-250.1374054,-250.1374054
480,11.9350348,-2.7724714,13.8862991,39.5801544,-250.1374054,-250.1374054
490,11.4274664,-3.4021432,14.9708662,49.7251892,-250.1374054,-250.1374054
500,10.6397781,-3.5864959,15.7058830,61.8625946,-250.1374054,-250.1374054
510,10.2303715,-4.1108232,16.1105003,77.6335907,-250.1374054,-250.1374054
520,9.5384512,-4.4579806,16.2756996,97.7786255,-250.1374054,-250.1374054
530,8.7172441,-4.6040263,16.0147324,118.6183243,-250.1374054,-250.1374054
540,7.8074517,-4.2760224,15.1887379,140.6564941,-250.1374054,-250.1374054
550,7.3094602,-3.9839313,13.9365768,161.3282471,-250.1374054,-250.1374054
560,6.7300668,-3.5481887,12.5335817,180.0992432,-250.1374054,-250.1374054
570,6.0549049,-2.9520357,11.0850973,196.3053436,-250.1374054,-250.1374054
580,5.3749552,-2.2481439,8.9135675,207.6870270,-250.1374054,-250.1374054
590,5.1307478,-1.6448082,6.4930420,214.0839691,-249.3282471,-250.1374054
600,5.1475072,-0.7182568,3.8235207,214.2137451,-218.6412201,-250.1374054
610,5.1475072,0.0957676,1.0151364,208.2442780,-179.6183167,-250.1374054
620,4.8290801,0.5937590,-1.3479286,196.0839691,-134.1679382,-250.1374054
630,4.0126615,0.6464311,-3.3135581,179.9236603,-95.2671738,-250.1374054
640,1.5969244,0.2202654,-4.2209558,165.9313049,-74.3816757,-250.1374054
650,-3.6224086,0.2035061,-4.6662750,160.7557220,-93.9465637,-250.1374054
660,-10.9127159,0.2705434,-6.4355812,158.2366486,-165.3435059,-250.1374054
670,-17.8941727,0.8571198,-7.5153608,149.0610657,-250.1374054,-250.1374054
680,-19.6131992,2.2649033,-8.7411861,126.7022934,-250.1374054,-250.1374054
690,-19.6131992,4.5705075,-10.2758608,86.7633591,-250.1374054,-250.1374054
700,-19.6131992,5.8154860,-10.9558105,26.1755733,-250.1374054,-247.1068726
710,-19.6131992,5.2552457,-10.0555954,-38.5038185,-195.1984711,-160.0915985
720,-19.6131992,4.9607606,-7.9774394,-93.8702316,-72.7328262,-65.1374054
730,-19.6131992,4.8242917,-4.9511838,-132.2900696,11.2519083,32.3740463
740,-19.6131992,4.8051381,-1.9033806,-143.3435059,43.2977104,120.7786255
750,-19.6131992,4.6758518,-0.1915352,-132.8625946,43.3816795,198.2519073
760,-19.4049053,4.4388270,0.1436514,-117.4503784,40.2748108,250.1297760
770,-15.7417955,3.6726866,-0.2705434,-110.5877838,56.2519073,250.1297760
780,-11.5639353,2.4564383,-0.6296718,-113.0457993,93.4809189,250.1297760
790,-6.8354111,1.0462608,-1.3790531,-123.6030502,148.0763397,250.1297760
800,-2.6551561,-0.1340746,-2.2026544,-145.3435059,218.7251892,250.1297760
810,1.7788827,-1.1539993,-2.7581062,-182.7557220,250.1297760,250.1297760
820,5.6766233,-2.4037662,-2.1978660,-231.5801544,250.1297760,250.1297760
830,9.7419567,-4.0126615,-0.0622489,-250.1374054,250.1297760,250.1297760
840,17.7624912,-4.2137733,4.9416070,-250.1374054,250.1297760,250.1297760
850,19.6126022,-1.5107336,13.1728306,-250.1374054,229.0076294,250.1297760
860,19.6126022,1.7525467,19.6126022,-221.2748108,72.4122162,158.0381622
870,19.6126022,2.6671271,19.6126022,-100.2213745,-50.0610695,-34.6488533
880,19.6126022,0.8236012,19.6126022,28.6259537,-105.4656525,-193.1221313
890,19.6126022,-0.7996593,19.6126022,135.4427490,-134.5801544,-250.1374054
900,19.5461636,-1.7429699,16.8191814,203.2900696,-170.5954132,-250.1374054
910,13.2685976,-2.2553265,12.1265697,240.0839691,-190.7404633,-250.1374054
920,8.5927458,-2.2672975,8.2024927,250.1297760,-187.9618378,-250.1374054
930,6.1722202,-1.8076130,5.2648225,250.1297760,-162.4274750,-250.1374054
940,4.6854286,-1.5705882,2.6503677,250.1297760,-117.4122162,-250.1374054
950,3.1172347,-2.0374553,0.0598547,250.1297760,-68.0763321,-250.1374054
960,0.8355721,-3.1914546,-2.5929072,242.8473358,-21.0610695,-250.1374054
970,-4.0868812,-4.4962878,-4.6351509,229.8244324,3.6946564,-250.1374054
980,-12.5838594,-5.4084740,-6.4954362,219.7557220,-25.4351139,-250.1374054
990,-19.6131992,-4.6423335,-7.2879128,214.8625946,-125.9160309,-250.1374054
1000,-19.6131992,-1.8315549,-8.9063845,208.9389343,-250.1374054,-250.1374054
1010,-19.6131992,0.7948709,-11.4131012,182.9007568,-250.1374054,-250.1374054
1020,-19.6131992,2.8227494,-13.6827927,123.0992355,-250.1374054,-247.0000000
1030,-19.6131992,2.9041519,-13.8886929,37.3129768,-193.5801544,-103.0381699
1040,-19.6131992,2.4803803,-11.7770176,-54.8091621,-26.6793900,44.2671738
1050,-19.6131992,2.6934631,-6.5265603,-122.8167953,97.9389343,161.4045868
1060,-19.6131992,2.6168492,-1.8243724,-142.4809113,143.2366486,237.2061005
1070,-19.6131992,2.3965836,0.6153067,-128.5801544,121.8320618,250.1297760
1080,-19.6131992,2.3439114,1.6495966,-97.1068726,63.4274826,250.1297760
1090,-17.9229031,2.0853391,1.0941446,-65.3511429,15.0381680,250.1297760
1100,-14.1688128,1.9847831,-0.5147507,-46.3969460,6.6183205,250.1297760
1110,-11.0276365,1.2569494,-2.7174051,-47.0534363,37.5114517,250.1297760
1120,-7.8194227,0.0383070,-4.5250182,-69.3129807,92.5801544,250.1297760
1130,-4.4723458,-1.3120158,-5.4539638,-109.0610657,161.3206177,250.1297760
1140,-1.3359578,-2.8035958,-5.2001796,-161.4809113,237.7786255,250.1297760
1150,1.5179161,-4.9463954,-3.9982965,-219.7022858,250.1297760,250.1297760
1160,4.8147149,-7.3429790,-1.5346755,-250.1374054,250.1297760,250.1297760
1170,10.4075413,-8.2815018,1.9943599,-250.1374054,250.1297760,250.1297760
1180,19.6126022,-7.1131368,7.9750452,-250.1374054,250.1297760,250.1297760
1190,19.6126022,-3.6008608,15.4712524,-250.1374054,148.3664093,250.1297760
1200,19.6126022,1.5466464,19.6126022,-218.3664093,24.9923668,192.5725250
1210,19.6126022,2.5953014,19.6126022,-100.7557220,-56.6335869,-14.8167934
1220,19.6126022,0.1532281,19.6126022,18.1068707,-96.3893127,-185.6412201
1230,19.6126022,-1.5586174,19.6126022,116.4732819,-140.5419922,-250.1374054
1240,19.6126022,-2.4684093,17.6834831,183.0000000,-193.8396912,-250.1374054
1250,15.5119534,-2.8610563,13.7474356,223.1526642,-220.9847260,-250.1374054
1260,11.5064745,-2.3750360,10.1609402,244.7480927,-202.0381622,-250.1374054
1270,8.6238708,-1.5442522,6.7779503,250.1297760,-153.2900696,-250.1374054
1280,6.7707677,-0.8164186,3.7564833,250.1297760,-89.8702316,-250.1374054
1290,5.5521255,-0.8355721,1.0941446,244.9847260,-21.3053436,-250.1374054
1300,4.5968437,-1.7884595,-1.5873476,234.2595367,38.2977104,-250.1374054
1310,1.3982066,-3.7588775,-4.3167233,223.6335907,76.1068726,-250.1374054
1320,-5.2480631,-5.5760674,-7.6087341,213.8931274,55.3282433,-250.1374054
1330,-13.9820662,-6.0309634,-9.4378948,205.9847260,-47.7404594,-250.1374054
1340,-19.6131992,-3.8977404,-10.3405046,199.0458069,-203.0610657,-250.1374054
1350,-19.6131992,-1.4365137,-11.1952295,176.9694672,-250.1374054,-250.1374054
1360,-19.6131992,1.7262106,-12.9860840,121.9542007,-250.1374054,-250.1374054
1370,-19.6131992,2.5091105,-13.7187052,34.2137413,-187.9770966,-250.1374054
1380,-19.6131992,2.2672975,-11.5136566,-63.6106873,-5.3358779,-111.0152664
1390,-19.6131992,2.0206959,-5.9351954,-133.0992432,126.3664093,28.1297703
1400,-19.6131992,2.1356170,-0.9648584,-147.5725250,169.5572510,129.8854980
1410,-19.6131992,2.4133430,1.1516051,-127.6488571,137.9007568,200.3129730
1420,-19.6131992,2.7724714,1.8052188,-93.2595444,64.1145020,246.4503784
1430,-19.5437679,3.2752512,0.9050036,-58.9923668,-3.8091602,250.1297760
1440,-16.5941277,3.5218527,-0.5746055,-37.8778610,-36.9083977,250.1297760
1450,-14.3196468,3.2393384,-2.1164634,-32.4351158,-38.6106873,250.1297760
1460,-11.9158812,2.5976956,-3.0549858,-39.6259537,-19.0763359,250.1297760
1470,-9.3780403,1.9847831,-3.3997490,-56.5877876,16.6106873,250.1297760
1480,-6.5217719,1.0534433,-3.6104376,-81.2977066,64.9465637,250.1297760
1490,-3.5673423,-0.3280039,-4.0725164,-113.0992355,121.2290039,250.1297760
1500,0.1268920,-2.0853391,-3.9121056,-153.4656525,173.7022858,250.1297760
1510,4.8147149,-3.7253587,-2.7676830,-194.3358765,209.8625946,250.1297760
1520,11.4274664,-4.6543045,-0.1963235,-226.8396912,200.9389343,250.1297760
1530,19.6126022,-3.0190730,4.6423335,-233.5801544,127.9542007,250.1297760
1540,19.6126022,0.6631905,11.3053627,-201.2061005,20.5267181,250.1297760
1550,19.6126022,3.6343796,16.2756996,-137.0000000,-55.1832047,191.9541931
1560,19.6126022,5.0948353,18.2556953,-62.4885483,-80.4503784,27.4503822
1570,19.6126022,4.7644372,19.0912666,14.0381680,-78.8091583,-134.2671814
1580,19.6126022,2.6767037,17.9229031,87.8167953,-85.5725174,-250.1374054
1590,19.6126022,1.0247130,15.3252068,152.5496216,-108.0076370,-250.1374054
1600,18.0976772,-0.1460456,11.8679972,200.5038147,-122.8473282,-250.1374054
1610,13.1680422,-0.5386927,7.5800037,231.0839691,-110.3893127,-250.1374054
1620,8.9973640,-0.5434810,3.8211265,242.5496216,-79.8396912,-250.1374054
1630,5.8537931,-0.6057299,0.8666966,238.5648804,-41.6564903,-250.1374054
1640,3.6535332,-1.2425843,-1.9823889,222.7404633,6.3435116,-250.1374054
1650,-0.7876883,-2.9448531,-4.0916696,203.9007568,47.8473282,-250.1374054
1660,-7.6111283,-4.0701222,-5.7723908,190.2671814,35.8778610,-250.1374054
1670,-15.1360655,-4.1132174,-7.2352405,187.6259613,-37.7251892,-250.1374054
1680,-19.6131992,-2.1404054,-10.1298151,182.1145020,-124.4961853,-250.1374054
1690,-19.6131992,0.3184272,-14.0299501,150.4809113,-187.6030579,-250.1374054
1700,-19.6131992,1.9321109,-15.8758707,91.9007645,-187.2748108,-250.1374054
1710,-19.6131992,3.4452386,-16.3618908,8.6030531,-82.8244247,-137.5877838
1720,-19.6131992,3.2896163,-13.6085730,-80.4122162,51.2137413,6.4198475
1730,-19.6131992,3.1435707,-8.4490948,-141.6412201,138.1526642,130.7557220
1740,-19.6131992,3.1723011,-4.0126615,-156.7022858,163.4274750,214.6030579
1750,-19.6131992,3.4452386,-1.9680238,-144.6412201,139.1908417,250.1297760
1760,-19.6131992,3.4883339,-1.6591733,-124.4809189,90.3816757,250.1297760
1770,-19.5964413,3.5146701,-2.2840567,-108.3511429,48.5267181,250.1297760
1780,-16.4408989,3.0310438,-3.3207407,-102.0457993,32.8091621,250.1297760
1790,-13.6971579,2.1954718,-4.3143296,-108.9542007,40.6106873,250.1297760
1800,-10.5128860,0.9337339,-5.1068063,-126.9694672,66.3740463,250.1297760
1810,-7.0772243,-0.2537841,-5.7269011,-156.4198456,109.1374054,250.1297760
1820,-3.6200144,-1.7549409,-5.5281835,-195.3893127,159.6793823,250.1297760
1830,-0.1651991,-3.4452386,-4.1898317,-238.0763397,200.8854980,250.1297760
1840,4.4005203,-5.1115947,-1.7214222,-250.1374054,208.1068726,250.1297760
1850,11.4992924,-5.1307478,2.0302727,-250.1374054,167.9618378,250.1297760
1860,19.6126022,-3.3973548,6.6319046,-250.1374054,87.0457993,250.1297760
1870,19.6126022,-0.3615226,12.6963863,-242.4427490,-8.8778629,250.1297760
1880,19.6126022,2.9185169,17.3459034,-175.1755676,-72.3969498,176.1908417
1890,19.6126022,4.4938936,19.5892582,-94.4427490,-82.6488571,14.9465647
1900,19.6126022,3.6583214,19.6126022,-15.1221371,-72.7175598,-133.7633514
1910,19.6126022,2.1092808,18.7488976,59.3587799,-81.9389343,-249.0992432
1920,19.6126022,0.7709290,16.1775379,123.4580154,-110.4885483,-250.1374054
1930,16.4001980,-0.1556223,13.2302914,172.5801544,-132.7175598,-250.1374054
1940,12.2630386,-0.1747758,10.1393919,207.2366486,-134.9007568,-250.1374054
1950,8.9710283,0.2274480,6.7348547,229.1374054,-117.7709961,-250.1374054
1960,6.5481081,0.8331779,3.7636659,235.8167877,-81.9236679,-250.1374054
1970,4.1587071,0.9145803,0.7134684,229.9236603,-38.7251892,-250.1374054
1980,1.8531027,0.2777260,-1.2114599,215.8244324,-2.1221373,-250.1374054
1990,-1.7573351,-0.7900825,-2.5450234,203.3969421,6.7404580,-250.1374054
2000,-7.1945391,-1.7238164,-3.9935081,198.6106873,-23.3129768,-250.1374054
2010,-13.8216553,-2.0877333,-5.2720051,199.5114441,-93.5343475,-250.1374054
2020,-19.6131992,-1.0175306,-7.2783360,197.1832123,-188.7862549,-250.1374054
2030,-19.6131992,1.5298871,-9.9646168,176.5725250,-250.1374054,-250.1374054
2040,-19.6131992,3.2752512,-12.3228931,127.1755753,-250.1374054,-250.1374054
2050,-19.6131992,3.8929520,-13.2494440,52.1068687,-158.2748108,-172.2442780
2060,-19.6131992,3.6248028,-11.6118193,-30.1755733,-30.2900772,-36.8015251
2070,-19.6131992,3.5553713,-8.5328913,-93.4809189,77.8931274,92.0229034
2080,-19.6131992,3.2417326,-4.7165532,-125.9847336,133.8167877,191.7251892
2090,-19.6131992,2.8826041,-1.9680238,-130.5877838,138.1374054,250.1297760
2100,-19.6131992,2.8490853,-0.3663110,-118.4274826,107.4885483,250.1297760
2110,-18.6962261,2.6048782,0.1340746,-99.0381699,72.5038147,250.1297760
2120,-15.0929699,2.3702476,-0.6895266,-82.7709961,50.7633591,250.1297760
2130,-11.6884327,2.0973101,-2.3199697,-77.7938919,52.9160309,250.1297760
2140,-8.5472565,1.7980363,-4.1180058,-89.7709961,71.9312973,250.1297760
2150,-5.5521255,1.0318956,-5.2384863,-115.4274826,104.5801544,250.1297760
2160,-2.6288199,0.1747758,-5.4467812,-150.3435059,143.0915985,250.1297760
2170,0.4094064,-1.0462608,-4.5465660,-189.4122162,177.8931274,250.1297760
2180,3.9767487,-2.3774302,-2.7772598,-225.3511505,194.2671814,250.1297760
2190,9.5719690,-3.1699069,-0.2537841,-250.1374054,173.6641235,250.1297760
2200,17.5470142,-1.9752063,3.5242469,-250.1374054,107.9389343,250.1297760
2210,19.6126022,0.3591284,8.6693602,-234.0000000,16.0610695,250.1297760
2220,19.6126022,3.5721307,13.6612453,-186.4427490,-55.2748108,202.0305328
2230,19.6126022,4.9703374,16.9029770,-123.6106873,-77.9465637,49.2748108
2240,19.6126022,3.9408360,18.0330353,-53.5496178,-76.3587799,-94.4732819
2250,19.6126022,2.7006457,18.1910515,17.3282452,-80.9694672,-210.1221313
2260,19.6126022,1.3766589,16.7018661,84.3816757,-103.8473282,-250.1374054
2270,18.2173882,0.5793939,14.5399122,138.4885559,-127.6641235,-250.1374054
2280,13.7210999,0.2705434,11.9182749,178.6412201,-131.0992432,-250.1374054
2290,10.4314833,0.5769997,8.8728657,207.1221313,-110.5725174,-250.1374054
2300,7.8888540,0.9792235,5.7484488,223.6106873,-74.3816757,-250.1374054
2310,6.2057390,1.2497669,2.8251436,227.8625946,-26.9389305,-250.1374054
2320,4.6543045,1.0031654,0.4357425,223.1297760,20.0610695,-250.1374054
2330,3.3279233,0.1867468,-1.7980363,213.4580078,56.1603050,-250.1374054
2340,1.8028246,-1.2138541,-3.6463506,204.9541931,80.0000000,-250.1374054
2350,-0.8547257,-3.1052637,-5.4060798,199.0305328,88.5496216,-250.1374054
2360,-6.1626434,-4.3358769,-6.8306227,193.9236603,73.8549652,-250.1374054
2370,-13.3116932,-4.5920553,-7.8074517,188.5419922,24.9160309,-250.1374054
2380,-19.6131992,-3.1555417,-8.0732069,180.7862549,-46.0610695,-250.1374054
2390,-19.6131992,-1.3287752,-9.1673517,165.0915985,-115.8549652,-250.1374054
2400,-19.6131992,0.5123565,-10.6469603,139.5648804,-169.4503784,-250.1374054
2410,-19.6131992,1.7477583,-12.6628675,101.6335907,-155.2671814,-137.7709961
2420,-19.6131992,1.9680238,-14.6572275,41.4427490,-60.9312973,-9.7862597
2430,-19.6131992,2.1404054,-14.3483772,-37.2213745,55.5267181,99.8396912
2440,-19.6131992,2.3103929,-11.5375986,-105.2595444,141.9847260,178.8473358
2450,-19.6131992,2.3127871,-7.4746594,-139.5801544,172.7862549,228.6106873
2460,-19.6131992,2.3894010,-4.1611013,-141.5648804,157.4274750,250.1297760
2470,-19.6131992,2.3846128,-2.1787124,-122.6946564,108.0076370,250.1297760
2480,-18.8326950,2.4899571,-2.0206959,-95.5801544,52.2900772,250.1297760
2490,-15.6412401,2.9592183,-3.5841017,-75.8702316,14.5496187,250.1297760
2500,-12.5120344,2.5953014,-5.2672167,-74.4045792,3.5190840,250.1297760
2510,-9.0165176,2.1451938,-6.7037306,-87.6183243,22.0839691,250.1297760
2520,-6.2703824,1.5490406,-7.6661944,-116.3969498,62.2748108,250.1297760
2530,-4.1874375,0.1795642,-7.3357964,-154.0992432,101.0610657,250.1297760
2540,-1.6831152,-1.2521610,-6.0333576,-191.8625946,134.5267181,250.1297760
2550,1.1061156,-2.7581062,-4.3263001,-224.5801544,160.9313049,250.1297760
2560,4.1802549,-4.1036406,-2.5522060,-250.1374054,175.6641235,250.1297760
2570,8.5065556,-4.7764082,-0.2011119,-250.1374054,162.6946564,250.1297760
2580,15.5694141,-3.7445123,3.2417326,-250.1374054,109.9542007,250.1297760
2590,19.6126022,-1.4029950,8.0348997,-250.1374054,30.1145039,250.1297760
2600,19.6126022,2.1092808,13.7498302,-214.0763397,-45.5877876,250.1297760
2610,19.6126022,4.3478479,17.8893833,-148.8473358,-78.0687027,95.7404556
2620,19.6126022,4.6064205,19.6126022,-72.4427490,-72.9847336,-57.3587799
2630,19.6126022,2.8251436,19.6126022,7.2442746,-77.5419846,-183.0839691
2640,19.6126022,1.5131277,17.8271351,82.1755753,-114.9923630,-250.1374054
2650,19.6126022,0.3567342,14.9181948,140.7251892,-163.9541931,-250.1374054
2660,15.6699696,-0.2753318,11.6884327,180.4122162,-189.5801544,-250.1374054
2670,12.4761209,-0.4788379,8.3557215,203.8244324,-177.4885559,-250.1374054
2680,10.1250277,-0.1412572,5.1522956,213.5801544,-131.4274750,-250.1374054
2690,8.2886839,0.3375807,2.5067163,213.3511505,-68.7786255,-250.1374054
2700,7.0293403,0.9121862,0.4141948,206.6335907,3.3969467,-250.1374054
2710,5.9758968,0.7996593,-1.3335636,197.9007568,68.9236679,-250.1374054
2720,5.0397687,0.2298422,-2.4444675,192.0839691,113.8396912,-250.1374054
2730,2.9520357,-0.9983770,-3.4931223,194.5725250,131.1755676,-250.1374054
2740,-1.6256547,-2.6886747,-5.4012914,206.0686951,100.3129807,-250.1374054
2750,-8.8034344,-4.3789725,-7.4124107,222.5419922,2.0687022,-250.1374054
2760,-15.2797174,-3.7900019,-9.6677370,237.2748108,-149.0381622,-250.1374054
2770,-19.6131992,-2.0733681,-12.3420467,228.5190887,-250.1374054,-250.1374054
2780,-19.6131992,0.1723816,-14.6237087,184.3358765,-250.1374054,-250.1374054
2790,-19.6131992,1.6232605,-16.2373924,108.6412201,-250.1374054,-250.1374054
2800,-19.6131992,1.8100072,-15.9524841,13.1679392,-138.7328186,-191.7557220
2810,-19.6131992,1.4173602,-12.9382000,-76.0229034,7.9618320,-29.8396950
2820,-19.6131992,1.5011568,-8.4371233,-132.8778687,110.8473282,112.3816757
2830,-19.6131992,1.6017127,-5.3510137,-152.2977142,152.4122162,206.3969421
2840,-19.6131992,1.8722562,-3.7564833,-153.7862549,141.6488495,250.1297760
2850,-19.6131992,2.2768741,-2.7820482,-145.1526642,101.5114517,250.1297760
2860,-17.5063133,2.6814921,-2.5019281,-128.9160309,55.8320618,250.1297760
2870,-15.1217003,2.6743097,-2.9735832,-111.8091583,17.1145039,250.1297760
2880,-12.5072460,2.5665710,-3.9408360,-102.2061081,-3.1755726,250.1297760
2890,-10.1513634,2.2744799,-5.4683285,-104.8320618,-1.9236641,250.1297760
2900,-7.8481531,1.8171898,-6.8689294,-121.3129807,17.0916023,250.1297760
2910,-5.2576399,1.2138541,-7.3980455,-150.0381622,48.5419846,250.1297760
2920,-2.5282640,0.5219333,-7.2136927,-183.6870270,90.3129807,250.1297760
2930,-0.1268920,-0.7350162,-6.3733325,-223.3435059,132.1374054,250.1297760
2940,2.3989778,-2.3726418,-4.6375451,-250.1374054,161.4351196,250.1297760
2950,6.7204900,-3.6774750,-2.0590029,-250.1374054,159.6335907,250.1297760
2960,13.6157551,-3.6559272,1.3503228,-250.1374054,107.6259537,250.1297760
2970,19.6126022,-1.5298871,6.4595232,-250.1374054,17.7557259,250.1297760
2980,19.6126022,1.1611819,12.9070749,-250.1374054,-67.4198456,219.1221313
2990,19.6126022,3.7229645,18.7393208,-183.9236603,-89.2748108,59.1908379
3000,19.6126022,3.4691806,19.6126022,-105.0534363,-53.7862587,-82.9770966
3010,19.6126022,2.6360025,19.6126022,-19.2213745,-18.1832066,-192.9541931
3020,19.6126022,1.4628497,19.6126022,62.2824440,-16.9694653,-250.1374054
3030,19.1846409,0.5075682,18.1096497,130.5496216,-41.4580154,-250.1374054
3040,13.2853575,0.0885850,14.2095146,183.5496216,-53.3664131,-250.1374054
3050,9.5288744,0.2298422,9.5911226,220.6793823,-38.0076332,-250.1374054
3060,6.9766679,0.9959828,5.1283536,238.3740387,-6.0916033,-250.1374054
3070,5.2863703,1.4628497,1.0271072,239.6488495,40.1755714,-250.1374054
3080,2.0230901,0.8116302,-2.5450234,231.2137451,74.3053436,-250.1374054
3090,-2.4803803,-0.0670373,-4.7189474,223.5496216,54.8854980,-250.1374054
3100,-7.9271612,-0.9145803,-6.8018923,225.3206177,-21.9923668,-250.1374054
3110,-14.0586805,-0.5961532,-9.3014259,222.7328186,-125.1297684,-250.1374054
3120,-19.1942177,0.7350162,-12.4042959,198.9236603,-222.1068726,-250.1374054
3130,-19.6131992,2.0925217,-14.6620159,147.8931274,-250.1374054,-250.1374054
3140,-19.6131992,3.2800395,-15.4257622,75.4274826,-229.3435059,-250.1374054
3150,-19.6131992,3.7349355,-14.2597923,-7.0687022,-138.3969421,-210.7786255
3160,-19.6131992,3.0382264,-11.0156660,-76.9389343,-43.8015251,-106.2900772
3170,-19.6131992,2.3702476,-6.8401995,-119.1450348,16.4122143,-2.7404580
3180,-19.6131992,1.9129574,-3.0573800,-134.1908417,38.6488533,86.8702316
3190,-19.6131992,1.9177457,-0.4716553,-129.8778687,34.6793900,155.4427490
3200,-19.6131992,2.1092808,0.8499373,-119.2137375,26.6412220,204.7480927
3210,-19.6131992,2.2002602,1.7549409,-106.3053436,20.3435116,245.5038147
3220,-18.3155499,2.2505381,2.4588325,-91.7328262,17.3511448,250.1297760
3230,-16.2493629,1.8052188,2.4803803,-78.2290039,21.0229015,250.1297760
3240,-14.0467091,1.2066715,2.0637913,-69.9236679,32.4961815,250.1297760
3250,-10.8935623,0.3782819,1.7932479,-67.5114517,56.5725174,250.1297760
3260,-7.4052281,-0.4860204,1.1420283,-71.7633591,95.9236679,250.1297760
3270,-4.1611013,-1.2832855,0.3160330,-86.2900772,148.1832123,250.1297760
3280,-0.7134684,-2.1212518,-0.5243275,-111.4503784,202.1526642,250.1297760
3290,2.6264257,-2.9065459,-0.4932030,-145.7786255,250.1297760,250.1297760
3300,7.1682034,-3.2130022,1.0773853,-181.1908417,250.1297760,250.1297760
3310,13.9629126,-2.6551561,4.2377152,-201.6946564,222.1297760,250.1297760
3320,19.6126022,-1.0271072,7.8481531,-195.9160309,124.2748108,250.1297760
3330,19.6126022,1.8722562,12.8615856,-158.9007568,13.3664122,250.1297760
3340,19.6126022,3.8905578,16.6779232,-96.3816757,-67.7786255,89.3129807
3350,19.6126022,3.7277529,17.5541973,-23.0534344,-108.1145020,-64.5114517
3360,19.6126022,2.3965836,15.9333305,44.6030540,-132.9084015,-187.5801544
3370,19.6126022,1.7764885,13.8240499,94.5114517,-159.0686951,-250.1374054
3380,17.5877151,1.2928623,12.3037395,130.1984711,-171.8854980,-250.1374054
3390,14.5351238,1.5729824,10.8624372,159.6488495,-156.6183167,-250.1374054
3400,11.7818060,1.8028246,8.7770987,184.8473358,-115.7633591,-250.1374054
3410,9.4714136,1.8626794,6.0884237,202.6183167,-66.1603088,-250.1374054
3420,7.4818420,2.4324965,3.9671719,210.2061005,-18.7251911,-250.1374054
3430,5.9758968,2.1116750,2.0470319,211.1679382,24.0152664,-250.1374054
3440,4.4986820,0.8930327,0.7541697,211.2900696,58.5954208,-250.1374054
3450,2.7916248,-1.1539993,-0.2202654,217.1603088,79.6335907,-250.1374054
3460,0.4668669,-3.5170643,-1.3886299,229.3587799,85.3816757,-250.1374054
3470,-3.6056492,-5.8202744,-2.9711890,244.4122162,81.3053436,-250.1374054
3480,-14.5063934,-6.9862447,-5.5784616,250.1297760,60.9007645,-250.1374054
3490,-19.6131992,-6.7468257,-7.2567883,250.1297760,-33.4198456,-250.1374054
3500,-19.6131992,-3.3925664,-8.8632889,250.1297760,-199.8015289,-250.1374054
3510,-19.6131992,1.1228749,-13.7019463,234.0992432,-250.1374054,-195.7938995
3520,-19.6131992,2.6288199,-18.9188843,158.3358765,-228.5419922,-60.5190849
3530,-19.6131992,2.8347204,-19.6131992,42.8702278,-55.4885483,73.2900772
3540,-19.6131992,3.1483591,-17.5613804,-71.2900772,132.8396912,178.0000000
3550,-19.6131992,2.8323262,-11.7004042,-138.8702240,234.6335907,233.8549652
3560,-19.6131992,2.3295465,-6.7180958,-158.5267181,237.4427490,250.1297760
3570,-19.6131992,2.0757623,-3.4835455,-141.4961853,174.4961853,250.1297760
3580,-18.9883175,2.5019281,-2.6312141,-108.7709961,89.1984711,250.1297760
3590,-15.5430775,2.9352763,-3.8307030,-81.8778610,29.7786255,250.1297760
3600,-11.8081427,3.1603301,-5.6191626,-73.8320618,14.4351149,250.1297760
3610,-8.7076674,3.0980811,-7.1490498,-85.6259537,37.3282433,250.1297760
3620,-5.4994531,2.7174051,-8.0253229,-111.8778610,83.4122162,250.1297760
3630,-2.8993635,1.9033806,-8.1713686,-148.7022858,138.6641235,250.1297760
3640,-0.4692611,0.3447633,-7.6230993,-191.7938995,181.2519073,250.1297760
3650,2.8610563,-1.0773853,-5.8322453,-231.9923706,202.6488495,250.1297760
3660,6.4427638,-2.5665710,-3.1507533,-250.1374054,200.1679382,250.1297760
3670,10.6780853,-3.1842721,0.1795642,-250.1374054,159.1526642,250.1297760
3680,17.1304264,-2.4947455,4.5154414,-250.1374054,78.3740463,250.1297760
3690,19.6126022,-0.1651991,9.8377247,-239.7251892,-21.5801525,250.1297760
3700,19.6126022,3.4811516,14.9205885,-182.1984711,-94.0229034,185.7251892
3710,19.6126022,5.3988972,17.6020813,-111.2366409,-102.8778610,47.3893127
3720,19.6126022,5.2648225,17.4608231,-45.4809151,-68.6488571,-78.7175598
3730,19.6126022,3.9408360,16.5462437,16.5725193,-56.5572510,-177.0076294
3740,19.6126022,2.8179610,14.5207586,75.8244247,-85.6946564,-246.0152740
3750,17.3291435,2.0039365,11.5543585,125.7633591,-118.5801544,-250.1374054
3760,13.7258883,2.0518203,7.6829538,160.1679382,-130.3053436,-250.1374054
3770,11.1617117,2.7389526,4.1994085,176.2290039,-116.6030502,-250.1374054
3780,9.5097208,3.4045374,1.6831152,175.4961853,-76.2366409,-250.1374054
3790,8.0492649,3.4739690,-0.0861908,167.4656525,-21.8473282,-250.1374054
3800,6.8689294,2.9376705,-1.1970947,160.6412201,31.6793900,-250.1374054
3810,5.1235652,1.2737088,-2.0733681,159.6259613,63.9847336,-250.1374054
3820,1.5346755,-1.3886299,-2.8179610,166.6106873,61.0687027,-250.1374054
3830,-4.3981261,-3.9982965,-3.1100521,181.4961853,21.8091602,-250.1374054
3840,-14.5327301,-5.4635406,-4.2640514,198.8625946,-59.0839691,-250.1374054
3850,-19.6131992,-4.7021880,-5.2384863,211.6412201,-189.5114441,-250.1374054
3860,-19.6131992,-1.4508789,-7.1275020,209.1068726,-250.1374054,-250.1374054
3870,-19.6131992,1.7740943,-10.3333216,177.8473358,-250.1374054,-250.1374054
3880,-19.6131992,3.1196289,-13.7091284,111.0992355,-250.1374054,-157.3587799
3890,-19.6131992,3.6774750,-14.9995966,14.1984730,-95.3358765,-11.3969469
3900,-19.6131992,3.6104376,-12.3779593,-80.0076370,82.7328262,111.4656525
3910,-19.6131992,2.9233053,-7.4555058,-132.5801544,174.2213745,192.9160309
3920,-19.6131992,2.5689652,-3.3015873,-141.3053436,177.7022858,239.1832123
3930,-19.6131992,2.3894010,-0.6512195,-122.3893127,123.8625946,250.1297760
3940,-16.7593269,2.6024840,0.0430954,-89.9694672,55.9847336,250.1297760
3950,-13.7809544,2.9999194,-0.9888002,-62.3358765,10.3664122,250.1297760
3960,-11.7315283,3.0597742,-2.4181314,-49.0534363,-3.7404580,250.1297760
3970,-9.4594421,2.9424589,-3.3782012,-51.3511467,7.8702292,250.1297760
3980,-6.7707677,2.5282640,-4.1587071,-65.0763321,43.4045792,250.1297760
3990,-4.3502421,2.0278785,-4.7452836,-89.1679382,93.8320618,250.1297760
4000,-2.0183017,1.2114599,-4.5585365,-121.3358765,142.7862549,250.1297760
4010,1.0606259,0.0694315,-3.2584918,-153.1679382,181.6412201,250.1297760
4020,4.8985114,-0.9409165,-1.3718705,-179.3664093,198.1297760,250.1297760
4030,9.2631187,-1.1587877,1.1396341,-191.6564941,174.3893127,250.1297760
4040,15.6603928,-0.4309541,4.6973996,-184.3053436,103.6488571,250.1297760
4050,19.6126022,1.5418580,8.5017672,-152.5343475,12.9160309,250.1297760
4060,19.6126022,3.9073172,11.4059181,-101.5038147,-54.3893127,197.8854980
4070,19.6126022,6.5074067,12.8113079,-47.2213745,-72.7175598,62.8396950
4080,19.6126022,6.3350253,13.1608591,0.1068702,-65.4656525,-66.4580154
4090,19.6126022,4.9990678,13.2805691,47.4351158,-67.6946564,-169.5038147
4100,19.6126022,3.6511390,12.3372583,97.3435135,-86.3893127,-245.6641235
4110,18.0641594,2.4516499,10.4769726,144.8167877,-106.2442780,-250.1374054
4120,13.5343533,2.2505381,7.5297260,181.0305328,-113.6793900,-250.1374054
4130,10.5464048,2.7126167,4.5274124,201.8854980,-96.9007645,-250.1374054
4140,8.2815018,2.9041519,1.3790531,208.1297760,-60.7175560,-250.1374054
4150,6.2272868,2.5617826,-1.6879035,202.2290039,-14.4580154,-250.1374054
4160,4.5776901,1.3048333,-3.7445123,190.3129730,27.3129768,-250.1374054
4170,2.8610563,-0.7158626,-4.9870968,180.1908417,51.7557259,-250.1374054
4180,-0.4908088,-2.8299320,-5.7436604,176.8473358,58.9236641,-250.1374054
4190,-7.2232695,-4.5154414,-6.8018923,178.9389343,38.2595406,-250.1374054
4200,-15.1552191,-4.5776901,-7.5345144,179.5343475,-17.7709923,-250.1374054
4210,-19.6131992,-2.9376705,-7.9918046,173.7099304,-91.0839691,-250.1374054
4220,-19.6131992,-0.7613522,-8.7723103,159.3587799,-173.5801544,-250.1374054
4230,-19.6131992,0.5722113,-9.6006994,140.3358765,-240.3740387,-209.8320618
4240,-19.6131992,2.0039365,-13.0196018,103.3358765,-211.0000000,-68.3664093
4250,-19.6131992,3.0334380,-16.4624462,31.5877857,-78.2137375,46.7938919
4260,-19.6131992,2.9352763,-15.9069948,-61.5725174,69.4427490,130.3664093
4270,-19.6131992,2.1882892,-10.8959560,-125.9618301,152.4198456,184.6183167
4280,-19.6131992,1.6735384,-6.1434903,-142.6106873,158.8931274,219.0458069
4290,-19.6131992,1.4796091,-2.8227494,-125.2977066,106.0992355,250.1297760
4300,-18.3394909,1.7214222,-1.6711442,-94.3206100,38.5343513,250.1297760
4310,-14.6117382,2.1475880,-1.9871773,-67.0534363,-4.7557254,250.1297760
4320,-11.2933912,2.1715298,-3.1531475,-53.9312973,-12.3816795,250.1297760
4330,-8.0277176,2.4708035,-4.4699516,-56.0610695,13.1526718,250.1297760
4340,-5.4324160,2.4731977,-5.0158267,-73.9542007,59.3511467,250.1297760
4350,-2.4971397,1.7980363,-4.4507980,-98.3282471,109.2977066,250.1297760
4360,0.8786675,1.1180865,-3.5457945,-122.5954208,153.6106873,250.1297760
4370,4.5609307,0.3758878,-1.9273225,-145.1221313,182.9465637,250.1297760
4380,8.8130112,-0.3184272,0.1675933,-159.1145020,180.9923706,250.1297760
4390,14.5590658,0.3016679,3.1459649,-154.8702240,156.1297760,250.1297760
4400,19.6126022,2.0613971,6.6558466,-139.8931274,134.4580078,250.1297760
4410,19.6126022,4.4603748,11.3269100,-113.5190811,114.3816757,250.1297760
4420,19.6126022,6.3230543,15.5071650,-67.3282471,95.0839691,148.5419922
4430,19.6126022,6.5983863,17.9157200,0.1832061,64.3893127,22.1068707
4440,19.6126022,5.6263452,16.6013088,82.0687027,7.8931298,-103.0305328
4450,19.6126022,4.5345950,11.7075863,152.1145020,-58.4351158,-205.3816833
4460,19.3977222,3.7852135,6.0477223,195.8854980,-113.8320618,-250.1374054
4470,15.0642405,3.8714044,0.9720409,211.9694672,-135.8015289,-250.1374054
4480,11.8464499,3.8498566,-3.0980811,206.5038147,-121.1832047,-250.1374054
4490,9.5959110,3.4189026,-5.4994531,187.2900696,-85.3358765,-250.1374054
4500,7.6374645,2.1308286,-6.3015065,165.9389343,-46.0534363,-250.1374054
4510,4.8171091,0.0047884,-6.2536230,152.1374054,-15.8396950,-250.1374054
4520,0.3471575,-2.5138988,-5.8442163,150.4274750,-2.1679389,-250.1374054
4530,-8.1234846,-3.8690102,-5.9232249,154.9541931,-3.9312978,-250.1374054
4540,-19.6131992,-3.5625539,-6.5648675,158.3435059,-60.2061081,-250.1374054
4550,-19.6131992,-2.0494261,-6.4020624,164.5801544,-196.0229034,-250.1374054
4560,-19.6131992,0.2154770,-8.3988171,170.9618378,-250.1374054,-250.1374054
4570,-19.6131992,3.9432299,-13.4625273,141.6488495,-250.1374054,-169.2442780
4580,-19.6131992,4.2927818,-17.1519737,65.2671738,-217.0610657,-74.9236679
4590,-19.6131992,3.5338237,-17.5853214,-39.4045792,-44.7099228,24.4580154
4600,-19.6131992,2.5210814,-13.6875811,-126.4427490,94.0000000,105.9770966
4610,-19.6131992,1.6184721,-7.9798336,-165.6717529,147.9236603,163.4274750
4620,-19.6131992,1.1611819,-4.2999644,-164.9084015,129.6488495,202.8549652
4630,-19.3474445,0.9720409,-2.0949159,-141.9770966,74.8396912,234.6259613
4640,-15.7729197,1.4269369,-1.4413021,-113.4503784,16.9541988,250.1297760
4650,-12.3013458,2.0829449,-1.8698620,-91.3053436,-11.0229006,250.1297760
4660,-9.7060442,2.3917952,-2.7341642,-81.5801544,-2.6793892,250.1297760
4670,-8.1689749,2.4420733,-3.6798692,-85.0610657,24.3740463,250.1297760
4680,-5.9830794,2.2577207,-4.5369892,-97.5725174,59.8931313,250.1297760
4690,-2.9855542,1.9345051,-5.3965030,-119.6793900,106.8015289,250.1297760
4700,0.0215477,1.6304430,-5.8490047,-151.7709961,167.2366486,250.1297760
4710,2.2146254,1.1013272,-5.3055239,-190.8244324,233.7480927,250.1297760
4720,3.6511390,0.2705434,-3.6511390,-229.6183167,250.1297760,250.1297760
4730,5.5018473,-0.5985473,-0.6105183,-250.1374054,250.1297760,250.1297760
4740,8.5951405,-1.1779412,2.4995339,-250.1374054,250.1297760,250.1297760
4750,14.1736012,-0.2274480,5.6407104,-250.1374054,205.6335907,250.1297760
4760,19.6126022,1.9201399,8.7770987,-222.6259613,99.1068726,250.1297760
4770,19.6126022,4.2472920,10.1800938,-171.3587799,12.5038166,164.3587799
4780,19.6126022,5.2336984,9.7682934,-120.7480927,-34.2290077,48.0839691
4790,19.6126022,5.8466105,9.5791521,-81.1145020,-56.1679382,-60.6717567
4800,19.6126022,5.9184365,10.3021975,-47.8091621,-71.1908417,-156.6946564
4810,19.6126022,5.1283536,11.3388815,-7.3206105,-90.7480927,-234.1221313
4820,17.3554802,4.6566987,11.0755205,39.8320618,-108.2519073,-250.1374054
4830,14.3388004,4.5729017,9.0141230,84.9923630,-119.2519073,-250.1374054
4840,11.7411051,4.6973996,6.1602492,115.6412201,-120.5419846,-250.1374054
4850,9.2798786,4.3239059,2.8873925,130.0610657,-117.4198456,-250.1374054
4860,6.9216018,3.0669568,0.1723816,129.8320618,-113.6488571,-250.1374054
4870,4.4914994,1.2521610,-1.0630201,121.6564865,-106.4351120,-250.1374054
4880,1.0917504,-0.8259954,-1.3455344,112.6946564,-92.9847336,-250.1374054
4890,-3.1315999,-2.5809362,-1.0247130,106.8625946,-78.0610657,-250.1374054
4900,-8.8872309,-3.2513094,-0.5434810,104.6030502,-68.9542007,-250.1374054
4910,-17.1783085,-3.0741394,1.1396341,107.1603088,-88.6183243,-250.1374054
4920,-19.6131992,-1.9177457,2.7605004,118.6946564,-147.4122162,-250.1374054
4930,-19.6131992,-0.4165890,2.2074428,134.6030579,-209.6870270,-250.1374054
4940,-19.6131992,1.6591733,-1.1516051,139.5190887,-220.4809113,-217.2595367
4950,-19.6131992,3.0262554,-5.9040713,112.6717529,-149.3587799,-87.2595444
4960,-19.6131992,3.2848279,-9.1314383,50.4961815,-36.2137413,41.7251892
4970,-19.6131992,3.3758070,-9.0907373,-17.5114498,57.9160309,154.6946564
4980,-19.6131992,3.4141142,-7.1298962,-64.0000000,118.1984711,234.3129730
4990,-19.6131992,3.1651185,-4.7692256,-87.2824402,134.4885559,250.1297760
5000,-18.3514614,3.2106080,-2.3726418,-92.3511429,109.6641235,250.1297760
5010,-16.0027618,3.5529771,-0.9002152,-81.7251892,71.9007645,250.1297760
5020,-14.0538921,3.7540891,-0.9983770,-68.1374054,42.8854980,250.1297760
5030,-11.9924946,3.2920105,-1.7764885,-62.8015251,29.1679382,250.1297760
5040,-9.1505919,2.8682389,-3.0980811,-68.5954208,38.4732819,250.1297760
5050,-6.0046272,2.0637913,-4.4891052,-88.5725174,72.4809189,250.1297760
5060,-3.3973548,1.0127422,-4.9703374,-121.6793900,120.3129807,250.1297760
5070,-0.9145803,-0.5219333,-4.6878228,-162.0000000,170.4122162,250.1297760
5080,1.9201399,-2.3702476,-3.2249732,-203.1908417,208.4045868,250.1297760
5090,5.9136481,-4.0126615,0.0191535,-233.0992432,203.7786255,250.1297760
5100,11.5256281,-4.4579806,4.2018023,-240.3053436,152.1755676,250.1297760
5110,19.6126022,-2.4636209,9.4211359,-218.6183167,50.6412201,250.1297760
5120,19.6126022,1.1324517,14.8343983,-166.5190887,-54.2900772,250.1297760
5130,19.6126022,4.5609307,18.0402184,-94.2519073,-109.0763321,161.7251892
5140,19.6126022,5.9687142,17.6739063,-23.4427490,-95.0916061,13.8473282
5150,19.6126022,6.1410961,15.7513723,31.8473282,-64.0381699,-127.5725174
5160,19.6126022,4.5537481,13.7019463,76.4732819,-81.9083939,-250.1374054
5170,19.6126022,2.6767037,11.6094246,115.4045792,-128.7938995,-250.1374054
5180,17.3147774,1.3886299,9.3684635,152.4961853,-166.9923706,-250.1374054
5190,11.5998478,1.3766589,6.8785062,180.0839691,-184.0839691,-250.1374054
5200,7.3118544,2.1619530,3.4141142,191.0152740,-178.6641235,-250.1374054
5210,4.1539187,3.0597742,-0.2154770,182.3129730,-147.8854980,-250.1374054
5220,2.1116750,3.4715748,-3.4284792,155.6641235,-94.9465637,-250.1374054
5230,0.2418131,3.0573800,-4.6997938,120.7175598,-38.3740463,-250.1374054
5240,-1.9009864,2.1787124,-4.8530221,90.5114517,10.7862597,-250.1374054
5250,-5.2384863,1.1803354,-4.6710634,71.4809189,45.6946564,-250.1374054
5260,-10.2231894,0.3327923,-4.0389977,62.8320618,54.4885483,-250.1374054
5270,-17.4320927,0.1939293,-2.6072724,62.5190849,23.3053436,-250.1374054
5280,-19.6131992,0.6153067,-1.0247130,74.3358765,-48.9312973,-250.1374054
5290,-19.6131992,1.8076130,-0.8044477,92.1832047,-126.4122162,-250.1374054
5300,-19.6131992,3.3949606,-2.3295465,101.8320618,-168.1145020,-196.6946564
5310,-19.6131992,4.1634955,-5.2265158,85.8854980,-142.2366486,-94.4732819
5320,-19.6131992,4.4412212,-7.2639709,45.3511467,-69.9618301,11.2748089
5330,-19.6131992,4.5824785,-7.3836803,-5.3282442,14.6412210,110.9694672
5340,-19.6131992,4.5226240,-6.1530671,-45.2900772,77.1221390,188.8854980
5350,-19.6131992,4.3095412,-4.3741841,-68.3664093,107.2213745,243.4198456
5360,-18.7369270,4.4388270,-2.6647329,-76.5954208,106.3358765,250.1297760
5370,-16.6611652,4.4555864,-1.4053892,-75.1068726,87.4427490,250.1297760
5380,-14.4585104,4.1658897,-0.7302278,-67.5954208,66.6030502,250.1297760
5390,-11.9877062,3.8905578,-0.8475431,-60.4503822,59.8244286,250.1297760
5400,-9.6581602,3.3494711,-0.9289455,-60.1755714,69.4045792,250.1297760
5410,-7.3118544,2.6503677,-0.7421987,-66.9465637,88.0839691,250.1297760
5420,-4.7333126,1.7956421,-0.5434810,-75.3358765,111.1145020,250.1297760
5430,-1.1516051,1.0486550,-0.7924767,-86.1603088,138.7938995,250.1297760
5440,2.3917952,0.6416427,-1.0845678,-102.3206100,164.7328186,250.1297760
5450,5.6622581,0.3280039,-0.8020535,-121.9236679,175.7251892,250.1297760
5460,9.7467451,0.4955972,0.6081241,-137.0076294,156.0534363,250.1297760
5470,15.8471403,1.5179161,3.0717452,-140.6564941,106.5725174,250.1297760
5480,19.6126022,3.2896163,5.9758968,-128.6259613,42.7633591,250.1297760
5490,19.6126022,5.0110383,8.6789370,-102.1450348,-15.0305347,222.3511505
5500,19.6126022,6.2751703,10.2351599,-65.6641235,-46.1908379,93.5190811
5510,19.6126022,5.9375896,9.8975792,-29.0381680,-56.7175560,-33.6564903
5520,19.6126022,4.6064205,9.0332766,3.2748091,-78.9007645,-142.9313049
5530,19.6126022,3.3183465,8.3174143,30.0763359,-132.6946564,-222.4961853
5540,18.4831429,1.9799947,7.8146343,54.0992355,-180.2595367,-250.1374054
5550,14.9684725,1.7597293,6.8042865,77.6870193,-196.3358765,-250.1374054
5560,12.4928808,2.3941894,5.2145448,95.1832047,-174.9694672,-250.1374054
5570,10.5392218,3.2153964,3.4907281,103.0534363,-131.6106873,-250.1374054
5580,9.5073261,3.9719603,1.8507085,100.7938919,-75.9083939,-250.1374054
5590,8.6502066,4.4364328,0.4788379,100.2900772,-17.1908398,-250.1374054
5600,7.6039457,3.9552009,-0.6081241,97.1297684,29.9007626,-250.1374054
5610,6.1794028,2.4947455,-1.9799947,96.5877838,58.4732819,-250.1374054
5620,4.3334827,-0.0167593,-2.9783716,97.8702316,63.9694672,-250.1374054
5630,2.3175755,-3.1076579,-3.3853838,101.7480927,56.8015251,-250.1374054
5640,-1.3191984,-5.7292953,-3.0621684,112.8244247,43.5190849,-250.1374054
5650,-7.9989872,-7.0724359,-3.0525916,124.1603088,29.6183205,-250.1374054
5660,-19.6131992,-5.5473371,-2.7150109,129.7404633,3.6412213,-250.1374054
5670,-19.6131992,-1.6376256,-1.7094513,132.0915985,-71.0534363,-250.1374054
5680,-19.6131992,-1.4077834,-1.9153515,144.2977142,-200.5801544,-250.1374054
5690,-19.6131992,1.3790531,-4.2903876,160.1526642,-250.1374054,-110.3282471
5700,-19.6131992,4.0485744,-10.5535870,139.4503784,-237.8015289,18.2137413
5710,-19.6131992,5.2935529,-14.9780493,62.2213745,-75.5267181,112.6030502
5720,-18.0593719,5.1906028,-15.1719790,-43.8625946,99.9465637,179.2137451
5730,-16.1799316,4.5872669,-10.9534168,-127.5877838,217.1679382,224.8625946
5740,-15.9381189,3.7540891,-6.5361371,-166.4656525,250.1297760,250.1297760
5750,-16.4073811,3.1148405,-3.6271970,-176.0686951,250.1297760,250.1297760
5760,-15.4544926,2.8778157,-1.6472024,-169.2519073,206.9236603,250.1297760
5770,-12.8160963,2.5306582,-0.4716553,-156.6870270,163.6946564,250.1297760
5780,-10.1729107,2.0637913,-0.3758878,-148.7251892,142.3893127,250.1297760
5790,-7.1897511,1.2784972,-0.5602403,-149.6641235,141.1679382,250.1297760
5800,-3.5362179,0.0909792,-1.1587877,-160.9847260,160.6564941,250.1297760
5810,-0.6584021,-0.9983770,-1.4389079,-181.6488495,195.5114441,250.1297760
5820,2.1284344,-2.0206959,-0.9169745,-210.2137451,222.5114441,250.1297760
5830,4.6040263,-2.9185169,0.6679789,-236.3816833,224.9236603,250.1297760
5840,7.7475972,-3.5194585,2.9280937,-250.1374054,189.2290039,250.1297760
5850,13.1177645,-2.1882892,6.2512288,-244.9236603,114.2595444,250.1297760
5860,19.6126022,0.7565638,10.7475166,-217.2061005,15.0076332,250.1297760
5870,19.6126022,4.2089849,15.3467541,-164.0610657,-65.9847336,208.5343475
5880,19.6126022,6.8545642,18.1168308,-92.9618301,-76.0839691,75.0381699
5890,19.6126022,6.7061248,17.7481270,-23.3358784,-30.3435116,-57.0687027
5900,19.6126022,5.3869262,16.2182388,39.6335869,-11.2519083,-167.3053436
5910,18.5022964,4.3550305,14.1975431,98.7633591,-66.0000000,-247.1374054
5920,13.7857428,3.3877780,12.1313581,153.4656525,-142.0534363,-250.1374054
5930,9.9789820,2.7269819,8.8585014,203.8702240,-205.3435059,-250.1374054
5940,7.5488791,3.5936785,5.4372044,237.0076294,-237.4198456,-250.1374054
5950,5.3605900,3.9815371,2.1811066,248.8854980,-242.3740387,-250.1374054
5960,3.2369442,3.9336534,-1.6017127,238.4274750,-222.2824402,-250.1374054
5970,1.3191984,3.3686244,-4.8218975,208.9465637,-178.9160309,-250.1374054
5980,-0.0167593,2.7102225,-7.1562324,166.7557220,-121.4580154,-250.1374054
5990,-1.9416877,2.3846128,-8.1761570,121.7557220,-56.1908379,-250.1374054
6000,-5.8250628,1.8052188,-8.2264347,84.7938919,4.5877862,-250.1374054
6010,-11.8584204,1.8698620,-7.9295554,55.6106873,41.7480927,-250.1374054
6020,-19.0170460,3.0382264,-7.4076223,35.4045792,43.9541969,-250.1374054
6030,-19.6131992,3.9312592,-6.9934273,20.0152664,-0.4351145,-244.7404633
6040,-19.6131992,4.2568688,-5.8681583,16.9465656,-100.6641235,-137.2290039
6050,-19.6131992,5.2767935,-6.9886389,18.9083977,-161.8244324,-34.8167953
6060,-19.6131992,6.4786768,-9.7180147,-2.4503818,-118.2977066,49.2061081
6070,-18.9308567,6.1626434,-11.2167778,-56.5572510,-10.9312973,118.2290039
6080,-16.4121685,5.8466105,-9.3493099,-121.0305328,98.1221390,173.6946564
6090,-14.7625723,5.4180508,-5.9711084,-160.8015289,171.4198456,210.6488495
6100,-14.6093445,4.9559722,-3.0118904,-172.9313049,201.0000000,238.3816833
6110,-14.2861280,4.6207857,-1.1563935,-168.8778687,187.4198456,250.1297760
6120,-12.6006193,4.3119354,-0.1987177,-157.7938995,152.9541931,250.1297760
6130,-10.4793673,4.1012464,0.1101327,-147.3053436,126.1603088,250.1297760
6140,-8.2024927,3.5601597,-0.0119709,-146.0610657,122.0229034,250.1297760
6150,-5.7652082,2.7988074,-0.0047884,-154.1221313,139.3664093,250.1297760
6160,-3.3901722,1.7190280,0.2873027,-168.4045868,168.3816833,250.1297760
6170,-0.8595140,0.8355721,0.5841822,-186.0458069,198.6946564,250.1297760
6180,1.2258250,-0.1987177,1.3263810,-205.2366486,217.4885559,250.1297760
6190,3.2537034,-1.3598996,2.9951310,-220.6335907,212.0152740,250.1297760
6200,6.0692701,-2.4708035,5.1115947,-225.8931274,176.9694672,250.1297760
6210,10.5416164,-2.3151813,7.6661944,-216.8702240,114.9542007,250.1297760
6220,17.3387203,-0.4333483,11.0156660,-194.1832123,51.0992355,250.1297760
6230,19.6126022,2.0925217,14.5159702,-159.0305328,31.0534344,250.1297760
6240,19.6126022,4.1323709,17.4656124,-116.9083939,66.7557220,160.3740387
6250,19.6126022,5.8992829,19.6126022,-66.3129807,135.4885559,60.7633591
6260,19.6126022,6.4523406,19.6126022,1.2595420,170.0381622,-33.1450386
6270,19.6126022,6.1578555,19.6126022,90.3358765,140.8549652,-119.2595444
6280,17.6643295,4.6566987,18.7656574,183.8625946,72.5190811,-198.2671814
6290,13.5846310,3.6319854,14.5375185,250.1297760,3.2213740,-250.1374054
6300,10.5751352,3.2584918,10.2950144,250.1297760,-56.7786255,-250.1374054
6310,8.3988171,3.2656744,5.4587522,250.1297760,-95.8625946,-250.1374054
6320,6.8401995,2.7317703,0.6464311,250.1297760,-108.6412201,-250.1374054
6330,5.2791877,1.5466464,-3.0190730,250.1297760,-102.7557220,-250.1374054
6340,2.6360025,0.0885850,-5.3629842,250.1297760,-88.9083939,-250.1374054
6350,-1.5897418,-1.2210367,-7.2017217,250.1297760,-78.0000000,-250.1374054
6360,-8.1450329,-1.3982066,-8.8417416,250.1297760,-77.9542007,-250.1374054
6370,-18.5765152,-0.2082945,-10.3524752,250.1297760,-111.7404556,-250.1374054
6380,-19.6131992,2.5234756,-10.7259684,234.7251892,-202.6793823,-250.1374054
6390,-19.6131992,5.4587522,-10.8959560,208.5725250,-250.1374054,-250.1374054
6400,-19.6131992,6.4571290,-12.8855276,172.4198456,-250.1374054,-195.6870270
6410,-19.6131992,6.8713236,-14.5327301,113.8015289,-250.1374054,-65.6106873
6420,-19.6131992,6.5313487,-14.9588957,33.4045792,-119.8549652,62.5267181
6430,-19.6131992,6.7109132,-13.1824074,-44.1526718,4.6564884,163.6870270
6440,-19.6131992,6.7180958,-10.2447367,-99.6412201,92.4961853,229.0458069
6450,-18.5190563,5.6167684,-6.7803445,-127.8396912,124.3740463,250.1297760
6460,-16.4744167,4.7021880,-4.8386569,-135.6641235,118.7633591,250.1297760
6470,-13.8551741,4.3981261,-4.4053087,-133.2442780,96.2977066,250.1297760
6480,-10.5248566,4.0677280,-4.6878228,-132.0305328,84.7862625,250.1297760
6490,-7.8385763,3.7708483,-5.3031297,-140.3053436,88.7328262,250.1297760
6500,-5.0445571,3.0932927,-5.6790175,-159.2137451,109.9618301,250.1297760
6510,-2.5450234,2.3726418,-5.3893204,-184.0686951,139.2290039,250.1297760
6520,-0.3854645,1.2928623,-4.6016321,-210.2977142,172.8625946,250.1297760
6530,1.5993185,-0.2992737,-3.5098817,-239.3969421,202.9160309,250.1297760
6540,4.5058646,-1.9560528,-1.5993185,-250.1374054,204.0610657,250.1297760
6550,9.7706871,-2.7150109,1.0247130,-250.1374054,155.8167877,250.1297760
6560,18.1359844,-1.8674678,4.8889351,-250.1374054,55.5801544,250.1297760
6570,19.6126022,0.8116302,10.2423429,-234.8091583,-68.0916061,234.3435059
6580,19.6126022,3.8426740,15.2845058,-172.2061005,-139.9541931,97.2748108
6590,19.6126022,4.1898317,17.2333755,-102.4198456,-135.4427490,-37.8167953
6600,19.6126022,3.5003049,17.6547527,-41.4580154,-97.2900772,-153.8625946
6610,19.6126022,2.7221935,17.4320927,18.4580154,-84.7099228,-240.6259613
6620,18.1024666,1.9680238,16.0602226,75.7251892,-108.1068726,-250.1374054
6630,13.2398672,1.4413021,14.0562859,127.8015289,-140.8473358,-250.1374054
6640,9.7706871,1.6112895,10.8097658,171.3969421,-158.1832123,-250.1374054
6650,7.0508881,2.1643472,7.2950954,198.8320618,-158.6335907,-250.1374054
6660,5.6000090,3.0478032,4.1754665,208.2671814,-143.2671814,-250.1374054
6670,4.3191175,3.7181761,1.1611819,202.7557220,-111.1297684,-250.1374054
6680,3.0861101,3.4212968,-0.9002152,187.3358765,-75.9923630,-250.1374054
6690,1.3168042,2.5785420,-2.2649033,170.7022858,-48.0000000,-250.1374054
6700,-1.9321109,1.1755470,-3.3207407,157.8320618,-37.2595406,-250.1374054
6710,-7.2687593,0.0047884,-3.9767487,149.9007568,-59.6412201,-250.1374054
6720,-14.0419216,-0.1604107,-4.1491303,147.0458069,-118.8167953,-250.1374054
6730,-19.6131992,0.7637464,-4.5106530,144.8778687,-203.1297760,-250.1374054
6740,-19.6131992,2.2840567,-4.8386569,140.6717529,-250.1374054,-250.1374054
6750,-19.6131992,4.3071470,-6.1315193,128.1145020,-250.1374054,-237.3969421
6760,-19.6131992,5.4372044,-8.1546097,91.8702316,-250.1374054,-118.0839691
6770,-19.6131992,5.3318601,-9.0284882,27.0534344,-134.6641235,13.6488552
6780,-19.6131992,5.1977854,-7.5249376,-39.7480927,9.8778629,133.9084015
6790,-19.6131992,4.8147149,-4.4843168,-83.0610657,105.7938919,221.8091583
6800,-19.6131992,4.1299767,-1.6974803,-96.8167953,134.5725250,250.1297760
6810,-18.4927197,3.4356618,0.0215477,-91.1450348,112.3206100,250.1297760
6820,-15.0474806,2.9448531,0.1915352,-72.8854980,70.8244247,250.1297760
6830,-11.5735121,2.7724714,-1.0151364,-56.7404594,43.2061081,250.1297760
6840,-8.8369532,2.5450234,-2.6288199,-54.5267181,45.4122124,250.1297760
6850,-6.4571290,1.9752063,-4.1539187,-70.6183243,70.7709961,250.1297760
6860,-3.5146701,1.1444225,-4.6159973,-98.8702316,106.7633591,250.1297760
6870,-0.8116302,-0.0143651,-4.3191175,-131.1832123,146.0686951,250.1297760
6880,2.3175755,-1.3000449,-3.4284792,-166.1145020,174.8015289,250.1297760
6890,6.4978304,-2.4372849,-1.4939742,-193.9541931,173.3053436,250.1297760
6900,12.7634239,-2.5498118,1.6591733,-203.9084015,122.1068726,250.1297760
6910,19.6126022,-0.1675933,5.2432747,-195.3053436,43.0763359,250.1297760
6920,19.6126022,3.2704628,9.2798786,-170.2824402,-18.9312973,250.1297760
6930,19.6126022,5.0804701,12.9405937,-132.3053436,-39.3664131,123.7099228
6940,19.6126022,5.0445571,15.2150736,-85.8473282,-29.9236641,-10.8091602
6950,19.6126022,3.7612717,16.5821552,-27.1374054,-33.2366409,-123.6946564
6960,19.6126022,2.7772598,16.0243092,36.5725174,-69.3053436,-208.6106873
6970,17.9636040,2.0159075,14.0754395,96.0229034,-117.0229034,-250.1374054
6980,13.3236647,1.8243724,11.4202833,142.1755676,-147.9313049,-250.1374054
6990,10.1585455,2.5067163,8.4012108,172.3206177,-149.7709961,-250.1374054
7000,7.4722652,3.4189026,5.4707227,187.1832123,-124.3893127,-250.1374054
7010,5.4898763,4.2640514,2.6288199,189.4198456,-79.8778610,-250.1374054
7020,4.0006905,4.7620430,0.4884146,180.9313049,-28.4274807,-250.1374054
7030,2.6048782,4.5010762,-1.6041069,166.3969421,19.2824421,-250.1374054
7040,1.0678085,3.8307030,-3.0430148,152.2977142,57.9618340,-250.1374054
7050,-1.4939742,2.8227494,-4.3909435,141.6335907,81.4045792,-250.1374054
7060,-4.6423335,2.0183017,-5.7077475,132.2061005,90.9542007,-250.1374054
7070,-9.2032642,1.9776005,-6.7851329,121.8931274,93.0916061,-250.1374054
7080,-16.5199070,2.7389526,-7.2927012,108.1908417,87.0229034,-250.1374054
7090,-19.6131992,3.8929520,-7.1993275,92.2748108,57.4122124,-250.1374054
7100,-19.6131992,4.8697815,-6.9670911,79.5648880,8.2977095,-169.0458069
7110,-19.6131992,5.4443870,-7.3357964,69.5954208,-24.4351139,-52.9694672
7120,-19.6131992,6.4020624,-9.0787668,48.1450386,-2.9618320,58.1755714
7130,-19.6131992,6.8713236,-10.9725704,6.4580154,70.2748108,151.2519073
7140,-18.9069138,6.6271162,-11.3867655,-50.4732819,157.0534363,226.6030579
7150,-15.3659077,6.1865854,-10.1034794,-105.9847336,225.0152740,250.1297760
7160,-13.3308468,5.3821378,-8.0612354,-149.8549652,250.1297760,250.1297760
7170,-12.0667152,4.7261300,-5.5066357,-176.9847260,250.1297760,250.1297760
7180,-10.4147243,3.9887197,-3.2465210,-189.1145020,245.6717529,250.1297760
7190,-8.5185261,3.3111639,-1.6136837,-189.8396912,207.6412201,250.1297760
7200,-6.2775645,2.2481439,-0.8834559,-186.1450348,170.1068726,250.1297760
7210,-3.7397239,0.7589580,-0.9073978,-186.6793823,135.6564941,250.1297760
7220,-0.6919208,-0.7924767,-0.6344602,-191.6717529,87.6641235,250.1297760
7230,2.6623387,-2.6910689,-0.1077385,-193.1526642,1.0458015,250.1297760
7240,9.1051025,-3.0238612,1.2018831,-176.1145020,-121.8778610,250.1297760
7250,16.1344433,-1.2138541,2.5354466,-139.1908417,-234.2595367,250.1297760
7260,19.6126022,1.7788827,3.4907281,-103.1679382,-250.1374054,250.1297760
7270,19.6126022,5.4850879,5.2696109,-80.2748108,-250.1374054,163.6183167
7280,19.6126022,7.1298962,7.6853480,-72.9923630,-178.0152740,61.3664131
7290,19.6126022,9.2487535,10.6613255,-69.7328262,-48.4351158,-41.0687027
7300,19.6126022,7.2208753,14.2717638,-44.0305328,31.5343513,-134.4503784
7310,19.6126022,5.3151007,15.5574427,14.9007635,31.6870232,-206.7862549
7320,15.5311069,3.8977404,14.8631277,87.7328262,-15.3740454,-250.1374054
7330,10.8480721,3.1603301,12.4521790,161.9847260,-83.1450348,-250.1374054
7340,7.1275020,3.4332676,8.6454182,227.3969421,-143.3969421,-250.1374054
7350,4.9894910,4.6926112,3.8426740,250.1297760,-178.2824402,-250.1374054
7360,3.8139439,5.8992829,-0.9265513,250.1297760,-185.2900696,-250.1374054
7370,2.5378408,6.3206601,-5.5712790,250.1297760,-165.7328186,-250.1374054
7380,1.0630201,6.4068508,-9.2296000,214.4885559,-130.0839691,-250.1374054
7390,-1.2066715,6.2224984,-11.6980095,169.0992432,-90.3206100,-250.1374054
7400,-5.1163831,5.9136481,-12.8208847,121.2213745,-60.8549614,-250.1374054
7410,-9.5121145,6.0213866,-12.6293497,79.9007645,-55.5648842,-250.1374054
7420,-14.9062233,6.4092450,-11.9039097,47.7404594,-69.5038147,-250.1374054
7430,-19.6131992,6.8449879,-10.9270811,21.4045811,-107.5572510,-245.3816833
7440,-19.6131992,7.6398587,-9.4618368,2.5954199,-153.7099304,-177.1374054
7450,-19.6131992,7.8888540,-8.6909075,-14.7251911,-157.3664093,-95.7862625
7460,-19.6131992,7.6877422,-8.4562769,-37.6717567,-110.7404556,-7.1984735
7470,-19.6131992,7.6973190,-7.7332320,-69.0152664,-34.8396950,81.7099228
7480,-19.6131992,7.3405848,-6.5241661,-100.7022934,43.7709923,160.7709961
7490,-19.6131992,6.3541789,-5.0397687,-125.8091583,107.9389343,231.5877838
7500,-18.0090923,5.1977854,-3.2728570,-140.6412201,143.5648804,250.1297760
7510,-15.0259333,4.1467361,-1.3694763,-146.5496216,158.4656525,250.1297760
7520,-11.6812506,3.1052637,0.0454896,-144.8625946,165.5038147,250.1297760
7530,-8.1378498,2.2744799,0.9385223,-140.7328186,176.0305328,250.1297760
7540,-5.0206151,1.4796091,0.9888002,-138.7938995,193.1526642,250.1297760
7550,-1.7238164,0.7374104,0.6009415,-143.3282471,212.7251892,250.1297760
7560,1.7693061,0.0047884,0.5291159,-154.3740387,219.0229034,250.1297760
7570,6.1650376,-0.3136388,1.0055596,-166.1984711,194.0686951,250.1297760
7580,12.0116482,0.5027798,2.8490853,-169.6564941,129.4503784,250.1297760
7590,18.4591999,2.1811066,5.9711084,-157.4351196,43.6870232,250.1297760
7600,19.6126022,3.8235207,9.3253679,-129.1145020,-30.2900772,209.5419922
7610,19.6126022,5.1139889,11.5088692,-86.4961853,-64.2442780,102.0457993
7620,19.6126022,5.4180508,11.7267399,-38.3129768,-51.7938919,-9.3282442
7630,19.6126022,4.6423335,11.0132713,7.3893127,-31.8244267,-112.3740463
7640,19.6126022,4.2544746,10.5655584,48.2366409,-48.0610695,-186.4885559
7650,17.1088772,3.9480183,10.1657286,91.2061081,-93.1679382,-238.2137451
7660,14.1783895,3.9216824,8.7890692,136.4580078,-133.1068726,-250.1374054
7670,11.0348196,4.1587071,6.6486640,176.3282471,-156.7709961,-250.1374054
7680,8.3389616,4.5992379,4.1036406,200.5801544,-162.4961853,-250.1374054
7690,5.4874821,5.2743993,1.0941446,207.8702240,-151.0305328,-250.1374054
7700,3.3949606,5.3558016,-1.9440818,197.4122162,-126.6641235,-250.1374054
7710,1.9081690,4.8338685,-3.8833754,172.7022858,-100.3587799,-250.1374054
7720,0.1484398,4.0030847,-4.8578105,147.2137451,-76.9083939,-250.1374054
7730,-2.9783716,3.1986370,-5.6550756,127.1297684,-60.0610695,-250.1374054
7740,-7.2232695,3.0621684,-6.2679882,108.3816757,-53.4045792,-250.1374054
7750,-12.1600885,3.5386121,-6.6462698,91.2595444,-59.6412201,-250.1374054
7760,-18.3897686,4.5633249,-7.1346846,72.7557220,-73.1679382,-250.1374054
7770,-19.6131992,5.3677726,-7.4674768,55.3435097,-104.3740463,-218.2748108
7780,-19.6131992,6.7564025,-7.7906923,41.4045792,-132.5038147,-125.4198456
7790,-19.6131992,7.1083484,-8.8249826,20.4274807,-106.5496216,-28.5801525
7800,-19.6131992,7.2208753,-10.0029240,-15.4045801,-30.8167934,59.5877876
7810,-19.4336357,6.8210459,-9.6078825,-62.0763359,44.0992355,136.5954132
7820,-16.5103302,6.1674318,-7.8194227,-99.5954208,91.1221390,193.8320618
7830,-14.1712074,5.4755111,-5.4395986,-122.9770966,121.2290039,234.0763397
7840,-12.7442703,4.5992379,-3.5122759,-134.7099304,136.1832123,250.1297760
7850,-11.4753504,3.9121056,-2.3079987,-140.0763397,135.2595367,250.1297760
7860,-9.8927908,3.7253587,-1.1994889,-141.4656525,124.1450348,250.1297760
7870,-7.9008250,3.5769191,0.0383070,-138.3511505,112.8473282,250.1297760
7880,-5.8083038,3.1555417,0.9145803,-131.9541931,106.7099228,250.1297760
7890,-3.2944047,2.1739240,1.1109039,-125.3816757,101.9618301,250.1297760
7900,0.0119709,1.4053892,1.1683644,-117.4427490,79.6259537,250.1297760
7910,4.6997938,0.6248835,0.9480990,-104.7328262,31.9465656,250.1297760
7920,11.1880474,1.6687500,0.4884146,-88.0763321,-26.2519093,250.1297760
7930,18.5980644,4.0150557,-0.0478838,-76.4580154,-68.8702316,250.1297760
7940,19.6126022,6.7157016,0.2202654,-75.8396912,-83.0000000,236.1145020
7950,19.6126022,8.2072811,1.6831152,-82.9312973,-60.2213745,138.0000000
7960,19.6126022,7.5273318,4.4986820,-85.6488571,-14.0381680,39.6106873
7970,19.6126022,7.5297260,7.4555058,-69.3511429,30.8625946,-51.6335869
7980,19.6126022,6.3134775,10.0771437,-27.5572510,36.8625946,-130.6488495
7990,19.3163204,5.6407104,10.7379398,31.7557259,11.1832066,-193.4656525
8000,15.0426922,5.2384863,9.5791521,90.6488571,-27.5801525,-239.7557220
8010,11.5256281,5.1020179,7.3429790,138.4045868,-71.3969498,-250.1374054
8020,8.4395180,5.4132624,4.8290801,168.3511505,-103.2519073,-250.1374054
8030,5.9663200,5.6598639,2.0494261,181.0763397,-120.2595444,-250.1374054
8040,3.9480183,5.4036856,-0.1915352,179.8244324,-123.5954208,-250.1374054
8050,2.2505381,4.6279683,-2.0159075,169.5954132,-114.0992355,-250.1374054
8060,0.0191535,3.7995787,-3.6439564,154.3664093,-95.5801544,-250.1374054
8070,-3.4189026,2.8035958,-5.2073622,136.4503784,-78.2900772,-250.1374054
8080,-7.9391322,2.4540441,-6.2536230,114.5801544,-75.1068726,-250.1374054
8090,-15.1264887,2.8203552,-6.8569584,92.8320618,-93.5114517,-250.1374054
8100,-19.6131992,4.3454537,-7.0963774,72.9542007,-149.2290039,-250.1374054
8110,-19.6131992,4.8314743,-6.6223278,61.6488533,-213.3893127,-233.9694672
8120,-19.6131992,5.4731169,-7.2376347,50.4961815,-225.7099304,-132.4503784
8130,-19.6131992,6.2967181,-8.0708122,26.3969460,-157.5496216,-29.2366409
8140,-19.6131992,6.8976598,-8.4419117,-17.7938938,-32.4351158,71.4961853
8150,-19.6131992,6.6941538,-7.0844064,-67.0839691,79.1755753,155.4580078
8160,-18.8781834,6.2727766,-4.4795284,-97.1679382,145.1145020,215.0534363
8170,-17.9779682,5.3821378,-2.1882892,-104.3587799,158.7404633,250.1297760
8180,-17.0274754,4.2592630,-0.9337339,-95.2748108,132.7938995,250.1297760
8190,-14.4178085,3.4308734,-0.6009415,-80.0992355,99.0076370,250.1297760
8200,-11.6285782,2.9592183,-1.2593436,-69.3664093,82.8702316,250.1297760
8210,-8.7363977,2.4037662,-1.7549409,-68.8396912,86.7099228,250.1297760
8220,-6.0381460,1.6232605,-2.1499822,-77.5496216,109.5038147,250.1297760
8230,-3.5386121,0.9433106,-2.4061604,-93.3893127,149.0152740,250.1297760
8240,-1.9009864,0.1125269,-2.1667414,-116.4656525,195.5572510,250.1297760
8250,0.4070122,-1.1061156,-1.0630201,-143.2977142,233.4503784,250.1297760
8260,3.5841017,-1.7166338,0.6775556,-165.9084015,250.1297760,250.1297760
8270,7.9080076,-1.6974803,3.1315999,-181.0076294,250.1297760,250.1297760
8280,12.8400383,-1.3431402,5.7197185,-187.8702240,250.1297760,250.1297760
8290,18.8805771,-0.3471575,9.1027079,-182.7251892,211.3893127,250.1297760
8300,19.6126022,1.2162483,14.2166967,-154.1984711,132.3816833,250.1297760
8310,19.6126022,2.6527619,19.2420998,-86.3129807,42.2748108,170.5038147
8320,19.6126022,1.0917504,19.4839134,15.2671757,-49.6564903,41.3206100
8330,19.6126022,0.5769997,13.5630836,110.3435135,-123.4503784,-67.1374054
8340,19.6126022,1.8219782,8.6047173,167.6030579,-189.8549652,-160.9618378
8350,19.6126022,2.1906834,4.2784166,183.2595367,-248.0458069,-232.3511505
8360,19.6126022,2.4372849,1.3000449,176.3053436,-250.1374054,-250.1374054
8370,17.5589848,2.9496415,-0.2657550,162.1145020,-238.0839691,-250.1374054
8380,14.5542774,3.5194585,-1.0175306,147.9694672,-195.3282471,-250.1374054
8390,11.5567522,4.1371593,-1.6112895,133.8320618,-149.8778687,-250.1374054
8400,9.4067707,5.0541339,-2.4947455,119.4198456,-107.0763321,-250.1374054
8410,7.6733770,5.7460546,-3.1028695,105.6030502,-72.6106873,-250.1374054
8420,5.7676024,5.6191626,-3.2704628,92.9770966,-49.2671738,-250.1374054
8430,3.4667864,4.7955613,-3.7469065,83.0992355,-39.0076332,-250.1374054
8440,0.9385223,3.9432299,-4.3023586,73.8244247,-45.9923668,-250.1374054
8450,-2.7581062,2.8275378,-4.8673873,64.1221390,-69.1603088,-250.1374054
8460,-7.9415264,2.3056045,-4.8027439,55.9160309,-108.7786255,-250.1374054
8470,-13.7474356,2.5713594,-4.6806402,51.1450386,-158.3206177,-250.1374054
8480,-18.7776279,3.6128318,-5.0134325,47.0916023,-207.1679382,-250.1374054
8490,-19.6131992,5.6909885,-6.0094156,36.8473282,-228.8320618,-250.1374054
8500,-19.6131992,7.2400289,-6.6869712,16.1832066,-201.5190887,-186.3129730
8510,-19.6131992,7.6422529,-7.1203194,-18.3282452,-122.3129807,-80.3511429
8520,-19.6131992,7.5632443,-6.9814563,-60.8625946,-14.6335878,26.1450386
8530,-19.6131992,7.6398587,-5.2025738,-96.8091583,78.5267181,117.5419846
8540,-19.6131992,6.9383612,-3.3039815,-115.7557220,132.2213745,186.4122162
8550,-18.1838684,6.3326311,-1.5107336,-114.6335907,155.6488495,243.0839691
8560,-16.0985298,5.5114241,-0.1843526,-108.0687027,151.8015289,250.1297760
8570,-13.3595772,4.8027439,0.3615226,-96.4274826,145.3816833,250.1297760
8580,-10.3907824,3.9815371,-0.0191535,-86.8015289,156.3587799,250.1297760
8590,-7.4052281,3.3949606,-1.1827296,-85.9007645,184.6335907,250.1297760
8600,-4.8649931,3.0310438,-2.4109488,-98.9847336,220.8854980,250.1297760
8610,-2.5426292,2.2792683,-2.6671271,-123.2061081,250.1297760,250.1297760
8620,-0.9433106,1.2593436,-2.4253139,-152.1603088,250.1297760,250.1297760
8630,1.1779412,0.4548960,-1.3455344,-179.7786255,250.1297760,250.1297760
8640,4.0126615,-0.4333483,0.2968795,-199.1755676,250.1297760,250.1297760
8650,8.6382351,-0.3926471,2.4301023,-206.8625946,244.7557220,250.1297760
8660,14.5111818,0.5147507,5.5233951,-199.3511505,160.6870270,250.1297760
8670,19.6126022,1.7501525,9.2008705,-173.3740387,57.9618340,250.1297760
8680,19.6126022,3.0382264,13.1871958,-127.1145020,-38.1679382,186.6488495
8690,19.6126022,3.8259149,15.4712524,-65.9618301,-98.0763321,82.5572510
8700,19.6126022,3.4835455,14.9038296,0.1755725,-118.1679382,-16.0076332
8710,19.6126022,2.9161227,12.8879223,57.7709923,-125.1145020,-102.3435135
8720,19.6126022,2.6814921,9.6174593,100.0763321,-146.2824402,-166.6106873
8730,17.9037495,2.3774302,7.0724359,123.2213745,-176.5801544,-213.6106873
8740,15.1049414,2.4133430,5.0756817,135.2519073,-202.5648804,-246.6335907
8750,12.9621420,2.9113343,3.5505829,140.8015289,-212.2671814,-250.1374054
8760,11.1042509,3.6726866,2.5929072,142.3587799,-203.6717529,-250.1374054
8770,9.6078825,4.6782460,1.8195840,141.0152740,-176.4885559,-250.1374054
8780,7.9582858,5.4372044,1.2473727,139.7709961,-134.4503784,-250.1374054
8790,6.5337429,6.0908179,0.4189832,138.9847260,-83.3206100,-250.1374054
8800,5.0565281,6.5217719,-0.6081241,136.7022858,-45.0839691,-250.1374054
8810,3.6224086,6.3613615,-1.6879035,132.9694672,-29.2213745,-250.1374054
8820,1.8004304,5.4180508,-2.7581062,128.5343475,-30.3587780,-250.1374054
8830,-0.0311245,4.2808108,-3.8067613,123.1374054,-38.3435097,-250.1374054
8840,-2.5689652,3.2417326,-4.5705075,115.3893127,-47.0763359,-250.1374054
8850,-6.1770086,2.8873925,-4.6638808,105.8396912,-59.0610695,-250.1374054
8860,-9.8233595,3.3063757,-4.4555864,98.7099228,-63.4961815,-250.1374054
8870,-13.9772778,4.0174499,-4.3286943,86.7175598,-55.7557259,-250.1374054
8880,-18.4544125,4.7716198,-3.8953462,75.6488571,-47.3129768,-250.1374054
8890,-19.6131992,5.4850879,-3.6391680,67.1679382,-40.2595406,-189.6717529
8900,-19.6131992,6.2464404,-3.9121056,58.9771004,-29.8015270,-106.3664093
8910,-19.6131992,6.6271162,-4.3741841,47.8091621,-17.7480907,-22.4809170
8920,-19.6131992,6.0716643,-4.9655490,32.3740463,8.1450386,54.5038185
8930,-18.0545826,5.9663200,-5.8466105,13.4045801,50.4045792,123.4274826
8940,-15.2198620,5.8681583,-6.4355812,-10.0000000,98.2519073,179.4274750
8950,-12.4354200,5.6502872,-6.6582408,-34.0458031,139.9923706,225.1221313
8960,-10.3931761,5.7652082,-6.7252784,-54.5038185,173.3053436,250.1297760
8970,-8.5807753,5.7556314,-6.7276726,-71.9847336,190.5496216,250.1297760
8980,-6.2536230,5.6502872,-7.0939832,-88.6106873,196.8244324,250.1297760
8990,-3.3279233,5.4443870,-7.6614060,-107.9847336,199.2137451,250.1297760
9000,-1.2521610,4.7381010,-7.9606800,-132.5496216,197.8931274,250.1297760
9010,0.9002152,4.3693957,-7.5033898,-162.4885559,175.1068726,250.1297760
9020,3.1387823,3.0023136,-5.9280128,-185.3282471,134.3664093,250.1297760
9030,5.7987270,1.8291607,-4.1611013,-197.1068726,72.8625946,250.1297760
9040,8.8441362,1.1947005,-2.2457497,-196.2290039,-0.6335878,250.1297760
9050,12.3899307,1.3239868,-0.2609667,-187.0992432,-69.1679382,250.1297760
9060,17.8391056,2.7030399,1.7094513,-174.4427490,-119.8549652,250.1297760
9070,19.6126022,5.0469513,4.1515245,-156.7404633,-135.2824402,200.4427490
9080,19.6126022,7.5560617,6.9263902,-131.1908417,-95.9083939,108.0916061
9090,19.6126022,8.6118994,8.9279327,-106.8854980,1.5801526,1.9465649
9100,19.6126022,6.1602492,10.2926207,-76.5496216,83.6793900,-93.2442780
9110,19.6126022,4.6926112,11.1641054,-25.8167934,82.6717529,-160.5419922
9120,16.8503056,3.5673423,10.8672256,34.5648842,13.7786255,-219.7404633
9130,13.4457684,3.0190730,8.8896255,92.8167953,-72.5343475,-250.1374054
9140,10.4314833,3.2010312,6.2033448,137.4656525,-136.4198456,-250.1374054
9150,8.7579451,4.0030847,3.3255291,159.2977142,-161.2366486,-250.1374054
9160,7.5752153,4.7644372,-0.0454896,159.3816833,-151.7862549,-250.1374054
9170,6.1051831,4.7309184,-3.3255291,141.4274750,-117.6870193,-250.1374054
9180,4.1658897,3.6822634,-5.4515696,111.7709961,-76.1603088,-250.1374054
9190,2.1523764,2.0829449,-6.4691000,80.6488571,-39.4885483,-250.1374054
9200,-1.0989330,0.3950413,-6.3015065,56.9694672,-13.4503813,-250.1374054
9210,-6.6965480,-0.8714849,-5.7340837,44.4122124,-9.4045801,-250.1374054
9220,-17.5230732,-0.3543400,-5.1068063,41.0687027,-37.8549614,-250.1374054
9230,-19.6131992,1.3838415,-4.7644372,41.4351158,-135.0763397,-250.1374054
9240,-19.6131992,3.3710186,-4.2784166,49.3740463,-250.1374054,-250.1374054
9250,-19.6131992,3.4859397,-5.3965030,56.1068687,-250.1374054,-149.9923706
9260,-19.6131992,5.9423780,-7.9822278,35.9312973,-231.7633514,-29.8702297
9270,-19.6131992,6.4786768,-9.2272062,-19.7786255,-69.2748108,83.4198456
9280,-19.6131992,6.2009506,-8.1546097,-86.5648880,84.1221390,174.9236603
9290,-19.4384251,5.6311336,-4.9463954,-132.2900696,180.6641235,240.0610657
9300,-18.0210648,4.9248476,-1.8531027,-144.2519073,215.1221313,250.1297760
9310,-16.2852764,3.9575951,0.3639168,-135.4274750,207.3358765,250.1297760
9320,-14.1017761,2.9951310,1.4053892,-117.3129807,179.1221313,250.1297760
9330,-10.1968527,2.5378408,0.9624642,-100.5801544,161.1832123,250.1297760
9340,-6.2775645,2.1404054,-0.2777260,-94.7404556,168.5496216,250.1297760
9350,-2.8059900,1.8698620,-1.6376256,-106.4045792,197.0458069,250.1297760
9360,-0.0454896,1.3862357,-2.5761478,-132.0152740,234.0381622,250.1297760
9370,2.4444675,0.6153067,-2.5641768,-164.3282471,250.1297760,250.1297760
9380,5.2145448,-0.1364688,-1.4508789,-194.3358765,250.1297760,250.1297760
9390,8.9949694,-0.3351865,0.5291159,-212.8091583,198.5114441,250.1297760
9400,14.7793312,0.4213773,3.2896163,-212.5190887,103.8167953,250.1297760
9410,19.6126022,2.5546002,6.8617468,-190.0763397,-8.9923668,250.1297760
9420,19.6126022,4.5010762,10.0196829,-147.0610657,-97.6335907,150.4580078
9430,19.6126022,5.7628140,11.5854826,-94.7786255,-127.6183243,35.9923668
9440,19.6126022,5.9447722,12.0499554,-47.4580154,-105.9542007,-66.2900772
9450,19.6126022,5.4276276,12.1672707,-5.3282442,-78.2290039,-149.8015289
9460,18.9045200,4.8218975,12.1026278,38.4122124,-83.7709961,-206.6488495
9470,15.1839495,4.4244623,11.3388815,85.8167953,-110.6183243,-248.7862549
9480,11.5304165,4.2999644,9.5887289,129.0839691,-136.5648804,-250.1374054
9490,8.6573887,4.5393834,7.3166428,161.6106873,-154.7633514,-250.1374054
9500,6.5672617,5.4132624,4.8745699,180.3053436,-155.3053436,-250.1374054
9510,4.9990678,5.5545197,2.5881188,185.1221313,-136.7557220,-250.1374054
9520,3.8378856,5.5233951,0.4405309,179.3511505,-105.3816757,-250.1374054
9530,2.7964132,5.1283536,-1.3814473,167.5572510,-69.8244247,-250.1374054
9540,1.2377959,4.3861551,-2.7676830,152.9236603,-38.6564903,-250.1374054
9550,-0.5602403,3.3183465,-3.5457945,138.3206177,-19.1221371,-250.1374054
9560,-3.1292057,2.5976956,-4.2233500,126.0992355,-8.6793890,-250.1374054
9570,-7.1610208,2.1643472,-4.3861551,116.3511429,-7.5496182,-250.1374054
9580,-12.0834742,2.4516499,-3.9360476,108.9007645,-15.0381680,-250.1374054
9590,-17.4105453,2.9879484,-3.0406206,104.9007645,-35.2671738,-250.1374054
9600,-19.6131992,3.5697365,-2.2768741,111.3511429,-67.8625946,-250.1374054
9610,-19.6131992,4.4795284,-2.0781565,124.3816757,-94.0000000,-183.8625946
9620,-19.6131992,5.5186067,-3.4739690,134.6946564,-94.5419846,-101.6335907
9630,-19.6131992,5.8226686,-5.3605900,130.9847260,-58.3816795,-18.1679382
9640,-19.6131992,5.7029591,-7.1059542,111.3740463,5.4198475,64.4045792
9650,-18.4328651,5.6766233,-8.0612354,83.5496216,78.6030502,134.8854980
9660,-15.1911325,6.3829093,-7.5321202,51.3587799,140.2213745,189.8396912
9670,-12.7179346,5.4707227,-6.4834652,25.5267181,176.5725250,231.7938995
9680,-9.8903971,5.1068063,-6.5361371,6.2595420,193.0458069,250.1297760
9690,-7.0484939,5.1187773,-8.0756006,-11.5801525,191.2366486,250.1297760
9700,-3.9959023,5.8346395,-10.3093796,-37.3664131,162.3282471,250.1297760
9710,-1.3670821,6.9551206,-11.3724003,-70.1068726,116.2519073,250.1297760
9720,0.2537841,7.4076223,-11.1569233,-105.8549652,72.7328262,250.1297760
9730,0.9337339,6.8066807,-9.6821022,-140.3664093,40.2442741,250.1297760
9740,1.5586174,5.7819676,-7.6398587,-165.5801544,14.6106873,250.1297760
9750,2.7581062,5.1570840,-5.5736732,-180.9389343,-7.8702292,250.1297760
9760,3.8618276,4.2041965,-3.6248028,-186.4122162,-33.6259537,250.1297760
9770,5.9830794,3.0071020,-2.2002602,-182.3664093,-62.6412201,250.1297760
9780,8.0253229,2.2696917,-1.2449785,-170.8549652,-79.9847336,250.1297760
9790,10.1872759,2.0374553,-0.5243275,-159.0686951,-80.7938919,250.1297760
9800,13.5511122,2.6671271,0.0095768,-154.1908417,-62.7862587,250.1297760
9810,17.3674507,3.5841017,1.4532729,-156.6564941,-29.0000000,250.1297760
9820,19.6126022,6.0740585,3.8354914,-160.2137451,22.0916023,219.4045868
9830,19.6126022,7.6853480,6.6223278,-159.2595367,85.8625946,143.5190887
9840,19.6126022,7.5081782,9.8927908,-142.1297760,132.0076294,54.5954208
9850,19.6126022,7.3741035,13.0076313,-99.9618301,157.4732819,-38.8015251
9860,19.6126022,6.2057390,14.8272152,-30.4732819,128.1755676,-126.1526718
9870,17.6643295,5.0996237,13.9102411,50.9312973,55.4809151,-202.0763397
9880,13.7139168,4.0605454,11.1545286,125.0610657,-29.0381680,-250.1374054
9890,11.1401634,4.2185616,7.7978749,179.0992432,-105.0229034,-250.1374054
9900,9.8664551,4.8242917,4.0868812,207.5801544,-147.9084015,-250.1374054
9910,8.3222027,4.3885493,0.4405309,213.1603088,-157.1908417,-250.1374054
9920,5.5138183,3.0454090,-2.4277081,199.0915985,-142.8549652,-250.1374054
9930,2.2601149,1.4365137,-3.9432299,175.4809113,-123.6259537,-250.1374054
9940,-0.4764437,0.4405309,-4.0964580,153.5572510,-104.5419846,-250.1374054
9950,-3.5434003,-0.1436514,-4.6399393,136.0381622,-81.0763321,-250.1374054
9960,-10.3668404,0.2394189,-5.7676024,119.6488571,-55.7557259,-250.1374054
9970,-19.6131992,1.4221486,-6.2847471,99.1755753,-61.9541969,-250.1374054
9980,-19.6131992,3.7205703,-6.2895355,80.1221390,-112.6106873,-250.1374054
9990,-19.6131992,4.7093706,-6.8665352,65.3587799,-174.1221313,-220.4809113
