timestamp,acclX,acclY,acclZ,gyroX,gyroY,gyroZ
0,5.9711084,1.3575054,8.5209198,-0.8091603,0.6183206,-1.9465649
10,6.3278427,1.4053892,8.4945841,-0.4656489,1.2824427,-3.9236641
20,6.5385313,1.3934183,8.6238708,0.1679389,1.9236641,-7.5190840
30,7.0077925,1.1827296,10.3213511,11.7099237,-3.5343511,-21.2748089
40,7.1179252,1.0247130,10.1106625,18.4274807,0.2442748,-25.2977104
50,8.4610653,1.1228749,10.2998028,22.9923668,0.5801527,-31.4580154
60,11.1162214,1.3910241,10.8768024,24.9923668,-2.0458016,-46.3053436
70,14.3986549,1.5538290,11.7626524,28.5038166,-1.4503816,-74.7938919
80,16.7641144,1.4413021,13.0507269,37.1450386,-11.3129768,-118.1603088
90,17.3985748,1.5873476,14.5710373,52.7633591,-38.2900772,-174.5496216
100,16.0410690,0.3280039,15.9596672,73.7099228,-82.5725174,-231.1755676
110,13.5942078,-1.4053892,18.3442802,100.3816757,-144.0458069,-250.1374054
120,11.1138277,-2.8012016,19.6126022,138.9847260,-238.1755676,-250.1374054
130,10.6062593,-4.0844874,19.6126022,187.8244324,-250.1374054,-250.1374054
140,11.6118193,-4.7764082,19.6126022,237.3740387,-250.1374054,-250.1374054
150,12.0044661,-3.7852135,19.6126022,250.1297760,-250.1374054,-250.1374054
160,11.4681673,-3.5122759,19.6126022,250.1297760,-250.1374054,-250.1374054
170,9.6940727,-4.5944495,19.6126022,250.1297760,-250.1374054,-250.1374054
180,7.3693151,-5.7508430,19.6126022,250.1297760,-250.1374054,-250.1374054
190,4.4771342,-6.0836353,19.1271801,250.1297760,-250.1374054,-250.1374054
200,1.8626794,-6.1363077,16.7234135,250.1297760,-250.1374054,-250.1374054
210,-0.4812321,-6.1722202,13.6588507,250.1297760,-250.1374054,-250.1374054
220,-2.1212518,-5.7699966,10.3357162,250.1297760,-250.1374054,-250.1374054
230,-3.1028695,-5.4276276,6.5193777,250.1297760,-250.1374054,-250.1374054
240,-4.3023586,-4.9535780,2.9352763,250.1297760,-250.1374054,-250.1374054
250,-6.7827387,-4.6040263,-0.4525018,250.1297760,-250.1374054,-250.1374054
260,-10.2519188,-4.1682839,-3.9887197,250.1297760,-250.1374054,-250.1374054
270,-15.5502605,-4.2448978,-7.5584559,250.1297760,-250.1374054,-250.1374054
280,-19.6131992,-3.1651185,-10.8504667,250.1297760,-250.1374054,-250.1374054
290,-19.6131992,-0.7876883,-14.6404686,223.6488495,-250.1374054,-250.1374054
300,-19.6131992,0.5386927,-18.6459484,158.3129730,-250.1374054,-228.1526642
310,-19.6131992,1.2904681,-19.6131992,66.3664093,-187.0000000,-151.5038147
320,-19.6131992,1.1755470,-19.6131992,-47.9312973,-88.8167953,-75.7480927
330,-19.6131992,0.3232156,-19.6131992,-159.7862549,-9.3282442,0.8778626
340,-19.6131992,-0.9169745,-19.2612534,-242.8931274,32.1755714,73.9083939
350,-19.6131992,-1.7669119,-14.0227680,-250.1374054,40.8244286,134.6717529
360,-19.0625362,-1.9919657,-9.6773138,-250.1374054,33.3053436,184.1297760
370,-16.6348286,-1.7381816,-6.5528965,-250.1374054,25.4427490,226.0763397
380,-14.7577839,-1.3263810,-4.4388270,-250.1374054,20.3435116,250.1297760
390,-12.6580801,-0.8403605,-2.9711890,-250.1374054,16.4885502,250.1297760
400,-10.1920643,-0.6943150,-1.8650736,-250.1374054,16.7099228,250.1297760
410,-7.6733770,-1.2330076,-1.5274929,-250.1374054,19.3664131,250.1297760
420,-4.4555864,-2.0350611,-1.3862357,-250.1374054,25.6717548,250.1297760
430,-0.8762733,-3.2967989,-0.9073978,-250.1374054,41.0000000,250.1297760
440,2.8179610,-4.5226240,0.2489957,-250.1374054,69.3129807,250.1297760
450,6.8497758,-5.5760674,3.1890604,-250.1374054,89.0381699,250.1297760
460,11.8440552,-5.4515696,9.3301563,-250.1374054,65.8396912,250.1297760
470,18.6770725,-3.7516949,16.9508610,-250.1374054,6.5801525,250.1297760
480,19.6126022,-0.5793939,19.6126022,-250.1374054,-41.8015251,250.1297760
490,19.6126022,2.2433555,19.6126022,-152.6030579,-63.7862587,150.4885559
500,19.6126022,3.5314295,19.6126022,-51.7709923,-66.5267181,33.6488533
510,19.6126022,2.7030399,19.6126022,47.1908379,-61.6259537,-74.3358765
520,19.6126022,1.3886299,19.6126022,140.9618378,-72.2213745,-155.5343475
530,16.8526993,0.9552816,19.6126022,220.6335907,-102.6412201,-206.8854980
540,12.6197729,0.6584021,16.5510311,250.1297760,-127.1450348,-234.3435059
550,10.1441803,0.9457048,11.2646618,250.1297760,-129.4198456,-247.7099304
560,9.0284882,1.8746504,7.1514440,250.1297760,-110.2442780,-250.1374054
570,8.6071110,2.7652888,3.4979107,250.1297760,-73.9160309,-250.1374054
580,8.3485384,3.2058196,0.4932030,250.1297760,-34.2137413,-250.1374054
590,7.8984308,3.4859397,-2.3822186,250.1297760,-2.8244274,-250.1374054
600,6.9958215,3.5338237,-4.7189474,250.1297760,11.1221371,-250.1374054
610,5.6454988,2.9400647,-5.8370337,250.1297760,6.1832061,-250.1374054
620,4.5010762,1.8459201,-6.8258343,250.1297760,-12.3129768,-250.1374054
630,1.9081690,0.2418131,-7.6781654,250.1297760,-30.0687027,-250.1374054
640,-2.3415172,-1.2641320,-8.5975342,250.1297760,-51.9312973,-250.1374054
650,-7.6877422,-2.1212518,-9.3397331,250.1297760,-83.3816757,-250.1374054
660,-14.0060081,-1.6495966,-10.9103212,246.9007568,-99.3282471,-250.1374054
670,-19.6131992,-0.2154770,-13.4266148,214.9618378,-101.8091583,-250.1374054
680,-19.6131992,1.4939742,-16.2326050,159.5801544,-91.1145020,-250.1374054
690,-19.6131992,2.8490853,-19.0936604,78.8625946,-66.4274826,-219.0458069
700,-19.6131992,3.1699069,-19.6131992,-11.8091602,-26.3587780,-95.3816757
710,-19.6131992,3.0693510,-18.6531296,-90.0839691,14.7022905,21.6717548
720,-19.6131992,2.9233053,-17.1088772,-153.3816833,47.3587799,114.6259537
730,-19.6131992,2.5474176,-15.1408539,-199.1526642,52.4961815,179.9923706
740,-19.2636490,2.1427996,-13.4864693,-232.2442780,41.8625946,227.1984711
750,-15.7824965,2.1332228,-11.8153248,-250.1374054,24.9236641,250.1297760
760,-13.2709923,2.1858950,-10.5966825,-250.1374054,12.3435116,250.1297760
770,-11.4538021,2.1619530,-9.3995876,-250.1374054,7.6030536,250.1297760
780,-9.9789820,1.8459201,-8.2815018,-250.1374054,7.6870227,250.1297760
790,-8.3892403,0.9672526,-7.0413113,-250.1374054,6.6641221,250.1297760
800,-6.2584114,-0.2753318,-5.3941088,-250.1374054,2.3969467,250.1297760
810,-3.6128318,-2.0637913,-3.2058196,-250.1374054,-2.9694657,250.1297760
820,0.1604107,-4.2784166,0.0526722,-250.1374054,-21.9923668,250.1297760
830,5.7939386,-5.3079181,5.0182209,-250.1374054,-71.1603088,250.1297760
840,14.7769375,-3.9552009,11.1162214,-250.1374054,-132.4122162,250.1297760
850,19.6126022,-0.1484398,18.0306416,-250.1374054,-161.9236603,250.1297760
860,19.6126022,2.5019281,19.6126022,-211.0381622,-124.7251892,197.9923706
870,19.6126022,4.2401094,19.6126022,-135.0152740,-41.1832047,72.7786255
880,19.6126022,4.3191175,19.6126022,-51.6183205,30.4503822,-50.6564903
890,19.6126022,2.7868366,19.6126022,52.2977104,54.7709923,-155.2290039
900,19.6126022,0.9457048,19.6126022,162.0763397,43.8167953,-233.6106873
910,15.4808292,-0.7948709,19.6126022,250.1297760,23.8320618,-250.1374054
920,11.0396080,-1.2761030,15.0690289,250.1297760,14.0534353,-250.1374054
930,8.6047173,-1.0199248,9.0093346,250.1297760,31.6870232,-250.1374054
940,6.4978304,-0.8164186,3.7277529,250.1297760,75.1145020,-250.1374054
950,4.5130472,-0.9050036,-0.5339043,250.1297760,128.7328186,-250.1374054
960,2.8730273,-1.2258250,-4.1754665,250.1297760,170.1221313,-250.1374054
970,-0.3998296,-2.1643472,-7.3381906,250.1297760,184.5572510,-250.1374054
980,-6.6845770,-2.6623387,-10.6373835,250.1297760,149.9770966,-250.1374054
990,-14.3148584,-1.3527170,-13.9317884,250.1297760,55.1603050,-250.1374054
1000,-19.6131992,1.0630201,-18.2940025,250.1297760,-69.3969498,-250.1374054
1010,-19.6131992,3.5864959,-19.6131992,238.0381622,-152.0763397,-250.1374054
1020,-19.6131992,4.6566987,-19.6131992,131.9465637,-152.7709961,-159.9389343
1030,-19.6131992,4.5944495,-19.6131992,1.3587786,-86.9389343,-57.2595406
1040,-19.6131992,3.8139439,-19.6131992,-116.1984711,-3.1374047,43.3740463
1050,-19.6131992,2.7269819,-18.2221756,-194.9694672,54.2442741,126.7557220
1060,-19.6131992,1.8411317,-12.2534618,-233.9541931,51.1450386,188.2748108
1070,-19.6131992,1.5825592,-7.2711535,-239.5572510,5.1908398,232.2671814
1080,-17.1830978,1.4604555,-4.4699516,-224.1526642,-39.5877876,250.1297760
1090,-13.8982697,1.6591733,-3.8091555,-206.6106873,-67.6717529,250.1297760
1100,-11.0108776,1.5418580,-4.1443419,-200.0763397,-81.1603088,250.1297760
1110,-8.1378498,1.1635761,-4.5322008,-206.9160309,-81.3053436,250.1297760
1120,-4.8506279,0.5985473,-4.2161674,-222.4580078,-71.2290039,250.1297760
1130,-1.0462608,-0.1149211,-2.7006457,-240.9847260,-65.5801544,250.1297760
1140,4.5417776,-0.3423691,0.1891410,-250.1374054,-77.0992355,250.1297760
1150,11.6884327,0.1604107,4.2281384,-248.2061005,-101.0000000,250.1297760
1160,19.4384251,2.4492557,9.3277617,-222.8549652,-116.9618301,250.1297760
1170,19.6126022,4.5034704,14.0443153,-181.6030579,-109.1755753,215.8167877
1180,19.6126022,6.5385313,18.4735661,-130.5725250,-73.3129807,114.3282471
1190,19.6126022,6.8785062,19.6126022,-70.5648880,-25.9160309,10.3053436
1200,19.6126022,6.4547348,19.6126022,2.6946564,11.8702288,-82.2977066
1210,19.6126022,5.7532372,19.6126022,85.3435135,18.9007626,-157.2977142
1220,17.4033623,4.8961172,19.4384251,160.5572510,1.6335878,-212.5572510
1230,13.7929258,4.1970143,14.6548338,216.8854980,-9.0687027,-249.9694672
1240,11.2167778,3.8546450,9.6102762,250.1145020,4.1984735,-250.1374054
1250,9.0428534,3.6343796,5.0469513,250.1297760,38.7938919,-250.1374054
1260,6.5409255,3.3087699,1.4341195,250.1297760,76.1832047,-250.1374054
1270,4.2089849,2.5522060,-1.2473727,250.1297760,112.8549652,-250.1374054
1280,1.6041069,1.5203103,-3.2513094,245.1374054,141.7633514,-250.1374054
1290,-2.4516499,0.0933734,-4.9559722,241.9847260,142.5267181,-250.1374054
1300,-8.2407999,-0.6871324,-6.7109132,245.0000000,103.4580154,-250.1374054
1310,-15.1073351,-0.5913648,-9.2104464,246.9770966,35.6030540,-250.1374054
1320,-19.6131992,0.5027798,-12.8352499,234.2290039,-33.3969460,-250.1374054
1330,-19.6131992,2.2816625,-17.1735210,193.7328186,-77.5343475,-235.6641235
1340,-19.6131992,3.1842721,-19.6131992,116.4885483,-66.8244247,-141.0915985
1350,-19.6131992,3.1363883,-19.6131992,16.4198475,-15.4274807,-33.9083977
1360,-19.6131992,2.5354466,-19.6131992,-78.9847336,44.9236641,74.1374054
1370,-19.6131992,1.8842272,-15.7824965,-144.1526642,74.8473282,161.7557220
1380,-19.6131992,1.4221486,-11.6190014,-178.5114441,58.1450386,227.9770966
1390,-19.6131992,1.2473727,-8.8201942,-187.3511505,14.5343513,250.1297760
1400,-17.6020813,1.3407460,-7.4674768,-185.3740387,-27.6870232,250.1297760
1410,-13.8001080,1.4460905,-7.3405848,-186.7251892,-50.7251892,250.1297760
1420,-10.0915089,1.3958124,-7.2759418,-197.1221313,-52.8931313,250.1297760
1430,-6.8689294,0.9409165,-6.2871413,-214.6412201,-45.8549614,250.1297760
1440,-3.3422885,0.1316804,-4.5513539,-234.3587799,-41.2671738,250.1297760
1450,1.1013272,-0.4620786,-1.7812769,-249.5419922,-41.9160309,250.1297760
1460,6.4475522,-0.7302278,2.0590029,-250.1374054,-52.1450386,250.1297760
1470,12.6197729,0.1340746,7.1682034,-235.7404633,-81.0381699,250.1297760
1480,19.6126022,1.8626794,12.7801828,-193.2748108,-111.4045792,250.1297760
1490,19.6126022,4.2760224,17.2333755,-132.8167877,-113.1679382,228.1374054
1500,19.6126022,6.0908179,19.6126022,-70.0305328,-85.6717529,127.7022934
1510,19.6126022,6.6989422,19.6126022,-4.2900763,-45.3206100,23.0839691
1520,19.6126022,6.1554613,19.6126022,68.8549652,-12.8702288,-71.0000000
1530,19.6126022,4.7309184,19.6126022,146.1603088,0.3282443,-145.6335907
1540,18.9069138,3.7684543,17.6595421,210.9770966,-0.4122137,-195.5038147
1550,15.0690289,3.1794837,12.3875360,250.1297760,15.2900763,-226.3740387
1560,12.8448267,3.4236910,7.9630742,250.1297760,40.0076332,-249.8015289
1570,10.8624372,3.5673423,4.0318151,250.1297760,76.8396912,-250.1374054
1580,8.1306677,2.8993635,0.5769997,250.1297760,130.6946564,-250.1374054
1590,5.3486195,2.2864509,-2.9855542,250.1297760,184.4732819,-250.1374054
1600,1.9704180,1.3000449,-6.5935979,250.1297760,217.9160309,-250.1374054
1610,-4.0318151,0.3734936,-11.3053627,250.1297760,227.9007568,-250.1374054
1620,-11.4466200,1.1372399,-17.2453461,238.4885559,191.9389343,-250.1374054
1630,-18.6243992,2.9185169,-19.6131992,201.9541931,116.3740463,-241.7938995
1640,-19.6131992,5.4395986,-19.6131992,135.6946564,36.9847336,-169.8015289
1650,-19.6131992,7.0173693,-19.6131992,40.0381660,12.8854961,-95.3969498
1660,-19.6131992,6.9575148,-19.6131992,-66.2595444,44.2824440,-24.1374054
1670,-19.6131992,6.0525107,-19.6131992,-152.8320618,93.3435135,37.3129768
1680,-19.6131992,5.1283536,-17.4249115,-208.4732819,119.9083939,85.8015289
1690,-19.0984497,4.5705075,-12.8089132,-232.5877838,108.8396912,122.3206100
1700,-16.7305965,4.5322008,-9.4259243,-236.0305328,76.8167953,149.8549652
1710,-14.2526102,4.3957319,-7.4004397,-231.9389343,40.4732819,172.2442780
1720,-11.5471754,4.1587071,-6.6630292,-229.3816833,7.3282442,190.4580078
1730,-9.0428534,4.0413918,-5.9304070,-230.5419922,-20.5190830,203.6030579
1740,-6.5026188,3.6224086,-4.4220681,-233.5267181,-45.5114517,214.4122162
1750,-4.1898317,3.2728570,-2.8131726,-234.8015289,-67.5114517,225.1145020
1760,-1.2761030,2.2433555,-0.1077385,-234.0458069,-96.3664093,232.9923706
1770,2.4731977,2.0805507,3.9384418,-222.5419922,-141.7022858,234.2442780
1780,7.1825686,2.5641768,8.5281029,-195.6564941,-193.6259613,229.9389343
1790,13.8815107,3.6056492,11.4154949,-160.5572510,-182.9770966,213.5725250
1800,19.6126022,5.2552457,14.9134064,-128.9694672,-96.6488571,171.4274750
1810,19.6126022,6.6295104,19.6126022,-88.9465637,-14.2671757,104.7251892
1820,19.6126022,6.8162575,19.6126022,-25.7175579,28.9007626,26.5496178
1830,19.6126022,5.7436604,19.6126022,65.9389343,40.4961815,-47.8396950
1840,19.6126022,4.6950054,19.6126022,163.9465637,32.2748108,-107.1297684
1850,16.8215752,3.9360476,19.6126022,248.3664093,19.0229015,-154.4122162
1860,13.8216553,3.3327117,14.6524391,250.1297760,6.2290077,-193.2900696
1870,11.5399933,2.8802099,8.7699156,250.1297760,12.7709923,-225.0381622
1880,9.6078825,2.5091105,3.2800395,250.1297760,28.9160309,-250.1374054
1890,7.8888540,2.2098370,-1.6208663,250.1297760,45.4351158,-250.1374054
1900,5.5712790,1.8674678,-6.2895355,250.1297760,73.3053436,-250.1374054
1910,1.8076130,1.6998745,-11.9589767,250.1297760,85.2290039,-250.1374054
1920,-4.5776901,2.0733681,-17.4009686,250.1297760,85.0534363,-250.1374054
1930,-13.0100250,3.4428444,-19.6131992,218.0000000,70.7938919,-250.1374054
1940,-19.0194416,5.5233951,-19.6131992,138.5725250,55.0228996,-222.9313049
1950,-19.6131992,6.6247220,-19.6131992,46.2977104,52.2595406,-151.8091583
1960,-19.6131992,6.7300668,-19.6131992,-43.2061081,56.8473282,-79.4885483
1970,-19.6131992,5.9782910,-19.6131992,-123.4885483,84.2748108,-16.1450386
1980,-19.6131992,5.0996237,-19.6131992,-186.2748108,104.0916061,33.0458031
1990,-18.4280758,4.2018023,-16.7569313,-226.8931274,97.9389343,68.1145020
2000,-16.6324348,4.1371593,-12.6485033,-242.7709961,62.3053436,92.7786255
2010,-15.1360655,4.2544746,-10.0220766,-242.4274750,18.3587780,116.3206100
2020,-13.9557304,4.1539187,-8.4682484,-240.0839691,-17.5038166,137.9618378
2030,-12.8639803,3.6774750,-7.1729918,-239.7862549,-49.0687027,163.3358765
2040,-11.6429434,2.9975252,-6.0213866,-241.8091583,-69.0839691,191.7862549
2050,-10.0125008,2.2888451,-4.4723458,-249.0763397,-77.0610657,222.2900696
2060,-8.1665802,1.4006008,-2.0254843,-250.1374054,-84.6946564,250.1297760
2070,-5.6383162,0.2825144,1.0127422,-250.1374054,-102.4961853,250.1297760
2080,-2.4444675,-0.2968795,4.0533628,-238.9160309,-138.4580078,250.1297760
2090,3.5338237,-0.6177009,7.6207051,-203.6106873,-192.9236603,250.1297760
2100,11.5639353,0.4453192,9.8808203,-153.6335907,-238.6793823,250.1297760
2110,19.6126022,3.5170643,11.6740675,-101.1832047,-250.1374054,250.1297760
2120,19.6126022,7.0293403,13.9772778,-57.0228996,-225.1297760,163.4274750
2130,19.6126022,8.1498213,15.6939116,-20.9923668,-127.3053436,53.1603050
2140,19.6126022,7.5440907,17.7457314,17.0152664,-20.3587780,-55.2824440
2150,19.6126022,6.7587967,19.6126022,73.4656525,15.0534353,-135.8778687
2160,19.6126022,5.5377603,19.2397060,147.8244324,-2.9160306,-194.3511505
2170,15.7848911,4.3837609,15.5981445,217.4580078,-26.2977104,-234.0839691
2180,12.1864243,3.9575951,10.5487986,250.1297760,-29.7251911,-250.1374054
2190,9.7515335,4.1060348,5.2313042,250.1297760,-3.3435113,-250.1374054
2200,7.7188668,3.8857694,0.7326220,250.1297760,44.3816795,-250.1374054
2210,5.6550756,3.3111639,-2.2074428,250.1297760,87.6946564,-250.1374054
2220,2.8179610,2.1404054,-4.7117648,250.1297760,124.2748108,-250.1374054
2230,-1.8100072,1.0414724,-8.3629036,250.1297760,159.6564941,-250.1374054
2240,-9.2990322,0.9816177,-13.2326851,241.8091583,168.7022858,-250.1374054
2250,-17.4201221,2.1236460,-17.8869896,218.6412201,120.7786255,-250.1374054
2260,-19.6131992,4.2640514,-19.6131992,174.0305328,34.3587799,-207.2977142
2270,-19.6131992,5.7316895,-19.6131992,88.3053436,-18.1679382,-120.6564865
2280,-19.6131992,6.2009506,-19.6131992,-19.6870232,-4.1221375,-42.2366409
2290,-19.6131992,5.2839761,-19.6131992,-117.4961853,57.8625946,26.8091602
2300,-19.6131992,4.1395535,-19.6131992,-184.0152740,112.8778610,81.3511429
2310,-19.6131992,3.4236910,-14.3076763,-217.9007568,114.1679382,123.2977066
2320,-18.8638191,3.6104376,-9.6174593,-221.1450348,70.2519073,154.4122162
2330,-17.0226879,3.6631098,-7.2352405,-207.5038147,13.4274807,183.9694672
2340,-14.2717638,3.4667864,-6.6510582,-196.7557220,-27.7557259,214.8778687
2350,-11.0324249,3.1555417,-6.6726060,-197.6335907,-48.8320618,243.0305328
2360,-7.6853480,3.0166788,-6.4451580,-208.4198456,-55.2671738,250.1297760
2370,-4.3502421,2.4827745,-4.9751258,-221.7709961,-58.9389305,250.1297760
2380,-0.9289455,2.0470319,-2.8227494,-231.0305328,-67.9312973,250.1297760
2390,2.9831600,1.7932479,-0.3423691,-231.6564941,-88.1374054,250.1297760
2400,7.5105724,2.0901275,2.7652888,-221.4580078,-123.1526718,250.1297760
2410,12.4761209,3.2225790,6.3661499,-198.3816833,-160.4732819,247.5801544
2420,17.0466290,4.6950054,9.9071560,-163.1832123,-181.9389343,203.5267181
2430,19.6126022,6.2009506,14.0299501,-119.5343475,-171.7938995,144.7862549
2440,19.6126022,7.5345144,17.3099899,-70.1908417,-121.6106873,74.7938919
2450,19.6126022,7.8218169,19.0553532,-17.4198475,-46.9694672,0.0992366
2460,19.6126022,7.4890246,19.6126022,44.9847336,-3.2290077,-69.1297684
2470,19.5437679,6.8832946,18.9476147,113.0229034,-8.6717558,-125.2900772
2480,16.4289284,6.0213866,15.8279867,179.2366486,-25.1603050,-172.5190887
2490,13.4697094,5.5401545,11.3532467,229.8778687,-27.8015270,-211.1221313
2500,10.8935623,5.3270717,6.9670911,250.1297760,-15.7251911,-244.3206177
2510,9.0644016,4.8961172,3.0118904,250.1297760,5.4122138,-250.1374054
2520,7.0317345,4.0533628,-0.2418131,250.1297760,30.8396950,-250.1374054
2530,3.0693510,2.4372849,-3.0693510,250.1297760,48.8015251,-250.1374054
2540,-3.2441268,1.0342898,-6.4164276,250.1297760,35.2977104,-250.1374054
2550,-10.3979645,0.7900825,-10.3931761,250.1297760,-13.6641226,-250.1374054
2560,-18.1551380,2.0230901,-16.2326050,250.1297760,-72.7938919,-250.1374054
2570,-19.6131992,4.1108232,-19.6131992,202.2366486,-108.1755753,-227.0686951
2580,-19.6131992,5.9639258,-19.6131992,105.4732819,-100.8091583,-139.5725250
2590,-19.6131992,6.2009506,-19.6131992,-6.7862597,-42.6259537,-49.1374054
2600,-19.6131992,5.2624283,-19.6131992,-107.8549652,38.9694672,35.7022896
2610,-19.6131992,4.1060348,-19.4719429,-178.5496216,85.8320618,107.2442780
2620,-19.6131992,3.1627243,-14.3411951,-214.0992432,73.0381699,166.5877838
2630,-19.6131992,2.8419030,-10.5535870,-222.0458069,31.4503822,211.3129730
2640,-16.1942978,2.7126167,-8.5113440,-219.7938995,-7.7175574,245.3893127
2650,-12.9118633,2.3079987,-8.1282730,-221.5496216,-31.3893127,250.1297760
2660,-9.8473015,1.7333932,-7.8792777,-232.0686951,-41.7099228,250.1297760
2670,-6.3876977,0.8547257,-7.1705976,-246.6870270,-45.6335869,250.1297760
2680,-2.7461352,0.0550664,-5.9735026,-250.1374054,-47.5496178,250.1297760
2690,0.8523315,-1.0127422,-4.8003497,-250.1374054,-51.0458031,250.1297760
2700,5.3988972,-1.8602852,-2.7461352,-250.1374054,-66.7328262,250.1297760
2710,11.6597023,-1.4101776,1.4029950,-250.1374054,-98.9007645,250.1297760
2720,18.8111458,-0.1460456,6.6965480,-250.1374054,-130.0686951,250.1297760
2730,19.6126022,1.4149660,12.4785156,-250.1374054,-133.8702240,222.8931274
2740,19.6126022,3.4236910,18.9787407,-205.6335907,-106.0534363,136.7099304
2750,19.6126022,4.0318151,19.6126022,-143.6412201,-54.0458031,43.7251892
2760,19.6126022,4.2760224,19.6126022,-59.4656487,-20.5877857,-45.3282433
2770,19.6126022,3.7756367,19.6126022,41.5877876,-19.3969460,-118.4809189
2780,19.4839134,3.2848279,19.6126022,138.0000000,-41.7786255,-170.4961853
2790,15.8926296,3.0813217,19.6126022,214.8167877,-65.6183243,-205.9084015
2800,13.5104113,3.0501974,15.1504307,250.1297760,-58.4961815,-232.6793823
2810,11.9446115,3.5170643,9.1194677,250.1297760,-25.0992374,-250.1374054
2820,10.6038647,3.8761928,4.0581512,250.1297760,8.3206110,-250.1374054
2830,8.7124557,3.6607156,0.0526722,250.1297760,37.3129768,-250.1374054
2840,6.2416520,2.8826041,-2.8754215,250.1297760,51.4427490,-250.1374054
2850,2.2313845,1.3311694,-4.9655490,250.1297760,25.4122143,-250.1374054
2860,-2.6910689,-0.1771700,-6.7540083,250.1297760,-32.4274826,-250.1374054
2870,-8.0899658,-0.9552816,-9.0260944,250.1297760,-108.6641235,-250.1374054
2880,-14.6931410,-0.3998296,-12.0547438,250.1297760,-185.5877838,-250.1374054
2890,-19.6131992,1.0917504,-14.7721491,246.0610657,-247.1297760,-250.1374054
2900,-19.6131992,2.9903426,-17.3530846,183.4580078,-249.8167877,-250.1374054
2910,-19.6131992,3.9216824,-19.6131992,92.4274826,-162.8244324,-202.3206177
2920,-19.6131992,3.6439564,-18.9571915,-9.7557249,-38.0839691,-109.8778610
2930,-19.6131992,2.9280937,-15.7154598,-91.3206100,52.7175560,-11.4809160
2940,-19.6131992,2.0733681,-11.7578640,-134.9313049,69.3969498,80.0687027
2950,-19.6131992,1.7046629,-7.3262196,-141.9160309,15.0916033,158.7633514
2960,-19.6131992,1.6280488,-4.2712340,-125.9694672,-52.7786255,219.0229034
2970,-19.6131992,2.0206959,-2.6407909,-105.9312973,-104.1908417,250.1297760
2980,-15.4018211,2.1882892,-1.7309990,-87.4122162,-132.8015289,250.1297760
2990,-11.4418316,2.2050486,-1.6831152,-70.8778610,-152.9084015,250.1297760
3000,-8.1426382,2.2840567,-2.0302727,-53.6183205,-191.3740387,250.1297760
3010,-3.5098817,2.3606708,-3.3470769,-40.7633591,-227.6183167,250.1297760
3020,1.7525467,2.7485294,-5.5664907,-42.6106873,-226.6030579,250.1297760
3030,6.5385313,3.0861101,-6.5552907,-57.9007645,-203.8167877,250.1297760
3040,11.2263546,4.3286943,-5.5473371,-77.6564865,-182.6335907,250.1297760
3050,15.7058830,5.6646523,-2.4779861,-86.5801544,-181.6564941,250.1297760
3060,19.6126022,7.2639709,1.1228749,-81.7786255,-181.9770966,231.9541931
3070,19.6126022,8.6310530,4.4867110,-67.0916061,-170.3893127,168.5648804
3080,19.6126022,9.9310980,5.5473371,-57.7557259,-176.2442780,105.1068726
3090,19.6126022,10.1298151,6.4164276,-45.2595406,-139.2290039,36.4732819
3100,19.6126022,9.1817169,7.5871863,-17.5419846,-96.0916061,-29.9160309
3110,19.4096947,8.8513184,6.7683735,14.8854961,-52.6412201,-77.3816757
3120,15.9548788,8.5855637,5.9878678,41.0228996,-17.2061062,-103.0381699
3130,13.9006643,8.4395180,4.1826491,54.7404594,14.1908398,-120.6793900
3140,11.5687237,8.3245964,2.0230901,57.1908379,54.2366409,-134.5419922
3150,9.4235296,8.3150196,0.6009415,54.0610695,85.8167953,-148.7022858
3160,8.0205345,8.3820572,-1.0151364,51.7786255,104.3511429,-170.1297760
3170,5.7101417,7.8912482,-2.0829449,49.8778610,107.5572510,-202.6259613
3180,1.6974803,6.9144192,-3.0669568,48.2824440,76.4961853,-240.7175598
3190,-2.3319404,6.2320752,-4.3622131,51.5648842,10.3282442,-250.1374054
3200,-6.4092450,5.4276276,-5.5760674,56.6946564,-47.9236641,-250.1374054
3210,-13.0363617,4.1682839,-7.1083484,51.2366409,-88.1297684,-250.1374054
3220,-19.6131992,3.6798692,-7.5033898,31.0839691,-130.6412201,-250.1374054
3230,-19.6131992,3.6367738,-6.6821828,3.9007633,-146.7328186,-234.7786255
3240,-19.6131992,3.6918402,-5.4898763,-28.1221371,-124.9083939,-151.8396912
3250,-19.6131992,3.5984666,-3.4524212,-59.1679382,-75.0687027,-52.2519073
3260,-19.6131992,3.3782012,-1.0438666,-81.7480927,-19.5572510,54.4122124
3270,-19.6131992,3.4476328,0.5961532,-91.0916061,22.9236641,147.2900696
3280,-19.6131992,3.5170643,1.6855093,-87.3511429,51.1832047,215.0152740
3290,-19.4144821,3.5721307,2.1835008,-75.5572510,53.6564903,250.1297760
3300,-14.5806141,3.6511390,1.9728121,-59.6335869,44.4427490,250.1297760
3310,-10.3500814,3.5649481,1.3048333,-46.6870232,36.6564903,250.1297760
3320,-6.2009506,3.5146701,0.6224893,-40.9618340,24.2748089,250.1297760
3330,-1.3982066,3.5050933,0.2920911,-42.4580154,11.0839691,250.1297760
3340,4.8961172,4.0605454,0.5362985,-46.3511467,-2.7786260,250.1297760
3350,11.5759058,4.6183915,0.5243275,-49.0687027,-9.5877867,250.1297760
3360,18.8039646,6.9766679,0.9121862,-50.4427490,-2.1603053,250.1297760
3370,19.6126022,8.8034344,2.1643472,-52.8244286,3.1450381,211.0000000
3380,19.6126022,9.7994175,4.4914994,-47.4045792,-5.6259542,123.2748108
3390,19.6126022,10.5607700,6.8785062,-29.8778629,-10.7404585,26.4809170
3400,19.6126022,9.9406748,8.2695303,1.8396946,-13.0229006,-66.2900772
3410,19.6126022,9.1841106,7.9678626,39.5801544,-14.5114508,-148.1984711
3420,19.6126022,8.1067257,6.3757267,70.5954208,-20.9236641,-214.9007568
3430,17.1783085,7.0652533,4.4771342,90.9542007,-20.7175579,-250.1374054
3440,12.6939926,6.2536230,2.4899571,101.5954208,-13.4351149,-250.1374054
3450,8.7986460,5.2839761,0.5865764,100.9694672,5.6641221,-250.1374054
3460,4.2209558,4.2065907,-1.3120158,100.2137375,25.9847336,-250.1374054
3470,-1.1420283,2.9951310,-2.9903426,91.5114517,26.8702297,-250.1374054
3480,-7.4267755,2.1068866,-3.9312592,79.1755753,-9.0839691,-250.1374054
3490,-12.9429884,1.8076130,-4.3119354,68.9923630,-70.4656525,-250.1374054
3500,-18.0473995,1.9656296,-4.4507980,57.4351158,-123.1221390,-250.1374054
3510,-19.6131992,2.0973101,-3.9599893,38.8549614,-155.5877838,-250.1374054
3520,-19.6131992,2.4157372,-2.6048782,10.0534353,-167.3129730,-187.9618378
3530,-19.6131992,2.2936335,-0.1436514,-14.3053436,-168.2748108,-102.2900772
3540,-19.6131992,2.6264257,2.3965836,-26.1908398,-164.3053436,-19.0916023
3550,-19.6131992,3.3710186,4.3143296,-16.0000000,-149.7557220,50.8625946
3560,-19.6131992,4.9440012,4.2975702,14.4122133,-84.9542007,112.8778610
3570,-19.6131992,4.5274124,3.4165084,44.9618340,-18.1603050,172.5954132
3580,-19.6131992,2.9999194,2.8658447,63.7099228,-10.6030531,230.3816833
3590,-17.4249115,3.4452386,1.2473727,79.4198456,3.4732823,250.1297760
3600,-12.7777891,3.8115497,-1.3215926,76.9312973,42.3129768,250.1297760
3610,-8.2024927,3.9887197,-3.2632802,58.8473282,68.5190811,250.1297760
3620,-4.4340386,3.9144998,-4.2544746,32.0000000,88.5114517,250.1297760
3630,-0.1699875,3.2584918,-4.7141590,7.4885497,94.1145020,250.1297760
3640,5.6407104,4.2903876,-4.1634955,-11.3435116,90.6412201,250.1297760
3650,12.0379848,4.9727316,-3.1483591,-21.7099228,86.0000000,250.1297760
3660,18.3897686,5.9064655,-1.8435259,-26.2900772,77.5877838,250.1297760
3670,19.6126022,6.9311786,0.4692611,-20.8091602,53.1450386,250.1297760
3680,19.6126022,8.7962523,2.9041519,-6.4732823,51.1068687,159.4580078
3690,19.6126022,7.2376347,5.0852585,10.4656487,26.3664131,-57.0381660
3700,19.6126022,7.1083484,5.4156566,27.1145039,-9.0839691,-143.0229034
3710,19.6126022,6.2679882,4.7524662,50.5267181,-32.5343513,-209.8091583
3720,17.4680061,5.6047974,2.8754215,73.0992355,-34.9312973,-250.1374054
3730,13.6756105,5.6454988,0.3926471,88.2595444,-6.9694657,-250.1374054
3740,10.2112179,5.1810260,-1.5107336,92.1908417,34.6106873,-250.1374054
3750,7.3693151,4.3215117,-3.0094962,87.1908417,70.9465637,-250.1374054
3760,4.5034704,3.2393384,-4.1587071,76.4885483,90.2977066,-250.1374054
3770,1.2114599,1.7214222,-4.9104824,62.1984749,85.8015289,-250.1374054
3780,-5.7843618,-0.6009415,-4.5848727,49.0534363,49.6564903,-250.1374054
3790,-13.5726604,-1.2593436,-3.6080434,46.5267181,-40.8244286,-250.1374054
3800,-19.6131992,-0.6272776,-3.0525916,57.1297722,-141.5114441,-250.1374054
3810,-19.6131992,1.2761030,-4.4005203,58.2213745,-185.7404633,-250.1374054
3820,-19.6131992,3.7684543,-5.7101417,34.7175560,-154.0305328,-250.1374054
3830,-19.6131992,4.3143296,-6.0908179,-2.0305343,-63.5114517,-96.5877838
3840,-19.6131992,2.6719155,-6.3948798,-48.1145020,51.1145020,57.9923668
3850,-19.6131992,2.7221935,-3.9815371,-95.3435135,140.0992432,189.5190887
3860,-19.6131992,2.4971397,-0.2154770,-114.8320618,178.2748108,250.1297760
3870,-19.6131992,1.8483143,2.4133430,-102.6030502,177.8091583,250.1297760
3880,-19.6131992,1.7238164,2.4037662,-80.2671738,164.8244324,250.1297760
3890,-16.3283730,2.2289903,0.5362985,-66.5954208,155.5496216,250.1297760
3900,-12.8280668,2.0853391,-1.4915800,-69.1526718,163.9389343,250.1297760
3910,-9.5695753,1.2665262,-2.7341642,-86.6641235,189.3358765,250.1297760
3920,-6.8401995,0.1867468,-3.2082138,-115.3664093,204.3664093,250.1297760
3930,-2.7820482,-1.0342898,-2.9568241,-145.7404633,203.2137451,250.1297760
3940,3.1746953,-2.2744799,-1.8578910,-168.0458069,185.6488495,250.1297760
3950,12.1098099,-2.2409613,0.5123565,-178.4045868,138.7251892,250.1297760
3960,19.6126022,-0.4381367,3.6726866,-171.9847260,71.6183243,250.1297760
3970,19.6126022,2.7102225,7.7284436,-146.2061005,3.9389312,250.1297760
3980,19.6126022,5.0469513,11.6501255,-105.7786255,-39.6717567,144.3282471
3990,19.6126022,5.0996237,13.8432035,-53.8015251,-51.1221390,-7.0076337
4000,19.6126022,4.4220681,14.5327301,5.8931298,-62.0305328,-142.6335907
4010,19.6126022,3.7732425,13.0363617,60.7251892,-94.9236679,-244.7328186
4020,19.6126022,3.1531475,10.2375546,103.6946564,-119.0457993,-250.1374054
4030,18.9452209,2.6192431,7.0125809,136.4503784,-106.4045792,-250.1374054
4040,14.0969877,2.6623387,3.9935081,156.3664093,-65.0381699,-250.1374054
4050,10.1848822,2.4420733,1.3575054,163.2442780,-17.8473282,-250.1374054
4060,7.5632443,2.1451938,-1.1779412,161.6793823,47.2748108,-250.1374054
4070,6.0572991,1.3383518,-2.6168492,164.2748108,127.9923630,-250.1374054
4080,2.6527619,-0.5578461,-3.6008608,166.8702240,177.8549652,-250.1374054
4090,-0.2873027,-2.5234756,-5.3797436,167.0458069,212.5877838,-250.1374054
4100,-4.9511838,-3.2130022,-7.5225434,170.1526642,242.7022858,-250.1374054
4110,-12.6892042,-3.6271970,-7.8673067,181.1603088,250.1297760,-250.1374054
4120,-19.6131992,-2.7533178,-10.5823174,194.1526642,250.1297760,-250.1374054
4130,-19.6131992,-0.8762733,-13.6325150,192.2900696,250.1297760,-250.1374054
4140,-19.6131992,0.8858501,-18.9907112,165.6335907,250.1297760,-141.8091583
4150,-19.6131992,4.0413918,-19.6131992,34.6793900,131.3358765,-17.5954189
4160,-19.6131992,5.1403246,-19.6131992,-120.9236679,83.7328262,64.6412201
4170,-19.6131992,3.7493007,-19.6131992,-209.0992432,181.5648804,120.6259537
4180,-19.3450508,2.9831600,-16.6731358,-250.1374054,250.1297760,159.3969421
4190,-18.4137115,2.6264257,-13.7258883,-250.1374054,250.1297760,196.8702240
4200,-15.5143480,2.2744799,-10.5559816,-250.1374054,241.3206177,226.0915985
4210,-12.1720591,2.4468615,-7.3525558,-250.1374054,185.7786255,244.7709961
4220,-8.9782104,2.2553265,-5.5952206,-250.1374054,130.6946564,250.1297760
4230,-6.1315193,2.2696917,-4.0557570,-250.1374054,76.7709961,250.1297760
4240,-2.4133430,1.9488702,-1.2210367,-250.1374054,26.2519093,250.1297760
4250,2.7054341,2.0590029,2.4612267,-250.1374054,-26.9847336,250.1297760
4260,8.3916340,2.8251436,6.0620875,-250.1374054,-88.4961853,250.1297760
4270,13.7210999,4.5226240,8.6621771,-206.4351196,-153.9236603,217.4961853
4280,17.3004131,6.7540083,10.8815908,-151.2671814,-199.9313049,164.9084015
4290,19.6126022,8.5376797,13.2231083,-102.8702316,-211.2061005,104.3358765
4300,19.6126022,9.7682934,15.1671906,-56.3587799,-171.9618378,35.7862587
4310,19.6126022,10.2902260,16.3235836,-12.5725193,-84.0381699,-39.3893127
4320,19.6126022,9.9430685,16.5127239,32.4122124,0.5038168,-108.6488571
4330,15.8519287,8.6956959,15.1695843,84.4732819,49.4809151,-162.0763397
4340,12.4809093,7.2711535,12.1960011,138.7099304,66.6946564,-204.0534363
4350,9.7874460,6.1626434,8.2360115,183.8244324,65.4656525,-238.4274750
4360,7.7547798,5.3438311,4.0533628,214.6946564,48.4732819,-250.1374054
4370,6.0596933,4.3478479,0.8810617,232.5190887,32.0458031,-250.1374054
4380,3.8187323,2.9472473,-2.1835008,241.4045868,22.4656487,-250.1374054
4390,-0.0191535,1.1587877,-5.1738434,243.0992432,12.8702288,-250.1374054
4400,-6.8809004,0.0143651,-8.0301113,239.8396912,-21.0076332,-250.1374054
4410,-14.6572275,0.2777260,-10.9821472,232.0915985,-88.3053436,-250.1374054
4420,-19.6131992,1.6926919,-16.6013088,201.1374054,-146.6641235,-250.1374054
4430,-19.6131992,3.1651185,-19.6131992,127.4580154,-162.6870270,-205.2671814
4440,-19.6131992,4.2951760,-19.6131992,24.2977104,-119.6030502,-105.0992355
4450,-19.6131992,3.9121056,-19.6131992,-85.8396912,-18.3053436,-1.3435115
4460,-19.6131992,2.9903426,-19.4001179,-177.6183167,79.9770966,97.7633591
4470,-19.6131992,2.5881188,-14.8655224,-236.3587799,115.7786255,177.7480927
4480,-19.6131992,2.0111191,-10.1250277,-250.1374054,97.7862625,241.2748108
4490,-19.6131992,1.6543850,-6.7061248,-250.1374054,62.3282433,250.1297760
4500,-16.0171280,0.8786675,-4.9248476,-250.1374054,39.7022896,250.1297760
4510,-11.9446115,0.0526722,-4.4555864,-250.1374054,40.0305328,250.1297760
4520,-7.9080076,-1.1085097,-4.5250182,-250.1374054,66.3587799,250.1297760
4530,-3.4572096,-2.2002602,-4.3813667,-250.1374054,101.8015289,250.1297760
4540,0.8810617,-3.1818779,-2.4612267,-250.1374054,122.4503784,250.1297760
4550,5.5401545,-3.7684543,1.5490406,-250.1374054,115.7404556,250.1297760
4560,10.6996326,-3.7564833,7.2496057,-250.1374054,88.8702316,250.1297760
4570,17.8654423,-1.8147956,15.3874559,-250.1374054,33.7709923,250.1297760
4580,19.6126022,0.8259954,19.6126022,-250.1374054,-29.1297703,248.9084015
4590,19.6126022,2.9304879,19.6126022,-158.1755676,-67.8931274,138.4732819
4600,19.6126022,3.7181761,19.6126022,-35.4045792,-65.5267181,34.3893127
4610,19.6126022,2.9640064,19.6126022,82.3664093,-66.1603088,-68.1145020
4620,19.6126022,2.0949159,19.6126022,190.6412201,-89.8396912,-166.7786255
4630,19.6126022,0.8978211,19.6126022,250.1297760,-119.2442780,-234.4198456
4640,15.5406837,0.2705434,17.2884426,250.1297760,-125.1984711,-250.1374054
4650,12.3013458,0.5482694,11.6573086,250.1297760,-107.7633591,-250.1374054
4660,10.4602137,0.9648584,7.4100165,250.1297760,-82.7557220,-250.1374054
4670,8.3078375,0.3543400,4.1299767,250.1297760,-47.3358765,-250.1374054
4680,6.2847471,-0.5123565,0.2849085,250.1297760,-4.9160304,-250.1374054
4690,4.7907729,-1.1707586,-3.6439564,250.1297760,29.5190830,-250.1374054
4700,2.6120608,-2.6838863,-6.8234401,250.1297760,48.2137413,-250.1374054
4710,-1.6902977,-4.3622131,-9.5456333,250.1297760,47.7022896,-250.1374054
4720,-8.7842808,-5.2097564,-12.7275114,250.1297760,18.1221371,-250.1374054
4730,-16.6563759,-4.0820932,-16.8287582,250.1297760,-35.8167953,-250.1374054
4740,-19.6131992,-2.0015423,-19.6131992,250.1297760,-66.3358765,-250.1374054
4750,-19.6131992,-0.0909792,-19.6131992,155.4885559,-52.3129768,-247.0305328
4760,-19.6131992,1.2904681,-19.6131992,38.5190849,-15.5725193,-133.8931274
4770,-19.6131992,1.4293311,-19.6131992,-72.5572510,47.4732819,-16.9465656
4780,-19.6131992,1.1085097,-19.6131992,-156.3206177,103.8244247,82.3206100
4790,-19.6131992,0.7302278,-15.8040447,-205.6564941,122.1450348,156.4503784
4800,-19.6131992,1.3431402,-11.2095947,-218.0915985,98.2748108,209.8549652
4810,-19.6131992,1.3431402,-8.5041609,-213.1297760,65.9007645,250.1297760
4820,-17.2357693,1.6304430,-7.8361821,-204.6030579,39.8015251,250.1297760
4830,-14.2382450,1.7214222,-8.9949694,-205.3358765,15.7862597,250.1297760
4840,-10.9989061,1.2808913,-10.2734671,-222.5114441,-5.2519083,250.1297760
4850,-7.3525558,0.2633608,-10.9605989,-250.1374054,-4.6030536,250.1297760
4860,-3.3973548,-1.0414724,-10.5057030,-250.1374054,20.5038166,250.1297760
4870,0.1987177,-2.5043221,-9.0117292,-250.1374054,50.8549614,250.1297760
4880,3.6583214,-3.7349355,-5.7101417,-250.1374054,65.3282471,250.1297760
4890,7.4315639,-4.4053087,-0.0550664,-250.1374054,45.9312973,250.1297760
4900,11.8608141,-3.8905578,7.1682034,-250.1374054,-11.3893127,250.1297760
4910,17.1783085,-2.0661855,15.6627874,-250.1374054,-89.0229034,250.1297760
4920,19.6126022,0.4285599,19.6126022,-250.1374054,-145.1374054,250.1297760
4930,19.6126022,3.9887197,19.6126022,-149.6488495,-147.9541931,147.5954132
4940,19.6126022,5.2959471,19.6126022,-42.5190849,-115.0839691,30.4732819
4950,19.6126022,4.8673873,19.6126022,53.7938919,-80.1297684,-73.7480927
4960,19.6126022,3.8402798,19.6126022,144.7862549,-65.9770966,-148.4427490
4970,19.5054607,2.3558824,19.6126022,221.2366486,-63.0076332,-195.5648804
4980,15.2366219,1.4939742,16.2373924,250.1297760,-44.7862587,-221.5343475
4990,12.6006193,1.4580613,11.0108776,250.1297760,-23.9465656,-236.7175598
5000,11.4945040,1.8387375,6.5145893,250.1297760,-3.6106870,-250.1374054
5010,9.6701307,1.5131277,2.8562679,250.1297760,28.7251911,-250.1374054
5020,7.9247670,1.3958124,-0.6679789,250.1297760,64.1374054,-250.1374054
5030,6.3996682,1.1707586,-3.7564833,250.1297760,85.5648880,-250.1374054
5040,4.9559722,0.2322364,-6.2655940,250.1297760,90.6106873,-250.1374054
5050,1.6136837,-1.5394639,-8.6190825,250.1297760,90.8549652,-250.1374054
5060,-5.7077475,-2.5785420,-12.6820211,250.1297760,63.8473282,-250.1374054
5070,-14.4656925,-1.4987626,-18.1431675,250.1297760,-13.8854961,-250.1374054
5080,-19.6131992,1.2497669,-19.6131992,250.1297760,-108.9847336,-250.1374054
5090,-19.6131992,3.8115497,-19.6131992,166.4809113,-160.6488495,-213.1450348
5100,-19.6131992,4.9009056,-19.6131992,45.3129768,-119.2824402,-125.6564865
5110,-19.6131992,4.5345950,-19.6131992,-76.7786255,-4.5496182,-39.0916023
5120,-19.6131992,3.6319854,-19.6131992,-174.7480927,95.2366409,40.2977104
5130,-19.6131992,2.7030399,-19.0625362,-231.9770966,113.8549652,105.8625946
5140,-19.6131992,2.3223639,-13.7450418,-247.1145020,47.8396950,160.4351196
5150,-19.6131992,2.4564383,-9.9047613,-236.9923706,-43.5496178,200.9465637
5160,-16.5558205,2.4636209,-8.2024927,-220.1297760,-109.4732819,234.3969421
5170,-13.5582952,2.1954718,-7.7164726,-208.5114441,-134.9236603,250.1297760
5180,-10.9462337,1.4101776,-7.6015515,-206.7175598,-138.6946564,250.1297760
5190,-8.2527714,0.2920911,-7.6374645,-214.6412201,-132.0915985,250.1297760
5200,-5.2265158,-0.5913648,-6.6869712,-229.0000000,-125.7328262,250.1297760
5210,-1.5753766,-1.8052188,-4.9583664,-242.6259613,-119.9236679,250.1297760
5220,3.3111639,-2.7868366,-3.0118904,-250.1374054,-112.1755753,250.1297760
5230,9.0931320,-2.6383967,-0.2226596,-250.1374054,-109.0000000,250.1297760
5240,16.0793762,-1.5227045,3.9144998,-250.1374054,-121.2519073,250.1297760
5250,19.6126022,0.3136388,9.4929609,-238.0152740,-133.9160309,250.1297760
5260,19.6126022,2.7581062,15.2821112,-199.0458069,-122.8091583,225.2977142
5270,19.6126022,4.6351509,19.6126022,-143.7099304,-82.0229034,119.2061081
5280,19.6126022,5.5880380,19.6126022,-71.3206100,-44.2366409,10.6641226
5290,19.6126022,4.8793583,19.6126022,13.3358774,-38.6488533,-75.7633591
5300,19.6126022,4.5992379,19.6126022,100.1984711,-44.8167953,-139.8320618
5310,19.6126022,4.1084290,18.5813046,166.9923706,-42.7633591,-184.6641235
5320,17.7050304,3.5936785,13.5606890,212.1145020,-20.7328243,-216.2290039
5330,14.5087881,3.1124463,9.3229742,238.1832123,13.0152674,-239.4351196
5340,12.0547438,2.9544299,5.6526814,250.1297760,44.5267181,-250.1374054
5350,10.1513634,2.9113343,2.4085546,250.1297760,68.2366409,-250.1374054
5360,8.4299412,2.4181314,-0.1053443,250.1297760,85.9923630,-250.1374054
5370,6.3853035,1.4006008,-2.5593886,250.1297760,98.7175598,-250.1374054
5380,3.6942344,0.2226596,-4.8147149,250.1297760,96.5954208,-250.1374054
5390,0.6895266,-1.1444225,-7.2448173,250.1297760,73.2442780,-250.1374054
5400,-2.5354466,-2.0326669,-9.7635050,250.1297760,44.0305328,-250.1374054
5410,-7.8912482,-2.8466914,-12.5934362,250.1297760,22.8396950,-250.1374054
5420,-15.6651812,-2.2481439,-16.0889530,236.9313049,-6.7404580,-250.1374054
5430,-19.6131992,-0.4932030,-19.6131992,195.7786255,-44.8549614,-250.1374054
5440,-19.6131992,1.6495966,-19.6131992,126.9923630,-48.8320618,-236.3740387
5450,-19.6131992,2.9544299,-19.6131992,31.9618320,-3.8320611,-132.5267181
5460,-19.6131992,3.4835455,-19.6131992,-69.7328262,56.6412201,-21.1832066
5470,-19.6131992,3.0382264,-19.6131992,-149.2977142,105.3206100,75.8778610
5480,-19.6131992,2.8059900,-15.5263186,-193.4809113,115.9465637,147.5877838
5490,-19.6131992,2.7628946,-10.7403336,-207.0915985,84.9312973,199.0152740
5500,-18.5932751,2.8251436,-7.3884687,-197.9923706,37.8244286,234.6412201
5510,-14.8343983,3.0382264,-6.3924856,-180.4274750,-6.9770994,250.1297760
5520,-12.1098099,2.9017577,-7.1969333,-170.2977142,-36.6488533,250.1297760
5530,-9.9526453,2.5306582,-8.3198080,-174.4503784,-53.8625946,250.1297760
5540,-7.9415264,1.9752063,-8.6837254,-189.8702240,-64.8549652,250.1297760
5550,-4.9080882,1.1204807,-8.2360115,-213.0686951,-60.6793900,250.1297760
5560,-1.4317253,0.0957676,-7.3118544,-239.1832123,-38.1297722,250.1297760
5570,2.5043221,-0.7014975,-5.7532372,-250.1374054,-12.0610685,250.1297760
5580,7.2041159,-1.1516051,-2.7150109,-250.1374054,-12.1679392,250.1297760
5590,13.0962162,-0.7733232,1.6112895,-250.1374054,-50.1297722,250.1297760
5600,19.6126022,0.9169745,6.4619174,-250.1374054,-98.1145020,250.1297760
5610,19.6126022,3.2417326,11.2814207,-229.8702240,-121.0457993,243.2137451
5620,19.6126022,5.3701668,15.3683023,-182.3511505,-108.2366409,146.0152740
5630,19.6126022,6.4667058,19.6126022,-127.5114517,-67.5114517,36.0000000
5640,19.6126022,6.5935979,19.6126022,-56.0381660,-27.1145039,-69.0763321
5650,19.6126022,5.6814117,19.6126022,29.7786255,-13.0458012,-151.7022858
5660,19.6126022,4.8123207,19.6126022,111.9465637,-29.1526718,-210.6335907
5670,17.0394459,3.7133877,16.3858318,174.0610657,-49.7938919,-248.2900696
5680,13.4792862,3.1531475,11.8225079,217.2748108,-48.9312973,-250.1374054
5690,11.1138277,2.9831600,7.5057840,239.1450348,-24.7099228,-250.1374054
5700,8.8441362,2.8107784,3.9982965,244.5648804,9.1755724,-250.1374054
5710,6.8378053,2.4492557,1.2641320,242.0229034,48.2748108,-250.1374054
5720,4.8913293,1.9249283,-1.1611819,238.5114441,84.8167953,-250.1374054
5730,3.2872221,1.2401901,-3.0980811,235.1984711,107.7633591,-250.1374054
5740,0.9816177,0.2035061,-5.1594782,233.1984711,109.7480927,-250.1374054
5750,-2.4444675,-0.6488253,-7.5009956,232.2595367,93.4274826,-250.1374054
5760,-6.5959921,-1.0917504,-9.9550400,229.7022858,56.4809151,-250.1374054
5770,-12.8184900,-0.8188128,-13.0866394,219.9618378,5.2748094,-250.1374054
5780,-19.5437679,0.1987177,-16.3499203,196.4198456,-52.7862587,-250.1374054
5790,-19.6131992,2.1164634,-19.6131992,147.3816833,-95.4045792,-244.6717529
5800,-19.6131992,3.7349355,-19.6131992,64.7633591,-67.9847336,-145.8015289
5810,-19.6131992,4.4914994,-19.6131992,-41.0992355,41.3358765,-40.6717567
5820,-19.6131992,4.2616572,-19.6131992,-137.0152740,164.5114441,56.8320618
5830,-19.6131992,3.6726866,-15.5382900,-197.2977142,234.2061005,133.2519073
5840,-19.6131992,2.9759774,-10.7427282,-222.5419922,225.3587799,191.9389343
5850,-19.6131992,3.1818779,-8.3341732,-222.5725250,189.1679382,238.1984711
5860,-15.3252068,3.2584918,-8.1163025,-226.5954132,161.2061005,250.1297760
5870,-11.6573086,3.0789278,-7.9654684,-236.0305328,128.4427490,250.1297760
5880,-7.9080076,2.5546002,-7.9247670,-249.9465637,110.5190811,250.1297760
5890,-4.1563129,2.2792683,-7.5153608,-250.1374054,99.2519073,250.1297760
5900,-1.0893562,2.0901275,-6.4643116,-250.1374054,81.3435135,250.1297760
5910,2.2002602,1.5849534,-3.9839313,-250.1374054,47.8931313,250.1297760
5920,6.2033448,2.0230901,0.4812321,-250.1374054,-19.1908398,250.1297760
5930,10.6421719,2.7557120,5.1403246,-250.1374054,-100.2519073,238.1145020
5940,13.5128050,3.4859397,9.0284882,-219.2671814,-169.9465637,195.5114441
5950,16.5246964,4.5250182,12.8184900,-163.2595367,-223.3816833,149.4503784
5960,19.6126022,5.7939386,15.7370071,-100.8702316,-248.6488495,93.6870193
5970,19.6126022,6.8162575,17.3842087,-40.2900772,-233.2442780,33.3053436
5980,19.6126022,7.0030041,18.2748489,14.5343513,-195.0763397,-28.1374054
5990,17.5446205,6.8641410,18.4304695,65.3587799,-155.1908417,-77.2519073
6000,14.6476507,6.5002246,17.4823723,114.0763321,-118.1450348,-114.1603088
6010,11.4561968,5.9016771,14.7529955,157.8702240,-85.6335907,-137.6870270
6020,8.8321648,5.4084740,11.1305866,191.7328186,-63.5954208,-150.8931274
6030,7.2831244,5.3965030,7.2807302,214.8091583,-38.8473282,-157.4580078
6040,6.3589673,5.6000090,3.2632802,225.0915985,0.9160305,-161.0534363
6050,5.6335278,6.0213866,-0.8427547,221.5496216,46.5877876,-166.6412201
6060,4.9799142,6.7228842,-4.2879934,206.8244324,75.7633591,-178.0839691
6070,4.4436154,7.1658092,-6.2105274,188.6641235,85.9465637,-197.2290039
6080,3.7181761,6.8545642,-7.5440907,173.6946564,95.7099228,-221.8854980
6090,1.5562232,5.8657641,-8.7770987,164.0992432,96.4122162,-250.1374054
6100,-3.8881636,4.9200592,-10.8600435,162.2290039,63.6488533,-250.1374054
6110,-10.3069859,4.8793583,-13.6229382,160.8778687,-1.6259542,-250.1374054
6120,-16.8694592,5.2863703,-18.8422718,136.3435059,-63.7328262,-222.1145020
6130,-19.6131992,6.3757267,-19.6131992,77.9236679,-104.0916061,-159.0915985
6140,-19.6131992,6.9910331,-19.6131992,-6.3587785,-97.2061081,-79.8854980
6150,-19.6131992,6.7420373,-19.6131992,-105.1832047,-20.9923668,5.5954199
6160,-19.6131992,5.8370337,-19.3929348,-187.3282471,61.2442741,81.6870193
6170,-19.6131992,4.8745699,-14.2358503,-238.1145020,102.1450348,141.8015289
6180,-19.6131992,4.0940638,-9.4043760,-250.1374054,81.5496216,189.9389343
6190,-17.0825424,3.3279233,-5.9208307,-250.1374054,21.3053436,228.4656525
6200,-13.5511122,2.7628946,-3.5864959,-235.0305328,-50.7862587,250.1297760
6210,-9.4833841,2.1212518,-2.3295465,-216.1908417,-105.6717529,250.1297760
6220,-5.1355362,1.8578910,-1.3982066,-202.9694672,-121.4885483,250.1297760
6230,-1.2018831,1.7477583,0.0215477,-193.4274750,-117.5419846,250.1297760
6240,3.1292057,1.8890154,1.9847831,-184.0992432,-115.5496216,250.1297760
6250,8.0899658,2.2170193,3.6319854,-169.6641235,-116.1908417,250.1297760
6260,13.7618008,3.2776453,5.0780759,-151.2595367,-114.3282471,250.1297760
6270,18.1048603,4.4220681,6.7492199,-131.7404633,-107.1068726,234.3435059
6280,19.6126022,5.5162125,8.8920193,-108.9083939,-97.2366409,174.9923706
6290,19.6126022,6.3350253,11.7746239,-78.9236679,-82.9312973,109.8931274
6300,19.6126022,6.8593526,14.4225969,-39.4503822,-61.9007645,43.2595406
6310,19.6126022,6.6007805,16.1009235,8.6106873,-45.4809151,-19.8549614
6320,19.6126022,5.9782910,16.0578289,57.7938919,-31.5954189,-72.8167953
6330,19.6126022,4.9463954,14.5087881,101.0000000,-15.4656487,-116.8473282
6340,19.6126022,4.5609307,12.4833040,137.4885559,0.5496183,-154.7404633
6350,18.2485123,4.4938936,10.3788109,165.3816833,27.3587780,-191.1374054
6360,16.1488075,4.5561423,7.9247670,188.4809113,66.7480927,-227.0992432
6370,13.7737722,4.1323709,5.4515696,209.6183167,103.1832047,-250.1374054
6380,11.4538021,3.6511390,2.8658447,229.2137451,131.5114441,-250.1374054
6390,8.9111729,2.4755919,-0.3232156,248.7328186,147.3893127,-250.1374054
6400,5.4012914,0.6368544,-3.6702924,250.1297760,139.9465637,-250.1374054
6410,0.4333483,-1.1563935,-7.4555058,250.1297760,103.5801544,-250.1374054
6420,-5.3773494,-2.1236460,-11.1497402,250.1297760,38.7862587,-250.1374054
6430,-10.6278067,-1.4724265,-15.1504307,250.1297760,-27.4885502,-250.1374054
6440,-14.8128500,-0.3543400,-18.5046902,222.0381622,-53.8015251,-250.1374054
6450,-19.6131992,0.6919208,-19.6131992,151.3893127,-38.8244286,-250.1374054
6460,-19.6131992,2.1882892,-19.6131992,80.4656525,-21.9083977,-250.1374054
6470,-19.6131992,2.9544299,-19.6131992,9.6335878,19.4961834,-164.3816833
6480,-19.6131992,2.9616125,-19.6131992,-65.3816757,77.5038147,-73.9312973
6490,-19.6131992,2.6072724,-17.8079815,-124.7709961,111.4503784,9.4274807
6500,-19.6131992,2.0542145,-14.4393568,-157.1984711,112.3893127,85.3664093
6510,-19.6131992,2.3103929,-11.8751793,-173.9923706,84.8778610,145.8091583
6520,-19.6131992,2.4660151,-9.8449068,-182.6717529,42.0458031,194.4656525
6530,-18.4615955,2.1882892,-8.6166878,-186.1297760,13.2519083,236.3664093
6540,-15.4784346,1.6783268,-8.3126259,-192.4274750,-1.6183206,250.1297760
6550,-12.7753954,1.2234308,-8.2527714,-204.1221313,-7.8091602,250.1297760
6560,-10.0747490,0.3064562,-8.0636301,-223.0839691,-10.0687027,250.1297760
6570,-6.5026188,-0.7469871,-7.1634150,-246.4580078,-5.6183205,250.1297760
6580,-2.4564383,-1.7740943,-5.6191626,-250.1374054,-0.5725191,250.1297760
6590,2.2577207,-2.7126167,-2.9951310,-250.1374054,-3.5954199,250.1297760
6600,8.4730368,-2.3630650,0.9121862,-250.1374054,-31.3587780,250.1297760
6610,15.3419657,-1.0989330,4.9607606,-250.1374054,-75.4122162,250.1297760
6620,19.6126022,1.8339491,9.8473015,-234.8015289,-112.8854980,250.1297760
6630,19.6126022,4.4029145,13.9868546,-181.9923706,-124.3129807,211.0152740
6640,19.6126022,6.5217719,17.2453461,-124.7251892,-106.5648880,104.5801544
6650,19.6126022,7.6254935,19.6126022,-63.9389305,-74.5572510,-6.3816795
6660,19.6126022,7.0317345,19.6126022,4.7175574,-47.2213745,-101.7633591
6670,19.6126022,6.1578555,19.6126022,80.0076370,-43.6259537,-168.7251892
6680,17.8175583,4.9344244,17.0274754,145.7786255,-56.0992355,-210.9465637
6690,13.6612453,4.1706781,13.1201582,195.7175598,-57.8778610,-234.4809113
6700,11.1114330,4.1084290,8.8872309,224.9084015,-43.2900772,-248.8015289
6710,9.6653433,4.1180058,5.0541339,235.7709961,-16.8396950,-250.1374054
6720,8.2791071,3.9695661,1.7836711,236.2519073,20.4809170,-250.1374054
6730,6.5864153,3.7900019,-0.8810617,230.4198456,60.3664131,-250.1374054
6740,4.6159973,3.1842721,-2.8921809,221.8625946,89.5572510,-250.1374054
6750,2.4995339,2.1356170,-4.7333126,214.6030579,105.9312973,-250.1374054
6760,-0.8427547,0.9145803,-6.4978304,212.2061005,102.1145020,-250.1374054
6770,-4.6112089,0.2609667,-7.7739329,214.8549652,66.1526718,-250.1374054
6780,-9.1314383,0.4261657,-10.2064295,214.6183167,13.7480917,-250.1374054
6790,-15.1336718,0.9600700,-13.7929258,196.9313049,-23.4198475,-250.1374054
6800,-19.6131992,2.3391230,-16.7066536,157.0076294,-55.7480927,-250.1374054
6810,-19.6131992,3.7828193,-19.3378677,95.4427490,-56.9618340,-186.6488495
6820,-19.6131992,4.4412212,-19.6131992,14.8625956,-6.0992365,-89.2061081
6830,-19.6131992,4.3239059,-19.6131992,-72.7404556,63.0839691,15.0229006
6840,-19.6131992,3.9384418,-17.4416695,-148.0686951,125.1297684,113.3511429
6850,-19.6131992,3.6343796,-13.6588507,-202.0915985,169.9770966,191.4427490
6860,-19.6131992,3.4859397,-10.7666702,-236.5725250,191.7709961,250.1297760
6870,-19.6131992,3.1890604,-8.7076674,-250.1374054,197.0610657,250.1297760
6880,-16.5103302,2.5426292,-7.4195933,-250.1374054,191.4351196,250.1297760
6890,-12.4138727,1.6136837,-6.4714942,-250.1374054,173.3129730,250.1297760
6900,-7.4291697,0.6440369,-5.2935529,-250.1374054,145.3893127,250.1297760
6910,-2.0422437,-0.2298422,-3.4763632,-250.1374054,109.9618301,250.1297760
6920,3.8498566,-0.4572902,-0.5674229,-250.1374054,52.0152664,250.1297760
6930,10.5176744,0.1556223,3.3662305,-250.1374054,-20.6564884,250.1297760
6940,16.5558205,1.6088953,7.0939832,-250.1374054,-91.1145020,250.1297760
6950,19.6126022,3.6056492,11.6980095,-211.1221313,-145.3358765,239.5038147
6960,19.6126022,5.5449429,15.7130651,-154.0534363,-166.5725250,149.9847260
6970,19.6126022,7.1562324,18.9212799,-96.7709961,-127.6259537,57.0610695
6980,19.6126022,7.3142486,19.6126022,-36.6564903,-48.4885483,-36.4656487
6990,19.6126022,6.3541789,19.6126022,32.3893127,16.9618320,-115.1297684
7000,18.7776279,5.2408805,19.3091373,105.1526718,28.2061062,-174.8396912
7010,13.9844608,3.9168940,16.3882275,173.5954132,4.8015265,-216.6335907
7020,10.4171181,3.2297616,12.4952745,230.5648804,-21.9465656,-243.2519073
7030,8.7579451,3.2153964,8.3964224,250.1297760,-40.2442741,-250.1374054
7040,7.6207051,3.0286496,4.1419477,250.1297760,-44.6259537,-250.1374054
7050,6.0213866,2.7150109,0.0742199,250.1297760,-31.5725193,-250.1374054
7060,4.2065907,2.2505381,-3.6104376,250.1297760,-6.5801525,-250.1374054
7070,2.4085546,1.6088953,-6.3062949,250.1297760,12.2213745,-250.1374054
7080,0.1508339,0.7014975,-8.0133524,250.1297760,19.2748089,-250.1374054
7090,-3.0454090,-0.0095768,-9.3253679,244.6335907,21.0000000,-250.1374054
7100,-6.4571290,-0.1891410,-10.5033092,230.6717529,23.9923668,-250.1374054
7110,-11.7458935,0.5219333,-12.3635941,210.0152740,34.0228996,-250.1374054
7120,-18.9643745,1.6687500,-15.0235386,177.0915985,57.0534363,-250.1374054
7130,-19.6131992,2.9687948,-17.8510761,129.2061005,77.7099228,-220.5954132
7140,-19.6131992,3.9312592,-19.6131992,69.7862625,72.6412201,-111.6717529
7150,-19.6131992,4.8123207,-19.6131992,1.8549619,53.9694672,0.8320611
7160,-19.6131992,5.0277977,-19.6131992,-76.9465637,54.3664131,98.3969498
7170,-19.6131992,4.1036406,-19.6131992,-154.5572510,66.9542007,172.2824402
7180,-15.7274303,2.9280937,-18.8733959,-220.3129730,92.5267181,220.6793823
7190,-11.6860390,2.0613971,-15.6292686,-250.1374054,113.4427490,248.7862549
7200,-8.9231443,1.5131277,-12.4497852,-250.1374054,119.7786255,250.1297760
7210,-7.3357964,1.1779412,-9.2846670,-250.1374054,108.4351120,250.1297760
7220,-5.8202744,0.9624642,-6.3254485,-250.1374054,80.2213745,250.1297760
7230,-4.3119354,0.4860204,-3.3518653,-250.1374054,35.3511467,250.1297760
7240,-2.3247581,0.0359128,-0.4333483,-250.1374054,-22.8854961,250.1297760
7250,0.8930327,-0.4357425,3.0094962,-250.1374054,-97.3129807,250.1297760
7260,4.7596488,-0.4525018,5.0014620,-250.1374054,-171.3358765,250.1297760
7270,8.7555504,0.2298422,5.8801293,-212.9236603,-220.7099304,250.1297760
7280,14.3531656,2.4157372,6.2919297,-178.6870270,-230.8396912,250.1297760
7290,19.6126022,5.0230093,8.2647419,-158.5801544,-201.6946564,228.9770966
7300,19.6126022,7.1873569,11.8105364,-141.9847260,-123.1526718,153.2900696
7310,19.6126022,8.2192526,16.0554352,-113.9694672,-17.3893127,69.6412201
7320,19.6126022,8.3748751,19.6126022,-59.5801544,64.1374054,-12.9770994
7330,19.6126022,7.4962072,19.6126022,20.4961834,79.6946564,-85.8015289
7340,17.0131111,6.2224984,19.6126022,109.0992355,57.3893127,-146.7251892
7350,13.5223818,5.0900469,16.2661228,191.2671814,17.0152664,-192.8320618
7360,11.3149395,4.4867110,11.8177195,250.1297760,-14.3282442,-232.6946564
7370,9.5623922,3.7038112,7.0173693,250.1297760,-20.6717548,-250.1374054
7380,8.3605099,3.0047078,2.6144550,250.1297760,-6.5190840,-250.1374054
7390,6.7228842,1.9297167,-0.6368544,250.1297760,13.8625956,-250.1374054
7400,4.3646073,0.5291159,-3.0286496,250.1297760,19.7022896,-250.1374054
7410,1.5370697,-0.8810617,-5.0972295,250.1297760,12.2824430,-250.1374054
7420,-2.3917952,-1.7501525,-7.8888540,250.1297760,-2.6946564,-250.1374054
7430,-8.0468712,-1.8267666,-11.2048063,250.1297760,-17.9312973,-250.1374054
7440,-15.3563309,-0.4788379,-14.3771076,250.1297760,-31.6488552,-250.1374054
7450,-19.6131992,1.2234308,-17.6595421,196.4809113,-29.6564884,-250.1374054
7460,-19.6131992,3.0094962,-19.6131992,121.6106873,-4.8167939,-197.4503784
7470,-19.6131992,4.1371593,-19.6131992,36.8549614,38.6412201,-93.8320618
7480,-19.6131992,4.5226240,-19.6131992,-46.5190849,89.4198456,11.4885492
7490,-19.6131992,4.3286943,-19.4695492,-118.0152664,131.4885559,97.9083939
7500,-19.6131992,3.7971845,-15.9453020,-165.8931274,142.1450348,160.9465637
7510,-17.8055878,3.7780309,-13.0698805,-190.9847260,125.1068726,202.8091583
7520,-14.0227680,4.0054789,-11.6022425,-202.5343475,102.2824402,229.7175598
7530,-11.2431135,4.1180058,-11.3532467,-209.8015289,79.3206100,247.4809113
7540,-9.4929609,4.1395535,-11.5663290,-223.1603088,50.2213745,250.1297760
7550,-7.1945391,3.8570392,-11.0827026,-241.1679382,20.7709923,250.1297760
7560,-5.0804701,3.4428444,-10.0292597,-250.1374054,6.1374044,250.1297760
7570,-3.5122759,2.3486998,-8.8656836,-250.1374054,6.8320613,250.1297760
7580,-1.3096216,0.9624642,-6.5983863,-250.1374054,10.4656487,250.1297760
7590,1.2617378,-0.0957676,-3.3877780,-250.1374054,1.1145039,250.1297760
7600,4.6926112,-1.0366840,1.0486550,-250.1374054,-32.1221390,250.1297760
7610,8.3676920,-1.0989330,4.7644372,-250.1374054,-85.5038147,250.1297760
7620,13.2805691,0.3351865,8.9039907,-250.1374054,-145.4580078,250.1297760
7630,18.7895985,3.0358322,12.8065195,-208.7328186,-186.3053436,240.7633514
7640,19.6126022,5.6119800,16.4241390,-155.5267181,-177.6870270,169.8091583
7650,19.6126022,7.1011658,19.6126022,-100.6488571,-119.8778610,79.6488571
7660,19.6126022,7.3980455,19.6126022,-39.2595406,-50.6488533,-15.4351149
7670,19.6126022,6.5481081,19.6126022,37.3969460,-10.1450386,-99.4122162
7680,19.6126022,5.1139889,19.6126022,116.3740463,-11.0229006,-163.3587799
7690,16.3020363,4.0461802,16.8814297,187.3893127,-35.7328262,-207.7022858
7700,13.0315733,3.4691806,12.3300753,237.2366486,-58.3587799,-237.4351196
7710,11.0060892,3.7085996,7.7739329,250.1297760,-60.2900772,-250.1374054
7720,9.5552101,3.9168940,3.6894460,250.1297760,-38.2595406,-250.1374054
7730,7.7475972,3.8187323,0.1316804,250.1297760,-10.3282442,-250.1374054
7740,6.1003947,3.4165084,-2.8442972,250.1297760,5.6870227,-250.1374054
7750,4.2305326,2.4803803,-5.1499014,250.0229034,3.7251909,-250.1374054
7760,1.8052188,1.3766589,-7.8146343,238.7938995,-9.1908398,-250.1374054
7770,-2.5569944,0.2418131,-10.1800938,224.4427490,-24.6030540,-250.1374054
7780,-8.7507620,0.1651991,-12.1720591,206.1526642,-49.1908379,-250.1374054
7790,-15.8208036,1.2306134,-14.7266598,174.8396912,-68.8625946,-250.1374054
7800,-19.6131992,2.8395088,-17.6858768,125.1526718,-76.5801544,-250.1374054
7810,-19.6131992,4.1084290,-19.6131992,55.6564903,-55.3435097,-197.9465637
7820,-19.6131992,4.7548604,-19.6131992,-32.0000000,6.3129773,-94.6030502
7830,-19.6131992,4.1634955,-19.6108055,-118.0534363,81.7709961,5.4122138
7840,-19.6131992,3.4069316,-15.4832230,-183.9389343,133.3893127,92.6335907
7850,-19.6131992,2.9089401,-11.0994625,-219.2519073,142.9084015,156.4656525
7860,-19.5198269,2.8730273,-7.7021074,-230.5038147,119.3587799,202.0076294
7870,-16.0290985,2.9855542,-5.1403246,-226.9084015,82.1679382,230.5648804
7880,-13.0794573,3.0645626,-3.4332676,-214.8778687,47.4045792,250.1297760
7890,-10.6373835,3.1196289,-2.7796540,-200.6335907,19.3816795,250.1297760
7900,-8.2791071,2.8083842,-2.7293761,-188.5419922,-2.2519083,250.1297760
7910,-5.9639258,2.6599445,-2.8610563,-183.9847260,-14.2900763,250.1297760
7920,-3.5697365,2.0637913,-3.2728570,-185.8320618,-17.3053436,250.1297760
7930,-0.6799498,1.5705882,-3.3782012,-195.1145020,-18.1832066,250.1297760
7940,2.0829449,1.2689204,-2.6862805,-207.6412201,-25.9007626,250.1297760
7950,6.0836353,0.7685348,-0.8403605,-216.0305328,-41.8320618,250.1297760
7960,10.6900558,0.9457048,2.0590029,-212.7099304,-70.9847336,250.1297760
7970,16.0314922,2.3486998,5.6550756,-195.4351196,-112.7938919,250.1297760
7980,19.6126022,4.4196739,9.9119444,-165.7251892,-140.1221313,221.8244324
7990,19.6126022,6.5552907,14.1424770,-129.1679382,-125.2137375,149.3435059
8000,19.6126022,7.9056134,18.1982346,-84.3206100,-72.2900772,61.3587799
8010,19.6126022,8.0971489,19.6126022,-23.3893127,-8.0229006,-25.1374054
8020,19.6126022,7.3549500,19.6126022,53.7022896,24.1832066,-95.4885483
8030,18.3610382,6.4044566,19.6036224,132.5267181,13.1679392,-146.3664093
8040,14.7601776,5.4826937,15.5215302,201.5648804,-11.6717558,-182.7251892
8050,11.9493999,5.2360926,10.7331514,249.6030579,-26.0458012,-208.3816833
8060,10.1585455,5.3414369,5.9878678,250.1297760,-13.0229006,-230.1755676
8070,8.6262646,5.4563580,1.9943599,250.1297760,16.2824421,-250.1374054
8080,7.1442614,5.1355362,-1.1444225,250.1297760,50.1145020,-250.1374054
8090,5.8490047,4.6136031,-3.3949606,250.1297760,75.2061081,-250.1374054
8100,4.2329268,3.5098817,-5.1331420,250.1297760,82.8931274,-250.1374054
8110,2.5186872,2.4085546,-6.6055689,248.0686951,74.8091583,-250.1374054
8120,0.0000000,1.4173602,-8.3389616,245.5496216,53.8015251,-250.1374054
8130,-3.9264708,0.7158626,-10.3309278,238.3511505,24.4656487,-250.1374054
8140,-8.8058290,0.9528874,-12.3635941,220.9465637,-16.6488552,-250.1374054
8150,-13.9078465,1.5825592,-13.7689838,194.0305328,-57.5267181,-250.1374054
8160,-19.4743366,2.4181314,-15.0235386,158.8473358,-91.3816757,-250.1374054
8170,-19.6131992,3.5673423,-16.8981895,113.3893127,-97.9847336,-202.3053436
8180,-19.6131992,4.0485744,-19.2564659,49.2671738,-63.3740463,-119.2977066
8190,-19.6131992,3.9073172,-19.6131992,-25.7175579,-9.0305347,-30.7938938
8200,-19.6131992,3.2656744,-18.7752342,-94.6412201,31.3358784,57.3435097
8210,-19.6131992,2.8395088,-16.2038746,-142.9770966,38.1221390,130.7022858
8220,-19.6131992,2.6527619,-13.4505568,-175.2442780,22.5114498,185.3587799
8230,-16.4863892,2.5091105,-11.0372133,-192.2671814,-1.9160305,224.3740387
8240,-13.4505568,2.5976956,-9.6725254,-201.3053436,-22.4809170,250.1297760
8250,-10.6972389,2.8395088,-8.9422979,-209.5725250,-32.5648842,250.1297760
8260,-8.8369532,2.4492557,-8.5400734,-221.4503784,-36.2137413,250.1297760
8270,-7.1993275,1.8195840,-8.2982607,-240.3358765,-34.3893127,250.1297760
8280,-4.4795284,0.9097920,-7.6183109,-250.1374054,-22.6870232,250.1297760
8290,-1.5705882,-0.0335187,-6.5457139,-250.1374054,2.7480917,250.1297760
8300,0.7493813,-1.3096216,-4.7740140,-250.1374054,33.2442741,250.1297760
8310,3.3351059,-3.1339941,-1.5658000,-250.1374054,51.0610695,250.1297760
8320,7.2304521,-4.0796990,2.9496415,-250.1374054,33.5114517,250.1297760
8330,13.1560707,-2.9448531,9.0835552,-250.1374054,-26.9694653,250.1297760
8340,19.6126022,-0.1029501,15.7202482,-250.1374054,-100.9389343,250.1297760
8350,19.6126022,3.4907281,19.6126022,-201.8549652,-139.8549652,215.2213745
8360,19.6126022,5.6047974,19.6126022,-113.3129807,-115.1297684,117.6412201
8370,19.6126022,6.2560172,19.6126022,-26.2366409,-55.5954208,24.1679382
8380,19.6126022,5.7963328,19.6126022,55.0305328,-21.4045811,-55.1908379
8390,19.6126022,4.6088147,19.6126022,131.7786255,-22.8625946,-116.4045792
8400,16.2373924,3.5649481,17.6691189,195.9618378,-36.2519073,-157.8931274
8410,12.6868095,3.2848279,13.0076313,243.8473358,-38.8244286,-179.2748108
8420,10.6134415,3.9480183,8.7962523,250.1297760,-19.5190830,-188.7022858
8430,9.9430685,4.8721757,5.4443870,250.1297760,18.0458012,-199.1526642
8440,9.5121145,5.5952206,2.0374553,250.1297760,61.5725174,-218.8167877
8450,8.7172441,5.8346395,-1.4652439,250.1297760,94.9618301,-247.4656525
8460,7.2400289,5.3797436,-4.2329268,250.1297760,97.9542007,-250.1374054
8470,5.5664907,4.3167233,-6.7516141,250.1297760,83.7786255,-250.1374054
8480,2.4109488,3.1076579,-9.3133974,250.1297760,54.6030540,-250.1374054
8490,-3.7349355,2.1930776,-12.6485033,250.1297760,14.8778629,-250.1374054
8500,-11.0276365,2.5522060,-16.6827126,247.5267181,-29.1984730,-250.1374054
8510,-17.9324799,3.9552009,-19.6131992,201.4580078,-69.4045792,-250.1374054
8520,-19.6131992,5.3653784,-19.6131992,130.4503784,-96.2213745,-212.5343475
8530,-19.6131992,6.0740585,-19.6131992,42.0534363,-85.9465637,-127.7862625
8540,-19.6131992,5.9806852,-19.6131992,-45.6870232,-31.9694653,-46.2748108
8550,-19.6131992,5.4060798,-18.9907112,-119.5572510,26.2824421,24.7404575
8560,-19.6131992,4.7165532,-14.7745428,-164.5496216,49.1832047,80.0839691
8570,-18.4544125,4.3646073,-11.4705620,-186.3587799,32.6412201,124.5801544
8580,-15.8495340,4.1922259,-8.8106174,-192.5190887,-4.1221375,159.9389343
8590,-13.9557304,4.0461802,-7.3549500,-189.7175598,-43.6183205,190.3893127
8600,-11.8153248,3.6870518,-6.7731619,-189.1450348,-76.9542007,220.7022858
8610,-9.4355011,3.1675127,-6.4236102,-195.0305328,-94.1526718,250.1297760
8620,-6.6462698,2.4013720,-5.8442163,-204.3129730,-97.3969498,250.1297760
8630,-3.5721307,1.6065011,-5.2576399,-218.3893127,-92.4427490,250.1297760
8640,0.0885850,0.4453192,-4.6830344,-234.9465637,-92.7175598,250.1297760
8650,4.6495161,-0.2226596,-3.1244173,-250.1374054,-100.7633591,250.1297760
8660,9.8784256,-0.6751614,-1.4317253,-250.1374054,-116.8015289,250.1297760
8670,16.5175133,-0.4740495,0.8212070,-250.1374054,-125.8625946,250.1297760
8680,19.6126022,0.7852941,3.8690102,-250.1374054,-112.5725174,250.1297760
8690,19.6126022,2.7341642,8.4514885,-250.1374054,-71.0000000,180.0229034
8700,19.6126022,3.8450682,15.0953646,-250.1374054,1.1603054,100.4809189
8710,19.6126022,4.3765783,19.6126022,-233.3053436,66.2671738,33.1221390
8720,19.6126022,5.1068063,19.6126022,-150.8091583,82.7633591,-30.1145039
8730,19.6126022,4.3813667,19.6126022,-34.6717567,55.1755714,-86.4427490
8740,18.9571915,3.6631098,19.6126022,91.5419846,15.8778629,-132.1068726
8750,16.6204624,3.3279233,19.6126022,191.8015289,-16.4503822,-165.8549652
8760,14.9373484,2.9544299,16.4121685,250.1297760,-20.0992374,-192.8396912
8770,13.6923695,3.1339941,9.2822723,250.1297760,17.6183205,-218.5114441
8780,12.1145983,3.8450682,4.0030847,250.1297760,69.2824402,-246.1679382
8790,10.1058741,4.1706781,0.6512195,250.1297760,112.5267181,-250.1374054
8800,8.0564480,3.6631098,-1.6615674,250.1297760,150.4503784,-250.1374054
8810,6.0668759,3.1292057,-3.7971845,250.1297760,164.0534363,-250.1374054
8820,3.4955165,2.0637913,-5.7939386,250.1297760,145.7022858,-250.1374054
8830,-0.5650287,0.7565638,-7.7643566,250.1297760,95.3587799,-250.1374054
8840,-6.7492199,0.1747758,-9.8975792,250.1297760,16.5954189,-250.1374054
8850,-13.2781744,0.5099624,-12.7730007,250.1297760,-66.3893127,-250.1374054
8860,-18.8159351,1.3886299,-16.0434628,248.9465637,-122.6564865,-250.1374054
8870,-19.6131992,2.7197993,-18.9308567,191.4198456,-140.1297760,-250.1374054
8880,-19.6131992,3.9671719,-19.6131992,114.3893127,-118.8854980,-203.2595367
8890,-19.6131992,4.5082588,-19.6131992,32.6030540,-65.2290039,-116.4427490
8900,-19.6131992,4.2927818,-18.8159351,-45.7786255,-6.4427481,-23.1297703
8910,-19.6131992,3.7995787,-15.8734760,-107.2442780,30.5572510,63.2061081
8920,-19.6131992,3.4572096,-12.7107515,-146.2824402,33.4198456,135.1297760
8930,-19.6131992,3.1363883,-10.3405046,-166.4961853,11.5801525,188.9160309
8940,-17.5134964,3.0717452,-8.6645718,-175.3206177,-18.6335869,228.2442780
8950,-14.2454271,3.1124463,-7.3980455,-180.6183167,-47.4274826,250.1297760
8960,-11.2431135,2.6767037,-6.5098009,-184.6641235,-66.7786255,250.1297760
8970,-8.7124557,2.3367288,-6.1626434,-192.0686951,-72.9389343,250.1297760
8980,-6.2009506,1.6735384,-5.6478930,-204.8625946,-72.3511429,250.1297760
8990,-3.3566537,0.9241571,-4.9679432,-220.4809113,-67.8320618,250.1297760
9000,0.0047884,-0.0861908,-3.9456241,-236.6793823,-65.4198456,250.1297760
9010,4.0916696,-0.8810617,-1.8938038,-249.5572510,-75.5190811,250.1297760
9020,9.4738073,-0.9097920,1.2593436,-250.1374054,-104.0839691,250.1297760
9030,15.4784346,0.1053443,5.0014620,-240.8167877,-133.9923706,250.1297760
9040,19.6126022,1.8483143,9.0045462,-219.2366486,-147.0610657,250.1297760
9050,19.6126022,3.9049230,13.5535069,-191.0992432,-133.9007568,195.9313049
9060,19.6126022,5.6885943,18.8805771,-154.4809113,-88.3740463,103.6412201
9070,19.6126022,6.1698260,19.6126022,-96.5954208,-28.6259537,6.5725193
9080,19.6126022,5.7508430,19.6126022,-13.2671757,6.1145039,-78.0152664
9090,19.6126022,4.9440012,19.6126022,78.9847336,3.3511450,-135.0915985
9100,16.7042599,4.0725164,19.6126022,161.6946564,-19.7404575,-172.2824402
9110,13.5056229,3.3710186,15.5957499,220.2061005,-31.1450386,-194.5190887
9120,11.7075863,3.7612717,9.7228031,249.8931274,-15.6030531,-209.9160309
9130,10.3069859,4.3334827,5.2720051,250.1297760,21.2366409,-224.2442780
9140,8.9853926,4.7093706,2.1236460,241.1450348,70.0687027,-239.4122162
9150,7.7428088,4.8793583,0.2250538,229.9847260,112.3206100,-250.1374054
9160,6.5265603,4.5058646,-0.8930327,226.2061005,139.4961853,-250.1374054
9170,4.7357068,3.7109938,-2.1930776,230.3053436,146.4809113,-250.1374054
9180,2.5881188,2.8059900,-3.5888901,238.3358765,134.7709961,-250.1374054
9190,-0.8714849,1.5203103,-5.6957769,247.2290039,117.0534363,-250.1374054
9200,-6.0501165,0.8786675,-8.4993725,250.1297760,89.1755753,-250.1374054
9210,-11.8895445,1.2665262,-11.5543585,245.9618378,40.2290077,-250.1374054
9220,-18.1742916,2.4971397,-15.1264887,221.2519073,-13.8320608,-250.1374054
9230,-19.6131992,4.5920553,-19.4456062,170.2137451,-36.2595406,-235.5190887
9240,-19.6131992,5.9328012,-19.6131992,88.4732819,-3.8015268,-149.0000000
9250,-19.6131992,6.4427638,-19.6131992,-14.6106873,61.1068687,-48.5801544
9260,-19.6131992,6.2033448,-19.6131992,-113.2519073,137.7633514,50.6259537
9270,-19.6131992,5.4180508,-19.6131992,-195.6106873,191.2213745,133.9084015
9280,-19.6131992,4.6926112,-17.6619358,-250.1374054,204.9084015,193.1450348
9290,-18.0258522,4.0222383,-14.0826225,-250.1374054,181.4961853,229.2061005
9300,-14.3986549,3.8905578,-10.8217363,-250.1374054,133.5725250,250.1297760
9310,-11.0970678,3.6966286,-8.5520449,-250.1374054,80.2595444,250.1297760
9320,-8.1330614,3.3949606,-6.8593526,-250.1374054,34.6335869,250.1297760
9330,-5.3438311,2.7437410,-5.5545197,-250.1374054,-1.3358779,250.1297760
9340,-2.4684093,1.7764885,-4.3646073,-250.1374054,-25.8549614,250.1297760
9350,0.5746055,0.9768293,-2.5115047,-250.1374054,-51.7328262,250.1297760
9360,3.9073172,0.0383070,0.2633608,-250.1374054,-87.1450348,250.1297760
9370,8.1258793,-0.3926471,3.6200144,-250.1374054,-142.2213745,250.1297760
9380,13.1943779,0.1173153,7.5680327,-250.1374054,-207.9313049,224.8015289
9390,17.8391056,1.4843974,11.0300312,-229.1221313,-250.1374054,180.0458069
9400,19.6126022,3.1411765,14.9732609,-187.5419922,-250.1374054,120.0992355
9410,19.6126022,4.2592630,18.6962261,-147.5114441,-248.1221313,52.2366409
9420,19.6126022,4.4460096,19.6126022,-102.8854980,-154.9618378,-21.3358784
9430,19.6126022,4.0557570,19.6126022,-40.4732819,-50.0992355,-92.2366409
9440,18.2461185,2.9903426,19.6126022,36.4122124,6.4961834,-148.7862549
9450,13.0579090,1.6950861,19.6126022,119.2519073,8.7786255,-182.8167877
9460,9.4187412,0.9050036,19.6126022,194.8473358,-10.0839691,-200.4809113
9470,7.3286138,1.0151364,16.1224709,250.1297760,-21.1603050,-207.2671814
9480,6.7492199,1.6974803,11.0204544,250.1297760,-18.0152664,-213.3664093
9490,6.7109132,2.5426292,6.6510582,250.1297760,7.1679387,-226.6183167
9500,6.5528965,2.9616125,3.2201848,250.1297760,45.5954208,-246.5572510
9510,5.8944945,2.7389526,0.3950413,250.1297760,78.9618301,-250.1374054
9520,4.4819226,2.1308286,-2.6790979,250.1297760,96.4122162,-250.1374054
9530,1.6902977,1.1563935,-5.5018473,250.1297760,88.8015289,-250.1374054
9540,-2.4444675,0.3854645,-8.3317795,250.1297760,52.6564903,-250.1374054
9550,-7.9032192,0.7613522,-11.4514084,250.1297760,-4.2900763,-250.1374054
9560,-13.6540623,2.0781565,-15.0881815,250.1297760,-60.1984749,-250.1374054
9570,-18.4711723,3.6894460,-18.0737362,213.4885559,-89.7862625,-250.1374054
9580,-19.6131992,5.4922705,-19.6131992,138.5114441,-76.4351120,-174.6946564
9590,-19.6131992,6.4020624,-19.6131992,41.3435097,-12.4503813,-83.8625946
9600,-19.6131992,6.3972740,-19.6131992,-63.5801544,85.2137375,7.4045801
9610,-19.6131992,5.4659348,-19.6131992,-155.5725250,173.3587799,93.2290039
9620,-19.6131992,5.2360926,-16.3403435,-219.4274750,222.7557220,158.1526642
9630,-19.6131992,3.7564833,-12.6676559,-250.1374054,207.2061005,209.5725250
9640,-17.3650570,3.9839313,-9.8951855,-250.1374054,162.4961853,243.2366486
9650,-14.0538921,3.9456241,-7.5800037,-250.1374054,110.0305328,250.1297760
9660,-11.1808643,3.7684543,-6.0213866,-250.1374054,65.2290039,250.1297760
9670,-8.4826136,3.1986370,-4.9966736,-250.1374054,35.9541969,250.1297760
9680,-6.0046272,2.8107784,-4.1946201,-250.1374054,22.0992374,250.1297760
9690,-3.1890604,2.2218077,-3.2417326,-250.1374054,17.6335869,250.1297760
9700,-0.6631905,1.4101776,-2.3199697,-250.1374054,14.3282442,250.1297760
9710,1.9680238,0.6607963,-0.6129125,-250.1374054,1.6641221,250.1297760
9720,5.5377603,0.3232156,2.3032103,-250.1374054,-25.3053436,250.1297760
9730,9.5791521,0.4692611,5.7484488,-250.1374054,-69.0687027,250.1297760
9740,15.2438040,1.4365137,10.2806492,-247.9007568,-123.1374054,230.1984711
9750,19.6126022,2.9975252,14.4920292,-197.4885559,-165.0839691,169.0992432
9760,19.6126022,4.5010762,18.0928898,-139.5419922,-181.2900696,91.6793900
9770,19.6126022,5.6024032,19.6126022,-80.3664093,-166.9007568,5.8091602
9780,19.6126022,5.4898763,19.6126022,-12.9312973,-120.0839691,-72.8702316
9790,19.6126022,5.0900469,19.6126022,58.5725174,-72.0992355,-128.0076294
9800,15.8040447,4.5561423,19.6126022,128.2442780,-48.7404594,-159.5572510
9810,12.9262285,3.8235207,18.5573616,186.4198456,-44.8854980,-178.4427490
9820,10.8696203,3.3997490,14.4944229,231.1145020,-35.8702278,-191.5190887
9830,9.2056589,3.4883339,10.3500814,250.1297760,-16.2900772,-200.0915985
9840,8.2288294,3.9312592,6.8880830,250.1297760,10.9618320,-208.0152740
9850,7.3453732,4.1132174,4.2496862,250.1297760,46.4503822,-219.2290039
9860,6.4547348,4.1587071,2.2409613,250.1297760,86.0305328,-234.3053436
9870,5.3845320,3.9192882,0.2753318,250.1297760,116.2442780,-250.1374054
9880,3.4907281,2.9328821,-1.6902977,250.1297760,127.1832047,-250.1374054
9890,1.2449785,2.0159075,-3.6583214,250.1297760,103.9007645,-250.1374054
9900,-2.1571648,1.2641320,-6.1602492,250.1297760,49.3435097,-250.1374054
9910,-6.2847471,1.3503228,-9.1841106,250.1297760,-29.7480907,-250.1374054
9920,-10.3381100,2.4277081,-13.0938225,250.1297760,-109.1603088,-250.1374054
9930,-13.6396971,4.0988522,-16.9795914,247.7862549,-147.2442780,-250.1374054
9940,-16.5294838,5.3294659,-19.6131992,175.5038147,-127.2977066,-219.2061005
9950,-19.2181587,6.0644817,-19.6131992,86.3358765,-53.7709923,-165.4732819
9960,-19.6131992,6.0549049,-19.6131992,-2.5190840,40.2442741,-99.0534363
9970,-19.6131992,6.1243367,-18.7560806,-76.0916061,109.2290039,-29.3358784
9980,-19.6131992,6.3278427,-16.6037045,-134.1068726,144.3893127,35.4198456
9990,-19.6131992,5.6766233,-14.6189203,-175.7328186,147.7786255,90.5267181
