timestamp,acclX,acclY,acclZ,gyroX,gyroY,gyroZ
0,5.4970589,2.0566087,8.7770987,-16.6793900,18.2595425,28.0076332
10,3.8330972,1.7022687,8.7675219,-5.7709923,24.3053436,2.2442749
20,3.8690102,1.7669119,8.0923605,-8.1679392,15.1984730,6.8702292
30,3.9528067,2.0039365,7.8242111,-20.5877857,5.2824426,9.7633591
40,3.8737986,2.0254843,7.7092900,-29.3358784,-3.0763359,12.8015270
50,4.0006905,2.0661855,7.6590118,-38.1297722,-13.0458012,16.6259537
60,4.4843168,2.3774302,7.7428088,-47.1374054,-24.7709923,19.2595425
70,5.1666608,2.3463056,7.8433647,-55.0916023,-36.8320618,17.5954189
80,5.5712790,1.8674678,8.4251528,-61.0228996,-49.2442741,13.5725193
90,5.7005649,1.8746504,9.0093346,-64.1450348,-63.9771004,10.2748089
100,6.2464404,1.5490406,9.7108326,-61.4656487,-78.9770966,6.7175574
110,7.2591825,1.3718705,9.9885588,-57.9465637,-84.5572510,0.7328244
120,8.4299412,1.4365137,10.6780853,-56.1679382,-97.4198456,-11.2595415
130,9.3660688,1.3000449,11.2957859,-54.1526718,-112.3816757,-27.7786255
140,10.3093796,0.4979914,12.1792421,-49.9618340,-124.4580154,-46.3511467
150,11.0922794,0.3112446,13.8336267,-43.3511467,-145.9847260,-70.3206100
160,12.0092545,0.3208214,16.1033192,-27.9312973,-174.4351196,-99.2137375
170,12.6868095,-0.0646431,17.5901108,0.0992366,-191.2290039,-130.6030579
180,12.7777891,-1.0175306,18.2940025,35.3053436,-194.7862549,-162.2595367
190,12.1696653,-1.8674678,18.0785236,71.1374054,-197.3511505,-194.0076294
200,11.2694502,-2.5881188,17.6499653,103.0839691,-214.3587799,-226.2824402
210,10.4243011,-3.4284792,17.4656124,131.6488495,-248.2442780,-250.1374054
220,9.7706871,-3.9097114,17.4751892,159.0763397,-250.1374054,-250.1374054
230,9.5288744,-4.4555864,17.1304264,185.0381622,-250.1374054,-250.1374054
240,9.8712435,-4.6016321,17.4632187,209.6717529,-250.1374054,-250.1374054
250,10.4219065,-4.8865409,17.4057579,234.4427490,-250.1374054,-250.1374054
260,10.6589317,-5.0038562,17.0178986,250.1297760,-250.1374054,-250.1374054
270,10.3907824,-5.1738434,15.5215302,250.1297760,-250.1374054,-250.1374054
280,11.5495701,-4.9918852,12.9956608,250.1297760,-250.1374054,-250.1374054
290,12.3157110,-4.3622131,9.6102762,250.1297760,-250.1374054,-250.1374054
300,10.9246864,-4.0605454,5.6431046,250.1297760,-246.4732819,-250.1374054
310,7.9894104,-3.5266411,2.8371146,250.1297760,-219.9770966,-250.1374054
320,5.2241216,-2.9640064,1.3168042,250.1297760,-204.2977142,-250.1374054
330,3.6822634,-2.5426292,0.6081241,250.1297760,-192.3129730,-250.1374054
340,2.0733681,-2.7174051,0.3423691,250.1297760,-183.4274750,-250.1374054
350,-0.3040621,-3.5218527,-0.5913648,250.1297760,-178.7786255,-250.1374054
360,-3.6631098,-4.4316444,-2.1356170,250.1297760,-185.4885559,-250.1374054
370,-7.5393028,-4.6255741,-3.8019729,250.1297760,-210.2366486,-250.1374054
380,-11.3436699,-3.8857694,-5.5976148,250.1297760,-241.5419922,-250.1374054
390,-13.5726604,-2.2433555,-7.7284436,226.0458069,-250.1374054,-250.1374054
400,-16.0003681,-0.5267217,-10.4482431,178.6717529,-237.9923706,-250.1374054
410,-18.1407738,1.2066715,-13.2973280,110.7557220,-185.2137451,-250.1374054
420,-19.6131992,2.2577207,-14.5614605,33.7022896,-114.8396912,-250.1374054
430,-19.6131992,3.0382264,-14.7793312,-40.5877876,-51.9160309,-170.3206177
440,-19.6131992,3.6367738,-14.0778341,-104.4122162,-8.4809160,-87.5038147
450,-19.6131992,3.7421181,-12.7251167,-157.0152740,17.9236641,-6.5877862
460,-19.6131992,3.8857694,-11.0994625,-195.3129730,28.5343513,67.8320618
470,-19.6131992,4.0198441,-10.3572636,-222.7557220,26.1526718,140.9389343
480,-19.6131992,3.7876077,-10.1226330,-248.2595367,15.8244276,211.3435059
490,-19.1319675,3.0118904,-10.2423429,-250.1374054,9.1297712,250.1297760
500,-16.3044300,1.6160779,-9.5360565,-250.1374054,14.4580154,250.1297760
510,-12.8376436,-0.2513899,-8.1306677,-250.1374054,30.5572510,250.1297760
520,-9.4235296,-2.1236460,-5.9998388,-250.1374054,52.8702278,250.1297760
530,-6.0980005,-3.9216824,-3.7660601,-250.1374054,84.2671738,250.1297760
540,-3.0334380,-5.8250628,-1.3718705,-250.1374054,118.8015289,250.1297760
550,0.6296718,-7.8697009,1.8985922,-250.1374054,141.3358765,250.1297760
560,5.1331420,-9.0500364,6.5217719,-250.1374054,129.9236603,250.1297760
570,12.2414904,-8.6980906,13.7977142,-250.1374054,76.2366409,250.1297760
580,19.6126022,-7.0772243,19.6126022,-250.1374054,-8.3206110,250.1297760
590,19.6126022,-3.4907281,19.6126022,-250.1374054,-94.5725174,221.3511505
600,19.6126022,-0.3040621,19.6126022,-103.9618301,-133.0458069,69.9083939
610,19.6126022,-1.5250987,19.6126022,39.8549614,-121.8244247,-76.6335907
620,19.6126022,-3.4572096,19.6126022,173.2442780,-91.8778610,-207.1603088
630,19.6126022,-4.8721757,19.6126022,250.1297760,-95.2213745,-250.1374054
640,14.2813396,-5.7819676,19.6126022,250.1297760,-122.5954208,-250.1374054
650,9.1601686,-5.4635406,15.9524841,250.1297760,-131.0458069,-250.1374054
660,5.9974446,-4.1084290,11.3939476,250.1297760,-109.8244247,-250.1374054
670,4.4244623,-2.0518203,6.8904772,250.1297760,-70.0000000,-250.1374054
680,3.1435707,-0.9552816,3.0932927,250.1297760,-27.4503822,-250.1374054
690,2.3486998,-0.6153067,-0.3471575,250.1297760,7.7175574,-250.1374054
700,1.4077834,-1.2473727,-3.7684543,250.1297760,29.1297703,-250.1374054
710,-1.0654143,-1.8531027,-7.0077925,250.1297760,19.1679382,-250.1374054
720,-5.2456689,-2.4444675,-10.6445665,250.1297760,-32.9312973,-250.1374054
730,-9.8377247,-2.1140692,-13.6396971,250.1297760,-119.2900772,-250.1374054
740,-15.4042149,-0.5243275,-17.0059280,250.1297760,-203.8244324,-250.1374054
750,-19.6131992,1.9680238,-19.6131992,250.1297760,-223.9847260,-250.1374054
760,-19.6131992,4.1443419,-19.6131992,161.3358765,-161.8931274,-250.1374054
770,-19.6131992,4.5417776,-19.6131992,28.4961834,-43.8320618,-175.6488495
780,-19.6131992,3.7971845,-19.6131992,-94.4274826,73.0687027,-69.0381699
790,-19.6131992,3.4141142,-18.7512913,-178.5267181,140.2595367,34.4198456
800,-19.6131992,3.4021432,-13.9581242,-222.6641235,139.8015289,120.1908417
810,-19.6131992,3.4691806,-9.8832140,-240.5648804,89.1145020,188.0152740
820,-19.6131992,3.3734128,-7.3070664,-239.5114441,33.2748108,240.2519073
830,-19.6131992,2.8993635,-6.1410961,-232.8015289,-11.4809160,250.1297760
840,-16.2278156,2.1739240,-5.6909885,-229.6564941,-38.5267181,250.1297760
850,-12.6485033,1.1851238,-5.4707227,-232.4274750,-44.4732819,250.1297760
860,-9.5647869,0.0407012,-5.4132624,-244.3358765,-34.1832047,250.1297760
870,-6.3446021,-1.4891858,-5.1690550,-250.1374054,-13.8396950,250.1297760
880,-2.9352763,-2.9640064,-4.4148855,-250.1374054,17.0839691,250.1297760
890,0.5027798,-4.7093706,-2.9424589,-250.1374054,45.4045792,250.1297760
900,4.4747400,-6.1937680,-0.4453192,-250.1374054,58.3740463,250.1297760
910,10.7834291,-6.3900914,4.6973996,-250.1374054,40.4885483,250.1297760
920,18.7129841,-5.2839761,11.8129311,-250.1374054,-11.6259546,250.1297760
930,19.6126022,-3.1172347,19.6126022,-250.1374054,-70.5190811,250.1297760
940,19.6126022,0.7421987,19.6126022,-193.8473358,-98.5877838,164.5190887
950,19.6126022,2.5857246,19.6126022,-83.7022934,-78.2595444,15.5877867
960,19.6126022,1.4748207,19.6126022,33.6946564,-50.3282433,-121.4427490
970,19.6126022,-0.0287303,19.6126022,146.6717529,-57.7633591,-222.6259613
980,18.4089222,-0.9888002,19.6126022,234.9465637,-96.2748108,-250.1374054
990,13.4577389,-1.0654143,18.1072540,250.1297760,-125.7938919,-250.1374054
1000,10.9151096,-0.7278336,12.6461086,250.1297760,-116.9083939,-250.1374054
1010,9.1170731,0.3830703,8.0971489,250.1297760,-83.3129807,-250.1374054
1020,7.2112985,0.9983770,4.2065907,250.1297760,-39.4198456,-250.1374054
1030,5.6478930,1.3598996,1.0151364,250.1297760,8.4809160,-250.1374054
1040,4.5345950,1.3096216,-1.8985922,250.1297760,44.6030540,-250.1374054
1050,3.4572096,0.0263361,-4.2927818,250.1297760,59.8015251,-250.1374054
1060,1.0223188,-1.7956421,-6.8641410,250.1297760,49.9847336,-250.1374054
1070,-3.6822634,-3.6990228,-9.3924055,250.1297760,16.8015270,-250.1374054
1080,-9.9598284,-4.1658897,-11.6070309,250.1297760,-43.3969460,-250.1374054
1090,-17.7553082,-2.8658447,-13.7067347,250.1297760,-123.1068726,-250.1374054
1100,-19.6131992,-0.4955972,-16.9652271,224.9694672,-173.1984711,-250.1374054
1110,-19.6131992,1.4149660,-19.6131992,141.4045868,-150.6564941,-250.1374054
1120,-19.6131992,2.3726418,-19.6131992,22.1908398,-55.6870232,-132.0686951
1130,-19.6131992,2.2984219,-19.6131992,-93.9694672,57.3511467,-12.3282442
1140,-19.6131992,1.5897418,-15.8303804,-175.2748108,136.3282471,94.5954208
1150,-19.6131992,1.1037214,-11.5304165,-215.5954132,160.1526642,182.5267181
1160,-19.6131992,1.1611819,-8.6047173,-231.4961853,139.7480927,248.0000000
1170,-19.6131992,1.4939742,-6.9838505,-232.6793823,97.3664093,250.1297760
1180,-17.6763000,1.7549409,-6.3206601,-229.2137451,54.7862587,250.1297760
1190,-14.6213150,1.2593436,-6.3302369,-228.3435059,18.6335869,250.1297760
1200,-11.4538021,0.6344602,-6.9670911,-237.4198456,-2.3969467,250.1297760
1210,-7.9774394,-0.0670373,-7.0508881,-250.1374054,-4.4274807,250.1297760
1220,-4.8841467,-1.2186425,-6.7971039,-250.1374054,11.2977095,250.1297760
1230,-2.0422437,-2.4444675,-5.7269011,-250.1374054,35.1679382,250.1297760
1240,1.2425843,-3.9982965,-3.5841017,-250.1374054,54.0458031,250.1297760
1250,4.8985114,-5.8777351,-0.3878587,-250.1374054,53.0534363,250.1297760
1260,9.9646168,-6.4714942,4.2065907,-250.1374054,13.0381680,250.1297760
1270,17.6475697,-4.7955613,11.4681673,-250.1374054,-63.3282433,250.1297760
1280,19.6126022,-1.7717001,19.5389805,-250.1374054,-129.7175598,250.1297760
1290,19.6126022,1.7621235,19.6126022,-197.6412201,-144.6793823,191.2213745
1300,19.6126022,4.0988522,19.6126022,-93.3587799,-110.8167953,58.0152664
1310,19.6126022,4.5465660,19.6126022,13.8091602,-45.6641235,-77.0916061
1320,19.6126022,2.3463056,19.6126022,128.3816833,-32.8091621,-183.3893127
1330,19.6126022,0.8331779,19.6126022,228.3740387,-65.9770966,-249.0305328
1340,16.7401733,-0.3184272,17.8989601,250.1297760,-109.4503784,-250.1374054
1350,13.6420918,-0.4788379,11.6764622,250.1297760,-126.1908417,-250.1374054
1360,11.2790270,0.0814024,6.5983863,250.1297760,-108.6412201,-250.1374054
1370,9.0644016,0.2585725,2.5354466,250.1297760,-65.3511429,-250.1374054
1380,6.7516141,0.0574605,-0.9983770,250.1297760,-13.3893127,-250.1374054
1390,4.8889351,-0.2537841,-4.2448978,250.1297760,28.9618320,-250.1374054
1400,2.4205256,-1.6352314,-6.6726060,250.1297760,53.0687027,-250.1374054
1410,-2.0470319,-3.2680686,-8.6334467,250.1297760,43.4580154,-250.1374054
1420,-7.6997132,-3.9575951,-10.2710724,250.1297760,-5.3511453,-250.1374054
1430,-14.9708662,-3.6511390,-12.4545736,250.1297760,-72.9923630,-250.1374054
1440,-19.6131992,-1.8866212,-16.1512012,250.1297760,-124.3053436,-250.1374054
1450,-19.6131992,0.8116302,-19.6131992,196.8015289,-124.8549652,-250.1374054
1460,-19.6131992,3.1914546,-19.6131992,89.5267181,-67.6412201,-191.7099304
1470,-19.6131992,3.5649481,-19.6131992,-30.5572510,30.0839691,-69.3740463
1480,-19.6131992,3.2680686,-19.6131992,-131.6412201,118.3282471,46.8473282
1490,-19.6131992,2.9113343,-15.2031031,-192.2061005,160.3282471,146.3435059
1500,-19.6131992,2.7652888,-11.3125448,-218.6335907,149.8244324,219.0381622
1510,-19.6131992,2.9161227,-8.6262646,-224.9618378,107.7786255,250.1297760
1520,-18.2149925,3.0142846,-7.6350703,-221.9160309,60.0534363,250.1297760
1530,-14.6691990,2.4899571,-7.5656385,-221.9465637,18.0610695,250.1297760
1540,-11.6022425,1.4891858,-7.7667508,-230.1603088,-5.0610685,250.1297760
1550,-8.3964224,0.3256098,-7.8888540,-248.9313049,-7.7480917,250.1297760
1560,-5.1020179,-0.8020535,-7.5632443,-250.1374054,10.9083967,250.1297760
1570,-2.0637913,-2.4061604,-6.6342988,-250.1374054,43.6259537,250.1297760
1580,1.0390782,-4.1204000,-4.7907729,-250.1374054,76.1297684,250.1297760
1590,4.4388270,-5.2911587,-1.8052188,-250.1374054,90.8396912,250.1297760
1600,8.9231443,-6.2320752,2.6982515,-250.1374054,80.0992355,250.1297760
1610,15.2246504,-5.7364779,8.8704720,-250.1374054,40.0381660,250.1297760
1620,19.6126022,-3.4165084,16.3331604,-250.1374054,-20.5343513,250.1297760
1630,19.6126022,-0.2753318,19.6126022,-250.1374054,-66.5038147,199.3358765
1640,19.6126022,2.4348907,19.6126022,-168.8854980,-59.2977104,68.8549652
1650,19.6126022,2.3271523,19.6126022,-50.3587799,-21.7709923,-61.9694672
1660,19.6126022,1.4460905,19.6126022,73.0763321,-11.8854961,-167.6870270
1670,19.6126022,0.0263361,19.6126022,186.4961853,-39.3969460,-240.5496216
1680,16.9748039,-0.9528874,19.6126022,250.1297760,-77.5877838,-250.1374054
1690,13.3547888,-0.9433106,15.2653522,250.1297760,-92.3816757,-250.1374054
1700,10.8624372,-0.5051740,9.4546537,250.1297760,-77.0229034,-250.1374054
1710,9.1027079,0.5123565,4.4340386,250.1297760,-47.3969460,-250.1374054
1720,7.4650826,0.9840119,0.1029501,250.1297760,-11.0152674,-250.1374054
1730,5.7963328,1.2737088,-3.1866663,250.1297760,30.5648861,-250.1374054
1740,3.9216824,0.8666966,-5.6862001,250.1297760,62.7938919,-250.1374054
1750,1.2617378,-0.0407012,-7.7236552,250.1297760,66.4503784,-250.1374054
1760,-3.0406206,-1.1994889,-9.7251978,250.1297760,39.7633591,-250.1374054
1770,-8.6071110,-1.5658000,-11.7602587,250.1297760,-29.1526718,-250.1374054
1780,-13.5966015,-0.6967092,-13.8360205,250.1297760,-105.4961853,-250.1374054
1790,-17.7122135,0.9911944,-16.8383350,215.0839691,-131.6870270,-250.1374054
1800,-19.6131992,2.4636209,-19.6131992,137.8931274,-89.6717529,-250.1374054
1810,-19.6131992,3.1268115,-19.6131992,39.6641235,0.4580153,-216.8549652
1820,-19.6131992,3.7516949,-19.4839134,-52.8854980,88.2748108,-115.2442780
1830,-19.6131992,4.0533628,-16.5127239,-116.1984711,128.1374054,-13.8549614
1840,-19.6131992,3.9312592,-13.4481621,-153.5114441,110.2671738,76.5114517
1850,-19.6131992,3.8977404,-10.1250277,-170.3129730,62.7328262,151.4503784
1860,-19.6131992,3.8474624,-7.9989872,-173.8396912,20.4732819,204.4274750
1870,-17.2836533,3.8714044,-6.8138633,-171.4045868,-10.2519083,243.1908417
1880,-13.5774488,3.7971845,-6.6534524,-169.7480927,-24.7633591,250.1297760
1890,-10.9438400,3.3375001,-7.0820122,-173.7175598,-31.0687027,250.1297760
1900,-8.6789370,2.9448531,-7.1203194,-187.2977142,-35.1679382,250.1297760
1910,-6.3781209,1.9345051,-6.6055689,-206.0076294,-35.0992355,250.1297760
1920,-3.8498566,0.6967092,-5.9950504,-228.6946564,-27.0534344,250.1297760
1930,-0.6105183,-0.4884146,-5.1139889,-250.1374054,-6.2519083,250.1297760
1940,2.9209111,-1.3215926,-3.1555417,-250.1374054,16.7328243,250.1297760
1950,7.5728211,-2.1404054,0.0718257,-250.1374054,27.4580154,250.1297760
1960,14.1616306,-1.5322813,5.7412663,-250.1374054,5.2290077,250.1297760
1970,19.6126022,0.6368544,12.4186611,-250.1374054,-35.3893127,250.1297760
1980,19.6126022,3.2872221,17.6547527,-203.9618378,-61.9771004,196.2519073
1990,19.6126022,5.6814117,19.6126022,-129.7251892,-67.4045792,82.0152664
2000,19.6126022,6.0142040,19.6126022,-46.4503822,-56.0305328,-37.8931313
2010,19.6126022,4.9703374,19.6126022,42.3740463,-48.9236641,-135.0763397
2020,19.6126022,3.8977404,19.6126022,126.8473282,-57.6641235,-201.9923706
2030,15.9381189,3.1435707,17.3746338,190.6946564,-73.0839691,-239.9160309
2040,12.6580801,3.0071020,12.3707771,229.5572510,-70.9389343,-250.1374054
2050,10.9151096,3.3782012,7.7835097,246.4580078,-40.7328262,-250.1374054
2060,9.3373384,3.7564833,4.0725164,245.8396912,7.0839696,-250.1374054
2070,7.6494355,3.6726866,1.6926919,238.4045868,53.4351158,-250.1374054
2080,6.2488346,3.1244173,-0.3543400,233.7328186,92.2671738,-250.1374054
2090,4.7333126,2.0613971,-1.6831152,235.6564941,115.8320618,-250.1374054
2100,3.1459649,0.4333483,-3.2752512,243.1603088,119.0763321,-250.1374054
2110,1.1947005,-1.4317253,-4.9847026,250.1297760,105.0839691,-250.1374054
2120,-2.1691356,-3.0837159,-6.9623032,250.1297760,77.2671738,-250.1374054
2130,-7.8433647,-4.0030847,-8.8369532,250.1297760,39.5343513,-250.1374054
2140,-15.5646257,-3.5074875,-11.0803089,246.7022858,-3.7404580,-250.1374054
2150,-19.6131992,-1.6400198,-13.8527803,218.5725250,-53.4351158,-250.1374054
2160,-19.6131992,0.8331779,-18.0306416,164.3587799,-83.6870193,-235.3893127
2170,-19.6131992,2.4851687,-19.6131992,75.3206100,-57.9694672,-115.6641235
2180,-19.6131992,3.1196289,-19.6131992,-31.2519093,11.6870232,5.8167939
2190,-19.6131992,3.0861101,-19.0769024,-118.2213745,72.3053436,110.7786255
2200,-19.6131992,2.8059900,-14.7769375,-167.5190887,101.5877838,185.8091583
2210,-19.6131992,2.7796540,-11.7530756,-190.2442780,90.4809189,235.3511505
2220,-16.0889530,3.3422885,-9.7228031,-194.0915985,50.4580154,250.1297760
2230,-12.4162664,3.8690102,-9.0404596,-191.3664093,10.4045801,250.1297760
2240,-9.8664551,4.2281384,-9.4666252,-195.6641235,-13.8931293,250.1297760
2250,-8.0277176,4.1323709,-9.9909525,-213.0000000,-28.7404575,250.1297760
2260,-6.1650376,3.5673423,-9.8425131,-240.6030579,-35.1526718,250.1297760
2270,-4.0270267,2.6192431,-9.1960821,-250.1374054,-27.3282452,250.1297760
2280,-2.1691356,1.4365137,-7.9080076,-250.1374054,-5.1984735,250.1297760
2290,0.0000000,-0.4525018,-5.7915444,-250.1374054,18.6335869,250.1297760
2300,2.9592183,-1.9943599,-1.9704180,-250.1374054,28.1297703,250.1297760
2310,6.9096308,-3.3087699,2.9759774,-250.1374054,13.1450386,250.1297760
2320,12.1193867,-2.8778157,9.2846670,-250.1374054,-32.6412201,250.1297760
2330,18.6435528,-0.5985473,16.5270901,-250.1374054,-95.3206100,250.1297760
2340,19.6126022,2.5761478,19.6126022,-218.1297760,-130.4885559,193.3664093
2350,19.6126022,4.9248476,19.6126022,-124.7328262,-112.3587799,89.3587799
2360,19.6126022,5.7101417,19.6126022,-26.3816795,-62.4045792,-17.7862587
2370,19.6126022,5.0445571,19.6126022,76.4122162,-26.6870232,-115.1068726
2380,19.6126022,3.8690102,19.6126022,171.1297760,-25.9770985,-187.4274750
2390,16.0913467,2.7748656,18.2748489,247.1221313,-41.9236641,-236.2748108
2400,12.8496151,2.5569944,12.2390966,250.1297760,-52.7099228,-250.1374054
2410,10.9414454,2.7940190,7.0508881,250.1297760,-41.3129768,-250.1374054
2420,9.1697454,2.6288199,2.7748656,250.1297760,-8.3358774,-250.1374054
2430,7.3070664,2.2481439,-0.5746055,250.1297760,31.1297703,-250.1374054
2440,5.1738434,1.5634058,-2.9927368,250.1297760,62.3053436,-250.1374054
2450,2.3510940,0.3208214,-4.4124913,250.1297760,72.5954208,-250.1374054
2460,-0.9816177,-0.9361281,-5.6909885,250.1297760,58.1145020,-250.1374054
2470,-6.3972740,-2.0901275,-7.9271612,250.1297760,25.2671757,-250.1374054
2480,-13.3787308,-1.8124014,-10.5057030,250.1297760,-33.8854980,-250.1374054
2490,-18.7273502,-0.0383070,-13.3835192,250.1297760,-97.8167953,-250.1374054
2500,-19.6131992,2.1284344,-17.6116581,196.9160309,-114.1984711,-250.1374054
2510,-19.6131992,3.1627243,-19.6131992,108.3206100,-67.0076370,-204.7099304
2520,-19.6131992,3.5912843,-19.6131992,8.9847326,16.1221371,-104.0687027
2530,-19.6131992,3.7277529,-18.5621510,-73.5496216,77.6335907,-1.7480916
2540,-19.6131992,3.5122759,-15.0450869,-127.3206100,96.8625946,90.3282471
2550,-19.6131992,3.3231349,-12.0499554,-157.6335907,82.2748108,160.1450348
2560,-19.6131992,3.3518653,-9.5887289,-174.3435059,51.9389305,212.5954132
2570,-16.5223007,3.5026991,-8.1953106,-181.6106873,28.1526718,249.1832123
2580,-12.9669304,3.8091555,-7.9678626,-189.0763397,12.4732828,250.1297760
2590,-10.1322098,3.7828193,-7.9391322,-201.9847260,1.0152671,250.1297760
2600,-7.6925306,3.4189026,-7.7260494,-220.8854980,-3.4580152,250.1297760
2610,-5.2552457,2.6575503,-7.2807302,-245.8625946,0.4961832,250.1297760
2620,-2.5043221,1.9392935,-6.1027889,-250.1374054,9.7404585,250.1297760
2630,-0.0071826,0.9361281,-4.3167233,-250.1374054,16.5572510,250.1297760
2640,3.7157819,-0.3399749,-1.2449785,-250.1374054,8.3053436,250.1297760
2650,8.8273764,-0.5913648,3.0238612,-250.1374054,-22.9236641,250.1297760
2660,14.5566721,0.5147507,8.2791071,-250.1374054,-73.2213745,250.1297760
2670,19.6126022,2.5378408,13.8336267,-238.4427490,-118.3969498,230.3053436
2680,19.6126022,4.7620430,18.7656574,-175.2366486,-130.0381622,145.9618378
2690,19.6126022,6.1554613,19.6126022,-107.3816757,-96.5267181,54.9541969
2700,19.6126022,6.0046272,19.6126022,-33.9771004,-35.3664131,-33.4198456
2710,19.6126022,5.3151007,19.6126022,45.8320618,4.9312978,-105.8625946
2720,17.7361546,4.3191175,19.6126022,126.1068726,6.8625956,-159.3587799
2730,13.4601336,3.3422885,17.3099899,191.8473358,-11.5343513,-193.9313049
2740,10.3500814,3.3853838,12.2917690,238.3511505,-17.7404575,-212.6641235
2750,8.5257082,3.8857694,7.3525558,250.1297760,1.1526718,-225.2900696
2760,6.8569584,4.2137733,3.2321558,250.1297760,37.0228996,-237.5343475
2770,5.4539638,4.7476778,0.1268920,250.1297760,69.2671738,-250.1374054
2780,3.8187323,4.6423335,-2.6551561,249.2671814,90.6564865,-250.1374054
2790,1.1180865,4.1347651,-5.4395986,246.0305328,97.2061081,-250.1374054
2800,-2.9209111,3.5266411,-8.5017672,242.8244324,72.9236679,-250.1374054
2810,-6.8066807,3.5721307,-11.0755205,235.8625946,14.4503813,-250.1374054
2820,-11.1305866,4.0126615,-14.1496601,217.4351196,-50.6412201,-250.1374054
2830,-15.5311069,4.8171091,-17.4081516,176.1068726,-82.1145020,-250.1374054
2840,-19.6131992,5.4731169,-19.5796814,109.5343475,-65.8854980,-225.9541931
2850,-19.6131992,5.9399838,-19.6131992,30.6488552,-16.8244267,-159.9389343
2860,-19.6131992,5.8490047,-19.5796814,-47.7480927,37.9847336,-82.3893127
2870,-19.6131992,5.2360926,-17.1519737,-116.1374054,78.4732819,1.7175573
2880,-19.6131992,4.6973996,-13.8862991,-163.7251892,88.7709961,79.0152664
2890,-19.6131992,4.3023586,-10.6110477,-192.0839691,70.2213745,141.9923706
2900,-19.6131992,4.1730723,-8.0516596,-204.9465637,40.6717567,189.5954132
2910,-16.7665081,4.0677280,-6.2584114,-210.2977142,16.0992374,226.9465637
2920,-13.5774488,3.8067613,-5.3342543,-214.5954132,-1.1755725,250.1297760
2930,-11.0108776,3.3039815,-4.6423335,-221.4503784,-11.2519083,250.1297760
2940,-8.5281029,2.4013720,-3.9647777,-231.1603088,-17.2366409,250.1297760
2950,-5.4515696,1.6376256,-3.2967989,-242.0763397,-18.3129768,250.1297760
2960,-1.7956421,0.6991033,-2.6479735,-250.1374054,-17.1297703,250.1297760
2970,2.5474176,-0.1963235,-0.9097920,-250.1374054,-21.8625946,250.1297760
2980,6.8521700,-0.2322364,2.0757623,-250.1374054,-37.0534363,250.1297760
2990,11.7027979,0.0383070,5.9998388,-250.1374054,-54.2900772,250.1297760
3000,16.2110577,0.7493813,10.2136126,-244.1679382,-63.5496178,250.1297760
3010,19.6126022,1.9943599,14.6165266,-208.9389343,-68.6717529,205.0458069
3020,19.6126022,3.1866663,19.2253418,-159.3435059,-63.0610695,127.0839691
3030,19.6126022,4.0533628,19.6126022,-92.5190811,-48.1984749,38.8091621
3040,19.6126022,4.2472920,19.6126022,-9.6183205,-32.6259537,-46.2900772
3050,19.6126022,4.0222383,19.6126022,77.7099228,-29.5954189,-113.8625946
3060,18.3777981,3.4284792,19.6126022,157.8778687,-36.0610695,-158.3435059
3070,15.5742025,3.0501974,17.1280308,217.6030579,-41.5877876,-188.2213745
3080,13.8025026,2.7724714,12.2055779,250.1297760,-29.8015270,-212.9618378
3090,12.4617558,3.1723011,8.1809454,250.1297760,-2.8702290,-236.8015289
3100,10.9414454,3.1579359,5.2911587,250.1297760,31.7786255,-250.1374054
3110,9.2726955,2.7940190,2.9448531,250.1297760,68.8396912,-250.1374054
3120,7.6159167,2.2098370,0.9217629,250.1297760,99.2061081,-250.1374054
3130,6.2560172,1.1492109,-1.0175306,250.1297760,111.4198456,-250.1374054
3140,4.3143296,-0.4213773,-3.1172347,250.1297760,101.0457993,-250.1374054
3150,1.1707586,-2.4540441,-5.0445571,250.1297760,66.4809189,-250.1374054
3160,-3.6128318,-3.9480183,-7.4914188,250.1297760,8.5801525,-250.1374054
3170,-10.2686787,-4.2209558,-10.0962973,250.1297760,-58.7786255,-250.1374054
3180,-18.4400463,-3.2273674,-13.4457684,250.1297760,-122.5572510,-250.1374054
3190,-19.6131992,-1.0079538,-17.3147774,250.1297760,-160.8854980,-250.1374054
3200,-19.6131992,0.8762733,-19.6131992,166.9618378,-137.2519073,-242.4885559
3210,-19.6131992,1.9512644,-19.6131992,56.9389305,-54.4503822,-121.2595444
3220,-19.6131992,1.5514348,-19.6131992,-45.9389305,48.6793900,2.5954199
3230,-19.6131992,1.2018831,-17.3123837,-124.2748108,128.7862549,108.4961853
3240,-19.6131992,1.1085097,-13.3619709,-170.1297760,152.3740387,183.1526642
3250,-19.6131992,1.2952565,-10.3788109,-192.2595367,138.1679382,231.4351196
3260,-19.6131992,1.6711442,-8.2719250,-196.7404633,101.1984711,250.1297760
3270,-16.6611652,2.1044924,-7.5680327,-193.2137451,56.9007645,250.1297760
3280,-13.7402534,2.6743097,-7.8242111,-193.2977142,16.9923668,250.1297760
3290,-11.0587606,2.7197993,-8.4610653,-204.1603088,-6.9465647,250.1297760
3300,-8.2982607,2.1188576,-8.5568333,-226.0381622,-8.7328243,250.1297760
3310,-5.5377603,1.3814473,-8.0923605,-250.1374054,7.0687022,250.1297760
3320,-2.3965836,0.3639168,-7.1729918,-250.1374054,26.2748089,250.1297760
3330,1.3263810,-0.9600700,-5.0684991,-250.1374054,38.6793900,250.1297760
3340,5.8729467,-1.8866212,-1.3814473,-250.1374054,33.2442741,250.1297760
3350,11.4897156,-2.0901275,3.7540891,-250.1374054,-0.6106870,250.1297760
3360,18.0928898,-0.7996593,10.0340481,-250.1374054,-52.0152664,250.1297760
3370,19.6126022,1.9488702,16.8335457,-250.1374054,-104.8854980,235.2061005
3380,19.6126022,4.5824785,19.6126022,-179.5954132,-127.5343475,131.0305328
3390,19.6126022,5.6574697,19.6126022,-89.3129807,-106.8931274,17.8854961
3400,19.6126022,5.4802995,19.6126022,3.9312978,-69.8931274,-81.9083939
3410,19.6126022,4.5441718,19.6126022,93.9694672,-50.9618340,-158.7099304
3420,19.5916519,3.5146701,19.6126022,168.4198456,-57.7786255,-210.9389343
3430,15.3994265,2.8586621,15.7968616,221.8702240,-62.3282433,-245.4198456
3440,12.7227230,2.6790979,11.4226780,250.1297760,-47.4732819,-250.1374054
3450,10.6613255,2.4061604,7.5345144,250.1297760,-14.4427481,-250.1374054
3460,8.9255381,2.1451938,4.4244623,250.1297760,22.9694653,-250.1374054
3470,7.6302819,1.5418580,1.9273225,250.1297760,59.2442741,-250.1374054
3480,5.9423780,0.5698171,-0.4453192,250.1297760,88.5190811,-250.1374054
3490,3.5864959,-1.1300575,-2.6048782,250.1297760,97.2442780,-250.1374054
3500,-0.2825144,-3.1794837,-4.7740140,250.1297760,75.7938919,-250.1374054
3510,-5.5329719,-4.5369892,-7.2831244,250.1297760,21.4885502,-250.1374054
3520,-11.5687237,-4.1299767,-10.2614956,250.1297760,-48.5496178,-250.1374054
3530,-17.5254669,-2.4277081,-13.8910875,250.1297760,-98.8549652,-250.1374054
3540,-19.6131992,-0.5362985,-18.3251266,211.0839691,-91.4580154,-250.1374054
3550,-19.6131992,1.0079538,-19.6131992,118.7786255,-34.1526718,-238.7862549
3560,-19.6131992,1.5394639,-19.6131992,22.2137413,45.4580154,-128.7557220
3570,-19.6131992,1.5466464,-19.3187141,-55.5267181,98.5954208,-15.6870232
3580,-19.6131992,1.4413021,-16.4887829,-109.5801544,115.2748108,83.7786255
3590,-19.6131992,1.6926919,-14.0251617,-143.1221313,97.5190811,154.2824402
3600,-19.6131992,1.7477583,-11.6525202,-161.8854980,69.5572510,201.9313049
3610,-19.2995605,2.0470319,-10.0268650,-169.5954132,38.3358765,236.4198456
3620,-16.9580441,2.3846128,-9.4666252,-174.8625946,15.1068707,250.1297760
3630,-15.0139618,2.5905130,-9.3253679,-185.6412201,-1.9312977,250.1297760
3640,-13.1536770,2.2505381,-9.3133974,-201.4122162,-18.4427490,250.1297760
3650,-10.7738523,1.6112895,-9.1817169,-223.7480927,-22.4656487,250.1297760
3660,-8.0444765,0.7158626,-8.7220325,-250.1374054,-12.5419846,250.1297760
3670,-4.8051381,-0.0814024,-7.7763271,-250.1374054,6.1603055,250.1297760
3680,-2.2936335,-1.3191984,-6.3589673,-250.1374054,30.8167934,250.1297760
3690,0.2896969,-2.4396791,-4.5250182,-250.1374054,61.0763359,250.1297760
3700,2.2960277,-3.7253587,-1.6519908,-250.1374054,88.4656525,250.1297760
3710,4.9009056,-4.7141590,2.5905130,-250.1374054,93.3053436,250.1297760
3720,9.5576038,-5.0421629,8.2455883,-250.1374054,64.8320618,250.1297760
3730,16.2637291,-3.5553713,14.7122946,-250.1374054,-0.9847328,250.1297760
3740,19.6126022,-0.4548960,19.6126022,-250.1374054,-78.2366409,250.1297760
3750,19.6126022,2.2864509,19.6126022,-159.3129730,-118.7404556,163.8549652
3760,19.6126022,3.6535332,19.6126022,-51.3282433,-123.8244247,42.1908379
3770,19.6126022,3.9049230,19.6126022,52.7786255,-111.2442780,-74.0381699
3780,19.6126022,3.3805954,19.6126022,141.9084015,-107.2519073,-167.9618378
3790,19.6126022,3.0214672,18.0737362,204.7862549,-118.4427490,-222.4045868
3800,17.5230732,3.1435707,13.9964314,248.6488495,-116.9389343,-250.1374054
3810,14.8727045,3.7229645,10.6254129,250.1297760,-95.6488571,-250.1374054
3820,12.4976692,4.5106530,7.0269461,250.1297760,-58.5954208,-250.1374054
3830,10.6302013,4.6710634,3.5050933,250.1297760,-13.4503813,-250.1374054
3840,8.9303265,4.2975702,0.0622489,250.1297760,28.3358784,-250.1374054
3850,7.2615767,3.9432299,-2.9855542,250.1297760,49.7175560,-250.1374054
3860,5.6407104,3.2130022,-5.1403246,250.1297760,52.9465637,-250.1374054
3870,3.7684543,1.9943599,-6.2871413,245.0152740,46.1679382,-250.1374054
3880,1.5681942,0.6200951,-7.0460997,233.3358765,37.7251892,-250.1374054
3890,-1.3551112,-0.7493813,-7.6446471,223.5801544,31.0839691,-250.1374054
3900,-6.3637557,-1.8004304,-8.3700867,212.8473358,21.1450386,-250.1374054
3910,-12.9190464,-1.9297167,-8.9782104,201.3969421,-2.2519083,-250.1374054
3920,-19.6131992,-1.2210367,-9.8161764,185.5419922,-48.9389305,-250.1374054
3930,-19.6131992,0.3040621,-12.0810804,160.2900696,-97.8549652,-250.1374054
3940,-19.6131992,1.1156923,-15.6316633,113.4274826,-111.1145020,-210.8015289
3950,-19.6131992,1.4820032,-18.5358143,40.2290077,-80.8702316,-110.8167953
3960,-19.6131992,1.4676381,-18.4400463,-43.6564903,-17.3053436,-18.0916023
3970,-19.6131992,1.1372399,-16.1416245,-114.3969498,41.8396950,60.2519073
3980,-19.6131992,0.4477134,-13.0459385,-162.0915985,77.4351120,124.3435135
3990,-19.6131992,0.5698171,-10.1729107,-188.1145020,78.0839691,174.0076294
4000,-19.2564659,0.8068419,-8.2000990,-199.3282471,59.6412201,213.1984711
4010,-17.5063133,0.9744351,-7.2543941,-205.2671814,38.6259537,250.1297760
4020,-15.6172981,1.2234308,-6.5481081,-211.9541931,20.6946564,250.1297760
4030,-13.6851873,1.3144100,-5.9806852,-220.0000000,7.5419846,250.1297760
4040,-11.2622671,0.9576758,-5.4252334,-229.1603088,3.0381680,250.1297760
4050,-8.1067257,0.4788379,-4.9224534,-241.0229034,5.6259542,250.1297760
4060,-5.0230093,0.1173153,-4.5345950,-250.1374054,17.3740463,250.1297760
4070,-1.8507085,-0.3998296,-4.3143296,-250.1374054,34.2595406,250.1297760
4080,0.8499373,-1.3934183,-3.6726866,-250.1374054,48.4274826,250.1297760
4090,4.4029145,-2.4444675,-1.5897418,-250.1374054,47.6870232,250.1297760
4100,8.7603388,-2.7174051,1.4556671,-250.1374054,24.5190830,250.1297760
4110,14.0275564,-1.9632354,6.2823529,-250.1374054,-28.3282452,250.1297760
4120,19.6126022,0.1005560,12.2367020,-250.1374054,-90.7786255,250.1297760
4130,19.6126022,2.2912393,17.4081516,-217.4656525,-132.6106873,217.6793823
4140,19.6126022,4.5896611,19.6126022,-148.5877838,-125.4122162,115.9312973
4150,19.6126022,5.3917146,19.6126022,-70.7175598,-81.5648880,6.7938933
4160,19.6126022,5.4132624,19.6126022,12.6106873,-31.1832066,-89.8015289
4170,19.6126022,4.3670015,19.6126022,103.3435135,-22.7022896,-159.5114441
4180,17.8438931,3.3039815,19.6126022,184.3282471,-48.2061081,-203.0610657
4190,14.2454271,2.4564383,16.2134514,248.4656525,-72.7709961,-230.8473358
4200,11.7171631,2.2792683,10.9079275,250.1297760,-74.7938919,-250.1374054
4210,10.0603838,2.9041519,6.6414814,250.1297760,-54.3893127,-250.1374054
4220,8.5592270,3.1435707,3.2441268,250.1297760,-19.0992374,-250.1374054
4230,7.3908629,2.9448531,0.7158626,250.1297760,25.9160309,-250.1374054
4240,6.3182659,2.7557120,-1.1923064,250.1297760,62.3435097,-250.1374054
4250,5.0613165,1.9225341,-2.2361729,250.1297760,81.7786255,-250.1374054
4260,3.0334380,0.3998296,-3.6008608,250.1297760,83.8778610,-250.1374054
4270,-0.7062859,-1.2042773,-5.4156566,250.1297760,62.2977104,-250.1374054
4280,-6.1003947,-2.1068866,-7.6374645,250.1297760,7.7328243,-250.1374054
4290,-12.1361465,-1.6974803,-10.0508070,250.1297760,-71.2748108,-250.1374054
4300,-17.2860470,-0.1891410,-12.9022865,250.1297760,-139.5725250,-250.1374054
4310,-19.6131992,1.8890154,-17.0873299,219.5114441,-160.5038147,-250.1374054
4320,-19.6131992,3.6200144,-19.6131992,132.7022858,-117.0534363,-210.9084015
4330,-19.6131992,4.2808108,-19.6131992,30.5114498,-27.9007626,-111.6259537
4340,-19.6131992,4.2185616,-18.9284611,-60.5648842,64.1984711,-8.2519083
4350,-19.6131992,3.6104376,-15.5670195,-122.2977066,122.5038147,80.4580154
4360,-19.6131992,3.6176202,-12.0810804,-159.5343475,132.9007568,146.4732819
4370,-19.6131992,3.5314295,-9.3540983,-175.7709961,112.6030502,190.8015289
4380,-17.2549229,3.4835455,-7.3884687,-179.0000000,85.7175598,222.1297760
4390,-15.0809994,3.5290353,-6.5074067,-177.0915985,61.8549614,250.1221313
4400,-12.9046812,3.5434003,-6.8018923,-178.5114441,42.6106873,250.1297760
4410,-10.5583754,3.4859397,-7.4866304,-188.1984711,29.8931293,250.1297760
4420,-8.1306677,3.0597742,-7.6685886,-206.0152740,24.0687027,250.1297760
4430,-5.6694407,2.5761478,-7.6805596,-229.2442780,27.2366409,250.1297760
4440,-3.1938488,2.0709739,-7.2065101,-250.1374054,39.5877876,250.1297760
4450,-1.1228749,1.1204807,-6.1770086,-250.1374054,55.8625946,250.1297760
4460,1.1300575,0.3160330,-4.3430595,-250.1374054,67.6870193,250.1297760
4470,3.7516949,-0.7733232,-1.7190280,-250.1374054,66.5190811,250.1297760
4480,7.6997132,-1.5634058,1.9919657,-250.1374054,33.8015251,250.1297760
4490,13.4721041,-0.5195391,7.5488791,-250.1374054,-36.6106873,250.1297760
4500,19.6126022,1.6807210,13.3643656,-250.1374054,-113.8778610,246.9389343
4510,19.6126022,4.0222383,17.9875450,-193.1679382,-154.1908417,162.9694672
4520,19.6126022,5.9136481,19.6126022,-118.8549652,-139.1450348,67.5496216
4530,19.6126022,6.3398137,19.6126022,-45.0305328,-92.8091583,-29.1755733
4540,19.6126022,5.7580256,19.6126022,36.4732819,-52.1145020,-115.4351120
4550,19.6126022,4.7692256,19.6126022,119.9389343,-44.8473282,-177.0686951
4560,15.7681322,3.6271970,18.1910515,192.6488495,-68.3664093,-217.0992432
4570,12.5192165,2.9328821,13.6396971,246.0458069,-87.0992355,-240.9465637
4580,10.4171181,3.0789278,9.1841106,250.1297760,-81.2824402,-250.1374054
4590,8.9734221,3.2273674,5.6167684,250.1297760,-56.4122124,-250.1374054
4600,7.6901364,3.3614421,2.4995339,250.1297760,-17.2290077,-250.1374054
4610,6.9144192,3.2584918,-0.4070122,250.1297760,33.7786255,-250.1374054
4620,5.8035154,2.7844424,-2.5210814,250.1297760,82.7862625,-250.1374054
4630,4.1634955,2.0302727,-4.2018023,244.6641235,106.5190811,-250.1374054
4640,2.4013720,0.9457048,-5.7628140,235.7862549,103.1068726,-250.1374054
4650,-0.1460456,0.1316804,-7.5823979,228.7022858,90.9160309,-250.1374054
4660,-3.4763632,0.0909792,-9.0476418,216.6717529,76.8396912,-250.1374054
4670,-7.6470413,0.5530578,-10.2016411,198.3740387,63.5954208,-250.1374054
4680,-12.0475616,1.6160779,-11.1497402,173.8702240,49.1374054,-250.1374054
4690,-16.5630035,2.8012016,-12.5671005,142.8931274,36.5190849,-250.1374054
4700,-19.5916519,3.9982965,-14.0347385,104.9083939,32.0305328,-198.4656525
4710,-19.6131992,5.0708933,-16.1392307,59.2366409,45.8702278,-125.7786255
4720,-19.6131992,5.2696109,-18.4568062,2.3969467,76.6335907,-53.6030540
4730,-19.6131992,5.0900469,-18.8925495,-59.1603050,96.9236679,12.5419846
4740,-19.5413742,5.0637107,-17.5996876,-110.1755753,102.9312973,64.1068726
4750,-17.6427822,4.8889351,-15.7202482,-145.4045868,91.5190811,103.4198456
4760,-15.9668493,4.9559722,-13.6851873,-169.0381622,64.8549652,134.1526642
4770,-14.4656925,5.0517397,-12.5096397,-186.8778687,37.1526718,159.0305328
4780,-13.2781744,5.0613165,-11.1473465,-201.9923706,13.1068707,183.0076294
4790,-12.2702208,5.0134325,-10.3524752,-215.8244324,-2.0610688,210.2824402
4800,-10.5416164,5.0301919,-10.2782555,-235.2442780,-6.0992365,235.6488495
4810,-8.8704720,4.4412212,-9.6797075,-250.1374054,-2.8091602,250.1297760
4820,-7.1825686,3.5553713,-8.6693602,-250.1374054,4.2290077,250.1297760
4830,-5.1762376,2.4851687,-7.3429790,-250.1374054,14.3740454,250.1297760
4840,-3.0693510,1.2521610,-5.7795734,-250.1374054,26.7938938,250.1297760
4850,-0.9696468,-0.1939293,-3.6343796,-250.1374054,35.4274826,250.1297760
4860,1.6256547,-1.5490406,-0.4237715,-250.1374054,27.4198475,250.1297760
4870,5.4012914,-2.8179610,3.9240766,-250.1374054,-6.3129773,250.1297760
4880,10.9151096,-2.3870070,9.6078825,-250.1374054,-74.2900772,250.1297760
4890,18.1838684,-0.0909792,15.6771526,-250.1374054,-159.0915985,242.1374054
4900,19.6126022,2.7533178,19.6126022,-228.8702240,-201.4045868,163.9236603
4910,19.6126022,4.9128766,19.6126022,-151.2824402,-165.3435059,66.4503784
4920,19.6126022,5.0948353,19.6126022,-78.7480927,-76.6488571,-42.4045792
4930,19.6126022,4.4484038,19.6126022,4.0458016,6.1145039,-142.8473358
4940,19.6126022,3.4572096,19.6126022,98.6793900,38.0305328,-217.9160309
4950,17.2764702,2.4109488,19.6126022,192.8244324,18.5496178,-250.1374054
4960,13.5439301,1.4293311,17.5134964,250.1297760,-13.5725193,-250.1374054
4970,10.8121595,1.0055596,11.0324249,250.1297760,-25.6335869,-250.1374054
4980,8.8201942,1.0654143,4.6590929,250.1297760,-13.4656487,-250.1374054
4990,6.3637557,0.7900825,-0.5554519,250.1297760,6.6030536,-250.1374054
5000,3.1196289,-0.0047884,-4.0653338,250.1297760,18.4503822,-250.1374054
5010,-0.6967092,-0.6320660,-5.9950504,250.1297760,12.6793890,-250.1374054
5020,-5.2073622,-1.4436963,-7.3980455,250.1297760,-10.9541988,-250.1374054
5030,-10.2614956,-1.5011568,-8.9949694,250.1297760,-43.9236641,-250.1374054
5040,-15.6603928,-0.7637464,-10.7451220,234.1603088,-67.4809189,-250.1374054
5050,-19.6131992,0.3423691,-12.2630386,188.2061005,-63.4809151,-250.1374054
5060,-19.6131992,1.1228749,-13.4314032,129.8854980,-31.8473282,-250.1374054
5070,-19.6131992,1.6615674,-14.0036144,70.0534363,7.9236641,-165.1145020
5080,-19.6131992,1.9823889,-13.8695393,16.3129768,37.2824440,-54.3511467
5090,-19.6131992,2.0997043,-13.4529505,-28.0000000,41.7786255,53.0381660
5100,-19.6131992,2.3032103,-12.2247314,-66.0610657,31.0458012,143.1374054
5110,-19.6131992,2.3846128,-10.4769726,-92.4580154,19.3969460,208.2137451
5120,-19.6131992,2.5234756,-9.0476418,-109.2061081,7.6488547,250.1297760
5130,-17.2118282,2.7772598,-8.0061693,-118.6870193,-5.2595420,250.1297760
5140,-14.1855726,3.1675127,-7.6039457,-123.8167953,-29.2061062,250.1297760
5150,-11.2622671,3.2824337,-8.5233145,-130.2748108,-52.4961815,250.1297760
5160,-8.5879574,3.3255291,-9.2535419,-144.6488495,-69.6183243,250.1297760
5170,-6.2703824,2.8730273,-9.4977493,-167.2900696,-82.3893127,250.1297760
5180,-4.0150557,1.9847831,-8.9375095,-194.5954132,-85.0610657,250.1297760
5190,-0.8283895,0.7924767,-7.7715387,-224.6335907,-76.6106873,250.1297760
5200,3.1794837,-0.8044477,-5.9902620,-250.1374054,-60.0000000,250.1297760
5210,7.9894104,-1.7669119,-2.4348907,-250.1374054,-47.5954208,250.1297760
5220,13.8288383,-1.6208663,2.4995339,-250.1374054,-50.2824440,250.1297760
5230,19.6126022,-0.6057299,8.2982607,-250.1374054,-59.7709923,250.1297760
5240,19.6126022,0.5602403,14.5087881,-241.3969421,-67.2519073,250.1297760
5250,19.6126022,2.8634505,19.6126022,-186.9084015,-60.8091621,187.0458069
5260,19.6126022,4.2089849,19.6126022,-111.3358765,-47.5114517,75.7099228
5270,19.6126022,4.8913293,19.6126022,-15.5496187,-41.9541969,-36.7251892
5280,19.6126022,3.6798692,19.6126022,83.2213745,-60.0381660,-132.9770966
5290,19.6126022,3.3207407,19.6126022,165.8473358,-91.8931274,-196.7633514
5300,18.0354290,2.7988074,15.4449158,221.0381622,-104.1145020,-236.0076294
5310,15.3467541,3.1555417,10.3381100,250.1297760,-85.7862625,-250.1374054
5320,13.3116932,3.5170643,5.8585815,250.1297760,-44.4809151,-250.1374054
5330,11.5615406,3.9049230,2.4444675,250.1297760,8.4732828,-250.1374054
5340,9.6078825,4.0054789,0.0263361,248.3511505,50.2519073,-250.1374054
5350,7.3477674,3.4236910,-1.7597293,239.2977142,72.2900772,-250.1374054
5360,5.1044121,2.3917952,-3.5434003,233.7328186,75.2748108,-250.1374054
5370,1.8818330,0.8882443,-4.4436154,231.7099304,57.6183205,-250.1374054
5380,-2.5019281,-0.5171449,-5.5066357,232.0305328,22.6183205,-250.1374054
5390,-7.5129666,-1.2162483,-6.4355812,232.2748108,-25.7404575,-250.1374054
5400,-13.0243902,-0.6488253,-7.9774394,225.5877838,-71.8778610,-250.1374054
5410,-18.0641594,0.8930327,-9.9406748,201.9313049,-103.8702316,-250.1374054
5420,-19.6131992,2.2960277,-12.2989511,156.8473358,-100.1145020,-250.1374054
5430,-19.6131992,3.2728570,-14.1113529,92.3893127,-61.3282433,-224.4198456
5440,-19.6131992,3.7493007,-14.4896345,25.5419846,-7.1832061,-125.5572510
5450,-19.6131992,3.8330972,-14.0347385,-35.3664131,44.1374054,-29.0152664
5460,-19.6131992,3.5864959,-12.1481171,-81.9618301,68.1603088,59.0610695
5470,-19.6131992,3.4093258,-10.4721851,-111.4503784,72.2290039,129.9694672
5480,-19.6131992,3.3686244,-9.0045462,-130.2137451,60.8549614,181.5267181
5490,-17.5565910,3.6822634,-8.0372944,-143.3435059,44.5572510,217.1450348
5500,-14.9541073,4.1491303,-7.3980455,-153.4961853,27.3893127,241.3282471
5510,-13.3691540,4.1180058,-6.8856888,-162.6488495,13.7862597,250.1297760
5520,-11.9278517,3.9839313,-6.2751703,-172.0000000,4.2137403,250.1297760
5530,-9.9334917,3.5098817,-6.0309634,-184.5190887,-1.6106870,250.1297760
5540,-7.6015515,3.1268115,-5.8801293,-200.2671814,-1.4427481,250.1297760
5550,-5.0756817,2.5138988,-5.3677726,-217.8625946,3.1374047,250.1297760
5560,-2.6264257,1.8435259,-4.5824785,-236.0381622,9.6030531,250.1297760
5570,0.1125269,0.7972651,-3.2273674,-250.1374054,13.6946564,250.1297760
5580,3.7205703,0.0885850,-1.1827296,-250.1374054,6.7633586,250.1297760
5590,8.9925756,-0.0191535,1.9632354,-250.1374054,-25.9236641,250.1297760
5600,15.4975882,1.5801650,5.9758968,-239.8931274,-81.3129807,250.1297760
5610,19.6126022,3.4284792,9.7036495,-200.3969421,-129.9007568,248.3816833
5620,19.6126022,4.6734576,12.4521790,-152.4122162,-152.5419922,162.1068726
5630,19.6126022,6.1578555,15.0019913,-100.1297684,-146.5419922,76.9923630
5640,19.6126022,7.3286138,17.0969067,-49.9847336,-115.1603088,-19.9465656
5650,19.6126022,6.3613615,17.3482971,1.4045801,-81.5877838,-109.4427490
5660,19.6126022,5.4132624,16.9436779,55.1450386,-72.5190811,-167.1374054
5670,15.8519287,4.8985114,15.3874559,106.6030502,-79.9618301,-202.1145020
5680,12.8328552,4.5968437,12.3252869,146.4045868,-86.1984711,-222.1450348
5690,11.3364868,4.7309184,8.6118994,170.0381622,-76.8549652,-234.8702240
5700,10.5655584,5.1092005,5.0110383,176.6259613,-50.9312973,-247.0076294
5710,9.9287033,5.3462253,1.7429699,170.4427490,-10.3511448,-250.1374054
5720,8.8465300,5.4156566,-0.7829000,157.1068726,39.4656487,-250.1374054
5730,7.8074517,5.4443870,-2.7868366,141.5801544,86.7709961,-250.1374054
5740,6.7037306,4.9248476,-3.9216824,128.5801544,120.2366409,-250.1374054
5750,4.3933377,3.8977404,-4.1754665,122.2213745,140.5190887,-250.1374054
5760,0.6775556,2.6551561,-4.2999644,124.7557220,148.9923706,-250.1374054
5770,-5.8154860,1.3263810,-5.3988972,128.8091583,155.3587799,-250.1374054
5780,-14.1281118,0.6392486,-7.0604649,127.8702316,154.0839691,-250.1374054
5790,-19.6131992,1.0893562,-8.4179697,120.0916061,124.4503784,-250.1374054
5800,-19.6131992,2.1667414,-10.6709023,101.4961853,60.1679382,-234.7404633
5810,-19.6131992,3.5338237,-12.8400383,72.6870193,-2.1297710,-128.3358765
5820,-19.6131992,4.8147149,-14.3172531,31.1755733,-25.5419846,-34.1832047
5830,-19.6131992,5.3821378,-14.9277716,-20.6259537,-2.6870229,39.7633591
5840,-19.6131992,5.6838059,-13.9844608,-75.6335907,31.1374054,94.9694672
5850,-18.2700596,5.2408805,-11.6668854,-122.6106873,54.2213745,134.4885559
5860,-15.9141769,5.1379304,-8.8489246,-149.6488495,60.1908379,164.5496216
5870,-13.9605188,5.3414369,-6.6869712,-160.5801544,47.4274826,186.7557220
5880,-12.9405937,5.4252334,-5.3055239,-162.6335907,22.5267181,206.9084015
5890,-11.7530756,5.4970589,-4.7381010,-163.1984711,-0.6564885,229.7404633
5900,-10.1322098,5.3342543,-4.6159973,-167.2366486,-17.6793900,250.1297760
5910,-8.2072811,4.8985114,-4.7596488,-177.2442780,-28.7175579,250.1297760
5920,-6.0860295,4.2281384,-4.8745699,-192.5419922,-32.3053436,250.1297760
5930,-3.8522508,3.4715748,-4.6231799,-211.6946564,-29.0916023,250.1297760
5940,-1.8938038,2.2577207,-4.0150557,-233.0229034,-17.9160309,250.1297760
5950,0.2681492,0.7565638,-2.7365584,-250.1374054,-1.0687023,250.1297760
5960,2.6838863,-0.2633608,-0.3663110,-250.1374054,5.3969464,250.1297760
5970,6.1482787,-1.1228749,3.2153964,-250.1374054,-6.6793895,250.1297760
5980,10.7331514,-0.9840119,7.4842362,-250.1374054,-41.6030540,250.1297760
5990,16.0817699,0.6105183,11.7842007,-224.4198456,-83.5725174,250.1297760
6000,19.6126022,2.5091105,15.7417955,-171.0915985,-109.3282471,212.5496216
6010,19.6126022,4.1491303,19.0673256,-114.5267181,-102.7786255,130.3816833
6020,19.6126022,5.1546898,19.6126022,-54.4885483,-74.2213745,39.9160309
6030,19.6126022,4.9847026,19.6126022,13.8778629,-45.0305328,-46.4198456
6040,19.6126022,3.8833754,19.6126022,89.2671738,-30.5038166,-120.3893127
6050,19.2037945,3.2584918,19.1942177,159.5877838,-41.9236641,-174.0458069
6060,15.8064384,2.7509236,15.4185801,217.8091583,-60.5114517,-211.3053436
6070,13.4721041,2.9304879,11.1329813,250.1297760,-72.3969498,-236.4961853
6080,11.9637651,3.4380560,6.8737178,250.1297760,-64.1374054,-250.1374054
6090,10.5464048,3.9192882,3.0813217,250.1297760,-35.0839691,-250.1374054
6100,9.3612804,4.3813667,0.5362985,250.1297760,6.2977099,-250.1374054
6110,7.8098459,4.0868812,-1.4891858,250.1297760,44.1297722,-250.1374054
6120,6.0860295,3.2345500,-3.0908985,237.4656525,69.5725174,-250.1374054
6130,4.1802549,2.1308286,-3.8714044,230.0534363,78.0000000,-250.1374054
6140,1.2234308,0.6296718,-4.8099265,226.9389343,73.7022934,-250.1374054
6150,-3.1292057,-0.6248835,-5.3151007,227.8625946,47.2519073,-250.1374054
6160,-7.9702568,-1.2306134,-5.7963328,230.2824402,2.2061069,-250.1374054
6170,-13.0459385,-0.8331779,-6.4427638,228.5725250,-45.1526718,-250.1374054
6180,-18.4328651,0.3471575,-8.2767134,212.3282471,-75.0305328,-250.1374054
6190,-19.6131992,1.7214222,-10.3596573,175.7175598,-85.0457993,-250.1374054
6200,-19.6131992,3.2441268,-12.4330254,125.3206100,-72.5343475,-205.5954132
6210,-19.6131992,4.2616572,-14.4202032,62.3129768,-20.8854961,-110.2748108
6220,-19.6131992,3.7995787,-15.0450869,-6.1603055,47.0000000,-14.4045801
6230,-19.6131992,3.5146701,-14.0826225,-67.4885483,99.2137375,77.1679382
6240,-19.6131992,3.7181761,-12.0978394,-114.1526718,129.3282471,142.1908417
6250,-17.6667233,3.8785870,-10.3021975,-144.9007568,133.5114441,182.8931274
6260,-15.2366219,4.0485744,-8.6741486,-162.3282471,122.7328262,207.3740387
6270,-13.5175934,4.3047528,-7.4602942,-172.9541931,105.1145020,226.3358765
6280,-12.0068598,4.5274124,-6.5241661,-179.7709961,86.8625946,244.9847260
6290,-10.5583754,4.7620430,-6.0836353,-186.4809113,72.8778610,250.1297760
6300,-9.2128410,4.7644372,-5.8585815,-197.0152740,64.3587799,250.1297760
6310,-7.5823979,4.5130472,-5.3486195,-211.9236603,59.7786255,250.1297760
6320,-5.6287394,4.1395535,-4.9056940,-230.1755676,58.7099228,250.1297760
6330,-3.7157819,3.3542595,-4.3502421,-250.1374054,61.0228996,250.1297760
6340,-1.3000449,2.4277081,-3.3925664,-250.1374054,61.7480927,250.1297760
6350,1.3934183,1.1947005,-1.6735384,-250.1374054,55.7251892,250.1297760
6360,5.2073622,-0.0981618,1.5370697,-250.1374054,23.3893127,250.1297760
6370,10.6661139,0.1101327,6.0046272,-250.1374054,-40.2595406,250.1297760
6380,16.8072090,2.0278785,10.9629936,-232.5496216,-118.8931274,250.1297760
6390,19.6126022,4.3861551,14.7482071,-168.6030579,-179.5801544,181.6793823
6400,19.6126022,6.4283986,17.8438931,-105.4809189,-190.5496216,96.6564865
6410,19.6126022,7.7116842,19.6126022,-47.7786255,-155.0000000,12.2977095
6420,19.6126022,7.7930865,19.6126022,9.5496187,-89.5038147,-63.0076332
6430,19.6126022,7.0508881,19.6126022,73.2671738,-28.6793900,-116.9770966
6440,15.0307217,6.2751703,17.9683914,138.0992432,-2.1297710,-149.8625946
6450,11.1473465,5.8130918,14.5303354,194.6564941,-6.4580154,-167.0305328
6460,8.8273764,5.1882086,11.1042509,238.5648804,-30.3664131,-177.1068726
6470,8.1186962,5.0876527,8.0277176,250.1297760,-50.8778610,-186.2137451
6480,8.1809454,5.0038562,4.1227942,250.1297760,-57.5496178,-199.9618378
6490,7.9199786,5.0421629,-0.0718257,250.1297760,-50.7404594,-222.7938995
6500,7.2041159,5.2313042,-3.8402798,250.1297760,-40.7404594,-250.1374054
6510,6.8641410,5.2121506,-6.7611909,246.5038147,-29.2137413,-250.1374054
6520,5.5210009,4.3885493,-7.8433647,217.1908417,-25.5114498,-250.1374054
6530,3.5098817,3.0597742,-7.7643566,191.9618378,-26.1068707,-250.1374054
6540,0.6631905,1.7309990,-7.3501616,174.2061005,-24.7786255,-250.1374054
6550,-3.3255291,0.1963235,-6.7516141,163.3129730,-28.8015270,-250.1374054
6560,-7.7332320,-0.5865764,-6.1889796,156.7709961,-46.2213745,-250.1374054
6570,-14.1927547,-0.5051740,-6.5361371,149.8396912,-69.7328262,-250.1374054
6580,-19.6131992,0.1747758,-8.0875721,132.5725250,-92.5877838,-250.1374054
6590,-19.6131992,1.2928623,-9.3469152,103.5572510,-110.6106873,-250.1374054
6600,-19.6131992,1.9345051,-11.3029680,61.2137413,-93.9083939,-158.4961853
6610,-19.6131992,1.7190280,-12.6269550,5.5267177,-35.8091621,-49.1221390
6620,-19.6131992,1.7597293,-12.9358053,-57.9312973,34.5801544,57.5190849
6630,-19.6131992,1.6663558,-11.3891592,-113.5954208,89.4656525,140.7328186
6640,-19.6131992,1.5035510,-9.5504217,-154.9160309,122.8473282,197.2824402
6650,-18.3658276,1.5634058,-7.7835097,-181.2900696,134.9694672,236.5725250
6660,-16.1033192,1.8459201,-6.1602492,-194.6641235,129.6030579,250.1297760
6670,-14.7649660,2.1236460,-4.7452836,-197.8702240,106.5114517,250.1297760
6680,-13.1177645,2.6719155,-3.7301471,-192.9389343,71.6641235,250.1297760
6690,-11.1210098,2.9496415,-3.5864959,-186.5725250,42.8244286,250.1297760
6700,-8.6214762,2.6958573,-4.0294209,-186.0992432,28.6259537,250.1297760
6710,-6.1410961,2.4157372,-4.1491303,-193.9541931,24.4580154,250.1297760
6720,-3.4811516,1.9752063,-4.1874375,-208.3816833,31.4656487,250.1297760
6730,-0.7685348,1.0678085,-4.0868812,-228.0152740,51.8702278,250.1297760
6740,1.6974803,0.0383070,-3.3015873,-250.1374054,76.9236679,250.1297760
6750,4.7716198,-0.9409165,-0.7757174,-250.1374054,82.5648880,250.1297760
6760,8.8034344,-1.2377959,3.3686244,-250.1374054,59.2519073,250.1297760
6770,14.5087881,-0.3495516,8.0995426,-250.1374054,6.7022901,250.1297760
6780,19.6126022,1.7621235,13.1943779,-218.3816833,-66.6030502,250.1297760
6790,19.6126022,4.6902170,17.5254669,-154.1832123,-119.1221390,189.5267181
6800,19.6126022,6.6965480,19.6126022,-84.7709961,-128.1068726,76.2748108
6810,19.6126022,7.0053983,19.6126022,-14.7938929,-109.6870193,-37.6717567
6820,19.6126022,6.1027889,19.6126022,57.1068687,-93.8473282,-132.9007568
6830,19.6126022,5.4300218,17.5254669,122.8167953,-104.1755753,-198.2061005
6840,19.0553532,4.5298066,13.8623571,174.6106873,-133.0381622,-245.1526642
6850,15.8543224,3.9192882,9.9071560,210.3511505,-155.9923706,-250.1374054
6860,12.6963863,3.6032550,6.0453281,226.5954132,-153.1755676,-250.1374054
6870,10.0029240,4.0102673,3.0023136,223.8473358,-123.1526718,-250.1374054
6880,7.7332320,4.1874375,0.6105183,208.4427490,-72.7251892,-250.1374054
6890,5.9878678,4.0102673,-0.8116302,188.6946564,-13.9541988,-250.1374054
6900,4.6207857,3.2513094,-1.7501525,174.3587799,35.4809151,-250.1374054
6910,2.6144550,2.0590029,-3.0382264,167.4274750,71.2671738,-250.1374054
6920,0.1508339,0.6320660,-3.7732425,166.4045868,79.7557220,-250.1374054
6930,-3.4715748,-0.8595140,-4.8075323,170.7328186,63.0687027,-250.1374054
6940,-8.3772688,-1.7333932,-6.0740585,175.6030579,26.7404575,-250.1374054
6950,-14.7745428,-1.2856797,-7.0389171,174.7633514,-21.2671757,-250.1374054
6960,-19.6131992,0.1628049,-8.4945841,162.8320618,-70.5954208,-250.1374054
6970,-19.6131992,1.8674678,-10.4027529,133.0305328,-90.2061081,-250.1374054
6980,-19.6131992,2.7796540,-12.2774038,84.9770966,-67.4274826,-187.3358765
6990,-19.6131992,3.4548154,-13.4697094,25.1908398,-12.7557249,-77.3435135
7000,-19.6131992,3.4715748,-13.5918131,-34.5648842,48.2748108,26.1832066
7010,-19.6131992,3.1507533,-12.3133163,-82.6106873,92.0305328,112.2061081
7020,-19.6131992,2.9280937,-10.5990763,-116.8778610,106.3282471,174.2290039
7030,-18.6698895,3.0669568,-8.8297710,-138.1297760,100.8167953,214.0610657
7040,-15.9596672,3.1890604,-7.4866304,-149.5190887,85.4274826,242.6641235
7050,-14.0945930,3.4452386,-7.0149751,-155.5419922,64.9618301,250.1297760
7060,-12.7107515,3.6631098,-6.6797886,-162.2519073,39.5419846,250.1297760
7070,-11.0970678,3.4979107,-6.5193777,-170.8015289,22.0534344,250.1297760
7080,-9.0093346,3.1387823,-6.3015065,-184.2137451,16.4045811,250.1297760
7090,-6.8521700,2.6551561,-5.9471664,-201.8167877,22.2442741,250.1297760
7100,-4.7381010,1.8363433,-5.2336984,-223.3893127,36.0228996,250.1297760
7110,-2.2553265,0.8810617,-4.1371593,-246.4809113,53.2595406,250.1297760
7120,0.2681492,-0.1077385,-2.4229198,-250.1374054,65.6183243,250.1297760
7130,3.4643922,-0.9959828,0.2609667,-250.1374054,59.3282433,250.1297760
7140,8.1163025,-1.3718705,3.7181761,-250.1374054,25.4656487,250.1297760
7150,13.5678720,-0.4189832,7.4387465,-250.1374054,-35.7099228,250.1297760
7160,19.6126022,2.0494261,11.5423870,-207.7175598,-108.2595444,250.1297760
7170,19.6126022,4.6926112,14.5925846,-151.4656525,-149.8549652,189.0381622
7180,19.6126022,6.7492199,16.8718529,-99.6717529,-138.4885559,84.8167953
7190,19.6126022,6.7827387,17.4703999,-53.4732819,-81.0763321,-12.8015270
7200,19.6126022,6.4331870,17.2285881,-6.3435116,-24.0458012,-87.4427490
7210,19.6126022,6.1410961,16.4839935,46.6106873,-5.3893127,-137.8549652
7220,16.0650120,5.8921003,14.1736012,97.3969498,-24.2290077,-169.1755676
7230,13.3021164,5.7891502,11.4274664,136.9389343,-43.5343513,-188.5954132
7240,11.3652172,6.0572991,8.0827837,162.9236603,-38.7938919,-200.9694672
7250,10.0029240,6.0788469,4.7955613,172.0381622,-8.5496187,-210.6946564
7260,9.0452480,6.1985564,2.2481439,168.0305328,32.3969460,-221.7404633
7270,8.4419117,6.2177100,0.4836263,159.9389343,67.4351120,-238.8244324
7280,7.5632443,6.1410961,-0.7134684,155.1984711,88.3740463,-250.1374054
7290,6.4523406,5.4874821,-1.4939742,155.3893127,87.7404556,-250.1374054
7300,5.0684991,4.5513539,-2.4468615,159.5267181,68.5343475,-250.1374054
7310,3.3159523,3.3063757,-2.9376705,165.1832123,42.8167953,-250.1374054
7320,1.0031654,1.9249283,-3.2489152,171.0381622,17.6259537,-250.1374054
7330,-2.3582766,0.5889706,-3.4212968,175.2061005,-1.4427481,-250.1374054
7340,-6.5289545,-0.2777260,-3.6894460,175.7633514,-18.7480907,-250.1374054
7350,-11.6501255,-0.5075682,-4.1443419,170.9236603,-31.8320618,-250.1374054
7360,-17.6427822,0.1604107,-5.2480631,158.5954132,-36.6335869,-250.1374054
7370,-19.6131992,1.1611819,-6.9431496,137.2366486,-29.9236641,-250.1374054
7380,-19.6131992,2.2936335,-9.5264797,100.8091583,-2.3893130,-194.5496216
7390,-19.6131992,2.6575503,-11.6070309,55.6870232,38.9923668,-86.0687027
7400,-19.6131992,2.6527619,-12.6173782,4.9312978,90.3358765,20.1374054
7410,-19.6131992,2.2337787,-12.8759508,-40.2671738,144.8473358,112.3435135
7420,-19.6131992,2.4229198,-12.5790710,-82.0076370,182.1755676,182.5725250
7430,-19.6131992,2.3965836,-12.0164366,-121.0534363,187.4961853,228.4351196
7440,-17.0155048,2.1188576,-11.5016861,-152.3969421,165.5038147,250.1297760
7450,-14.2909164,2.2146254,-10.6924505,-174.8549652,129.0381622,250.1297760
7460,-12.0140429,2.3558824,-10.1058741,-193.2213745,92.7099228,250.1297760
7470,-9.5073261,2.5522060,-9.5025377,-213.5877838,64.7786255,250.1297760
7480,-7.5009956,2.4731977,-8.7316093,-234.5648804,46.7328262,250.1297760
7490,-5.2121506,2.0111191,-7.6829538,-250.1374054,36.3816795,250.1297760
7500,-2.8203552,1.3551112,-6.8880830,-250.1374054,30.1068707,250.1297760
7510,-0.3375807,0.5075682,-5.5281835,-250.1374054,21.1603050,250.1297760
7520,2.4229198,-0.6775556,-3.1723011,-250.1374054,1.2366412,250.1297760
7530,5.5832496,-1.8459201,-0.0430954,-250.1374054,-33.6106873,250.1297760
7540,9.6509781,-2.2816625,3.7181761,-250.1374054,-94.4656525,250.1297760
7550,16.8143921,-0.3280039,8.6837254,-250.1374054,-193.0610657,250.1297760
7560,19.6126022,3.2177906,13.1369171,-192.5267181,-250.1374054,237.8625946
7570,19.6126022,6.5457139,16.2182388,-124.8091583,-250.1374054,134.5496216
7580,19.6126022,8.1881275,17.9636040,-74.7175598,-250.1374054,20.9160309
7590,19.6126022,7.6087341,19.5389805,-32.5725174,-149.9389343,-77.5419846
7600,19.6126022,6.7611909,19.6126022,25.5954189,-67.4885483,-151.7175598
7610,19.6126022,5.4036856,19.1559105,95.1679382,-33.5572510,-202.3358765
7620,16.0482521,4.1443419,16.2038746,157.3358765,-48.7633591,-234.7404633
7630,13.0435438,3.5984666,13.0674858,207.4809113,-76.9389343,-250.1374054
7640,11.1066446,3.5721307,9.3900108,240.5343475,-90.0381699,-250.1374054
7650,9.9981356,3.6200144,6.0357518,250.1297760,-72.0610657,-250.1374054
7660,9.2583303,3.8211265,2.8299320,250.1297760,-28.2442741,-250.1374054
7670,8.2240410,3.6607156,0.0119709,241.5114441,19.5954189,-250.1374054
7680,6.3182659,3.0837159,-1.9728121,226.6335907,60.0687027,-250.1374054
7690,4.0844874,2.0853391,-3.2249732,212.7251892,86.0839691,-250.1374054
7700,2.0422437,0.5578461,-3.4572096,205.3511505,92.5419846,-250.1374054
7710,-0.9624642,-1.0223188,-4.3622131,206.6946564,82.8702316,-250.1374054
7720,-5.3270717,-2.0206959,-6.0381460,210.2366486,55.0687027,-250.1374054
7730,-11.1569233,-2.0566087,-7.8505473,204.8778687,17.8244267,-250.1374054
7740,-17.7433376,-0.5889706,-9.2583303,187.7480927,-28.7633591,-250.1374054
7750,-19.6131992,1.2593436,-11.2526903,159.4580078,-68.6030502,-250.1374054
7760,-19.6131992,2.9496415,-13.8743277,116.6641235,-80.1374054,-204.2595367
7770,-19.6131992,3.8666160,-16.0027618,56.0458031,-53.5496178,-101.1068726
7780,-19.6131992,4.1706781,-17.2812595,-13.3587790,5.6259542,0.6335878
7790,-19.6131992,3.4739690,-17.5901108,-85.5572510,84.8473282,92.0152664
7800,-19.6131992,3.0023136,-15.6699696,-151.3740387,141.6641235,162.7862549
7810,-18.8159351,2.8562679,-12.6820211,-195.5725250,163.1221313,208.2977142
7820,-16.3618908,2.8299320,-10.3357162,-220.1068726,162.9160309,236.5572510
7830,-14.9421368,2.8131726,-8.4826136,-232.7786255,139.5877838,250.1297760
7840,-13.5343533,3.1363883,-7.2208753,-237.9236603,100.8015289,250.1297760
7850,-12.0451670,3.1315999,-6.5121951,-241.0610657,68.2137375,250.1297760
7860,-10.3596573,2.8275378,-6.2224984,-250.1374054,48.3816795,250.1297760
7870,-8.4562769,1.9273225,-5.7292953,-250.1374054,40.4580154,250.1297760
7880,-6.0549049,0.6679789,-4.9487896,-250.1374054,43.7328262,250.1297760
7890,-3.5170643,-0.8355721,-4.0509686,-250.1374054,58.2061081,250.1297760
7900,-0.6679789,-2.7988074,-2.4971397,-250.1374054,74.8702316,250.1297760
7910,2.9592183,-4.2879934,0.5482694,-250.1374054,71.6412201,250.1297760
7920,8.0133524,-4.8099265,5.1475072,-250.1374054,28.7480907,250.1297760
7930,15.5191364,-3.0286496,11.2239599,-250.1374054,-55.9465637,250.1297760
7940,19.6126022,0.4812321,17.0250816,-241.7480927,-159.5114441,250.1297760
7950,19.6126022,4.8961172,19.6126022,-149.7328186,-213.9923706,171.0152740
7960,19.6126022,7.0437055,19.6126022,-64.3664093,-184.8854980,40.3816795
7970,19.6126022,6.1794028,19.6126022,11.4656487,-106.8167953,-80.9083939
7980,19.6126022,5.2743993,19.6126022,83.7786255,-53.4274826,-170.4045868
7990,19.6126022,4.9631548,19.4647598,154.9236603,-58.3282433,-228.4198456
8000,15.5263186,3.4619980,15.4042149,215.7175598,-82.4732819,-250.1374054
8010,12.3875360,3.1268115,10.8839855,250.1297760,-101.8778610,-250.1374054
8020,10.5296450,3.3877780,6.2057390,250.1297760,-102.0916061,-250.1374054
8030,9.2607250,3.7301471,2.2170193,250.1297760,-83.1908417,-250.1374054
8040,8.0205345,3.8115497,-0.8666966,250.1297760,-49.4656487,-250.1374054
8050,6.8617468,3.4260850,-3.0478032,243.3511505,-8.0152674,-250.1374054
8060,5.4994531,2.7437410,-4.1323709,220.6946564,25.8473282,-250.1374054
8070,3.6607156,1.5945302,-4.1036406,205.3129730,42.4045792,-250.1374054
8080,0.9888002,-0.0239419,-4.1922259,199.6564941,44.7175560,-250.1374054
8090,-3.0525916,-1.7956421,-4.8027439,199.8702240,36.9694672,-250.1374054
8100,-7.4100165,-2.3079987,-5.4611464,198.1221313,24.7022896,-250.1374054
8110,-13.6468801,-1.9728121,-6.3254485,190.4198456,4.0076337,-250.1374054
8120,-19.6131992,-0.7541697,-7.6470413,176.1832123,-23.0992374,-250.1374054
8130,-19.6131992,0.9768293,-10.1226330,151.3969421,-47.1984749,-250.1374054
8140,-19.6131992,2.9735832,-14.2334566,107.6870193,-43.5648842,-148.9007568
8150,-19.6131992,3.5434003,-17.9707851,38.1679382,-3.4885497,-29.6335869
8160,-19.6131992,2.6838863,-19.6131992,-44.0381660,72.7709961,82.8320618
8170,-19.6131992,2.2864509,-18.2509060,-125.4122162,147.6793823,172.0305328
8180,-19.2564659,2.4037662,-15.0546637,-185.3511505,188.8625946,223.9770966
8190,-15.9333305,2.6503677,-12.2247314,-222.5419922,201.0610657,249.8931274
8200,-13.6780043,2.8059900,-9.5671806,-239.9160309,183.0839691,250.1297760
8210,-11.8632088,3.0214672,-7.4579000,-243.3053436,144.6412201,250.1297760
8220,-9.9933472,3.1818779,-6.0333576,-239.0381622,102.3816757,250.1297760
8230,-8.1019373,3.3614421,-5.4850879,-235.5190887,68.0763321,250.1297760
8240,-6.3924856,3.2728570,-5.0565281,-239.0076294,46.4198456,250.1297760
8250,-4.8075323,2.6216373,-4.7261300,-248.9084015,36.3969460,250.1297760
8260,-2.7485294,1.8842272,-4.2592630,-250.1374054,35.7175560,250.1297760
8270,-0.4141948,0.7589580,-3.2728570,-250.1374054,40.5038185,250.1297760
8280,2.1667414,-0.2394189,-1.6376256,-250.1374054,40.2061081,250.1297760
8290,4.8338685,-1.1539993,0.9983770,-250.1374054,24.5267181,250.1297760
8300,8.8824425,-1.1061156,4.5465660,-250.1374054,-19.6335869,250.1297760
8310,14.2980995,0.4572902,8.7747040,-250.1374054,-87.7251892,250.1297760
8320,19.6126022,2.9304879,12.5407648,-208.1374054,-151.0610657,232.4580078
8330,19.6126022,5.5305777,15.8399572,-149.5725250,-177.7938995,149.0915985
8340,19.6126022,7.1849627,18.4879303,-91.8473282,-158.0152740,54.1374054
8350,19.6126022,7.4219875,19.6126022,-37.9236641,-103.1679382,-38.0152664
8360,19.6126022,6.6247220,19.6126022,24.5419846,-57.6030540,-114.3282471
8370,19.6126022,5.9184365,19.1391506,94.4961853,-45.5038185,-166.0000000
8380,15.6795464,5.0517397,16.0267048,158.1145020,-65.4351120,-200.7938995
8390,13.1321287,4.5681133,12.4282379,208.8167877,-87.4580154,-224.0992432
8400,11.7075863,4.6758518,8.4251528,240.7022858,-95.5725174,-244.5572510
8410,10.6325951,5.0086441,4.8051381,250.1297760,-84.1526718,-250.1374054
8420,9.4905672,5.2911587,2.1068866,247.5267181,-57.8091621,-250.1374054
8430,8.1306677,4.8745699,0.3782819,237.1679382,-22.4961834,-250.1374054
8440,6.4882536,3.9240766,-1.2808913,227.8778687,13.7862597,-250.1374054
8450,4.4412212,2.8562679,-2.3750360,221.6106873,36.9694672,-250.1374054
8460,2.0661855,1.6998745,-3.0334380,217.7328186,44.3206100,-250.1374054
8470,-1.1348459,0.2777260,-3.7971845,217.7709961,44.2442741,-250.1374054
8480,-5.2480631,-0.5769997,-5.4300218,217.3053436,43.6870232,-250.1374054
8490,-10.2926207,-0.4501076,-7.2927012,209.5190887,33.5801544,-250.1374054
8500,-16.6396160,0.4572902,-9.7658987,191.1145020,17.0916023,-250.1374054
8510,-19.6131992,1.9177457,-12.5287933,158.0992432,-5.9007635,-250.1374054
8520,-19.6131992,3.3901722,-14.6931410,113.5114517,-33.4503822,-175.0000000
8530,-19.6131992,4.6710634,-17.0729656,56.5877876,-35.8167953,-75.6412201
8540,-19.6131992,4.9296360,-18.9236736,-13.6641226,10.6335878,12.2366409
8550,-19.6131992,4.4077029,-18.8398762,-94.0381699,83.9312973,88.4045792
8560,-19.6131992,4.2113791,-15.8088331,-163.9007568,140.9694672,148.2137451
8570,-18.7010136,4.2472920,-12.6149845,-206.7709961,171.4656525,192.9541931
8580,-18.4520187,4.4747400,-10.8145542,-232.4961853,182.6259613,233.2748108
8590,-18.5166607,4.3909435,-10.2734671,-250.1374054,182.1908417,250.1297760
8600,-17.4656124,3.9360476,-10.2591019,-250.1374054,179.3511505,250.1297760
8610,-14.9038296,3.1675127,-10.2351599,-250.1374054,186.0229034,250.1297760
8620,-11.8991213,1.8411317,-9.1721401,-250.1374054,198.2977142,250.1297760
8630,-9.1194677,-0.1316804,-6.7923155,-250.1374054,208.5648804,250.1297760
8640,-6.0477223,-2.2960277,-3.8714044,-250.1374054,207.4503784,250.1297760
8650,-2.0039365,-3.8426740,-0.5506636,-250.1374054,180.7328186,250.1297760
8660,2.4468615,-4.3215117,2.8586621,-250.1374054,130.3282471,250.1297760
8670,5.6502872,-4.5345950,6.4164276,-250.1374054,49.4580154,250.1297760
8680,10.4506369,-2.9975252,10.6589317,-250.1374054,-64.1984711,250.1297760
8690,15.9237537,-0.7589580,14.3699255,-250.1374054,-180.1145020,250.1297760
8700,19.6126022,1.1779412,16.4696293,-194.2824402,-250.1374054,227.3206177
8710,19.6126022,2.7748656,17.9157200,-126.5801544,-250.1374054,144.2748108
8720,19.6126022,3.6966286,18.5980644,-69.2519073,-222.6641235,45.3282433
8730,19.6126022,3.9623835,18.2700596,-19.1297703,-143.3206177,-59.1297722
8740,19.6126022,3.0621684,17.5853214,27.2824421,-75.0763321,-150.3206177
8750,18.3801918,2.0063307,16.7114429,76.7022934,-61.6412201,-202.1450348
8760,13.6157551,1.6065011,15.7801027,123.6183243,-84.9618301,-219.9007568
8770,11.1952295,1.5227045,14.0754395,168.0839691,-113.7404556,-220.9847260
8780,10.1202393,1.8578910,11.3843708,205.1755676,-122.3206100,-216.8854980
8790,9.7180147,2.7652888,8.4826136,226.7786255,-107.3129807,-216.8015289
8800,9.7204094,3.8426740,5.9950504,231.9694672,-76.7175598,-223.0915985
8810,9.3971939,4.4891052,3.9599893,228.0763397,-35.4732819,-236.1450348
8820,9.1242561,4.3981261,2.4540441,221.1297760,4.7480917,-250.1374054
8830,8.3868456,4.3717899,1.1252691,219.0686951,38.3435097,-250.1374054
8840,6.9335728,3.8642218,-0.0023942,222.5114441,57.5038185,-250.1374054
8850,5.7053533,3.1507533,-1.3168042,230.0076294,58.3129768,-250.1374054
8860,4.1539187,2.1427996,-2.7293761,237.7862549,41.0534363,-250.1374054
8870,2.2361729,1.1851238,-4.0509686,243.9770966,5.3358779,-250.1374054
8880,-0.4932030,0.3112446,-5.0517397,247.0763397,-32.2519073,-250.1374054
8890,-4.2041965,0.0502780,-6.7157016,245.3206177,-57.7251892,-250.1374054
8900,-9.1458035,0.3495516,-8.7699156,231.4580078,-67.9083939,-250.1374054
8910,-15.1001530,1.4317253,-10.4865494,205.4503784,-71.7557220,-250.1374054
8920,-19.6131992,2.9664006,-12.6054077,166.7557220,-76.6412201,-250.1374054
8930,-19.6131992,4.7955613,-14.6739874,118.1526718,-81.8015289,-203.2213745
8940,-19.6131992,5.7245069,-16.2397861,59.9771004,-81.3587799,-100.1374054
8950,-19.6131992,5.8226686,-17.5901108,-8.7938929,-48.7633591,-3.2748091
8960,-19.6131992,5.0828643,-18.0881004,-86.0076370,17.2366409,83.6793900
8970,-19.6131992,4.0126615,-16.2110577,-161.4885559,86.5190811,154.0000000
8980,-16.8622761,3.5936785,-12.3444405,-219.4961853,141.0305328,203.5343475
8990,-14.6691990,2.8203552,-8.6190825,-250.1374054,173.8702240,236.1832123
9000,-13.6492739,2.6886747,-5.9423780,-250.1374054,183.6183167,250.1297760
9010,-12.3564119,2.5138988,-3.9360476,-250.1374054,169.5572510,250.1297760
9020,-10.3596573,2.2649033,-2.8155668,-250.1374054,142.1984711,250.1297760
9030,-8.0061693,2.1068866,-2.5761478,-250.1374054,112.4809189,250.1297760
9040,-5.5449429,1.7621235,-2.4588325,-250.1374054,92.7480927,250.1297760
9050,-3.0669568,1.1420283,-2.1858950,-250.1374054,78.1221390,250.1297760
9060,-0.2561783,0.3088504,-1.5250987,-250.1374054,66.8244247,250.1297760
9070,2.4468615,-0.6464311,-0.3184272,-250.1374054,49.9465637,250.1297760
9080,6.1770086,-1.0127422,1.5873476,-250.1374054,7.3969464,250.1297760
9090,11.2790270,-0.4596844,3.9911139,-250.1374054,-57.8015251,250.1297760
9100,17.9300842,2.1044924,7.5776095,-231.2595367,-138.3893127,250.1297760
9110,19.6126022,5.2672167,11.7458935,-185.6259613,-201.1145020,194.1908417
9120,19.6126022,6.8282285,14.7122946,-134.4122162,-207.0381622,94.5190811
9130,19.6126022,7.5728211,17.0418396,-80.3893127,-160.1679382,-6.9694657
9140,19.6126022,7.6111283,18.2820301,-27.7404575,-79.7175598,-94.8778610
9150,19.6126022,7.1418672,18.6938305,30.8473282,-21.1908398,-148.9770966
9160,15.1480370,6.6390872,17.5541973,96.1526718,-3.7862597,-177.6946564
9170,11.9374285,5.4755111,15.1863441,158.3740387,-17.0916023,-197.6564941
9180,9.6174593,4.9775200,12.0571384,210.3587799,-42.3587799,-214.3740387
9190,8.0301113,4.9631548,8.3030491,243.8244324,-62.2137413,-229.3893127
9200,7.1227136,5.1522956,4.6662750,250.1297760,-67.1221390,-245.9923706
9210,6.3853035,5.2049680,1.4700323,250.1297760,-61.8854980,-250.1374054
9220,5.3653784,5.1283536,-1.1037214,250.1297760,-53.8015251,-250.1374054
9230,4.2137733,4.9272418,-2.8754215,242.7633514,-41.1526718,-250.1374054
9240,2.7796540,4.2185616,-4.5106530,231.4885559,-27.2824421,-250.1374054
9250,1.3000449,3.6918402,-6.1051831,218.3740387,-15.3816795,-250.1374054
9260,-0.7158626,3.0549858,-7.1538382,203.5648804,-11.7633591,-250.1374054
9270,-3.4428444,2.6431851,-8.2815018,187.8396912,-11.6030531,-250.1374054
9280,-6.9359670,2.6120608,-9.1122847,169.4885559,-15.3816795,-250.1374054
9290,-11.0755205,2.9568241,-9.5815458,148.9618378,-20.8625946,-250.1374054
9300,-16.3954086,3.6224086,-9.8353300,124.9389343,-26.7480907,-250.1374054
9310,-19.6131992,4.4364328,-10.7211800,98.3893127,-32.9083977,-236.5343475
9320,-19.6131992,5.1403246,-12.2438850,63.8091621,-38.5190849,-155.4580078
9330,-19.6131992,5.6909885,-13.9653072,19.1603050,-29.5954189,-67.6412201
9340,-19.6131992,5.5353661,-14.9349537,-37.0152664,-1.1679389,13.4885492
9350,-19.6131992,5.2624283,-14.2286682,-96.8854980,38.4045792,82.9083939
9360,-17.6978493,4.8530221,-11.8560257,-145.9618378,72.1526718,135.0534363
9370,-15.2246504,4.5872669,-9.0045462,-178.1679382,98.1755753,173.5877838
9380,-13.7091284,4.4627690,-6.3948798,-195.1068726,113.9847336,203.3740387
9390,-12.4569674,4.4938936,-4.4029145,-200.4198456,121.9847336,229.6870270
9400,-11.2335367,4.7811961,-2.8442972,-198.9694672,117.9312973,250.1297760
9410,-10.3213511,4.9775200,-1.8028246,-192.8320618,105.4885483,250.1297760
9420,-8.5688038,4.5369892,-1.1875180,-185.1221313,94.9389343,250.1297760
9430,-5.8250628,4.1994085,-1.3958124,-178.8931274,86.8702316,250.1297760
9440,-2.9616125,3.9144998,-1.9177457,-178.8854980,90.8396912,250.1297760
9450,-0.2250538,3.7732425,-2.1763182,-185.5190887,91.6641235,250.1297760
9460,3.1028695,3.5529771,-2.0925217,-194.6335907,72.8931274,250.1297760
9470,6.2392578,3.1579359,-1.5059452,-199.9694672,23.0381680,250.1297760
9480,9.1745338,3.4619980,0.4740495,-191.9770966,-63.6564903,250.1297760
9490,12.1217813,4.4340386,2.9089401,-166.3053436,-162.2213745,230.9541931
9500,15.5382900,5.6191626,5.0469513,-134.3893127,-230.4274750,186.1832123
9510,19.2349186,7.0413113,6.4092450,-107.1679382,-248.2366486,132.1526642
9520,19.6126022,8.3245964,7.6757712,-88.3587799,-219.7099304,69.1068726
9530,19.6126022,8.7316093,8.6502066,-75.7786255,-150.7480927,-0.5648855
9540,19.6126022,8.8249826,10.3093796,-61.9847336,-66.9160309,-63.2366409
9550,18.8446655,8.2216463,11.6357603,-39.3053436,12.9770994,-120.1526718
9560,14.7242651,7.1969333,12.6724443,-1.6030535,60.9923668,-161.1068726
9570,11.0994625,6.5816269,12.2989511,44.9847336,75.7709961,-183.7480927
9580,8.9590569,6.0309634,10.8959560,91.3511429,71.2366409,-198.5877838
9590,7.3381906,5.7460546,8.9566631,129.6030579,60.9618340,-210.0229034
9600,6.5481081,5.6191626,6.7492199,159.0305328,55.3969460,-220.6793823
9610,6.0453281,5.4252334,4.2736282,176.6641235,55.6412201,-235.6106873
9620,5.9854736,5.1953912,2.2792683,186.8625946,60.7557259,-250.1374054
9630,5.5329719,4.8171091,0.3040621,194.1908417,63.3053436,-250.1374054
9640,4.5465660,4.1706781,-1.4125718,199.0000000,59.9771004,-250.1374054
9650,2.8658447,3.4308734,-2.7221935,202.4656525,50.8702278,-250.1374054
9660,1.0654143,2.5976956,-3.6008608,206.6106873,36.8244286,-250.1374054
9670,-1.5729824,1.7788827,-4.8745699,209.5496216,22.5877857,-250.1374054
9680,-5.0182209,1.3359578,-6.4954362,207.5954132,5.2824426,-250.1374054
9690,-9.1146793,1.3120158,-8.1282730,196.3435059,-10.6717558,-250.1374054
9700,-13.6492739,1.6519908,-9.6366129,175.0305328,-32.6106873,-250.1374054
9710,-18.2197819,2.3056045,-11.1808643,145.4961853,-53.6870232,-250.1374054
9720,-19.6131992,2.6958573,-12.5383701,106.4809189,-65.7175598,-212.1526642
9730,-19.6131992,3.0478032,-13.6301203,58.0839691,-60.1984749,-132.7251892
9740,-19.6131992,3.4476328,-14.0945930,4.0076337,-35.9389305,-52.5343513
9750,-19.6131992,3.2489152,-13.4744978,-51.1679382,-0.9465649,21.2137413
9760,-19.6131992,3.3303175,-11.9254580,-96.3282471,31.4045811,84.0610657
9770,-17.8630466,3.0621684,-10.5559816,-130.9084015,52.3282433,134.0534363
9780,-15.9069948,3.0286496,-9.1027079,-155.2671814,54.4885483,170.4503784
9790,-14.7386303,3.1962428,-7.9151902,-171.4045868,43.9236641,200.3511505
9800,-14.3579540,3.0908985,-7.2879128,-182.2366486,31.9618320,230.1908417
9810,-13.7474356,3.2225790,-6.6151457,-191.2671814,20.5267181,250.1297760
9820,-12.8735571,3.1699069,-5.9806852,-200.5648804,14.9847326,250.1297760
9830,-11.3005743,2.9975252,-5.3701668,-210.4961853,13.4961834,250.1297760
9840,-8.8177996,2.3319404,-4.8625989,-223.0305328,15.4122133,250.1297760
9850,-5.8346395,1.5777708,-4.5848727,-238.0305328,21.4961834,250.1297760
9860,-2.6144550,0.5195391,-4.3167233,-250.1374054,31.6564884,250.1297760
9870,0.7350162,-0.2873027,-3.7277529,-250.1374054,44.3053436,250.1297760
9880,3.0549858,-1.2521610,-2.5019281,-250.1374054,54.0534363,250.1297760
9890,6.1027889,-2.2505381,-0.0909792,-250.1374054,48.3129768,250.1297760
9900,9.7371683,-2.5474176,3.4236910,-250.1374054,18.5954189,250.1297760
9910,15.1480370,-1.0606259,8.4850073,-250.1374054,-49.2519073,250.1297760
9920,19.6126022,1.9129574,14.5135765,-250.1374054,-138.3053436,250.1297760
9930,19.6126022,5.4348102,19.3450508,-180.5954132,-181.9465637,163.0686951
9940,19.6126022,6.8449879,19.6126022,-101.7480927,-165.8778687,44.7557259
9950,19.6126022,7.0652533,19.6126022,-28.3435116,-110.9923630,-61.2977104
9960,19.6126022,7.0317345,19.6126022,43.5343513,-65.3664093,-136.0610657
9970,18.2748489,6.3302369,19.6126022,115.8473282,-53.0076332,-178.9313049
9980,14.5734310,5.3438311,16.6396160,182.4274750,-64.4732819,-204.1297760
9990,12.4162664,4.5872669,12.3659887,236.9465637,-70.4274826,-226.0992432
