timestamp,acclX,acclY,acclZ,gyroX,gyroY,gyroZ
0,-2.3989778,-4.1204000,5.7795734,-250.1374054,183.6946564,234.9770966
10,-0.4405309,-4.5202298,8.9877872,-250.1374054,140.8396912,233.4198456
20,2.2840567,-4.0318151,13.5295649,-250.1374054,69.1068726,219.3511505
30,5.7269011,-3.2441268,18.2628765,-250.1374054,-4.7633586,196.9694672
40,9.8568783,-1.9273225,19.6126022,-250.1374054,-62.7175560,163.8625946
50,13.5439301,-0.3639168,19.6126022,-190.5496216,-85.6412201,118.7480927
60,15.4880114,0.6392486,19.6126022,-103.2213745,-71.7404556,67.8091583
70,15.6292686,0.7781116,19.6126022,-18.9923668,-41.7022896,14.1068707
80,14.0467091,0.4261657,19.6126022,57.1297722,-41.7328262,-33.7251892
90,11.7219515,0.0622489,19.6126022,128.4732819,-84.9694672,-69.2977066
100,10.4458485,-0.3758878,19.6126022,191.9847260,-133.9389343,-90.8625946
110,9.4570484,-0.0598547,17.0849361,245.6641235,-169.5114441,-101.8702316
120,8.8465300,1.0031654,13.5678720,250.1297760,-177.8549652,-105.6946564
130,8.3293848,1.9105632,9.8449068,250.1297760,-158.2366486,-109.7328262
140,7.7859039,3.1866663,7.1275020,250.1297760,-124.1832047,-111.2519073
150,7.9343438,4.2879934,5.3965030,250.1297760,-83.3129807,-112.5267181
160,7.6997132,4.8434453,4.0318151,250.1297760,-41.3053436,-118.6030502
170,6.8952656,4.9847026,2.6910689,250.1297760,-4.6259542,-127.9007645
180,5.5233951,5.0325861,1.1132981,250.1297760,21.2900772,-134.6793823
190,3.8737986,5.3797436,-1.0438666,250.1297760,30.6259537,-135.4885559
200,2.1499822,5.6646523,-4.0844874,250.1297760,16.8091602,-131.6183167
210,0.8954269,6.0237808,-6.6989422,250.1297760,-5.5877862,-124.8778610
220,-0.6631905,6.4595232,-8.7866755,250.1297760,-31.1984730,-114.5954208
230,-2.5665710,7.1945391,-10.7714586,250.1297760,-52.6183205,-97.7251892
240,-4.0509686,8.0061693,-12.1002331,225.0534363,-60.1297722,-72.8702316
250,-4.5944495,8.7483683,-13.0052376,189.1297760,-46.6793900,-42.1068687
260,-4.3406653,9.3397331,-13.2997227,145.9236603,-18.7862587,-10.5954199
270,-3.6439564,9.5360565,-13.2805691,98.0916061,25.7480907,20.2519093
280,-2.9664006,9.4450769,-12.5024576,50.0228996,80.9236679,48.3129768
290,-2.1092808,9.2655134,-11.7650471,5.4961834,132.0610657,73.3893127
300,-1.0199248,8.8417416,-10.8049774,-34.4045792,169.0000000,93.0305328
310,0.1125269,8.5257082,-9.3062143,-68.9236679,186.0534363,104.5419846
320,1.3024391,8.3413563,-7.1873569,-94.5954208,183.1526642,110.5038147
330,2.2409613,7.8697009,-5.0373745,-109.9312973,170.3358765,111.6030502
340,3.2489152,7.5153608,-3.0717452,-116.8015289,155.8778687,110.4503784
350,4.3454537,7.2472115,-1.8219782,-116.8396912,139.6259613,107.2519073
360,5.6263452,7.5153608,-0.9409165,-111.5725174,116.8702316,98.7938919
370,7.3310080,8.2527714,-0.2154770,-99.5038147,82.6717529,84.0687027
380,8.9710283,9.1793222,-0.0119709,-80.9160309,37.5877876,58.6183205
390,10.4626083,10.1800938,0.7709290,-56.6564903,-19.7480907,25.0305347
400,11.3700056,11.2455082,0.6967092,-26.9160309,-81.5267181,-15.3664122
410,11.3987360,11.4059181,-0.4405309,3.4351146,-142.9236603,-54.1908379
420,11.3340931,11.7387114,-2.9568241,26.0763359,-205.1755676,-89.3969498
430,10.6062593,11.9901009,-7.3046722,33.5038185,-250.1374054,-120.4961853
440,9.4762020,11.8560257,-10.6756907,20.8473282,-250.1374054,-149.1374054
450,8.6861191,11.6405487,-11.6620970,-7.3969464,-250.1374054,-171.7328186
460,7.1107426,10.1058741,-11.4370432,-41.7557259,-250.1374054,-181.0839691
470,6.3685441,10.5033092,-10.5344334,-77.4961853,-250.1374054,-170.6564941
480,6.0668759,8.7794924,-8.6334467,-109.7862625,-250.1374054,-155.1145020
490,5.5952206,8.1091194,-5.2073622,-138.3587799,-250.1374054,-132.2213745
500,6.5552907,7.7260494,-1.4843974,-161.4351196,-250.1374054,-104.0687027
510,9.0907373,7.7116842,2.7030399,-177.0381622,-250.1374054,-80.8396912
520,13.2757807,7.1777802,7.4626884,-185.6717529,-250.1374054,-74.4045792
530,17.6763000,7.1418672,12.5216112,-185.6412201,-199.6870270,-91.8167953
540,19.6126022,7.2927012,16.2637291,-182.8549652,-115.6412201,-123.1679382
550,19.6126022,4.9655490,19.6126022,-151.3358765,-46.6870232,-169.2442780
560,18.6890430,3.3734128,19.6126022,-79.2671738,-2.2290077,-216.9847260
570,15.6891232,1.9392935,19.6126022,20.5038166,39.2061081,-250.1374054
580,12.9717188,0.4548960,19.6126022,128.2824402,76.6183243,-250.1374054
590,9.9717989,-0.5027798,15.1097298,215.2748108,84.9770966,-250.1374054
600,7.6829538,-1.1994889,8.4850073,250.1297760,71.9389343,-250.1374054
610,5.7484488,-2.0350611,2.5546002,250.1297760,50.9618340,-250.1374054
620,1.4389079,-3.1842721,-2.8466914,250.1297760,37.8091621,-250.1374054
630,-7.0796180,-3.7708483,-7.3884687,250.1297760,26.9312973,-250.1374054
640,-18.1575336,-2.4444675,-12.7418766,250.1297760,2.0229008,-250.1374054
650,-19.6131992,0.6344602,-18.5070839,239.1068726,-11.8167934,-250.1374054
660,-19.6131992,2.6647329,-19.6131992,177.0381622,4.2824426,-166.4122162
670,-19.6131992,3.8283088,-19.6131992,67.4580154,48.4198456,-32.8778610
680,-19.6131992,4.5776901,-19.6131992,-77.2137375,89.8931274,74.2519073
690,-19.6131992,3.8307030,-19.6131992,-202.3053436,163.8244324,145.0076294
700,-19.6131992,3.2704628,-16.9101601,-250.1374054,227.6717529,192.2366486
710,-19.6131992,2.7652888,-13.0196018,-250.1374054,248.6335907,234.5343475
720,-19.6131992,2.4803803,-10.2016411,-250.1374054,223.6030579,250.1297760
730,-16.8287582,2.0087249,-8.1857338,-250.1374054,172.3664093,250.1297760
740,-12.9932661,1.2449785,-6.7947097,-250.1374054,129.2748108,250.1297760
750,-9.2798786,0.5865764,-5.4946647,-250.1374054,110.3587799,250.1297760
760,-6.2177100,-0.5362985,-3.9911139,-250.1374054,115.5496216,250.1297760
770,-3.7229645,-1.5634058,-2.0302727,-250.1374054,131.1755676,250.1297760
780,-1.9440818,-2.9711890,0.4333483,-250.1374054,145.9541931,250.1297760
790,0.2920911,-4.2951760,3.4811516,-250.1374054,141.4885559,250.1297760
800,4.0605454,-4.9847026,7.3334022,-250.1374054,94.9007645,250.1297760
810,9.9382801,-4.1467361,12.2486734,-250.1374054,20.5190830,250.1297760
820,18.1240139,-1.8459201,17.4512463,-250.1374054,-64.7175598,250.1297760
830,19.6126022,1.2641320,19.6126022,-200.2061005,-120.6106873,221.1679382
840,19.6126022,4.3119354,19.6126022,-112.0381699,-131.4656525,109.1145020
850,19.6126022,4.9583664,19.6126022,-22.9007626,-107.5038147,-11.9694653
860,19.6126022,3.9432299,19.6126022,60.6946564,-66.6564865,-124.6183243
870,19.6126022,2.7365584,19.6126022,139.4961853,-51.5190849,-205.1755676
880,16.6587696,1.6448082,19.6126022,209.9541931,-59.0381660,-250.1374054
890,11.0994625,0.6177009,16.9460735,250.1297760,-72.5572510,-250.1374054
900,7.5129666,0.8020535,12.5096397,250.1297760,-77.0152664,-250.1374054
910,5.6407104,1.7669119,8.3126259,250.1297760,-68.2748108,-250.1374054
920,4.6327567,2.3965836,4.3358769,250.1297760,-51.4961815,-250.1374054
930,3.7253587,2.8969693,0.6775556,250.1297760,-26.0381680,-250.1374054
940,3.1268115,3.1387823,-2.2696917,250.1297760,3.0152671,-250.1374054
950,2.1260402,2.9687948,-4.4268565,250.1297760,24.5572510,-250.1374054
960,0.7757174,2.7102225,-5.9758968,250.1297760,38.6106873,-250.1374054
970,-1.1420283,2.3008161,-7.1298962,250.1297760,40.5190849,-250.1374054
980,-5.1594782,1.7262106,-7.8289995,250.1297760,14.7022905,-250.1374054
990,-10.0436249,1.6735384,-8.4059992,250.1297760,-48.2366409,-250.1374054
1000,-15.2629576,2.0470319,-10.1705170,250.1297760,-127.0457993,-250.1374054
1010,-19.0409889,3.2034254,-13.3835192,237.8167877,-199.5496216,-222.0381622
1020,-19.6131992,4.5633249,-16.4241390,190.6870270,-231.7099304,-160.8244324
1030,-19.2995605,5.8801293,-18.7177734,121.8931274,-198.7633514,-99.3969498
1040,-18.8087521,6.3757267,-19.6131992,41.2977104,-107.2824402,-43.4351158
1050,-19.3258972,6.0118098,-19.6131992,-47.9236641,3.1221373,13.9236641
1060,-19.4456062,5.3988972,-18.8087521,-125.3740463,79.4961853,69.3435135
1070,-18.6938305,4.6710634,-15.7394018,-178.4732819,104.5496216,118.3587799
1080,-17.0202923,4.4340386,-13.1417055,-209.5038147,95.6946564,158.2900696
1090,-14.8655224,4.3334827,-11.2670555,-229.2519073,78.2748108,189.3206177
1100,-12.6030130,4.3047528,-9.5576038,-244.1450348,63.4045792,214.4732819
1110,-10.7211800,4.2712340,-8.3605099,-250.1374054,58.8396950,234.3664093
1120,-9.2774839,4.1587071,-7.0700417,-250.1374054,55.7709923,250.1297760
1130,-7.4818420,3.7421181,-5.6885943,-250.1374054,54.5496178,250.1297760
1140,-5.6119800,3.0406206,-4.4962878,-250.1374054,59.3587799,250.1297760
1150,-3.7085996,2.0542145,-3.8307030,-250.1374054,67.6488571,250.1297760
1160,-1.2952565,1.0534433,-2.1308286,-250.1374054,68.0229034,250.1297760
1170,1.7597293,0.1484398,0.7613522,-250.1374054,47.4198456,250.1297760
1180,5.5545197,-0.4189832,4.4986820,-250.1374054,12.9847326,250.1297760
1190,9.7850523,-0.3591284,8.9015961,-250.1374054,-35.3282433,250.1297760
1200,15.0690289,0.6823440,13.9509420,-249.3282471,-95.0916061,247.0686951
1210,19.6126022,2.3965836,19.0385952,-186.7328186,-143.8778687,188.2595367
1220,19.6126022,4.2592630,19.6126022,-117.4351120,-146.7099304,108.0687027
1230,19.6126022,5.4707227,19.6126022,-44.3816795,-107.7633591,13.2595415
1240,19.6126022,5.5233951,19.6126022,30.3053436,-48.3053436,-80.3435135
1250,19.6126022,4.6447277,19.6126022,101.9618301,-13.7404585,-146.7404633
1260,14.9588957,3.7828193,18.7704449,168.9084015,-12.3816795,-183.0305328
1270,11.6501255,3.4356618,14.5183649,222.0458069,-15.4198475,-203.3206177
1280,9.7491398,4.0030847,10.1585455,250.1297760,-17.1908398,-217.2900696
1290,8.6238708,4.7620430,6.2296810,250.1297760,-4.8320613,-233.8015289
1300,7.5177550,5.1882086,2.3702476,250.1297760,21.9312973,-250.1374054
1310,6.3853035,5.4348102,-0.6344602,250.1297760,47.5114517,-250.1374054
1320,5.2073622,5.1115947,-2.8730273,250.1297760,59.1755714,-250.1374054
1330,3.3901722,4.3358769,-4.4986820,250.1297760,53.7786255,-250.1374054
1340,0.5243275,3.1699069,-5.8897061,250.1297760,30.9465656,-250.1374054
1350,-4.0701222,2.0446377,-7.3405848,250.1297760,-9.0839691,-250.1374054
1360,-9.6390066,1.8531027,-9.1386213,250.1297760,-70.3816757,-250.1374054
1370,-14.6261034,2.6599445,-11.9493999,250.1297760,-137.3053436,-250.1374054
1380,-18.5932751,4.3622131,-15.0307217,219.5343475,-181.2748108,-250.1374054
1390,-19.6131992,5.9208307,-18.2030220,159.0076294,-174.3435059,-219.4732819
1400,-19.6131992,6.3637557,-19.6131992,72.7480927,-110.1374054,-146.4885559
1410,-19.6131992,6.0620875,-19.6131992,-24.8931293,-17.0381680,-64.7709961
1420,-19.6131992,5.3510137,-18.0881004,-109.5114517,56.6030540,14.1679392
1430,-19.6131992,4.8482337,-14.3507719,-165.2519073,83.2442780,78.6030502
1440,-19.6131992,4.0988522,-11.2526903,-197.3587799,75.1832047,129.0381622
1450,-16.7689037,3.8283088,-8.7268209,-214.3587799,54.4503822,166.1526642
1460,-14.2980995,3.4236910,-7.2400289,-223.8244324,41.3664131,196.8702240
1470,-12.4162664,3.5026991,-6.3230543,-233.1297760,37.4809151,223.1221313
1480,-11.0180597,3.1794837,-5.8561873,-245.8931274,37.4656487,248.3129730
1490,-9.5935173,2.6360025,-5.3055239,-250.1374054,40.6412201,250.1297760
1500,-7.9534974,1.9536586,-4.2018023,-250.1374054,45.0534363,250.1297760
1510,-6.4212160,1.0342898,-3.1196289,-250.1374054,53.9083977,250.1297760
1520,-4.8314743,-0.2561783,-2.0230901,-250.1374054,68.7328262,250.1297760
1530,-2.7628946,-1.8650736,-0.5913648,-250.1374054,88.2671738,250.1297760
1540,-0.3351865,-3.6726866,1.5562232,-250.1374054,102.3129807,250.1297760
1550,2.8419030,-4.6088147,4.8458395,-250.1374054,93.6259537,250.1297760
1560,6.9623032,-4.5489597,9.5911226,-250.1374054,57.7633591,250.1297760
1570,11.2072010,-3.3566537,14.2741575,-250.1374054,6.7404580,250.1297760
1580,16.1631737,-1.4628497,19.1750641,-250.1374054,-39.5648842,250.1297760
1590,19.6126022,0.7134684,19.6126022,-190.7022858,-62.8625946,206.2061005
1600,19.6126022,2.4348907,19.6126022,-107.7251892,-56.1679382,128.0992432
1610,19.6126022,2.9352763,19.6126022,-17.8167934,-39.6641235,48.6564903
1620,19.6126022,2.6551561,19.6126022,70.9236679,-35.6564903,-23.7099228
1630,17.2644997,1.9943599,19.6126022,156.1603088,-53.8244286,-82.0687027
1640,14.2047262,1.7022687,19.6126022,229.2824402,-83.5267181,-122.7557220
1650,11.4753504,1.4796091,16.4552650,250.1297760,-101.8244247,-148.4274750
1660,9.8664551,2.0254843,11.5495701,250.1297760,-98.7557220,-163.7557220
1670,9.1553802,3.1315999,7.6542239,250.1297760,-77.4503784,-177.7328186
1680,8.6406298,4.0342093,4.3789725,250.1297760,-49.3129768,-193.8702240
1690,8.0348997,4.5250182,1.5466464,250.1297760,-18.5801525,-214.5419922
1700,7.0772243,4.7213416,-1.0271072,250.1297760,6.3435116,-238.9694672
1710,5.9663200,4.4124913,-3.7014170,250.1297760,14.9465647,-250.1374054
1720,4.9392128,3.9599893,-6.2440462,250.1297760,3.7251909,-250.1374054
1730,3.3901722,3.1411765,-7.8864598,250.1297760,-25.2442741,-250.1374054
1740,0.7637464,2.2337787,-8.5281029,250.1297760,-61.1679382,-250.1374054
1750,-3.3327117,1.4365137,-8.9877872,250.1297760,-97.1908417,-250.1374054
1760,-9.0500364,1.2856797,-10.0891142,250.1297760,-138.6641235,-250.1374054
1770,-14.9205885,2.2577207,-11.5375986,250.1297760,-184.3740387,-250.1374054
1780,-18.9667683,4.2305326,-13.3715477,230.8091583,-218.7480927,-250.1374054
1790,-19.6131992,5.8944945,-16.1176834,176.7175598,-204.1984711,-196.9618378
1800,-19.6131992,6.5959921,-19.0242290,97.8015289,-129.5725250,-117.5954208
1810,-19.6131992,6.6965480,-19.6131992,4.0381680,-28.2824421,-34.3206100
1820,-19.6131992,6.2751703,-18.2532997,-79.7786255,55.4351158,41.5725174
1830,-19.6131992,5.6838059,-15.1959200,-139.5267181,99.6259537,105.7633591
1840,-18.6674957,5.0828643,-12.5431585,-175.8320618,105.5419846,159.2442780
1850,-16.7760849,4.6997938,-10.5918941,-197.4885559,89.7557220,202.3664093
1860,-15.3084478,4.4244623,-8.9494801,-209.2671814,59.8931313,241.3816833
1870,-13.9246063,4.1922259,-7.8529415,-215.8320618,35.2671738,250.1297760
1880,-12.0547438,3.6439564,-7.1945391,-222.1526642,20.3740463,250.1297760
1890,-9.8042059,3.4643922,-6.5505023,-229.2824402,16.8091602,250.1297760
1900,-6.7779503,3.2465210,-5.8513989,-237.9770966,24.7862587,250.1297760
1910,-3.0597742,2.5162930,-4.9847026,-250.1374054,49.2900772,250.1297760
1920,1.6448082,0.3567342,-4.3310885,-250.1374054,99.4122162,250.1297760
1930,5.8681583,-0.6296718,-3.1866663,-250.1374054,176.7328186,250.1297760
1940,9.0213060,-1.4460905,-1.0031654,-250.1374054,250.1297760,250.1297760
1950,10.0627785,-1.7262106,2.1068866,-250.1374054,250.1297760,250.1297760
1960,9.0859489,-3.0645626,5.9974446,-250.1374054,250.1297760,250.1297760
1970,8.6813307,-4.1706781,10.9103212,-250.1374054,250.1297760,250.1297760
1980,12.1672707,-3.7445123,18.0665531,-250.1374054,250.1297760,250.1297760
1990,18.4496231,-2.0302727,19.6126022,-250.1374054,244.9313049,177.8854980
2000,19.6126022,-0.0263361,19.6126022,-204.6488495,28.3129768,39.0000000
2010,19.6126022,-0.6967092,19.6126022,-26.5725193,-153.6870270,-105.2061081
2020,19.6126022,-2.5330524,19.6126022,132.3358765,-250.1374054,-217.0305328
2030,16.8479118,-3.0813217,19.6126022,242.7328186,-250.1374054,-250.1374054
2040,11.6716738,-3.2130022,18.5406036,250.1297760,-250.1374054,-250.1374054
2050,7.2017217,-3.5314295,13.6037846,250.1297760,-250.1374054,-250.1374054
2060,4.2568688,-2.4588325,9.9334917,250.1297760,-250.1374054,-250.1374054
2070,2.4636209,-0.7900825,8.0325060,250.1297760,-250.1374054,-250.1374054
2080,1.8578910,0.2896969,6.8138633,250.1297760,-205.9313049,-250.1374054
2090,1.8291607,1.2976507,5.4348102,250.1297760,-134.7175598,-250.1374054
2100,1.7669119,2.1691356,3.4931223,250.1297760,-59.2748108,-250.1374054
2110,2.1451938,2.8897867,0.6919208,250.1297760,13.5267172,-250.1374054
2120,2.0087249,2.8227494,-1.8554969,250.1297760,69.1221390,-250.1374054
2130,1.4221486,2.2601149,-3.7947903,250.1297760,93.1679382,-250.1374054
2140,0.0287303,1.1444225,-5.4108682,244.4809113,83.0992355,-250.1374054
2150,-3.2848279,-0.1340746,-7.4028339,246.7328186,36.7938919,-250.1374054
2160,-8.0492649,-0.6224893,-9.2559366,250.1297760,-61.5877876,-250.1374054
2170,-12.2271252,0.6919208,-10.9270811,250.1297760,-191.4580078,-250.1374054
2180,-15.0762110,2.9496415,-13.4194317,240.4961853,-250.1374054,-250.1374054
2190,-18.3514614,4.6471219,-16.8718529,186.2290039,-250.1374054,-250.1374054
2200,-19.6131992,5.2001796,-19.6131992,95.1603088,-177.5725250,-189.3435059
2210,-19.6131992,6.0070214,-19.6131992,-6.4351144,-43.3129768,-101.1679382
2220,-19.6131992,6.3134775,-17.1974621,-91.9083939,63.8549614,-10.7022905
2230,-19.6131992,5.8011212,-14.3100700,-149.0915985,120.8473282,72.4732819
2240,-19.6131992,5.7340837,-11.4418316,-186.2900696,123.8473282,149.5038147
2250,-19.6131992,4.7093706,-9.3612804,-206.9618378,91.4351120,213.4885559
2260,-16.2828827,4.6614871,-8.0109577,-217.1297760,52.5343513,250.1297760
2270,-12.4473906,4.0485744,-7.0293403,-228.7175598,32.6564903,250.1297760
2280,-9.0955257,3.5386121,-6.1674318,-243.7328186,30.6793900,250.1297760
2290,-5.7843618,2.4971397,-5.3007355,-250.1374054,47.0076332,250.1297760
2300,-2.6407909,1.4796091,-4.2592630,-250.1374054,72.6106873,250.1297760
2310,0.3040621,0.3232156,-2.9304879,-250.1374054,100.6488571,250.1297760
2320,2.7269819,-0.7398046,-0.8714849,-250.1374054,114.3435135,250.1297760
2330,5.6957769,-1.7070571,2.2289903,-250.1374054,100.4198456,250.1297760
2340,9.8329363,-2.1068866,6.6773944,-250.1374054,50.0610695,250.1297760
2350,15.4640694,-1.4628497,11.8320847,-250.1374054,-26.0381680,250.1297760
2360,19.6126022,-0.2705434,16.6180687,-250.1374054,-88.3740463,221.4427490
2370,19.6126022,1.6735384,19.6126022,-210.5954132,-88.8854980,139.9313049
2380,19.6126022,3.1459649,19.6126022,-148.2595367,-28.4351139,51.1603050
2390,19.6126022,4.1251884,19.6126022,-81.9847336,41.2748108,-32.2366409
2400,19.6126022,3.8761928,19.6126022,-7.2748094,75.5114517,-91.9618301
2410,15.0809994,3.8115497,19.6126022,77.5725174,73.9618301,-130.5419922
2420,11.7746239,3.9121056,19.6126022,161.8549652,45.9160309,-150.8549652
2430,9.5504217,3.9623835,15.2868996,233.0458069,9.2824430,-163.9923706
2440,8.5927458,4.4531922,10.7044210,250.1297760,-15.6870232,-179.8854980
2450,8.2671366,4.8506279,6.5648675,250.1297760,-17.8625946,-201.3206177
2460,7.4722652,4.8171091,3.0693510,250.1297760,-6.7022901,-227.6641235
2470,6.3015065,4.8195033,-0.1244979,250.1297760,10.9541988,-250.1374054
2480,4.9918852,4.6662750,-3.0238612,250.1297760,31.1450386,-250.1374054
2490,3.0525916,4.2401094,-4.7261300,250.1297760,43.1679382,-250.1374054
2500,0.4285599,3.3997490,-6.0453281,250.1297760,41.7862587,-250.1374054
2510,-2.8323262,2.8658447,-7.1466556,250.1297760,18.4122143,-250.1374054
2520,-6.3900914,2.7533178,-8.2910776,250.1297760,-20.3511448,-250.1374054
2530,-10.2064295,3.1794837,-10.6637201,250.1297760,-49.8320618,-250.1374054
2540,-14.6237087,4.0820932,-13.6420918,239.2977142,-63.4885483,-250.1374054
2550,-19.1415443,5.2408805,-16.3810444,187.1832123,-64.6717529,-225.8091583
2560,-19.6131992,6.1171541,-18.3490677,117.6412201,-56.1145020,-158.7022858
2570,-19.6131992,6.7875271,-18.7369270,45.9847336,-36.4274826,-83.5267181
2580,-19.6131992,6.7444315,-18.1958389,-21.1221371,-11.7786255,-6.5801525
2590,-19.6131992,6.3230543,-16.4768124,-79.5496216,2.3053436,66.0687027
2600,-19.6131992,6.1434903,-13.9748840,-122.2442780,-2.1832061,125.6793900
2610,-17.9037495,5.7843618,-11.3915539,-146.9465637,-12.1145039,174.4198456
2620,-15.4377337,5.5162125,-9.8975792,-163.0915985,-26.4885502,211.4122162
2630,-12.9693241,5.2576399,-8.4562769,-175.8931274,-45.5648842,246.0458069
2640,-9.8903971,4.8721757,-7.5680327,-186.5038147,-50.7633591,250.1297760
2650,-7.3860745,4.4100971,-7.0365229,-200.4885559,-37.3893127,250.1297760
2660,-4.8314743,3.6774750,-6.6199336,-221.0839691,-10.3587790,250.1297760
2670,-2.1595588,2.7078283,-6.0980005,-249.0305328,31.7099228,250.1297760
2680,-0.3758878,1.5322813,-4.9368186,-250.1374054,80.3282471,250.1297760
2690,0.8331779,-0.0023942,-3.6056492,-250.1374054,127.0305328,250.1297760
2700,2.4301023,-1.5370697,-1.4915800,-250.1374054,159.9770966,250.1297760
2710,4.7548604,-2.6431851,2.0901275,-250.1374054,166.3893127,250.1297760
2720,7.0772243,-2.8059900,6.5983863,-250.1374054,154.7099304,250.1297760
2730,9.1410151,-3.0166788,11.0994625,-250.1374054,139.3435059,250.1297760
2740,13.1297350,-2.7221935,16.7617207,-250.1374054,104.1755753,250.1297760
2750,19.0912666,-1.1324517,19.6126022,-250.1374054,34.2748108,196.3358765
2760,19.6126022,0.9864060,19.6126022,-167.3358765,-36.7480927,104.8091583
2770,19.6126022,1.6687500,19.6126022,-31.5725193,-72.5572510,5.4122138
2780,19.6126022,0.9073978,19.6126022,99.2366409,-78.7480927,-75.1832047
2790,17.3674507,1.0678085,19.6126022,203.4274750,-92.3664093,-126.6946564
2800,13.3667593,1.5849534,19.6126022,250.1297760,-119.4274826,-157.3511505
2810,11.3077564,2.1811066,15.1432486,250.1297760,-127.0916061,-174.0229034
2820,10.4314833,3.0454090,10.4266949,250.1297760,-103.9007645,-186.4961853
2830,10.0196829,3.7229645,6.4379754,250.1297760,-71.2748108,-202.2900696
2840,9.5959110,4.3167233,2.8921809,250.1297760,-43.6030540,-225.2137451
2850,8.3629036,4.3981261,0.4812321,250.1297760,-23.0305347,-250.1374054
2860,7.0077925,4.2616572,-1.9584470,250.1297760,-6.4885497,-250.1374054
2870,5.4874821,3.7995787,-3.7923961,250.1297760,1.6106870,-250.1374054
2880,3.4931223,3.1363883,-4.8386569,250.1297760,-5.9694657,-250.1374054
2890,1.7717001,2.3486998,-5.5233951,250.1297760,-17.3053436,-250.1374054
2900,-0.9528874,1.4269369,-6.4236102,250.1297760,-30.1450386,-250.1374054
2910,-5.4108682,0.6967092,-7.4866304,250.1297760,-55.9923668,-250.1374054
2920,-10.8313131,0.9816177,-9.0452480,250.1297760,-94.5572510,-250.1374054
2930,-16.1727505,2.1475880,-11.8033543,250.1297760,-121.4809189,-250.1374054
2940,-19.6131992,3.3973548,-15.4784346,222.5114441,-120.7175598,-250.1374054
2950,-19.6131992,4.9966736,-18.9811344,152.4809113,-103.2213745,-183.7022858
2960,-19.6131992,5.8681583,-19.6131992,66.8091583,-67.6793900,-85.3435135
2970,-19.6131992,6.0213866,-19.6131992,-19.5114498,-16.9083977,10.6030531
2980,-19.6131992,5.7484488,-18.7776279,-95.0534363,29.4580154,92.8320618
2990,-19.6131992,5.6263452,-15.2797174,-149.2977142,53.0839691,153.4122162
3000,-16.0147324,5.3174949,-12.0954447,-185.5954132,65.7633591,196.0686951
3010,-13.1800127,4.8530221,-9.6222477,-208.6183167,74.3282471,228.6412201
3020,-10.4817610,4.7811961,-7.7667508,-224.1450348,75.9465637,250.1297760
3030,-8.1115141,4.9440012,-6.5696559,-232.9160309,72.3053436,250.1297760
3040,-6.0381460,4.7309184,-6.0764527,-242.9618378,67.0305328,250.1297760
3050,-3.7756367,4.3598189,-5.8897061,-250.1374054,64.7328262,250.1297760
3060,-1.8171898,3.7181761,-5.4491754,-250.1374054,73.5496216,250.1297760
3070,-0.3064562,2.8706331,-4.2903876,-250.1374054,91.6564865,250.1297760
3080,1.1923064,1.9728121,-2.4564383,-250.1374054,111.1526718,250.1297760
3090,2.9017577,0.6943150,0.3926471,-250.1374054,112.6870193,250.1297760
3100,5.7484488,-0.1149211,4.7141590,-250.1374054,78.4427490,250.1297760
3110,9.5647869,0.2489957,9.7922344,-250.1374054,8.5038166,250.1297760
3120,14.7745428,1.2018831,16.0889530,-250.1374054,-74.8015289,208.2290039
3130,19.6126022,3.1435707,19.6126022,-178.0076294,-126.2442780,142.5801544
3140,19.6126022,4.7524662,19.6126022,-94.4503784,-126.2900772,65.9770966
3150,19.6126022,5.5425487,19.6126022,-14.9465647,-103.3587799,-18.8473282
3160,19.6126022,5.2600341,19.6126022,64.2824402,-90.0763321,-104.8931274
3170,18.1790810,4.4412212,19.6126022,145.1526642,-92.7480927,-169.7328186
3180,13.2278967,3.8642218,17.9540272,213.2671814,-111.3282471,-202.7709961
3190,10.1800938,3.5314295,13.7857428,250.1297760,-129.4274750,-218.1221313
3200,8.9758167,3.8522508,9.4378948,250.1297760,-130.0610657,-231.9084015
3210,7.6183109,3.8666160,5.2839761,250.1297760,-113.4656525,-246.7480927
3220,6.2847471,3.8714044,1.5442522,250.1297760,-89.5419846,-250.1374054
3230,5.4707227,3.8905578,-2.3463056,250.1297760,-67.0229034,-250.1374054
3240,4.9775200,3.5697365,-4.9583664,250.1297760,-43.5114517,-250.1374054
3250,3.2632802,2.9233053,-6.1650376,250.1297760,-25.1374054,-250.1374054
3260,0.7326220,1.7166338,-7.6494355,238.1374054,-15.0305347,-250.1374054
3270,-3.0166788,0.7350162,-8.9997578,225.2213745,-10.9923668,-250.1374054
3280,-7.7619624,0.5123565,-10.2806492,212.5496216,-16.2290077,-250.1374054
3290,-14.0203733,1.1468167,-12.4282379,194.2900696,-36.0152664,-250.1374054
3300,-19.5533447,2.4731977,-15.1288834,162.8778687,-56.2290077,-250.1374054
3310,-19.6131992,4.2999644,-18.1910515,108.2213745,-59.1297722,-204.8549652
3320,-19.6131992,5.3581958,-19.6131992,32.3053436,-28.2977104,-118.8396912
3330,-19.6131992,5.6526814,-19.6131992,-56.0916023,26.0229015,-26.5572510
3340,-19.6131992,5.6311336,-17.9516335,-135.5114441,79.2595444,60.0610695
3350,-19.6131992,5.2552457,-14.7266598,-188.9007568,111.5267181,130.6870270
3360,-19.6131992,4.7764082,-12.0786858,-224.4351196,123.0152664,187.8167877
3370,-18.0952835,4.2496862,-10.0148945,-249.0305328,119.7022934,236.7709961
3380,-15.6771526,3.4811516,-8.4514885,-250.1374054,116.7709961,250.1297760
3390,-13.2853575,2.6431851,-7.0341287,-250.1374054,113.2061081,250.1297760
3400,-10.5559816,1.5203103,-5.5018473,-250.1374054,111.5954208,250.1297760
3410,-7.5321202,-0.0766141,-4.0629396,-250.1374054,115.7099228,250.1297760
3420,-3.5242469,-1.5634058,-2.5785420,-250.1374054,125.5954208,250.1297760
3430,0.7637464,-3.1627243,-1.0031654,-250.1374054,132.0992432,250.1297760
3440,5.1714492,-3.7876077,1.5514348,-250.1374054,119.0076370,250.1297760
3450,10.4314833,-3.4979107,5.2217274,-250.1374054,76.6717529,250.1297760
3460,16.4792061,-1.8076130,10.9127159,-250.1374054,6.7328243,250.1297760
3470,19.6126022,0.7781116,18.4975071,-250.1374054,-79.6488571,193.5114441
3480,19.6126022,2.2098370,19.6126022,-198.3129730,-139.7099304,86.8625946
3490,19.6126022,3.2513094,19.6126022,-96.0992355,-147.1679382,-18.9847336
3500,19.6126022,3.4189026,19.6126022,11.9541988,-123.5343475,-107.6793900
3510,19.5701046,3.6319854,19.6126022,109.7480927,-102.5954208,-164.7557220
3520,14.6213150,3.3398943,19.6126022,185.0229034,-109.1603088,-192.1068726
3530,11.7746239,3.1411765,17.3075962,240.4732819,-121.5419846,-208.2213745
3540,10.0484133,3.2441268,12.3588057,250.1297760,-111.8702316,-221.6488495
3550,8.3222027,3.7133877,7.6973190,250.1297760,-85.5801544,-234.2595367
3560,6.5959921,4.0366035,3.8498566,250.1297760,-54.7022896,-244.1679382
3570,5.3629842,4.1802549,0.7781116,250.1297760,-21.9541988,-250.1374054
3580,4.5848727,4.2425036,-1.6112895,250.1297760,14.3511448,-250.1374054
3590,3.7516949,3.8905578,-3.1004753,250.1297760,41.7099228,-250.1374054
3600,2.1858950,2.8155668,-4.3957319,250.1297760,53.5267181,-250.1374054
3610,-0.7565638,1.4796091,-5.9711084,250.1297760,47.2137413,-250.1374054
3620,-4.5944495,0.8882443,-7.8170285,250.1297760,15.7328243,-250.1374054
3630,-9.2152348,1.6519908,-9.9550400,250.1297760,-37.8702278,-250.1374054
3640,-13.1895895,3.2896163,-13.3595772,237.0305328,-80.2595444,-250.1374054
3650,-17.0538120,5.1235652,-17.5326500,185.6564941,-76.9312973,-244.8473358
3660,-19.6131992,6.0046272,-19.6131992,98.7862625,-23.3587780,-178.5725250
3670,-19.6131992,6.6175399,-19.6131992,1.1297710,47.3129768,-102.1526718
3680,-19.6131992,6.5098009,-19.6131992,-89.0076370,111.7557220,-20.4274807
3690,-19.6131992,6.0477223,-18.7417145,-159.0534363,155.1526642,53.5877876
3700,-19.6131992,5.5042415,-16.2206345,-214.9236603,171.8931274,116.8702316
3710,-18.0761299,5.0661049,-13.7139168,-250.1374054,169.0992432,166.6030579
3720,-15.5143480,4.6590929,-11.2407198,-250.1374054,162.3893127,205.9236603
3730,-13.4122496,4.1227942,-9.0907373,-250.1374054,159.0458069,239.0305328
3740,-11.2000179,3.4715748,-6.8904772,-250.1374054,157.1832123,250.1297760
3750,-8.5209198,2.8490853,-4.8865409,-250.1374054,150.3358765,250.1297760
3760,-5.5473371,2.3702476,-3.2920105,-250.1374054,138.7633514,250.1297760
3770,-2.9592183,1.6807210,-1.9273225,-250.1374054,125.9465637,250.1297760
3780,-0.2657550,0.6153067,-0.9145803,-250.1374054,104.9694672,250.1297760
3790,2.4516499,-0.4165890,0.1053443,-250.1374054,70.9847336,250.1297760
3800,5.9375896,-0.8451489,2.3678534,-250.1374054,15.7938929,250.1297760
3810,9.7658987,-0.8355721,6.3948798,-250.1374054,-69.0076370,239.3893127
3820,14.8272152,0.0718257,11.6956158,-250.1374054,-165.0992432,187.0992432
3830,19.6126022,2.0422437,17.4680061,-235.8778687,-245.4045868,118.7709961
3840,19.6126022,3.5505829,19.6126022,-158.2290039,-250.1374054,37.6793900
3850,19.6126022,4.4077029,19.6126022,-72.5190811,-250.1374054,-47.9007645
3860,19.6126022,4.8027439,19.6126022,12.0916033,-202.6259613,-128.3206177
3870,19.6126022,4.4172797,19.6126022,97.5190811,-143.5343475,-191.2442780
3880,15.1360655,3.4955165,19.6126022,175.1068726,-102.4351120,-225.4198456
3890,11.1329813,2.4564383,19.6126022,243.1068726,-93.4656525,-243.4198456
3900,8.4083929,2.1858950,15.6292686,250.1297760,-96.0000000,-250.1374054
3910,6.2248926,2.1930776,11.0779142,250.1297760,-95.3511429,-250.1374054
3920,5.0445571,2.3894010,7.0460997,250.1297760,-78.0457993,-250.1374054
3930,4.4460096,2.2337787,3.6487448,250.1297760,-45.5190849,-250.1374054
3940,4.2616572,2.0206959,0.3447633,250.1297760,-2.1603053,-250.1374054
3950,3.1363883,1.2162483,-2.4779861,250.1297760,39.9541969,-250.1374054
3960,1.8171898,0.5410868,-4.1539187,250.1297760,60.5114517,-250.1374054
3970,-0.0742199,-0.3136388,-6.2991123,250.1297760,68.1450348,-250.1374054
3980,-3.2776453,-1.0438666,-8.5496502,250.1297760,61.9007645,-250.1374054
3990,-7.7691450,-0.9672526,-11.2526903,250.1297760,42.5648842,-250.1374054
4000,-13.2853575,0.7062859,-14.6620159,250.1297760,12.5114508,-250.1374054
4010,-19.5485573,2.7652888,-19.1583042,212.7175598,-10.9770994,-250.1374054
4020,-19.6131992,4.9559722,-19.6131992,135.2519073,-22.2595425,-182.0305328
4030,-19.6131992,6.3493905,-19.6131992,39.2977104,-11.0610685,-93.3816757
4040,-19.6131992,6.0022330,-19.6131992,-64.1526718,34.9083977,-5.0687022
4050,-19.6131992,5.7173243,-19.6131992,-150.4580078,84.8396912,68.7099228
4060,-18.4328651,5.3462253,-17.7577038,-211.2595367,118.3358765,123.0763321
4070,-15.5742025,4.9176650,-14.3866844,-250.1374054,130.0381622,158.3129730
4080,-13.5559006,4.5322008,-11.3987360,-250.1374054,115.7709961,182.4122162
4090,-11.6620970,4.4029145,-9.1410151,-250.1374054,78.3740463,199.8015289
4100,-10.0101061,4.5154414,-7.8673067,-250.1374054,32.9847336,215.8015289
4110,-8.1546097,4.0988522,-7.1059542,-250.1374054,2.7786260,232.1603088
4120,-6.3637557,3.6439564,-6.5074067,-250.1374054,-7.7633586,247.9541931
4130,-4.8745699,3.0932927,-5.5952206,-250.1374054,-2.9007633,250.1297760
4140,-3.2489152,1.9919657,-4.3670015,-250.1374054,9.2977095,250.1297760
4150,-1.7860653,1.2138541,-2.7844424,-250.1374054,15.2442751,250.1297760
4160,-0.2681492,0.0143651,-0.5219333,-250.1374054,10.0152674,250.1297760
4170,1.7980363,-1.1899122,2.3103929,-250.1374054,-8.2442751,250.1297760
4180,5.1546898,-1.7908537,5.5569139,-250.1374054,-44.6106873,250.1297760
4190,9.8233595,-0.8978211,10.2231894,-250.1374054,-98.0610657,250.1297760
4200,14.6356802,0.8499373,15.7346134,-250.1374054,-151.5190887,211.7099304
4210,18.8087521,2.4181314,19.6126022,-195.0229034,-177.7786255,151.0610657
4220,19.6126022,3.9216824,19.6126022,-118.3511429,-156.7328186,81.9618301
4230,19.6126022,4.8649931,19.6126022,-35.6793900,-106.5954208,4.9007635
4240,19.6126022,4.9344244,19.6126022,49.1450386,-60.6412201,-71.6793900
4250,18.1311970,4.2640514,19.6126022,135.0534363,-54.9160309,-134.5496216
4260,14.4632988,3.5721307,19.6126022,211.4580078,-83.9312973,-179.2137451
4270,11.4825325,3.0621684,16.0314922,250.1297760,-116.7328262,-209.9770966
4280,9.0524302,3.1723011,11.5615406,250.1297760,-135.2442780,-231.1374054
4290,7.1729918,3.5362179,7.7954807,250.1297760,-136.2824402,-246.7022858
4300,5.7867560,3.7708483,4.7692256,250.1297760,-118.4580154,-250.1374054
4310,4.6614871,4.0078731,1.1635761,250.1297760,-84.4274826,-250.1374054
4320,3.6439564,3.8809812,-2.2625091,250.1297760,-29.2595425,-250.1374054
4330,1.9392935,3.8833754,-4.9440012,250.1297760,21.0076332,-250.1374054
4340,0.2513899,3.8426740,-6.7899213,250.1297760,56.2671738,-250.1374054
4350,-1.2880739,3.4763632,-8.1953106,227.6946564,78.0381699,-250.1374054
4360,-2.9328821,3.2369442,-9.2128410,201.9084015,94.0687027,-250.1374054
4370,-5.5593081,2.9233053,-10.3309278,181.1068726,106.1832047,-250.1374054
4380,-9.4450769,3.0813217,-11.8751793,159.4198456,102.6412201,-250.1374054
4390,-14.1161413,4.0030847,-12.6389265,136.2748108,73.7251892,-229.5190887
4400,-18.2389355,4.9799142,-14.1448717,108.8167953,28.5877857,-181.7709961
4410,-19.6131992,5.7388721,-15.3946381,74.6870193,-21.3893127,-121.2671738
4420,-19.6131992,6.1937680,-16.5558205,26.4427490,-43.2748108,-49.6335869
4430,-19.6131992,6.1698260,-16.5055428,-31.8854961,-20.6488552,20.1832066
4440,-19.6131992,5.9160423,-14.6979294,-88.7557220,19.8931293,83.7938919
4450,-17.3602676,5.6550756,-11.6716738,-128.2748108,44.6870232,133.3587799
4460,-15.1312771,5.1834202,-9.4690189,-148.0992432,48.7557259,170.7251892
4470,-12.7346935,4.9703374,-8.0277176,-157.8931274,37.7557259,200.2824402
4480,-10.1609402,4.9032998,-7.2017217,-163.4809113,21.5267181,223.2977142
4490,-8.0157461,4.8625989,-6.9383612,-169.4274750,13.2061071,241.0610657
4500,-6.6079631,4.7476778,-7.0772243,-179.2595367,4.0305343,250.1297760
4510,-5.1953912,4.7093706,-6.5648675,-190.2519073,-18.7251911,250.1297760
4520,-3.5577655,4.3478479,-5.5353661,-200.7709961,-39.4732819,250.1297760
4530,-1.8363433,3.9312592,-4.4484038,-212.4198456,-46.1679382,250.1297760
4540,0.0454896,3.1507533,-3.0334380,-225.6641235,-41.5801544,250.1297760
4550,2.5809362,2.3032103,-0.3567342,-235.2061005,-46.0534363,250.1297760
4560,5.8250628,1.9153515,3.3853838,-230.4503784,-71.1908417,250.1297760
4570,10.0915089,2.6407909,7.7763271,-206.8244324,-115.9618301,250.1297760
4580,14.6787758,4.1611013,13.1848011,-162.4580078,-170.3740387,250.0229034
4590,19.6126022,6.1889796,17.6571465,-99.3587799,-209.0458069,189.8015289
4600,19.6126022,8.3365679,19.6126022,-28.3893127,-198.2824402,105.0152664
4610,19.6126022,9.2655134,19.6126022,47.3816795,-145.7251892,5.2595420
4620,19.6126022,8.4706421,17.5661678,113.8473282,-93.3129807,-90.7480927
4630,19.6126022,7.0724359,14.5734310,171.9160309,-91.7633591,-158.0992432
4640,16.1919041,5.9687142,10.6110477,217.4961853,-109.8854980,-198.9084015
4650,13.3428183,6.1123657,6.2248926,244.2977142,-108.8396912,-223.2595367
4660,11.0013008,6.2512288,1.6352314,247.4045868,-75.4732819,-238.1832123
4670,8.9925756,6.5792327,-2.7748656,227.9923706,-19.9007626,-247.7251892
4680,7.1203194,6.8928714,-5.6311336,193.4885559,30.0076332,-250.1374054
4690,5.8801293,6.9335728,-6.8330169,156.9389343,69.6717529,-250.1374054
4700,4.6207857,6.2871413,-7.0269461,131.0076294,98.5572510,-250.1374054
4710,2.8586621,5.5617023,-6.9694853,118.2977066,108.7557220,-250.1374054
4720,0.8331779,4.5657191,-7.0365229,114.6717529,102.4961853,-250.1374054
4730,-2.3463056,3.5050933,-7.6398587,116.4732819,87.3664093,-250.1374054
4740,-7.4315639,2.5857246,-8.8273764,118.2671738,58.5648842,-250.1374054
4750,-13.1824074,2.6479735,-10.6278067,115.0076370,17.0000000,-250.1374054
4760,-18.1551380,3.3207407,-13.1249466,98.2900772,-22.5496178,-250.1374054
4770,-19.6131992,3.9623835,-16.1679611,59.1450386,-32.9694672,-192.1068726
4780,-19.6131992,4.6638808,-17.5948982,-0.0076336,-17.7480907,-116.3893127
4790,-19.6131992,4.9368186,-17.3052006,-66.7633591,17.4732819,-40.0228996
4800,-19.6131992,4.5920553,-15.6915178,-129.0152740,67.7022934,25.9312973
4810,-19.6131992,4.1611013,-12.4521790,-175.6717529,105.3816757,81.8091583
4820,-18.2245693,3.8618276,-9.2080526,-199.2366486,117.3816757,125.1984711
4830,-16.1679611,4.0030847,-6.7875271,-205.5114441,104.2900772,158.6641235
4840,-14.8918581,4.1299767,-5.4994531,-203.5877838,79.1984711,187.1221313
4850,-13.4050665,3.8115497,-4.6902170,-198.4351196,45.1984749,218.0381622
4860,-11.1832590,3.7804251,-4.4124913,-196.1374054,17.4503822,248.8320618
4870,-8.7842808,3.5242469,-4.1563129,-198.3587799,4.8702292,250.1297760
4880,-6.2344694,2.8251436,-3.7229645,-205.4427490,4.5572519,250.1297760
4890,-3.5912843,2.1116750,-3.1914546,-215.7175598,4.9312978,250.1297760
4900,-0.2106887,1.4317253,-2.2289903,-225.1374054,-3.0152671,250.1297760
4910,3.5721307,1.0127422,-0.8882443,-231.2977142,-15.7022905,250.1297760
4920,7.4124107,1.1109039,0.9600700,-231.9084015,-35.0152664,250.1297760
4930,11.8296900,1.6687500,3.9767487,-224.5419922,-65.9083939,250.1297760
4940,17.1950684,2.8849983,8.2312231,-202.4656525,-112.7938919,250.1297760
4950,19.6126022,4.9894910,12.5120344,-160.8091583,-154.6106873,184.4732819
4960,19.6126022,6.8282285,15.3419657,-108.9007645,-151.3740387,97.3282471
4970,19.6126022,7.7475972,16.6060982,-55.0992355,-104.9694672,8.2977095
4980,19.6126022,7.4435349,17.5565910,-2.0992367,-56.2213745,-71.9923630
4990,19.6126022,6.7899213,17.3746338,57.1374054,-42.4732819,-132.4351196
5000,17.4392757,5.9256191,15.0546637,114.3816757,-59.7709923,-173.1908417
5010,14.8176384,5.3366485,12.4186611,164.1068726,-83.0610657,-201.8473358
5020,13.1177645,5.3581958,9.1003141,198.2824402,-88.4732819,-228.8167877
5030,11.0803089,5.3438311,5.5640965,213.6488495,-74.6870193,-250.1374054
5040,8.7555504,5.2025738,2.7174051,212.2824402,-49.7328262,-250.1374054
5050,6.8210459,5.0182209,0.5602403,203.7099304,-10.5648851,-250.1374054
5060,5.0301919,4.7261300,-0.4932030,195.0686951,30.5267181,-250.1374054
5070,3.0478032,4.1443419,-1.1994889,192.1679382,52.1984749,-250.1374054
5080,1.2593436,2.9735832,-1.8722562,195.2824402,55.0152664,-250.1374054
5090,-1.0390782,1.7956421,-2.9640064,201.9389343,48.3587799,-250.1374054
5100,-4.1898317,0.8690908,-4.0318151,208.7480927,29.3969460,-250.1374054
5110,-8.4682484,0.4548960,-5.4563580,215.8473358,-10.9389315,-250.1374054
5120,-13.9437590,0.2585725,-7.3980455,218.0000000,-70.1297684,-250.1374054
5130,-18.2652721,1.1827296,-9.8161764,207.7709961,-138.5419922,-250.1374054
5140,-19.6131992,3.1483591,-12.9549589,177.4656525,-175.3129730,-225.7404633
5150,-19.6131992,4.6710634,-15.1097298,123.1221390,-158.3282471,-148.9160309
5160,-19.6131992,4.4364328,-15.3347836,55.0839691,-106.3740463,-69.4122162
5170,-19.6131992,4.6351509,-14.7218714,-13.4656487,-21.9236641,2.7938931
5180,-19.6131992,4.5800843,-12.5048513,-71.1221390,53.6641235,63.3587799
5190,-19.1439381,4.4771342,-9.7898407,-107.9618301,94.1908417,111.7862625
5200,-17.4344883,4.5513539,-7.8840661,-127.2671738,103.6106873,151.8549652
5210,-15.1025467,4.8218975,-6.6845770,-136.8396912,95.0381699,186.2900696
5220,-12.8951044,5.2456689,-6.0788469,-141.5038147,84.4045792,214.4427490
5230,-11.1042509,5.5688848,-6.0572991,-150.1068726,80.3511429,238.3587799
5240,-9.5145092,5.6167684,-5.8873119,-165.8015289,80.1450348,250.1297760
5250,-8.0947542,5.2313042,-5.0852585,-182.5725250,85.8778610,250.1297760
5260,-6.3206601,4.7620430,-4.3622131,-197.9923706,98.0305328,250.1297760
5270,-4.2353210,4.0964580,-3.9288650,-215.3893127,114.1908417,250.1297760
5280,-1.8985922,3.3853838,-3.3207407,-234.9313049,134.3129730,250.1297760
5290,-0.1173153,2.7341642,-2.5881188,-250.1374054,156.3511505,250.1297760
5300,1.2904681,1.8171898,-1.2354017,-250.1374054,173.5954132,250.1297760
5310,3.1220231,0.7086801,1.3838415,-250.1374054,168.1221313,250.1297760
5320,6.0453281,0.3543400,5.5257893,-250.1374054,130.2595367,250.1297760
5330,10.4314833,0.8595140,10.1346035,-250.1374054,62.9923668,250.1297760
5340,16.3259773,2.4755919,14.7266598,-205.4274750,-20.7251911,234.0839691
5350,19.6126022,4.6399393,18.6890430,-134.3435059,-97.2366409,156.0458069
5360,19.6126022,6.5217719,19.6126022,-55.0763359,-131.8778687,64.4198456
5370,19.6126022,7.2807302,19.6126022,23.2977104,-124.0534363,-36.8320618
5380,19.6126022,7.0652533,19.6126022,94.6183243,-100.2366409,-132.5190887
5390,19.6126022,6.0596933,17.3123837,161.0839691,-94.2519073,-209.2137451
5400,16.6659527,4.9703374,13.8408089,217.3893127,-108.5419846,-250.1374054
5410,13.5319586,4.1778607,10.0891142,250.1297760,-128.3511505,-250.1374054
5420,11.5687237,3.7947903,6.3015065,250.1297760,-141.2213745,-250.1374054
5430,9.8975792,3.0693510,2.3439114,250.1297760,-137.4427490,-250.1374054
5440,8.1067257,2.1835008,-0.8619082,250.1297760,-126.5038147,-250.1374054
5450,6.1674318,1.1085097,-2.7461352,250.1297760,-114.9618301,-250.1374054
5460,3.1555417,-0.4572902,-3.8307030,250.1297760,-100.4274826,-250.1374054
5470,-0.6200951,-2.2888451,-4.2065907,248.9313049,-76.3358765,-250.1374054
5480,-6.0285692,-3.8378856,-5.3893204,231.7633514,-39.9465637,-250.1374054
5490,-13.7354650,-4.1084290,-7.6518297,210.3664093,-2.9770992,-250.1374054
5500,-19.6131992,-2.7605004,-10.0125008,180.7328186,11.8244276,-250.1374054
5510,-19.6131992,-1.4436963,-12.5958309,143.5343475,-6.8473282,-250.1374054
5520,-19.6131992,0.2274480,-15.2031031,96.8625946,-54.8167953,-137.7099304
5530,-19.6131992,1.7286048,-17.4751892,38.4732819,-78.3129807,0.8702290
5540,-19.6131992,2.0470319,-17.6834831,-31.4351139,-35.3816795,113.1068726
5550,-19.6131992,1.6041069,-16.1847210,-103.2519073,44.5419846,192.4122162
5560,-17.2381649,1.6950861,-13.8384151,-164.9541931,113.9312973,240.0763397
5570,-13.9796724,2.1044924,-10.4530315,-206.3664093,150.4656525,250.1297760
5580,-12.2151546,2.8059900,-7.4674768,-225.7404633,151.6870270,250.1297760
5590,-11.5160513,3.1411765,-5.2313042,-227.5496216,127.8396912,250.1297760
5600,-10.7570934,3.1746953,-4.2281384,-222.0229034,94.8625946,250.1297760
5610,-9.3660688,3.0693510,-3.9144998,-219.0458069,66.4732819,250.1297760
5620,-7.0580707,2.7150109,-4.1180058,-224.5877838,54.6183205,250.1297760
5630,-4.6423335,1.9967541,-4.2113791,-238.8091583,60.4580154,250.1297760
5640,-2.1499822,1.1037214,-3.6607156,-250.1374054,79.4045792,250.1297760
5650,0.1580165,-0.2418131,-2.7772598,-250.1374054,110.4580154,250.1297760
5660,2.8035958,-1.3311694,-0.2705434,-250.1374054,122.5572510,250.1297760
5670,6.4116392,-1.7717001,3.5529771,-250.1374054,98.9007645,250.1297760
5680,10.9653873,-0.8738791,8.3078375,-250.1374054,31.7022896,250.1297760
5690,17.3243542,1.9009864,13.4912577,-232.2061005,-70.1450348,250.1297760
5700,19.6126022,5.2863703,17.9851513,-157.4198456,-161.8244324,204.1755676
5710,19.6126022,8.1474266,19.6126022,-77.0381699,-187.2595367,95.6183243
5720,19.6126022,8.9470863,19.6126022,-3.8549619,-148.2290039,-22.5190830
5730,19.6126022,8.2719250,19.5581341,64.9465637,-86.8854980,-132.9770966
5740,19.6126022,7.2879128,17.2022514,130.1145020,-62.6183205,-212.9694672
5750,16.5199070,5.8298512,14.4321737,188.5496216,-77.2900772,-250.1374054
5760,12.4545736,4.8003497,10.4458485,235.9389343,-102.1450348,-250.1374054
5770,9.8808203,4.5082588,6.1339135,250.1297760,-116.4656525,-250.1374054
5780,8.2336178,4.3670015,2.0135133,250.1297760,-111.9847336,-250.1374054
5790,6.7731619,4.1754665,-1.4604555,250.1297760,-91.9389343,-250.1374054
5800,5.1762376,3.7253587,-3.5290353,229.0610657,-61.2290077,-250.1374054
5810,3.1435707,2.7652888,-4.2736282,204.4122162,-30.3740463,-250.1374054
5820,1.0055596,1.5753766,-4.2927818,185.8549652,-2.6335878,-250.1374054
5830,-1.9560528,0.2370248,-4.4148855,175.2748108,21.7251911,-250.1374054
5840,-5.9136481,-0.6296718,-4.6950054,169.1603088,36.7709923,-250.1374054
5850,-10.9941177,-1.1252691,-5.0469513,164.5725250,32.2442741,-250.1374054
5860,-16.9652271,-0.9265513,-5.7580256,160.2977142,12.1145039,-250.1374054
5870,-19.6131992,-0.0766141,-7.1298962,153.6793823,-24.6793900,-250.1374054
5880,-19.6131992,1.2832855,-9.4091644,138.8702240,-69.5496216,-202.6641235
5890,-19.6131992,2.6623387,-12.6006193,107.0457993,-89.4045792,-109.6488571
5900,-19.6131992,3.3135581,-14.9948082,54.0381660,-60.9923668,-21.1068707
5910,-19.6131992,3.6511390,-15.4233685,-8.1679392,0.5954198,58.9083977
5920,-19.6131992,4.0389977,-14.5375185,-62.9312973,59.9771004,122.1450348
5930,-18.4927197,4.1204000,-12.7897596,-105.9618301,96.2595444,171.4427490
5940,-16.2014809,4.3981261,-10.8217363,-134.1374054,97.8549652,208.0534363
5950,-14.0730457,4.6303625,-9.5384512,-149.6335907,87.4503784,237.6717529
5960,-12.4952745,4.7309184,-9.0500364,-160.7175598,72.8702316,250.1297760
5970,-10.7379398,4.8889351,-9.0476418,-178.1984711,62.1679382,250.1297760
5980,-8.8465300,4.4244623,-8.3245964,-197.5038147,52.4045792,250.1297760
5990,-6.7013364,3.7804251,-7.7643566,-217.1526642,53.2900772,250.1297760
6000,-4.5944495,3.1387823,-6.6917596,-238.8702240,64.5954208,250.1297760
6010,-2.7581062,2.3079987,-5.5042415,-250.1374054,83.4503784,250.1297760
6020,-1.2952565,1.1372399,-3.6702924,-250.1374054,99.8091583,250.1297760
6030,0.7421987,0.0622489,-0.9672526,-250.1374054,103.3969498,250.1297760
6040,3.4452386,-0.6440369,2.1499822,-250.1374054,89.1526718,250.1297760
6050,6.1578555,-0.6248835,5.3797436,-250.1374054,60.3740463,250.1297760
6060,10.0795374,-0.1963235,8.9183559,-250.1374054,13.3664122,250.1297760
6070,16.3259773,1.4915800,13.2805691,-221.7480927,-62.4045792,250.1297760
6080,19.6126022,4.4795284,17.9276905,-154.7175598,-141.8931274,189.1145020
6090,19.6126022,6.6702118,19.6126022,-77.7786255,-166.8244324,89.8702316
6100,19.6126022,6.6941538,19.6126022,-3.7404580,-130.1679382,-13.2748089
6110,19.6126022,6.3637557,18.7967815,61.2061081,-78.1908417,-100.6335907
6120,19.6126022,5.7867560,15.9716377,116.9007645,-58.2213745,-171.1068726
6130,17.2285881,4.5681133,13.7330704,163.4274750,-70.7175598,-221.1145020
6140,13.6133614,4.0389977,10.8073711,204.7938995,-91.4045792,-250.1374054
6150,11.5280218,4.0701222,7.6135225,234.3740387,-98.9618301,-250.1374054
6160,10.3620520,4.4986820,4.4053087,247.6641235,-87.0229034,-250.1374054
6170,9.0093346,4.3861551,1.5370697,246.4656525,-58.2137413,-250.1374054
6180,7.4124107,3.9887197,-0.6919208,236.7786255,-22.4045811,-250.1374054
6190,5.8346395,3.2991931,-2.0949159,225.1832123,10.4961834,-250.1374054
6200,4.3382711,2.3223639,-2.4109488,216.8167877,32.4656487,-250.1374054
6210,2.3917952,0.8188128,-2.6383967,214.9084015,43.3282433,-250.1374054
6220,-0.1268920,-0.7613522,-3.4284792,218.3664093,49.3511467,-250.1374054
6230,-3.9863255,-2.0590029,-4.6279683,221.0458069,50.3587799,-250.1374054
6240,-9.0428534,-2.4803803,-5.9375896,219.2366486,42.7404594,-250.1374054
6250,-15.9907913,-2.3510940,-7.9032192,210.9618378,19.6717548,-250.1374054
6260,-19.6131992,-1.2042773,-9.6222477,197.4885559,-26.3358784,-250.1374054
6270,-19.6131992,0.6153067,-12.7179346,172.6946564,-75.6412201,-224.5648804
6280,-19.6131992,1.9033806,-16.8574886,123.3816757,-91.6641235,-120.7404556
6290,-19.6131992,2.7557120,-19.3618107,49.8320618,-52.8015251,-17.2137413
6300,-19.6131992,2.8490853,-18.9404335,-28.6488552,23.5572510,72.9236679
6310,-19.6131992,2.6623387,-16.8167858,-99.7557220,96.2671738,140.5648804
6320,-18.4472294,2.6431851,-13.4050665,-148.1221313,131.4351196,186.1450348
6330,-15.9022064,3.0549858,-10.4362717,-170.9618378,132.3740387,216.7175598
6340,-14.4202032,3.4308734,-8.8393478,-175.7557220,110.5190811,237.9847260
6350,-13.2135315,3.7564833,-8.1977043,-174.3282471,74.1297684,250.1297760
6360,-11.6836443,3.9121056,-8.0708122,-173.0381622,37.2061081,250.1297760
6370,-9.5695753,4.0437860,-8.4778252,-178.3969421,6.9770994,250.1297760
6380,-7.5321202,3.8211265,-9.0883436,-192.6335907,2.2442749,250.1297760
6390,-6.0046272,3.1890604,-9.1745338,-218.6870270,21.9389305,250.1297760
6400,-4.5058646,2.0757623,-8.4131813,-250.1374054,49.1908379,250.1297760
6410,-2.9735832,0.8451489,-6.8497758,-250.1374054,82.0381699,250.1297760
6420,-1.8100072,-0.4501076,-4.5848727,-250.1374054,114.4732819,250.1297760
6430,-0.6655847,-1.7549409,-2.2265961,-250.1374054,146.9160309,250.1297760
6440,0.3327923,-2.9807658,0.3591284,-250.1374054,177.5725250,250.1297760
6450,2.3295465,-4.1060348,3.8953462,-250.1374054,192.6717529,250.1297760
6460,5.6335278,-4.1658897,8.9782104,-250.1374054,165.0534363,250.1297760
6470,9.3660688,-3.1962428,13.8934813,-250.1374054,103.9847336,250.1297760
6480,13.7402534,-1.8650736,17.7624912,-250.1374054,41.3587799,250.1297760
6490,18.8398762,0.2059003,19.6126022,-200.8854980,-22.6106873,250.1297760
6500,19.6126022,2.5043221,19.6126022,-112.0000000,-85.8091583,168.1297760
6510,19.6126022,3.4763632,19.6126022,-12.0610685,-133.5114441,60.6946564
6520,19.6126022,3.0262554,19.6126022,82.2290039,-154.7175598,-50.1297722
6530,19.6126022,2.3391230,19.6126022,157.8320618,-157.6412201,-144.0763397
6540,19.6126022,2.0159075,15.5335016,208.5877838,-163.4198456,-201.5419922
6550,17.6308117,1.8147956,12.1241751,241.1984711,-172.1374054,-233.6412201
6560,16.1296539,2.2050486,8.5424681,250.1297760,-169.6793823,-250.1374054
6570,14.7601776,2.8778157,5.2959471,250.1297760,-149.8854980,-250.1374054
6580,12.9836893,3.4045374,2.6072724,250.1297760,-111.7480927,-250.1374054
6590,11.2670555,3.6678982,0.7685348,250.1297760,-64.6106873,-250.1374054
6600,9.3900108,3.6631098,-0.3280039,241.6870270,-16.6030540,-250.1374054
6610,7.4842362,3.2249732,-1.4006008,234.7175598,20.1374054,-250.1374054
6620,5.6550756,2.2505381,-2.4301023,232.5496216,40.8473282,-250.1374054
6630,3.7349355,0.8140244,-2.8921809,234.9694672,40.3740463,-250.1374054
6640,1.6926919,-0.9792235,-3.5864959,243.2137451,30.5343513,-250.1374054
6650,-1.8698620,-2.7509236,-4.5537481,250.1297760,8.4809160,-250.1374054
6660,-5.9663200,-3.1938488,-5.8992829,250.1297760,-23.5496178,-250.1374054
6670,-11.4083128,-3.0286496,-8.0037756,250.1297760,-48.0610695,-250.1374054
6680,-19.4910965,-1.9847831,-10.9462337,237.7786255,-62.2519073,-250.1374054
6690,-19.6131992,-0.1125269,-13.6732159,205.0076294,-93.1221390,-250.1374054
6700,-19.6131992,2.7820482,-17.1232433,158.3816833,-122.2900772,-189.7099304
6710,-19.6131992,4.2616572,-19.6131992,82.1832047,-92.7404556,-76.5419846
6720,-19.6131992,4.0844874,-19.6131992,-22.5267181,2.3282442,18.8625946
6730,-19.6131992,3.7133877,-19.6131992,-118.2137375,101.5648880,94.9389343
6740,-19.0242290,3.0310438,-16.9053726,-185.1526642,166.1526642,145.2137451
6750,-16.4576588,3.0310438,-12.7945480,-221.7633514,182.0152740,175.5343475
6760,-14.6045561,3.3805954,-9.5576038,-232.9923706,163.6641235,196.6030579
6770,-13.0986109,3.8977404,-7.6829538,-229.4351196,130.4198456,214.3664093
6780,-11.3891592,4.3478479,-7.1059542,-223.6564941,99.7862625,231.5954132
6790,-9.6653433,4.7548604,-7.1849627,-223.4885559,80.4045792,250.1297760
6800,-8.0923605,4.9727316,-7.8697009,-233.4885559,84.8167953,250.1297760
6810,-6.6127515,4.4723458,-7.8433647,-250.1374054,103.3511429,250.1297760
6820,-4.7261300,3.5769191,-7.7236552,-250.1374054,125.6030502,250.1297760
6830,-2.6767037,2.5976956,-6.8713236,-250.1374054,147.5954132,250.1297760
6840,-0.8523315,1.5370697,-4.8242917,-250.1374054,168.8625946,250.1297760
6850,0.5099624,0.0000000,-2.4301023,-250.1374054,198.1297760,250.1297760
6860,2.1356170,-1.0486550,0.5889706,-250.1374054,222.5801544,250.1297760
6870,3.6702924,-1.4820032,4.7452836,-250.1374054,217.1908417,250.1297760
6880,5.4372044,-0.9217629,9.8281479,-250.1374054,188.5343475,250.1297760
6890,6.6678176,0.1939293,14.1879663,-250.1374054,170.2900696,250.1297760
6900,6.2440462,0.9959828,17.1088772,-250.1374054,173.7480927,231.0458069
6910,4.0318151,1.0678085,18.5046902,-248.8320618,200.9236603,216.0076294
6920,2.0446377,0.9073978,19.6126022,-206.0915985,235.5267181,216.6335907
6930,3.8426740,-0.2274480,19.6126022,-161.5114441,234.3282471,217.0915985
6940,7.3812861,-0.0861908,19.6126022,-85.3206100,165.9084015,201.7709961
6950,11.1473465,-1.1252691,19.6126022,32.0228996,97.7175598,166.5038147
6960,13.2326851,-1.7932479,19.6126022,165.5725250,66.8244247,125.7938919
6970,13.0698805,-2.1811066,19.6126022,250.1297760,49.2366409,95.1297684
6980,12.8017311,-3.0693510,19.6126022,250.1297760,36.6030540,72.4274826
6990,12.2654324,-2.4109488,14.9924145,250.1297760,8.7328243,43.6335869
7000,12.1002331,-0.5339043,8.8752604,250.1297760,11.5496187,19.7557259
7010,11.4394369,0.1244979,3.5362179,250.1297760,52.8167953,5.7175574
7020,10.3093796,1.8100072,-0.5099624,250.1297760,97.6717529,1.0992366
7030,9.6174593,3.2752512,-3.1627243,250.1297760,137.6564941,3.0458016
7040,9.8281479,4.9894910,-5.8681583,250.1297760,148.8778687,2.2061069
7050,9.2966375,6.8186517,-8.5903521,250.1297760,122.0000000,-11.0152674
7060,8.2192526,7.6877422,-9.7156210,234.2519073,67.0916061,-34.2748108
7070,7.3693151,8.3772688,-10.1681223,203.5648804,-8.3969469,-57.2213745
7080,6.1626434,9.3445215,-10.6397781,179.0076294,-105.0992355,-80.2824402
7090,5.0900469,9.1505919,-9.8736372,161.9313049,-182.9923706,-106.0687027
7100,3.0573800,9.2200232,-8.6238708,153.1526642,-230.9465637,-121.6717529
7110,-0.2322364,8.7842808,-9.7180147,147.8015289,-231.8015289,-115.4198456
7120,-3.4069316,8.9877872,-12.8424320,131.2213745,-210.0839691,-87.1755753
7130,-4.1826491,9.8520899,-15.5670195,98.4122162,-185.4656525,-51.8167953
7140,-4.2018023,10.0172882,-18.0306416,46.0534363,-154.2900696,-22.0916023
7150,-3.5481887,10.2974091,-19.5174332,-14.8625956,-131.1297760,4.1526718
7160,-2.4540441,9.9574337,-19.2444954,-76.2748108,-115.7099228,23.2442741
7170,-0.9768293,9.1338329,-17.9444504,-131.7022858,-104.2824402,38.2061081
7180,0.3782819,8.4921904,-16.6037045,-181.7557220,-95.2748108,49.3129768
7190,1.3934183,7.5321202,-14.7362356,-225.5572510,-82.8854980,57.2519073
7200,1.7214222,6.5241661,-12.3276815,-250.1374054,-61.5877876,64.4809189
7210,2.0949159,5.4204450,-9.3924055,-250.1374054,-31.7404575,72.4198456
7220,1.8195840,4.3789725,-6.5361371,-250.1374054,5.8778625,82.0152664
7230,1.7477583,3.1244173,-4.4747400,-250.1374054,36.7251892,91.8473282
7240,2.1523764,1.8650736,-2.2672975,-250.1374054,41.8320618,100.0916061
7250,3.6295912,1.1444225,0.5434810,-250.1374054,6.5572519,96.3282471
7260,5.5162125,0.7685348,3.6511390,-250.1374054,-57.1221390,88.9847336
7270,7.0101867,0.3639168,7.6733770,-250.1374054,-126.2671738,78.6412201
7280,8.7435799,0.8810617,12.5287933,-250.1374054,-166.5572510,66.2519073
7290,10.5176744,1.3503228,17.6715126,-250.1374054,-175.9236603,53.8396950
7300,12.0834742,2.2936335,19.6126022,-207.3511505,-147.6641235,37.8320618
7310,13.4314032,2.8993635,19.6126022,-129.8549652,-93.6335907,14.4274807
7320,13.1177645,2.3439114,19.6126022,-36.5419846,-31.0305347,-10.5954199
7330,11.6261835,1.3168042,19.6126022,58.7022896,25.2595425,-29.6259537
7340,10.2878323,0.4189832,19.6126022,156.8015289,9.6183205,-42.8702278
7350,10.0723553,-0.8331779,19.6126022,250.1297760,-47.6564903,-58.1679382
7360,11.2024126,-1.2210367,18.6555233,250.1297760,-103.7480927,-75.9160309
7370,12.7993364,0.1795642,11.5136566,250.1297760,-146.6717529,-106.1679382
7380,12.5383701,1.5466464,6.2967181,250.1297760,-171.0763397,-143.5572510
7390,11.9063044,2.3151813,2.6599445,250.1297760,-165.5572510,-175.0610657
7400,11.4370432,2.5258698,-0.3136388,250.1297760,-131.7251892,-202.1832123
7410,10.6828737,3.0262554,-1.8411317,250.1297760,-97.0534363,-235.1145020
7420,9.2319946,2.8993635,-1.6902977,250.1297760,-73.0534363,-250.1374054
7430,7.6254935,2.1020982,-1.6232605,250.1297760,-50.1450386,-250.1374054
7440,6.1291251,0.6105183,-2.2696917,250.1297760,-35.2519073,-250.1374054
7450,4.0629396,-1.1156923,-3.6032550,250.1297760,-34.1679382,-250.1374054
7460,1.5681942,-2.9903426,-5.2791877,250.1297760,-46.7480927,-250.1374054
7470,-5.0541339,-4.5226240,-9.3445215,250.1297760,-75.8931274,-250.1374054
7480,-15.0331154,-4.3741841,-13.2494440,250.1297760,-164.4198456,-250.1374054
7490,-19.6131992,-2.1906834,-16.0243092,250.1297760,-250.1374054,-250.1374054
7500,-19.6131992,1.6304430,-19.6131992,250.1297760,-250.1374054,-234.1984711
7510,-19.6131992,4.2640514,-19.6131992,250.1297760,-250.1374054,-154.7786255
7520,-19.6131992,4.9368186,-19.6131992,126.4809189,-233.6412201,-76.0839691
7530,-19.6131992,4.1227942,-19.6131992,-23.4274807,-25.4503822,7.1221375
7540,-19.6131992,3.4572096,-19.6131992,-148.4656525,143.7099304,80.6946564
7550,-19.6131992,2.7126167,-19.3426571,-222.0534363,215.1068726,135.2061005
7560,-17.7122135,2.6336083,-14.0562859,-249.6106873,205.7099304,176.0534363
7570,-15.2150736,2.6288199,-10.3524752,-249.2977142,152.8473358,210.9923706
7580,-11.0228481,2.9400647,-9.0045462,-238.0381622,91.4656525,238.1984711
7590,-6.9407554,3.5817075,-8.9853926,-229.0381622,49.7557259,250.1297760
7600,-3.8785870,3.7038112,-9.1912937,-229.9389343,21.2671757,250.1297760
7610,-1.1923064,4.0294209,-9.1649570,-241.9084015,10.1374044,250.1297760
7620,0.7134684,3.7445123,-9.0428534,-250.1374054,18.5190830,250.1297760
7630,2.5354466,3.3207407,-8.3605099,-250.1374054,42.3206100,250.1297760
7640,4.0030847,2.6024840,-7.1897511,-250.1374054,76.9083939,250.1297760
7650,4.8195033,1.1204807,-4.6543045,-250.1374054,106.0763321,250.1297760
7660,6.0213866,-0.4668669,-1.5897418,-250.1374054,108.7480927,250.1297760
7670,8.2384062,-1.3790531,2.8945751,-250.1374054,65.5267181,245.0992432
7680,11.7554703,-0.3399749,8.8177996,-250.1374054,-18.0839691,211.1832123
7690,16.6228580,1.8459201,15.5670195,-250.1374054,-121.5038147,160.0152740
7700,19.6126022,4.1778607,19.6126022,-215.3129730,-208.7404633,92.9007645
7710,19.6126022,5.6766233,19.6126022,-118.3511429,-236.7633514,12.7099237
7720,19.6126022,6.3709383,19.6126022,-22.6717548,-206.0381622,-68.9465637
7730,19.6126022,6.1650376,19.6126022,56.9694672,-148.0610657,-139.4503784
7740,18.5238438,5.0206151,19.6126022,126.5038147,-106.9465637,-192.6183167
7750,14.5925846,3.8761928,17.1256371,186.8091583,-99.2748108,-228.1679382
7760,11.6309719,2.8251436,12.6197729,233.6412201,-91.4809189,-250.1374054
7770,9.4522600,2.7868366,7.8529415,250.1297760,-80.9618301,-250.1374054
7780,8.2575598,2.9185169,3.5793133,250.1297760,-63.0916023,-250.1374054
7790,7.5704269,2.9256995,0.0383070,250.1297760,-45.7709923,-250.1374054
7800,7.2280579,2.8658447,-2.1044924,250.1297760,-33.8320618,-250.1374054
7810,7.0460997,1.7884595,-3.8522508,250.1297760,-20.9007626,-250.1374054
7820,5.6981707,-0.0311245,-4.7141590,250.1297760,-14.2519083,-250.1374054
7830,0.2513899,-2.9424589,-6.2033448,250.1297760,-17.5190830,-250.1374054
7840,-8.8345594,-4.4867110,-8.2838955,250.1297760,-63.1603050,-250.1374054
7850,-18.1742916,-3.5864959,-10.8361015,250.1297760,-153.3740387,-250.1374054
7860,-19.6131992,-0.4716553,-14.8008795,250.1297760,-240.4274750,-250.1374054
7870,-19.6131992,2.7030399,-19.6131992,185.5114441,-244.1221313,-250.1374054
7880,-19.6131992,3.5864959,-19.6131992,69.8015289,-139.9236603,-175.9847260
7890,-19.6131992,3.6008608,-19.6131992,-43.4732819,14.4809160,-83.8778610
7900,-19.6131992,3.3039815,-17.6739063,-123.9923630,135.6946564,-0.3664122
7910,-19.6131992,3.0597742,-15.0163565,-172.9694672,175.8702240,69.6259537
7920,-19.6131992,2.8945751,-12.9118633,-203.7251892,153.7099304,131.0763397
7930,-18.3418846,3.0837159,-11.0635490,-221.1297760,103.8702316,182.0000000
7940,-14.1400833,3.1938488,-10.0460186,-234.2595367,72.5267181,218.3969421
7950,-11.2981796,3.3518653,-9.1242561,-250.1374054,60.8549614,242.9389343
7960,-10.1346035,3.2848279,-7.8816719,-250.1374054,59.5725174,250.1297760
7970,-9.2224178,2.8012016,-6.2248926,-250.1374054,64.6030502,250.1297760
7980,-8.0899658,2.0278785,-4.8075323,-250.1374054,74.0381699,250.1297760
7990,-6.6151457,1.0893562,-3.5362179,-250.1374054,85.2595444,250.1297760
8000,-5.1690550,-0.2346306,-2.3894010,-250.1374054,100.0992355,250.1297760
8010,-3.5745249,-1.6567791,-1.0869620,-250.1374054,116.9083939,250.1297760
8020,-1.8171898,-2.9879484,0.1699875,-250.1374054,142.5801544,250.1297760
8030,-0.3327923,-4.2257442,1.5155219,-250.1374054,177.2213745,250.1297760
8040,1.1204807,-5.5784616,3.4045374,-250.1374054,209.4274750,250.1297760
8050,2.9568241,-5.8561873,6.6678176,-250.1374054,215.3969421,250.1297760
8060,5.3222833,-5.1187773,10.9079275,-250.1374054,194.2824402,250.1297760
8070,8.1234846,-4.0868812,15.2988710,-250.1374054,161.3969421,250.1297760
8080,13.1129761,-2.3606708,19.6126022,-250.1374054,111.0534363,250.1297760
8090,19.6126022,0.0694315,19.6126022,-236.6564941,28.9770985,221.4274750
8100,19.6126022,2.5019281,19.6126022,-119.6412201,-66.1068726,117.6183243
8110,19.6126022,3.5888901,19.6126022,16.8549614,-135.8320618,-2.7633588
8120,19.6126022,2.0757623,19.6126022,146.6412201,-167.8167877,-110.8244247
8130,19.6126022,1.2090657,19.6126022,243.1984711,-191.6946564,-190.7862549
8140,16.7425671,0.8427547,17.5589848,250.1297760,-230.0992432,-239.7328186
8150,14.2837343,0.7302278,13.1249466,250.1297760,-250.1374054,-250.1374054
8160,12.6892042,1.0414724,8.8944139,250.1297760,-250.1374054,-250.1374054
8170,11.3101511,2.0063307,5.7628140,250.1297760,-250.1374054,-250.1374054
8180,10.4171181,2.8059900,2.9879484,250.1297760,-216.6412201,-250.1374054
8190,9.1266499,3.2273674,0.8475431,250.1297760,-168.2137451,-250.1374054
8200,7.1753860,3.1100521,-0.8379663,250.1297760,-114.7557220,-250.1374054
8210,5.5593081,2.8203552,-2.5067163,250.1297760,-75.0839691,-250.1374054
8220,4.5465660,2.4013720,-3.8307030,240.7480927,-50.3358765,-250.1374054
8230,3.6415622,1.3000449,-4.6495161,226.7480927,-30.1145039,-250.1374054
8240,1.9488702,-0.2968795,-5.0014620,218.6793823,-14.4351149,-250.1374054
8250,-1.0845678,-1.8339491,-5.2241216,215.0076294,-4.1603055,-250.1374054
8260,-5.3246775,-3.0621684,-5.6215568,213.1145020,1.1374046,-250.1374054
8270,-11.0491848,-3.2177906,-6.8473821,209.1221313,-3.0687022,-250.1374054
8280,-17.5134964,-2.1404054,-8.3365679,198.8396912,-19.9694653,-250.1374054
8290,-19.6131992,-0.7996593,-10.4578199,177.0076294,-38.2442741,-250.1374054
8300,-19.6131992,0.5147507,-13.2590208,140.2595367,-43.7404594,-250.1374054
8310,-19.6131992,1.6304430,-16.1847210,84.7633591,-44.8931313,-148.6946564
8320,-19.6131992,2.1380112,-17.5637741,19.0381680,-32.2977104,-35.6030540
8330,-19.6131992,2.4061604,-17.0514164,-44.9541969,5.6717558,62.5572510
8340,-19.6131992,2.4803803,-15.5718079,-101.9465637,53.9541969,134.0839691
8350,-18.3538570,2.5905130,-13.3547888,-146.0610657,89.8702316,180.9694672
8360,-15.5382900,2.9472473,-10.8480721,-175.8854980,106.8854980,211.7022858
8370,-14.3938665,3.2273674,-8.9327211,-193.1984711,112.8015289,233.2748108
8380,-14.0251617,3.3303175,-7.2543941,-202.7404633,105.3282471,250.1297760
8390,-13.6947641,3.3470769,-6.0453281,-206.1297760,88.1603088,250.1297760
8400,-12.4833040,3.1675127,-5.5305777,-210.5877838,74.4732819,250.1297760
8410,-11.0132713,2.5976956,-4.7261300,-220.0076294,70.0839691,250.1297760
8420,-8.5711985,1.3622938,-3.8330972,-232.3206177,69.4122162,250.1297760
8430,-5.4300218,0.4596844,-3.3782012,-245.0305328,80.0916061,250.1297760
8440,-2.0374553,-0.1628049,-3.3231349,-250.1374054,100.9923630,250.1297760
8450,0.2729376,-1.0390782,-3.0334380,-250.1374054,127.2748108,250.1297760
8460,2.5019281,-1.5514348,-1.4556671,-250.1374054,140.3053436,250.1297760
8470,3.9647777,-2.0685797,0.8092360,-250.1374054,138.9236603,250.1297760
8480,6.0692701,-2.8873925,3.7900019,-250.1374054,121.3358765,250.1297760
8490,11.3005743,-1.9895715,8.0109577,-250.1374054,62.2366409,250.1297760
8500,18.6842537,0.4381367,13.4936514,-250.1374054,-38.3740463,250.1297760
8510,19.6126022,3.0597742,18.1144371,-193.1984711,-130.7251892,194.8854980
8520,19.6126022,5.2600341,19.6126022,-109.0000000,-170.9770966,83.0687027
8530,19.6126022,6.1003947,19.6126022,-27.3664131,-170.1755676,-34.0381660
8540,19.6126022,5.7676024,19.6126022,51.0992355,-151.5267181,-136.6030579
8550,19.6126022,5.1642666,19.2492828,120.1908417,-143.8778687,-212.1755676
8560,19.2301292,4.1227942,16.1368370,178.1603088,-169.5419922,-250.1374054
8570,16.7880573,3.5936785,12.4449968,223.9007568,-203.4580078,-250.1374054
8580,14.5231533,3.2824337,8.4131813,250.1297760,-223.0381622,-250.1374054
8590,12.5096397,3.3494711,4.5848727,250.1297760,-225.0915985,-250.1374054
8600,10.8241301,3.4452386,1.2880739,247.4122162,-210.1221313,-250.1374054
8610,8.6933022,3.4859397,-0.7469871,222.3282471,-175.3282471,-250.1374054
8620,6.3446021,3.1962428,-2.2122312,191.9389343,-122.0076370,-250.1374054
8630,4.3717899,2.9496415,-3.1962428,161.6106873,-54.6870232,-250.1374054
8640,3.3159523,2.6934631,-3.1363883,135.1984711,1.3358779,-250.1374054
8650,2.4109488,1.8363433,-2.9903426,118.0152664,36.1603050,-250.1374054
8660,0.8188128,0.3256098,-2.7796540,113.4809189,60.1374054,-250.1374054
8670,-2.0063307,-1.4029950,-2.9927368,118.7328262,75.3206100,-250.1374054
8680,-6.8066807,-3.0358322,-3.7923961,130.6183167,70.7022934,-250.1374054
8690,-13.0483322,-3.4524212,-4.8003497,143.0458069,33.3587799,-250.1374054
8700,-19.6131992,-2.8754215,-6.3733325,148.6870270,-22.5038166,-250.1374054
8710,-19.6131992,-1.9584470,-9.0763721,138.9541931,-81.9312973,-250.1374054
8720,-19.6131992,-1.0486550,-11.7961712,107.9007645,-120.8320618,-220.4961853
8730,-19.6131992,-0.1268920,-14.1903610,56.3511467,-107.4274826,-103.2748108
8740,-19.6131992,0.0814024,-14.3675308,-8.7099237,-40.8320618,10.8167934
8750,-19.6131992,0.4788379,-13.0124197,-71.9007645,37.3206100,105.4198456
8760,-19.6131992,0.8044477,-10.3596573,-114.8625946,87.3358765,169.3893127
8770,-19.6131992,1.3191984,-7.6254935,-135.4198456,99.8854980,208.0305328
8780,-18.0904961,1.9081690,-5.6622581,-136.7633514,78.2213745,232.6488495
8790,-17.3219604,2.5138988,-4.9176650,-125.6488571,37.2748108,250.1297760
8800,-16.0985298,2.8347204,-5.4707227,-113.7786255,-6.8854961,250.1297760
8810,-14.4585104,3.1603301,-6.6151457,-109.6717529,-28.7480907,250.1297760
8820,-12.4090843,3.1675127,-7.8816719,-122.8167953,-23.2748089,250.1297760
8830,-10.2160063,2.7102225,-8.4490948,-150.0305328,-1.7862595,250.1297760
8840,-7.9702568,1.7812769,-8.0181408,-182.2366486,29.0000000,250.1297760
8850,-5.6502872,0.7541697,-6.9455438,-215.4656525,62.7328262,250.1297760
8860,-2.5929072,-0.2466015,-5.5880380,-245.4809113,85.6412201,250.1297760
8870,0.9169745,-1.1731528,-4.3119354,-250.1374054,98.8320618,250.1297760
8880,4.5872669,-1.8722562,-1.8578910,-250.1374054,96.4198456,250.1297760
8890,8.1402445,-1.8339491,1.7669119,-250.1374054,85.1374054,250.1297760
8900,11.7243462,-0.9050036,6.5672617,-250.1374054,67.1526718,250.1297760
8910,14.1544485,-0.0526722,11.2526903,-250.1374054,47.7938919,250.1297760
8920,16.7689037,1.0031654,15.2677460,-234.6717529,25.7022896,250.1297760
8930,19.6126022,2.6240315,19.6126022,-174.0763397,-24.9236641,212.9618378
8940,19.6126022,4.7788019,19.6126022,-86.8625946,-92.4732819,121.4503784
8950,19.6126022,5.2480631,19.6126022,13.8320608,-126.6717529,8.5648851
8960,19.6126022,4.2903876,19.6126022,104.1145020,-127.2213745,-100.5877838
8970,19.6126022,4.3909435,15.6388454,166.2595367,-139.8473358,-176.7251892
8980,19.4863071,3.8905578,12.2486734,200.8625946,-160.0610657,-224.5190887
8990,16.9987450,3.8546450,8.8393478,221.9770966,-155.3969421,-250.1374054
9000,15.3802729,4.2951760,5.6981707,231.7404633,-129.1679382,-250.1374054
9010,13.9653072,4.4484038,3.1148405,230.3969421,-92.8396912,-250.1374054
9020,12.1672707,4.4819226,1.0654143,221.6793823,-50.9160309,-250.1374054
9030,10.3788109,4.1108232,-0.6248835,210.0839691,-8.9541988,-250.1374054
9040,8.4610653,3.6008608,-1.8818330,198.8854980,24.8549614,-250.1374054
9050,6.6989422,2.6575503,-2.6455793,190.5267181,50.2900772,-250.1374054
9060,4.7476778,1.1109039,-2.9592183,187.1068726,65.6335907,-250.1374054
9070,2.4540441,-0.9959828,-3.2369442,189.7709961,74.1145020,-250.1374054
9080,-0.9648584,-3.2944047,-3.6367738,198.8167877,72.8091583,-250.1374054
9090,-6.7109132,-5.2887645,-4.7452836,209.1832123,54.2137413,-250.1374054
9100,-15.5646257,-6.1123657,-6.2871413,218.6259613,5.6717558,-250.1374054
9110,-19.6131992,-4.7716198,-8.5400734,221.2366486,-80.1068726,-250.1374054
9120,-19.6131992,-2.5976956,-12.7346935,203.1374054,-155.1526642,-250.1374054
9130,-19.6131992,-1.0007712,-17.8271351,142.4885559,-158.3740387,-193.7480927
9140,-19.6131992,0.3375807,-19.6131992,41.8091621,-86.8244247,-68.2671738
9150,-19.6131992,0.5769997,-17.6308117,-59.1450386,28.3511448,43.0458031
9160,-19.6131992,0.4189832,-13.2015610,-126.9083939,128.4580078,128.4580078
9170,-19.6131992,0.6895266,-8.8800488,-156.9007568,155.7480927,185.8167877
9180,-19.1247845,1.4604555,-5.9208307,-157.6946564,126.2977066,218.2977142
9190,-15.6532106,2.4420733,-4.1994085,-140.0915985,73.2290039,237.7480927
9200,-13.1895895,3.3087699,-3.7349355,-116.6335907,25.8320618,250.1297760
9210,-11.0420017,4.1706781,-4.6207857,-100.4045792,-14.1526718,250.1297760
9220,-9.3205795,4.5848727,-5.8106980,-94.7328262,-40.6870232,250.1297760
9230,-8.1019373,4.6638808,-6.9551206,-99.9312973,-52.9694672,250.1297760
9240,-6.3206601,4.5633249,-7.9319496,-115.6106873,-49.4656487,250.1297760
9250,-4.4364328,4.0581512,-8.7172441,-141.2290039,-30.0916023,250.1297760
9260,-2.2744799,3.4021432,-8.7603388,-176.6488495,1.8473282,250.1297760
9270,-0.2873027,2.5115047,-7.8313937,-216.8091583,44.3358765,250.1297760
9280,1.1539993,1.3168042,-5.9160423,-250.1374054,90.4732819,250.1297760
9290,2.3103929,-0.0670373,-3.1483591,-250.1374054,132.6412201,250.1297760
9300,4.3837609,-1.6424140,-0.1221037,-250.1374054,163.3969421,250.1297760
9310,8.0037756,-1.6639616,4.6088147,-250.1374054,157.8244324,250.1297760
9320,11.4322548,-1.0223188,9.1984758,-250.1374054,124.1603088,250.1297760
9330,14.7218714,-0.1077385,13.6133614,-250.1374054,87.3893127,250.1297760
9340,18.6028519,1.2761030,17.4105453,-229.1145020,49.3740463,246.4961853
9350,19.6126022,3.1076579,19.6126022,-156.5038147,2.7938931,168.4580078
9360,19.6126022,4.5657191,19.6126022,-70.9465637,-45.5877876,74.7938919
9370,19.6126022,4.6950054,19.6126022,22.3587780,-82.5114517,-27.3893127
9380,19.6126022,4.1658897,19.6126022,105.0305328,-99.3816757,-113.0610657
9390,19.6126022,3.8929520,16.7784805,166.9618378,-119.5496216,-172.8778687
9400,18.5693340,3.6559272,13.3116932,210.7480927,-137.2977142,-213.7099304
9410,16.4432926,3.4715748,9.7563219,240.9236603,-137.0610657,-246.3511505
9420,14.3507719,3.5170643,6.1171541,250.1297760,-118.7633591,-250.1374054
9430,12.3659887,3.6918402,3.0071020,250.1297760,-86.7786255,-250.1374054
9440,10.5200682,3.8163381,0.7781116,250.1297760,-56.3587799,-250.1374054
9450,8.5879574,3.4835455,-0.7972651,237.2519073,-28.3206100,-250.1374054
9460,6.7875271,3.0980811,-2.0278785,224.5343475,0.7404580,-250.1374054
9470,4.9559722,2.4037662,-2.9137285,214.8320618,27.6717548,-250.1374054
9480,3.2944047,1.2952565,-3.2728570,208.7862549,43.2213745,-250.1374054
9490,1.4149660,-0.0646431,-3.7852135,207.6030579,50.4732819,-250.1374054
9500,-0.8978211,-1.3814473,-4.1611013,210.2824402,49.7099228,-250.1374054
9510,-4.0749106,-2.5546002,-4.6878228,216.7099304,35.7099228,-250.1374054
9520,-8.6717539,-3.0980811,-5.3055239,223.5648804,13.7022905,-250.1374054
9530,-14.3866844,-2.6336083,-6.7994981,224.8015289,-18.1374054,-250.1374054
9540,-19.6131992,-1.3431402,-9.0763721,214.9007568,-58.6870232,-250.1374054
9550,-19.6131992,0.4237715,-11.8847561,187.8702240,-86.5648880,-250.1374054
9560,-19.6131992,1.7956421,-15.3276005,139.5648804,-82.6183243,-184.8091583
9570,-19.6131992,2.5019281,-17.5901108,71.5648880,-44.1450386,-93.8167953
9580,-19.6131992,2.4516499,-17.6930599,-0.7099237,16.2442741,-7.4045801
9590,-19.6131992,2.4348907,-15.8950233,-64.2061081,72.2366409,63.7786255
9600,-18.3921642,2.5785420,-13.3859129,-105.9083939,100.1755753,109.1679382
9610,-15.8830528,2.8514795,-10.9893293,-129.1450348,103.7251892,135.2900696
9620,-14.9924145,3.1387823,-9.0308828,-137.8320618,85.6335907,153.6717529
9630,-14.4178085,3.3111639,-7.7045016,-136.1908417,57.5877876,172.4732819
9640,-13.2685976,3.7397239,-7.4267755,-132.7022858,30.8625946,192.5114441
9650,-11.8847561,4.2041965,-7.3022780,-134.3816833,8.1908398,211.0152740
9660,-10.4338779,4.4340386,-7.3070664,-141.1679382,-2.4198472,228.8931274
9670,-9.1194677,4.3765783,-7.2927012,-152.1832123,-0.6564885,247.6030579
9680,-7.9271612,4.2544746,-7.1753860,-167.6641235,10.2213745,250.1297760
9690,-6.5505023,4.0006905,-6.5720501,-186.4656525,26.0763359,250.1297760
9700,-5.2815819,3.6846576,-5.6694407,-205.5572510,42.1526718,250.1297760
9710,-4.0413918,3.2321558,-4.5489597,-222.6870270,58.7022896,250.1297760
9720,-3.0047078,2.8562679,-3.5721307,-238.2290039,76.6030502,250.1297760
9730,-2.0781565,2.1164634,-2.6144550,-250.1374054,93.9007645,250.1297760
9740,-0.9337339,1.4484847,-1.8411317,-250.1374054,106.1450348,250.1297760
9750,0.5865764,0.8762733,-0.9050036,-250.1374054,114.8473282,250.1297760
9760,1.9153515,0.2801202,0.4548960,-250.1374054,117.1450348,250.1297760
9770,3.2130022,0.2394189,2.1619530,-250.1374054,117.0839691,250.1297760
9780,4.3574247,0.3351865,4.0389977,-250.1374054,114.7175598,250.1297760
9790,5.5138183,0.3543400,6.0165982,-250.1374054,105.9923630,250.1297760
9800,6.3805151,0.2944853,8.1210909,-250.1374054,94.1755753,250.1297760
9810,8.1426382,-0.0287303,9.9382801,-250.1374054,72.9923630,250.1297760
9820,11.5088692,0.3782819,12.2678270,-220.6106873,30.5496178,250.1297760
9830,15.7729197,1.4006008,14.7266598,-177.0305328,-28.6870232,206.6488495
9840,19.6126022,2.4157372,17.2094345,-124.8244247,-87.8702316,139.4503784
9850,19.6126022,3.4811516,19.0122585,-63.0763359,-134.7709961,54.6870232
9860,19.6126022,3.6224086,19.3163204,2.2977099,-156.0000000,-37.7251892
9870,19.6126022,3.6726866,17.7696743,60.6183205,-163.2977142,-109.5114517
9880,19.1966114,3.8139439,15.8591108,107.1297684,-166.7938995,-151.4809113
9890,16.4456882,3.7660601,13.8455973,145.0763397,-169.0839691,-173.5267181
9900,14.6500454,3.9025288,11.3819771,172.3893127,-165.7557220,-186.8244324
9910,13.3260584,4.3167233,9.2343884,191.4503784,-157.9923706,-200.2748108
9920,11.8823624,4.3526363,7.2735476,203.1832123,-145.6946564,-216.7557220
9930,10.4530315,4.5633249,4.9655490,210.1068726,-115.6793900,-233.4045868
9940,9.3756456,4.7740140,3.2441268,214.3206177,-72.3816757,-248.7099304
9950,8.2791071,4.7285242,1.5442522,216.7328186,-29.1145039,-250.1374054
9960,7.0891948,4.5657191,-0.0335187,218.0458069,5.2519083,-250.1374054
9970,6.0285692,4.5681133,-1.7070571,219.4274750,22.4122143,-250.1374054
9980,5.2767935,4.3741841,-3.2417326,220.6564941,28.9007626,-250.1374054
9990,4.4436154,3.9073172,-3.8211265,222.0534363,19.8702297,-250.1374054
