timestamp,acclX,acclY,acclZ,gyroX,gyroY,gyroZ
0,5.3581958,2.1763182,7.6350703,80.2442780,-126.0839691,-25.1297703
10,5.6167684,2.4444675,7.1562324,77.1603088,-121.2748108,-24.5496178
20,5.7747850,2.6767037,6.7444315,73.1832047,-115.7786255,-24.4656487
30,6.0333576,2.8658447,6.5145893,68.2366409,-110.0916061,-23.9541988
40,6.1554613,2.9496415,6.3230543,62.6870232,-103.4732819,-22.8396950
50,6.3446021,3.1387823,6.2320752,57.7251892,-96.7251892,-21.9083977
60,6.5361371,3.2417326,6.2177100,53.0763359,-90.6564865,-21.2366409
70,6.6797886,3.3614421,6.1650376,49.2595406,-85.4503784,-20.4503822
80,6.8234401,3.3614421,6.1123657,45.8549614,-79.8167953,-19.4503822
90,6.8234401,3.4548154,6.0596933,42.4045792,-74.0992355,-18.0152664
100,6.8401995,3.5793133,6.0237808,39.0610695,-68.1145020,-16.4809170
110,6.7899213,3.6415622,5.8585815,35.2748108,-61.5877876,-14.8778629
120,6.7707677,3.7947903,5.7915444,31.5572510,-54.4274826,-12.6183205
130,6.8593526,3.8043671,5.7292953,27.4045811,-46.8396950,-10.6412210
140,6.7971039,3.8139439,5.7484488,23.3587780,-39.6335869,-8.2290077
150,6.8330169,3.8594334,5.7652082,20.0916023,-33.5954208,-6.0763359
160,6.8761120,3.8857694,5.7963328,16.8854961,-28.4503822,-4.0916033
170,6.9479380,3.9528067,5.7484488,13.9236641,-23.7099228,-2.4580152
180,7.0245519,3.9168940,5.8178802,11.0839691,-19.0076332,-1.0992366
190,7.1227136,3.9025288,5.9112539,6.0916033,-11.0305347,0.9618320
200,7.0652533,3.8450682,5.8825235,4.1068702,-7.0229006,1.8320611
210,7.0580707,3.9001346,5.9735026,2.3740458,-3.8854961,2.9770992
220,7.0532823,3.8594334,5.9184365,0.8396947,-0.9465649,4.1984735
230,6.9407554,3.8330972,5.9902620,-0.7099237,1.8320611,5.4427481
240,6.8904772,3.8235207,6.0237808,-2.1374047,3.0458016,6.0610685
250,6.7923155,3.7085996,6.1410961,-3.1984732,3.5343511,7.0839696
260,6.7324610,3.6655040,6.1865854,-3.8778627,3.5496182,8.3206110
270,6.6055689,3.6248028,6.2177100,-4.6488547,3.1984732,10.6106873
280,6.5098009,3.6319854,6.1339135,-5.3740458,3.4045801,13.2900763
290,6.6103573,3.6655040,6.0046272,-7.2366414,6.3893127,16.0381680
300,6.6965480,3.7708483,6.3661499,-10.1068707,13.1679392,19.8702297
310,6.5241661,3.2967989,6.7875271,0.5419847,25.2519093,37.0687027
320,6.5935979,3.2656744,6.6486640,1.1297710,29.0763359,41.7557259
330,6.7085190,3.1387823,6.5624733,1.3358779,33.0839691,45.9083977
340,6.8497758,3.0166788,6.4810710,0.5648855,36.6259537,49.2366409
350,6.4523406,2.6647329,7.0844064,-11.8702288,-5.7099237,41.8854980
360,6.0836353,2.5474176,7.3836803,-12.7480917,-24.9160309,42.8778610
370,5.4348102,2.3822186,7.6733770,-12.0839691,-43.9312973,47.3435097
380,5.0349803,2.2361729,7.7499914,-11.6946564,-61.9312973,54.7557259
390,4.6136031,2.1260402,8.0516596,-11.2824430,-85.7251892,64.8473282
400,4.2855992,1.8339491,8.5376797,-9.9083967,-117.5038147,76.8015289
410,4.0078731,1.6711442,9.1697454,-6.3129773,-156.3206177,90.7862625
420,3.8115497,1.3287752,10.3141680,2.5648854,-205.7251892,106.1450348
430,4.0078731,0.8595140,11.6501255,19.6488552,-250.1374054,122.6793900
440,6.3541789,0.9672526,12.7753954,43.4580154,-250.1374054,137.5114441
450,10.6613255,0.0454896,14.9756546,67.4198456,-250.1374054,151.4427490
460,18.1575336,0.7445929,17.8247414,105.6106873,-250.1374054,139.7938995
470,19.6126022,0.4716553,18.4927197,160.5648804,-244.0076294,101.2061081
480,19.6126022,1.0318956,16.2254219,215.0305328,-215.7786255,42.3129768
490,19.6126022,2.3463056,11.3700056,250.1297760,-191.8854980,-36.8091621
500,19.6126022,3.3207407,5.0732875,250.1297760,-170.7022858,-111.7404556
510,19.6126022,3.9552009,0.1508339,234.9847260,-154.4809113,-176.3129730
520,19.6126022,4.0988522,-2.5665710,201.5725250,-155.2900696,-234.8854980
530,19.6126022,3.9025288,-3.1244173,172.4656525,-182.4198456,-250.1374054
540,19.3809643,3.8809812,-4.0150557,153.0000000,-224.6106873,-250.1374054
550,15.2653522,3.9432299,-6.2943239,131.7557220,-250.1374054,-250.1374054
560,11.7004042,4.9248476,-9.6366129,99.3358765,-250.1374054,-250.1374054
570,8.8225880,5.6742291,-12.6676559,46.4045792,-250.1374054,-250.1374054
580,5.8777351,5.9184365,-15.6675758,-18.6335869,-250.1374054,-250.1374054
590,4.0988522,5.8346395,-17.2333755,-92.3664093,-250.1374054,-250.1374054
600,4.3191175,5.0445571,-16.9341011,-165.3664093,-250.1374054,-250.1374054
610,5.8250628,3.7732425,-14.8439751,-230.6259613,-250.1374054,-233.0534363
620,7.6350703,2.2984219,-11.7004042,-250.1374054,-250.1374054,-222.1450348
630,7.9199786,0.6823440,-8.0492649,-250.1374054,-237.1679382,-219.3816833
640,7.1514440,-1.0630201,-4.7309184,-250.1374054,-195.4503784,-216.8549652
650,6.0070214,-2.2625091,-1.9847831,-250.1374054,-159.2061005,-214.1603088
660,4.7764082,-3.0621684,0.3567342,-250.1374054,-134.0839691,-211.1068726
670,3.6487448,-3.6990228,2.2433555,-250.1374054,-126.7786255,-209.0610657
680,3.6104376,-4.4555864,4.0270267,-250.1374054,-143.3816833,-209.4961853
690,4.5752959,-5.4108682,6.1746144,-250.1374054,-169.3435059,-212.0534363
700,6.5145893,-6.6175399,9.3277617,-250.1374054,-188.3587799,-215.6717529
710,8.9829988,-7.8768835,13.5702658,-250.1374054,-194.0610657,-220.2977142
720,11.7243462,-8.4634600,18.7800217,-250.1374054,-194.0458069,-230.3206177
730,13.8958759,-8.3820572,19.6126022,-190.5267181,-189.3893127,-245.3053436
740,14.9421368,-8.1258793,19.6126022,-104.6488571,-165.5572510,-250.1374054
750,14.2454271,-7.9295554,19.6126022,-2.0992367,-119.9923630,-250.1374054
760,12.3420467,-7.6925306,19.6126022,98.5114517,-66.2900772,-250.1374054
770,10.0388365,-7.3381906,19.6126022,180.1908417,-27.9541988,-250.1374054
780,8.3820572,-7.0915890,15.9955797,235.9389343,8.5725193,-250.1374054
790,8.2192526,-6.8904772,10.0125008,250.1297760,55.7175560,-250.1374054
800,8.7962523,-5.7316895,5.1211715,250.1297760,110.7404556,-250.1374054
810,9.3349447,-4.7548604,2.5617826,250.1297760,165.5648804,-250.1374054
820,9.2894554,-4.2185616,1.5634058,250.1297760,198.2977142,-250.1374054
830,8.1857338,-5.5808558,-2.2050486,250.1297760,199.5343475,-250.1374054
840,6.4116392,-8.0756006,-6.3661499,250.1297760,166.8702240,-250.1374054
850,-1.0869620,-10.3213511,-10.2614956,250.1297760,102.5190811,-250.1374054
860,-19.6131992,-11.0156660,-17.2644997,250.1297760,-47.6717567,-250.1374054
870,-19.6131992,-8.0205345,-19.6131992,250.1297760,-250.1374054,-250.1374054
880,-19.6131992,-5.6335278,-19.6131992,250.1297760,-250.1374054,-250.1374054
890,-19.6131992,-0.2106887,-19.6131992,250.1297760,-250.1374054,-225.1374054
900,-19.6131992,4.1970143,-19.6131992,141.7404633,-250.1374054,-84.2442780
910,-19.6131992,3.7995787,-19.6131992,-28.4198475,-125.1755753,34.8167953
920,-19.6131992,1.8219782,-19.6131992,-178.5419922,123.3816757,135.7251892
930,-19.6131992,-0.0311245,-13.5080166,-250.1374054,238.7251892,217.9541931
940,-19.6131992,-1.2449785,-6.8713236,-250.1374054,217.3053436,250.1297760
950,-19.6131992,-1.3862357,-3.6367738,-242.0000000,132.4809113,250.1297760
960,-19.6131992,-1.1204807,-2.7317703,-215.6870270,67.0763321,250.1297760
970,-15.2414103,-1.2856797,-2.4971397,-202.0229034,51.4198456,250.1297760
980,-10.5775290,-1.6735384,-2.1906834,-201.4122162,72.2213745,250.1297760
990,-6.0237808,-2.1284344,-2.7557120,-212.3969421,111.4732819,250.1297760
1000,-2.1332228,-3.2345500,-3.3279233,-238.5954132,154.3053436,250.1297760
1010,2.0350611,-4.7596488,-2.7365584,-250.1374054,180.5496216,250.1297760
1020,6.8162575,-6.1051831,-1.0678085,-250.1374054,178.2213745,250.1297760
1030,12.7921543,-6.3661499,1.9799947,-250.1374054,136.6488495,250.1297760
1040,19.6126022,-4.6734576,6.5864153,-250.1374054,54.1908379,250.1297760
1050,19.6126022,-1.5969244,13.0172081,-250.1374054,-39.5496178,250.1297760
1060,19.6126022,2.3367288,19.6126022,-238.6870270,-102.3740463,182.2137451
1070,19.6126022,5.0732875,19.6126022,-152.0076294,-90.1526718,2.7786260
1080,19.6126022,1.8914096,19.6126022,-52.4961815,-39.2213745,-155.4885559
1090,19.6126022,-1.1492109,19.6126022,44.1755714,-29.8625946,-250.1374054
1100,16.5103302,-2.5713594,18.9595871,119.7709961,-80.4045792,-250.1374054
1110,12.3540173,-2.6168492,15.5574427,175.1221313,-132.9770966,-250.1374054
1120,10.3859940,-1.6543850,11.3364868,212.8320618,-138.9770966,-250.1374054
1130,9.2511482,-0.5698171,7.5704269,230.7709961,-96.4198456,-250.1374054
1140,8.0372944,-0.0550664,4.9535780,235.5572510,-33.6412201,-250.1374054
1150,6.9311786,-0.2585725,2.6862805,238.3435059,33.3282433,-250.1374054
1160,5.0325861,-0.9457048,0.3256098,244.0839691,91.0916061,-250.1374054
1170,1.9608412,-2.1092808,-2.7126167,250.1297760,116.0457993,-250.1374054
1180,-3.1962428,-3.4835455,-5.8633699,250.1297760,89.7022934,-250.1374054
1190,-12.5431585,-4.6495161,-8.8537130,250.1297760,6.7862597,-250.1374054
1200,-19.6131992,-4.4268565,-12.2534618,250.1297760,-139.3587799,-250.1374054
1210,-19.6131992,-1.8195840,-15.8854465,250.1297760,-250.1374054,-250.1374054
1220,-19.6131992,2.1020982,-19.2325230,207.2366486,-250.1374054,-250.1374054
1230,-19.6131992,5.1020179,-19.6131992,105.7938919,-250.1374054,-225.6793823
1240,-19.6131992,4.6016321,-19.6131992,-20.5267181,-181.2137451,-117.6335907
1250,-19.6131992,2.8419030,-16.2948532,-142.1908417,26.7404575,1.0458015
1260,-19.6131992,1.6855093,-8.3150196,-206.6946564,139.6793823,105.8625946
1270,-19.6131992,1.4748207,-2.4660151,-210.2977142,134.9618378,189.1526642
1280,-19.6131992,1.8171898,0.0311245,-180.8167877,65.0305328,250.1297760
1290,-19.6131992,2.1308286,0.1484398,-145.5725250,-3.4122138,250.1297760
1300,-17.6092644,2.3774302,-1.4772149,-124.6488571,-33.0534363,250.1297760
1310,-13.6133614,2.4660151,-3.3973548,-124.0763321,-25.1679382,250.1297760
1320,-10.6182299,2.0326669,-4.9583664,-143.0000000,4.8778625,250.1297760
1330,-8.2886839,0.9528874,-5.6502872,-177.1755676,43.2442741,250.1297760
1340,-5.2791877,-0.5458752,-5.2791877,-219.8702240,88.3206100,250.1297760
1350,-1.3670821,-2.3223639,-3.9599893,-250.1374054,132.4580078,250.1297760
1360,3.2656744,-4.1251884,-1.7525467,-250.1374054,165.0915985,250.1297760
1370,9.2631187,-5.0756817,2.1044924,-250.1374054,160.3282471,250.1297760
1380,17.0346584,-4.3286943,7.6398587,-250.1374054,115.8396912,250.1297760
1390,19.6126022,-2.0135133,14.5447006,-250.1374054,47.7862587,250.1297760
1400,19.6126022,1.9488702,19.6126022,-250.1374054,-7.3587785,222.1526642
1410,19.6126022,4.1874375,19.6126022,-161.3129730,-31.1145039,64.4045792
1420,19.6126022,3.2130022,19.6126022,-59.0305328,-42.0763359,-84.5190811
1430,19.6126022,1.5107336,19.6126022,45.1145020,-66.3893127,-197.6106873
1440,19.6126022,0.3112446,19.6126022,136.9160309,-103.7022934,-250.1374054
1450,16.5773678,-0.3016679,17.5374374,202.6335907,-127.7786255,-250.1374054
1460,12.8591919,0.0359128,12.3348637,237.6641235,-116.1145020,-250.1374054
1470,10.4937325,0.2968795,8.8608952,250.1297760,-72.5496216,-250.1374054
1480,7.5177550,0.3303981,5.7939386,250.1297760,-14.8015270,-250.1374054
1490,5.7364779,0.3495516,3.3901722,250.1297760,37.7251892,-250.1374054
1500,4.1682839,-0.0909792,1.8076130,249.6030579,74.3740463,-250.1374054
1510,1.7166338,-1.6184721,0.6248835,250.1297760,94.4427490,-250.1374054
1520,-1.7669119,-3.3111639,-0.9983770,250.1297760,82.4580154,-250.1374054
1530,-7.2519999,-4.9847026,-2.7533178,250.1297760,34.7328262,-250.1374054
1540,-14.7098999,-5.9495606,-4.9440012,250.1297760,-54.9312973,-250.1374054
1550,-19.6131992,-4.6423335,-8.0756006,250.1297760,-167.5038147,-250.1374054
1560,-19.6131992,-2.0063307,-11.7027979,250.1297760,-250.1374054,-250.1374054
1570,-19.6131992,0.2489957,-14.2310619,210.8091583,-250.1374054,-250.1374054
1580,-19.6131992,1.2473727,-14.9062233,128.4885559,-230.8778687,-250.1374054
1590,-19.6131992,0.5195391,-13.9557304,38.4503822,-133.7633514,-131.5954132
1600,-19.6131992,0.1580165,-11.1880474,-42.9694672,-27.0610695,-13.7862597
1610,-19.6131992,0.3543400,-6.3134775,-95.3816757,41.5572510,78.8396912
1620,-19.6131992,0.5817881,-2.1092808,-110.4656525,58.8396950,141.8625946
1630,-19.6131992,0.5746055,0.3591284,-96.6183243,40.8702278,190.7557220
1640,-19.6131992,1.3551112,1.5586174,-72.7557220,6.1145039,230.1526642
1650,-19.6131992,1.9464760,1.7645177,-45.4656487,-25.0076332,250.1297760
1660,-18.8518486,2.2888451,1.0199248,-22.0763359,-36.7404594,250.1297760
1670,-16.4145622,2.4181314,-0.2537841,-12.0305347,-22.9847336,250.1297760
1680,-13.5295649,1.9297167,-2.0374553,-18.8091602,14.1526718,250.1297760
1690,-9.9765873,1.1635761,-4.0940638,-43.9847336,74.1450348,250.1297760
1700,-6.0908179,0.0502780,-5.7652082,-87.0000000,147.9465637,250.1297760
1710,-2.0206959,-1.3814473,-6.7468257,-146.7786255,229.6335907,250.1297760
1720,1.1635761,-3.5745249,-6.0908179,-217.1526642,250.1297760,250.1297760
1730,5.1427188,-6.3374195,-2.3391230,-250.1374054,250.1297760,250.1297760
1740,13.0219965,-7.4339581,3.2417326,-250.1374054,250.1297760,250.1297760
1750,19.6126022,-4.5058646,10.2471304,-250.1374054,119.7557220,250.1297760
1760,19.6126022,1.1587877,17.7624912,-230.0915985,-16.2900772,250.1297760
1770,19.6126022,5.5281835,19.6126022,-140.4198456,-87.1221390,92.4427490
1780,19.6126022,4.1874375,19.6126022,-50.3969460,-57.7404594,-107.2824402
1790,19.6126022,1.5705882,19.6126022,20.2442741,-30.6641216,-250.1374054
1800,19.6126022,-0.6129125,17.7289734,80.1068726,-66.9923630,-250.1374054
1810,17.6906662,-1.9321109,14.8798876,133.3969421,-106.0534363,-250.1374054
1820,13.0411501,-1.7740943,11.4490137,172.4656525,-100.1755753,-250.1374054
1830,9.9119444,-1.0725969,8.1689749,190.3969421,-57.6335869,-250.1374054
1840,7.6853480,-0.4429250,5.2169390,192.9007568,1.3664122,-250.1374054
1850,6.0357518,-0.6631905,3.4787574,192.0305328,65.3358765,-250.1374054
1860,4.2496862,-2.2002602,2.9352763,199.1755676,109.4351120,-250.1374054
1870,2.0613971,-4.7692256,2.4971397,220.8015289,128.9160309,-250.1374054
1880,-1.3766589,-7.6614060,1.4125718,250.1297760,120.6259537,-250.1374054
1890,-7.7547798,-10.4458485,-0.2992737,250.1297760,84.5343475,-250.1374054
1900,-18.7321377,-11.4897156,-3.2824337,250.1297760,-13.2442751,-250.1374054
1910,-19.6131992,-10.4147243,-6.6773944,250.1297760,-166.8167877,-250.1374054
1920,-19.6131992,-7.0844064,-11.0228481,250.1297760,-250.1374054,-250.1374054
1930,-19.6131992,-2.9855542,-15.7370071,250.1297760,-250.1374054,-250.1374054
1940,-19.6131992,-2.0877333,-19.6131992,157.9770966,-250.1374054,-151.3587799
1950,-19.6131992,-2.6886747,-19.6131992,3.8091602,-59.2442741,-5.3358779
1960,-19.6131992,-3.8761928,-15.5837793,-143.6717529,114.6870193,125.8702316
1970,-19.6131992,-4.7428894,-5.7747850,-207.0305328,187.3969421,209.7099304
1980,-19.6131992,-5.2983413,-0.0814024,-201.0229034,170.4351196,250.1297760
1990,-19.6131992,-5.1499014,3.0478032,-163.7633514,100.3587799,250.1297760
2000,-19.6131992,-3.7540891,3.6726866,-116.2519073,38.2824440,250.1297760
2010,-19.4695492,-2.4085546,2.6838863,-78.0534363,10.4580154,250.1297760
2020,-16.4792061,-1.8938038,1.3718705,-55.8931313,18.0076332,250.1297760
2030,-13.9365768,-1.7621235,-0.1460456,-51.2748108,53.0381660,250.1297760
2040,-10.4338779,-2.4157372,-2.1978660,-64.3664093,105.1984711,250.1297760
2050,-6.3086891,-2.7485294,-4.8075323,-98.4198456,179.1679382,250.1297760
2060,-2.7293761,-3.4356618,-6.7061248,-157.2061005,250.1297760,250.1297760
2070,0.7517755,-4.8338685,-6.4667058,-230.9465637,250.1297760,250.1297760
2080,4.3430595,-7.0413113,-3.2369442,-250.1374054,250.1297760,250.1297760
2090,9.5791521,-8.3317795,1.7429699,-250.1374054,250.1297760,250.1297760
2100,19.0529594,-6.5552907,8.6669655,-250.1374054,168.6259613,250.1297760
2110,19.6126022,-1.0199248,17.8702297,-250.1374054,5.7022901,250.1297760
2120,19.6126022,4.7883787,19.6126022,-152.1679382,-117.3358765,199.2671814
2130,19.6126022,7.0724359,19.6126022,-34.7175560,-122.9923630,4.9923663
2140,19.6126022,5.6814117,19.6126022,55.6183205,-81.1679382,-159.4885559
2150,19.6126022,3.3805954,18.8757896,126.9312973,-105.0076370,-250.1374054
2160,18.3035774,1.3239868,15.7250366,189.6183167,-163.7328186,-250.1374054
2170,12.7706070,0.8236012,11.6788559,238.5343475,-195.7022858,-250.1374054
2180,9.1577749,1.2497669,7.2903070,250.1297760,-186.7328186,-250.1374054
2190,7.2496057,1.7070571,3.6702924,250.1297760,-141.6183167,-250.1374054
2200,5.8897061,1.9680238,0.3184272,250.1297760,-69.3587799,-250.1374054
2210,4.7381010,1.2737088,-2.5258698,232.2213745,1.7633588,-250.1374054
2220,3.5266411,-0.0957676,-4.3167233,212.0915985,59.5572510,-250.1374054
2230,1.1132981,-2.0925217,-5.4994531,200.4732819,97.1755753,-250.1374054
2240,-4.8147149,-3.7062054,-7.0173693,194.7404633,95.8778610,-250.1374054
2250,-15.4999828,-4.6590929,-8.0899658,196.1450348,25.2061062,-250.1374054
2260,-19.6131992,-4.1994085,-8.2120695,204.7709961,-127.0610657,-250.1374054
2270,-19.6131992,-1.2425843,-9.3253679,205.1068726,-250.1374054,-250.1374054
2280,-19.6131992,1.8387375,-13.1081877,170.3587799,-250.1374054,-250.1374054
2290,-19.6131992,3.1172347,-16.6539822,94.0992355,-236.6870270,-189.4427490
2300,-19.6131992,2.7317703,-17.4847660,-16.4503822,-52.0228996,-79.5725174
2310,-19.6131992,1.6519908,-13.0962162,-116.9542007,110.0381699,28.0152664
2320,-19.6131992,0.4740495,-6.5983863,-162.7480927,176.9160309,119.2290039
2330,-19.6131992,0.0478838,-2.4468615,-157.9694672,153.8320618,186.8549652
2340,-19.6131992,0.7757174,-0.9935886,-130.7938995,97.5190811,233.4809113
2350,-19.6131992,1.8650736,-1.6950861,-102.5496216,50.6870232,250.1297760
2360,-18.7872047,2.5330524,-3.3973548,-89.4961853,34.8549614,250.1297760
2370,-16.7760849,2.6886747,-4.5705075,-91.2748108,44.6717567,250.1297760
2380,-14.3866844,2.4516499,-5.4300218,-104.3511429,69.1450348,250.1297760
2390,-10.9941177,1.9584470,-6.9192076,-127.4045792,103.0916061,250.1297760
2400,-7.1442614,1.4963684,-8.2096758,-163.8854980,143.5343475,250.1297760
2410,-3.6415622,0.4979914,-8.6262646,-214.3893127,190.2366486,250.1297760
2420,-0.3160330,-1.0151364,-7.9463148,-250.1374054,233.7862549,250.1297760
2430,2.8251436,-3.0262554,-5.0613165,-250.1374054,250.1297760,250.1297760
2440,7.1610208,-4.9631548,-0.9624642,-250.1374054,220.8167877,250.1297760
2450,14.8870697,-4.0749106,5.4276276,-250.1374054,115.6030502,250.1297760
2460,19.6126022,-1.1109039,13.4194317,-250.1374054,-32.6106873,250.1297760
2470,19.6126022,2.6695213,19.6126022,-209.7862549,-147.6793823,184.8244324
2480,19.6126022,4.5705075,19.6126022,-109.7557220,-171.8244324,34.4351158
2490,19.6126022,3.8522508,19.6126022,-32.4351158,-122.8549652,-99.1832047
2500,19.6126022,2.5210814,19.6126022,29.1374054,-87.0381699,-193.4122162
2510,19.6126022,0.6368544,18.7105904,94.0992355,-91.0916061,-250.1374054
2520,14.8320036,-0.2011119,14.6476507,152.4198456,-101.9465637,-250.1374054
2530,11.4538021,0.4213773,10.0460186,192.3893127,-94.8015289,-250.1374054
2540,9.3205795,1.5011568,5.8011212,209.4427490,-60.6717567,-250.1374054
2550,7.4722652,2.2457497,2.4253139,209.7709961,-19.4503822,-250.1374054
2560,6.0333576,2.9616125,0.2633608,205.2595367,12.9160309,-250.1374054
2570,5.4659348,3.3710186,-1.6567791,199.8549652,43.6793900,-250.1374054
2580,4.9487896,2.7197993,-3.1387823,194.2137451,68.1145020,-250.1374054
2590,3.0573800,0.9073978,-4.1754665,190.5648804,74.6183243,-250.1374054
2600,0.2154770,-1.6232605,-4.5441718,192.9007568,58.5038185,-250.1374054
2610,-6.0596933,-4.4986820,-4.9224534,201.8167877,14.9847326,-250.1374054
2620,-16.5246964,-6.5720501,-5.2001796,217.2595367,-90.0839691,-250.1374054
2630,-19.6131992,-6.1722202,-5.5928264,236.6641235,-250.1374054,-250.1374054
2640,-19.6131992,-2.0973101,-8.3222027,233.1068726,-250.1374054,-250.1374054
2650,-19.6131992,0.5554519,-13.8575687,175.3664093,-250.1374054,-250.1374054
2660,-19.6131992,0.8738791,-17.2142220,65.4198456,-188.3740387,-132.6488495
2670,-19.6131992,0.0071826,-14.9277716,-57.9083977,22.7480907,49.1221390
2680,-19.6131992,-0.2681492,-8.9039907,-140.9236603,171.7709961,189.0381622
2690,-19.6131992,-0.8331779,-3.5864959,-168.8015289,210.5038147,250.1297760
2700,-19.6131992,-0.6655847,-0.0550664,-159.2748108,178.4580078,250.1297760
2710,-19.6131992,0.0191535,1.6759326,-128.3129730,116.0992355,250.1297760
2720,-17.3818150,0.8954269,1.0917504,-91.3358765,62.4885483,250.1297760
2730,-14.1712074,1.5035510,-1.2306134,-68.2748108,37.8931313,250.1297760
2740,-11.0396080,1.8938038,-4.2736282,-67.1221390,39.9389305,250.1297760
2750,-8.1881275,1.9799947,-6.5121951,-87.4351120,66.7557220,250.1297760
2760,-5.2456689,1.8147956,-8.4802189,-127.8778610,110.1679382,250.1297760
2770,-2.8466914,0.8978211,-8.9159613,-182.7633514,158.1832123,250.1297760
2780,-0.2585725,-0.6823440,-7.3836803,-240.0381622,198.6641235,250.1297760
2790,3.0023136,-2.6312141,-4.1563129,-250.1374054,211.5648804,250.1297760
2800,7.5345144,-4.0102673,0.3016679,-250.1374054,175.1145020,250.1297760
2810,14.9852314,-3.1675127,6.1051831,-250.1374054,78.1450348,250.1297760
2820,19.6126022,0.1101327,13.2853575,-250.1374054,-50.7251892,250.1297760
2830,19.6126022,4.5202298,19.0888729,-166.2137451,-132.8473358,189.2366486
2840,19.6126022,6.5864153,19.6126022,-76.1832047,-122.1984711,28.2061062
2850,19.6126022,5.7747850,19.6126022,-7.2595420,-70.0152664,-114.9083939
2860,19.6126022,3.9887197,18.5597572,55.7557259,-64.0152664,-221.9541931
2870,19.6126022,2.0637913,16.0147324,119.8778610,-100.7938919,-250.1374054
2880,14.5518837,1.0558375,12.4737272,174.6488495,-128.6717529,-250.1374054
2890,10.7044210,1.0749911,8.2671366,207.8244324,-124.6335907,-250.1374054
2900,7.7212610,1.5394639,4.1826491,218.8167877,-90.6106873,-250.1374054
2910,6.0932121,2.0278785,1.1204807,213.8549652,-39.0534363,-250.1374054
2920,5.0086441,1.7262106,-0.9528874,202.1297760,16.1374054,-250.1374054
2930,3.8785870,0.7829000,-2.1763182,193.4580078,60.1221390,-250.1374054
2940,1.9440818,-0.9121862,-3.5362179,191.4198456,81.5877838,-250.1374054
2950,-2.5450234,-2.8826041,-4.9320302,194.7633514,70.1450348,-250.1374054
2960,-10.4338779,-4.1826491,-5.9902620,200.7633514,5.0305343,-250.1374054
2970,-17.4823723,-4.0940638,-6.2057390,210.4961853,-109.2366409,-250.1374054
2980,-19.6131992,-2.2242019,-7.2903070,213.0763397,-222.8625946,-250.1374054
2990,-19.6131992,0.3734936,-9.5264797,192.1221313,-250.1374054,-250.1374054
3000,-19.6131992,2.1140692,-12.2031832,138.9618378,-246.2442780,-233.5267181
3010,-19.6131992,2.6814921,-13.9222116,59.7251892,-120.1832047,-109.4045792
3020,-19.6131992,2.6695213,-13.0579090,-30.8549614,42.9847336,19.2366409
3030,-19.6131992,2.3079987,-9.3038206,-98.2442780,158.2061005,128.8091583
3040,-19.6131992,1.7836711,-5.2241216,-127.4351120,206.1374054,209.7404633
3050,-19.6131992,1.8531027,-2.7461352,-127.7557220,196.8244324,250.1297760
3060,-19.6131992,2.3391230,-1.6615674,-114.0992355,164.9084015,250.1297760
3070,-17.6667233,2.6671271,-1.6472024,-97.8778610,132.7480927,250.1297760
3080,-14.4106264,3.0669568,-2.9687948,-87.4732819,115.4122162,250.1297760
3090,-11.2072010,3.3279233,-4.7955613,-91.0992355,117.4351120,250.1297760
3100,-8.2695303,3.3015873,-6.1051831,-111.6870193,132.2748108,250.1297760
3110,-5.4395986,2.9304879,-6.5241661,-143.0686951,156.5343475,250.1297760
3120,-3.0454090,2.1236460,-6.4451580,-180.7709961,190.2824402,250.1297760
3130,-0.6560079,0.6823440,-5.8442163,-223.8473358,220.7328186,250.1297760
3140,2.0613971,-1.0247130,-4.2448978,-250.1374054,227.3435059,250.1297760
3150,5.5688848,-2.5785420,-0.9935886,-250.1374054,186.1603088,250.1297760
3160,11.1257982,-2.8706331,3.6271970,-250.1374054,83.8320618,250.1297760
3170,19.6126022,-0.5003856,9.8616667,-250.1374054,-59.4961815,250.1297760
3180,19.6126022,3.6056492,16.2948532,-175.3664093,-180.6183167,206.3435059
3190,19.6126022,6.7875271,19.5892582,-87.0305328,-198.5572510,55.6793900
3200,19.6126022,6.8234401,19.6126022,-19.1755733,-123.5648880,-88.8091583
3210,19.6126022,5.4635406,19.3450508,36.6412201,-55.3816795,-202.9160309
3220,19.6126022,3.7421181,18.0569763,103.5114517,-61.6412201,-250.1374054
3230,15.0690289,1.9943599,14.8463688,172.1755676,-100.3435135,-250.1374054
3240,10.4506369,1.5131277,10.5440102,225.6030579,-129.3435059,-250.1374054
3250,6.8665352,1.8052188,5.8298512,250.1297760,-137.3358765,-250.1374054
3260,4.9511838,2.6551561,1.8531027,250.1297760,-120.5954208,-250.1374054
3270,3.2991931,2.4229198,-1.7190280,250.1297760,-85.5038147,-250.1374054
3280,0.4477134,1.1444225,-3.9216824,230.3206177,-49.9083977,-250.1374054
3290,-4.2616572,-0.1867468,-5.3581958,213.0458069,-38.1526718,-250.1374054
3300,-9.7467451,-0.7613522,-6.5002246,202.4961853,-64.4885483,-250.1374054
3310,-17.1304264,-0.8427547,-7.9415264,192.5496216,-120.6106873,-250.1374054
3320,-19.6131992,0.5530578,-9.4953556,176.7938995,-200.3511505,-250.1374054
3330,-19.6131992,2.9041519,-11.4250717,149.2595367,-250.1374054,-250.1374054
3340,-19.6131992,4.8434453,-14.1329002,94.4351120,-220.4351196,-184.3969421
3350,-19.6131992,5.0277977,-15.7226419,12.3816795,-95.5801544,-77.3893127
3360,-19.6131992,4.4220681,-14.3771076,-76.9312973,48.5343513,27.7175579
3370,-19.6131992,3.9001346,-10.1489687,-140.9160309,148.7099304,120.1450348
3380,-19.6131992,3.1603301,-6.4499464,-167.6564941,187.6106873,190.5038147
3390,-19.6131992,2.8131726,-4.0461802,-171.6412201,181.1908417,244.4580078
3400,-19.2684364,2.9113343,-2.9233053,-165.7099304,158.7938995,250.1297760
3410,-15.7298250,3.1507533,-2.7916248,-158.9847260,143.0763397,250.1297760
3420,-12.3851423,3.1627243,-3.1746953,-158.4351196,139.7099304,250.1297760
3430,-9.2224178,3.1699069,-3.5481887,-165.5114441,145.1221313,250.1297760
3440,-6.1794028,2.8586621,-3.9408360,-178.8854980,154.9694672,250.1297760
3450,-3.3949606,2.6312141,-4.0533628,-198.8396912,171.3587799,250.1297760
3460,-1.2401901,2.0542145,-3.9959023,-225.7938995,192.1221313,250.1297760
3470,1.0007712,1.3527170,-3.0047078,-250.1374054,207.0152740,250.1297760
3480,3.4524212,1.0486550,-0.8092360,-250.1374054,211.3969421,250.1297760
3490,5.8154860,1.1252691,1.7573351,-250.1374054,195.2900696,250.1297760
3500,9.2870607,1.4580613,4.8578105,-250.1374054,136.4045868,250.1297760
3510,15.8088331,3.4308734,9.4881725,-232.4503784,14.4580154,231.1068726
3520,19.6126022,5.8849177,14.2406387,-158.4198456,-131.6030579,122.1221390
3530,19.6126022,7.4052281,16.1368370,-69.1145020,-231.6335907,-2.3511450
3540,19.6126022,7.3525558,14.3100700,0.0458015,-250.1374054,-115.8549652
3550,19.6126022,7.0197635,12.4689388,38.6259537,-233.6793823,-205.1450348
3560,17.8893833,5.8657641,11.2790270,59.9236641,-207.1984711,-250.1374054
3570,13.1488886,4.9655490,10.9270811,83.8244247,-188.5877838,-250.1374054
3580,8.9782104,4.2448978,9.8568783,110.3816757,-173.3893127,-250.1374054
3590,5.8513989,4.4555864,7.9702568,134.8931274,-159.7786255,-250.1374054
3600,4.0820932,5.0134325,5.4491754,149.1908417,-139.0000000,-250.1374054
3610,2.9161227,5.3725610,2.9113343,151.1603088,-109.5038147,-250.1374054
3620,2.0254843,5.3893204,0.7852941,144.2519073,-73.8396912,-250.1374054
3630,1.1947005,4.9080882,-0.4740495,134.3587799,-40.2977104,-250.1374054
3640,-0.1388630,3.9959023,-1.5131277,125.8015289,-13.8625956,-250.1374054
3650,-1.7908537,2.8610563,-2.6431851,119.4427490,2.7404580,-250.1374054
3660,-4.3741841,1.8219782,-3.2944047,114.1450348,6.5267177,-250.1374054
3670,-7.8002691,1.0821736,-3.7133877,109.8091583,-0.3740458,-250.1374054
3680,-13.2374735,0.7876883,-3.9168940,106.7786255,-22.7175579,-250.1374054
3690,-19.5030670,1.2880739,-4.1419477,101.9542007,-50.6412201,-250.1374054
3700,-19.6131992,2.2696917,-5.6263452,92.9847336,-69.4274826,-250.1374054
3710,-19.6131992,3.4979107,-7.6398587,68.7328262,-73.2137375,-159.6412201
3720,-19.6131992,4.0605454,-9.9885588,29.6030540,-49.3282433,-37.3435097
3730,-19.6131992,4.6112089,-11.9374285,-21.8549614,6.5572519,79.5114517
3740,-19.6131992,4.5489597,-12.3181047,-82.6488571,77.4809189,171.2061005
3750,-19.6131992,4.1180058,-10.8983507,-139.1984711,133.9084015,240.1068726
3760,-17.6212349,3.8785870,-8.5711985,-179.9160309,162.5877838,250.1297760
3770,-14.7649660,3.5122759,-6.4858594,-205.4122162,170.8854980,250.1297760
3780,-11.9996777,3.3183465,-4.7716198,-221.4427490,164.0915985,250.1297760
3790,-9.5504217,3.0813217,-3.4524212,-230.6259613,149.3358765,250.1297760
3800,-7.2160869,2.7485294,-2.3175755,-237.3587799,133.2519073,250.1297760
3810,-4.9272418,1.8961980,-1.3694763,-245.1603088,122.5267181,250.1297760
3820,-2.5258698,0.5003856,-0.5243275,-250.1374054,109.7938919,250.1297760
3830,0.3399749,-1.4053892,1.0390782,-250.1374054,80.5572510,250.1297760
3840,4.9440012,-2.7796540,3.5505829,-250.1374054,20.5877857,250.1297760
3850,10.1944590,-2.2960277,6.3062949,-240.0152740,-64.7862625,250.1297760
3860,18.0689487,0.1795642,10.4362717,-195.6488495,-150.6488495,250.1297760
3870,19.6126022,4.0078731,15.0714226,-138.8396912,-182.3053436,199.1603088
3880,19.6126022,6.9311786,18.3849812,-82.5267181,-124.6564865,77.4580154
3890,19.6126022,6.8473821,19.6126022,-35.5190849,-8.1984730,-52.9389305
3900,19.6126022,5.2935529,19.6126022,21.6870232,60.9541969,-164.9694672
3910,19.6126022,3.3518653,19.6126022,103.7786255,39.0152664,-250.1374054
3920,14.0921993,1.1324517,16.2685165,182.5572510,-21.1450386,-250.1374054
3930,9.3062143,0.4788379,10.6230183,242.4274750,-80.8549652,-250.1374054
3940,6.3182659,0.5554519,4.7716198,250.1297760,-126.6030502,-250.1374054
3950,4.3047528,0.6248835,-0.6943150,250.1297760,-149.5954132,-250.1374054
3960,1.8794388,-0.6177009,-4.8171091,236.3969421,-141.0992432,-250.1374054
3970,-0.1029501,-0.8355721,-7.2256637,198.0000000,-116.7328262,-250.1374054
3980,-3.9312592,-2.2481439,-7.5752153,158.9618378,-82.4045792,-250.1374054
3990,-9.5815458,-2.5641768,-7.2112985,131.8167877,-74.9923630,-250.1374054
4000,-18.9069138,-2.6144550,-6.8976598,112.4274826,-103.2061081,-250.1374054
4010,-19.6131992,-1.7597293,-4.1706781,98.4656525,-142.5038147,-250.1374054
4020,-19.6131992,-0.0023942,-3.7469065,88.4961853,-170.9084015,-250.1374054
4030,-19.6131992,1.2521610,-5.9112539,65.4198456,-162.4274750,-176.9694672
4040,-19.6131992,1.6950861,-7.6661944,17.9770985,-72.2900772,-26.7328243
4050,-19.6131992,1.8171898,-6.8258343,-42.3282433,41.7862587,107.9312973
4060,-19.6131992,1.8554969,-4.5657191,-88.1755753,135.5648804,205.3587799
4070,-19.6131992,1.5490406,-2.0398495,-110.8167953,181.9694672,250.1297760
4080,-19.6131992,1.5514348,-0.0622489,-113.6564865,177.5648804,250.1297760
4090,-17.4943428,1.7286048,0.7086801,-100.5496216,145.5343475,250.1297760
4100,-15.2605639,2.3319404,-0.2777260,-84.5114517,109.6564865,250.1297760
4110,-13.0507269,2.7964132,-2.1188576,-80.4961853,89.3358765,250.1297760
4120,-10.4219065,2.6312141,-3.6559272,-93.5725174,92.3282471,250.1297760
4130,-7.7332320,2.2864509,-4.2329268,-120.0381699,117.8091583,250.1297760
4140,-5.1738434,1.5514348,-3.9360476,-153.7099304,156.1374054,250.1297760
4150,-3.1004753,0.6153067,-3.0980811,-191.1450348,195.0381622,250.1297760
4160,-0.8762733,-0.8331779,-1.3551112,-225.3664093,219.4961853,250.1297760
4170,2.5713594,-2.3295465,1.5442522,-247.7938995,208.4656525,250.1297760
4180,8.2144642,-2.4708035,5.3701668,-245.0534363,141.9313049,250.1297760
4190,16.3906212,-0.8116302,10.2207947,-210.1832123,39.7328262,250.1297760
4200,19.6126022,2.4971397,14.6644106,-146.8320618,-57.9160309,250.1297760
4210,19.6126022,5.5497313,17.4608231,-72.4656525,-100.1450348,140.4351196
4220,19.6126022,7.1873569,18.1216202,-8.9694653,-78.6870193,-0.5572519
4230,19.6126022,6.9694853,17.6020813,47.0381660,-54.0534363,-125.1984711
4240,19.6126022,5.1570840,15.9692440,102.9542007,-65.0076370,-229.9389343
4250,17.4296989,3.5721307,13.1967726,157.5801544,-100.9770966,-250.1374054
4260,12.1768475,2.7916248,9.5887289,201.0458069,-126.3129807,-250.1374054
4270,8.0444765,2.7245877,5.3988972,223.0229034,-127.1145020,-250.1374054
4280,5.2815819,3.2967989,2.2122312,223.8091583,-108.7786255,-250.1374054
4290,3.1507533,3.2632802,-0.3878587,209.4351196,-72.6793900,-250.1374054
4300,1.2377959,2.8299320,-1.9991482,190.7557220,-25.7251911,-250.1374054
4310,-1.1994889,2.0087249,-3.2034254,173.9923706,17.8549614,-250.1374054
4320,-4.0629396,1.0175306,-3.9815371,162.3358765,42.1832047,-250.1374054
4330,-8.3126259,0.2059003,-4.6686692,154.7175598,45.6335869,-250.1374054
4340,-15.8064384,-0.3950413,-5.5904322,148.5648804,21.8396950,-250.1374054
4350,-19.6131992,-0.0957676,-5.5712790,144.8167877,-53.7099228,-250.1374054
4360,-19.6131992,1.5945302,-5.8394279,148.9770966,-155.2824402,-250.1374054
4370,-19.6131992,3.1579359,-9.0380650,137.0381622,-196.2213745,-209.3969421
4380,-19.6131992,4.0773048,-12.0403786,87.8091583,-141.4427490,-108.8931274
4390,-19.6131992,4.0222383,-12.6532917,7.2748094,-33.4656487,4.6335878
4400,-19.6131992,3.8761928,-10.8289185,-66.6870193,79.1755753,110.7099228
4410,-19.6131992,3.5864959,-7.8313937,-115.0687027,156.5343475,186.2290039
4420,-19.6131992,3.2560976,-4.9607606,-138.1526642,176.3664093,236.9236603
4430,-19.0529594,3.0382264,-3.2058196,-141.7786255,162.1755676,250.1297760
4440,-16.5390606,3.1459649,-2.2265961,-136.0686951,136.3969421,250.1297760
4450,-14.2262735,3.2417326,-2.3103929,-129.8778687,113.3664093,250.1297760
4460,-11.7004042,3.3422885,-2.7748656,-129.0686951,96.5801544,250.1297760
4470,-8.9614515,3.3710186,-3.3183465,-135.7099304,98.1908417,250.1297760
4480,-6.2464404,3.1699069,-3.7923961,-151.0000000,107.1755753,250.1297760
4490,-4.0485744,2.7868366,-3.8307030,-173.4885559,127.0305328,250.1297760
4500,-1.8938038,2.0063307,-3.4236910,-199.6030579,146.0381622,250.1297760
4510,0.4381367,1.0678085,-2.0566087,-224.6641235,156.0076294,250.1297760
4520,3.1723011,-0.1484398,0.1149211,-240.6641235,146.0610657,250.1297760
4530,7.7092900,-0.7350162,2.5019281,-244.3664093,97.7328262,250.1297760
4540,15.1935263,0.7469871,6.8617468,-225.2748108,8.9770994,250.1297760
4550,19.6126022,3.3494711,11.9086981,-176.0686951,-86.0305328,237.3969421
4560,19.6126022,5.7173243,15.5071650,-109.1068726,-136.1450348,120.4351120
4570,19.6126022,6.7180958,17.3435078,-43.8931313,-121.8396912,-2.2366412
4580,19.6126022,6.2488346,17.8869896,12.2137403,-75.2137375,-110.2290039
4590,19.6126022,5.2552457,17.7672806,67.9389343,-44.3129768,-191.1984711
4600,17.3913918,4.1036406,15.9644556,127.9618301,-50.5190849,-246.4580078
4610,12.9190464,3.2680686,12.7227230,181.9694672,-66.4045792,-250.1374054
4620,9.4115591,2.9687948,8.5735922,220.8167877,-72.0763321,-250.1374054
4630,7.2328463,3.4763632,4.4220681,238.9770966,-67.0610657,-250.1374054
4640,5.9591374,3.9743545,1.1635761,240.5801544,-51.9160309,-250.1374054
4650,4.7955613,3.5673423,-1.5370697,230.2671814,-24.8625946,-250.1374054
4660,3.5649481,2.7245877,-3.4141142,214.7251892,6.7328243,-250.1374054
4670,1.4652439,1.1085097,-4.7045822,200.4274750,26.4503822,-250.1374054
4680,-2.4636209,-0.6536137,-5.6598639,191.2519073,25.6870232,-250.1374054
4690,-9.0667953,-1.9057748,-6.1817970,185.9007568,-3.4274809,-250.1374054
4700,-16.1799316,-2.2074428,-6.2967181,182.5648804,-67.3816757,-250.1374054
4710,-19.6131992,-1.2234308,-6.3637557,180.1068726,-152.1832123,-250.1374054
4720,-19.6131992,0.7062859,-8.0468712,167.1450348,-217.7328186,-250.1374054
4730,-19.6131992,2.7341642,-10.6302013,130.8015289,-213.3587799,-235.5801544
4740,-19.6131992,3.0621684,-12.6485033,65.0152664,-125.4198456,-119.6030502
4750,-19.6131992,2.8059900,-12.8496151,-19.5954189,13.8091602,5.9694657
4760,-19.6131992,2.8730273,-10.3979645,-92.9236679,134.5725250,117.3893127
4770,-19.6131992,2.9687948,-7.2615767,-132.6793823,197.6717529,191.0763397
4780,-19.6131992,3.2297616,-5.1235652,-147.9313049,210.9923706,235.1755676
4790,-18.0881004,3.5074875,-4.1658897,-148.9160309,196.4656525,250.1297760
4800,-16.2565460,3.6990228,-3.8235207,-146.5190887,174.0915985,250.1297760
4810,-14.1975431,4.0964580,-4.3741841,-146.6870270,152.5877838,250.1297760
4820,-11.7195578,4.2927818,-5.4132624,-154.1374054,137.2061005,250.1297760
4830,-9.2032642,4.2616572,-6.0477223,-171.1908417,134.1984711,250.1297760
4840,-6.5768385,3.8905578,-6.4691000,-196.1755676,138.6183167,250.1297760
4850,-4.0964580,3.3135581,-6.1698260,-226.7480927,149.3816833,250.1297760
4860,-2.1643472,2.4803803,-5.1786318,-250.1374054,162.7480927,250.1297760
4870,-0.3974355,0.9265513,-3.3829896,-250.1374054,166.6335907,250.1297760
4880,2.5593886,-0.7421987,-0.5722113,-250.1374054,149.4198456,250.1297760
4890,6.4978304,-1.6711442,2.9256995,-250.1374054,101.3435135,250.1297760
4900,12.3755655,-0.9624642,6.9742737,-250.1374054,26.5038166,250.1297760
4910,19.6126022,1.5250987,12.1792421,-243.7251892,-57.5496178,250.1297760
4920,19.6126022,4.5202298,17.1998577,-172.5267181,-113.6030502,147.8702240
4930,19.6126022,6.1841912,19.6126022,-92.7480927,-113.1984711,27.2519093
4940,19.6126022,6.5050125,19.6126022,-17.8473282,-72.7557220,-87.0381699
4950,19.6126022,5.6143742,19.6126022,54.8854980,-35.4809151,-179.0839691
4960,17.9899387,4.4268565,18.2844257,129.1832123,-30.8167934,-247.1679382
4970,13.2087431,3.2752512,14.4465389,193.3587799,-55.8931313,-250.1374054
4980,9.1793222,2.4755919,9.4570484,238.1374054,-89.1145020,-250.1374054
4990,6.6414814,2.6168492,4.0078731,250.1297760,-115.5725174,-250.1374054
5000,5.4108682,2.9328821,-0.7469871,250.1297760,-128.8854980,-250.1374054
5010,4.3909435,2.5593886,-4.8434453,228.2519073,-122.0839691,-250.1374054
5020,3.0118904,2.0135133,-7.4602942,190.8167877,-86.0610657,-250.1374054
5030,0.8403605,0.8212070,-8.0516596,155.2213745,-35.8549614,-250.1374054
5040,-3.1435707,-0.6440369,-7.3741035,129.3129730,8.0229006,-250.1374054
5050,-8.8585014,-1.5394639,-6.1171541,114.6717529,32.8167953,-250.1374054
5060,-16.4049854,-1.7381816,-5.4300218,109.4885483,31.4427490,-250.1374054
5070,-19.6131992,-1.0510491,-5.3821378,107.6488571,-5.2366414,-250.1374054
5080,-19.6131992,0.6296718,-6.7707677,104.6564865,-67.0229034,-250.1374054
5090,-19.6131992,2.0949159,-10.4027529,80.8244247,-103.3664093,-167.5343475
5100,-19.6131992,1.8531027,-13.0435438,27.4427490,-72.2824402,-22.4045811
5110,-19.6131992,1.8794388,-13.6133614,-45.8549614,-6.8091602,116.1832047
5120,-19.6131992,2.2146254,-11.6142130,-113.4503784,56.2213745,221.5725250
5130,-19.6131992,2.0853391,-8.8417416,-159.1297760,101.1450348,250.1297760
5140,-17.6499653,1.8961980,-6.0836353,-186.7786255,117.6183243,250.1297760
5150,-14.5901909,1.8531027,-4.0198441,-198.2900696,103.2824402,250.1297760
5160,-11.7626524,1.9249283,-3.2537034,-200.3511505,82.8320618,250.1297760
5170,-8.8369532,2.2385671,-2.9304879,-200.3435059,64.2442780,250.1297760
5180,-6.0237808,2.4731977,-3.1962428,-204.8778687,53.6870232,250.1297760
5190,-3.5936785,2.2816625,-3.1268115,-215.9847260,51.0381660,250.1297760
5200,-1.1779412,1.6352314,-2.4995339,-231.2442780,48.2671738,250.1297760
5210,1.5634058,0.8044477,-1.1492109,-245.5496216,38.6717567,250.1297760
5220,5.4228392,-0.0407012,1.2808913,-250.1374054,10.9847326,250.1297760
5230,10.1585455,0.3878587,4.6902170,-237.5114441,-43.3282433,250.1297760
5240,15.5454721,1.9273225,8.6956959,-200.4580078,-109.4885483,250.1297760
5250,19.6126022,4.2688398,12.5335817,-145.9465637,-159.0763397,202.4274750
5260,19.6126022,6.4260044,15.6915178,-87.7938919,-158.5114441,107.1755753
5270,19.6126022,7.3310080,17.5446205,-34.5801544,-105.9236679,6.9083967
5280,19.6126022,7.3094602,18.4568062,17.6641216,-42.8091621,-88.2595444
5290,19.6126022,6.4331870,18.3227310,78.4732819,-10.5267172,-172.4580078
5300,15.7034883,5.2672167,16.0674057,144.5343475,-21.6412220,-237.9160309
5310,11.4154949,4.1180058,12.7490587,203.0000000,-53.1450386,-250.1374054
5320,8.2719250,3.7804251,8.3317795,243.7633514,-79.7938919,-250.1374054
5330,6.1794028,3.4141142,4.5298066,250.1297760,-85.7251892,-250.1374054
5340,4.1227942,3.1459649,1.6663558,250.1297760,-73.8244247,-250.1374054
5350,2.5474176,2.5929072,-0.7254394,246.9465637,-45.3969460,-250.1374054
5360,0.5386927,1.7046629,-2.4181314,230.2748108,-7.4656487,-250.1374054
5370,-2.5905130,0.8212070,-3.8642218,214.4503784,26.6183205,-250.1374054
5380,-7.5345144,0.2681492,-4.9056940,199.4427490,44.7022896,-250.1374054
5390,-14.4010496,0.2896969,-5.8992829,185.5572510,26.2366409,-250.1374054
5400,-19.6131992,1.2234308,-6.7468257,172.7480927,-29.7328243,-250.1374054
5410,-19.6131992,3.4428444,-8.7244263,154.8244324,-91.3816757,-244.1679382
5420,-19.6131992,5.2097564,-12.6149845,112.5572510,-96.2137375,-139.7175598
5430,-19.6131992,5.7245069,-15.3204184,39.1984749,-39.9923668,-25.1603050
5440,-19.6131992,5.0876527,-15.7250366,-50.3740463,55.3129768,85.7938919
5450,-19.6131992,5.0924411,-12.9310169,-133.8091583,152.0686951,173.0610657
5460,-18.0234585,5.1044121,-9.1481981,-184.1145020,203.2290039,224.4503784
5470,-16.2733059,5.0397687,-5.7819676,-202.3511505,205.0915985,250.1297760
5480,-14.4130201,4.9894910,-3.5218527,-197.8702240,172.4885559,250.1297760
5490,-12.0499554,5.1403246,-2.6216373,-185.2137451,129.2442780,250.1297760
5500,-9.2726955,5.2935529,-2.5474176,-178.2519073,96.3511429,250.1297760
5510,-6.3254485,4.8649931,-2.6264257,-181.3893127,81.8625946,250.1297760
5520,-2.9616125,4.2879934,-1.7453641,-190.1908417,73.3358765,250.1297760
5530,0.9864060,4.0533628,0.1795642,-194.4427490,55.9923668,250.1297760
5540,5.2791877,4.0318151,2.8107784,-185.5496216,22.1984730,250.1297760
5550,9.4546537,4.7309184,5.4826937,-158.1755676,-29.2442741,250.1297760
5560,13.1848011,5.9950504,7.8601241,-117.3358765,-76.8015289,193.3740387
5570,16.5725803,7.6230993,9.5623922,-72.0916061,-101.2366409,122.5114517
5580,19.1128139,9.3157911,11.1952295,-28.3206100,-96.5496216,39.8778610
5590,19.3115330,9.9837704,12.0715036,15.3816795,-67.4427490,-49.1374054
5600,16.9939575,9.1601686,11.8105364,58.7709923,-31.1603050,-130.7557220
5610,13.4337969,8.1426382,10.3405046,105.7099228,-18.7175579,-202.5801544
5620,10.0316534,6.8593526,8.0133524,147.8549652,-27.9618320,-250.1374054
5630,7.2256637,5.4874821,5.7364779,183.6030579,-42.8473282,-250.1374054
5640,4.1395535,4.2951760,2.7341642,205.8931274,-51.6106873,-250.1374054
5650,1.6376256,3.2848279,-0.1244979,211.3587799,-48.0763359,-250.1374054
5660,-1.5155219,2.4013720,-2.6407909,204.4351196,-31.6183205,-250.1374054
5670,-6.4595232,2.2984219,-4.9320302,189.1068726,-3.5572519,-250.1374054
5680,-14.4297800,3.0023136,-7.8026633,163.8015289,33.8931313,-250.1374054
5690,-19.6131992,4.0533628,-10.9390516,124.9542007,64.7175598,-250.1374054
5700,-19.6131992,4.9751258,-14.3771076,70.9236679,75.4122162,-130.5267181
5710,-19.6131992,4.7021880,-16.8024216,8.9847326,81.2977066,31.3587780
5720,-19.6131992,5.0182209,-18.1790810,-65.4045792,108.3740463,181.6183167
5730,-19.6131992,5.1786318,-17.8079815,-150.4732819,161.5496216,250.1297760
5740,-15.9620609,4.9823084,-14.7242651,-231.3511505,219.8702240,250.1297760
5750,-12.3971128,4.2616572,-10.8049774,-250.1374054,250.1297760,250.1297760
5760,-10.6589317,4.0820932,-6.4810710,-250.1374054,250.1297760,250.1297760
5770,-9.6701307,3.9791429,-3.4212968,-250.1374054,249.8549652,250.1297760
5780,-7.8840661,4.0342093,-1.7190280,-250.1374054,203.1908417,250.1297760
5790,-5.9806852,4.1467361,-1.1994889,-250.1374054,152.8778687,250.1297760
5800,-4.0366035,3.5481887,-1.3479286,-250.1374054,116.4809189,250.1297760
5810,-2.2840567,2.5091105,-1.2425843,-250.1374054,95.8244247,250.1297760
5820,-0.2609667,1.0223188,-0.5362985,-250.1374054,82.3053436,250.1297760
5830,2.1930776,-0.5506636,1.0462608,-250.1374054,61.1908379,250.1297760
5840,5.8633699,-1.6567791,4.4292507,-250.1374054,4.1297708,250.1297760
5850,11.3388815,-1.2162483,8.8489246,-250.1374054,-92.5267181,250.1297760
5860,18.2054157,0.7110743,13.3356352,-209.6793823,-198.6946564,199.2595367
5870,19.6126022,3.3973548,17.2070389,-131.2061005,-250.1374054,102.5725174
5880,19.6126022,4.7572546,19.6126022,-56.3587799,-250.1374054,-7.1374044
5890,19.6126022,4.8913293,19.6126022,8.4045801,-209.6412201,-115.8473282
5900,19.6126022,4.1826491,19.6126022,69.2061081,-140.5954132,-216.7328186
5910,19.6126022,2.2720859,19.6126022,132.5801544,-108.9847336,-250.1374054
5920,15.9692440,1.2737088,18.4735661,201.0610657,-121.0610657,-250.1374054
5930,11.9446115,0.2513899,15.2461987,250.1297760,-148.4885559,-250.1374054
5940,8.8417416,-0.2370248,11.0108776,250.1297760,-174.7862549,-250.1374054
5950,6.9335728,-0.3447633,6.2440462,250.1297760,-190.8396912,-250.1374054
5960,5.6024032,-0.2944853,1.8171898,250.1297760,-189.2137451,-250.1374054
5970,4.0485744,-0.8571198,-1.6256547,250.1297760,-163.4732819,-250.1374054
5980,1.8171898,-2.0494261,-3.4931223,250.1297760,-132.0305328,-250.1374054
5990,-0.9433106,-3.6391680,-4.3550305,249.6259613,-101.9083939,-250.1374054
6000,-6.2823529,-5.0254035,-5.0301919,224.9007568,-77.8702316,-250.1374054
6010,-16.0099449,-5.3079181,-5.4132624,205.0534363,-80.2213745,-250.1374054
6020,-19.6131992,-3.9695661,-5.3079181,190.8702240,-137.9236603,-250.1374054
6030,-19.6131992,-0.4477134,-6.9048424,180.8396912,-215.0458069,-250.1374054
6040,-19.6131992,1.3144100,-11.8967276,141.2977142,-197.6106873,-191.7099304
6050,-19.6131992,1.1851238,-15.5598373,51.5954208,-69.8320618,-6.5343513
6060,-19.6131992,1.8315549,-15.4640694,-61.4732819,96.2977066,164.1984711
6070,-19.6131992,2.4923513,-11.7698355,-156.3969421,246.2671814,250.1297760
6080,-19.6131992,1.8195840,-7.9702568,-211.5725250,250.1297760,250.1297760
6090,-19.6131992,0.7709290,-5.4348102,-239.4961853,250.1297760,250.1297760
6100,-18.8159351,0.4333483,-3.8666160,-243.3664093,250.1297760,250.1297760
6110,-13.1991663,0.9888002,-3.8498566,-236.1145020,233.7938995,250.1297760
6120,-7.9606800,1.5059452,-4.4531922,-234.0076294,174.6488495,250.1297760
6130,-3.7828193,1.2880739,-4.7213416,-241.1374054,130.3282471,250.1297760
6140,-0.4094064,0.7900825,-3.9192882,-250.1374054,103.2061081,250.1297760
6150,2.9065459,-0.0263361,-1.8650736,-250.1374054,74.8854980,250.1297760
6160,7.1059542,-0.2489957,0.3136388,-250.1374054,27.8549614,250.1297760
6170,12.9645357,0.6991033,3.2537034,-246.9770966,-47.0992355,250.1297760
6180,19.3665981,2.6958573,6.6797886,-212.2366486,-125.9312973,250.1297760
6190,19.6126022,4.7716198,10.4003592,-166.7633514,-179.5343475,157.9618378
6200,19.6126022,6.5409255,14.0778341,-117.1755753,-185.4580078,48.9160309
6210,19.6126022,7.3310080,16.6659527,-66.6717529,-147.1068726,-66.2366409
6220,19.6126022,6.7157016,18.1024666,-9.8854961,-102.0076370,-176.7251892
6230,19.6126022,5.0780759,17.8414993,55.2137413,-88.9465637,-250.1374054
6240,15.9381189,3.8594334,15.6077213,121.0305328,-113.6335907,-250.1374054
6250,11.9422169,3.2680686,12.2438850,173.3664093,-145.4656525,-250.1374054
6260,8.8441362,3.0645626,7.9391322,206.3206177,-157.0076294,-250.1374054
6270,6.3924856,3.0023136,4.3430595,217.2900696,-141.5877838,-250.1374054
6280,4.2448978,2.5115047,1.2856797,208.6106873,-101.7175598,-250.1374054
6290,2.2792683,1.6017127,-0.4860204,190.0458069,-51.9312973,-250.1374054
6300,0.1987177,0.1029501,-1.2497669,173.5419922,-5.2213740,-250.1374054
6310,-3.5697365,-1.6232605,-2.0374553,164.6870270,31.5572510,-250.1374054
6320,-10.7786407,-2.8035958,-2.8155668,161.9084015,38.2290077,-250.1374054
6330,-19.6131992,-3.0837159,-3.5481887,163.2519073,-9.1221371,-250.1374054
6340,-19.6131992,-2.0111191,-3.7828193,172.7251892,-120.3206100,-250.1374054
6350,-19.6131992,0.9217629,-6.5648675,176.8396912,-219.8702240,-250.1374054
6360,-19.6131992,2.6695213,-11.6525202,140.0458069,-214.3740387,-127.7633591
6370,-19.6131992,3.0573800,-14.4848461,60.5190849,-116.8778610,4.8854961
6380,-19.6131992,3.0047078,-14.0227680,-35.6564903,25.2061062,123.8244247
6390,-19.6131992,3.3207407,-10.0699606,-112.3358765,140.4961853,208.5572510
6400,-19.6131992,3.0765336,-5.6143742,-146.0992432,176.4809113,250.1297760
6410,-18.9715576,2.9137285,-3.0717452,-146.8854980,154.4656525,250.1297760
6420,-17.1088772,2.9496415,-2.3127871,-132.7099304,109.4198456,250.1297760
6430,-14.6045561,3.2824337,-3.0645626,-121.2748108,69.1908417,250.1297760
6440,-11.9230633,3.4141142,-4.4986820,-123.1221390,51.3587799,250.1297760
6450,-9.3110027,3.2393384,-5.1929970,-139.1755676,56.3282433,250.1297760
6460,-7.0580707,2.5761478,-5.1953912,-165.1832123,77.8320618,250.1297760
6470,-4.6686692,1.3814473,-4.5010762,-195.6412201,105.3893127,250.1297760
6480,-2.0853391,0.1149211,-3.1268115,-226.1068726,132.3664093,250.1297760
6490,0.8666966,-1.2425843,-1.5993185,-250.1374054,151.4580078,250.1297760
6500,4.4891052,-2.8012016,0.9121862,-250.1374054,142.5190887,250.1297760
6510,9.3971939,-2.9424589,4.2233500,-250.1374054,86.8931274,250.1297760
6520,17.2764702,-1.3646880,9.4402885,-241.0839691,-11.8167934,250.1297760
6530,19.6126022,1.7238164,14.4848461,-181.2977142,-114.0229034,250.1297760
6540,19.6126022,4.1251884,18.1695042,-103.8396912,-175.8702240,133.8854980
6550,19.6126022,6.3924856,19.1990051,-26.3053436,-171.3129730,-11.3740454
6560,19.6126022,6.4978304,18.0761299,32.4580154,-122.4351120,-151.9084015
6570,19.6126022,4.0150557,16.3427372,80.9847336,-105.0916061,-250.1374054
6580,19.6126022,2.8730273,14.1041698,130.3053436,-112.3664093,-250.1374054
6590,14.9684725,1.6136837,11.4585905,173.6641235,-116.6870193,-250.1374054
6600,11.0946741,1.5298871,8.3676920,204.6564941,-109.6412201,-250.1374054
6610,7.8697009,1.5777708,5.1211715,220.6030579,-93.8931274,-250.1374054
6620,5.8035154,1.8842272,2.0542145,222.4198456,-66.4427490,-250.1374054
6630,4.0581512,1.7142396,-0.2801202,211.4732819,-28.1526718,-250.1374054
6640,2.7006457,0.6033357,-1.6879035,194.4045868,9.6564884,-250.1374054
6650,1.0175306,-1.0318956,-2.4684093,182.0229034,41.1832047,-250.1374054
6660,-1.6567791,-2.7772598,-3.5170643,176.1145020,65.0381699,-250.1374054
6670,-6.3589673,-3.9791429,-4.4340386,171.5877838,74.0152664,-250.1374054
6680,-13.7115231,-4.3933377,-4.9320302,166.2366486,59.3053436,-250.1374054
6690,-19.6131992,-3.7516949,-4.8697815,162.2442780,6.2595420,-250.1374054
6700,-19.6131992,-2.5019281,-4.7237358,162.1832123,-83.7328262,-250.1374054
6710,-19.6131992,-0.7110743,-6.5528965,159.5038147,-167.5190887,-250.1374054
6720,-19.6131992,0.8858501,-10.4027529,134.1603088,-181.0229034,-127.0687027
6730,-19.6131992,1.5873476,-13.6947641,73.0992355,-107.8320618,-12.9312973
6740,-19.6131992,1.8507085,-14.1137466,-12.7633591,16.7175579,79.3206100
6750,-19.6131992,1.7166338,-11.1497402,-86.1374054,117.3816757,142.1908417
6760,-19.6131992,1.3383518,-6.2679882,-118.8167953,148.7022858,183.5038147
6770,-19.6131992,1.2545552,-2.8419030,-112.2671738,126.0000000,214.9923706
6780,-19.6131992,1.6017127,-1.7573351,-88.0229034,79.2442780,242.9313049
6790,-18.0521889,1.9177457,-2.0183017,-64.1374054,29.4274807,250.1297760
6800,-15.6388454,2.7269819,-3.0358322,-50.8625946,4.2900763,250.1297760
6810,-13.3380299,2.9807658,-3.7229645,-50.8702278,12.5496187,250.1297760
6820,-11.0707321,2.5330524,-3.9456241,-64.2290039,40.7022896,250.1297760
6830,-8.1139078,2.0877333,-3.9623835,-83.4122162,85.0305328,250.1297760
6840,-5.5281835,1.5418580,-3.4452386,-106.0610657,133.0686951,250.1297760
6850,-2.7389526,0.7829000,-2.7772598,-129.8167877,171.4961853,250.1297760
6860,0.1939293,0.0263361,-1.8315549,-152.3511505,198.8091583,250.1297760
6870,3.2249732,-0.7230452,-0.3639168,-170.2061005,198.1068726,250.1297760
6880,7.6159167,-0.6536137,2.2720859,-173.5343475,151.4122162,250.1297760
6890,13.4194317,0.5458752,5.6478930,-153.8778687,61.5954208,250.1297760
6900,19.6126022,3.0166788,9.1745338,-108.6412201,-49.9007645,250.1297760
6910,19.6126022,6.7947097,10.9222927,-48.7328262,-128.9541931,189.2290039
6920,19.6126022,9.1601686,10.3405046,3.9083970,-142.3129730,46.0000000
6930,19.6126022,8.7172441,8.4395180,33.3969460,-111.9236679,-82.5801544
6940,19.6126022,7.1346846,7.3597383,51.1374054,-95.9770966,-176.1145020
6950,18.7632618,5.5784616,7.2136927,74.7786255,-114.1679382,-239.1679382
6960,14.0323448,4.3454537,6.5361371,106.3282471,-134.2137451,-250.1374054
6970,10.5033092,4.1539187,4.4364328,130.6030579,-135.0305328,-250.1374054
6980,8.7699156,4.9056940,1.9297167,140.2671814,-109.3206100,-250.1374054
6990,7.5919747,5.3270717,-0.4716553,134.3129730,-62.2824440,-250.1374054
7000,6.2248926,5.1379304,-1.8842272,121.1984711,-5.3282442,-250.1374054
7010,4.9368186,4.1443419,-2.6120608,109.5877838,45.1603050,-250.1374054
7020,3.5146701,2.6024840,-2.9735832,105.5954208,76.1603088,-250.1374054
7030,1.6184721,0.3782819,-3.0645626,108.5343475,86.3740463,-250.1374054
7040,-1.5538290,-1.9680238,-3.2608860,118.4809189,76.7938919,-250.1374054
7050,-6.3853035,-3.7085996,-3.5721307,132.3129730,49.8473282,-250.1374054
7060,-15.7753143,-4.4938936,-4.2113791,144.2595367,5.0381680,-250.1374054
7070,-19.6131992,-3.7325413,-5.0182209,150.8931274,-86.6564865,-250.1374054
7080,-19.6131992,-1.8459201,-6.3302369,157.2671814,-212.5343475,-250.1374054
7090,-19.6131992,-0.0263361,-9.8257532,147.6335907,-250.1374054,-164.6488495
7100,-19.6131992,2.0901275,-14.6308918,88.2595444,-178.2595367,-40.9160309
7110,-19.6131992,2.4995339,-15.5765963,-13.0305347,-11.2442751,64.5725174
7120,-19.6131992,2.3750360,-11.8440552,-106.7633591,151.0686951,141.6335907
7130,-19.6131992,1.7621235,-6.0381460,-146.2824402,223.7480927,187.6106873
7140,-19.6131992,1.2066715,-2.1164634,-138.0305328,204.8702240,221.1908417
7150,-19.5724983,1.3742647,-0.3591284,-101.5114517,133.8854980,249.7251892
7160,-16.7425671,2.0183017,-1.2401901,-62.8854980,63.9160309,250.1297760
7170,-13.5295649,2.5354466,-3.5625539,-42.6793900,24.6564884,250.1297760
7180,-10.6469603,3.0549858,-5.5521255,-44.4122124,22.6488552,250.1297760
7190,-7.9965930,3.4931223,-7.3525558,-64.5725174,54.1679382,250.1297760
7200,-6.4523406,3.5218527,-7.9630742,-100.7862625,102.3664093,250.1297760
7210,-4.5681133,3.0669568,-7.1897511,-140.4274750,150.6564941,250.1297760
7220,-2.6288199,2.6168492,-5.7340837,-175.3740387,194.1603088,250.1297760
7230,-1.0821736,1.8794388,-4.5082588,-206.0305328,230.9313049,250.1297760
7240,0.6105183,0.8236012,-3.2177906,-235.7938995,250.1297760,250.1297760
7250,2.8251436,-0.4788379,-1.2808913,-250.1374054,250.1297760,250.1297760
7260,6.1099715,-1.7645177,1.2354017,-250.1374054,217.3969421,250.1297760
7270,11.8847561,-1.9776005,4.6399393,-250.1374054,126.1145020,250.1297760
7280,19.6126022,-0.0263361,9.8951855,-233.7099304,-10.5877867,250.1297760
7290,19.6126022,4.1611013,16.4528694,-165.9007568,-138.0763397,199.5114441
7300,19.6126022,7.0365229,19.6126022,-76.9770966,-177.0915985,48.3511467
7310,19.6126022,6.0620875,19.6126022,3.1374047,-128.8473358,-93.4809189
7320,19.6126022,5.6000090,18.8614254,70.6488571,-59.6564903,-211.0458069
7330,19.6126022,3.3446827,16.5390606,140.6106873,-73.9694672,-250.1374054
7340,18.9021263,1.7788827,12.5814657,203.6564941,-114.0229034,-250.1374054
7350,13.0770626,0.8834559,7.3645267,246.9313049,-140.3969421,-250.1374054
7360,9.0308828,1.4796091,2.9448531,250.1297760,-141.1679382,-250.1374054
7370,6.3900914,2.1332228,-0.8283895,250.1297760,-115.3587799,-250.1374054
7380,4.5489597,2.0613971,-4.1587071,234.8244324,-66.3893127,-250.1374054
7390,3.5864959,1.1851238,-6.2368636,201.7175598,-2.0763359,-250.1374054
7400,1.8004304,-0.6009415,-7.4842362,172.2671814,52.6183205,-250.1374054
7410,-2.7868366,-2.5857246,-8.1977043,153.8473358,81.5648880,-250.1374054
7420,-11.4897156,-4.3023586,-9.3900108,145.7099304,64.0610657,-250.1374054
7430,-19.6131992,-4.3310885,-9.9837704,144.7557220,-33.8320618,-250.1374054
7440,-19.6131992,-2.5569944,-10.9893293,144.4885559,-169.3511505,-250.1374054
7450,-19.6131992,-0.4022238,-13.6013899,124.5877838,-250.1374054,-250.1374054
7460,-19.6131992,0.8906385,-16.0793762,72.5267181,-250.1374054,-167.3206177
7470,-19.6131992,1.3263810,-17.2836533,-15.4503813,-156.2748108,-50.4809151
7480,-19.6131992,0.8714849,-15.1097298,-116.6870193,16.8931293,48.8473282
7490,-19.6131992,0.0790083,-8.9686337,-184.1984711,133.1603088,116.0992355
7500,-19.6131992,-0.7038917,-3.2321558,-195.5419922,154.8320618,160.3816833
7510,-19.6131992,-0.5913648,0.1891410,-166.1984711,105.3282471,191.8167877
7520,-19.6131992,0.1268920,1.2138541,-119.9694672,31.0610695,216.7022858
7530,-18.3586445,0.7445929,0.4620786,-77.2366409,-31.0305347,244.5648804
7540,-15.6556044,1.1635761,-1.0007712,-52.5114517,-52.1145020,250.1297760
7550,-12.6532917,1.4269369,-2.4995339,-46.2595406,-36.8320618,250.1297760
7560,-9.6629486,1.8411317,-4.1251884,-54.2671738,6.4809160,250.1297760
7570,-7.5536675,1.9871773,-5.2720051,-76.0687027,65.2366409,250.1297760
7580,-5.3749552,1.7740943,-5.8777351,-109.4427490,125.9694672,250.1297760
7590,-3.2369442,0.9888002,-5.9974446,-149.4961853,182.4274750,250.1297760
7600,-0.9217629,-0.1436514,-5.3653784,-193.9313049,230.6488495,250.1297760
7610,1.5346755,-1.1324517,-3.6702924,-235.5343475,250.1297760,250.1297760
7620,4.6423335,-2.4755919,-1.0821736,-250.1374054,250.1297760,250.1297760
7630,9.2415714,-2.4803803,1.9321109,-250.1374054,208.0000000,250.1297760
7640,16.6755295,-0.7038917,6.4140334,-250.1374054,109.3053436,250.1297760
7650,19.6126022,2.7293761,12.2390966,-215.9313049,-12.8244276,250.1297760
7660,19.6126022,5.7676024,16.8838234,-139.0305328,-100.9847336,135.2824402
7670,19.6126022,6.8066807,17.8510761,-55.8320618,-121.0610657,-11.9083967
7680,19.6126022,5.9375896,16.8239689,14.7633591,-100.4198456,-135.9694672
7690,19.6126022,4.7620430,15.0450869,76.7404556,-102.6412201,-222.5419922
7700,17.9348736,3.7349355,12.7873659,131.3893127,-131.0763397,-250.1374054
7710,13.2733860,3.0334380,10.1609402,175.5801544,-149.0076294,-250.1374054
7720,9.4474716,3.0310438,7.1825686,207.3358765,-142.7709961,-250.1374054
7730,6.9910331,3.5529771,4.0964580,224.3969421,-113.2213745,-250.1374054
7740,5.4324160,4.0342093,0.8690908,225.6564941,-61.8167953,-250.1374054
7750,4.0916696,4.1060348,-2.0278785,211.4961853,-1.3435115,-250.1374054
7760,2.9975252,3.8498566,-4.3526363,187.9389343,56.0152664,-250.1374054
7770,2.3319404,2.8059900,-5.7915444,164.6335907,95.5954208,-250.1374054
7780,0.7350162,1.1755470,-6.9359670,149.4198456,113.1832047,-250.1374054
7790,-2.5857246,-0.4548960,-7.7332320,143.9313049,105.9007645,-250.1374054
7800,-8.7842808,-1.5059452,-8.6262646,141.5648804,79.8931274,-250.1374054
7810,-19.6131992,-1.4652439,-9.7084379,137.7480927,8.6106873,-250.1374054
7820,-19.6131992,-0.0646431,-9.7012558,135.3206177,-133.9389343,-250.1374054
7830,-19.6131992,0.7589580,-10.3045912,135.0686951,-250.1374054,-231.8702240
7840,-19.6131992,2.9807658,-13.4194317,111.5496216,-250.1374054,-127.2519073
7850,-19.6131992,4.3598189,-16.0841656,43.8473282,-198.4351196,-37.3511467
7860,-19.6131992,3.9025288,-15.5813847,-50.3587799,-50.0610695,46.3206100
7870,-19.6131992,2.9927368,-12.0188313,-133.7786255,90.7862625,116.8854980
7880,-19.6131992,2.0470319,-7.4076223,-175.0229034,152.9313049,169.3816833
7890,-19.6131992,1.5610116,-4.0030847,-176.0915985,139.5267181,208.9541931
7900,-19.4264526,1.4987626,-2.3079987,-154.9007568,83.5877838,239.3664093
7910,-16.3690739,1.8219782,-2.3870070,-128.8320618,19.4580154,250.1297760
7920,-13.1225519,2.2840567,-3.2273674,-112.4045792,-18.3587780,250.1297760
7930,-10.5823174,2.6599445,-4.0677280,-110.2824402,-22.3740463,250.1297760
7940,-8.6502066,2.7174051,-4.2472920,-119.1297684,-0.7175573,250.1297760
7950,-7.0820122,2.3894010,-4.0030847,-135.0839691,30.1679382,250.1297760
7960,-5.0086441,1.6376256,-3.2201848,-153.0229034,57.6335869,250.1297760
7970,-1.9249283,0.9528874,-2.4971397,-168.6793823,73.3893127,250.1297760
7980,1.2856797,0.2394189,-2.1691356,-181.4503784,69.7404556,250.1297760
7990,6.2775645,0.3567342,-1.2401901,-187.6717529,36.6183205,250.1297760
8000,11.3867655,1.0271072,0.6536137,-183.0458069,-15.9770994,250.1297760
8010,17.0178986,2.8849983,2.8969693,-169.2519073,-63.5190849,250.1297760
8020,19.6126022,5.3174949,5.9926562,-147.6030579,-98.8931274,236.2290039
8030,19.6126022,7.5249376,9.3828287,-116.3587799,-104.9160309,136.0000000
8040,19.6126022,8.5520449,12.2343082,-78.4045792,-79.6030502,30.5496178
8050,19.6126022,8.0803890,14.0802279,-30.6564884,-46.3206100,-64.1297684
8060,19.6126022,7.0125809,14.5231533,27.2290077,-34.9236641,-134.9923706
8070,16.3403435,5.9974446,13.0842457,89.9236679,-53.5190849,-184.7557220
8080,12.2390966,5.3988972,10.1633339,141.3511505,-77.6870193,-219.5572510
8090,8.7770987,5.3127065,6.9263902,176.1679382,-90.5877838,-239.2671814
8100,6.6558466,6.0165982,4.2520804,195.7022858,-85.6870193,-250.1374054
8110,5.2073622,6.3446021,2.0973101,203.0229034,-70.6488571,-250.1374054
8120,4.0174499,6.5074067,0.0095768,200.4580078,-50.2137413,-250.1374054
8130,2.7078283,6.3015065,-1.4987626,193.5725250,-31.8931293,-250.1374054
8140,0.9792235,5.3797436,-2.8730273,185.0839691,-24.8320618,-250.1374054
8150,-2.1260402,4.1898317,-4.0437860,176.6717529,-38.4809151,-250.1374054
8160,-6.8641410,3.2010312,-4.8985114,170.6870270,-74.2290039,-250.1374054
8170,-12.2055779,2.9999194,-4.9128766,171.9541931,-120.1221390,-250.1374054
8180,-18.5980644,2.7964132,-6.7947097,170.8854980,-181.5801544,-250.1374054
8190,-19.6131992,3.7804251,-8.6909075,154.7480927,-233.2900696,-250.1374054
8200,-19.6131992,4.7404952,-10.1010857,123.1450348,-247.9160309,-179.9694672
8210,-19.6131992,5.3653784,-11.7075863,78.6106873,-207.4045868,-82.8778610
8220,-19.6131992,6.8904772,-12.7801828,17.3893127,-109.1908417,8.0839691
8230,-19.6131992,6.7348547,-12.4593620,-53.9312973,13.5496187,86.0000000
8240,-19.6131992,6.0309634,-10.1633339,-116.7633591,121.2824402,153.3282471
8250,-19.6131992,5.0996237,-6.7468257,-154.9007568,184.4122162,208.0534363
8260,-18.6746769,4.1970143,-4.4555864,-172.0763397,207.5038147,250.1297760
8270,-16.3762550,3.9049230,-2.8131726,-177.3740387,206.1145020,250.1297760
8280,-13.8551741,3.7660601,-2.0015423,-176.5801544,195.5725250,250.1297760
8290,-11.1808643,3.5984666,-1.9632354,-178.3206177,187.8396912,250.1297760
8300,-8.6166878,3.2704628,-2.0326669,-185.1755676,186.9389343,250.1297760
8310,-5.9854736,2.8754215,-1.7621235,-197.2519073,191.3969421,250.1297760
8320,-3.2632802,2.1547706,-0.8738791,-208.9770966,191.5725250,250.1297760
8330,-0.5075682,1.3239868,0.3471575,-217.2442780,178.4732819,250.1297760
8340,3.1268115,0.4333483,1.9033806,-218.2595367,143.7251892,250.1297760
8350,8.7675219,0.7350162,3.8187323,-208.4732819,78.1374054,250.1297760
8360,15.2916880,2.0470319,6.1171541,-182.8473358,-11.0152674,250.1297760
8370,19.6126022,4.4579806,8.2216463,-145.2366486,-91.1679382,206.2442780
8380,19.6126022,6.2344694,9.7299862,-105.6793900,-137.4122162,96.3358765
8390,19.6126022,7.2950954,11.5088692,-66.3740463,-138.6488495,-16.9160309
8400,19.6126022,5.9878678,12.8783455,-9.2671757,-82.6641235,-116.6793900
8410,19.6126022,4.9056940,13.9868546,38.1526718,-63.4351158,-184.4885559
8420,16.2349987,5.3941088,12.5647058,67.8167953,-96.4580154,-216.1908417
8430,13.2374735,5.6933827,10.0555954,89.7557220,-116.8091583,-233.2977142
8440,11.9015160,5.1882086,7.4100165,113.7328262,-89.5038147,-250.1374054
8450,9.5671806,4.9799142,4.6830344,134.2595367,-42.3282433,-250.1374054
8460,7.5297260,5.2839761,2.1739240,144.0076294,-8.9694653,-250.1374054
8470,5.8705525,5.5640965,-0.2489957,142.9313049,13.5267172,-250.1374054
8480,4.1994085,5.0277977,-2.1858950,133.5725250,31.4274807,-250.1374054
8490,2.2242019,3.6248028,-2.8203552,123.3282471,39.6564903,-250.1374054
8500,-0.3926471,1.7549409,-2.9448531,119.8015289,31.0381680,-250.1374054
8510,-3.5481887,0.3256098,-2.8634505,125.5801544,10.3587790,-250.1374054
8520,-8.0325060,-0.6679789,-3.0478032,133.7404633,-18.4427490,-250.1374054
8530,-13.7570124,-1.0151364,-3.4452386,137.0305328,-54.9236641,-250.1374054
8540,-19.6131992,-0.7541697,-3.6678982,133.9160309,-100.1068726,-250.1374054
8550,-19.6131992,0.3136388,-3.6415622,130.0992432,-164.2061005,-250.1374054
8560,-19.6131992,1.5059452,-3.9001346,133.2137451,-232.5801544,-229.0152740
8570,-19.6131992,2.9855542,-7.3310080,122.2137375,-224.5648804,-133.3893127
8580,-19.6131992,3.5649481,-10.8504667,71.4885483,-133.8167877,-33.9312973
8590,-19.6131992,3.6942344,-11.8105364,-3.2671757,-18.2137413,66.5114517
8600,-19.6131992,3.2632802,-10.5104914,-73.5496216,90.3511429,151.5190887
8610,-19.6131992,2.7748656,-7.3405848,-121.1755753,158.2366486,214.1984711
8620,-19.2157650,2.2696917,-4.4603748,-142.2061005,175.8320618,250.1297760
8630,-17.2956238,1.9967541,-2.3606708,-144.4503784,161.6412201,250.1297760
8640,-14.8774929,2.1140692,-1.4317253,-136.8778687,138.4885559,250.1297760
8650,-11.9924946,2.1547706,-1.4700323,-128.6412201,116.0687027,250.1297760
8660,-9.1553802,2.3846128,-1.9895715,-127.8167953,107.0916061,250.1297760
8670,-6.4834652,2.4708035,-2.3223639,-135.5496216,114.5496216,250.1297760
8680,-4.3574247,2.1882892,-2.3295465,-150.1984711,129.8854980,250.1297760
8690,-2.2074428,1.4676381,-1.4436963,-166.9923706,139.7022858,250.1297760
8700,0.6057299,0.5817881,-0.0957676,-178.4732819,130.4427490,250.1297760
8710,5.0325861,0.0981618,1.8459201,-176.3053436,78.3969498,250.1297760
8720,10.9989061,1.3287752,3.6128318,-153.3969421,-12.3893127,250.1297760
8730,17.7193966,3.6726866,5.9184365,-113.0839691,-109.1374054,250.1297760
8740,19.6126022,6.8042865,7.5608501,-67.4885483,-179.4961853,190.1068726
8750,19.6126022,9.3397331,8.8010406,-27.8015270,-195.9007568,81.4656525
8760,19.6126022,10.0986910,9.0476418,-0.7404580,-160.9160309,-25.7938938
8770,19.6126022,9.7658987,9.5552101,21.1068707,-109.3816757,-113.2671738
8780,19.6126022,8.6286592,9.2894554,49.0610695,-73.4045792,-178.4045868
8790,15.7058830,7.1945391,8.2000990,82.0076370,-62.1068687,-230.5572510
8800,10.8097658,5.8011212,6.7228842,110.3282471,-65.6030502,-250.1374054
8810,7.0149751,5.5114241,4.9320302,132.9618378,-76.0839691,-250.1374054
8820,4.9009056,5.8873119,2.9544299,147.0915985,-77.9847336,-250.1374054
8830,3.3805954,5.8992829,1.1444225,149.8396912,-65.9770966,-250.1374054
8840,1.7333932,5.4611464,-0.2657550,143.8702240,-45.9694672,-250.1374054
8850,0.4548960,4.6399393,-1.1252691,135.6106873,-21.6183205,-250.1374054
8860,-1.3287752,3.6391680,-1.5179161,129.1603088,1.4809160,-250.1374054
8870,-3.8235207,2.7820482,-2.0829449,126.3740463,20.3206100,-250.1374054
8880,-6.7157016,2.1978660,-2.3917952,124.5267181,33.7251892,-250.1374054
8890,-10.1178446,1.7788827,-2.4995339,122.9618301,39.7480927,-250.1374054
8900,-13.5128050,1.7238164,-2.5833304,122.8625946,35.6793900,-250.1374054
8910,-17.3028069,1.6711442,-3.2106080,123.6183243,20.7404575,-250.1374054
8920,-19.6131992,2.0590029,-4.7979555,122.4809189,-4.6793895,-193.9160309
8930,-19.6131992,2.9472473,-6.9000540,116.5648880,-51.3282433,-119.4961853
8940,-19.6131992,4.1515245,-9.3828287,101.9160309,-80.2213745,-44.0610695
8950,-19.6131992,5.0972295,-12.2247314,65.3664093,-46.9007645,27.4274807
8960,-19.1056328,5.3725610,-13.5295649,8.6030531,29.3740463,90.9389343
8970,-17.9396610,5.5760674,-12.9812956,-53.8015251,107.8015289,146.4885559
8980,-17.1232433,5.4132624,-10.4171181,-100.9465637,163.4198456,190.8549652
8990,-16.2349987,5.1115947,-7.7619624,-126.3816757,185.6183167,227.6335907
9000,-15.0666342,4.9655490,-5.7484488,-134.6259613,180.5267181,250.1297760
9010,-13.7474356,4.6782460,-4.4867110,-133.9236603,161.2595367,250.1297760
9020,-11.6094246,4.5130472,-3.6942344,-131.3435059,139.8625946,250.1297760
9030,-8.9782104,4.3406653,-3.3901722,-132.0152740,129.0076294,250.1297760
9040,-6.1578555,4.1060348,-3.5673423,-138.4503784,133.8702240,250.1297760
9050,-3.8618276,4.0222383,-3.5673423,-151.2671814,150.2519073,250.1297760
9060,-2.1906834,3.4596038,-3.2513094,-170.3816833,171.2519073,250.1297760
9070,-0.3998296,2.9903426,-2.0637913,-189.4503784,183.4656525,250.1297760
9080,1.6759326,2.2313845,-0.4572902,-201.6793823,176.3129730,250.1297760
9090,4.2784166,1.8267666,1.0103480,-200.8702240,137.3511505,250.1297760
9100,9.0644016,2.8634505,3.1100521,-183.3816833,60.2442741,250.1297760
9110,14.3028879,4.6136031,4.9272418,-149.6793823,-34.6412201,250.1297760
9120,19.4480019,7.0987716,6.5145893,-108.2519073,-117.4503784,170.5648804
9130,19.6126022,8.9111729,7.6254935,-66.0916061,-167.3206177,74.3053436
9140,19.6126022,9.7802639,7.9678626,-29.9083977,-170.5496216,-19.5572510
9150,19.6126022,9.9574337,8.0660238,-0.2595420,-139.2213745,-101.2213745
9160,18.0282459,9.2319946,8.1570034,27.9618320,-105.1297684,-166.2137451
9170,14.2143030,8.0181408,7.8601241,60.6183205,-92.9007645,-216.2061005
9180,10.8121595,7.1801744,6.9096308,94.8854980,-95.7251892,-250.1374054
9190,7.6039457,6.2895355,5.6862001,125.4045792,-103.2061081,-250.1374054
9200,4.6303625,6.0620875,3.9432299,147.8320618,-107.8167953,-250.1374054
9210,2.7581062,6.1267309,1.9776005,159.6793823,-103.5877838,-250.1374054
9220,1.6352314,5.8633699,-0.1628049,157.8091583,-87.2977066,-250.1374054
9230,0.8068419,5.1834202,-1.6304430,147.8625946,-63.8091621,-250.1374054
9240,-0.3447633,4.4388270,-2.9640064,136.8396912,-36.4885483,-250.1374054
9250,-2.3295465,3.4476328,-4.1419477,124.5496216,-12.2290077,-250.1374054
9260,-5.3270717,2.7748656,-4.9631548,112.7328262,-0.3740458,-250.1374054
9270,-9.4522600,2.3965836,-5.1786318,100.3816757,-0.7022901,-250.1374054
9280,-15.6484222,2.3486998,-4.9607606,94.8320618,-17.0458012,-250.1374054
9290,-19.6131992,2.7868366,-4.3933377,93.2595444,-56.4885483,-250.1374054
9300,-19.6131992,3.8929520,-4.6112089,98.4198456,-100.3969498,-185.0152740
9310,-19.6131992,4.6255741,-5.8992829,96.8702316,-122.5267181,-103.8244247
9320,-19.6131992,4.9583664,-7.6446471,80.0076370,-105.5343475,-20.5496178
9330,-19.6131992,5.1642666,-9.3469152,43.7251892,-44.5038185,59.1832047
9340,-19.6131992,5.4731169,-9.3133974,-5.0763359,31.8244267,129.5877838
9350,-17.4703999,5.4874821,-8.1043310,-48.7022896,98.7099228,185.1068726
9360,-15.9572725,4.9559722,-5.8466105,-77.0610657,145.8931274,229.6488495
9370,-14.7865143,4.5417776,-3.3662305,-87.8854980,165.9618378,250.1297760
9380,-13.1417055,3.9192882,-1.9704180,-85.2213745,166.1679382,250.1297760
9390,-10.2638903,3.5338237,-2.4468615,-76.5572510,160.3969421,250.1297760
9400,-7.1466556,3.7636659,-3.9216824,-73.8244247,163.3358765,250.1297760
9410,-4.5776901,4.0677280,-5.4539638,-85.2137375,172.1297760,250.1297760
9420,-2.2433555,4.0773048,-6.0764527,-109.6183243,184.3206177,250.1297760
9430,-0.2035061,3.7684543,-5.9950504,-138.7633514,198.5572510,250.1297760
9440,1.3144100,3.0238612,-5.0134325,-167.3206177,211.7404633,250.1297760
9450,2.7796540,2.3654592,-3.6894460,-190.4503784,209.5038147,250.1297760
9460,5.1953912,1.6280488,-1.7860653,-203.2748108,176.4503784,250.1297760
9470,8.5041609,1.8578910,0.7948709,-199.3358765,107.3282471,250.1297760
9480,13.2973280,3.0334380,3.5936785,-176.2900696,11.6412210,250.1297760
9490,18.9715576,4.8602047,6.3853035,-136.3206177,-94.4274826,204.2519073
9500,19.6126022,6.7971039,8.0133524,-87.0000000,-177.9847260,111.6030502
9510,19.6126022,7.8720951,8.4538832,-40.3587799,-210.1145020,15.4427481
9520,19.6126022,8.4395180,8.3581152,-3.2290077,-191.4427490,-75.2977066
9530,19.6126022,8.2024927,7.8625183,22.5877857,-152.9084015,-145.1832123
9540,17.6403885,7.2328463,7.5584559,48.7099228,-123.3358765,-191.0305328
9550,13.8719339,6.3948798,6.8234401,77.9923630,-112.6564865,-221.7786255
9560,10.7882175,5.7173243,5.5329719,106.0229034,-105.7022934,-247.8244324
9570,8.4179697,5.6071916,4.0844874,131.6412201,-98.9694672,-250.1374054
9580,6.4379754,5.8298512,1.8842272,146.1603088,-89.1450348,-250.1374054
9590,4.7285242,5.7245069,-0.0933734,149.6259613,-81.9007645,-250.1374054
9600,3.3231349,5.3869262,-1.5825592,145.7480927,-75.2824402,-250.1374054
9610,1.9728121,4.7213416,-2.3726418,139.9236603,-66.8015289,-250.1374054
9620,0.0837966,3.6750808,-3.1699069,135.9465637,-63.5725174,-250.1374054
9630,-2.2002602,2.5785420,-3.6367738,133.5419922,-67.1984711,-250.1374054
9640,-7.8050575,1.6615674,-4.0318151,132.8549652,-77.6335907,-250.1374054
9650,-16.9819851,1.5274929,-4.7835903,131.0381622,-108.6183243,-250.1374054
9660,-19.6131992,2.2050486,-4.9823084,132.3206177,-176.0076294,-250.1374054
9670,-19.6131992,3.8546450,-6.2584114,134.3664093,-229.8778687,-214.2824402
9680,-19.6131992,3.7804251,-9.2750902,123.7938919,-220.6488495,-105.0457993
9690,-19.6131992,4.6447277,-11.5854826,87.3129807,-128.1984711,6.4198475
9700,-19.6131992,5.4228392,-11.7434988,19.6030540,1.9007634,111.0076370
9710,-19.6131992,5.4922705,-10.5847120,-55.0076332,121.0381699,196.7786255
9720,-16.9149494,4.7979555,-7.2711535,-106.8854980,206.0000000,250.1297760
9730,-14.2286682,4.2209558,-5.3007355,-125.6717529,245.3511505,250.1297760
9740,-11.7339230,4.1539187,-5.2217274,-134.7709961,250.1297760,250.1297760
9750,-9.0524302,4.0557570,-5.6383162,-144.7480927,250.1297760,250.1297760
9760,-6.0357518,4.0294209,-6.1746144,-160.1908417,250.1297760,250.1297760
9770,-3.2513094,4.0318151,-6.0333576,-181.7557220,249.9160309,250.1297760
9780,-1.1300575,3.6966286,-5.4084740,-206.8854980,250.1297760,250.1297760
9790,0.7517755,2.5953014,-4.4412212,-233.4198456,250.1297760,250.1297760
9800,2.5641768,1.4700323,-2.8323262,-250.1374054,240.9541931,250.1297760
9810,5.6311336,0.7805058,-0.5650287,-250.1374054,195.8549652,250.1297760
9820,9.7922344,1.1899122,1.9009864,-250.1374054,120.0839691,250.1297760
9830,16.3499203,3.0454090,5.4060798,-238.7709961,20.4427490,250.1297760
9840,19.6126022,5.1307478,9.3636751,-194.8015289,-83.3740463,169.0915985
9850,19.6126022,6.2943239,12.2199430,-136.0992432,-158.6488495,63.3358765
9860,19.6126022,7.0676475,13.2685976,-74.9542007,-173.5954132,-36.0000000
9870,19.6126022,7.7547798,13.3476067,-23.2824421,-140.6030579,-122.4122162
9880,19.6126022,7.0341287,12.8137016,22.3206100,-110.5954208,-188.7709961
9890,16.8957958,5.6957769,11.6597023,67.6793900,-110.5419846,-233.4961853
9900,13.5822372,4.9679432,9.3804340,105.5572510,-115.4885483,-250.1374054
9910,10.6110477,4.4077029,6.4547348,139.3511505,-107.5496216,-250.1374054
9920,8.0923605,4.6088147,3.6894460,161.6488495,-84.3664093,-250.1374054
9930,6.1171541,4.8362627,1.4484847,169.6335907,-60.5572510,-250.1374054
9940,4.6327567,4.7500720,-0.4860204,164.5954132,-36.1984749,-250.1374054
9950,3.5936785,4.2808108,-1.9297167,154.9007568,-7.0916033,-250.1374054
9960,2.5474176,3.3351059,-2.7652888,146.5419922,20.9770985,-250.1374054
9970,1.1132981,2.0254843,-3.4284792,143.3816833,36.0305328,-250.1374054
9980,-1.1204807,0.7541697,-4.0653338,144.3358765,38.1603050,-250.1374054
9990,-4.3885493,-0.2130829,-4.7237358,145.3893127,33.3129768,-250.1374054
