timestamp,acclX,acclY,acclZ,gyroX,gyroY,gyroZ
0,4.1204000,0.5769997,8.7435799,-15.7099237,-12.6870232,-6.8167939
10,3.8714044,0.3375807,8.9446917,-18.5801525,-8.9389315,-8.2595415
20,4.4244623,-0.2825144,9.0835552,-22.8473282,1.0229008,-8.6335878
30,3.4667864,0.0909792,10.7451220,-21.9160309,24.1603050,-7.2366414
40,2.5402350,0.2944853,10.5464048,-15.8320608,10.8854961,-3.0458016
50,2.8610563,0.0814024,10.6062593,-7.0992365,3.7786260,0.9312977
60,2.9209111,-0.0861908,10.5631638,1.4580153,4.6335878,4.1679387
70,2.6575503,-0.0287303,10.3021975,6.5190840,0.3893130,8.7786255
80,2.6767037,-0.0885850,10.1992474,13.9770994,-8.9389315,15.9923668
90,2.6814921,-0.1651991,10.4003592,18.6106873,-15.5801525,17.9618320
100,2.6647329,-0.1867468,10.4027529,23.2671757,-21.5343513,19.9847336
110,2.6383967,-0.3926471,10.2088242,27.2824421,-27.8625946,21.8702297
120,2.8419030,-0.5626345,9.8305416,29.1297703,-33.0152664,24.0305347
130,2.9209111,-0.4644727,9.6294298,28.5419846,-36.7709923,26.3282452
140,2.9185169,-0.6009415,9.3325500,26.2748089,-39.1526718,29.4198475
150,2.8203552,-0.7541697,9.1960821,22.1450386,-43.9236641,32.4122124
160,2.6336083,-0.8475431,9.4211359,17.3129768,-51.0458031,35.2213745
170,2.5354466,-0.7805058,9.7251978,13.9694653,-57.3816795,36.9771004
180,2.4564383,-0.6799498,10.0579901,12.8854961,-63.4809151,38.9847336
190,2.4660151,-0.8619082,10.4099360,13.8015270,-68.9923630,39.6564903
200,2.6144550,-1.2593436,10.8648319,15.6793890,-74.8549652,38.8244286
210,2.2242019,-1.8459201,11.8225079,20.8244267,-81.1755753,41.7099228
220,2.0566087,-1.7717001,12.4641504,30.0610695,-90.5725174,46.0228996
230,1.9991482,-1.8626794,13.0555153,44.5343513,-101.7786255,51.7633591
240,1.9560528,-1.8650736,13.4481621,63.1221390,-117.1832047,57.2748108
250,1.9704180,-1.9488702,13.6827927,83.3816757,-133.5954132,62.9618340
260,1.6448082,-2.0685797,14.0395269,106.0076370,-156.3816833,70.7709961
270,1.6184721,-2.2433555,14.3771076,136.9160309,-183.1679382,82.0916061
280,1.9560528,-2.4636209,14.0658627,170.1526642,-207.3206177,93.2595444
290,2.5306582,-2.7461352,13.3978844,204.3129730,-230.2977142,105.0687027
300,3.1411765,-2.8873925,12.2367020,234.3664093,-247.6488495,113.5572510
310,3.7516949,-2.6982515,10.6828737,250.1297760,-250.1374054,120.3969498
320,4.7740140,-2.7126167,9.0476418,250.1297760,-250.1374054,125.2977066
330,5.6718349,-2.7844424,7.4626884,250.1297760,-250.1374054,127.5190811
340,6.1841912,-2.6192431,5.9615316,250.1297760,-249.0000000,129.6259613
350,6.7851329,-2.7269819,4.8075323,250.1297760,-231.8854980,131.9007568
360,7.3142486,-2.5067163,3.9528067,250.1297760,-219.4045868,132.6564941
370,9.0380650,-2.6240315,2.7892308,250.1297760,-218.3587799,129.7633514
380,12.9836893,-1.5634058,0.9457048,250.1297760,-225.8778687,117.7328262
390,17.2716827,0.8954269,-1.9249283,250.1297760,-229.9847260,89.0687027
400,19.6126022,3.6271970,-5.5401545,250.1297760,-222.3740387,44.8931313
410,19.6126022,6.2488346,-9.7395630,231.7633514,-206.6183167,-4.9618320
420,19.6126022,7.9798336,-13.0124197,176.2137451,-187.1679382,-56.2137413
430,19.6126022,8.2000990,-14.5638542,115.5725174,-175.1755676,-99.1908417
440,18.1192265,7.8960366,-14.9780493,59.7099228,-172.0305328,-128.9923706
450,14.9349537,7.4938130,-15.2581692,11.1679392,-168.1297760,-142.8702240
460,12.2151546,7.2783360,-15.8303804,-38.1374054,-168.3435059,-140.8625946
470,11.3628235,7.2711535,-15.8591108,-89.7862625,-167.3969421,-132.5801544
480,11.6620970,7.1083484,-15.2390156,-140.6030579,-156.0229034,-126.2824402
490,12.1313581,6.6630292,-14.0299501,-187.2900696,-141.3587799,-124.2900772
500,12.5694942,6.0429344,-12.6030130,-229.2366486,-119.6183243,-125.9389343
510,12.7466650,4.9392128,-10.9845409,-250.1374054,-91.8854980,-131.1374054
520,12.4090843,3.7469065,-8.9351149,-250.1374054,-67.5343475,-139.4198456
530,11.9374285,2.4037662,-6.7013364,-250.1374054,-45.3053436,-149.3053436
540,10.9582052,0.9983770,-4.6207857,-250.1374054,-27.0458012,-158.7633514
550,9.7994175,-0.0670373,-2.5593886,-250.1374054,-17.8015270,-167.7633514
560,8.6861191,-1.1683644,-0.5937590,-250.1374054,-17.8931293,-175.9541931
570,7.9247670,-2.2050486,1.0318956,-250.1374054,-27.0305347,-183.6488495
580,7.3741035,-3.3231349,3.0621684,-250.1374054,-51.0992355,-192.0381622
590,7.5512733,-4.1515245,4.9440012,-250.1374054,-83.6717529,-201.4580078
600,8.0157461,-5.1786318,7.1610208,-250.1374054,-128.1374054,-209.8396912
610,9.3708572,-5.7556314,9.9502516,-250.1374054,-181.8015289,-218.4427490
620,11.2790270,-5.8705525,12.7969427,-250.1374054,-227.7175598,-229.2671814
630,12.9812956,-5.9735026,15.6412401,-250.1374054,-250.1374054,-241.9465637
640,14.4561157,-5.8298512,18.0569763,-218.8854980,-250.1374054,-250.1374054
650,15.6651812,-5.7101417,19.6126022,-168.9770966,-247.4274750,-250.1374054
660,15.9261484,-5.3438311,19.6126022,-113.8854980,-220.1679382,-250.1374054
670,14.8056679,-5.3366485,19.6126022,-54.8015251,-187.0229034,-250.1374054
680,12.8974981,-5.0301919,19.6126022,5.9541984,-162.6412201,-250.1374054
690,11.2191715,-4.5010762,19.6126022,66.9083939,-153.5648804,-250.1374054
700,9.8042059,-3.6295912,17.8893833,123.4122162,-154.1374054,-250.1374054
710,9.2272062,-2.5689652,15.1863441,171.4961853,-147.4580078,-250.1374054
720,8.5328913,-1.3934183,12.1169930,211.6106873,-124.4045792,-250.1374054
730,7.6446471,-0.6464311,8.6597834,242.0152740,-92.4885483,-250.1374054
740,6.5840211,0.1292862,6.5409255,250.1297760,-67.1145020,-250.1374054
750,5.6502872,0.4860204,3.1675127,250.1297760,-50.9389305,-250.1374054
760,4.2879934,-0.2609667,-0.9552816,250.1297760,-47.8854980,-250.1374054
770,2.8538737,-1.2832855,-5.1092005,250.1297760,-65.6641235,-250.1374054
780,-0.0718257,-2.3463056,-7.8888540,250.1297760,-98.5038147,-250.1374054
790,-4.7883787,-2.9472473,-10.0867205,250.1297760,-135.6641235,-250.1374054
800,-12.8496151,-1.5681942,-11.5639353,223.8167877,-188.7022858,-250.1374054
810,-19.6131992,0.8930327,-12.2079716,187.4198456,-250.1374054,-250.1374054
820,-19.6131992,2.5761478,-11.6094246,147.3435059,-250.1374054,-250.1374054
830,-19.6131992,4.9128766,-11.0731258,106.2366409,-250.1374054,-250.1374054
840,-19.6131992,7.3166428,-12.5192165,54.3740463,-250.1374054,-141.6793823
850,-19.6131992,7.2184811,-13.5798426,-17.8702297,-151.9541931,-0.5801527
860,-19.6131992,6.2272868,-12.7801828,-100.7709961,25.2061062,123.9312973
870,-19.6131992,5.7891502,-8.9686337,-168.4198456,129.4427490,221.3511505
880,-19.6131992,4.5537481,-4.9823084,-197.1374054,160.0839691,250.1297760
890,-19.4575768,3.4165084,-2.0254843,-198.9694672,155.5801544,250.1297760
900,-15.4473104,2.4372849,-0.5195391,-192.2977142,148.2671814,250.1297760
910,-11.7554703,1.5083394,0.4094064,-189.4198456,156.4580078,250.1297760
920,-8.4227581,0.5099624,0.9050036,-191.7862549,181.7022858,250.1297760
930,-4.5705075,-0.5434810,1.0630201,-199.4427490,220.1297760,250.1297760
940,-1.0031654,-1.9776005,0.7972651,-216.8167877,250.1297760,250.1297760
950,2.3151813,-3.5936785,0.9672526,-245.1068726,250.1297760,250.1297760
960,7.0604649,-5.1259594,2.5282640,-250.1374054,250.1297760,250.1297760
970,14.5949793,-5.1403246,6.1985564,-250.1374054,212.0534363,250.1297760
980,19.6126022,-2.1978660,13.1297350,-250.1374054,71.5725174,250.1297760
990,19.6126022,2.3846128,19.6126022,-188.7633514,-63.8702278,178.2290039
1000,19.6126022,5.2791877,19.6126022,-86.3435135,-111.1145020,-3.5725191
1010,19.6126022,3.9288650,19.6126022,19.8167934,-78.4198456,-171.8625946
1020,19.6126022,1.5203103,19.6126022,110.4732819,-72.8167953,-250.1374054
1030,19.6126022,0.0071826,16.1320477,180.1297760,-124.7251892,-250.1374054
1040,13.8336267,-0.6727672,12.1983957,227.9084015,-182.7709961,-250.1374054
1050,9.2248116,-0.5722113,8.6262646,250.1297760,-211.2213745,-250.1374054
1060,6.2655940,-0.1316804,5.0876527,250.1297760,-200.7175598,-250.1374054
1070,4.0174499,-0.3280039,1.8722562,250.1297760,-160.9084015,-250.1374054
1080,2.1404054,-1.4676381,-1.0630201,250.1297760,-109.7404556,-250.1374054
1090,-0.0191535,-2.5857246,-2.6910689,233.6564941,-53.9389305,-250.1374054
1100,-3.4452386,-3.8714044,-4.1946201,214.7175598,-0.7786260,-250.1374054
1110,-11.6860390,-4.6471219,-5.9447722,200.7099304,17.5114498,-250.1374054
1120,-19.6131992,-3.7038112,-7.2065101,189.7786255,-29.9236641,-250.1374054
1130,-19.6131992,-0.4501076,-8.1833391,178.9313049,-141.1526642,-250.1374054
1140,-19.6131992,2.1212518,-10.3524752,162.6259613,-250.1374054,-250.1374054
1150,-19.6131992,3.5553713,-13.1321287,127.0152664,-250.1374054,-138.1068726
1160,-19.6131992,4.2233500,-15.6196918,54.9465637,-235.1832123,7.5801525
1170,-19.6131992,4.1395535,-15.3946381,-46.8244286,-46.4427490,138.5038147
1180,-19.6131992,3.7277529,-11.3125448,-135.5877838,101.8854980,237.4351196
1190,-19.6131992,2.9759774,-6.2416520,-179.8320618,164.5801544,250.1297760
1200,-19.6131992,1.6112895,-2.4396791,-184.1679382,147.0763397,250.1297760
1210,-19.6131992,0.4141948,-0.2418131,-163.4885559,94.1832047,250.1297760
1220,-19.6131992,-1.2976507,-0.1221037,-138.2900696,39.7633591,250.1297760
1230,-16.9819851,-4.0940638,-0.2537841,-118.8778610,4.2671757,250.1297760
1240,-10.6182299,-6.7300668,-0.5147507,-108.1984711,6.2671757,250.1297760
1250,-2.7700772,-8.0660238,-1.5825592,-114.0229034,64.9618301,250.1297760
1260,3.4284792,-8.6166878,-2.3439114,-139.3435059,171.1145020,250.1297760
1270,8.4179697,-7.8649125,-1.5969244,-186.1297760,250.1297760,250.1297760
1280,12.3492289,-7.3142486,1.1444225,-247.4809113,250.1297760,250.1297760
1290,18.9452209,-6.8401995,6.3661499,-250.1374054,250.1297760,250.1297760
1300,19.6126022,-5.2313042,14.5949793,-250.1374054,250.1297760,250.1297760
1310,19.6126022,-0.9169745,19.6126022,-250.1374054,208.8778687,250.1297760
1320,19.6126022,-0.2370248,19.6126022,-136.1832123,35.8931313,34.2748108
1330,19.6126022,-2.7916248,19.6126022,11.2366409,-128.0229034,-168.4885559
1340,19.6126022,-3.4811516,19.6126022,125.9465637,-250.1374054,-250.1374054
1350,19.6126022,-4.3119354,15.5502605,178.4274750,-250.1374054,-250.1374054
1360,16.0745888,-4.3430595,11.5423870,190.5114441,-250.1374054,-250.1374054
1370,11.5615406,-3.3111639,9.1122847,189.0381622,-250.1374054,-250.1374054
1380,9.1146793,-1.7621235,7.3381906,186.2824402,-239.3435059,-250.1374054
1390,7.0484939,-0.6177009,5.2983413,184.0534363,-140.0305328,-250.1374054
1400,5.1451130,0.1939293,3.1363883,182.3893127,-48.5648842,-250.1374054
1410,3.8594334,0.4788379,1.9297167,182.4503784,23.4274807,-250.1374054
1420,2.8873925,-0.5865764,0.0861908,184.4809113,80.2366409,-250.1374054
1430,1.5394639,-2.2768741,-1.9321109,188.3435059,127.0916061,-250.1374054
1440,0.0191535,-4.5944495,-3.9791429,193.2213745,160.1297760,-250.1374054
1450,-2.3917952,-6.4691000,-5.6454988,199.2442780,177.3206177,-250.1374054
1460,-8.9375095,-7.3693151,-7.3501616,204.1832123,168.2824402,-250.1374054
1470,-19.6131992,-5.7987270,-9.1122847,202.4198456,97.6717529,-250.1374054
1480,-19.6131992,-4.5130472,-9.9813757,194.4732819,-73.0763321,-250.1374054
1490,-19.6131992,-1.5250987,-9.7970228,187.4885559,-250.1374054,-250.1374054
1500,-19.6131992,1.4820032,-12.6676559,168.9923706,-250.1374054,-182.3664093
1510,-19.6131992,3.2967989,-15.9500904,104.4045792,-250.1374054,-48.5267181
1520,-19.6131992,2.5785420,-16.5390606,-1.5038168,-101.5648880,83.9770966
1530,-19.6131992,1.8938038,-13.5415354,-118.8854980,105.8320618,192.8702240
1540,-19.6131992,1.6591733,-7.1610208,-187.1374054,215.8473358,250.1297760
1550,-19.6131992,1.6472024,-2.6288199,-202.2595367,234.6183167,250.1297760
1560,-19.6131992,1.3383518,0.4381367,-182.0458069,186.2595367,250.1297760
1570,-19.6131992,1.1587877,1.4867916,-144.6106873,110.5801544,250.1297760
1580,-16.0841656,0.9433106,0.6536137,-110.9236679,55.8549614,250.1297760
1590,-12.2295198,0.3351865,-0.7661406,-95.6335907,43.0458031,250.1297760
1600,-8.2407999,-0.0885850,-1.7477583,-99.9389343,69.0229034,250.1297760
1610,-4.6638808,-0.6153067,-2.0398495,-121.2061081,123.0457993,250.1297760
1620,-1.9823889,-1.6495966,-1.6352314,-150.0458069,184.8320618,250.1297760
1630,-0.0742199,-2.4564383,-1.0869620,-182.0152740,243.3206177,250.1297760
1640,2.0757623,-3.7708483,-0.3064562,-217.3816833,250.1297760,250.1297760
1650,5.0493455,-5.1163831,1.4604555,-248.2748108,250.1297760,250.1297760
1660,9.5791521,-5.4755111,4.0174499,-250.1374054,246.0763397,250.1297760
1670,17.7026367,-4.2377152,8.1713686,-250.1374054,145.3740387,250.1297760
1680,19.6126022,-0.6967092,13.8599625,-224.5572510,-2.6183207,250.1297760
1690,19.6126022,3.6080434,19.6126022,-146.3129730,-145.5267181,167.1068726
1700,19.6126022,5.4922705,19.6126022,-49.8396950,-194.3740387,-13.4656487
1710,19.6126022,4.3286943,18.7991753,28.8473282,-168.0915985,-171.8167877
1720,19.6126022,2.2601149,15.3754845,84.5801544,-166.0229034,-250.1374054
1730,19.4551830,1.0845678,12.6748390,124.4503784,-204.8625946,-250.1374054
1740,14.6141329,0.6991033,10.2495251,157.5801544,-228.4351196,-250.1374054
1750,11.1186161,1.0845678,7.8816719,181.9541931,-220.3740387,-250.1374054
1760,8.1043310,1.4891858,4.7740140,194.2442780,-188.6564941,-250.1374054
1770,6.1315193,2.4085546,2.3678534,193.0152740,-138.2595367,-250.1374054
1780,4.5824785,2.4612267,0.1508339,183.5954132,-74.8854980,-250.1374054
1790,3.5769191,1.6136837,-1.5107336,168.9847260,-9.5725193,-250.1374054
1800,2.3702476,0.4381367,-2.9496415,155.5648804,40.9236641,-250.1374054
1810,0.5123565,-1.1707586,-3.8714044,146.3511505,77.9847336,-250.1374054
1820,-4.1754665,-3.0142846,-4.7404952,144.2595367,95.7786255,-250.1374054
1830,-14.0826225,-3.4548154,-6.0094156,146.9618378,64.1221390,-250.1374054
1840,-19.6131992,-2.8586621,-6.9766679,149.2824402,-46.0381660,-250.1374054
1850,-19.6131992,-1.5418580,-6.8809004,154.0610657,-213.6030579,-250.1374054
1860,-19.6131992,1.8004304,-8.6406298,150.7862549,-250.1374054,-250.1374054
1870,-19.6131992,4.2784166,-12.3204985,114.6335907,-250.1374054,-189.9770966
1880,-19.6131992,4.1156116,-14.3795023,36.8091621,-176.6259613,-76.5496216
1890,-19.6131992,3.0071020,-13.4840746,-59.4503822,-8.1984730,41.4198456
1900,-19.6131992,2.4181314,-9.1888990,-132.9236603,115.7862625,139.4274750
1910,-19.6131992,1.7477583,-5.0517397,-159.6183167,155.0686951,199.6183167
1920,-19.6131992,1.4580613,-2.2457497,-151.9084015,117.2442780,236.9923706
1930,-19.6131992,1.2186425,-0.4381367,-123.7404556,39.2366409,250.1297760
1940,-17.3339310,1.2952565,0.2154770,-88.4732819,-34.9618340,250.1297760
1950,-14.5231533,1.1659702,-0.2011119,-58.3282433,-77.3435135,250.1297760
1960,-12.1481171,1.3598996,-1.2066715,-39.7099228,-87.4503784,250.1297760
1970,-10.2782555,1.4460905,-1.8554969,-29.8396950,-76.7404556,250.1297760
1980,-8.4036045,1.5681942,-2.6360025,-28.6870232,-53.1450386,250.1297760
1990,-7.6446471,1.1420283,-3.1746953,-35.8778610,-22.1908398,250.1297760
2000,-6.3853035,0.8307837,-3.3614421,-47.8015251,6.4809160,250.1297760
2010,-4.4268565,0.4764437,-3.7038112,-62.9389305,39.7938919,250.1297760
2020,-2.6192431,0.1292862,-3.9982965,-83.9083939,79.6259537,250.1297760
2030,-0.8044477,-0.6584021,-3.7900019,-110.1755753,117.7175598,250.1297760
2040,1.6855093,-1.2497669,-3.2010312,-138.2213745,144.3129730,250.1297760
2050,4.3239059,-1.5155219,-1.9464760,-163.4045868,157.5038147,250.1297760
2060,7.3381906,-2.0206959,-0.3280039,-182.2213745,149.1755676,250.1297760
2070,11.9230633,-1.7429699,2.1020982,-191.2442780,107.7328262,250.1297760
2080,17.7409439,-0.3950413,5.2049680,-186.6259613,36.6183205,250.1297760
2090,19.6126022,1.3191984,8.1282730,-164.7404633,-45.8167953,250.1297760
2100,19.6126022,3.4021432,10.8696203,-125.8396912,-112.9312973,219.4503784
2110,19.6126022,4.8434453,11.8464499,-82.8244247,-136.8625946,104.0534363
2120,19.6126022,4.7189474,10.9749641,-44.2595406,-134.7938995,1.5648855
2130,19.6126022,4.2041965,9.5456333,-14.6412210,-135.0000000,-68.2595444
2140,19.6126022,3.6535332,8.3676920,7.1221375,-142.5038147,-103.6641235
2150,17.8510761,3.3782012,7.7260494,24.4198475,-141.5496216,-119.4045792
2160,16.9604378,3.3662305,7.5488791,42.4045792,-110.2824402,-129.6717529
2170,15.7010946,3.9767487,7.9989872,57.3969460,-68.4885483,-127.5114517
2180,15.0833931,3.9240766,7.6446471,65.4045792,-19.2519093,-119.1068726
2190,15.2677460,4.0773048,7.7140784,70.1908417,22.3664131,-117.6717529
2200,15.3467541,3.9575951,7.5105724,75.1297684,49.0763359,-123.7557220
2210,15.2031031,3.6271970,7.2448173,84.9160309,64.7709961,-138.5419922
2220,14.6117382,3.2345500,6.9024482,99.3206100,74.4122162,-157.0076294
2230,14.2238798,2.6910689,6.1363077,119.7938919,78.4732819,-177.0076294
2240,13.8264437,2.2601149,5.1139889,138.4961853,77.8549652,-198.8167877
2250,13.1824074,1.8171898,3.7445123,155.2671814,77.0000000,-222.8702240
2260,12.7658186,1.2449785,2.0398495,167.9007568,76.6335907,-247.3664093
2270,12.1624823,0.7110743,0.6488253,176.4351196,77.6946564,-250.1374054
2280,11.5519638,0.1244979,-0.6033357,182.3206177,81.7251892,-250.1374054
2290,10.7570934,-0.4812321,-1.7932479,186.3816833,90.5190811,-250.1374054
2300,10.2591019,-1.2114599,-2.7772598,189.8549652,105.3893127,-250.1374054
2310,9.1051025,-1.6400198,-3.8043671,194.1450348,133.5954132,-250.1374054
2320,7.7835097,-2.4899571,-4.6662750,198.6259613,156.5801544,-250.1374054
2330,6.3661499,-3.5481887,-5.6095858,206.3358765,164.6030579,-250.1374054
2340,4.7764082,-4.4962878,-6.4786768,220.8854980,155.2137451,-250.1374054
2350,0.7829000,-6.4810710,-8.6837254,239.7862549,128.9923706,-250.1374054
2360,-8.6549950,-7.7523856,-12.0571384,250.1297760,61.4961815,-250.1374054
2370,-17.8151646,-7.2615767,-15.3994265,250.1297760,-63.7557259,-250.1374054
2380,-19.6131992,-6.0429344,-18.6579189,230.1755676,-182.7251892,-250.1374054
2390,-19.6131992,-2.6216373,-19.6131992,173.2671814,-224.9618378,-250.1374054
2400,-19.6131992,-1.9776005,-19.6131992,94.6717529,-194.2748108,-250.1374054
2410,-19.6131992,-1.2904681,-19.6131992,8.9236641,-113.5572510,-211.3129730
2420,-19.6131992,-0.4261657,-19.6131992,-69.8396912,-7.5954199,-111.5267181
2430,-19.6131992,-0.8427547,-15.6436338,-127.0381699,71.6717529,-27.2366409
2440,-19.6131992,-1.4867916,-10.9653873,-148.2290039,85.2748108,42.5190849
2450,-19.6131992,-1.7070571,-7.4650826,-137.3129730,37.4885483,95.6030502
2460,-19.6131992,-0.9433106,-5.5640965,-106.8320618,-36.8549614,135.7633514
2470,-19.6131992,-0.5746055,-5.4922705,-75.5114517,-101.1068726,170.0152740
2480,-19.6131992,-0.3447633,-5.9615316,-50.8778610,-144.6870270,205.2519073
2490,-19.6131992,-0.5722113,-6.6031747,-35.5877876,-162.9847260,241.3740387
2500,-19.6131992,-1.0630201,-7.0796180,-24.0763359,-172.5801544,250.1297760
2510,-18.5286331,-1.6495966,-7.8816719,-13.6412210,-178.9236603,250.1297760
2520,-15.2964764,-2.0230901,-9.5504217,-9.0229006,-174.9160309,250.1297760
2530,-12.6652622,-2.1978660,-11.8440552,-17.1145039,-157.7557220,250.1297760
2540,-9.7060442,-2.6982515,-13.4074612,-38.6870232,-130.7938995,250.1297760
2550,-7.2424231,-2.9448531,-14.0060081,-69.8625946,-95.0610657,250.1297760
2560,-4.9655490,-3.7133877,-13.5463238,-105.3053436,-65.0000000,250.1297760
2570,-1.7836711,-4.5681133,-12.1289635,-137.6106873,-42.4351158,250.1297760
2580,1.7357874,-5.4419928,-10.1537571,-165.0152740,-27.6183205,250.1297760
2590,5.3414369,-5.9998388,-7.8170285,-183.9465637,-26.2366409,250.1297760
2600,9.1697454,-5.8705525,-5.0589223,-193.2671814,-42.0305328,250.1297760
2610,13.9078465,-5.3486195,-2.1380112,-190.9694672,-74.1832047,250.1297760
2620,18.6172180,-4.0653338,0.4189832,-176.0610657,-105.8702316,250.1297760
2630,19.6126022,-2.0613971,2.1787124,-151.7557220,-134.4809113,250.1297760
2640,19.6126022,-0.0430954,3.4189026,-127.1526718,-151.1755676,250.1297760
2650,19.6126022,1.1013272,4.6327567,-107.3053436,-156.0305328,202.6335907
2660,19.6126022,1.3215926,5.5928264,-87.8931274,-163.2213745,144.2595367
2670,19.6126022,1.1683644,5.7029591,-67.7862625,-170.6030579,103.5725174
2680,19.6126022,1.5346755,6.0261750,-55.3129768,-166.7480927,76.4427490
2690,19.6126022,2.4660151,6.7827387,-52.2748108,-137.6488495,52.1221390
2700,19.6126022,3.3590479,8.3629036,-54.0152664,-76.7633591,21.3053436
2710,19.6126022,4.1467361,10.2902260,-52.9923668,11.7557249,-24.7862587
2720,19.6126022,3.5649481,12.6461086,-39.6030540,93.9083939,-83.1526718
2730,19.6126022,2.2074428,14.5518837,-5.8396945,130.1679382,-141.7251892
2740,19.6126022,0.5769997,14.8008795,43.3435097,123.1603088,-192.2595367
2750,19.6126022,-0.8690908,12.9573536,96.7099228,101.2519073,-232.6030579
2760,18.8470592,-1.6615674,9.6102762,140.7709961,86.6412201,-250.1374054
2770,16.9819851,-2.0470319,5.5473371,167.1068726,88.5572510,-250.1374054
2780,15.5215302,-2.2265961,1.8339491,175.5954132,112.3969498,-250.1374054
2790,14.0802279,-2.6982515,-0.9337339,172.8396912,146.9160309,-250.1374054
2800,12.4521790,-3.2800395,-2.6767037,167.7099304,184.1984711,-250.1374054
2810,9.6390066,-4.0389977,-3.9168940,167.3206177,207.8702240,-250.1374054
2820,5.5018473,-4.8578105,-4.3861551,176.9084015,199.7175598,-250.1374054
2830,1.3551112,-5.9447722,-5.7867560,196.4045868,155.0458069,-250.1374054
2840,-3.5410061,-6.5768385,-8.8249826,215.7938995,82.0457993,-250.1374054
2850,-12.1193867,-6.3805151,-12.9501705,220.5190887,-10.3511448,-250.1374054
2860,-19.6131992,-5.4060798,-15.9596672,205.2366486,-118.1603088,-250.1374054
2870,-19.6131992,-2.9209111,-18.8087521,169.9694672,-201.6946564,-250.1374054
2880,-19.6131992,0.0478838,-19.6131992,104.6717529,-212.3053436,-250.1374054
2890,-19.6131992,1.6831152,-19.6131992,18.3587780,-148.5114441,-250.1374054
2900,-19.6131992,2.6503677,-19.2373123,-66.2213745,-42.2824440,-144.9313049
2910,-19.6131992,3.1986370,-14.0898046,-127.5343475,54.2213745,-37.8473282
2920,-19.6131992,3.0765336,-8.5352850,-153.0381622,93.0000000,49.7633591
2930,-19.6131992,3.1052637,-4.1539187,-144.8931274,64.9465637,120.2366409
2940,-19.6131992,3.4117200,-1.8411317,-116.2595444,3.6793892,176.0076294
2950,-19.6131992,3.2584918,-1.6448082,-83.5648880,-49.4427490,224.3893127
2960,-19.6131992,2.7796540,-2.8706331,-60.9771004,-72.6564865,250.1297760
2970,-19.6131992,2.1978660,-4.1371593,-52.9236641,-71.4885483,250.1297760
2980,-15.7968616,1.3742647,-5.3222833,-57.4351158,-51.6030540,250.1297760
2990,-11.9206696,0.3663110,-6.2081332,-68.9694672,-15.0610685,250.1297760
3000,-8.6741486,-0.3734936,-6.9551206,-91.8091583,26.4656487,250.1297760
3010,-5.0876527,-1.2162483,-6.7611909,-121.3587799,66.1068726,250.1297760
3020,-1.3598996,-2.0494261,-5.8897061,-150.3282471,97.1145020,250.1297760
3030,2.5641768,-2.6168492,-4.8985114,-175.1450348,105.9465637,250.1297760
3040,6.6821828,-2.6910689,-3.2728570,-193.2442780,93.6259537,250.1297760
3050,10.6565371,-2.3439114,-0.9864060,-199.2061005,44.0839691,250.1297760
3060,15.8399572,-1.6543850,1.6783268,-186.8778687,-26.9465656,250.1297760
3070,19.6126022,-0.0957676,3.9719603,-162.2900696,-88.8396912,250.1297760
3080,19.6126022,1.6591733,5.9351954,-134.7938995,-124.5648880,242.7480927
3090,19.6126022,2.8610563,7.5632443,-109.3816757,-134.2213745,165.2061005
3100,19.6126022,3.1124463,8.8345594,-87.2213745,-129.6412201,96.3129807
3110,19.6126022,2.8203552,10.1657286,-64.2671738,-126.5572510,45.8702278
3120,19.6126022,2.6479735,11.3340931,-38.6870232,-121.9312973,7.5725193
3130,19.6126022,2.4708035,12.1960011,-14.9465647,-106.7709961,-21.9465656
3140,19.6126022,2.6503677,13.0004492,6.6717558,-76.0687027,-47.5801544
3150,19.6126022,2.9424589,13.2638092,26.8015270,-20.2137413,-75.9923630
3160,19.6126022,2.6838863,13.4314032,47.9923668,39.7175560,-109.0076370
3170,19.6126022,2.0398495,13.2255030,76.4198456,74.7404556,-142.3435059
3180,19.6126022,1.2258250,12.0260134,110.7175598,89.0763321,-175.0229034
3190,17.8869896,0.5482694,10.3117743,144.1755676,89.8167953,-204.0610657
3200,16.1272602,-0.1771700,8.1282730,173.7175598,85.9542007,-229.3587799
3210,14.9349537,-0.9265513,5.4994531,195.9770966,89.8244247,-250.1374054
3220,14.1089582,-1.3910241,2.4899571,210.9541931,107.4122162,-250.1374054
3230,13.6013899,-1.6687500,-0.1675933,216.1908417,133.5190887,-250.1374054
3240,12.7275114,-2.2601149,-2.4827745,215.3358765,163.0076294,-250.1374054
3250,11.5830889,-2.9448531,-3.8594334,214.5725250,186.5648804,-250.1374054
3260,10.3333216,-3.8570392,-4.8386569,219.5038147,199.0686951,-250.1374054
3270,8.4036045,-4.7285242,-5.7364779,233.0915985,192.1984711,-250.1374054
3280,4.6471219,-6.1746144,-7.7452030,250.1297760,153.2366486,-250.1374054
3290,-1.1635761,-7.7260494,-10.5080976,250.1297760,73.1832047,-250.1374054
3300,-9.2343884,-8.4826136,-14.4800577,250.1297760,-38.6564903,-250.1374054
3310,-18.7776279,-7.3693151,-19.0385952,250.1297760,-146.4427490,-250.1374054
3320,-19.6131992,-4.7428894,-19.6131992,210.8854980,-218.2442780,-250.1374054
3330,-19.6131992,-2.2577207,-19.6131992,138.9160309,-225.0915985,-250.1374054
3340,-19.6131992,-0.5889706,-19.6131992,52.1221390,-148.1603088,-250.1374054
3350,-19.6131992,-0.0478838,-19.6131992,-34.0152664,-33.0228996,-224.1145020
3360,-19.6131992,0.2322364,-16.6755295,-97.9083939,66.3435135,-132.1145020
3370,-19.6131992,0.2202654,-11.4250717,-123.6793900,106.5877838,-50.0305328
3380,-19.6131992,0.5674229,-7.5752153,-117.7022934,81.2213745,22.1679382
3390,-19.6131992,1.2880739,-5.2672167,-94.2061081,19.9770985,79.5114517
3400,-19.6131992,1.8650736,-4.6351509,-67.5419846,-42.1450386,126.1297684
3410,-19.6131992,2.0925217,-4.8458395,-47.4809151,-80.6717529,167.0686951
3420,-19.6131992,1.6759326,-5.3773494,-36.5114517,-93.1145020,206.1145020
3430,-19.6131992,1.1683644,-6.0213866,-31.4885502,-91.6412201,243.2137451
3440,-19.0840836,0.7852941,-6.8018923,-30.6030540,-87.9465637,250.1297760
3450,-16.5486374,0.1412572,-7.4674768,-33.2519073,-84.9465637,250.1297760
3460,-13.8886929,-0.4501076,-8.2360115,-38.9465637,-82.2900772,250.1297760
3470,-10.6421719,-0.7254394,-8.9351149,-48.0000000,-75.3053436,250.1297760
3480,-7.8146343,-0.7805058,-9.8784256,-61.4732819,-63.3206100,250.1297760
3490,-5.2049680,-1.0055596,-10.6637201,-79.9160309,-49.0687027,250.1297760
3500,-2.9807658,-1.2018831,-10.8384953,-103.0687027,-36.3053436,250.1297760
3510,-0.6200951,-1.4700323,-10.2447367,-126.1145020,-28.9312973,250.1297760
3520,1.6543850,-1.7238164,-9.3564920,-145.1755676,-31.9847336,250.1297760
3530,4.5848727,-1.6280488,-8.1546097,-159.7404633,-42.3358765,250.1297760
3540,7.6853480,-1.1899122,-6.7707677,-170.6793823,-54.2671738,250.1297760
3550,10.6062593,-0.7326220,-5.0110383,-178.6564941,-68.5190811,250.1297760
3560,12.7466650,-0.4620786,-2.6192431,-181.4351196,-83.3053436,250.1297760
3570,14.3052816,-0.1005560,-0.6584021,-176.6183167,-95.9007645,250.1297760
3580,15.2916880,0.4165890,1.1683644,-166.0152740,-104.7862625,250.1297760
3590,15.8902349,1.0917504,3.0094962,-151.0915985,-112.6412201,231.0534363
3600,15.6915178,1.5011568,4.6854286,-131.6641235,-118.9770966,197.5954132
3610,15.2940826,1.7142396,6.0381460,-108.0763321,-121.0534363,171.5496216
3620,15.0307217,1.9632354,6.8449879,-81.9083939,-122.2442780,152.1374054
3630,15.5071650,2.3439114,6.7923155,-58.5801544,-117.5648880,138.1145020
3640,16.6851063,2.7844424,6.7444315,-40.9541969,-101.8778610,125.3511429
3650,18.3562508,3.4117200,6.7444315,-29.2061062,-74.9847336,112.0229034
3660,19.6126022,3.9168940,6.6606350,-21.8473282,-39.1908379,93.8091583
3670,19.6126022,4.3813667,6.9048424,-16.6030540,-6.0763359,67.5114517
3680,19.6126022,4.8147149,7.1825686,-9.0916033,16.9160309,36.5877876
3690,19.6126022,4.8458395,7.4531116,1.7251909,31.9541988,0.1145038
3700,19.6126022,4.6112089,7.7164726,15.5648851,33.8702278,-37.3740463
3710,19.6126022,4.3622131,8.1306677,33.9160309,26.6030540,-72.8778610
3720,19.6126022,4.1227942,7.7643566,55.6793900,19.4503822,-105.3282471
3730,18.5310268,3.7636659,7.0221577,77.0916061,18.7480907,-134.0686951
3740,16.9053726,3.3925664,5.8801293,96.1908417,25.7099228,-156.7404633
3750,15.1743727,3.0118904,4.5274124,109.5648880,40.7328262,-174.2977142
3760,13.6708221,2.6144550,3.5362179,119.6488571,59.5190849,-187.0458069
3770,12.4066896,2.3032103,2.4923513,127.5496216,77.0152664,-197.6717529
3780,11.3580351,1.9321109,1.6041069,134.1603088,92.5954208,-207.4427490
3790,10.2327662,1.6879035,0.7374104,140.9084015,106.8549652,-216.9541931
3800,8.8585014,1.3838415,-0.0311245,146.1679382,116.6259537,-225.0992432
3810,7.9606800,1.0630201,-0.7062859,151.4351196,117.7938919,-231.8549652
3820,7.4842362,0.7278336,-1.3670821,157.7633514,111.8702316,-240.1755676
3830,7.2352405,0.3615226,-2.2122312,165.1297760,108.0381699,-250.1374054
3840,6.5720501,0.0646431,-3.2082138,171.4809113,103.0687027,-250.1374054
3850,5.5401545,-0.2681492,-4.3478479,175.0839691,96.7557220,-250.1374054
3860,4.0389977,-0.7685348,-5.8083038,174.9236603,89.6641235,-250.1374054
3870,2.7030399,-1.2210367,-7.8218169,169.4122162,85.5648880,-250.1374054
3880,1.6687500,-1.1492109,-9.7706871,156.1068726,89.2900772,-250.1374054
3890,-0.0933734,-1.3144100,-11.1281929,133.9007568,97.6183243,-250.1374054
3900,-1.9416877,-1.2186425,-11.6620970,107.2977066,113.4656525,-250.1374054
3910,-2.5929072,-1.0462608,-11.4633789,81.6030502,137.9923706,-250.1374054
3920,-1.9153515,-0.6033357,-10.2830439,63.0534363,167.8396912,-246.6564941
3930,-1.7764885,-0.0095768,-9.2918491,58.9465637,193.1832123,-248.4580078
3940,-3.0334380,0.6775556,-8.5257082,70.2442780,194.6946564,-250.1374054
3950,-5.5018473,1.3551112,-9.0308828,94.7404556,164.8244324,-250.1374054
3960,-9.0189114,1.6448082,-10.7882175,121.3664093,106.4351120,-250.1374054
3970,-14.1424770,1.7070571,-14.2286682,139.6717529,22.6564884,-250.1374054
3980,-19.6131992,2.1499822,-18.3873749,139.1374054,-71.5725174,-250.1374054
3990,-19.6131992,1.4389079,-19.6131992,116.2519073,-170.0076294,-250.1374054
4000,-19.6131992,1.8650736,-19.6131992,69.4122162,-229.4351196,-238.3664093
4010,-19.6131992,3.4500270,-19.6131992,1.3129771,-203.4427490,-137.4961853
4020,-19.6131992,4.0629396,-19.6131992,-74.1297684,-105.9542007,-34.1679382
4030,-19.6131992,3.7493007,-16.8191814,-135.1908417,-0.0839695,55.0152664
4040,-19.6131992,2.6767037,-11.0803089,-162.4961853,56.5572510,127.3511429
4050,-19.6131992,2.0949159,-6.6055689,-154.9007568,42.4198456,182.9236603
4060,-19.6131992,1.9057748,-4.8410511,-127.6412201,-7.3282442,223.3893127
4070,-19.6131992,1.8243724,-5.2025738,-100.1908417,-52.1755714,250.1297760
4080,-18.2628765,1.6950861,-6.7899213,-83.9770966,-71.7633591,250.1297760
4090,-15.6412401,1.3311694,-7.7811155,-82.1755753,-76.4198456,250.1297760
4100,-13.4912577,0.4740495,-7.7212610,-85.8778610,-77.9389343,250.1297760
4110,-11.2981796,-0.3950413,-7.3214312,-86.6870193,-77.0305328,250.1297760
4120,-8.7268209,-0.8786675,-7.8361821,-86.4961853,-72.5267181,250.1297760
4130,-5.7508430,-0.7254394,-9.2703018,-92.7251892,-64.7633591,250.1297760
4140,-3.2728570,-0.5458752,-10.4075413,-109.1526718,-52.2366409,250.1297760
4150,-1.3215926,-0.6607963,-10.6900558,-131.5801544,-46.7022896,250.1297760
4160,0.5961532,-1.1156923,-10.4410601,-152.2137451,-52.6335869,250.1297760
4170,3.2680686,-1.3120158,-9.9909525,-167.4274750,-70.3358765,250.1297760
4180,6.9670911,-0.8068419,-9.5863342,-178.9923706,-84.0076370,250.1297760
4190,10.0891142,-0.3567342,-9.0332766,-191.1068726,-95.0534363,250.1297760
4200,12.6006193,0.0981618,-8.0205345,-203.1068726,-102.9923630,250.1297760
4210,14.7410240,0.4548960,-6.4236102,-214.4580078,-104.3893127,250.1297760
4220,16.1057129,0.8906385,-4.1347651,-221.7557220,-111.8854980,237.0915985
4230,16.7784805,1.2928623,-1.7118455,-221.6717529,-122.8854980,196.1603088
4240,16.1990852,1.3096216,0.7517755,-213.1221313,-131.5572510,159.3129730
4250,15.2438040,1.4006008,2.7437410,-199.4961853,-137.1755676,132.7786255
4260,14.6763811,1.5921360,4.3837609,-182.7938995,-137.2519073,114.7938919
4270,14.8727045,1.9392935,5.7484488,-165.1755676,-127.0000000,101.0152664
4280,15.1049414,2.1212518,6.9311786,-146.7709961,-107.4045792,92.3053436
4290,15.8710823,2.0518203,8.1282730,-129.6870270,-84.1755753,83.9542007
4300,17.6116581,2.2074428,9.5408449,-114.0152664,-52.6717567,75.7862625
4310,19.6126022,2.3894010,11.0180597,-99.3816757,-13.6564884,62.9618340
4320,19.6126022,2.6024840,12.5934362,-84.0839691,28.8015270,41.2137413
4330,19.6126022,2.6910689,14.2214851,-63.6946564,67.6717529,8.0916033
4340,19.6126022,2.5402350,15.7226419,-34.3587799,90.5496216,-34.5648842
4350,19.6126022,2.0159075,16.1607780,5.7022901,97.2137375,-83.5267181
4360,19.6126022,1.3407460,15.2964764,50.3206100,85.9542007,-131.7175598
4370,19.3498383,0.6057299,13.3212700,93.0610657,67.6717529,-173.7862549
4380,16.5821552,-0.0287303,10.6804790,127.9770966,56.3435097,-207.1450348
4390,14.1951494,-0.4381367,8.0037756,152.8167877,58.2442741,-230.8931274
4400,12.4928808,-0.5722113,5.4252334,167.9541931,75.6412201,-245.6641235
4410,10.8983507,-0.7613522,2.9735832,175.2595367,108.2442780,-250.1374054
4420,9.9765873,-0.8906385,1.2090657,177.0610657,144.5648804,-250.1374054
4430,9.4738073,-0.9193687,0.0885850,178.5267181,177.5572510,-250.1374054
4440,8.8441362,-1.1396341,-0.7302278,183.5343475,199.4427490,-250.1374054
4450,7.7380204,-1.5394639,-1.6615674,192.9007568,202.8702240,-250.1374054
4460,5.3917146,-2.3151813,-2.5953014,207.0992432,181.8625946,-250.1374054
4470,3.3518653,-2.8778157,-3.8737986,222.0229034,144.8396912,-250.1374054
4480,2.2122312,-2.9256995,-5.6359220,231.8396912,106.6106873,-250.1374054
4490,1.5298871,-2.9472473,-7.8481531,231.6793823,84.2137375,-250.1374054
4500,-1.7980363,-3.4548154,-9.8832140,222.8091583,64.2213745,-250.1374054
4510,-7.1586266,-3.8426740,-11.1880474,210.9770966,29.4580154,-250.1374054
4520,-11.2119894,-3.3351059,-12.5000629,195.5114441,-7.2748094,-250.1374054
4530,-14.3651371,-2.1739240,-13.6803989,169.4961853,-27.2595425,-250.1374054
4540,-18.4256821,-1.4077834,-14.4585104,135.5114441,-24.7099228,-250.1374054
4550,-19.6131992,-0.6584021,-14.2502155,97.0381699,-21.1221371,-250.1374054
4560,-19.6131992,0.3064562,-13.5367470,64.3053436,-17.0534344,-250.1374054
4570,-19.6131992,1.3215926,-13.5295649,35.4656487,1.9694656,-194.0229034
4580,-19.6131992,1.9560528,-13.4266148,4.4427481,25.4961834,-116.4732819
4590,-19.6131992,2.5617826,-12.2917690,-23.6030540,35.8167953,-39.3435097
4600,-19.6131992,2.6431851,-10.7379398,-39.7862587,33.0305328,26.0229015
4610,-19.6131992,2.6144550,-9.3517036,-46.6717567,14.7862597,80.8244247
4620,-19.6131992,2.8754215,-8.3796635,-46.2748108,-12.1832066,127.8549652
4630,-19.6131992,2.8849983,-7.9941988,-44.0839691,-36.1984749,169.3129730
4640,-19.6131992,3.0334380,-8.1282730,-44.6870232,-55.2748108,207.7938995
4650,-19.6131992,2.8107784,-7.9678626,-48.3282433,-66.6641235,246.9084015
4660,-19.6131992,2.3271523,-7.6638002,-53.6870232,-71.3740463,250.1297760
4670,-16.8790359,1.8890154,-7.3477674,-59.0458031,-66.8778610,250.1297760
4680,-13.3500004,1.4604555,-7.7499914,-67.2290039,-52.5496178,250.1297760
4690,-9.8401184,1.2665262,-8.5975342,-81.1984711,-28.6335869,250.1297760
4700,-7.3645267,1.0199248,-9.4474716,-103.7709961,-2.1145039,250.1297760
4710,-5.1810260,0.5650287,-9.3828287,-131.1374054,13.8091602,250.1297760
4720,-2.8299320,0.2082945,-8.6956959,-155.8396912,15.6564884,250.1297760
4730,-0.2418131,-0.1244979,-7.3860745,-175.1832123,1.0152671,250.1297760
4740,2.8275378,-0.1268920,-6.0189924,-186.2595367,-23.7251911,250.1297760
4750,5.7580256,0.2418131,-4.6231799,-190.3511505,-52.1145020,250.1297760
4760,8.7148495,0.7852941,-3.0980811,-188.7328186,-77.1221390,250.1297760
4770,11.3412752,1.7884595,-1.5035510,-184.4503784,-96.9923630,250.1297760
4780,13.6803989,2.6958573,0.2082945,-177.1526642,-109.8778610,250.1297760
4790,15.4880114,3.2991931,1.8507085,-165.7633514,-114.2366409,250.1297760
4800,16.6228580,3.9336534,3.5625539,-149.8396912,-117.7633591,216.2824402
4810,17.2932301,4.6782460,5.2289100,-130.2519073,-119.7251892,172.4274750
4820,17.0777531,4.8961172,6.3302369,-107.3740463,-119.8549652,132.4885559
4830,16.2230282,5.0541339,6.6127515,-81.9770966,-122.6335907,100.8778610
4840,15.6891232,5.3246775,6.3900914,-59.7557259,-121.9465637,79.0687027
4850,15.7944679,5.5593081,5.9830794,-45.8167953,-108.8854980,65.4045792
4860,16.6252518,5.6766233,5.8897061,-38.7709923,-79.4122162,55.9694672
4870,17.9324799,5.7771792,6.2871413,-35.7862587,-40.3511467,43.9007645
4880,19.3258972,5.9160423,7.3597383,-32.8778610,-6.0000000,24.3664131
4890,19.6126022,5.8154860,8.8201942,-23.1832066,16.7862587,-4.5038166
4900,19.6126022,5.6287394,9.9310980,-5.2748094,29.7175579,-39.9312973
4910,19.6126022,5.2983413,10.1729107,18.8244267,37.7022896,-80.0305328
4920,18.4232883,4.7764082,9.6150646,44.0076332,36.9694672,-117.5496216
4930,16.1727505,4.0844874,8.7914639,68.7480927,26.6717548,-149.9084015
4940,14.1113529,3.5410061,7.6997132,91.6564865,14.6488552,-174.1984711
4950,12.5575237,3.1555417,6.3661499,110.8015289,8.8702288,-192.4427490
4960,11.3628235,2.8849983,4.8697815,124.8778610,13.2290077,-203.9160309
4970,10.8121595,2.4564383,3.0861101,133.0839691,30.3893127,-211.1679382
4980,10.1537571,2.1284344,1.5705882,137.5190887,54.8244286,-219.0152740
4990,9.2750902,1.7693061,0.3902529,138.1221313,77.3206100,-227.2290039
5000,8.3652983,1.4269369,-0.2154770,139.1755676,94.1297684,-236.0305328
5010,7.5273318,1.1563935,-0.8834559,142.7938995,99.5648880,-247.7175598
5020,6.4691000,1.0127422,-1.4389079,149.6641235,96.6717529,-250.1374054
5030,5.4108682,0.7230452,-2.6982515,156.5496216,85.4885483,-250.1374054
5040,4.3957319,0.3830703,-4.1946201,159.5114441,74.6641235,-250.1374054
5050,2.5138988,0.0646431,-5.8035154,156.4427490,65.0610657,-250.1374054
5060,-0.0119709,-0.0622489,-7.0413113,148.4732819,50.2900772,-250.1374054
5070,-3.4859397,0.1149211,-8.1163025,139.4427490,20.3664131,-250.1374054
5080,-7.3070664,0.5410868,-8.8297710,130.5343475,-18.6335869,-250.1374054
5090,-11.0013008,0.8116302,-9.8856087,118.1145020,-57.6106873,-250.1374054
5100,-15.2150736,1.2330076,-11.3293047,99.4122162,-84.2748108,-250.1374054
5110,-18.9356441,2.0709739,-12.1433287,68.2213745,-89.7022934,-250.1374054
5120,-19.6131992,2.7485294,-12.4593620,30.1908398,-70.7175598,-250.1374054
5130,-19.6131992,3.2082138,-11.9182749,-9.4961834,-31.5343513,-218.0458069
5140,-19.6131992,3.3183465,-10.5799236,-43.9083977,18.0839691,-154.2290039
5150,-19.6131992,3.6607156,-9.4474716,-71.9312973,67.6641235,-86.0000000
5160,-19.6131992,4.1036406,-7.9606800,-91.9236679,99.1832047,-24.9770985
5170,-19.6131992,4.4292507,-6.1841912,-102.5648880,94.6717529,23.9847336
5180,-19.6131992,4.3574247,-4.6136031,-100.0229034,59.7404594,65.9770966
5190,-19.6131992,4.5226240,-3.0980811,-85.7175598,12.9847326,104.3893127
5200,-19.6131992,4.3861551,-2.8993635,-69.6488571,-23.1984730,137.5954132
5210,-19.6131992,4.4364328,-2.9496415,-58.2671738,-45.7557259,169.2748108
5220,-19.6131992,4.1706781,-2.9448531,-50.1908379,-58.7862587,199.6641235
5230,-17.1064835,3.8139439,-3.1746953,-42.4503822,-58.8931313,228.8549652
5240,-14.7553892,3.5721307,-4.0030847,-38.1450386,-57.6488533,250.1297760
5250,-12.5910425,3.3303175,-4.6734576,-37.7022896,-61.7328262,250.1297760
5260,-10.1058741,2.8634505,-4.7381010,-38.2290077,-67.1755753,250.1297760
5270,-7.3645267,2.5929072,-4.9679432,-37.9847336,-68.5648880,250.1297760
5280,-4.5585365,2.4564383,-5.2624283,-40.2519073,-64.6870193,250.1297760
5290,-1.5849534,2.5665710,-5.7197185,-47.2290077,-53.9083977,250.1297760
5300,0.8619082,2.7221935,-5.9543490,-58.9618340,-42.2900772,250.1297760
5310,3.4045374,2.9376705,-5.7867560,-72.7557220,-36.8091621,250.1297760
5320,5.9016771,3.2153964,-4.9727316,-84.7480927,-37.7862587,250.1297760
5330,8.4323349,3.6583214,-3.6367738,-90.8702316,-49.4122124,250.1297760
5340,10.9701757,4.1634955,-2.4660151,-91.0076370,-62.9465637,250.1297760
5350,13.0698805,4.8889351,-1.3551112,-88.2061081,-72.3053436,235.4427490
5360,14.3890781,5.3845320,-0.2489957,-84.2519073,-80.8702316,199.0992432
5370,14.9325600,5.8657641,0.9457048,-77.6335907,-86.5801544,162.0152740
5380,14.7051115,5.9160423,1.9608412,-68.8625946,-88.0916061,131.7175598
5390,14.9038296,6.0165982,2.6503677,-60.4351158,-83.8549652,109.6793900
5400,15.3802729,6.0788469,3.3782012,-53.3740463,-69.7709961,92.8473282
5410,16.4121685,6.2129216,4.0222383,-48.7328262,-47.1221390,77.3664093
5420,18.2341461,6.3062949,4.8003497,-46.3435097,-14.4274807,60.7709923
5430,19.6126022,6.4714942,5.9375896,-43.6412201,23.6564884,36.4885483
5440,19.6126022,6.4140334,7.3956513,-36.3587799,58.5877876,2.8931298
5450,19.6126022,6.0596933,8.8201942,-20.1221371,80.9847336,-38.2824440
5460,19.6126022,5.5545197,9.5959110,6.0992365,86.4122162,-81.1374054
5470,18.6866493,4.8338685,9.5216913,38.0687027,77.0610657,-124.7786255
5480,16.3379498,4.0844874,8.5951405,69.3969498,61.4274826,-161.7404633
5490,14.1089582,3.5003049,7.3310080,97.6259537,49.9923668,-191.3129730
5500,12.4809093,3.0071020,5.5401545,117.8778610,50.0152664,-214.2137451
5510,10.9869356,2.6096666,3.7540891,132.7709961,62.4580154,-231.8091583
5520,9.8281479,2.3654592,2.1116750,142.2977142,84.7175598,-246.4580078
5530,8.8608952,1.9297167,0.7493813,150.1221313,110.0916061,-250.1374054
5540,8.1258793,1.5083394,-0.5434810,158.1603088,134.1526642,-250.1374054
5550,7.1825686,1.2593436,-2.0925217,165.5572510,150.5190887,-250.1374054
5560,5.9663200,0.8834559,-3.6152260,170.6641235,155.9160309,-250.1374054
5570,4.6997938,0.3710994,-5.1834202,172.4961853,150.1679382,-250.1374054
5580,3.7133877,-0.1077385,-6.7803445,171.7175598,134.3587799,-250.1374054
5590,2.6168492,-0.7062859,-8.2982607,168.7557220,113.6030502,-250.1374054
5600,0.2226596,-1.6280488,-10.4338779,161.5267181,81.6946564,-250.1374054
5610,-3.4787574,-2.2026544,-12.4904861,147.6793823,33.9618340,-250.1374054
5620,-9.5887289,-2.9185169,-13.6516685,126.3893127,-12.5572519,-250.1374054
5630,-17.1783085,-1.8028246,-14.4824524,98.7099228,-61.0228996,-250.1374054
5640,-19.6131992,-0.3136388,-14.8966465,73.2595444,-113.4198456,-250.1374054
5650,-19.6131992,0.9600700,-14.6715927,45.7786255,-143.6870270,-250.1374054
5660,-19.6131992,2.5019281,-15.4520988,6.5267177,-101.3511429,-214.3893127
5670,-19.6131992,3.5170643,-15.7920732,-49.7251892,-7.0458016,-128.9236603
5680,-19.6131992,3.1196289,-13.5487185,-99.9847336,77.3664093,-57.7480927
5690,-19.6131992,2.3894010,-10.3572636,-129.1984711,112.5190811,-2.3664122
5700,-19.6131992,2.0254843,-7.0676475,-130.8244324,90.5877838,39.6946564
5710,-19.6131992,2.2625091,-5.0756817,-115.1450348,31.0610695,71.6641235
5720,-19.6131992,2.6575503,-4.2209558,-94.1832047,-29.1297703,97.8549652
5730,-19.6131992,2.8610563,-4.0270267,-76.7709961,-71.8244247,126.3206100
5740,-19.6131992,3.0118904,-4.3454537,-67.5114517,-90.6641235,156.4351196
5750,-19.6131992,3.0430148,-4.2401094,-63.7251892,-94.6870193,187.9847260
5760,-19.0122585,2.8897867,-3.9623835,-61.0534363,-94.6259537,222.3740387
5770,-17.5158901,2.2601149,-3.5912843,-56.7175560,-93.7022934,250.1297760
5780,-15.4927998,1.8363433,-3.5026991,-51.6641235,-88.4580154,250.1297760
5790,-12.8951044,1.5250987,-4.2664456,-49.6183205,-75.1526718,250.1297760
5800,-10.3931761,1.4101776,-4.9966736,-53.4580154,-53.4580154,250.1297760
5810,-8.4874020,1.3024391,-5.5880380,-63.9618340,-31.0763359,250.1297760
5820,-6.0525107,1.2042773,-5.4443870,-77.3206100,-11.9847326,250.1297760
5830,-3.6487448,1.1994889,-4.7692256,-89.1755753,-0.3816794,250.1297760
5840,-1.0366840,1.1348459,-3.6631098,-97.3129807,1.6259542,250.1297760
5850,1.5203103,0.9864060,-2.6431851,-100.9389343,-7.9236641,250.1297760
5860,4.8769641,1.2042773,-2.4420733,-100.8167953,-26.8625946,250.1297760
5870,8.3772688,2.1260402,-2.4588325,-100.8320618,-43.6793900,250.1297760
5880,11.2670555,3.2441268,-1.8028246,-103.9389343,-57.5190849,250.1297760
5890,13.4314032,3.7493007,-0.4955972,-106.3587799,-62.0687027,250.1297760
5900,15.3419657,4.3310885,1.0989330,-104.1526718,-53.8778610,249.7862549
5910,16.1895084,4.8673873,2.5617826,-99.7709961,-31.7251911,210.8015289
5920,15.8399572,4.9272418,3.8498566,-92.4885483,-1.6412214,180.3969421
5930,14.8607340,4.4292507,4.6040263,-83.3969498,33.3053436,161.4885559
5940,14.4202032,3.7828193,5.3318601,-73.8320618,50.0916023,150.3969421
5950,15.9285421,3.7732425,6.5265603,-63.4732819,44.6183205,135.8473358
5960,18.4041348,4.0868812,8.0348997,-52.1068687,38.5725174,110.5114517
5970,19.6126022,4.2353210,9.7515335,-35.6946564,41.6870232,73.9770966
5980,19.6126022,4.4005203,11.3580351,-14.8091602,51.3969460,26.8625946
5990,19.6126022,3.8235207,12.1912127,14.4809160,52.4809151,-24.3358784
6000,19.6126022,3.5577655,11.6668854,48.7175560,49.4656487,-74.5343475
6010,17.7193966,3.0980811,10.2064295,81.9160309,36.1679382,-118.9389343
6020,14.6620159,2.5258698,8.8632889,108.1145020,20.7404575,-150.2442780
6030,12.2726154,2.0973101,7.2376347,131.0534363,9.9694653,-171.2595367
6040,10.5416164,2.1068866,5.8274570,149.0534363,11.0610685,-186.0839691
6050,9.2487535,2.1332228,4.5585365,161.8396912,23.6335869,-196.3969421
6060,8.5400734,2.1236460,3.6750808,172.7633514,41.9694672,-205.5343475
6070,7.7308378,2.0254843,2.5617826,184.2900696,58.1755714,-217.2137451
6080,6.7444315,1.8961980,1.2258250,195.6870270,66.4274826,-231.7022858
6090,5.7987270,1.7932479,-0.5554519,205.3511505,68.0839691,-248.2977142
6100,4.5585365,1.6112895,-2.3822186,211.3587799,65.9083939,-250.1374054
6110,3.1028695,1.3958124,-4.0820932,212.3969421,61.1526718,-250.1374054
6120,1.7573351,1.4867916,-5.4826937,209.7938995,50.7633591,-250.1374054
6130,0.0119709,1.5227045,-6.6199336,205.1526642,37.6335869,-250.1374054
6140,-1.8578910,1.4245427,-7.7523856,198.9618378,22.6030540,-250.1374054
6150,-5.1283536,1.1683644,-8.9327211,189.9694672,-0.9618320,-250.1374054
6160,-11.4561968,1.0175306,-10.3405046,179.0610657,-46.4961815,-250.1374054
6170,-17.3506908,1.3479286,-11.7099810,163.7404633,-103.7480927,-250.1374054
6180,-19.6131992,2.3151813,-13.0890341,139.6870270,-139.7022858,-250.1374054
6190,-19.6131992,3.6080434,-14.0658627,106.4732819,-142.0000000,-230.5801544
6200,-19.6131992,4.4819226,-14.0467091,68.6412201,-122.3511429,-175.9923706
6210,-19.6131992,4.7285242,-13.3332415,33.1526718,-88.2290039,-110.2519073
6220,-19.6131992,5.3414369,-12.6245613,1.7862595,-40.9389305,-49.6412201
6230,-19.6131992,5.8657641,-11.4705620,-24.7251911,-6.6183205,2.8854961
6240,-19.6131992,5.4683285,-9.6150646,-40.9007645,1.4198474,54.9465637
6250,-19.6131992,5.0445571,-7.8601241,-44.3053436,-11.4885492,108.1679382
6260,-19.6131992,4.8961172,-6.6534524,-40.8015251,-29.9847336,155.3969421
6270,-19.6131992,4.6614871,-5.7795734,-34.0076332,-42.8091621,196.3969421
6280,-19.6131992,4.3909435,-5.4060798,-26.5419846,-45.9541969,231.8244324
6290,-16.6132812,4.0605454,-5.5473371,-20.8015270,-43.0839691,250.1297760
6300,-13.5535069,3.5721307,-6.3134775,-18.9236641,-39.2213745,250.1297760
6310,-10.2351599,3.2393384,-7.4962072,-23.5419846,-30.4122143,250.1297760
6320,-7.4770536,3.2082138,-8.3198080,-35.2442741,-22.2213745,250.1297760
6330,-5.4922705,2.9304879,-8.7220325,-50.9083977,-25.5877857,250.1297760
6340,-3.6487448,2.7054341,-8.5304966,-65.1221390,-38.9771004,250.1297760
6350,-1.0869620,2.5617826,-7.9367380,-77.5725174,-52.0228996,250.1297760
6360,1.3551112,2.7221935,-7.0149751,-87.7633591,-63.0534363,250.1297760
6370,3.1651185,2.6383967,-5.6981707,-92.1221390,-78.5648880,250.1297760
6380,5.3246775,2.6982515,-4.4364328,-88.2977066,-96.1526718,250.1297760
6390,7.9678626,3.0980811,-3.4308734,-79.5877838,-105.2366409,250.1297760
6400,9.6030941,3.4284792,-2.5330524,-67.4274826,-105.7251892,244.4732819
6410,10.2638903,3.3662305,-2.0733681,-51.2824440,-103.5725174,222.0076294
6420,9.9694052,3.2273674,-2.7485294,-35.7175560,-104.1603088,204.4122162
6430,10.0651722,3.3686244,-3.9336534,-30.0229015,-102.6946564,194.4122162
6440,11.1449518,3.5649481,-4.1922259,-34.7022896,-94.9465637,186.3511505
6450,12.8544035,4.0413918,-3.4715748,-44.8244286,-79.6870193,176.0992432
6460,15.1528254,4.3191175,-1.8459201,-54.4503822,-61.1145020,163.6946564
6470,18.1168308,5.0014620,0.1604107,-61.1297722,-41.3358765,143.4732819
6480,19.6126022,5.7316895,2.2840567,-63.0763359,-24.0305347,111.6488571
6490,19.6126022,6.1339135,4.5369892,-58.6946564,-11.5267172,70.9312973
6500,19.6126022,6.3062949,6.5026188,-45.3282433,-4.9541984,27.8396950
6510,19.6126022,6.6989422,7.5728211,-23.4732819,2.9694657,-17.5725193
6520,19.6126022,6.4834652,7.1849627,0.9236641,14.8473282,-61.2061081
6530,17.7002430,6.2009506,6.4236102,22.6641216,22.2595425,-95.4809189
6540,14.9900198,5.6383162,5.6526814,42.1832047,24.8625946,-119.4427490
6550,13.1512823,5.3318601,4.6710634,61.7022896,32.1908379,-136.5954132
6560,11.5088692,4.8123207,3.3949606,78.6488571,43.4351158,-150.4656525
6570,10.7714586,5.2169390,1.9847831,91.5725174,54.9160309,-160.9007568
6580,9.9670105,4.7213416,0.7206510,101.5267181,66.4961853,-173.4885559
6590,9.3277617,4.4891052,-0.5171449,105.7557220,78.2137375,-184.7328186
6600,8.3341732,4.1419477,-1.5490406,110.8320618,89.9618301,-197.2748108
6610,7.3310080,3.7469065,-2.5162930,113.8167953,96.5801544,-210.0152740
6620,6.3039007,3.5505829,-3.4308734,115.5419846,94.8778610,-223.1221313
6630,5.3246775,3.4500270,-4.2879934,116.7251892,91.0000000,-237.3435059
6640,4.3191175,3.3015873,-5.2552457,116.6488571,85.2061081,-250.1374054
6650,2.6168492,3.2034254,-6.3589673,113.5114517,80.3435135,-250.1374054
6660,0.1963235,3.0262554,-7.2567883,107.6946564,67.4427490,-250.1374054
6670,-2.5115047,3.0047078,-8.0468712,100.0152664,51.5267181,-250.1374054
6680,-6.2201042,3.1076579,-8.8297710,93.9083939,28.1984730,-250.1374054
6690,-10.3883877,3.0765336,-9.7036495,85.5801544,-1.3587786,-250.1374054
6700,-14.6787758,3.2896163,-10.8265247,73.4045792,-26.5114498,-250.1374054
6710,-18.4089222,3.9312592,-11.6070309,55.5877876,-40.1145020,-227.2290039
6720,-19.6131992,5.2432747,-12.0044661,32.8015251,-41.0916023,-179.7099304
6730,-19.6131992,6.4044566,-11.3269100,8.2290077,-16.8091602,-133.7175598
6740,-19.6131992,7.0604649,-10.0172882,-13.4503813,13.7328243,-93.2748108
6750,-19.6131992,7.2591825,-8.4012108,-28.7328243,33.2137413,-58.7633591
6760,-19.6131992,7.4818420,-6.8521700,-34.1603050,32.0152664,-31.1374054
6770,-19.6131992,7.4626884,-5.6000090,-30.5190830,10.0152674,-8.0076332
6780,-19.6131992,7.2184811,-4.8482337,-21.4885502,-22.6335869,16.8778629
6790,-19.6131992,7.0197635,-4.8123207,-11.3282442,-54.1068687,44.2137413
6800,-19.6131992,6.9263902,-5.2384863,-6.1450381,-74.7175598,71.5877838
6810,-18.1359844,6.5768385,-5.3510137,-4.8320613,-78.9007645,99.7404556
6820,-16.6084919,5.8992829,-5.3222833,-4.2519083,-73.9312973,130.4656525
6830,-14.0371332,5.4779053,-5.8394279,-4.6641221,-62.8320618,161.2290039
6840,-11.6860390,5.5760674,-6.7037306,-9.1145039,-44.0152664,184.1832123
6850,-9.9430685,5.3558016,-6.9024482,-16.5572510,-35.0839691,201.5801544
6860,-8.4323349,4.8985114,-6.6438756,-21.4503822,-35.3587799,214.6030579
6870,-6.7444315,4.6136031,-6.2727766,-22.6641216,-45.4809151,224.2519073
6880,-5.6718349,4.3717899,-6.0381460,-19.4656487,-64.8473282,230.2290039
6890,-4.0868812,4.2616572,-6.5289545,-15.8320608,-82.7709961,235.8854980
6900,-1.7645177,4.6207857,-7.2400289,-17.1832066,-88.1984711,238.3969421
6910,0.2442073,5.2265158,-7.4650826,-22.8778629,-78.6183243,234.1679382
6920,1.0055596,5.7101417,-7.3908629,-30.3740463,-68.1450348,224.0992432
6930,0.9624642,5.7939386,-6.9263902,-34.1526718,-67.0381699,213.4045868
6940,-0.0335187,5.2696109,-6.7372489,-32.8320618,-75.8549652,208.6106873
6950,-0.1843526,4.9703374,-7.1107426,-29.9694653,-93.5954208,213.3206177
6960,1.3910241,4.9104824,-7.8864598,-32.1145020,-98.2137375,222.9618378
6970,3.9863255,4.9320302,-8.5759869,-44.4503822,-80.9923630,233.6717529
6980,6.7540083,5.0421629,-8.1522150,-61.4503822,-54.7175560,238.4274750
6990,9.6342182,5.1355362,-6.9958215,-77.9770966,-30.4045811,232.7862549
7000,11.8153248,5.1906028,-5.1714492,-88.6641235,-15.9618320,218.8549652
7010,14.0251617,5.0708933,-3.4236910,-91.0229034,-15.3816795,198.0458069
7020,16.1368370,5.2959471,-2.1284344,-87.3435135,-20.1450386,172.9389343
7030,18.3730106,5.7795734,-1.1899122,-82.2671738,-21.3358784,143.8854980
7040,19.6126022,6.2248926,-0.2489957,-77.9542007,-15.8396950,111.3358765
7050,19.6126022,6.4475522,0.9169745,-74.3282471,-3.9236641,75.8396912
7060,19.6126022,6.7348547,2.1427996,-69.6335907,11.0687027,35.7557259
7070,19.6126022,6.5409255,3.5721307,-61.2290077,29.0305347,-6.9312978
7080,19.6126022,5.9711084,4.5417776,-46.8702278,45.0076332,-49.0000000
7090,19.6126022,5.5497313,5.0613165,-28.2213745,57.6030540,-87.8396912
7100,19.5916519,5.0277977,4.9823084,-8.3282442,63.5801544,-124.3053436
7110,17.5326500,4.4412212,4.2568688,11.8549614,68.7786255,-158.2519073
7120,15.0881815,3.9168940,3.2249732,28.6717548,75.0687027,-187.4274750
7130,12.9166517,3.6200144,1.9392935,41.6259537,82.8549652,-212.3969421
7140,10.7786407,3.2537034,0.8044477,51.5572510,90.0076370,-234.3053436
7150,8.7986460,3.1076579,-0.2154770,58.9541969,96.5801544,-250.1374054
7160,7.1011658,3.1387823,-1.3862357,66.2900772,97.9618301,-250.1374054
7170,5.5281835,3.2130022,-2.1882892,72.9847336,100.8015289,-250.1374054
7180,3.8618276,3.2560976,-3.1962428,79.4427490,100.3664093,-250.1374054
7190,1.9297167,3.0286496,-4.3837609,83.3664093,91.9465637,-250.1374054
7200,0.4094064,2.9448531,-5.5976148,83.9770966,79.7099228,-250.1374054
7210,-1.6184721,2.5593886,-6.6510582,81.9236679,63.6717567,-250.1374054
7220,-4.2520804,2.2385671,-7.6638002,76.4732819,43.7480927,-250.1374054
7230,-10.1609402,1.7525467,-8.5711985,68.6564865,13.0305347,-250.1374054
7240,-17.7074261,1.7836711,-9.2822723,57.9007645,-35.9923668,-250.1374054
7250,-19.6131992,2.4995339,-10.0627785,45.0228996,-79.6793900,-250.1374054
7260,-19.6131992,3.9480183,-11.0348196,24.3435116,-88.3740463,-234.8396912
7270,-19.6131992,4.8697815,-11.3987360,-7.3969464,-66.4809189,-155.0152740
7280,-19.6131992,5.1331420,-10.6038647,-45.2671738,-17.1297703,-69.0610657
7290,-19.6131992,5.6167684,-8.7411861,-77.6564865,37.0763359,7.4351144
7300,-19.6131992,5.8059096,-6.2368636,-93.9694672,76.5725174,65.6793900
7310,-19.6131992,5.7699966,-4.2640514,-97.9007645,82.9236679,109.6870193
7320,-19.6131992,5.5305777,-2.9664006,-88.7557220,58.7633591,142.3511505
7330,-17.0370522,5.6119800,-2.4133430,-72.8625946,25.3053436,167.1832123
7340,-14.2526102,5.7867560,-2.6096666,-58.9465637,-0.7022901,186.2213745
7350,-12.6532917,5.7245069,-3.0166788,-52.1526718,-18.9618320,202.9236603
7360,-10.8744087,5.4874821,-2.8730273,-48.2061081,-41.0687027,220.2595367
7370,-7.8457589,5.2983413,-2.9472473,-44.0458031,-50.1755714,236.2748108
7380,-5.3390427,5.6574697,-3.4955165,-43.7022896,-40.1374054,247.2519073
7390,-3.2201848,5.9160423,-3.7612717,-49.8015251,-25.3358784,250.1297760
7400,-1.2425843,5.9926562,-3.7062054,-58.4656487,-9.9083967,250.1297760
7410,-0.1268920,5.9208307,-3.5960727,-66.5725174,0.0916031,250.1297760
7420,1.4221486,5.9351954,-3.4284792,-71.9923630,-3.2900763,250.1297760
7430,3.7014170,6.1650376,-2.9640064,-74.4351120,-11.5648851,247.6564941
7440,6.1267309,6.7300668,-2.6551561,-75.8778610,-17.6412220,232.4732819
7450,7.9822278,7.2519999,-2.0757623,-77.1832047,-20.3740463,211.3893127
7460,9.4091644,7.5009956,-1.0654143,-76.2213745,-23.5267181,184.4809113
7470,9.8688488,7.7021074,-0.0478838,-70.2442780,-34.8549614,154.4656525
7480,10.1154509,7.8337879,0.9073978,-59.0228996,-53.4580154,126.4427490
7490,10.5104914,7.9247670,1.6448082,-44.5648842,-70.7175598,98.3740463
7500,10.0699606,7.8361821,2.1547706,-29.0610695,-83.6183243,76.3664093
7510,9.8065996,7.8697009,2.3319404,-15.5114508,-84.3816757,62.2137413
7520,10.3141680,7.9271612,2.0470319,-6.0152674,-67.3664093,54.1297722
7530,10.9845409,7.7859039,1.6328372,-2.8778627,-33.0839691,49.1450386
7540,13.0172081,7.8218169,2.3271523,-5.9007635,35.8549614,35.1679382
7550,13.9413652,7.8744893,3.0238612,-2.8015268,56.7251892,16.5648861
7560,14.8511572,7.6207051,4.0318151,18.3282452,67.1679382,-36.4198456
7570,14.4441452,7.4435349,3.7062054,33.3358765,65.1832047,-68.8702316
7580,13.2733860,7.1490498,2.7102225,46.1068687,60.3435097,-99.3511429
7590,12.1098099,6.9168134,1.9512644,55.4656487,57.1297722,-125.3435135
7600,11.0491848,6.8234401,0.7661406,60.8396950,59.9312973,-147.9465637
7610,9.8664551,6.6965480,-0.1053443,63.0381660,71.6564865,-167.8625946
7620,8.6190825,6.6007805,-0.5722113,63.6488533,84.9160309,-186.8931274
7630,7.1873569,6.4260044,-1.1324517,65.2748108,97.7786255,-205.5114441
7640,5.5377603,6.3350253,-1.6184721,69.0305328,104.1603088,-225.0839691
7650,3.3303175,6.0620875,-2.0637913,74.6641235,95.0381699,-244.6030579
7660,1.4221486,5.8561873,-2.9520357,80.6259537,75.3129807,-250.1374054
7670,-0.4046180,5.5832496,-3.8905578,85.8549652,48.4961815,-250.1374054
7680,-3.3327117,5.1618724,-5.0637107,86.8702316,17.0000000,-250.1374054
7690,-8.5759869,4.7548604,-6.3517847,83.8549652,-31.3587780,-250.1374054
7700,-13.4146433,4.7668314,-7.0963774,78.0381699,-91.1832047,-250.1374054
7710,-16.1296539,5.3103123,-8.4826136,66.9007645,-126.3511429,-250.1374054
7720,-17.2836533,6.2679882,-9.6940727,41.4503822,-117.5114517,-208.7328186
7730,-17.7936153,7.0030041,-9.8520899,1.3740458,-71.8091583,-159.0763397
7740,-19.2301292,6.9814563,-8.5185261,-40.9312973,-10.6488552,-107.4045792
7750,-19.6131992,6.8282285,-5.6239510,-67.2671738,29.1984730,-57.1221390
7760,-19.6131992,6.6175399,-3.4500270,-71.6183243,41.3129768,-12.6106873
7770,-19.6131992,6.6271162,-2.1523764,-62.5114517,30.3358784,25.5648861
7780,-19.6131992,6.4355812,-1.6519908,-48.5801544,-4.1984735,60.1526718
7790,-17.2405586,6.5912037,-1.6759326,-33.4885483,-38.7633591,91.2595444
7800,-14.5518837,6.8473821,-2.3558824,-25.6641216,-47.1145020,114.9618301
7810,-12.2223368,6.8641410,-2.7006457,-26.8854961,-37.1374054,135.6106873
7820,-10.6134415,6.8785062,-2.6767037,-31.3969460,-21.9312973,152.0763397
7830,-9.5312681,6.5552907,-2.3965836,-35.1832047,-12.7251911,166.9923706
7840,-8.2719250,6.3781209,-1.8028246,-35.6183205,-15.3129768,179.6946564
7850,-6.7875271,6.3685441,-1.3239868,-31.9541988,-21.2137413,189.7480927
7860,-5.1882086,6.2919297,-1.0007712,-25.8625946,-26.0458012,196.7480927
7870,-3.8857694,6.2823529,-1.0654143,-19.6030540,-29.9083977,202.3129730
7880,-2.4540441,6.2105274,-1.2641320,-13.4122133,-36.3129768,207.4427490
7890,-0.2873027,6.6654234,-1.6232605,-7.4809160,-43.8931313,207.4122162
7900,1.6783268,6.9431496,-2.5067163,-5.5572519,-48.6183205,201.4656525
7910,3.5362179,7.5297260,-3.1507533,-8.8091602,-47.4351158,192.2137451
7920,5.2839761,8.0899658,-3.3207407,-15.2366409,-43.7862587,178.0076294
7930,6.5121951,8.4395180,-3.0071020,-23.0992374,-43.0610695,158.6259613
7940,7.4387465,8.6358414,-2.1787124,-27.9236641,-49.8778610,137.1450348
7950,8.2312231,8.8058290,-1.0845678,-27.3587780,-55.7709923,114.8702316
7960,8.8776541,8.8537130,-0.2561783,-22.2061062,-58.6717567,92.3053436
7970,9.1793222,8.8130112,0.0454896,-14.9618320,-58.4809151,75.2824402
7980,9.4785957,8.7675219,-0.0287303,-9.6412210,-53.0610695,61.0305328
7990,9.9239149,8.6549950,0.0000000,-7.5725193,-43.2061081,50.3053436
8000,10.6517487,8.5496502,0.0550664,-7.9541984,-25.2748089,42.9160309
8010,11.6525202,8.0923605,0.5171449,-8.6106873,-3.0534351,37.8320618
8020,13.4337969,8.2096758,0.9792235,-7.4580154,22.7404575,29.5267181
8030,15.2485924,8.5041609,1.5825592,-4.9236641,48.7480927,12.2900763
8040,16.0674057,8.5113440,2.1643472,-0.3282443,71.6030502,-14.2442751
8050,16.1368370,8.3030491,2.6838863,8.7175570,84.9694672,-47.9160309
8060,15.1360655,7.9822278,2.7197993,23.3129768,85.7709961,-85.2290039
8070,13.6780043,7.5009956,2.2409613,40.2595406,79.7251892,-124.0534363
8080,11.5567522,7.1801744,1.4676381,54.5343513,67.9389343,-159.6793823
8090,9.5791521,6.9383612,0.4644727,65.1450348,58.4961815,-190.3511505
8100,7.4962072,6.5505023,-0.5578461,71.7862625,58.3129768,-215.1526642
8110,5.9280128,6.3853035,-1.4820032,74.3053436,63.2442741,-235.0458069
8120,4.5441718,6.3398137,-2.4348907,74.0305328,71.3129807,-250.1374054
8130,2.7748656,5.9950504,-3.5673423,71.5190811,74.4885483,-250.1374054
8140,0.8451489,5.4946647,-4.2353210,68.2061081,69.7786255,-250.1374054
8150,-0.6368544,5.0038562,-5.0684991,64.2290039,58.6335869,-250.1374054
8160,-3.3087699,4.3837609,-6.0165982,59.1068687,44.2366409,-250.1374054
8170,-7.5033898,3.6726866,-6.6295104,51.2824440,16.8167934,-250.1374054
8180,-12.3468351,3.4069316,-6.7611909,44.0152664,-25.9694653,-250.1374054
8190,-16.5151196,3.5601597,-6.8952656,38.7480927,-67.9542007,-250.1374054
8200,-19.4815197,4.3047528,-7.5440907,29.2137413,-90.4274826,-244.1908417
8210,-19.6131992,4.8530221,-8.2024927,8.9923668,-82.7709961,-187.0076294
8220,-19.6131992,5.3988972,-7.9534974,-20.2748089,-51.0381660,-120.9847336
8230,-19.6131992,5.6981707,-6.9862447,-47.4427490,-4.9312978,-54.4732819
8240,-19.6131992,5.6909885,-5.5162125,-69.3282471,36.7786255,6.0458016
8250,-19.6131992,5.4946647,-3.8522508,-80.6106873,57.5114517,54.1374054
8260,-19.6131992,5.2767935,-2.2672975,-78.1145020,48.9618340,91.6259537
8270,-17.6379929,5.3007355,-1.7022687,-66.2977066,22.7633591,120.1526718
8280,-15.6172981,5.5904322,-1.8674678,-53.0763359,-4.4427481,139.9160309
8290,-14.0275564,5.7580256,-2.2936335,-44.1526718,-26.2366409,155.8244324
8300,-12.8520088,5.7987270,-2.6838863,-39.5572510,-45.3129768,171.1374054
8310,-11.9278517,5.6598639,-2.8299320,-36.9312973,-57.4045792,187.2137451
8320,-11.1473465,5.5736732,-2.7437410,-34.8015251,-67.1221390,205.0305328
8330,-9.9430685,5.4898763,-2.8730273,-32.0687027,-69.9160309,225.4885559
8340,-8.4586716,5.5257893,-3.2991931,-32.4274826,-59.8091621,245.5190887
8350,-7.4938130,5.4946647,-4.0318151,-37.5267181,-43.6793900,250.1297760
8360,-6.3302369,5.1762376,-4.4651632,-47.1068687,-31.7633591,250.1297760
8370,-4.9176650,4.8602047,-4.4484038,-57.9541969,-22.9007626,250.1297760
8380,-3.2225790,4.2257442,-4.1994085,-68.5877838,-12.8473282,250.1297760
8390,-0.5362985,3.2632802,-3.7708483,-83.0610657,7.5419846,250.1297760
8400,2.8395088,2.0398495,-3.0765336,-102.4351120,37.3282433,250.1297760
8410,7.5823979,1.8483143,-1.0869620,-122.3816757,62.9312973,250.1297760
8420,13.8527803,2.1308286,2.2242019,-131.3435059,76.7786255,250.1297760
8430,19.6126022,4.0844874,5.3701668,-128.9313049,86.8625946,250.1297760
8440,19.6126022,6.0333576,8.4371233,-115.3969498,92.4580154,250.1297760
8450,19.6126022,7.4650826,10.7570934,-91.9389343,101.7633591,159.5267181
8460,19.6126022,7.0030041,12.2103662,-51.9771004,80.0687027,46.2977104
8470,19.6126022,5.7221127,12.6317434,4.8091602,16.0916023,-55.8320618
8480,19.6126022,4.6638808,10.8001890,63.0305328,-64.1145020,-140.3435059
8490,19.1942177,3.7493007,7.4866304,102.2671738,-120.0992355,-198.9389343
8500,15.9692440,3.9121056,4.3071470,116.2442780,-136.2137451,-234.8549652
8510,13.3859129,4.1371593,1.8842272,112.6946564,-108.3816757,-250.1374054
8520,11.2814207,4.2927818,0.4165890,101.0839691,-53.3893127,-250.1374054
8530,9.1098909,4.3310885,-0.3303981,85.8854980,5.0610685,-250.1374054
8540,7.3286138,4.4244623,-0.4118006,77.3206100,55.2213745,-250.1374054
8550,5.8442163,4.4364328,-0.1532281,76.5038147,87.1374054,-250.1374054
8560,4.7237358,4.4196739,-0.4477134,81.6641235,96.6946564,-250.1374054
8570,3.5314295,4.2808108,-1.2617378,88.3893127,90.7251892,-250.1374054
8580,2.1427996,3.9312592,-2.3271523,93.7709961,75.2748108,-250.1374054
8590,0.3830703,3.1268115,-3.4979107,95.0687027,47.7938919,-250.1374054
8600,-1.4652439,2.0063307,-4.6327567,92.7633591,10.9389315,-250.1374054
8610,-3.4356618,1.0007712,-5.6550756,85.8396912,-19.9312973,-250.1374054
8620,-6.0357518,0.0718257,-6.4283986,72.1450348,-34.2137413,-250.1374054
8630,-10.1537571,-0.4525018,-6.4379754,52.2061081,-31.0229015,-250.1374054
8640,-15.9812145,-0.5817881,-5.5497313,33.0610695,-20.6412220,-250.1374054
8650,-19.6131992,-0.1867468,-4.1299767,20.7786255,-17.9083977,-250.1374054
8660,-19.6131992,0.7685348,-3.2920105,16.6946564,-19.0076332,-250.1374054
8670,-19.6131992,1.6855093,-4.0294209,11.6488552,-15.6641226,-168.8625946
8680,-19.6131992,2.2218077,-4.6973996,-1.3969465,-9.7862597,-58.7938919
8690,-19.6131992,2.5809362,-5.2289100,-17.9694653,12.6641226,40.2366409
8700,-19.6131992,3.0142846,-5.4300218,-38.1984749,55.4656487,109.7709961
8710,-17.8558655,3.5434003,-4.9918852,-54.5190849,90.2213745,145.0076294
8720,-15.2509871,3.8809812,-3.8737986,-66.8702316,96.0229034,158.5038147
8730,-13.9964314,3.9671719,-2.6312141,-65.9083939,73.6412201,162.2671814
8740,-13.4936514,3.9504125,-1.8004304,-53.3129768,31.8091602,165.0610657
8750,-12.9669304,4.1204000,-1.2880739,-36.1221390,-15.7022905,171.9160309
8760,-12.7418766,4.1108232,-1.6352314,-22.2977104,-54.6030540,184.6106873
8770,-11.6525202,4.3765783,-1.8746504,-14.3053436,-76.3511429,203.7251892
8780,-10.8169479,4.4436154,-2.2696917,-10.7328243,-77.8778610,225.8091583
8790,-9.3876171,4.4891052,-2.2601149,-10.3511448,-67.1297684,250.1297760
8800,-7.8697009,4.5010762,-2.2265961,-11.6488552,-42.9312973,250.1297760
8810,-6.4978304,4.2472920,-2.4420733,-15.7251911,-12.5038166,250.1297760
8820,-5.0996237,4.1994085,-2.9089401,-22.3206100,19.9160309,250.1297760
8830,-3.5960727,4.0940638,-3.4739690,-33.4274826,49.4351158,250.1297760
8840,-1.9321109,3.9982965,-3.2297616,-46.8015251,74.5648880,250.1297760
8850,-0.2968795,3.7445123,-2.5426292,-59.4427490,92.8854980,250.1297760
8860,1.5945302,3.5769191,-1.1563935,-67.0457993,98.4122162,250.1297760
8870,4.0198441,3.4404502,0.2394189,-69.0534363,96.8091583,250.1297760
8880,6.9287844,3.5601597,1.4245427,-65.8931274,79.2213745,250.1297760
8890,10.6972389,4.1970143,2.0829449,-57.7251892,53.0687027,250.1297760
8900,14.8056679,5.3797436,2.6934631,-46.2366409,21.6564884,250.1297760
8910,18.9954987,6.6510582,3.2680686,-32.6564903,-8.5267172,217.7251892
8920,19.6126022,8.0301113,3.6798692,-18.9923668,-26.4732819,143.6717529
8930,19.6126022,8.5496502,4.1371593,-6.2061067,-35.9771004,67.6946564
8940,19.6126022,8.4155760,4.6231799,8.3587790,-45.3740463,-2.5725191
8950,19.4025116,7.9343438,5.0062504,27.6488552,-53.6106873,-58.7328262
8960,16.5055428,7.3956513,4.7093706,50.1297722,-62.6030540,-100.7022934
8970,14.1712074,7.3501616,3.8354914,69.7404556,-71.0457993,-129.8702240
8980,12.3420467,7.3621325,2.6096666,84.4656525,-69.4122162,-151.7022858
8990,10.8863792,7.6159167,1.5490406,92.6870193,-55.3282433,-167.5114441
9000,9.4355011,8.0061693,0.3663110,95.1755753,-29.9923668,-179.7633514
9010,8.0157461,8.2407999,-0.5482694,93.4732819,-0.6564885,-191.1068726
9020,6.8162575,8.3605099,-1.4221486,90.4122162,25.0534344,-205.5496216
9030,5.4252334,8.1857338,-2.2936335,86.2137375,42.6412201,-223.5267181
9040,4.0126615,7.9463148,-2.8826041,82.1755753,44.3053436,-244.5954132
9050,2.6958573,7.3070664,-3.3015873,80.0229034,32.7557259,-250.1374054
9060,0.9193687,6.5457139,-3.8402798,79.6030502,13.9465647,-250.1374054
9070,-1.5993185,5.5569139,-4.4795284,78.1297684,-11.4122133,-250.1374054
9080,-5.3055239,4.8338685,-5.1403246,74.5190811,-45.0458031,-250.1374054
9090,-9.1649570,4.6638808,-5.4060798,68.9312973,-80.7786255,-250.1374054
9100,-12.3923244,5.0230093,-5.4755111,60.8778610,-108.4427490,-250.1374054
9110,-15.5478659,5.4850879,-5.6694407,49.1297722,-118.3053436,-245.0458069
9120,-17.8845959,6.1123657,-5.8490047,33.8244286,-109.9694672,-187.0076294
9130,-18.6962261,6.6151457,-6.2895355,14.4427481,-81.6641235,-121.7251892
9140,-18.4065285,6.8425937,-6.6486640,-9.0610685,-29.8549614,-52.0916023
9150,-17.3267498,6.7252784,-6.3972740,-34.7480927,35.4656487,11.9770994
9160,-15.9524841,6.9551206,-5.8490047,-59.6183205,93.6259537,64.5114517
9170,-14.2382450,6.9311786,-5.1259594,-76.7328262,124.5343475,102.7557220
9180,-13.0028429,6.7611909,-4.0677280,-87.4656525,127.0610657,129.3816833
9190,-12.1864243,6.7037306,-2.8323262,-89.4732819,107.0229034,149.1450348
9200,-10.9845409,6.4667058,-1.6112895,-81.3435135,80.3664093,166.5190887
9210,-10.1250277,6.3446021,-0.9576758,-67.5954208,57.4122124,184.2137451
9220,-9.2008705,6.2536230,-0.7158626,-55.1755714,38.9389305,204.0000000
9230,-7.6207051,6.0644817,-1.0630201,-45.4045792,29.2519093,224.7938995
9240,-5.7771792,5.9232249,-1.6998745,-40.5725174,32.4351158,244.7862549
9250,-4.1180058,5.9902620,-2.4660151,-42.0687027,51.3206100,250.1297760
9260,-2.5354466,5.8873119,-2.9664006,-51.4274826,78.7633591,250.1297760
9270,-0.8331779,5.7149301,-3.3542595,-65.7099228,108.6106873,250.1297760
9280,0.9050036,5.4946647,-3.1507533,-82.8396912,137.3969421,250.1297760
9290,2.5833304,5.2408805,-2.5737536,-99.5419846,154.7480927,250.1297760
9300,4.8051381,4.7141590,-1.3598996,-110.2900772,145.7251892,250.1297760
9310,8.1234846,5.1115947,0.4884146,-109.8320618,98.0839691,250.1297760
9320,12.7873659,6.0932121,2.4971397,-94.7251892,20.9847336,238.4427490
9330,17.7624912,7.2112985,3.9001346,-67.7175598,-59.7328262,173.5725250
9340,19.6126022,8.3700867,4.5441718,-35.2900772,-120.5572510,91.7938919
9350,19.6126022,8.7938576,4.7404952,-6.7099237,-151.5419922,8.6030531
9360,19.6126022,8.9207497,4.7309184,16.1297703,-157.2748108,-72.9694672
9370,19.6126022,8.4945841,4.5106530,35.1984749,-148.7480927,-143.1984711
9380,17.9205074,7.3573442,4.3382711,54.2213745,-140.1145020,-193.5343475
9390,14.0060081,6.6223278,3.9719603,74.2595444,-137.6946564,-224.7786255
9400,10.9893293,5.9663200,3.1914546,92.9465637,-133.5419922,-243.5572510
9410,8.5616217,5.8418221,1.8698620,106.3969498,-118.8625946,-250.1374054
9420,6.6151457,5.9854736,0.2633608,112.3816757,-92.7557220,-250.1374054
9430,5.1642666,5.9711084,-1.3455344,108.3358765,-57.3129768,-250.1374054
9440,4.0126615,5.8873119,-2.8514795,99.1068726,-18.4122143,-250.1374054
9450,3.1100521,5.7412663,-3.8378856,83.1526718,13.5343513,-250.1374054
9460,2.5330524,5.5042415,-4.2472920,69.9083939,33.2366409,-250.1374054
9470,1.7142396,5.0876527,-4.7309184,60.9236641,43.7633591,-250.1374054
9480,0.5841822,4.3550305,-5.1882086,54.6946564,41.3893127,-250.1374054
9490,-0.8403605,3.7349355,-5.8130918,48.6717567,29.8702297,-250.1374054
9500,-3.0573800,3.0549858,-5.9351954,42.0687027,12.2137403,-250.1374054
9510,-5.5162125,2.4301023,-5.7771792,35.1374054,-3.3129771,-250.1374054
9520,-8.8201942,2.1212518,-5.6383162,29.3358784,-10.2061071,-250.1374054
9530,-15.5239248,2.0518203,-5.3486195,23.2442741,-14.9541988,-250.1374054
9540,-19.6131992,2.7126167,-4.9224534,17.8931293,-42.6412201,-250.1374054
9550,-19.6131992,3.5362179,-4.6734576,15.1450386,-85.9236679,-209.4732819
9560,-19.6131992,3.1866663,-5.9208307,10.2442751,-104.3129807,-107.4122162
9570,-19.6131992,2.6407909,-7.3262196,-1.8167939,-87.0076370,-0.5725191
9580,-19.6131992,3.5218527,-8.0205345,-30.4503822,-24.0534344,96.0839691
9590,-19.6131992,4.5034704,-7.4339581,-70.5648880,45.2137413,157.8931274
9600,-17.9372673,4.5609307,-5.5042415,-99.7022934,82.8320618,190.9694672
9610,-16.5941277,4.1611013,-3.5098817,-107.7404556,85.1832047,213.4580078
9620,-15.5335016,3.9264708,-1.6543850,-97.7022934,56.7633591,232.9541931
9630,-14.0012197,3.8498566,-0.8044477,-76.9465637,15.5801525,250.1297760
9640,-11.8679972,4.0413918,-0.9457048,-57.5267181,-14.7404585,250.1297760
9650,-9.8257532,4.0509686,-1.9392935,-46.1984749,-22.2366409,250.1297760
9660,-7.7332320,3.9480183,-3.1196289,-45.3358765,-10.2442751,250.1297760
9670,-5.4036856,4.0198441,-4.0677280,-53.5267181,16.2137413,250.1297760
9680,-3.2369442,3.9911139,-5.1139889,-70.8320618,53.8549614,250.1297760
9690,-1.6448082,3.7445123,-5.3510137,-94.7557220,97.0534363,250.1297760
9700,0.1987177,3.4212968,-4.9344244,-122.7786255,133.0915985,250.1297760
9710,2.2840567,2.9304879,-3.8043671,-147.7786255,151.5877838,250.1297760
9720,4.7811961,2.5976956,-2.0925217,-163.7938995,150.0305328,250.1297760
9730,7.6254935,2.4372849,-0.3591284,-169.4045868,124.6030502,250.1297760
9740,11.7434988,3.1124463,1.6615674,-164.6412201,69.0229034,250.1297760
9750,16.9436779,4.6255741,4.0964580,-147.0839691,-4.7633586,250.1297760
9760,19.6126022,6.2775645,6.2464404,-117.9465637,-70.4274826,182.7099304
9770,19.6126022,7.4267755,7.6350703,-84.1603088,-94.1603088,93.8396912
9780,19.6126022,7.8050575,8.3389616,-52.7557259,-90.2366409,7.0458016
9790,19.6126022,7.3645267,8.6382351,-23.5114498,-75.0839691,-67.4656525
9800,19.6126022,6.3541789,8.9087791,6.9236641,-70.8320618,-124.3587799
9810,16.5773678,5.6263452,8.6286592,38.9771004,-77.8167953,-164.3969421
9820,13.8791161,4.9679432,7.5632443,70.7862625,-84.6564865,-192.6564941
9830,11.5471754,4.9487896,5.9423780,96.3129807,-80.4885483,-210.8549652
9840,9.6868906,5.2169390,4.2209558,114.2977066,-65.9618301,-222.8702240
9850,8.5089493,5.6790175,2.3534882,123.7175598,-42.0076332,-234.1068726
9860,7.8505473,5.9735026,0.7757174,126.2137375,-14.8244276,-250.1374054
9870,6.9335728,5.9711084,-0.8499373,122.9847336,9.6717558,-250.1374054
9880,5.7292953,5.5593081,-2.1284344,118.0305328,26.0381680,-250.1374054
9890,4.1994085,4.9559722,-3.1292057,111.9770966,27.4198475,-250.1374054
9900,2.7174051,3.8570392,-4.0246325,106.5267181,13.6564884,-250.1374054
9910,0.9768293,2.6312141,-4.8266859,100.7480927,-5.6183205,-250.1374054
9920,-1.2354017,1.5035510,-5.3821378,96.8091583,-23.0305347,-250.1374054
9930,-4.2999644,0.7134684,-5.7508430,88.9694672,-38.4198456,-250.1374054
9940,-8.5304966,0.5243275,-5.8106980,77.5801544,-50.7099228,-250.1374054
9950,-15.3730907,0.8044477,-5.3318601,64.0687027,-64.0687027,-250.1374054
9960,-19.6131992,1.9392935,-4.1467361,52.0839691,-91.4961853,-250.1374054
9970,-19.6131992,3.0238612,-3.3925664,48.7099228,-133.1221313,-250.1374054
9980,-19.6131992,3.2537034,-4.1371593,49.0305328,-146.8015289,-154.9007568
9990,-19.6131992,3.5960727,-6.2775645,34.7099228,-97.0000000,-37.8931313
