Number, AccelX, AccelY, AccelZ, GyroX, GyroY, GyroZ
12325, 0.5386927, 1.9345051, 9.6844959, -2.3893130, 1.5954199, 1.2290076
12326, 0.6177009, 1.9033806, 9.6916790, -3.2442749, 2.8702290, 1.3206106
12327, 0.6224893, 1.8698620, 9.7491398, -4.1908398, 4.5038166, 1.4351145
12328, 0.5937590, 1.8961980, 9.7682934, -3.9694657, 4.4503818, 1.8931298
12329, 0.4692611, 1.8100072, 9.8784256, -3.6717558, 3.2213740, 2.3282442
12330, 0.5219333, 1.8674678, 9.8185711, -3.4274809, 1.4732825, 2.1832061
12331, 0.4955972, 1.8578910, 9.8951855, -2.6641221, -1.0305344, 1.8396946
12332, 0.2346306, 1.7740943, 10.0843258, -1.2061069, -5.0076337, 2.2366412
12333, 0.0215477, 1.6328372, 10.3452930, 2.4122138, -11.5190840, 3.7480917
12334, -0.0574605, 1.4628497, 10.4266949, 7.6793895, -16.0839691, 6.0229006
12335, 0.2418131, 1.5610116, 10.0651722, 12.0305347, -18.4198475, 8.6793890
12336, 0.6895266, 1.7405758, 9.6246414, 12.1526718, -15.1755724, 9.0839691
12337, 0.9840119, 1.8339491, 9.3732519, 7.8396945, -9.7633591, 7.6641221
12338, 1.0318956, 1.9584470, 9.2367830, 3.1145039, -5.9312978, 5.9236641
12339, 1.0175306, 2.0685797, 9.3660688, -1.0305344, -3.6564887, 3.9465649
12340, 0.8571198, 1.9895715, 9.4450769, -3.7404580, -2.6946564, 2.6335878
12341, 0.7996593, 2.1332228, 9.6006994, -4.3816795, -2.3511450, 2.0305343
12342, 0.7637464, 2.0135133, 9.6653433, -4.4351144, -1.8396946, 2.1908398
12343, 0.8427547, 2.0183017, 9.7036495, -3.8396947, -1.1145039, 2.7557251
12344, 0.8834559, 2.0135133, 9.6366129, -3.5343511, -0.8015267, 2.8244274
12345, 0.9409165, 2.0925217, 9.6366129, -4.0687022, 0.0000000, 2.2442749
12346, 1.2641320, 2.1882892, 9.5647869, -4.9389315, 1.0763359, 0.4580153
12347, 1.2904681, 2.1858950, 9.4139528, -6.4351144, 1.9923664, -1.7099236
12348, 1.1875180, 2.0997043, 9.6030941, -8.0381680, 1.9694656, -3.9083970
12349, 1.0893562, 2.1404054, 9.6485834, -9.1221371, 3.6564887, -5.1297708
12350, 0.9097920, 2.0278785, 9.6916790, -8.7328243, 4.4809160, -5.7786260
12351, 0.8212070, 2.0398495, 9.6509781, -7.8702292, 2.9312978, -5.8931298
12352, 0.8643024, 2.0135133, 9.6749191, -7.4809160, 2.4503818, -5.9541984
12353, 0.8547257, 2.0709739, 9.5384512, -7.9160304, 4.2824426, -6.3587785
12354, 0.9121862, 2.1236460, 9.5695753, -9.2595415, 6.6641221, -6.9770994
12355, 0.8714849, 2.2002602, 9.5576038, -10.1450386, 9.2366409, -7.8854961
12356, 0.5841822, 2.2194135, 9.6964674, -10.6641226, 9.5572519, -8.1068707
12357, 0.5027798, 2.3822186, 9.6773138, -10.3358774, 8.1984730, -8.0458012
12358, 0.4141948, 2.5617826, 9.7228031, -10.0229006, 6.4045801, -7.9694657
12359, 0.3615226, 2.7174051, 9.7706871, -10.2748089, 2.4809160, -7.6488547
12360, 0.3399749, 3.0358322, 9.8520899, -11.5419846, -0.4732825, -7.5877862
12361, 0.3806761, 3.3853838, 10.2064295, -13.6106873, -2.3664122, -6.7862597
12362, 0.2370248, 3.7516949, 10.5655584, -15.6870232, -2.0992367, -5.2748094
12363, 0.0909792, 4.2089849, 10.9725704, -17.1450386, -0.7633588, -1.8091604
12364, 0.0000000, 4.6327567, 11.4585905, -18.2519093, -0.6946565, 3.3664122
12365, 0.4070122, 5.4132624, 11.9517937, -20.7557259, 2.0992367, 7.5572519
12366, 0.7254394, 6.3326311, 12.2845860, -25.0992374, 6.0458016, 9.6183205
12367, 0.9050036, 7.5369086, 12.7682123, -31.2748089, 11.6106873, 8.0076332
12368, 0.3782819, 8.4538832, 13.9389706, -36.1450386, 12.8244276, 4.7633586
12369, -0.6751614, 9.4498653, 15.1743727, -34.6412201, 7.3358779, 1.6183206
12370, -1.9943599, 10.5727406, 16.6037045, -25.0076332, -9.2442751, 1.6793894
12371, -2.6599445, 11.6932211, 17.4991302, -8.5114508, -30.1832066, 5.4809160
12372, -2.9807658, 13.1177645, 17.9229031, 9.9847326, -50.2366409, 11.7862597
12373, -2.6790979, 14.4489336, 17.7696743, 26.1908398, -69.1221390, 16.3587780
12374, -2.1332228, 15.8471403, 17.2261925, 40.1984749, -82.4351120, 18.3969460
12375, -0.7876883, 17.2429523, 16.0817699, 52.6030540, -87.8320618, 14.3358774
12376, -0.4213773, 18.6052456, 14.0347385, 59.7633591, -93.7480927, 5.0381680
12377, 1.1492109, 19.1654873, 11.6166077, 61.8625946, -102.0610657, -7.7633586
12378, 1.6280488, 19.3115330, 8.7411861, 54.9312973, -101.7251892, -29.2366409
12379, 1.2066715, 18.4472294, 6.2703824, 40.6030540, -100.6259537, -45.6412201
12380, 0.2513899, 15.0043850, 4.1778607, 24.2671757, -96.3969498, -53.3511467
12381, -1.3910241, 10.8169479, 2.2313845, 12.1068707, -95.1755753, -43.1603050
12382, -2.7557120, 5.9375896, -0.0981618, 0.0076336, -90.4961853, -16.3053436
12383, -2.6479735, 0.4596844, -1.6065011, -14.5877867, -82.6870193, 25.7175579
12384, -0.0191535, -5.1929970, -1.9656296, -27.6717548, -56.0992355, 66.8625946
12385, 4.6447277, -12.1696653, -1.4700323, -36.6870232, -15.9007635, 94.8396912
12386, 9.2774839, -17.6451759, -0.7230452, -46.2213745, 40.4198456, 98.4809189
12387, 14.5806141, -19.6131992, -0.3615226, -60.4045792, 88.4351120, 68.2977066
12388, 18.9045200, -19.6131992, 0.2992737, -84.4427490, 97.1450348, -1.2061069
12389, 19.4551830, -19.6131992, 0.7445929, -119.6564865, 69.0916061, -96.5343475
12390, 17.1854916, -19.6131992, 2.5210814, -164.6946564, 13.3664122, -195.5877838
12391, 14.3100700, -19.6131992, 6.3637557, -213.8854980, 9.3206110, -250.1374054
12392, 6.6893654, -19.6131992, 9.6126709, -250.1374054, 73.7709961, -250.1374054
12393, -8.5017672, -19.6131992, 13.7857428, -250.1374054, 113.3053436, -250.1374054
12394, -19.6131992, -19.6131992, 19.6126022, -250.1374054, 98.9007645, -250.1374054
12395, -19.6131992, -19.6131992, 19.6126022, -195.9847260, 56.5190849, -137.7938995
12396, -19.6131992, -17.5853214, 19.6126022, -68.9465637, -9.3358774, 45.5267181
12397, -13.4194317, -13.6803989, 19.6126022, 48.9236641, -38.8396950, 180.2061005
12398, 0.9888002, -12.4473906, 17.0801468, 122.5343475, -19.1755733, 245.3053436
12399, 12.1720591, -11.0563669, 9.1027079, 145.1221313, 8.4274807, 246.9389343
12400, 18.3299141, -10.2686787, 4.5226240, 134.5954132, 21.8473282, 199.1450348
12401, 18.1527443, -11.0108776, 3.4117200, 123.4198456, 12.4809160, 133.2977142
12402, 13.4361916, -11.4801388, 3.4739690, 128.8091583, -26.2671757, 78.8091583
12403, 8.5783806, -11.3963413, 3.5912843, 143.4656525, -64.8015289, 54.7938919
12404, 5.6119800, -9.9263096, 3.2465210, 158.8702240, -76.2824402, 58.3587799
12405, 4.1730723, -8.2431946, 2.1380112, 164.5419922, -62.3587799, 74.7938919
12406, 3.5481887, -5.6502872, 0.6775556, 154.5954132, -43.6335869, 92.5038147
12407, 4.4268565, -2.3558824, 0.0957676, 130.1068726, -22.5877857, 101.0381699
12408, 6.8186517, -0.5458752, 0.1029501, 96.2748108, 14.6946564, 96.5038147
12409, 8.6645718, 0.1963235, 0.4189832, 56.5648842, 74.7480927, 75.6412201
12410, 7.4387465, 1.1372399, 1.2401901, 21.5038166, 106.3893127, 49.5725174
12411, 5.8537931, 1.4724265, 2.9472473, 1.7099236, 89.3587799, 21.2595425
12412, 3.3710186, 1.2354017, 5.5784616, -4.0381680, 66.1450348, -0.4122137
12413, 0.7541697, 1.9991482, 7.7021074, 8.1832066, 26.7786255, -7.7862597
12414, -0.6368544, 2.6479735, 8.8992023, 28.0381680, -10.7862597, -8.7099237
12415, -0.3639168, 3.0741394, 8.8154058, 41.7480927, -37.3816795, -7.8473282
12416, -0.1221037, 3.0621684, 7.9056134, 40.5648842, -41.2595406, -7.6488547
12417, 0.3687052, 2.9759774, 6.8832946, 23.1297703, -23.8244267, -0.0610687
12418, 1.2904681, 2.8706331, 7.1083484, -2.2213740, 7.4122138, 10.8473282
12419, 1.4915800, 3.3470769, 7.8050575, -27.1526718, 33.2671738, 21.1832066
12420, 2.0518203, 4.0102673, 8.2886839, -48.4045792, 53.6106873, 30.4580154
12421, 2.2457497, 4.9583664, 9.6964674, -64.4045792, 62.3511467, 33.0992355
12422, 1.1539993, 5.8011212, 11.8057480, -66.8702316, 48.8396950, 26.6564884
12423, 1.5921360, 5.8801293, 12.6532917, -52.6870232, 21.5267181, 12.8473282
12424, 1.9728121, 4.9032998, 12.7897596, -29.6870232, 2.7404580, -2.2824428
12425, 1.8435259, 4.5010762, 11.9661589, -17.0152664, -1.1603054, -11.6030531
12426, 1.2784972, 4.7237358, 11.5208397, -13.9618320, 8.0229006, -12.4656487
12427, 0.7924767, 5.3222833, 11.0898857, -12.8625956, 19.8854961, -6.9236641
12428, 0.4812321, 6.1626434, 11.0755205, -11.4274807, 33.7251892, -1.4503816
12429, 0.0215477, 6.6821828, 11.2215662, -10.1221371, 41.4045792, 1.3893130
12430, -0.6631905, 7.0101867, 11.5639353, -5.2213740, 36.8320618, 2.1526718
12431, -0.6703730, 6.7324610, 11.6836443, 2.2519083, 24.4198475, 1.8167939
12432, -0.6967092, 6.4643116, 11.6094246, 7.0916033, 13.7328243, 2.6183207
12433, -0.1604107, 6.5935979, 11.5280218, 9.3740454, 9.7099237, 5.6030536
12434, 0.5913648, 6.6342988, 10.9438400, 7.7175574, 11.7786255, 7.3129773
12435, 1.1539993, 6.9072366, 10.3285332, 0.7251908, 17.7786255, 6.0687022
12436, 1.3311694, 6.8521700, 10.2782555, -8.1984730, 23.6564884, 2.8549619
12437, 1.1611819, 6.6390872, 10.4482431, -15.8091602, 25.1908398, -1.3206106
12438, 0.8068419, 6.1003947, 11.1042509, -18.7862587, 24.4732819, -7.1145039
12439, 0.3806761, 5.2935529, 11.5399933, -14.3587790, 17.3053436, -12.4122133
12440, 0.1101327, 4.6016321, 11.4921093, -6.8091602, 7.6717558, -16.3053436
12441, -0.2106887, 4.1874375, 11.2909975, -0.5801527, 0.2900763, -18.0763359
12442, -0.4644727, 3.6966286, 10.8696203, 2.2137403, -1.0610687, -17.1297703
12443, -0.7709290, 3.2920105, 10.5320396, 1.1832061, 0.4885496, -12.3969469
12444, -0.7924767, 3.1124463, 10.2184010, -2.0687022, 4.9236641, -5.5419846
12445, -0.6392486, 2.9831600, 10.1417866, -7.1297708, 9.6030531, 0.5267175
12446, -0.4070122, 2.7461352, 10.1393919, -12.1450386, 12.7557249, 4.1679387
12447, -0.3471575, 2.4899571, 10.6589317, -14.1221371, 11.1221371, 5.3664122
12448, -0.1771700, 2.2864509, 10.9438400, -9.7175570, 4.6793895, 5.0687022
12449, 0.2609667, 2.0853391, 10.9989061, -1.1984733, -2.8625953, 3.3587787
12450, 0.5003856, 2.0781565, 10.6565371, 5.6412215, -4.8167939, 1.2900764
12451, 0.4908088, 2.1691356, 10.0651722, 7.9847326, -1.4809160, -0.7099237
12452, 0.1532281, 2.2218077, 9.7204094, 6.2519083, 0.9694657, -2.2900763
12453, -0.0766141, 2.0542145, 9.7539282, 4.3435116, -1.7786260, -2.9465649
12454, -0.1867468, 2.0087249, 9.7395630, 3.9160306, -6.2290077, -3.3816793
12455, -0.0957676, 2.0063307, 9.6916790, 3.9847329, -10.3740454, -2.9923663
12456, 0.2585725, 1.8052188, 9.8185711, 3.2671757, -9.5419846, -2.6946564
12457, 0.2537841, 1.6687500, 9.7898407, 1.0763359, -4.2213740, -1.7251909
12458, 0.0670373, 1.5825592, 10.0603838, -0.9923664, 0.3587786, 0.4656489
12459, 0.0885850, 1.4460905, 10.3357162, -0.8549618, 3.8931298, 3.2748091
12460, 0.1316804, 1.4053892, 10.2495251, 0.6030535, 6.3740458, 5.6412215
12461, 0.2657550, 1.4939742, 10.0077124, 0.3893130, 9.3587790, 7.2977099
12462, 0.4501076, 1.5490406, 9.8592720, 0.0076336, 10.7557249, 7.6946564
12463, 0.5099624, 1.5035510, 9.6629486, -0.5572519, 8.0687027, 6.6870227
12464, 0.5243275, 1.4413021, 9.7251978, -0.9618320, 4.8549619, 5.3893127
12465, 0.6607963, 1.2976507, 9.7419567, -1.4045801, 2.5572519, 4.2900763
12466, 0.4070122, 1.1755470, 9.9358864, -1.4427481, 1.0229008, 3.6106870
12467, 0.4812321, 1.0654143, 10.1513634, -1.1450381, 0.7175573, 3.7938931
12468, 0.5458752, 1.0366840, 10.1034794, -1.2290076, 3.2519083, 3.9083970
12469, 0.4860204, 1.0007712, 9.9765873, -1.7938931, 5.5267177, 4.6488547
12470, 0.4620786, 0.9097920, 9.9622221, -3.0916030, 6.8473282, 5.6259542
12471, 0.3974355, 0.9073978, 9.9526453, -4.0992365, 6.7480917, 6.3969464
12472, 0.4620786, 0.8762733, 10.0484133, -3.3816793, 5.6488547, 7.1984735
12473, 0.7230452, 0.8690908, 10.1729107, -2.0839694, 4.6946564, 7.5267177
12474, 0.9576758, 0.8810617, 10.1274214, -0.6335878, 4.0763359, 5.8320613
12475, 1.0414724, 0.9026094, 10.0508070, 0.3893130, 4.0381680, 2.9923663
12476, 0.8690908, 0.9337339, 10.1058741, 1.2824427, 2.3587787, 0.5343512
12477, 0.5961532, 0.8666966, 10.0675669, 2.8320611, -0.1221374, -0.9618320
12478, 0.4596844, 0.8666966, 9.8640604, 3.1984732, -1.4045801, -1.1450381
12479, 0.4261657, 0.8906385, 9.7395630, 1.3664122, 0.0763359, -0.4198473
12480, 0.3926471, 0.9002152, 9.7204094, -1.8091604, 2.0839694, 0.8778626
12481, 0.4309541, 0.9864060, 9.9191265, -4.2977099, 4.7404580, 1.7328244
12482, 0.4046180, 0.9864060, 10.0699606, -5.3664122, 6.0916033, 2.2748091
12483, 0.4429250, 1.0366840, 10.1872759, -4.5572519, 5.8167939, 2.4656489
12484, 0.5386927, 1.0773853, 10.2543135, -2.2290077, 3.5801528, 1.0534351
12485, 0.6440369, 1.1875180, 10.0484133, 0.1297710, -1.3893130, -1.3511450
12486, 0.7637464, 1.2713146, 9.8760319, 1.4045801, -4.8473282, -4.3129773
12487, 0.7350162, 1.3838415, 9.7515335, 0.1297710, -4.3053436, -6.4198475
12488, 0.6368544, 1.4365137, 9.8065996, -2.0763359, -0.6335878, -7.3664122
12489, 0.4070122, 1.3575054, 9.8784256, -3.6488550, 2.4961832, -7.1755724
12490, 0.2011119, 1.3072275, 10.0460186, -3.6335878, 2.4580152, -5.8473282
12491, 0.0287303, 1.4293311, 10.0244713, -2.4274809, 0.7786260, -3.9618320
12492, 0.2537841, 1.5370697, 10.0412302, -0.7099237, -0.1374046, -2.4045801
12493, 0.4501076, 1.7286048, 9.9023676, -0.3511450, 0.5801527, -2.2442749
12494, 0.4908088, 1.9225341, 9.6988611, -1.0534351, 1.6793894, -3.0839694
12495, 0.4525018, 2.0757623, 9.7443514, -1.1679389, -0.1755725, -3.4122138
12496, 0.5243275, 2.3175755, 9.6054878, -1.1984733, -3.1526718, -4.5038166
12497, 0.8283895, 2.5881188, 9.8065996, -1.1297710, -5.0381680, -6.1374044
12498, 1.1994889, 2.8778157, 9.7922344, -2.1374047, -3.0000000, -8.9770994
12499, 1.1013272, 3.3686244, 9.8329363, -4.5267177, 1.7328244, -11.2595415
12500, 0.7302278, 3.9671719, 9.9598284, -6.8931298, 5.4885497, -12.5343513
12501, 0.0167593, 4.6566987, 10.2351599, -7.8702292, 5.5267177, -12.0763359
12502, -0.3998296, 5.8322453, 10.5009146, -8.6870232, -0.0305344, -11.4503813
12503, 0.0359128, 7.0149751, 11.0443964, -11.1221371, -4.0000000, -13.9618320
12504, 0.1173153, 7.9582858, 11.4801388, -14.4656487, -4.0687022, -19.8473282
12505, -0.4764437, 8.5376797, 12.2558556, -16.6717548, -12.3740454, -22.3053436
12506, -0.7158626, 9.0739784, 13.2398672, -16.3816795, -24.2748089, -20.7480907
12507, -0.8690908, 9.7299862, 14.3771076, -10.7404585, -35.3053436, -16.6641216
12508, -0.9337339, 10.6852674, 15.3946381, 1.7022901, -46.3511467, -11.0992365
12509, -0.8523315, 11.7458935, 15.7633438, 17.8091602, -60.8702278, -5.1297708
12510, -0.4764437, 12.8280668, 15.2342272, 32.2137413, -71.6946564, -0.5877863
12511, -0.0790083, 13.8096848, 14.4034433, 42.7862587, -82.4580154, 0.5877863
12512, 0.5793939, 15.0618458, 13.2757807, 45.7557259, -87.9694672, -2.6641221
12513, 0.8666966, 15.9357252, 11.9901009, 38.6030540, -85.0534363, -9.7557249
12514, 0.4118006, 16.4576588, 11.1521349, 24.7862587, -85.0381699, -18.1374054
12515, -0.3926471, 16.2637291, 10.8744087, 11.0458012, -89.3816757, -24.9847336
12516, -1.9225341, 15.7513723, 10.9629936, 6.1450381, -103.1221390, -24.8778629
12517, -3.1603301, 15.1001530, 10.7714586, 11.2442751, -119.5572510, -20.3435116
12518, -4.8338685, 13.8120794, 10.0005293, 27.1374054, -147.4045868, -10.0152674
12519, -5.1882086, 11.4873209, 8.0803890, 50.4885483, -183.1221313, 10.4427481
12520, -4.2927818, 8.5807753, 4.7548604, 64.9083939, -190.7480927, 41.7404594
12521, -2.3774302, 4.9224534, 1.0223188, 56.6946564, -158.6717529, 78.0916061
12522, 0.9337339, 0.1412572, -2.3343346, 31.6870232, -96.8320618, 112.6030502
12523, 5.2815819, -5.6957769, -4.0006905, -5.6717558, -31.0839691, 129.8625946
12524, 10.4362717, -12.3204985, -3.4404502, -39.0763359, 20.7633591, 119.9770966
