timestamp,rxacclX,rxacclY,rxacclZ,rxgyroX,rxgyroY,rxgyroZ,txacclX,txacclY,txacclZ,txgyroX,txgyroY,txgyroZ
0,-1.8363433,1.2904681,9.4091644,9.3206110,-8.4732828,6.1603055,-4.1874375,0.8595140,9.7970228,-6.9312978,-0.8015267,0.9694657
10,-1.6543850,1.2521610,9.4235296,8.7557249,-7.6870227,4.6030536,-4.1874375,0.8188128,9.7060442,-5.6412215,0.4198473,0.0534351
20,-1.6472024,1.4796091,9.4307127,8.0610685,-6.5648856,3.0229008,-4.1251884,0.7421987,9.4259243,-5.8015265,1.0992366,-0.8702290
30,-1.7405758,1.4317253,9.4067707,6.6641221,-5.7328243,1.7786260,-4.2832050,0.6775556,9.2272062,-6.8778625,2.1679389,-1.6946565
40,-1.7381816,1.4556671,9.5121145,5.7938933,-4.9160304,1.0839695,-4.3933377,0.8643024,9.1242561,-8.9541988,1.4656489,-2.0992367
50,-1.7980363,1.3862357,9.5504217,5.2137403,-3.6030533,0.2366412,-4.4579806,1.0486550,9.0572186,-11.0152674,0.2061069,-2.1755726
60,-1.8411317,1.3766589,9.5767574,4.7862597,-3.0000000,-0.1984733,-4.5106530,1.1180865,9.2343884,-12.5801525,-0.9160305,-2.7557251
70,-1.9057748,1.3503228,9.4905672,4.7786260,-2.4580152,-0.3282443,-4.5441718,0.9816177,9.2248116,-13.2442751,-1.6106870,-2.7786260
80,-2.3654592,1.2162483,9.6725254,5.5114503,-7.6793895,5.0458016,-4.2832050,0.8690908,9.7922344,-6.4198475,-5.1145039,-5.6564884
90,-2.9352763,1.2114599,9.7228031,11.8549614,-22.2137413,15.7251911,-4.6758518,0.7421987,9.5695753,-1.4427481,-1.3587786,-2.7709923
100,-3.4500270,1.3096216,9.8185711,14.6641226,-29.1908398,22.0534344,-4.5729017,0.7493813,9.6366129,-0.0763359,-0.4045801,-2.9007633
110,-5.9232249,0.4955972,11.5088692,51.7251892,-113.0381699,78.0916061,-4.4172797,0.7230452,9.5025377,4.1526718,1.1068702,-1.9236641
120,-6.4762826,1.5442522,12.6939926,72.0229034,-175.9236603,99.8931274,-4.4124913,0.6440369,9.5264797,4.3664122,0.7938932,-3.2900763
130,-5.0373745,0.8116302,11.6190014,96.1221390,-192.6106873,119.1145020,-4.4795284,0.6177009,9.4522600,4.8778625,0.3511450,-4.1679387
140,-4.1180058,-0.1292862,9.5240860,105.6183243,-174.4198456,136.0610657,-4.4077029,0.4860204,9.6653433,5.1755724,-0.4198473,-6.8549619
150,-2.9592183,-0.6416427,7.5273318,97.6412201,-174.8091583,152.8396912,-4.3765783,0.1173153,9.7347746,6.6488547,-0.7633588,-11.8702288
160,-2.0590029,-0.1795642,6.5720501,76.4351120,-145.6946564,163.8931274,-4.4364328,-0.1867468,10.1441803,10.7633591,1.6946565,-20.1832066
170,-1.5849534,0.8523315,5.8537931,59.0152664,-130.9770966,173.3129730,-4.4531922,-0.4477134,10.5200682,17.7251911,8.3358774,-30.1832066
180,-0.9768293,1.5634058,6.7444315,50.6564903,-135.0458069,180.9847260,-4.8242917,-0.1364688,10.5080976,26.2290077,18.3435116,-37.0152664
190,2.7509236,1.7956421,9.4163475,50.4580154,-112.3893127,179.5267181,-5.2313042,0.6320660,10.2519188,35.8396950,22.6412220,-35.8702278
200,5.1762376,2.0254843,11.9948893,43.1603050,-28.5648861,165.8854980,-5.5808558,1.3694763,9.9239149,42.6106873,23.1908398,-26.6641216
210,7.9630742,1.9297167,12.6892042,54.8854980,-72.4503784,139.9847260,-5.5593081,1.5945302,9.1505919,44.3358765,24.5801525,-14.7251911
220,8.7747040,2.3391230,12.0547438,75.4045792,-59.3206100,103.4961853,-5.3079181,1.6184721,8.2862902,40.3740463,27.2213745,-4.0458016
230,4.0844874,2.3630650,8.0396881,80.6106873,-3.6488550,63.0687027,-4.7165532,1.4628497,7.6183109,21.7633591,21.7862587,4.9083967
240,2.9975252,2.6503677,7.9247670,67.4885483,13.3664122,64.6030502,-4.5657191,1.4245427,7.5991573,11.1679392,12.8625956,4.8854961
250,2.6360025,2.7030399,8.1977043,60.0534363,36.0458031,78.0000000,-4.4651632,1.4389079,7.8505473,1.5190840,5.4961834,3.2595420
260,3.2967989,2.8371146,7.9056134,52.1145020,52.9083977,90.3206100,-4.6399393,1.3407460,8.4347296,-5.3129773,0.0839695,3.0687022
270,4.3430595,3.4069316,7.5967631,39.0076332,84.2366409,95.4732819,-4.8386569,1.1851238,8.8297710,-8.6564884,-3.7557251,1.9770992
280,5.3653784,5.0301919,8.7387915,-18.4198475,250.1297760,58.0763359,-4.9727316,0.5937590,9.4905672,-3.9312978,-13.6259546,-0.1679389
290,4.8075323,4.6399393,9.2703018,-21.5419846,250.1297760,45.4656487,-4.7476778,0.4046180,9.6102762,-2.8167939,-19.1450386,-5.4580154
300,3.8546450,4.2951760,9.2056589,-18.5496178,250.1297760,32.3893127,-4.6471219,0.3064562,9.7682934,-1.7404580,-24.5419846,-10.5038166
310,3.1531475,4.2185616,9.1027079,-13.3587790,244.4885559,18.0992374,-4.5824785,0.3567342,9.8712435,-0.1908397,-27.0458012,-13.3206110
320,1.9776005,4.0270267,8.8154058,-6.2824426,208.2748108,2.3358779,-4.6231799,0.4572902,9.7108326,3.5572519,-21.1145039,-13.4656487
330,0.9457048,3.6870518,7.9247670,1.5801526,160.1984711,-9.7938929,-4.7596488,0.7661406,9.7275915,6.9694657,-13.0763359,-10.7480917
340,-0.4477134,3.5721307,6.7947097,12.3740454,33.1603050,-28.1755733,-4.5992379,1.0654143,9.3971939,10.8931293,1.8473282,-3.9160306
350,-0.8116302,3.3710186,6.2919297,17.0229015,-31.3435116,-35.0992355,-4.4484038,0.8547257,9.1074963,11.6030531,6.4580154,-2.5725191
360,-1.4006008,3.5649481,7.0604649,21.3740463,-99.7175598,-38.5801544,-4.6183915,0.2633608,8.3892403,9.3358774,5.9312978,-3.8549619
370,-0.9792235,3.7780309,7.5943689,29.8702297,-172.6259613,-38.2137413,-3.9623835,-0.8475431,7.6901364,-0.2824427,5.4656487,-10.2900763
380,-0.4548960,4.0773048,8.2192526,38.5038185,-235.1755676,-43.3511467,-3.8618276,-1.0462608,7.7499914,-12.3282442,14.5114508,-20.5572510
390,0.1244979,4.3933377,8.5831690,44.5801544,-250.1374054,-52.2671738,-4.7907729,-0.5913648,8.1905222,-21.7862587,24.4580154,-28.0763359
400,0.1005560,4.6854286,9.4019823,48.8244286,-250.1374054,-59.9007645,-5.7388721,0.4165890,8.8417416,-26.4732819,32.1908379,-26.1068707
410,0.8427547,4.5034704,9.7323799,53.9007645,-250.1374054,-67.1297684,-5.8968887,1.0821736,9.3062143,-25.0992374,41.7633591,-17.2442741
420,1.4867916,4.2089849,9.4187412,54.9312973,-250.1374054,-72.2824402,-5.8106980,1.5322813,9.5647869,-20.6564884,51.2290077,-10.2213745
430,2.0733681,4.3693957,9.4594421,49.1832047,-250.1374054,-72.6870193,-5.6718349,1.7118455,9.8329363,-15.4274807,60.1068687,-4.3969464
440,4.1084290,3.6152260,8.9614515,26.1526718,-250.1374054,-63.7786255,-5.1858144,1.8171898,9.6054878,-10.0687027,71.7633591,-2.6259542
450,7.6326761,3.6319854,10.6685085,9.8549614,-250.1374054,-48.0152664,-5.1355362,1.5394639,9.0236998,-9.4198475,85.3664093,-6.5801525
460,7.0293403,3.6463506,11.2886028,-3.9465649,-84.2595444,-36.2519073,-6.0908179,1.1085097,8.6238708,-17.4274807,90.8167953,-14.0076332
470,2.7700772,2.9448531,11.0659437,7.2671757,-12.9618320,-22.9618320,-7.8912482,0.7757174,8.8369532,-34.7480927,70.9923630,-25.6641216
480,1.2880739,2.9472473,9.6773138,25.5343513,-37.7328262,-7.6488547,-10.7163916,0.5698171,9.8808203,-54.5267181,24.5496178,-33.2061081
490,2.3247581,3.4404502,8.6095057,36.9389305,-59.6183205,3.3435113,-13.3116932,0.6847382,11.4346485,-71.9542007,-48.0916023,-33.2137413
500,3.1627243,4.4220681,7.5776095,36.0381660,-64.7404556,7.3664122,-13.9078465,0.5650287,13.5559006,-82.0229034,-113.8320618,-22.1450386
510,3.0908985,5.2241216,6.9216018,27.0992374,-66.3282471,9.1145039,-13.1057930,0.1460456,15.7346134,-76.1679382,-151.6488495,-6.3358779
520,3.1531475,5.1929970,6.6127515,17.9694653,-74.3664093,11.6564884,-11.7027979,-0.8331779,17.4368820,-52.2519073,-143.0610657,10.9847326
530,3.7588775,4.9368186,6.8066807,11.0458012,-79.9694672,12.5419846,-11.1976242,-1.3024391,18.3083668,-14.0458012,-95.7099228,32.9923668
540,4.6638808,4.6064205,7.0652533,6.3435116,-69.3587799,12.8167934,-11.5735121,-1.2449785,18.2868195,29.4885502,-31.6183205,60.6030540
550,5.1594782,4.3167233,7.4531116,3.7862597,-39.9083977,13.6335878,-11.9541883,-1.1180865,17.3028069,68.9618301,23.4885502,92.2519073
560,4.9727316,4.2257442,7.6398587,4.3053436,-15.5725193,16.8320618,-12.1409349,-1.1779412,15.5071650,96.2213745,65.4351120,123.2977066
570,5.0661049,4.0820932,7.7045016,6.0916033,-7.6641221,19.3129768,-12.2319136,-1.0558375,13.5175934,112.1526718,99.8625946,155.3358765
580,4.9847026,4.1850433,7.5129666,7.6946564,-5.3740458,19.9923668,-12.0379848,-1.1516051,12.0116482,117.8854980,124.6870193,186.5114441
590,4.8242917,4.2927818,7.2136927,8.1450386,-14.2748089,19.9083977,-11.5375986,-1.1396341,10.8720140,115.0229034,138.7709961,213.3435059
600,5.1451130,4.3382711,7.0221577,7.8320613,-22.8015270,19.3282452,-10.7882175,-1.0318956,10.5990763,107.9160309,140.2671814,236.3206177
610,6.3661499,4.5154414,6.9694853,4.8702292,-7.2213740,18.2366409,-10.2710724,-1.0031654,11.0013008,103.7328262,133.8244324,250.1297760
620,6.3254485,4.4699516,6.7755561,0.4427481,21.2748089,18.2290077,-9.4857788,-1.0534433,11.5160513,106.1450348,116.1908417,250.1297760
630,5.4970589,4.0653338,6.6319046,-2.4198472,48.2061081,24.4198475,-8.4610653,-1.4269369,11.4777441,114.1221390,101.3511429,250.1297760
640,5.4348102,3.8905578,6.6366930,-3.8625953,72.3969498,35.9923668,-7.3357964,-1.5777708,10.9294748,126.4351120,106.8854980,250.1297760
650,5.7580256,3.8857694,6.5552907,-5.9694657,99.1832047,48.9923668,-5.9878678,-1.5658000,10.1106625,139.4198456,117.9465637,250.1297760
660,6.1027889,4.0389977,6.5840211,-9.0534353,125.8244247,60.2519073,-4.9344244,-1.6232605,8.8513184,149.0152740,130.3053436,250.1297760
670,6.1291251,4.3957319,6.7587967,-12.8091602,163.8854980,68.3969498,-4.3622131,-1.4006008,7.4914188,151.8549652,142.1984711,250.1297760
680,5.7747850,3.9456241,6.4307928,-16.2442741,187.2442780,70.8931274,-3.8450682,-1.1659702,6.3948798,149.5954132,147.0534363,250.1297760
690,5.4611464,3.7325413,5.8801293,-34.2290077,234.8015289,57.6030540,-3.5170643,-1.1180865,5.2887645,143.0229034,148.4427490,250.1297760
700,3.0094962,4.8075323,6.4260044,-77.2442780,227.6717529,29.0305347,-2.3415172,-1.0366840,4.3023586,131.3969421,151.1374054,250.1297760
710,3.8929520,4.4555864,5.9998388,-104.5267181,230.7709961,15.5877867,-0.7876883,-1.2425843,3.6559272,116.5801544,158.6335907,250.1297760
720,4.3478479,3.6439564,6.4571290,-118.9847336,250.1297760,7.0687022,0.6129125,-1.2210367,3.4093258,100.7480927,168.1679382,250.1297760
730,1.7477583,3.8187323,7.7978749,-131.6259613,250.1297760,-2.5114503,1.6112895,-0.8571198,3.5888901,87.0916061,180.4732819,250.1297760
740,0.0407012,3.6487448,9.6270361,-131.2366486,250.1297760,0.8778626,1.5059452,-0.5937590,4.0078731,73.5496216,187.9236603,250.1297760
750,0.2777260,2.9376705,10.9151096,-119.8015289,222.8473358,4.1832061,0.7757174,-0.2130829,4.1347651,65.0610657,181.2366486,250.1297760
760,-0.5722113,2.5043221,11.8488436,-96.4732819,178.7022858,5.3435116,1.0271072,-0.2849085,3.6678982,54.4580154,157.3816833,250.1297760
770,-0.8858501,2.1284344,12.7514534,-70.1526718,127.3129807,10.5267172,3.0885043,-0.4237715,3.6583214,42.3664131,138.0381622,250.1297760
780,-0.6200951,1.9129574,12.0738974,-47.2061081,100.2671738,18.6564884,4.5202298,-0.2370248,4.0174499,30.7862587,125.4427490,250.1297760
790,0.1843526,2.2218077,11.0683374,-38.1755714,119.3969498,24.4351139,6.0118098,-0.1675933,5.1163831,24.6793900,115.0763321,250.1297760
800,0.7374104,2.5115047,10.8720140,-43.5190849,147.6030579,25.0076332,7.5057840,0.3447633,6.1794028,27.9541988,117.3053436,250.1297760
810,0.5147507,2.7030399,11.3604288,-41.5190849,153.6641235,21.5801525,8.6645718,0.7493813,7.0006099,38.7328262,131.0229034,228.4045868
820,0.6320660,2.9113343,9.7946291,-32.9007645,148.4732819,15.9847326,9.5264797,1.2186425,7.4291697,53.3282433,144.2213745,198.8854980
830,0.8547257,2.7030399,7.8984308,-26.7709923,119.6641235,7.0763359,10.2878323,1.7597293,7.4698710,68.2977066,146.5572510,165.6870270
840,1.3718705,2.8802099,6.7516141,-26.3664131,70.0916061,-4.5496182,10.8265247,2.3032103,7.2160869,82.1832047,137.5267181,130.9313049
850,2.6144550,3.1435707,6.7947097,-27.8854961,15.1068707,-20.2519093,12.0068598,2.8442972,6.3446021,92.6717529,110.8244247,89.3893127
860,4.3598189,3.5553713,7.5321202,-30.4427490,-29.2137413,-45.7862587,13.7665892,3.2441268,5.0732875,97.4580154,71.4580154,38.2137413
870,5.1259594,3.5505829,9.8903971,-29.6641216,-74.1984711,-79.6259537,15.7681322,3.5864959,3.0430148,94.1526718,30.6412220,-21.7099228
880,5.2313042,3.1579359,11.9422169,-20.1908398,-101.3664093,-113.8091583,17.0011387,3.8426740,1.5969244,83.8473282,4.5190840,-87.4045792
890,4.9272418,2.5569944,13.5439301,-1.2290076,-119.6564865,-148.5190887,18.9859219,4.0916696,0.8810617,71.9389343,-6.6946564,-156.4732819
900,3.9887197,1.1348459,16.1583843,18.4656487,-139.2366486,-184.8015289,19.6126022,3.7660601,1.1372399,60.3740463,-16.6793900,-241.3511505
910,3.8019729,0.7134684,14.9612904,66.6335907,-153.9923706,-216.0534363,19.6126022,2.7269819,1.5921360,48.3969460,-35.5801544,-250.1374054
920,3.8618276,0.7781116,15.1193066,121.5648880,-156.7022858,-250.1374054,19.6126022,0.6727672,2.5378408,36.7251892,-59.9618340,-250.1374054
930,2.5378408,0.2130829,14.3914728,178.2748108,-179.1603088,-250.1374054,18.1647148,-2.1811066,4.4555864,28.3435116,-89.5267181,-250.1374054
940,1.7166338,-0.2322364,12.4856977,222.8244324,-188.5267181,-250.1374054,14.2597923,-6.0094156,6.3900914,27.7175579,-120.8702316,-250.1374054
950,1.2569494,0.4285599,9.5240860,231.5648804,-159.6335907,-250.1374054,9.3493099,-10.2998028,7.9247670,32.9541969,-142.7862549,-250.1374054
960,-2.7245877,2.8802099,5.1666608,150.7633514,-211.2824402,-250.1374054,2.1116750,-14.8032732,8.8513184,48.1297722,-161.8854980,-250.1374054
970,-0.8834559,2.7293761,1.6902977,57.2519073,-206.9541931,-205.9618378,-8.7651272,-18.2245693,8.3916340,68.6335907,-226.5496216,-250.1374054
980,1.8147956,2.1499822,3.8019729,4.1984735,-169.8473358,-180.0915985,-19.3139267,-18.4496231,7.0628591,68.8015289,-250.1374054,-250.1374054
990,2.0326669,2.2218077,5.2935529,-18.8931293,-118.2442780,-175.7404633,-19.6131992,-15.5598373,4.8075323,22.3358784,-250.1374054,-250.1374054
1000,0.6153067,1.8961980,6.3829093,-40.6335869,-74.9542007,-168.5419922,-19.6131992,-11.7722292,4.2401094,-82.3435135,-250.1374054,-250.1374054
1010,-0.9121862,1.9033806,6.0429344,-73.4809189,-45.7786255,-146.9694672,-19.6131992,-8.1857338,7.8170285,-192.0686951,-250.1374054,-250.1374054
1020,-1.6879035,1.9129574,6.8928714,-112.1908417,-13.4809160,-108.4122162,-19.6131992,-2.6096666,17.3267498,-232.4351196,-250.1374054,-250.1374054
1030,-1.4389079,1.5179161,7.7068958,-132.5496216,31.3816795,-74.7862625,-19.6131992,1.2832855,19.6126022,-160.9770966,-177.4198456,-118.1145020
1040,-1.4604555,1.6208663,7.3166428,-142.3893127,58.8549614,-50.8320618,-19.6131992,0.5386927,19.6126022,-17.2137413,200.5267181,167.2137451
1050,-0.9696468,2.1116750,6.8928714,-155.4885559,91.1603088,-34.4656487,-19.6131992,-2.8466914,19.6126022,98.4732819,250.1297760,250.1297760
1060,-1.1061156,1.2593436,6.6917596,-179.2671814,135.9007568,-25.5190830,-19.6131992,-3.9719603,17.0250816,138.8167877,250.1297760,250.1297760
1070,-2.0733681,0.3854645,7.1562324,-197.8854980,181.8320618,-15.2290077,-12.5455532,-2.0901275,13.3092995,132.9694672,250.1297760,250.1297760
1080,-3.2106080,-0.8140244,8.9949694,-203.5877838,214.2748108,-4.5725193,-8.7028790,-0.3423691,11.5399933,115.3969498,250.1297760,250.1297760
1090,-4.4891052,-1.2018831,10.2710724,-203.6793823,201.1068726,4.4885497,-5.7628140,1.5873476,9.4115591,101.7175598,182.4503784,216.8778687
1100,-4.6782460,-1.1875180,11.9996777,-199.5419922,187.0686951,14.8396950,-4.0126615,3.2848279,6.9503322,88.8167953,22.8091602,142.4961853
1110,-6.0956063,-1.2808913,16.0219154,-183.7557220,130.6564941,22.5343513,-3.0932927,4.5752959,4.8338685,77.6488571,-89.3893127,84.4122162
1120,-4.6183915,-2.5426292,16.7856617,-149.2824402,44.7557259,29.5877857,-3.5960727,5.3294659,2.1978660,61.6030540,-143.9084015,44.1679382
1130,-2.4636209,-1.4796091,16.3523140,-112.5572510,31.2977104,33.7862587,-5.6263452,5.7436604,0.1771700,41.9236641,-137.3206177,30.7786255
1140,-1.1348459,-0.5003856,14.5423069,-69.2213745,5.7175574,37.0763359,-8.5975342,5.7676024,-1.2976507,20.7251911,-82.0687027,46.9847336
1150,-0.3280039,-0.1149211,11.0731258,-34.9160309,1.2290076,42.8473282,-11.0204544,5.5066357,-1.3479286,-1.5572519,10.1984730,83.6641235
1160,0.7110743,-0.1412572,9.6006994,-12.6412210,31.2442741,44.3282433,-13.1081877,5.5856438,-0.1628049,-20.6183205,89.0610657,129.7099304
1170,-0.0239419,-0.0407012,10.0699606,0.3511450,53.6946564,42.6030540,-13.2039547,5.3318601,2.0183017,-32.8244286,123.3893127,173.1297760
1180,-0.4668669,0.4118006,10.7954006,7.8015265,45.9541969,39.5572510,-12.0595322,4.7716198,3.9504125,-36.3664131,117.7633591,200.3511505
1190,-1.1156923,0.4860204,10.9773588,11.5190840,26.4580154,34.0839691,-10.6852674,4.2233500,5.0661049,-30.7862587,84.5877838,212.9618378
1200,-1.3910241,0.3734936,10.8289185,13.4198475,4.2595420,25.6335869,-8.6885138,3.9887197,5.4850879,-19.0534344,44.8778610,216.5496216
1210,-1.7214222,0.4908088,10.2902260,14.4885492,-16.7938938,19.2366409,-6.0932121,3.7349355,5.2815819,-3.9923663,22.1221371,213.0076294
1220,-1.8818330,0.5147507,9.9741936,15.1297712,-33.5038185,17.6183205,-3.8474624,3.8043671,4.4340386,9.7328243,26.8091602,199.9847260
1230,-1.6759326,0.4022238,9.8832140,15.1908398,-35.8015251,19.4732819,-3.3710186,4.3885493,3.4500270,20.3206100,47.7862587,183.8320618
1240,-1.0869620,-0.0359128,10.0412302,14.7251911,-24.3282452,22.2366409,-3.6942344,5.0038562,2.5091105,25.8778629,66.2290039,171.4885559
1250,-0.8068419,0.0742199,9.6437950,12.9847326,-13.5419846,23.3587780,-4.2353210,5.4515696,1.5849534,24.6335869,73.7328262,162.5114441
1260,-0.6512195,0.1723816,8.5783806,2.9847329,23.0229015,19.3969460,-5.4779053,6.0022330,-0.6057299,1.8167939,58.9007645,150.7633514
1270,-0.9217629,0.0215477,8.9111729,-4.7251906,11.8473282,11.6259546,-5.2336984,5.9304070,-0.6919208,-20.4122143,45.2671738,149.3740387
1280,-1.1803354,0.3950413,9.7371683,-11.6335878,-19.5190830,2.7709923,-4.3813667,5.6862001,-0.1244979,-41.9236641,29.9694653,145.4274750
1290,-1.3311694,0.5099624,10.5320396,-14.8320608,-61.3206100,-2.2519083,-3.2153964,5.4802995,1.2928623,-57.4503822,16.3511448,139.3358765
1300,-0.9361281,0.1604107,10.8408899,-15.3969469,-76.8473282,-8.0458012,-2.1882892,5.4779053,2.7389526,-63.6106873,7.2671757,131.1145020
1310,-1.0414724,-0.4692611,10.9701757,-15.4503813,-88.5419846,-11.9465647,-0.9911944,5.3174949,4.0796990,-60.5343513,4.0610685,119.4961853
1320,-1.0295014,-0.9672526,10.5559816,-15.0687027,-92.7175598,-13.0687027,0.3519458,5.3246775,4.6782460,-51.8854980,-1.2748091,103.3893127
1330,-1.2258250,-0.9816177,9.9957409,-14.5190840,-89.6870193,-9.7709923,1.6424140,5.4372044,5.2289100,-41.9694672,-9.2442751,82.5572510
1340,-1.3335636,-0.6057299,9.7467451,-14.6412210,-80.6564865,-2.4961832,2.8299320,5.5617023,5.1570840,-32.8244286,-20.7404575,56.1374054
1350,-1.0869620,-0.3495516,9.3564920,-16.0000000,-68.8854980,4.4045801,3.8570392,5.7699966,4.8697815,-26.6641216,-34.0076332,25.0839691
1360,-0.7398046,-0.2537841,9.5001440,-18.5343513,-61.5572510,8.5877867,4.9870968,5.8250628,4.4412212,-24.8854961,-53.0992355,-10.1068707
1370,-0.4165890,-0.1268920,10.0795374,-19.6641216,-66.2824402,8.3511448,6.1267309,5.7580256,4.2018023,-26.7938938,-76.5419846,-52.6030540
1380,-0.1771700,-0.0383070,10.3261395,-18.9160309,-82.6946564,4.1221375,6.8162575,5.5305777,4.0964580,-32.8778610,-99.4580154,-99.3816757
1390,-0.0790083,-0.1412572,10.4003592,-17.2748089,-105.0152664,-1.3206106,6.8378053,5.1953912,4.3909435,-40.8473282,-115.7251892,-146.5267181
1400,0.4094064,-0.2226596,10.5104914,-13.9236641,-125.2977066,-9.3816795,6.3182659,4.5489597,4.9751258,-47.8625946,-125.6946564,-191.4122162
1410,0.8762733,-0.0311245,10.7930059,-9.4122133,-132.6870270,-17.5267181,4.8625989,3.7469065,5.8130918,-50.1526718,-136.0229034,-234.4503784
1420,1.0510491,-0.1819584,10.9797525,-5.1374044,-143.7786255,-21.8702297,3.0549858,3.0645626,5.9687142,-49.4198456,-144.6717529,-250.1374054
1430,1.2090657,-0.3806761,10.9222927,-0.8931298,-156.9618378,-21.6106873,0.8331779,2.3486998,5.8226686,-49.9618340,-160.8396912,-250.1374054
1440,1.3263810,-0.4118006,10.1441803,0.3664122,-158.5419922,-17.7709923,-1.4484847,1.7238164,5.4419928,-54.8625946,-184.4580078,-250.1374054
1450,1.5681942,-0.3567342,8.9734221,-2.9618320,-147.5572510,-13.6106873,-3.5266411,1.0989330,4.9152708,-66.0763321,-208.1068726,-250.1374054
1460,1.8171898,-0.3830703,8.5927458,-9.8320608,-129.5190887,-7.4274807,-5.1092005,0.3160330,5.3605900,-84.1603088,-215.3129730,-250.1374054
1470,2.0206959,-0.1460456,9.0380650,-15.9694653,-119.8778610,2.2595420,-6.2272868,-0.5267217,6.4212160,-102.8091583,-198.2213745,-250.1374054
1480,2.3750360,-0.4908088,9.6342182,-19.1603050,-119.9312973,12.9541988,-7.4195933,-1.7381816,8.2216463,-115.3435135,-166.2366486,-250.1374054
1490,3.0597742,-1.0247130,10.3237448,-19.0458012,-125.8396912,22.1603050,-9.4235296,-2.9568241,10.4290895,-118.7404556,-139.1832123,-250.1374054
1500,3.5362179,-1.4843974,10.0388365,-16.5038166,-127.6030502,31.7786255,-12.3348637,-3.3566537,12.6054077,-115.6412201,-142.7709961,-250.1374054
1510,3.2273674,-1.2138541,9.7635050,-14.9541988,-138.1068726,41.0610695,-15.0091734,-3.0238612,15.0331154,-108.9618301,-178.6717529,-250.1374054
1520,3.6607156,-0.7613522,8.8249826,-13.5496187,-152.6564941,45.0152664,-15.8615055,-2.5234756,17.3243542,-96.9694672,-228.5267181,-250.1374054
1530,4.6159973,-0.4908088,8.2910776,-12.0687027,-152.4580078,40.5801544,-14.5566721,-2.2529323,18.8590298,-73.9694672,-250.1374054,-250.1374054
1540,5.5928264,-0.9720409,8.6262646,-10.4045801,-145.8854980,31.0458012,-13.9126348,-3.0094962,19.2061882,-41.6488533,-250.1374054,-250.1374054
1550,6.6845770,-0.4094064,9.1003141,-7.3358779,-133.5038147,17.3587780,-15.4497042,-3.4141142,19.4120884,0.3282443,-189.9694672,-209.6030579
1560,6.6366930,-0.3902529,8.7890692,-4.1145039,-121.1832047,4.9389315,-18.2173882,-2.3439114,19.4910965,58.0687027,-65.4961853,-131.3053436
1570,5.8418221,-0.2226596,8.5711985,-1.3358779,-97.0457993,-3.8320611,-19.0625362,-1.2330076,18.9763451,124.7938919,76.0000000,-40.1984749
1580,4.7381010,-0.3399749,8.3652983,2.1755726,-85.4427490,-6.6106873,-18.4017410,-0.1891410,16.6970768,182.7404633,186.2442780,41.4198456
1590,3.8163381,-0.4716553,7.9463148,6.4427481,-80.2366409,-5.1297708,-16.6635590,0.6392486,13.3236647,219.9389343,241.3816833,103.3206100
1600,3.1507533,-0.3782819,8.3676920,12.6717558,-79.1526718,-0.3816794,-14.9301653,1.5322813,10.0867205,233.7557220,244.3511505,141.3282471
1610,3.7971845,-0.7254394,8.9063845,19.2061062,-76.5572510,2.0992367,-13.0674858,2.2242019,7.0389171,227.8244324,221.9389343,161.8549652
1620,5.2049680,-1.0223188,9.2631187,25.9923668,-79.8091583,-2.3587787,-11.6980095,2.8371146,5.2911587,207.5038147,191.9541931,169.3511505
1630,5.6646523,-1.1587877,9.1912937,33.0000000,-83.9770966,-10.9694653,-10.5033092,3.5410061,4.1299767,181.8167877,160.4122162,168.9465637
1640,5.4372044,-1.0749911,8.4778252,38.2366409,-99.5038147,-17.0229015,-10.3788109,4.1204000,3.5314295,156.5572510,125.1526718,162.6183167
1650,6.0429344,-0.8068419,8.7387915,43.2061081,-100.0763321,-19.5190830,-10.9773588,4.6973996,3.0621684,134.7175598,98.0457993,158.4656525
1660,6.1315193,-0.3327923,8.6286592,49.2519073,-98.3511429,-18.4274807,-11.8272963,5.1618724,3.1100521,117.4503784,82.7633591,166.2213745
1670,6.3900914,0.1364688,7.9846220,55.7633591,-95.6564865,-16.8778629,-12.8615856,5.3629842,3.2680686,106.7862625,80.4503784,182.7175598
1680,7.0030041,0.4644727,7.7715387,63.1221390,-80.6412201,-16.6717548,-13.2901459,5.6215568,3.6104376,101.5343475,82.7786255,207.2748108
1690,6.7516141,0.7421987,6.9982157,66.9312973,-68.1297684,-13.0305347,-12.5216112,5.3988972,3.5601597,100.4656525,82.2671738,234.7251892
1700,6.5768385,0.9648584,6.4930420,65.0839691,-51.9618340,-3.3893130,-10.3931761,4.9511838,3.3566537,100.4809189,82.3740463,250.1297760
1710,6.2775645,1.0869620,6.2727766,59.9465637,-35.3282433,11.1832066,-7.6039457,4.6136031,2.9209111,99.6793900,89.8244247,250.1297760
1720,6.4595232,1.0534433,6.0620875,52.0305328,-20.3816795,25.2748089,-5.7149301,4.5441718,2.6934631,98.2213745,105.2061081,250.1297760
1730,6.8665352,1.1755470,5.9088597,43.7328262,-7.4503818,35.7404594,-4.6734576,4.6638808,2.3678534,95.0229034,118.3435135,250.1297760
1740,7.1993275,1.3862357,5.7316895,34.9389305,6.3740458,42.2671738,-4.2137733,5.0517397,2.1739240,90.5038147,123.4274826,250.1297760
1750,6.8761120,1.6807210,5.3725610,23.5877857,24.9083977,48.4274826,-3.4572096,5.0876527,2.0063307,83.2977066,117.9923630,250.1297760
1760,6.3374195,1.6807210,5.3055239,10.3129768,42.9160309,56.5038185,-2.2074428,4.9392128,2.0637913,75.2671738,110.5038147,250.1297760
1770,6.6151457,1.4077834,5.6335278,-4.1450381,61.8473282,64.6870193,-1.2210367,4.9487896,1.8914096,68.4961853,106.5419846,247.3358765
1780,6.4691000,1.1994889,5.7388721,-17.0916023,82.3969498,71.9923630,-0.4381367,4.9870968,1.7932479,63.1603050,104.5114517,237.8320618
1790,6.3996682,0.9959828,6.1650376,-27.9160309,99.3358765,78.1603088,0.1484398,5.0756817,1.5346755,57.6564903,101.8320618,227.6259613
1800,6.4212160,0.7972651,6.9000540,-36.0381660,110.5190811,81.7251892,0.7062859,5.3174949,1.1061156,51.5496178,95.0229034,216.5343475
1810,6.4020624,0.4261657,7.4267755,-41.9618340,119.9618301,80.5038147,1.5921360,5.4108682,0.7445929,42.9923668,84.3816757,203.6488495
1820,6.5552907,-0.0023942,8.0157461,-46.0458031,123.2824402,73.1297684,2.3774302,5.4491754,0.5243275,31.1984730,73.0381699,187.6793823
1830,6.6606350,-0.1651991,8.3461447,-48.2442741,119.8778610,60.4580154,2.7772598,5.5090299,0.3758878,18.5496178,59.8473282,169.9389343
1840,6.6079631,-0.8475431,9.2152348,-45.3511467,111.5038147,45.7328262,3.2249732,5.6024032,0.4094064,5.9236641,42.0534363,151.3893127
1850,6.3757267,-0.8595140,9.1553802,-38.2824440,95.6717529,31.6183205,3.6032550,5.6909885,0.4381367,-5.7328243,25.7328243,132.1526642
1860,6.2775645,-0.9768293,9.2415714,-31.7480907,84.5648880,19.5190830,3.8402798,5.7915444,0.5339043,-16.0076332,8.0458012,113.4961853
1870,5.4802995,-1.5131277,9.5671806,-23.9541988,76.1832047,13.3358774,3.9264708,5.9256191,0.5243275,-25.6106873,-10.5648851,94.4656525
1880,5.3103123,-1.9608412,10.1848822,-16.4427490,55.3435097,10.7022905,4.3478479,5.9663200,0.6200951,-34.6793900,-26.2748089,77.2824402
1890,5.6694407,-2.1212518,10.5440102,-5.8167939,35.6335869,3.8931298,4.6902170,5.9902620,1.1276633,-42.8167953,-36.3053436,59.5267181
1900,5.8585815,-2.0542145,10.9917240,10.8549614,11.3129768,-8.5725193,4.9918852,5.9447722,1.4652439,-47.3816795,-44.6488533,41.2977104
1910,4.9487896,-2.1906834,9.3852224,26.4503822,-1.9160305,-18.2900772,5.6957769,6.0956063,1.7621235,-50.0916023,-52.2442741,22.9465656
1920,3.9911139,-1.4987626,8.2000990,28.7175579,-2.4351146,-16.0534344,6.2727766,6.2320752,1.9919657,-51.3969460,-53.0992355,0.5877863
1930,4.0557570,-0.5506636,7.4459291,20.9923668,4.6259542,-7.0610685,6.7731619,6.2967181,2.5115047,-50.5877876,-51.7175560,-22.7709923
1940,4.3550305,-0.0383070,7.3717093,9.3206110,22.3435116,3.1679389,7.4243813,6.3709383,2.7174051,-48.0534363,-49.6564903,-49.0839691
1950,4.6806402,-0.1604107,7.5752153,-1.3129771,41.9312973,12.7099237,8.1498213,6.5481081,2.7197993,-44.9236641,-50.0687027,-81.4198456
1960,4.9032998,-0.2657550,7.8337879,-7.9236641,54.4198456,21.2748089,8.9590569,6.4355812,2.4133430,-44.3740463,-56.1450386,-120.4045792
1970,4.6926112,-0.2609667,8.2360115,-10.6030531,69.4885483,28.6259537,9.1817169,6.1291251,1.8531027,-48.8244286,-70.0916061,-165.9541931
1980,4.4891052,-0.1268920,8.6526003,-9.7328243,78.3816757,34.7328262,9.1386213,5.5952206,1.1923064,-59.1984749,-99.1450348,-214.6946564
1990,5.1714492,-0.3950413,10.2998028,-2.2519083,72.3511429,31.4198475,9.0356712,4.7740140,0.5937590,-77.3893127,-131.3053436,-250.1374054
2000,4.8817525,-1.1396341,10.5248566,7.8549619,49.1526718,19.6641216,8.9399033,3.4931223,0.0215477,-101.4198456,-165.5954132,-250.1374054
2010,4.7404952,-1.6304430,9.9717989,15.6259546,43.2213745,7.3816795,8.4754305,1.8124014,-0.4189832,-133.4427490,-202.2748108,-250.1374054
2020,4.4771342,-1.3455344,10.1489687,22.8244267,30.7175579,0.8244275,8.0516596,-0.0574605,-0.3591284,-171.1984711,-234.8396912,-250.1374054
2030,4.0030847,-1.4963684,9.6390066,27.1297703,31.1450386,-0.5419847,7.9678626,-1.7812769,0.2585725,-208.7862549,-250.1374054,-250.1374054
2040,3.1938488,-1.6879035,9.1529865,28.6106873,33.4656487,8.3053436,7.5440907,-3.7349355,0.9864060,-241.1068726,-250.1374054,-250.1374054
2050,3.1603301,-1.4604555,8.7603388,29.1068707,45.4732819,22.3969460,6.5169835,-6.2105274,1.9488702,-250.1374054,-250.1374054,-250.1374054
2060,3.3159523,-1.3311694,8.4347296,27.8015270,65.8625946,36.5954208,6.1506729,-8.9159613,3.1651185,-250.1374054,-250.1374054,-250.1374054
2070,3.6128318,-1.3191984,8.8896255,27.9007626,86.0534363,48.4198456,4.0557570,-12.6365318,4.7309184,-250.1374054,-242.2824402,-250.1374054
2080,3.7516949,-1.3239868,9.6414013,30.6183205,87.6106873,55.0687027,-0.9217629,-16.0937424,6.8258343,-250.1374054,-219.8015289,-250.1374054
2090,4.1778607,-1.1803354,10.3716288,33.7328262,74.4961853,56.6641235,-10.3285332,-19.0074692,9.3325500,-250.1374054,-233.4961853,-250.1374054
2100,3.7947903,-0.9888002,11.8057480,40.3358765,46.1908379,51.8931313,-19.6131992,-18.3179436,13.2757807,-250.1374054,-250.1374054,-250.1374054
2110,3.7756367,-1.2401901,11.8153248,47.0152664,-3.3358779,43.1603050,-19.6131992,-12.1050215,19.6126022,-250.1374054,-250.1374054,-250.1374054
2120,3.3255291,-1.1061156,11.1425581,50.6564903,-36.0534363,33.6717567,-19.6131992,-8.8585014,19.6126022,-250.1374054,-250.1374054,-250.1374054
2130,2.8778157,-0.6895266,10.6038647,53.3511467,-60.4198456,27.2595425,-19.6131992,-13.3523941,19.6126022,-250.1374054,-250.1374054,-17.4580154
2140,2.7221935,-0.4477134,9.8401184,53.5801544,-67.0610657,24.6564884,-19.6131992,-13.6732159,19.6126022,-184.3740387,-98.3282471,123.8396912
2150,2.9951310,0.0263361,9.2032642,52.2900772,-69.2519073,24.8091602,-12.5168228,-10.9294748,19.6126022,29.7404575,157.5877838,189.3587799
2160,2.7724714,0.2729376,8.4395180,50.3664131,-61.9923668,28.5725193,-10.0651722,-9.2391768,19.6126022,171.5190887,250.1297760,239.3587799
2170,3.4572096,0.4668669,7.8002691,44.9541969,-37.4351158,33.3816795,-6.5816269,-6.8617468,19.6126022,226.1145020,250.1297760,250.1297760
2180,3.7349355,0.8164186,7.6039457,36.8625946,-13.6030531,35.5801544,-3.4236910,-4.7955613,15.6675758,228.8625946,250.1297760,230.2977142
2190,3.8259149,0.5506636,7.2783360,27.4656487,13.3129768,36.3129768,-1.3048333,-3.2489152,12.1409349,210.9313049,202.0381622,170.8167877
2200,3.7229645,0.6081241,7.2711535,16.6030540,38.7633591,38.6870232,-0.0861908,-1.6041069,9.2248116,188.1374054,93.5038147,101.7633591
2210,3.7253587,1.4365137,7.6135225,8.0916033,61.7099228,39.6793900,-0.1532281,-0.0861908,7.0844064,162.8702240,11.3587790,40.1374054
2220,3.9815371,1.3503228,9.7539282,8.1984730,75.2595444,36.1450386,-0.8451489,0.9600700,5.3198891,136.0992432,-39.0381660,-5.4274807
2230,3.8881636,0.6679789,9.8712435,15.9541988,70.3587799,27.8167934,-1.9105632,1.7860653,3.7756367,105.0763321,-60.5496178,-35.5801544
2240,4.1826491,0.2226596,8.8800488,-5.9389315,33.1068687,8.0000000,-2.9687948,2.3008161,3.0094962,72.7251892,-62.4351158,-51.1908379
2250,3.4332676,0.4692611,9.0907373,-26.9236641,33.8625946,-2.8015268,-3.9240766,2.4684093,2.8586621,43.7480927,-54.8854980,-55.4198456
2260,3.0382264,0.0718257,9.7156210,-30.8396950,28.6259537,-3.0152671,-4.6112089,2.2888451,3.4404502,20.5038166,-46.3511467,-56.1374054
2270,2.9520357,-0.3208214,9.9047613,-22.1908398,22.7938938,-2.1603053,-5.3988972,1.9392935,4.1850433,4.9083967,-33.0076332,-53.3435097
2280,2.8802099,-0.4860204,9.4115591,-16.1526718,25.7175579,-3.7328243,-6.3446021,1.7740943,5.0589223,-3.7633588,-11.6335878,-44.7557259
2290,2.7317703,-0.2298422,9.3469152,-17.0305347,27.5267181,-4.0152674,-7.1945391,1.6041069,6.1554613,-6.7633586,11.3587790,-30.4045811
2300,2.9304879,-0.2633608,9.5552101,-20.3206100,27.5725193,-2.2137403,-7.6781654,1.4604555,6.8497758,-5.0076337,28.3282452,-14.9770994
2310,3.1938488,-0.3375807,9.9263096,-20.6717548,28.9389305,-0.6641222,-7.7499914,1.1516051,7.3022780,-0.9465649,35.5954208,-1.4427481
2320,3.5457945,-0.3974355,10.7546988,-15.5877867,23.0534344,-2.2290077,-7.4124107,0.7709290,7.3405848,3.5572519,35.7251892,7.0610685
2330,3.5505829,-0.5267217,11.0013008,-5.5648856,14.5114508,-6.0152674,-6.8976598,0.5410868,7.3764977,6.7480917,32.0305328,11.2442751
2340,3.2776453,-0.6703730,10.9701757,3.4198472,1.3969465,-9.1068707,-6.4044566,0.4548960,7.2208753,9.5343513,28.0381680,13.3358774
2350,3.1986370,-0.7278336,10.9294748,10.4122133,-13.9007635,-12.0381680,-5.8442163,0.5746055,7.1298962,11.1603050,23.4351139,11.0534353
2360,3.2560976,-0.5003856,11.1186161,19.2671757,-29.4274807,-16.5343513,-5.4611464,0.5889706,7.0006099,10.7862597,17.4961834,6.3129773
2370,3.4476328,-0.4525018,11.3556404,31.2748089,-45.7480927,-24.0763359,-5.1139889,0.7398046,6.9239960,8.5419846,12.1908398,-0.0992366
2380,3.3063757,-0.7493813,12.5671005,47.9007645,-63.1755714,-32.9618340,-4.7931671,0.7948709,6.8401995,5.1679387,6.2442746,-7.3816795
2390,3.0286496,-1.6328372,15.3299952,78.3129807,-97.9465637,-42.3358765,-4.5633249,0.8499373,6.6893654,0.8931298,-2.0534351,-16.7633591
2400,2.7820482,-3.2106080,16.2780933,116.9847336,-127.2519073,-47.4809151,-4.3741841,0.8547257,6.7276726,-4.5190840,-11.3969469,-28.5954189
2410,2.1116750,-3.7636659,16.8407288,158.7480927,-143.3664093,-52.6793900,-4.2855992,0.8834559,7.1945391,-10.5190840,-19.6793900,-39.8473282
2420,0.2513899,-1.6400198,13.8815107,191.6870270,-135.3587799,-45.4045792,-4.4436154,0.8571198,7.3884687,-15.4122133,-22.8015270,-51.8778610
2430,-1.3670821,1.4125718,10.4362717,199.9007568,-129.5190887,-17.6106873,-4.7333126,0.8714849,7.9104018,-18.8473282,-23.1908398,-62.2824440
2440,-0.4237715,1.4484847,7.6398587,189.5572510,-141.6106873,11.7862597,-5.3174949,0.6679789,8.2360115,-20.6183205,-22.9312973,-72.6641235
2450,1.1396341,0.8188128,7.1849627,175.0076294,-140.9007568,26.7938938,-6.5888095,0.6248835,8.7627335,-22.2290077,-25.6946564,-80.7328262
2460,1.9249283,0.6775556,7.2615767,167.3816833,-132.0381622,35.9389305,-7.8816719,0.4884146,9.1434097,-23.5725193,-28.5648861,-85.0229034
2470,2.9065459,1.1037214,7.4195933,163.8625946,-119.4656525,48.7557259,-9.3133974,0.2753318,9.7012558,-25.3435116,-28.4732819,-82.7328262
2480,4.1515245,1.8770446,7.0030041,160.4961853,-113.0610657,56.4885483,-10.7690639,0.1843526,10.3596573,-25.0610695,-24.0687027,-73.9770966
2490,4.8051381,2.3391230,6.5026188,155.1374054,-102.4122162,57.2900772,-11.8177195,-0.0383070,11.1042509,-21.8473282,-16.6641216,-58.5954208
2500,5.7149301,2.8826041,6.1865854,147.9770966,-93.8167953,53.4427490,-12.9789009,-0.4525018,11.8703909,-14.5648851,-3.7938931,-37.8473282
2510,6.2201042,3.0262554,6.0189924,142.4427490,-96.0992355,46.4961815,-13.7713776,-0.7014975,12.6078014,-4.4351144,11.8396950,-15.8320608
2520,6.3733325,2.8706331,6.4882536,139.5496216,-99.9007645,39.8854980,-14.7122946,-0.6919208,13.2255030,9.7557249,28.6870232,9.6793890
2530,6.6510582,2.9759774,6.5768385,138.8702240,-116.3893127,32.6870232,-15.4329453,-0.8331779,13.5391417,26.5190830,42.0534363,37.5801544
2540,6.9910331,3.2058196,6.2033448,137.7709961,-134.5343475,25.5343513,-15.8208036,-1.0055596,13.5726604,43.8167953,55.0458031,66.9770966
2550,7.0676475,3.2177906,5.9998388,135.7404633,-143.7938995,18.9770985,-16.1368370,-0.7469871,13.4050665,60.9847336,66.6106873,98.4351120
2560,7.0173693,3.1459649,5.4084740,133.7251892,-154.1679382,11.6717558,-15.7226419,-0.5626345,13.0363617,76.2290039,77.3435135,132.2213745
2570,7.0125809,3.3566537,4.6064205,131.2290039,-160.8702240,6.0687022,-14.9181948,-0.5793939,12.6173782,89.0610657,89.6641235,162.5496216
2580,7.1658092,3.7756367,3.0693510,125.3053436,-157.1603088,3.6946564,-14.1065645,-0.6775556,11.9661589,99.7022934,101.1068726,189.5267181
2590,7.7571740,4.5489597,1.6136837,112.1221390,-139.9465637,3.6030533,-12.9262285,-0.2537841,11.0755205,108.0305328,114.4503784,213.3893127
2600,8.3030491,5.0876527,0.2202654,91.8091583,-113.4427490,4.5343513,-11.9948893,0.0502780,9.9813757,113.6259537,132.8015289,233.6106873
2610,9.2080526,5.3390427,-0.3998296,68.1145020,-87.0610657,3.1908398,-11.6261835,0.5434810,8.9039907,115.8778610,153.9236603,250.1297760
2620,9.9933472,5.6287394,-1.0079538,43.7633591,-53.0687027,-0.8091603,-11.9326401,0.8020535,7.8481531,115.3282471,169.8091583,250.1297760
2630,10.6445665,6.0525107,-1.5370697,18.7557259,3.9465649,-4.6946564,-12.4904861,0.8714849,7.0460997,110.1145020,178.6870270,250.1297760
2640,10.7810354,6.3996682,-1.7860653,-8.7862597,77.8702316,-6.0458016,-12.5814657,1.0438666,6.3661499,100.1221390,181.6412201,250.1297760
2650,10.6373835,6.4092450,-1.8507085,-38.9160309,154.9465637,-8.0534353,-11.7075863,1.1372399,5.7532372,87.0610657,170.4503784,250.1297760
2660,10.2926207,6.3948798,-1.6232605,-72.2671738,228.4274750,-7.4198475,-10.0053177,0.8212070,5.2672167,70.5114517,160.0610657,250.1297760
2670,9.3181858,5.9567432,-1.1563935,-109.2824402,250.1297760,-4.4961834,-8.6047173,0.3351865,5.1618724,55.5267181,151.0305328,250.1297760
2680,8.4969788,5.1259594,0.3208214,-141.0152740,250.1297760,-4.6793895,-6.7899213,-0.3184272,5.0924411,47.7022896,139.4732819,250.1297760
2690,7.5728211,4.2760224,1.9943599,-162.1450348,250.1297760,-8.9389315,-4.0461802,-0.1556223,4.8865409,42.5496178,132.3511505,250.1297760
2700,5.9878678,3.4500270,3.7971845,-169.8015289,250.1297760,-13.3053436,-1.8842272,-0.4860204,4.2760224,37.5343513,126.5954208,250.1297760
2710,4.6686692,2.4301023,4.3789725,-172.7022858,250.1297760,-17.7862587,-0.3303981,-0.3926471,3.9312592,31.4351139,122.2366409,250.1297760
2720,3.3973548,1.9656296,4.2712340,-185.9465637,250.1297760,-25.2442741,0.8762733,0.0478838,3.9121056,24.5725193,120.4427490,250.1297760
2730,1.7932479,2.9065459,5.9184365,-200.8244324,250.1297760,-32.7175560,1.5945302,0.5003856,3.7660601,18.2900772,118.9236679,250.1297760
2740,1.8866212,2.6120608,7.2280579,-207.7251892,250.1297760,-44.9541969,2.0733681,0.8762733,3.7014170,12.3435116,115.2671738,250.1297760
2750,1.4796091,2.3678534,9.2655134,-201.5038147,217.6793823,-61.3282433,2.6551561,1.0869620,3.6990228,6.0763359,106.4122162,250.1297760
2760,0.9480990,1.7836711,10.5128860,-181.3282471,175.5114441,-73.2290039,3.3734128,0.9528874,3.6391680,-0.2824427,97.7022934,250.1297760
2770,0.7661406,1.1516051,10.9151096,-156.4198456,135.8854980,-80.5572510,4.2760224,0.6560079,3.7900019,-4.5877862,90.8320618,250.1297760
2780,0.2968795,0.3902529,11.3245163,-135.3053436,95.7099228,-85.0076370,5.2384863,0.4525018,3.9456241,-7.7328243,79.0610657,250.1297760
2790,0.0454896,0.3543400,11.2048063,-118.9542007,77.4961853,-84.8549652,6.6486640,0.2968795,3.7540891,-11.0687027,66.2748108,242.7328186
2800,-0.4261657,0.1843526,11.1353750,-108.9007645,65.5725174,-77.8473282,9.0715837,0.3710994,3.4428444,-12.5877867,64.8244247,219.8244324
2810,-0.2873027,0.1508339,11.4035244,-100.9083939,65.4885483,-67.0916061,11.8871508,0.6009415,2.4731977,-9.4274807,83.6412201,188.8244324
2820,-0.4429250,-0.1891410,11.4825325,-92.9160309,68.9389343,-56.2442741,15.0019913,1.1707586,0.6296718,-7.7175574,117.7480927,143.4732819
2830,-0.7469871,-0.3112446,11.6932211,-85.5725174,73.8931274,-42.9007645,17.4033623,3.0717452,-1.6041069,-18.8167934,143.2213745,76.8396912
2840,-1.2377959,-0.3280039,11.9086981,-80.2824402,72.0381699,-28.7786255,17.8606529,2.1547706,-3.4117200,-55.6641235,133.6335907,-6.2595420
2850,-0.9888002,-0.6248835,11.9685535,-72.3969498,61.6793900,-17.5877857,18.5118732,2.6072724,-2.8945751,-109.8702316,84.2595444,-108.4198456
2860,-0.6823440,-0.9959828,12.3540173,-60.1908379,57.0000000,-9.1374044,16.6491928,1.3670821,-0.9720409,-169.6564941,-4.9236641,-213.9618378
2870,-0.4141948,-1.2042773,13.0674858,-45.5801544,67.0534363,-2.9007633,15.1145182,-0.1484398,2.0853391,-217.4809113,-105.8702316,-250.1374054
2880,-0.6799498,-1.2234308,12.8448267,-29.4045811,43.8320618,4.5572519,14.0658627,-1.8626794,4.8123207,-250.1374054,-176.3358765,-250.1374054
2890,-0.4357425,-1.1851238,12.3324699,-10.0687027,7.6641221,10.2671757,13.2039547,-3.9623835,7.6470413,-250.1374054,-204.7404633,-250.1374054
2900,0.2633608,-0.9409165,11.8775740,9.8091602,-16.4809170,10.9160309,12.0738974,-5.9375896,10.3285332,-250.1374054,-198.6870270,-250.1374054
2910,0.6655847,-0.5075682,11.2359314,22.9160309,-33.5648842,9.2519083,10.6038647,-7.4507174,12.6078014,-241.9389343,-164.1145020,-250.1374054
2920,0.8475431,-0.3447633,10.5200682,27.6106873,-42.9618340,7.3435116,8.2024927,-8.6190825,14.7482071,-203.6259613,-114.1374054,-250.1374054
2930,1.0989330,-0.0143651,9.8784256,27.8396950,-43.8167953,7.3282442,6.2057390,-10.3955708,16.3379498,-150.8015289,-71.3969498,-250.1374054
2940,1.1372399,0.3423691,9.6222477,26.2748089,-42.1526718,8.4732828,4.4172797,-13.1033993,16.8838234,-90.9236679,-34.5267181,-250.1374054
2950,1.2832855,0.4141948,9.4402885,23.6946564,-36.9236641,9.9847326,0.1651991,-17.1352139,16.4073811,-30.3664131,-16.0534344,-250.1374054
2960,1.3766589,0.6560079,9.3924055,20.2977104,-32.0534363,11.8931293,-6.4355812,-19.6131992,15.2845058,23.6106873,-43.1832047,-250.1374054
2970,1.5059452,0.8666966,9.3014259,17.0305347,-24.9694653,14.5725193,-16.7162304,-19.6131992,13.5798426,61.7862587,-145.7328186,-250.1374054
2980,1.5562232,0.9480990,9.2439651,13.0381680,-17.3435116,15.8320608,-19.6131992,-18.8135414,11.4681673,59.3511467,-250.1374054,-250.1374054
2990,1.7693061,0.9888002,9.3349447,9.0610685,-10.2595415,15.5419846,-19.6131992,-12.8472204,10.2998028,5.0305343,-250.1374054,-250.1374054
3000,1.7357874,1.0462608,9.5599985,6.2748094,-7.9465647,15.4809160,-19.6131992,-7.8960366,10.7546988,-72.7175598,-250.1374054,-250.1374054
3010,1.8842272,1.0366840,9.4235296,4.6030536,-7.4503818,15.0076332,-19.6131992,-4.4196739,13.8623571,-120.3358765,-250.1374054,-250.1374054
3020,2.0374553,1.0127422,9.5240860,3.7175572,-6.7022901,12.5954199,-19.6131992,-2.1020982,18.0761299,-101.8702316,-166.2061005,-131.4198456
3030,2.2313845,1.0462608,9.5911226,3.0076337,-8.2671757,8.9083967,-19.6131992,-1.8866212,19.1152077,-38.4351158,148.5038147,62.0687027
3040,2.5019281,0.9911944,9.5719690,1.5343511,-7.7328243,4.8625956,-19.6131992,-2.6575503,17.2501354,8.3969469,250.1297760,192.5190887
3050,2.5258698,0.8643024,9.5959110,-0.8244275,-1.1755725,0.2290076,-16.5749741,-3.5721307,15.2366219,15.5954199,250.1297760,248.9313049
3060,2.3367288,0.8331779,9.5647869,-3.7786260,4.9007635,-3.2824428,-12.0834742,-3.5769191,14.8320036,5.2061067,250.1297760,247.0229034
3070,2.0853391,0.6895266,9.6940727,-6.1908398,7.7633586,-5.1755724,-8.0875721,-3.3973548,15.2294388,-0.1526718,250.1297760,205.4580078
3080,1.8578910,0.6105183,9.7970228,-7.2595420,7.1145039,-5.8549619,-4.8195033,-2.9041519,15.2246504,9.0839691,170.2290039,138.0305328
3090,1.6232605,0.4860204,10.0986910,-6.2748094,4.9465647,-6.0763359,-3.1794837,-2.0733681,14.4752693,27.7938938,65.0305328,65.1145020
3100,1.5658000,0.3303981,10.2399483,-4.0229006,2.9465649,-6.1145039,-3.0478032,-1.1492109,12.8759508,46.2290077,-9.7786255,2.1221373
3110,1.4652439,0.3471575,10.6038647,0.0000000,-2.6488550,-6.3893127,-3.9863255,-0.4764437,11.2766323,59.1679382,-51.8549614,-38.3358765
3120,1.3551112,0.3088504,10.6469603,4.7633586,-7.8244276,-5.8091602,-4.5489597,-0.1244979,9.8736372,67.5572510,-71.8473282,-58.7786255
3130,1.2665262,0.3878587,10.5607700,9.9923668,-15.8778629,-4.4809160,-4.5776901,-0.0239419,8.5831690,74.1221390,-72.8854980,-70.1450348
3140,1.3527170,0.5530578,10.3357162,14.6335878,-24.1374054,-3.6641221,-4.5393834,-0.2370248,7.3980455,79.5648880,-63.9465637,-78.6106873
3150,1.4700323,0.7565638,10.0603838,17.0839691,-25.6488552,-3.3435113,-5.1738434,-0.0167593,6.3350253,81.6183243,-50.5038185,-83.9236679
3160,1.3718705,0.9864060,9.4857788,16.3664131,-22.9083977,-2.9465649,-6.0189924,0.1867468,5.4060798,77.9389343,-39.0076332,-84.0687027
3170,1.3958124,1.0199248,9.2583303,12.1374044,-17.8625946,-2.0076337,-6.9192076,0.5219333,4.9056940,70.4580154,-28.6564884,-79.2061081
3180,1.4413021,1.1061156,9.0476418,7.0534353,-11.8702288,-1.1603054,-7.5153608,0.6177009,4.5082588,59.9923668,-19.4885502,-68.0381699
3190,1.8650736,0.9026094,9.7587166,-3.7175572,2.2900763,-0.8244275,-7.7499914,0.3471575,4.4938936,13.3053436,7.6412215,-25.3893127
3200,1.8842272,0.8355721,9.9047613,-3.5190840,1.2671756,-2.4122138,-7.6638002,0.0981618,4.7955613,3.0839694,10.0458012,-19.1221371
3210,1.9273225,0.8116302,9.9694052,-2.7709923,-1.7480916,-4.4580154,-7.9247670,0.0790083,5.2696109,-5.9847326,10.0152674,-13.0000000
3220,1.8842272,0.7829000,9.7970228,-1.4885496,-4.0229006,-6.3435116,-7.4315639,-0.0191535,6.1506729,-18.2595425,3.9465649,-1.5343511
3230,1.6735384,0.7541697,9.8616667,-3.8091602,3.3053436,-3.9236641,-7.1873569,-0.8906385,7.3788919,-37.1755714,-49.3282433,-13.1374044
3240,1.6328372,0.7469871,9.7682934,-3.6946564,3.1145039,-2.3282442,-7.4890246,-1.1803354,8.1905222,-50.1832047,-86.7862625,-22.7938938
3250,1.6400198,0.8259954,9.5935173,-3.8931298,3.1832061,-1.3587786,-7.3357964,-1.3120158,9.1098909,-51.8854980,-104.9389343,-30.1679382
3260,1.7094513,0.8283895,9.5169029,-5.2442746,5.9618320,-0.9160305,-7.3190370,-1.2569494,9.8401184,-46.2290077,-107.2519073,-34.2442741
3270,1.7621235,0.8690908,9.4355011,-7.4274807,8.7786255,-0.3664122,-8.0779953,-1.2713146,10.5416164,-36.8167953,-104.9618301,-35.0916023
3280,1.7477583,0.7876883,9.5097208,-9.5877867,12.1603050,0.0000000,-8.4443064,-0.7493813,10.7211800,-24.6870232,-86.7404556,-29.2824421
3290,1.7956421,0.6679789,9.4091644,-12.1755724,15.4809160,0.1832061,-8.4514885,-0.5841822,10.2854376,-12.5877867,-71.8549652,-18.1450386
3300,1.7621235,0.5626345,9.5863342,-14.4885492,17.8625946,-0.2061069,-7.5919747,-0.3495516,9.4235296,-4.6030536,-56.2061081,-7.4656487
3310,1.6783268,0.3950413,9.7826586,-15.8854961,20.3587780,-0.0687023,-6.5840211,-0.4285599,8.3365679,-2.3587787,-45.1221390,-1.3893130
3320,1.6017127,0.2849085,10.0771437,-16.1603050,20.6106873,0.8091603,-5.6215568,-0.6272776,7.6614060,-5.5419846,-35.8854980,-0.3664122
3330,1.4149660,0.1939293,10.3381100,-14.4503813,16.8396950,2.2900763,-4.8841467,-0.7493813,7.2519999,-13.5496187,-29.0305347,-3.8320611
3340,1.3670821,0.1244979,10.4099360,-10.5877867,9.7022905,3.7709923,-4.8003497,-0.6871324,7.4602942,-23.9160309,-21.6412220,-9.4809160
3350,1.3958124,0.2035061,10.6469603,-5.3969464,2.8015268,4.4274807,-4.9416070,-0.7781116,8.0061693,-33.6183205,-16.0687027,-15.2900763
3360,1.4053892,0.3950413,10.4602137,-0.3282443,-4.1984735,4.1145039,-5.1283536,-0.9624642,8.7699156,-39.3816795,-11.0000000,-19.7404575
3370,1.4006008,0.5626345,10.1585455,3.0839694,-9.8778629,3.5877862,-5.5353661,-1.3551112,9.6581602,-40.1450386,-7.5419846,-25.6335869
3380,1.4413021,0.7134684,9.8592720,4.2671757,-9.7633591,2.5725191,-5.9878678,-1.8076130,10.5080976,-36.5877876,-2.2442749,-32.0228996
3390,1.4413021,0.8283895,9.6701307,3.2290077,-7.4580154,1.2595420,-6.7994981,-2.3103929,11.3269100,-29.8396950,3.2748091,-37.0992355
3400,1.4125718,0.8236012,9.5432396,1.1450381,-4.2213740,0.4656489,-8.3605099,-2.6000898,12.1505117,-22.5038166,0.2442748,-40.6259537
3410,1.4245427,0.8499373,9.4929609,-0.8396947,-1.1832061,-0.0458015,-9.9430685,-2.7197993,13.1704359,-12.5343513,-8.3969469,-39.2442741
3420,1.2832855,0.8044477,9.7299862,-2.4961832,1.9007634,-0.0763359,-10.6709023,-2.5905130,13.6253319,1.7404580,-17.9160309,-32.7404594
3430,1.2377959,0.7589580,9.8832140,-2.8015268,2.6412213,-0.3282443,-10.6852674,-2.7724714,13.1991663,17.5801525,-22.6564884,-25.8320618
3440,1.2689204,0.6991033,10.0603838,-1.6946565,0.8473282,-0.2290076,-10.6876621,-3.0980811,12.8041248,30.2595425,-15.1374044,-13.7404585
3450,1.1803354,0.7062859,10.1441803,0.1221374,-1.3129771,0.9312977,-10.6996326,-3.1387823,12.9190464,43.8244286,-6.0458016,-0.8854962
3460,1.1923064,0.6392486,10.1058741,2.1068702,-3.8549619,2.4045801,-10.7954006,-2.5905130,13.2207146,62.0916023,3.2595420,12.9160309
3470,1.2282192,0.7996593,10.0460186,3.6641221,-6.1603055,3.7175572,-11.2838144,-2.5976956,13.1728306,80.2519073,29.4961834,31.4198475
3480,1.3024391,0.8571198,9.7970228,3.9465649,-6.3664122,4.8702292,-12.8855276,-2.6120608,13.1919842,97.7099228,69.9770966,60.3893127
3490,1.5035510,0.8954269,9.6102762,2.8625953,-4.6946564,4.7862597,-14.1281118,-2.3965836,12.9142580,114.8625946,108.0763321,101.7328262
3500,1.5777708,0.9097920,9.5647869,1.3587786,-3.3740458,3.8244274,-14.7625723,-1.9345051,12.5455532,127.4427490,135.8549652,145.0534363
3510,1.6232605,0.8068419,9.5743637,-0.2671756,-1.9312977,3.0992367,-14.8703108,-1.6017127,11.9493999,134.8931274,146.8320618,184.5419922
3520,1.7453641,0.6727672,9.7994175,-1.1603054,-0.1145038,2.2366412,-14.9301653,-1.2976507,11.3939476,139.0381622,136.2366486,218.5267181
3530,1.7070571,0.6703730,9.8784256,-0.9160305,-1.4198474,1.1832061,-14.4202032,-1.0965388,10.9965124,140.7633514,119.1908417,249.5877838
3540,1.8004304,0.4908088,9.9239149,-0.4427481,-3.3282442,0.1908397,-13.7618008,-1.0606259,10.7954006,142.0992432,102.5496216,250.1297760
3550,1.9368993,0.4309541,9.9789820,0.3816794,-4.1908398,-0.7328244,-12.9860840,-1.0893562,10.6828737,143.1908417,82.0381699,250.1297760
3560,1.9416877,0.3327923,10.0053177,1.4503816,-4.9312978,-1.6030535,-11.5375986,-1.5945302,10.5320396,147.5648804,55.1832047,250.1297760
3570,1.9512644,0.2657550,9.8401184,1.7862595,-4.6870227,-1.7557251,-9.2894554,-2.2816625,10.3069859,159.8244324,29.0152664,250.1297760
3580,1.9704180,0.2130829,9.8880024,2.1068702,-4.2213740,-1.4122137,-6.8473821,-2.7557120,9.7539282,179.9770966,8.2442751,250.1297760
3590,1.9680238,0.2106887,9.8544836,1.8549619,-3.6793892,-1.3816794,-3.9025288,-3.1555417,8.1522150,202.6030579,-3.7557251,250.1297760
3600,1.9321109,0.3232156,9.7778702,1.9236641,-2.4580152,-1.9083970,-0.4884146,-2.8179610,5.5473371,221.8091583,1.0534351,250.1297760
3610,1.8339491,0.6057299,9.8856087,-0.2213740,-0.3664122,-3.9923663,6.7731619,-0.3543400,-2.1954718,182.9084015,144.7557220,250.1297760
3620,1.7429699,0.6536137,9.9382801,0.3206107,0.6946565,-5.1679387,7.8625183,0.4812321,-2.3678534,158.7480927,173.0915985,250.1297760
3630,1.6615674,0.6823440,9.8042059,0.5114504,0.0305344,-5.9847326,9.0117292,1.2665262,-1.8483143,135.1755676,192.2900696,250.1297760
3640,1.5274929,0.7206510,9.8664551,-0.4503817,-0.1755725,-4.7099237,9.5408449,2.1140692,-1.3622938,112.1832047,196.6412201,221.2213745
3650,1.5753766,0.7972651,9.9143381,-0.6641222,0.6259542,-5.4732823,10.0436249,2.9520357,-1.0797794,89.4732819,187.1755676,171.2977142
3660,1.3000449,0.8212070,9.9358864,0.0763359,0.5954198,-5.5877862,10.3309278,3.8259149,-0.6751614,69.6183243,179.9389343,114.6564865
3670,1.1827296,0.8475431,9.9478569,2.5267177,-5.4198475,0.8778626,3.3183465,5.5018473,-2.2146254,-46.7557259,-1.2366412,-119.4045792
3680,1.2186425,0.8236012,9.8305416,2.7709923,-5.3893127,3.0992367,2.9496415,4.9631548,-2.1260402,-82.9160309,-67.8549652,-140.6870270
3690,1.2952565,0.8619082,9.7156210,2.1297710,-4.6106873,3.7862597,4.3909435,4.8362627,-2.3199697,-121.1145020,-123.8167953,-169.6641235
3700,1.4772149,0.8906385,9.7228031,1.3740458,-2.2900763,3.5877862,5.4060798,3.8139439,-2.1978660,-157.5038147,-162.0915985,-200.0152740
3710,1.5131277,0.8379663,9.7036495,1.3511450,-2.3587787,4.8167939,6.5720501,2.8227494,-1.9153515,-191.3511505,-186.9618378,-234.7328186
3720,1.5681942,0.6943150,9.8018112,0.2671756,-2.8702290,6.2519083,7.4579000,1.2401901,-1.3335636,-225.7404633,-200.6259613,-250.1374054
3730,1.7669119,0.6895266,9.8209648,0.5725191,-2.3435113,6.7175574,8.2623482,-0.8331779,-0.4429250,-250.1374054,-203.0763397,-250.1374054
3740,1.8866212,0.7302278,9.7371683,0.0000000,-1.9007634,6.0152674,8.2192526,-3.3494711,1.2162483,-250.1374054,-191.3664093,-250.1374054
3750,2.0039365,0.5817881,9.8305416,-1.1068702,-2.3129771,4.8396945,7.1107426,-5.7580256,2.8035958,-250.1374054,-174.7480927,-250.1374054
3760,2.0350611,0.5362985,9.7994175,-1.1068702,-1.4427481,3.6335878,5.2265158,-8.0516596,4.7213416,-250.1374054,-150.3129730,-250.1374054
3770,2.1164634,0.5602403,9.7754755,-1.4427481,0.1221374,2.1068702,2.7509236,-10.6996326,7.2280579,-250.1374054,-109.2748108,-250.1374054
3780,2.0254843,0.5913648,9.8688488,-2.0152671,-0.0152672,0.8549618,-1.4484847,-13.2231083,10.2830439,-250.1374054,-54.9160309,-250.1374054
3790,1.8866212,0.5913648,10.0196829,-1.2595420,-0.7862595,-0.3816794,-8.4634600,-14.9948082,13.6325150,-250.1374054,-25.4274807,-250.1374054
3800,1.8267666,0.5913648,9.9502516,-0.4885496,-0.9389313,-1.0229008,-19.6131992,-14.4369621,17.8223457,-250.1374054,-49.5190849,-250.1374054
3810,1.7740943,0.6512195,9.8544836,0.2595420,-0.5801527,-1.2366412,-19.6131992,-11.0994625,19.6126022,-250.1374054,-142.2824402,-250.1374054
3820,1.6974803,0.7110743,9.8927908,0.5038168,-0.7786260,-0.6106870,-19.6131992,-10.0867205,19.6126022,-250.1374054,-250.1374054,-250.1374054
3830,1.7262106,0.6799498,9.8592720,1.0610687,-1.1297710,-0.2977099,-19.6131992,-10.8049774,19.6126022,-237.6946564,-250.1374054,-210.3206177
3840,1.6663558,0.7829000,9.8329363,1.2748091,-0.8778626,-0.2900763,-19.6131992,-11.0443964,19.6126022,-115.7862625,-250.1374054,-118.3129807
3850,1.6783268,0.7781116,9.9095497,1.3969465,-0.6717557,-0.6030535,-6.7851329,-6.8473821,19.6126022,119.7099228,-194.0229034,-46.0458031
3860,1.5993185,0.8020535,9.9239149,1.3740458,-1.3435115,-0.5267175,-12.5623121,-8.6669655,17.6379929,180.7786255,-82.2137375,-47.5648842
3870,1.5466464,0.7517755,9.7874460,1.3511450,-2.8320611,0.3129771,-9.8233595,-6.9958215,11.1114330,203.5419922,27.2977104,13.7328243
3880,1.6735384,0.7733232,9.8042059,1.3511450,-3.1908398,0.7099237,-6.1195483,-1.3311694,6.7061248,181.2748108,111.3206100,47.4045792
3890,1.7477583,0.6320660,9.7299862,0.2595420,-2.0687022,1.2137405,-6.1123657,0.7829000,6.1027889,53.4351158,123.5267181,45.0916023
3900,1.8578910,0.7852941,9.6916790,-0.0152672,-2.0687022,0.6946565,-5.9543490,0.8307837,7.1442614,32.6793900,86.2213745,42.8702278
3910,1.9656296,0.6607963,9.6964674,-0.5496183,-1.7709924,0.1984733,-5.3055239,1.3455344,7.9582858,22.4656487,52.0916023,35.6564903
3920,1.9440818,0.5674229,9.7251978,-1.5038168,0.2977099,0.5419847,-4.6638808,1.1228749,7.9511032,17.9312973,25.4732819,24.6412220
3930,1.5945302,0.2513899,9.9023676,-2.6793892,1.4732825,4.0687022,-4.5441718,0.3782819,7.8816719,15.0916033,13.8091602,18.4351139
3940,1.4891858,0.1963235,10.0675669,-2.8244274,-0.8473282,10.3816795,-4.4891052,0.0407012,8.1139078,14.6717558,13.9236641,16.2748089
3950,1.4221486,0.2466015,10.1824875,-1.8473282,-7.2824426,14.5725193,-4.5585365,0.0167593,8.1354561,18.3206100,17.0381680,15.3664122
3960,1.4508789,0.4237715,10.2399483,1.9465649,-17.7938938,13.7557249,-4.5920553,0.0454896,7.9247670,23.1679382,24.1679382,14.8091602
3970,1.3694763,0.5626345,10.0962973,8.0610685,-31.1221371,10.6564884,-5.1283536,0.1675933,7.8026633,27.3129768,39.3511467,17.0839691
3980,2.0302727,1.1037214,9.8544836,12.8473282,-34.5572510,-0.0992366,-6.9455438,0.1867468,8.0971489,37.5038185,74.7786255,51.5801544
3990,2.5498118,1.4173602,9.1218615,3.5572519,-7.1908398,4.2061067,-6.0189924,0.1771700,7.8864598,30.9236641,1.5648855,42.9160309
4000,2.7174051,1.3455344,9.1697454,0.9618320,0.6412213,4.4809160,-5.4874821,0.2011119,7.8289995,27.5572510,-11.8473282,37.4656487
4010,2.8610563,1.2689204,9.1649570,-1.4961832,8.0305347,4.0152674,-4.8625989,0.2513899,7.8840661,24.3282452,-17.1068707,30.2900772
4020,2.9209111,0.9720409,9.1745338,-8.2671757,17.8015270,0.8167939,-4.5537481,0.4692611,7.9630742,19.0916023,-7.8702292,13.4198475
4030,2.8035958,0.6943150,9.4402885,-10.8396950,19.7709923,-1.7557251,-5.0158267,0.5722113,7.9511032,17.4961834,7.0000000,8.5419846
4040,1.3431402,0.6153067,10.3117743,0.2137405,1.1374046,-2.8015268,-6.5361371,1.1587877,7.7930865,4.7099237,-9.2137403,-3.8396947
4050,1.2832855,0.7445929,10.1417866,2.5267177,-3.1603053,0.8625954,-6.6797886,1.0773853,7.9247670,2.5496182,-22.7022896,-5.0610685
4060,1.3072275,0.8451489,10.1465750,4.5801525,-6.1145039,4.4809160,-6.2655940,1.0893562,8.1474266,1.5496184,-27.3740463,-7.3053436
4070,1.4269369,0.9552816,9.8616667,5.7862597,-8.0534353,6.9312978,-5.9998388,1.1252691,8.1617918,2.5954199,-27.3816795,-11.0534353
4080,1.5610116,1.0678085,9.7994175,5.9923663,-9.7022905,8.7633591,-6.2081332,1.0702027,8.0253229,4.2137403,-22.5572510,-12.3053436
4090,2.0470319,1.1061156,9.4762020,4.2748094,-9.2290077,9.0916033,-7.0724359,1.1156923,7.9415264,0.7557252,-4.3740458,-13.4656487
4100,2.2649033,1.1300575,9.4929609,2.8473282,-6.5038166,8.4732828,-7.5847921,1.3551112,8.1019373,-2.4045801,5.7938933,-10.2213745
4110,2.3079987,0.9528874,9.3397331,1.1755725,-3.7099237,7.2442746,-8.1426382,1.1563935,8.3461447,-4.5038166,14.8854961,-4.5114503
4120,2.4755919,0.8619082,9.3229742,-0.5725191,-1.5954199,5.9694657,-8.9327211,0.7829000,8.5544386,-6.8778625,23.0763359,0.0610687
4130,2.6455793,0.7637464,9.5288744,-1.6946565,0.1908397,4.1984735,-9.8329363,0.1987177,8.8824425,-11.0229006,37.3893127,5.0152674
4140,2.7174051,0.6440369,9.6557665,-2.3206108,0.1145038,1.6641221,-11.3771887,-0.1867468,9.5288744,-17.1755733,55.4885483,11.0534353
4150,2.7437410,0.5243275,9.7898407,-2.2824428,0.9083970,-0.6183206,-14.0060081,0.1628049,11.0635490,-24.1908398,64.4351120,21.1221371
4160,2.6168492,0.5339043,9.8688488,-1.9541985,1.2900764,-2.4198472,-18.3035774,0.6919208,13.8695393,-24.8778629,54.7786255,46.1374054
4170,2.4875629,0.4979914,9.8880024,-1.3740458,0.7557252,-3.5267177,-19.6131992,0.1843526,16.8886127,-9.6106873,49.7862587,100.3358765
4180,2.3606708,0.5506636,9.9071560,-0.4427481,0.1984733,-4.0458016,-19.6131992,-1.2689204,19.3306866,26.0076332,71.1221390,174.0610657
4190,2.2696917,0.6296718,9.8688488,0.2977099,0.1374046,-4.5496182,-19.6131992,-2.0925217,19.6126022,81.3435135,115.6946564,246.5419922
4200,2.1451938,0.7230452,9.8784256,0.7099237,-0.4122137,-4.1679387,-18.8781834,-2.1667414,19.6126022,140.2366486,163.6870270,250.1297760
4210,2.0398495,0.9217629,9.8592720,1.4427481,-1.7328244,-4.3206105,-16.0865593,-2.3798244,17.1759148,184.8854980,196.5954132,250.1297760
4220,1.9321109,0.9840119,9.8520899,2.4351146,-3.3358779,-4.4045801,-14.6332855,-2.2625091,14.2214851,213.0839691,201.5267181,250.1297760
4230,2.0350611,1.0438666,9.7419567,2.1908398,-2.9694657,-3.4122138,-12.8544035,-1.4293311,10.6828737,221.0000000,195.0534363,250.1297760
4240,1.9153515,1.2210367,9.7228031,1.9618320,-2.4122138,-4.4656487,-10.4721851,-0.8331779,6.7564025,209.6259613,182.9770966,250.1297760
4250,1.7573351,1.2377959,9.6006994,2.4045801,-2.5038168,-3.2061069,-8.3892403,-0.5937590,4.3909435,182.6564941,169.2137451,250.1297760
4260,1.8459201,1.2425843,9.6318245,1.7709924,-2.6412213,-1.6641221,-6.4906478,-0.0742199,3.2345500,151.0763397,150.6183167,250.1297760
4270,1.8076130,1.2114599,9.6773138,0.9847328,-2.6183207,-0.7786260,-4.9128766,0.5650287,3.0262554,122.4351120,125.8396912,250.1297760
4280,2.3056045,0.8044477,9.8185711,-2.5725191,2.4961832,0.3282443,1.3407460,1.1156923,3.1435707,71.5038147,85.7938919,250.1297760
4290,2.1954718,0.6799498,9.8377247,-2.4122138,1.6106870,0.4198473,2.6096666,1.0582317,3.1699069,68.6870193,96.6793900,250.1297760
4300,2.3103929,0.6296718,9.8209648,-2.1603053,1.2442749,0.5496183,3.4572096,1.1204807,3.2632802,66.8702316,103.3282471,250.1297760
4310,2.2864509,0.6368544,9.8664551,-1.1984733,0.7862595,0.4885496,4.1730723,1.2928623,3.1603301,65.7099228,98.9542007,250.1297760
4320,2.1715298,0.6512195,9.7898407,-0.5877863,0.6259542,0.8625954,5.0277977,1.2904681,3.0190730,63.8549614,86.5419846,250.1297760
4330,2.2265961,0.6823440,9.7084379,-0.6870229,0.0992366,1.4580153,6.1650376,1.1300575,2.6455793,60.6412201,64.1526718,245.4045868
4340,2.2385671,0.7565638,9.6485834,-0.3969466,-0.0687023,1.3893130,7.3980455,1.0390782,2.0733681,55.4351158,41.0992355,221.2213745
4350,2.3127871,0.7972651,9.7180147,-1.0229008,0.5419847,0.9312977,8.4874020,1.2497669,1.1037214,48.1450386,23.8854961,194.3969421
4360,2.1547706,0.8882443,9.7706871,-0.8778626,0.2748092,0.6259542,9.4139528,0.9528874,0.8475431,39.6870232,11.9236641,170.5190887
4370,2.1595588,0.9672526,9.8616667,-0.2595420,-0.7938932,0.3282443,13.1632538,1.2377959,-0.6679789,21.3129768,-37.2290077,92.7938919
4380,2.1547706,0.9816177,9.8712435,0.7175573,-1.1984733,0.0458015,16.6611652,1.4341195,-2.2050486,7.0687022,-57.2900772,41.6946564
4390,2.1020982,1.0582317,9.7754755,1.7480916,-2.1603053,-0.3664122,19.6126022,1.2689204,-5.0948353,-9.9770994,-40.5190849,-28.9923668
4400,2.1068866,1.0103480,9.7706871,2.2442749,-2.8931298,-0.9541985,19.6126022,1.5921360,-8.5855637,-42.3969460,24.7328243,-119.4656525
4410,2.0877333,1.0965388,9.6773138,1.9923664,-3.2748091,-0.8549618,19.6126022,1.0749911,-10.6948442,-93.8702316,119.4427490,-229.0992432
4420,2.1188576,1.0103480,9.6533718,1.7862595,-3.1832061,-1.0839695,19.6126022,-1.4269369,-10.2088242,-153.3664093,191.5877838,-250.1374054
4430,2.1739240,1.0510491,9.6054878,1.7251909,-2.5572519,-1.1908396,19.6126022,-6.6678176,-6.7133074,-212.5801544,168.5343475,-250.1374054
4440,2.2577207,0.9504932,9.5719690,1.0305344,-2.2519083,-1.6946565,18.9763451,-13.5894194,0.1077385,-250.1374054,43.2977104,-250.1374054
4450,2.3463056,0.9145803,9.5863342,0.1832061,-0.9618320,-2.2290077,13.8695393,-18.8733959,7.4555058,-250.1374054,-85.0992355,-250.1374054
4460,2.3415172,0.9097920,9.6437950,-1.2061069,0.0916031,-2.9389312,5.8059096,-19.6131992,15.8351688,-250.1374054,-136.6106873,-250.1374054
4470,2.2960277,0.8666966,9.7060442,-1.3969465,0.3206107,-3.7022901,-6.5744443,-19.6131992,19.6126022,-220.0152740,-156.0686951,-250.1374054
4480,2.3606708,0.8451489,9.7587166,-1.5190840,0.2900763,-4.5496182,-19.6131992,-19.6131992,19.6126022,-113.0687027,-210.1374054,-250.1374054
4490,2.2960277,0.8212070,9.8185711,-0.9083970,0.2748092,-4.7786260,-19.6131992,-17.6595421,19.6126022,-28.1221371,-250.1374054,-250.1374054
4500,2.2720859,0.8427547,9.7970228,-0.1755725,-0.3129771,-5.2290077,-19.6131992,-10.9222927,19.6126022,25.6717548,-250.1374054,-250.1374054
4510,2.1595588,0.8355721,9.7850523,0.3816794,-1.0687023,-4.6717558,-19.6131992,-4.7620430,17.2764702,74.0534363,-205.1755676,-250.1374054
4520,2.1547706,0.9624642,9.7658987,1.2748091,-1.8702290,-4.8549619,-19.6131992,-0.3399749,13.4146433,119.9465637,-2.9236641,-228.9313049
4530,2.1427996,0.9313397,9.7419567,1.7022901,-3.3816793,-4.3816795,-19.6131992,1.8722562,8.0684185,140.6717529,216.0305328,-13.9847326
4540,2.0661855,0.9768293,9.7204094,1.9541985,-4.2900763,-3.7328243,-19.6131992,1.8794388,3.1555417,125.1984711,250.1297760,129.4503784
4550,2.1595588,0.9840119,9.5935173,1.7175573,-4.2366414,-3.3511450,-19.6131992,2.0063307,1.4460905,76.5190811,250.1297760,182.6564941
4560,2.1260402,0.9409165,9.5863342,1.1832061,-3.7404580,-2.8396947,-16.0458584,2.1068866,2.2385671,16.2213745,250.1297760,167.0686951
4570,2.1212518,0.9121862,9.5911226,0.0992366,-2.1908398,-1.5877863,-9.4833841,1.9584470,4.3933377,-30.2671757,106.2977066,105.1908417
4580,2.1858950,0.8762733,9.4738073,-1.1374046,-0.6335878,-0.2137405,-6.2129216,2.8107784,6.0333576,-51.1145020,-22.9694653,32.5801544
4590,2.2002602,0.8762733,9.5623922,-2.2595420,1.1450381,0.2061069,-5.6311336,3.9647777,7.6087341,-52.0152664,-97.7786255,-23.3358784
4600,2.2002602,0.7445929,9.6294298,-3.3358779,2.8549619,0.2824427,-6.7923155,4.4986820,8.4490948,-36.2900772,-120.4274826,-52.9007645
4610,2.1619530,0.7469871,9.6892843,-4.1603055,3.0229008,0.4961832,-7.9343438,4.7476778,8.7603388,-12.2900763,-117.0000000,-61.8854980
4620,1.9943599,0.6943150,10.0101061,-5.0839696,5.9770994,3.3511450,-8.3676920,4.2185616,6.7348547,24.4580154,-100.6412201,-52.2213745
4630,1.8459201,0.7110743,10.0316534,-5.9236641,7.1679387,6.4809160,-7.5608501,3.6822634,5.5473371,31.8396950,-93.0076370,-45.5801544
4640,1.8387375,0.7134684,10.1202393,-6.0458016,10.6870232,10.2900763,-6.8090749,3.3279233,4.7165532,34.8473282,-82.6183243,-41.3129768
4650,1.8698620,0.9265513,10.1681223,-4.7022901,10.0992365,12.3358774,-6.2512288,3.0597742,3.7708483,34.4198456,-65.3435135,-37.2748108
4660,1.9752063,1.1061156,9.9694052,-1.8320611,7.8091602,11.9160309,-6.2081332,2.9256995,3.1723011,30.5572510,-45.2366409,-34.8931313
4670,2.4301023,1.0510491,9.2343884,-3.8931298,-1.5725191,7.0687022,-6.6247220,1.8435259,3.6367738,-19.2824421,-30.5496178,-23.9923668
4680,2.7389526,0.9480990,9.7682934,-5.3740458,1.8625954,4.9312978,-6.6678176,1.6759326,4.6016321,-25.4656487,-33.5877876,-28.1068707
4690,2.5186872,0.7733232,9.9478569,-4.7480917,3.5038168,1.7709924,-6.9120250,1.6136837,5.5760674,-26.9160309,-37.7022896,-30.7328243
4700,2.3008161,0.7230452,9.9454632,-3.7633588,3.0152671,2.0763359,-7.1155310,1.5921360,6.1075773,-23.8015270,-40.6412201,-34.2442741
4710,2.3917952,0.7781116,9.9885588,-2.1450381,1.8244275,0.3893130,-7.0676475,1.5586174,6.4547348,-17.6717548,-41.7099228,-35.6183205
4720,2.2385671,0.8140244,9.9765873,1.0458015,-0.8473282,-1.3664122,-7.1394730,1.5107336,6.5265603,-10.0000000,-41.2748108,-37.1221390
4730,2.2337787,0.9457048,9.8975792,2.6259542,-2.3664122,-2.5038168,-7.0101867,1.6328372,6.3661499,-2.4732823,-38.4122124,-38.2442741
4740,2.1787124,1.0295014,9.7156210,-1.0534351,-0.0763359,-6.8091602,-7.3238254,1.7309990,4.7021880,-19.0000000,-24.6106873,-47.1679382
4750,2.2002602,1.0007712,9.7754755,-1.0381680,-0.1908397,-7.2748094,-7.7619624,1.8411317,5.4826937,-29.6030540,-26.8396950,-48.5648842
4760,2.2409613,0.9504932,9.8353300,-0.6030535,0.2900763,-8.0992365,-8.2120695,1.8124014,6.1985564,-36.9465637,-27.7022896,-48.1679382
4770,2.1475880,0.8523315,9.7012558,-0.5496183,-0.0076336,-8.0992365,-8.8441362,1.7717001,6.9910331,-41.0152664,-28.7862587,-48.5267181
4780,2.1835008,0.7900825,9.6892843,-0.6641222,-0.6488550,-7.2824426,-10.2255831,1.6376256,7.8577299,-43.4732819,-33.6717567,-47.7099228
4790,2.0997043,0.7374104,9.6797075,-1.2213740,0.0534351,-6.9083967,-11.7363167,1.5298871,8.5807753,-46.6412201,-46.9312973,-47.3358765
4800,2.1260402,0.6799498,9.6509781,-1.4351145,-0.5648855,-6.7099237,-12.9860840,1.1348459,9.5288744,-44.5190849,-52.9847336,-43.0305328
4810,2.1619530,0.5865764,9.6701307,-2.1221373,-0.2366412,-6.2519083,-13.7187052,0.9217629,9.9813757,-34.9541969,-43.1832047,-32.9312973
4820,2.0709739,0.6081241,9.7036495,-2.6946564,1.2290076,-5.0839696,-13.6492739,0.6272776,10.0292597,-23.7786255,-27.1221371,-20.8931293
4830,2.0494261,0.5865764,9.8233595,-3.0610688,2.3435113,-3.7022901,-14.0898046,0.4501076,9.9023676,-14.8320608,-12.4503813,-9.7786255
4840,1.8914096,0.5961532,9.8161764,-3.1297710,3.4732823,-1.8854961,-15.3826675,0.6991033,10.0436249,-8.8931293,1.5038168,5.7251906
4850,1.9129574,0.6895266,9.7515335,-2.5496182,2.3816793,1.8244275,-18.8470592,0.9313397,10.6493549,3.2290077,18.8473282,62.8931313
4860,1.9249283,0.8068419,9.7563219,-2.3282442,2.0534351,2.5801528,-19.6131992,0.7086801,11.2287483,11.0992365,24.1221371,100.9770966
4870,2.0183017,0.8331779,9.8999729,-2.5725191,2.2290077,3.1984732,-19.6131992,0.5315101,11.8057480,24.6488552,19.3358784,142.0915985
4880,1.7645177,1.0390782,9.9071560,-0.6793893,3.2137403,6.1603055,-12.1912127,-0.0335187,8.1282730,105.3740463,13.9083967,250.1297760
4890,2.0590029,0.9289455,9.6940727,-1.3053435,5.6106873,5.9312978,-3.1244173,0.0119709,4.1180058,79.2366409,67.8702316,250.1297760
4900,2.1547706,0.9217629,9.7108326,-1.2595420,3.8244274,4.9923663,-1.5155219,0.1556223,4.2712340,74.6183243,76.5267181,250.1297760
4910,2.3510940,0.7685348,9.6773138,-0.9083970,2.7404580,3.5343511,-0.1388630,0.4070122,4.3622131,73.3206100,88.9465637,250.1297760
4920,2.4995339,0.7230452,9.6844959,-1.2824427,2.1603053,1.7938931,0.9217629,0.6392486,4.5082588,73.8778610,99.9007645,250.1297760
4930,2.1236460,0.6512195,9.8999729,-1.1832061,2.1145039,-4.5038166,5.0301919,1.8076130,2.1835008,69.3664093,67.3511429,250.1297760
4940,2.0542145,0.6895266,9.8568783,-0.5801527,2.1068702,-4.4885497,6.1147599,1.8219782,1.1420283,57.9007645,43.2213745,223.9236603
4950,2.0470319,0.8523315,9.8544836,-0.1908397,2.2595420,-4.6793895,7.4148049,1.9057748,0.2968795,42.0534363,5.9160304,187.9389343
4960,1.8339491,0.9097920,9.8233595,-0.0687023,1.6106870,-4.5419846,9.4666252,1.9919657,-0.2968795,21.7480907,-44.9771004,142.0381622
4970,1.7740943,0.8978211,9.7228031,0.3358779,1.1755725,-4.5419846,11.8847561,2.4708035,-1.0510491,-4.5725193,-109.6488571,81.9389343
4980,1.7381816,0.9409165,9.7587166,0.0916031,0.5877863,-4.1145039,13.2901459,3.6846576,-1.5538290,-36.2595406,-168.1603088,19.2366409
4990,1.6783268,0.9050036,9.6940727,-0.5038168,0.2519084,-3.8473282,16.4911766,5.1762376,-2.4995339,-58.5801544,-217.1297760,-39.4274826
5000,1.7166338,0.9433106,9.6749191,-1.1908396,0.1908397,-2.9618320,18.7129841,5.6431046,-4.0437860,-85.5725174,-218.2595367,-104.6488571
5010,1.7621235,0.9289455,9.5887289,-1.8091604,0.4351145,-1.9160305,19.4599724,5.2839761,-5.5353661,-122.3664093,-172.7022858,-168.7022858
5020,1.6615674,0.9193687,9.6509781,-2.4961832,0.9083970,-0.9389313,18.8422718,4.2808108,-6.2344694,-171.4885559,-123.5725174,-228.8167877
5030,1.7501525,0.8834559,9.7180147,-2.7175572,0.9007633,0.0000000,17.9779682,2.0398495,-5.0637107,-224.5725250,-94.5572510,-250.1374054
5040,1.8554969,0.9528874,9.6390066,-3.3587787,0.7709923,0.5648855,17.0777531,-1.2689204,-1.9728121,-250.1374054,-93.5419846,-250.1374054
5050,1.9871773,0.9409165,9.7299862,-3.6259542,0.7099237,0.0916031,16.1727505,-4.3813667,0.7852941,-250.1374054,-97.9618301,-250.1374054
5060,2.0254843,0.9624642,9.6964674,-3.4503818,1.4503816,-0.5419847,13.6995516,-7.0484939,3.5960727,-250.1374054,-97.4656525,-250.1374054
5070,2.0637913,0.8212070,9.8089943,-3.1221373,2.0381680,-1.1145039,10.9366570,-9.3517036,5.8729467,-250.1374054,-97.8320618,-250.1374054
5080,1.9919657,0.7350162,9.8065996,-2.3969467,1.7022901,-1.4351145,7.7882981,-11.6620970,7.8697009,-250.1374054,-93.3282471,-250.1374054
5090,1.9967541,0.6655847,9.9071560,-2.0076337,1.3969465,-1.3206106,4.3670015,-14.0682573,10.1992474,-250.1374054,-82.2213745,-250.1374054
5100,1.8866212,0.6033357,9.8568783,-1.7099236,0.5877863,-0.9770992,-0.1005560,-16.1488075,12.4904861,-250.1374054,-65.3206100,-250.1374054
5110,1.9392935,0.5003856,9.8161764,-1.2977099,-0.5801527,-0.5038168,-7.4746594,-17.8007984,14.5638542,-250.1374054,-41.4045792,-250.1374054
5120,1.7525467,0.4165890,9.9143381,-1.7328244,0.9465649,0.8625954,-17.5470142,-17.2573185,16.5989151,-208.8015289,-22.5419846,-250.1374054
5130,1.7357874,0.3758878,10.0101061,-1.3358779,-0.9160305,2.4732823,-19.6131992,-14.4082317,19.0840836,-160.9541931,12.3587790,-250.1374054
5140,1.7477583,0.4788379,9.9191265,0.0916031,-3.7786260,3.4198472,-19.6131992,-9.8712435,19.6126022,-100.3969498,69.6183243,-250.1374054
5150,1.9943599,0.6200951,9.9191265,1.6030535,-7.3053436,3.1145039,-19.6131992,-5.0397687,19.6126022,-30.3053436,79.8702316,-250.1374054
5160,2.1763182,0.7733232,9.9670105,2.6870229,-8.4274807,1.8854961,-19.6131992,-2.5857246,19.6126022,30.9694653,49.0916023,-102.9312973
5170,2.1930776,0.8355721,9.9598284,3.1068702,-7.6717558,1.2061069,-19.6131992,-2.1140692,17.6092644,68.9160309,40.5877876,20.5725193
5180,2.1236460,0.9576758,9.7515335,3.6335878,-7.0152674,0.8778626,-19.6131992,-2.2744799,13.0770626,80.7480927,78.0687027,94.5267181
5190,2.1978660,1.0366840,9.6653433,3.6870229,-6.6946564,0.3740458,-12.2869806,-1.2808913,9.6366129,68.1526718,128.9770966,123.2366409
5200,2.1475880,1.0582317,9.6054878,3.1755726,-6.2748094,-0.1832061,-8.0061693,0.0837966,8.8872309,44.5038185,145.1679382,111.8320618
5210,1.5801650,0.9097920,10.0819321,1.8778626,-3.3969467,-3.8320611,-6.9000540,2.0470319,7.7404146,31.6335869,-30.6259537,-20.3893127
5220,1.6352314,1.0438666,9.9310980,3.8702290,-5.0839696,-2.7938931,-6.5792327,1.8650736,6.9072366,36.3969460,-12.2213745,-12.2290077
5230,1.7166338,1.1659702,9.7658987,4.2290077,-5.3053436,-1.8473282,-6.1961622,1.7142396,6.1865854,36.5725174,-0.4580153,-7.4809160
5240,1.6950861,1.2449785,9.6174593,3.7175572,-4.4732823,-1.4885496,-5.8130918,1.6328372,5.4060798,32.6870232,7.6412215,-4.6870227
5250,1.7669119,1.2832855,9.4642305,2.3511450,-3.8091602,-1.2595420,-5.6407104,1.4508789,4.9152708,25.0687027,13.1068707,-4.3129773
5260,1.7669119,1.2713146,9.3947992,0.8320611,-3.1603053,-0.9465649,-5.5856438,1.2545552,4.7955613,15.7557249,12.6488552,-5.5877862
5270,1.7812769,1.1348459,9.3540983,-0.6870229,-3.2900763,-0.4198473,-5.5162125,1.1779412,5.0182209,6.0381680,7.9389315,-7.7404580
5280,1.8674678,1.1156923,9.5240860,-2.1832061,-3.1679389,0.1679389,-5.5305777,1.1324517,5.2911587,-2.5877862,3.2824428,-9.8167934
5290,2.0350611,0.9696468,9.7658987,-2.1145039,-4.2977099,0.4351145,-5.3917146,0.9385223,5.8226686,-7.8091602,0.6030535,-12.2519083
5300,2.0637913,0.8499373,9.7539282,-2.3282442,-2.2137403,0.8549618,-5.2289100,0.9193687,6.2344694,-10.3816795,-0.0610687,-14.5877867
5310,2.0901275,0.7062859,9.9358864,-3.0076337,-1.2595420,0.9847328,-5.3390427,0.7996593,6.5121951,-10.9465647,-0.9083970,-17.5572510
5320,2.2098370,0.5674229,9.8329363,-2.6183207,-2.5877862,0.9618320,-5.3510137,0.7781116,6.6917596,-10.8015270,-3.2748091,-20.1526718
5330,2.1451938,0.4165890,9.8880024,-1.4809160,-3.7022901,1.0687023,-5.3294659,0.5362985,6.7157016,-11.1526718,-5.5190840,-23.2519093
5340,2.2936335,0.3519458,9.7754755,-0.5114504,-3.6106870,1.7022901,-5.5066357,0.5099624,6.5840211,-13.3893127,-8.5648851,-25.8549614
5350,2.3223639,0.3016679,9.7754755,-0.4198473,-3.3893130,2.3816793,-5.9208307,0.5171449,6.7276726,-17.3664131,-11.3358774,-28.2137413
5360,2.4779861,0.3232156,9.7467451,-1.1755725,-1.9618320,2.6564887,-6.2177100,0.4668669,6.8162575,-22.1984730,-13.7709923,-27.7786255
5370,2.5593886,0.3567342,9.6797075,-1.3664122,0.0305344,2.4732823,-6.5002246,0.4213773,7.2065101,-26.7022896,-16.4961834,-26.7175579
5380,2.5809362,0.4812321,9.7036495,-1.1908396,1.3740458,1.7938931,-6.6295104,0.4046180,7.4650826,-30.4656487,-17.2595425,-24.7938938
5390,2.5426292,0.5386927,9.8137827,-1.2977099,1.3664122,1.0381680,-6.8497758,0.3591284,7.8816719,-32.6870232,-17.4961834,-22.2900772
5400,2.4133430,0.6560079,9.7730818,-1.2595420,1.6335878,0.1908397,-6.9263902,0.3495516,8.1617918,-33.6412201,-16.2671757,-19.4732819
5410,2.3439114,0.5889706,9.9095497,-0.1908397,0.6641222,0.0458015,-6.8473821,0.2705434,8.4730368,-33.9236641,-12.9923668,-17.2442741
5420,2.3894010,0.7948709,9.8305416,0.7022901,1.1679389,-1.2213740,-7.1298962,0.2250538,8.8082228,-33.3969460,-10.7557249,-16.0992374
5430,2.0853391,0.9480990,9.6892843,-0.0687023,1.1068702,-1.3129771,-8.4610653,-0.0909792,9.4187412,-37.8473282,-33.6183205,-18.0534344
5440,1.9560528,1.0630201,9.8042059,0.2366412,0.9312977,-1.2748091,-9.1003141,-0.0023942,10.4195127,-43.3358765,-56.0763359,-18.1603050
5450,1.8435259,1.1156923,9.7587166,0.3740458,0.5954198,-0.6641222,-8.9758167,-0.0119709,11.1712875,-39.5343513,-59.7786255,-16.5496178
5460,1.7836711,1.3120158,9.7730818,0.6793893,-0.3053435,-0.9541985,-8.7340031,-0.0861908,11.5543585,-27.7709923,-44.6488533,-14.3740454
5470,1.6591733,1.3287752,9.7060442,0.5648855,-0.9389313,-0.5572519,-8.6166878,-0.0622489,11.5998478,-12.9847326,-19.2290077,-11.5419846
5480,1.6663558,1.3239868,9.6533718,-0.4351145,-0.7557252,-0.0763359,-8.7603388,0.3854645,11.3604288,1.0076336,7.6412215,-7.5496182
5490,1.6519908,1.3694763,9.6126709,-1.2519084,0.1450382,0.8015267,-8.9375095,0.5865764,10.7092094,11.5038166,28.2061062,-1.6564885
5500,1.7788827,1.2066715,9.5336628,-2.5267177,0.8625954,1.8167939,-9.6054878,0.6009415,10.4290895,19.4045811,46.8091621,5.5648856
5510,2.2625091,0.5674229,9.8185711,0.9770992,-2.4122138,0.7709923,-19.6131992,-0.1340746,12.0331964,44.4351158,20.7251911,168.2442780
5520,1.9368993,1.0773853,9.6605549,1.0152671,-0.6259542,-0.1297710,-4.7716198,-1.3718705,7.1275020,143.4961853,32.0076332,250.1297760
5530,2.0446377,1.0079538,9.6246414,0.1832061,-0.7328244,-0.0381679,-3.1052637,-1.1204807,6.5217719,145.5343475,42.6412201,250.1297760
5540,2.1044924,0.9241571,9.6461897,-0.5801527,-0.6793893,-0.6946565,-1.3407460,-0.9864060,6.2272868,145.1450348,51.7862587,250.1297760
5550,2.2385671,0.8475431,9.7491398,-0.9923664,-0.1145038,-1.3511450,0.3136388,-0.6991033,5.8537931,144.6259613,63.8549614,250.1297760
5560,2.2505381,0.8164186,9.7491398,-0.9618320,0.0381679,-1.8778626,1.0199248,-0.2226596,5.1379304,144.2748108,71.0687027,250.1297760
5570,2.2265961,0.6464311,9.8640604,-0.0381679,-0.4809160,-3.4503818,2.8107784,0.8379663,2.5665710,123.6106873,38.2137413,250.1297760
5580,2.1188576,0.6967092,9.8113880,1.7709924,-0.6412213,-3.6641221,4.5178356,1.1611819,1.6495966,101.0152664,-13.7557249,242.3358765
5590,2.0087249,0.8954269,9.7970228,4.0076337,-1.7557251,-2.4045801,10.0244713,1.7046629,-0.1508339,69.9694672,-70.2290039,167.3893127
5600,1.9799947,0.9959828,9.6821022,3.8015268,-2.4961832,-2.1603053,11.4657736,1.9153515,-0.5554519,57.9618340,-63.7251892,131.9618378
5610,1.9967541,1.0438666,9.4953556,2.7633588,-1.9312977,-1.7938931,12.5000629,2.2984219,-0.7398046,46.1679382,-51.4351158,93.1297684
5620,1.9512644,1.1037214,9.4881725,0.7786260,-0.8931298,-0.8015267,13.2302914,2.9113343,-0.9552816,35.0610695,-38.3664131,52.6793900
5630,2.0637913,1.0175306,9.4187412,-0.9312977,0.4656489,-0.1755725,13.5918131,3.3375001,-1.2880739,23.3282452,-25.9389305,10.7251911
5640,2.0613971,0.9552816,9.6390066,-3.6717558,1.3740458,0.3053435,14.2526102,3.5434003,-2.5402350,-10.8091602,-19.1679382,-84.0839691
5650,1.9991482,0.8020535,9.6461897,-4.5419846,1.2061069,0.5648855,14.3675308,3.4739690,-2.9903426,-34.5725174,-19.0152664,-137.9236603
5660,1.9776005,0.7613522,9.7012558,-4.9770994,1.6335878,0.9160305,14.2334566,3.1627243,-3.0214672,-59.4961815,-16.8702297,-193.3587799
5670,2.0422437,0.7350162,9.9358864,-4.6641221,2.1221373,1.4427481,13.8862991,2.6192431,-2.7317703,-84.2900772,-14.7251911,-250.1374054
5680,2.0973101,0.6871324,9.8664551,-4.0687022,2.2290077,1.7099236,13.5798426,1.5849534,-2.4420733,-108.5343475,-11.0381680,-250.1374054
5690,1.9799947,0.7924767,10.0891142,-3.0229008,2.4580152,1.9312977,12.8232784,0.3567342,-1.7405758,-130.3511505,0.0992366,-250.1374054
5700,2.0206959,0.8571198,10.1369982,-1.1068702,1.8854961,2.5190840,11.4154949,-1.5514348,-0.1747758,-148.4351196,11.6412210,-250.1374054
5710,1.8985922,0.9935886,10.0316534,0.8778626,0.6106870,2.7557251,8.5735922,-3.6822634,2.4444675,-158.5801544,16.7480907,-250.1374054
5720,1.8914096,1.1420283,9.8257532,2.4122138,-0.3206107,3.2900763,4.6183915,-5.2049680,4.9368186,-159.5801544,-1.8778626,-250.1374054
5730,1.8842272,1.1707586,9.7874460,2.7938931,-1.1068702,3.2137403,-0.4884146,-6.6151457,6.8809004,-156.6106873,-49.0610695,-250.1374054
5740,1.9392935,1.1875180,9.6342182,2.7633588,-1.1145039,3.6488550,-6.5864153,-7.8816719,7.7452030,-156.6259613,-128.6641235,-250.1374054
5750,2.0087249,1.2186425,9.6030941,1.9541985,-0.7251908,3.5725191,-10.9893293,-8.9925756,6.9766679,-165.8931274,-215.8625946,-250.1374054
5760,2.0781565,1.1659702,9.4402885,0.3664122,-0.5038168,3.1908398,-14.2310619,-10.4410601,6.0333576,-187.8015289,-236.8167877,-250.1374054
5770,2.2289903,0.9744351,9.4809904,-1.8320611,-0.5801527,1.8015267,-19.6131992,-11.3125448,6.2105274,-216.8931274,-216.4580078,-250.1374054
5780,2.2146254,0.8188128,9.6126709,-2.8091602,-0.7251908,0.7175573,-19.6131992,-10.0412302,6.9335728,-250.1374054,-202.4656525,-250.1374054
5790,2.2649033,0.6057299,9.8257532,-3.0458016,-0.9312977,-0.4580153,-19.6131992,-7.0341287,10.2974091,-250.1374054,-165.0992432,-250.1374054
5800,2.2984219,0.5099624,10.0771437,-2.2519083,-0.2900763,-0.4961832,-19.6131992,-5.6143742,15.1863441,-250.1374054,-100.1526718,-250.1374054
5810,2.2337787,0.4860204,10.2471304,-0.3206107,1.0000000,-0.2671756,-19.6131992,-5.2983413,19.6126022,-250.1374054,-38.6106873,-111.8091583
5820,2.2170193,0.6248835,10.2471304,2.5190840,1.5038168,0.3969466,-19.6131992,-7.5991573,19.6126022,-250.1374054,-28.8244267,36.9541969
5830,2.1715298,0.7805058,10.0939026,4.5877862,1.2900764,0.6412213,-19.6131992,-7.4746594,19.6126022,-239.0229034,-165.4351196,136.3358765
5840,2.0925217,0.9983770,9.8185711,5.7099237,0.1145038,-0.2442748,-17.0921192,-8.8632889,19.6126022,-89.6030502,-35.1450386,193.6488495
5850,2.0326669,1.1827296,9.4833841,5.3129773,-0.8549618,-1.3511450,-6.7468257,-6.6797886,19.6126022,85.6335907,119.4503784,193.0076294
5860,1.9632354,1.3120158,9.3373384,3.9847329,-1.1755725,-1.8854961,-2.2744799,-5.0158267,19.6126022,199.9541931,209.9618378,166.7862549
5870,1.9656296,1.4173602,9.3684635,2.0076337,-0.7175573,-2.8167939,-2.7341642,-3.9216824,16.3307667,250.1297760,247.6488495,144.2442780
5880,1.9392935,1.2904681,9.2798786,-0.2519084,-0.2977099,-3.2137403,-3.3805954,-2.1619530,11.5783005,250.1297760,226.3893127,128.2595367
5890,1.9273225,1.2880739,9.4259243,-2.0076337,0.4961832,-2.9923663,-3.0023136,-0.4070122,7.7930865,250.1297760,173.8625946,110.1297684
5900,1.9201399,1.1539993,9.6246414,-2.5496182,1.5038168,-2.3511450,-2.5234756,0.6440369,4.4962878,250.1297760,107.1221390,81.0229034
5910,1.9560528,0.9097920,9.9023676,-2.2748091,1.4580153,-1.0152671,-2.9376705,0.9097920,-0.1388630,171.8778687,-10.1145039,19.9847336
5920,1.9368993,0.7852941,9.8975792,-1.5114504,0.4809160,-0.6793893,-3.3039815,1.0247130,-0.7374104,123.8854980,-40.9694672,-3.8015268
5930,1.9799947,0.7158626,9.8712435,-0.6183206,-1.3053435,0.0000000,-3.6726866,1.8100072,-0.1987177,85.7175598,-49.0076332,-20.6335869
5940,2.0135133,0.6200951,9.8664551,0.3129771,-2.4885497,0.7557252,-4.2712340,3.1315999,-0.0981618,57.4351158,-57.5801544,-33.3358765
5950,2.2696917,0.9648584,9.7060442,-0.2900763,1.5114504,0.7557252,-7.0580707,2.2122312,5.2145448,-55.0839691,26.5114498,5.3969464
5960,2.2625091,0.9624642,9.7682934,-0.3587786,1.6183206,0.3053435,-6.7540083,1.9943599,6.2799587,-51.8625946,30.3129768,4.4580154
5970,1.6400198,1.1827296,9.7563219,0.3969466,1.7786260,-0.1221374,-8.1881275,2.0973101,6.8809004,-9.0381680,-1.0763359,-18.8167934
5980,1.6591733,1.1970947,9.7036495,0.1221374,0.9465649,0.5114504,-7.9965930,2.0518203,6.6797886,-9.9083967,-9.6717558,-20.3740463
5990,1.6400198,1.1683644,9.6725254,0.2290076,-0.0839695,1.4351145,-7.8936424,2.0925217,6.6917596,-12.7557249,-17.4274807,-24.3129768
6000,1.6902977,1.1468167,9.6677370,0.1145038,-1.5725191,2.0992367,-7.8529415,2.1715298,6.6438756,-15.7862597,-26.1450386,-29.2748089
6010,1.8650736,1.0462608,9.6964674,-0.2061069,-2.2748091,2.5496182,-7.9630742,2.1763182,6.9910331,-19.0992374,-33.8854980,-34.9541969
6020,1.9608412,0.9911944,9.7395630,-0.3969466,-2.4351146,2.6870229,-8.0348997,2.1451938,7.1275020,-22.4274807,-37.9083977,-39.5648842
6030,2.1380112,1.0151364,9.7658987,-0.4274809,-2.1603053,2.8702290,-8.2671366,1.9823889,7.5608501,-24.5648861,-36.2137413,-44.6030540
6040,2.1691356,0.9911944,9.8305416,-0.1145038,-1.5954199,2.5038168,-8.8297710,1.8363433,7.7475972,-25.5114498,-32.2748108,-47.9083977
6050,2.2864509,0.9457048,9.7706871,0.0381679,-1.1832061,2.1068702,-9.9047613,1.8219782,7.9104018,-26.3129768,-29.6412220,-49.5267181
6060,2.2960277,0.9002152,9.6797075,0.2213740,-1.1297710,1.8015267,-11.1281929,1.8028246,8.1139078,-28.3435116,-26.0000000,-47.9160309
6070,2.3175755,0.8978211,9.6557665,-0.3816794,-0.7404580,1.0992366,-12.7514534,1.5059452,8.5999289,-31.1832066,-19.8167934,-40.7557259
6080,2.3965836,0.8475431,9.6126709,-1.1145039,0.1603053,0.0534351,-14.6165266,1.1180865,8.9782104,-32.0458031,-20.6106873,-27.1832066
6090,2.3439114,0.8643024,9.7443514,-1.8702290,1.3435115,-1.0458015,-16.4001980,0.9121862,9.5288744,-31.5954189,-23.9694653,-4.8625956
6100,2.1427996,0.8882443,9.7730818,-2.2824428,1.7862595,-1.7480916,-17.9300842,0.9313397,10.3740225,-30.0687027,-20.2748089,26.6641216
6110,2.1260402,0.7374104,9.9430685,-1.8702290,1.7480916,-2.0076337,-19.1678810,1.0271072,11.2742386,-25.7328243,-11.6564884,66.1068726
6120,2.0446377,0.8020535,9.9861641,-0.9007633,1.2824427,-1.6106870,-19.6131992,0.8547257,12.1960011,-15.9618320,0.1068702,112.6564865
6130,1.9345051,0.9169745,9.9047613,1.5267175,-0.0839695,-0.4503817,-19.5581341,-0.2442073,14.2262735,24.5496178,34.2213745,213.1221313
6140,1.9057748,1.0534433,9.7563219,2.0305343,-0.4656489,-0.1984733,-18.1982346,-0.5793939,14.4489336,57.2671738,43.2061081,250.1297760
6150,1.9392935,1.1204807,9.6509781,1.5267175,-0.8396947,0.0534351,-16.0578289,-0.7829000,13.4792862,91.3664093,56.4961815,250.1297760
6160,1.8124014,1.1492109,9.4785957,0.3587786,-0.8473282,0.3893130,-14.5423069,-0.9121862,11.5543585,117.7786255,68.6030502,250.1297760
6170,1.8985922,1.2330076,9.5623922,-0.5877863,-1.4732825,0.5190840,-12.8855276,-0.8068419,9.4402885,133.8931274,76.5725174,250.1297760
6180,1.9991482,1.1516051,9.6366129,-1.2213740,-1.9770992,0.9007633,-10.5559816,-0.9002152,7.4770536,137.4351196,85.5725174,250.1297760
6190,2.0206959,1.1420283,9.7347746,-1.6030535,-1.3587786,0.9160305,-7.8433647,-0.8547257,5.9854736,132.6793823,94.0687027,250.1297760
6200,2.0470319,1.0893562,9.7682934,-1.5496184,-0.9465649,1.4732825,-5.4659348,-0.7517755,5.2887645,124.2442780,98.3816757,250.1297760
6210,2.0254843,1.0366840,9.8520899,-1.2061069,-0.8702290,1.1908396,-3.1842721,-0.5817881,4.6136031,114.8931274,105.1679382,250.1297760
6220,2.0302727,1.0127422,9.8089943,-0.9083970,-1.4122137,1.4732825,-1.1994889,-0.4668669,4.2760224,106.6259537,109.9694672,250.1297760
6230,2.2265961,0.8475431,9.6509781,-3.0458016,1.0534351,-1.8396946,4.9416070,2.1523764,3.0549858,106.0152664,162.7709961,225.9923706
6240,2.1188576,0.7398046,9.6797075,-3.4274809,1.1603054,-1.6030535,5.2743993,2.4827745,2.4061604,103.9007645,142.4885559,209.9084015
6250,1.9680238,0.8690908,9.7802639,-4.2671757,1.8167939,-0.3511450,7.8840661,3.4356618,-1.6998745,50.4427490,8.3587790,150.8244324
6260,1.8147956,0.9002152,10.0532017,-2.6870229,1.4503816,0.9923664,10.9414454,3.2177906,-2.4109488,-11.6641226,-90.3511429,83.6793900
6270,1.7860653,1.0390782,10.1633339,-0.5801527,0.4656489,1.6870229,12.5694942,3.4332676,-2.0206959,-35.6335869,-135.9541931,36.9160309
6280,1.7717001,1.0486550,10.1705170,1.4961832,-0.6793893,2.8549619,15.0833931,3.5625539,-1.9201399,-54.3816795,-183.3206177,-14.7404585
6290,1.7333932,1.2473727,10.0220766,3.2595420,-1.5496184,3.6335878,18.3634338,3.5721307,-2.0901275,-72.1755753,-211.1068726,-77.6488571
6300,1.6926919,1.3335636,9.7970228,4.2137403,-2.1908398,4.3893127,19.6126022,3.5625539,-2.2936335,-88.7175598,-198.5419922,-155.6106873
6310,1.8339491,1.4389079,9.5145092,4.0152674,-2.8778627,4.9236641,19.6126022,3.1914546,-2.0183017,-104.9542007,-143.8091583,-249.5648804
6320,1.9967541,1.4101776,9.4067707,2.5419848,-2.8625953,5.0229006,19.6126022,1.8267666,-1.4843974,-116.7251892,-73.8854980,-250.1374054
6330,2.0877333,1.3646880,9.3397331,0.1450382,-2.3587787,4.2671757,19.6126022,-0.5123565,-0.5003856,-129.3740387,-13.6564884,-250.1374054
6340,2.2840567,1.1348459,9.3277617,-2.4732823,-1.3740458,2.8244274,15.9620609,-4.6878228,0.5865764,-141.0992432,13.6946564,-250.1374054
6350,2.3343346,0.9121862,9.4738073,-4.6183205,-1.1984733,1.2977099,9.6868906,-11.0898857,1.9799947,-151.8396912,2.8244274,-250.1374054
6360,2.3726418,0.7182568,9.7611103,-5.3816795,-1.3740458,0.0305344,1.0247130,-17.4703999,3.3901722,-161.8854980,-46.3969460,-250.1374054
6370,2.4468615,0.5793939,10.0053177,-4.6259542,-1.2137405,-1.1297710,-10.2447367,-19.6131992,4.3789725,-172.9389343,-133.3282471,-250.1374054
6380,2.4061604,0.4668669,10.1753054,-2.9236641,-0.4961832,-1.4580153,-19.6131992,-19.6131992,5.4467812,-196.4580078,-204.9618378,-250.1374054
6390,2.3870070,0.5051740,10.2830439,-0.1832061,0.2977099,-1.7175573,-19.6131992,-15.7848911,8.2216463,-233.0458069,-241.4961853,-250.1374054
6400,2.1643472,0.6177009,10.2040358,2.0381680,0.3282443,-1.8931298,-19.6131992,-5.6095858,16.4552650,-250.1374054,-250.1374054,-250.1374054
6410,2.0781565,0.8307837,9.9741936,4.1908398,-0.8778626,-1.5877863,-19.6131992,-0.1604107,19.6126022,-250.1374054,-250.1374054,-250.1374054
6420,1.9967541,1.0773853,9.7180147,5.2366414,-1.9847329,-1.6488550,-19.6131992,-0.5315101,19.6126022,-189.4580078,-250.1374054,-108.5038147
6430,1.9368993,1.2737088,9.5216913,4.6106873,-2.0152671,-1.6564885,-19.6131992,-2.5905130,19.6126022,-75.6564865,-204.3358765,34.8625946
6440,1.9871773,1.3790531,9.3612804,2.5572519,-1.8396946,-2.2290077,-19.6131992,-3.3422885,19.6126022,39.7022896,-15.5801525,122.0916061
6450,2.0015423,1.4149660,9.3852224,0.4351145,-0.7709923,-2.5572519,-11.6213961,-2.9280937,15.8112268,115.8320618,181.4045868,166.5801544
6460,2.0494261,1.3024391,9.4570484,-1.4045801,0.7862595,-2.3740458,-6.9431496,-1.1683644,11.2790270,147.4961853,250.1297760,172.1908417
6470,1.9752063,1.1803354,9.5576038,-2.5419848,1.5343511,-2.1755726,-5.7460546,0.9337339,8.3820572,146.4961853,250.1297760,144.3282471
6480,1.8866212,1.0151364,9.6988611,-3.0916030,0.9312977,-1.3053435,-6.2823529,2.6934631,6.1841912,126.6412201,250.1297760,103.5877838
6490,2.4037662,0.5650287,9.7084379,-2.5648854,-0.0458015,-1.7557251,-4.5298066,3.2297616,4.5250182,-14.8625956,-101.6641235,-32.5725174
6500,2.3391230,0.5722113,9.7970228,-2.8778627,1.0381680,-1.7251909,-4.2568688,2.8897867,5.1235652,-16.8091602,-93.4656525,-42.3282433
6510,2.2577207,0.6344602,9.8832140,-1.9465649,1.4885496,-1.4656489,-4.2616572,2.6000898,5.7029591,-11.7633591,-70.4274826,-49.1908379
6520,2.1380112,0.7062859,9.9334917,-0.7557252,1.8625954,-0.6946565,-4.6926112,2.5162930,6.1195483,-2.6030533,-37.0610695,-51.5038185
6530,2.0829449,0.8547257,10.0268650,0.6183206,2.2366412,0.0076336,-5.0948353,2.4684093,6.2703824,8.7938929,-5.8320613,-50.2824440
6540,1.9632354,1.0199248,10.0220766,1.8625954,2.1526718,0.7480916,-5.4563580,2.3127871,6.1889796,19.8015270,20.2137413,-48.2137413
6550,1.8315549,1.1875180,9.8233595,2.1450381,1.7175573,1.3893130,-5.7364779,2.0925217,5.6143742,28.1679382,40.6564903,-46.2137413
6560,1.7717001,1.3766589,9.5599985,2.1450381,0.8396947,2.3358779,-6.2967181,1.9895715,5.0948353,32.7328262,54.6870232,-45.4885483
6570,1.6950861,1.3934183,9.4019823,1.3282443,0.2061069,2.1068702,-7.0006099,1.9201399,4.6159973,33.3816795,58.0687027,-45.0458031
6580,2.0446377,1.0438666,9.7754755,-4.1221375,-1.2519084,3.9770992,-8.2455883,1.8794388,4.3502421,0.4732825,-7.5267177,-41.6564903
6590,2.1332228,0.8379663,9.9454632,-3.4427481,-1.7328244,3.4809160,-8.0301113,1.8961980,4.7213416,-6.5877862,-19.0610695,-42.5648842
6600,2.1667414,0.7805058,9.9622221,-2.2290077,-2.4351146,2.6870229,-7.9822278,1.9392935,4.9559722,-12.0992365,-25.2671757,-43.2061081
6610,2.1954718,0.7350162,9.9310980,-1.3511450,-3.1068702,2.4961832,-8.0660238,2.0566087,5.2169390,-15.0534353,-28.3206100,-41.1755714
6620,2.3678534,0.6584021,9.8999729,-0.7557252,-3.2290077,1.9618320,-8.2216463,2.0111191,5.3869262,-17.0839691,-31.0763359,-39.8931313
6630,2.3558824,0.6368544,9.8185711,-0.4351145,-2.3053436,1.0381680,-8.2503767,2.0087249,5.4563580,-19.4656487,-33.7480927,-37.6183205
6640,2.4372849,0.6847382,9.8640604,-0.0839695,-1.2442749,0.5343512,-8.2240410,2.0374553,5.7149301,-22.2213745,-33.5801544,-34.8320618
6650,2.4708035,0.7469871,9.8449068,0.0534351,0.3129771,-0.6717557,-8.2575598,1.9440818,5.9735026,-24.1221371,-30.0152664,-33.8167953
6660,2.4899571,0.7685348,9.8137827,0.2061069,1.4198474,-1.4809160,-8.4467001,1.8674678,6.3350253,-25.2595425,-26.5954189,-33.4503822
6670,2.3367288,0.9050036,9.8784256,0.6183206,2.1450381,-2.0305343,-9.8975792,1.9129574,6.6175399,-26.4580154,-32.2671738,-37.1068687
6680,2.1739240,0.9121862,9.7970228,1.3358779,2.0687022,-2.5267177,-12.9597473,2.7197993,6.0453281,-40.1526718,-71.0305328,-49.0381660
6690,2.0685797,1.0582317,9.7994175,2.4045801,1.4503816,-2.3435113,-15.2533808,1.9416877,6.9072366,-53.3816795,-94.5954208,-37.9160309
6700,1.9464760,1.1204807,9.6821022,2.6030533,0.9923664,-2.0381680,-14.1352949,1.1348459,8.1139078,-44.3893127,-79.5648880,-3.5725191
6710,1.9368993,1.2617378,9.6892843,2.4503818,0.6793893,-2.0305343,-10.5511932,1.9416877,8.4275465,-28.0687027,-61.3358765,21.1374054
6720,1.9392935,1.2330076,9.6006994,0.8778626,0.0839695,-2.2290077,-6.9048424,2.3127871,7.7619624,-0.3511450,-9.9541988,16.2519093
6730,1.8914096,1.1659702,9.4642305,-0.3053435,-0.6717557,-2.1984732,-7.4459291,1.7621235,7.4195933,6.4045801,17.7404575,11.2671757
6740,2.0925217,1.0366840,9.5576038,-1.1068702,-0.6335878,-2.3053436,-8.4155760,1.4580613,6.8354111,9.0839691,37.2519073,9.5725193
6750,2.1308286,0.9816177,9.6557665,-1.4732825,-0.5801527,-2.3740458,-9.5983057,1.0582317,6.5050125,8.9923668,48.9541969,7.6183205
6760,2.2122312,0.9193687,9.7347746,-1.4274809,-0.1755725,-2.9007633,-12.2343082,0.7541697,6.3876977,4.2137403,55.7404594,7.3206105
6770,2.1858950,0.8379663,9.8688488,-0.8167939,0.3816794,-3.2442749,-18.3179436,1.5658000,7.5847921,-13.6946564,41.0687027,32.5877876
6780,2.1451938,0.7709290,9.8832140,-0.2213740,-0.0687023,-3.7633588,-19.6131992,2.1020982,8.8058290,-20.3664131,14.1374044,64.5343475
6790,2.0685797,0.8307837,9.9598284,0.3511450,-0.5419847,-3.6106870,-19.6131992,2.1619530,9.7778702,-20.0839691,-19.6030540,105.8396912
6800,2.0087249,0.8547257,9.8496952,1.3206106,-1.0610687,-3.2900763,-19.6131992,1.5490406,9.9813757,-11.0076332,-52.7099228,149.8625946
6810,2.0374553,0.8547257,9.7299862,2.1374047,-1.2061069,-2.6870229,-18.3634338,0.3327923,9.5863342,3.5114503,-68.3435135,190.3511505
6820,1.9919657,0.9672526,9.7108326,1.6564885,-0.9923664,-2.5877862,-16.0099449,-0.2370248,9.0955257,18.1832066,-51.0916023,219.6793823
6830,1.9919657,1.0342898,9.5983057,1.7404580,-1.0534351,-1.9847329,-13.9581242,-0.2705434,8.5664101,30.0534344,-15.1526718,243.0610657
6840,1.9895715,1.1061156,9.6653433,1.0534351,-1.4656489,-1.3511450,-12.4809093,-0.0071826,8.3413563,38.9160309,24.8549614,250.1297760
6850,2.1188576,1.0702027,9.5983057,0.6183206,-2.0229008,-0.4809160,-11.5256281,0.4094064,8.1474266,44.9694672,58.1908379,250.1297760
6860,2.0590029,1.0486550,9.6437950,-0.2671756,-0.6946565,0.0458015,-10.9749641,0.7589580,8.0133524,49.1755714,83.5496216,250.1297760
6870,2.1260402,0.9289455,9.6821022,-2.4809160,0.5572519,0.5267175,-9.9981356,0.8523315,7.9439206,55.7862587,96.4274826,250.1297760
6880,1.9680238,0.9433106,9.7635050,-2.7633588,0.2290076,1.2595420,-9.4546537,0.8499373,7.9894104,61.1908379,88.5190811,250.1297760
6890,2.0949159,0.8786675,9.9717989,-2.7251909,0.6641222,1.8854961,-3.6798692,0.6224893,4.7524662,65.0916061,42.6259537,250.1297760
6900,2.0278785,1.0055596,9.9430685,-1.6946565,1.0916030,1.9541985,-1.6376256,0.7182568,4.7261300,62.0839691,52.8702278,250.1297760
6910,1.9656296,1.0725969,10.0220766,-0.4122137,1.1526718,2.0687022,0.1843526,0.9026094,4.9942794,61.9389305,70.3358765,250.1297760
6920,1.9009864,1.1109039,9.9885588,0.6641222,1.2061069,2.4427481,1.5705882,1.2473727,5.1666608,65.8854980,86.1908417,250.1297760
6930,1.9991482,1.2018831,9.9239149,1.7786260,1.0916030,2.5496182,2.6623387,1.5753766,5.1211715,71.8702316,99.8625946,250.1297760
6940,1.8650736,1.2569494,9.7850523,2.4732823,0.4885496,2.7175572,3.5146701,2.1978660,4.7213416,76.0457993,110.8396912,250.1297760
6950,1.9273225,1.2330076,9.5408449,2.0763359,-0.1755725,2.6564887,3.7229645,2.6862805,3.8953462,76.2213745,110.4503784,248.5648804
6960,1.9776005,1.1252691,9.5480280,1.0687023,-0.0992366,2.0839694,3.9887197,3.2537034,2.9616125,69.3664093,108.3664093,232.5648804
6970,1.9321109,1.0558375,9.5528164,-0.4885496,0.1755725,1.8320611,3.8690102,3.6583214,1.9704180,57.0076332,99.1145020,220.0229034
6980,1.9488702,0.9744351,9.6605549,-1.2442749,0.6183206,1.8625954,3.9791429,3.8283088,1.3694763,40.1068687,92.0839691,209.8091583
6990,1.9297167,0.8762733,9.8281479,-0.8702290,0.7251908,2.2595420,4.2233500,3.6343796,0.6057299,21.4732819,88.5801544,201.9847260
7000,2.0230901,0.8690908,9.9981356,0.3053435,0.2824427,3.0076337,4.4675574,3.4093258,0.2442073,3.0992367,82.8625946,192.4274750
7010,2.1427996,0.9648584,9.8616667,2.8320611,-1.8091604,3.2366412,6.5888095,2.7844424,0.9816177,-24.4580154,65.9923630,159.4427490
7020,2.1164634,1.0941446,9.6964674,3.1450381,-2.2366412,3.0687022,8.6023226,3.1196289,2.0518203,-31.3664131,48.4274826,128.2137451
7030,2.1763182,1.1180865,9.5264797,2.4809160,-2.4809160,2.2671757,10.4961262,3.9001346,3.1627243,-35.9312973,23.9389305,86.7557220
7040,2.1954718,1.2521610,9.4546537,0.7938932,-2.1297710,1.5114504,12.1026278,4.5992379,3.9815371,-38.8396950,-6.0305343,38.8244286
7050,2.2050486,1.2713146,9.4714136,-0.6564885,-1.9465649,0.5267175,15.5550489,5.8944945,4.3622131,-36.3816795,-39.7862587,-21.1450386
7060,2.2529323,1.2018831,9.4666252,-2.1908398,-0.9770992,-0.4503817,17.9564209,6.5241661,3.7205703,-36.6946564,-67.8015289,-92.7557220
7070,2.3798244,1.1276633,9.5671806,-3.3511450,0.4122137,-1.3816794,19.6126022,6.2081332,3.1172347,-42.5038185,-86.0305328,-173.8854980
7080,2.3103929,1.0223188,9.7611103,-3.9923663,1.5114504,-2.0458016,19.6126022,5.3174949,2.8634505,-50.6564903,-100.2595444,-250.1374054
7090,2.3223639,0.8762733,9.9023676,-3.3587787,1.6564885,-2.5267177,19.6126022,3.3327117,2.7844424,-60.5343513,-109.8702316,-250.1374054
7100,2.3199697,0.7445929,10.0268650,-1.6793894,1.3740458,-2.9236641,18.9643745,-0.4381367,3.1986370,-71.1297684,-113.8931274,-250.1374054
7110,2.1499822,0.6488253,10.0053177,-0.1984733,0.7709923,-2.7480917,16.7856617,-3.9575951,3.9791429,-80.1297684,-121.9465637,-250.1374054
7120,2.1451938,0.6655847,9.9646168,0.6870229,0.3511450,-2.4503818,12.5407648,-7.5488791,4.4172797,-88.1221390,-127.4198456,-250.1374054
7130,2.1667414,0.6871324,9.7994175,1.4198474,0.6870229,-2.0687022,7.5249376,-11.1066446,5.0565281,-96.0229034,-123.3435135,-250.1374054
7140,2.0494261,0.8068419,9.7898407,1.9160305,1.0229008,-1.6030535,2.8610563,-14.5758257,5.6502872,-101.1603088,-107.2366409,-250.1374054
7150,2.0733681,0.8283895,9.6222477,1.6259542,0.9083970,-0.9389313,-2.0997043,-18.3418846,6.0692701,-97.6488571,-75.3664093,-250.1374054
7160,2.0949159,0.9935886,9.6581602,1.3511450,0.3053435,-1.0839695,-10.1130562,-19.6131992,7.2041159,-85.5038147,-60.7251892,-250.1374054
7170,2.0518203,1.1492109,9.5671806,0.7709923,-0.2137405,-0.6564885,-19.6131992,-19.6131992,8.9446917,-72.3206100,-98.2519073,-250.1374054
7180,2.0063307,1.2593436,9.5599985,0.2748092,-0.2595420,-0.4427481,-19.6131992,-15.9812145,12.4354200,-70.1832047,-192.3206177,-250.1374054
7190,2.0015423,1.2976507,9.5887289,-0.2748092,-0.5114504,-0.2442748,-19.6131992,-6.2679882,18.1240139,-80.0000000,-250.1374054,-250.1374054
7200,1.9871773,1.2976507,9.5791521,-0.9770992,-0.0534351,0.3435115,-19.6131992,-0.9026094,19.6126022,-64.2900772,-250.1374054,-250.1374054
7210,1.9392935,1.3048333,9.4762020,-2.1526718,0.7099237,0.9236641,-19.6131992,-1.3790531,19.6126022,0.2442748,-250.1374054,-127.1908417
7220,1.9225341,1.3311694,9.5863342,-3.2290077,1.3435115,0.8473282,-19.6131992,-2.4324965,17.6308117,81.9236679,-113.0076370,23.6946564
7230,1.8674678,1.2258250,9.5599985,-3.6946564,1.2824427,0.9770992,-19.6131992,-2.8155668,11.2718439,134.5496216,93.8854980,126.8091583
7240,1.8842272,1.1061156,9.6988611,-4.0916033,0.9770992,0.9618320,-12.7801828,-1.3072275,6.2608056,138.1145020,250.1297760,182.4580078
7250,1.9225341,1.0103480,9.8042059,-3.9465649,0.6488550,1.0305344,-8.6573887,0.7541697,4.0246325,104.7480927,250.1297760,188.4351196
7260,1.8890154,0.8834559,10.0508070,-3.1603053,0.0610687,1.1068702,-8.0037756,2.0087249,4.6064205,62.9465637,250.1297760,159.2137451
7270,1.9704180,0.8188128,10.0747490,-1.9541985,-0.2213740,1.2671756,-7.9606800,2.3678534,5.8346395,32.5038185,193.8702240,115.3358765
7280,1.9704180,0.8786675,10.1322098,0.0000000,-0.9083970,1.5114504,-7.1179252,2.9951310,6.2296810,14.2366409,57.5801544,67.5343475
7290,2.0254843,0.8906385,9.9789820,1.6030535,-1.4732825,1.8778626,-5.6909885,3.5673423,5.9998388,1.9770992,-52.2977104,25.4351139
7300,2.1475880,0.9864060,9.6294298,1.9312977,-1.4961832,1.9770992,-4.3406653,3.3638363,5.6215568,-8.5648851,-134.3969421,-31.3740463
7310,2.1499822,1.0342898,9.5959110,1.1679389,-0.9236641,1.9160305,-4.4579806,3.1890604,5.8106980,-4.6335878,-130.0610657,-46.2519073
7320,2.2816625,1.1300575,9.5839405,-0.0152672,-0.3587786,1.3893130,-4.9894910,3.0956869,5.6502872,2.1832061,-107.6564865,-53.8396950
7330,2.2529323,1.0749911,9.6006994,-0.6488550,0.1755725,0.8702290,-5.7149301,2.9831600,5.4611464,8.8625956,-72.4427490,-52.4427490
7340,2.2242019,1.0582317,9.7371683,-1.3435115,1.1297710,-0.0763359,-6.9144192,2.8035958,4.9511838,21.0687027,7.1068702,-32.9236641
7350,1.9967541,1.0630201,9.7706871,-1.2366412,0.9694657,-0.6030535,-7.0317345,2.1451938,4.1299767,20.0305347,65.5572510,-8.6412210
7360,1.9105632,1.0199248,9.7156210,-1.5877863,0.8396947,-0.4732825,-7.0724359,1.8124014,4.1658897,15.2366409,66.9923630,-7.7709923
7370,1.8602852,1.0079538,9.7467451,-1.8931298,0.7786260,0.0610687,-7.2831244,1.5993185,4.2736282,10.7938929,59.9312973,-10.6870232
7380,1.8674678,1.0295014,9.8473015,-1.7328244,0.6259542,0.4732825,-7.6230993,1.4365137,4.4603748,6.8854961,44.0458031,-13.2824430
7390,1.8746504,0.9792235,9.7563219,-1.2900764,0.2519084,1.1374046,-7.7523856,1.4413021,4.6112089,3.7022901,25.8244267,-16.9389305
7400,1.9847831,0.9433106,9.8664551,-0.9923664,-0.2977099,1.4274809,-7.6709828,1.3598996,4.9392128,0.4274809,8.5877867,-22.0076332
7410,2.1404054,1.0055596,9.8089943,-0.2061069,-1.5877863,0.3511450,-7.5464849,1.4796091,6.4379754,-8.8931293,-29.1984730,-50.7786255
7420,2.1643472,0.9864060,9.7036495,-0.3893130,-2.0916030,0.1832061,-9.0907373,1.0438666,6.7923155,-10.0534353,-29.7709923,-58.3053436
7430,2.2768741,0.9648584,9.7539282,-0.5496183,-1.3740458,0.0076336,-10.0316534,0.5315101,7.0030041,-12.4122133,-33.9160309,-61.4045792
7440,2.2864509,0.9720409,9.5743637,-1.2442749,-0.5648855,-0.5419847,-11.4178896,-0.0909792,7.3262196,-16.2442741,-35.3511467,-63.0458031
7450,2.3726418,0.9409165,9.5767574,-2.4580152,0.2595420,-1.7480916,-13.5846310,-0.2322364,8.2240410,-19.7480907,-40.6183205,-60.3358765
7460,2.2744799,0.9121862,9.6198530,-3.5343511,0.5267175,-2.3282442,-15.9381189,0.0023942,8.9470863,-20.7862587,-53.6335869,-49.0839691
7470,2.1858950,0.9050036,9.6222477,-4.2595420,0.9465649,-2.7709923,-17.6882725,0.3806761,9.9047613,-17.2977104,-67.1984711,-26.4580154
7480,2.1858950,0.8499373,9.8161764,-4.6946564,1.3206106,-3.1145039,-17.7912216,0.4668669,10.3165627,-9.3816795,-71.7099228,4.6183205
7490,2.0661855,0.9552816,9.9382801,-4.5572519,1.8167939,-2.6946564,-17.0178986,0.6607963,10.5392218,3.3435113,-64.2290039,37.6259537
7500,2.0446377,0.8451489,9.9550400,-3.6717558,1.8167939,-2.2061069,-16.1631737,0.8379663,10.1753054,19.4427490,-49.2748108,67.7786255
7510,1.9057748,0.9696468,9.9334917,-2.1603053,1.2061069,-1.5801526,-15.6891232,0.9792235,9.4450769,34.4122124,-35.3206100,94.9312973
7520,1.7070571,0.9672526,9.9406748,-0.9618320,0.3435115,-0.6030535,-15.1169119,1.1061156,8.4874020,43.8244286,-18.8396950,122.3511429
7530,2.5569944,1.0199248,9.4905672,-1.5343511,-0.9160305,4.3282442,-7.7116842,-0.2585725,5.7963328,72.2290039,67.8244247,250.1297760
7540,2.5426292,0.8858501,9.4618368,-2.9312978,-0.7862595,2.2442749,-6.3110833,-0.1604107,4.8578105,74.3664093,68.1145020,250.1297760
7550,2.5426292,0.7709290,9.4067707,-4.7709923,-1.0839695,0.6412213,-4.5298066,-0.1388630,4.1419477,72.7022934,73.8244247,250.1297760
7560,2.5569944,0.6153067,9.6222477,-5.5419846,-0.9694657,-0.8931298,-2.9161227,0.0957676,3.6295912,66.6717529,85.9083939,250.1297760
7570,2.5761478,0.4189832,9.7682934,-5.6183205,0.9465649,-1.4427481,-1.7645177,0.3471575,3.3782012,59.7633591,101.9007645,250.1297760
7580,2.3894010,0.4644727,10.1322098,-4.7328243,3.4274809,-1.5954199,-0.4501076,0.5410868,3.3758070,54.6335869,116.9847336,250.1297760
7590,2.2601149,0.4620786,10.3644457,-2.5038168,4.6717558,-1.2900764,0.5195391,0.6799498,3.4452386,51.6488533,128.6183167,250.1297760
7600,1.5346755,1.5274929,9.1242561,0.6641222,-2.5267177,1.6259542,12.5838594,2.2098370,-0.5722113,-14.1984730,-36.3740463,160.8625946
7610,1.7333932,1.5131277,9.2942438,-1.7022901,-2.3282442,2.0534351,14.6069498,3.0693510,-2.2194135,-41.2748108,-75.0992355,106.7786255
7620,2.0661855,1.3527170,9.4953556,-3.5114503,-2.6946564,1.3511450,17.5541973,3.9599893,-3.1004753,-73.8778610,-94.1679382,47.5419846
7630,2.2098370,1.0678085,9.6581602,-4.9083967,-2.9694657,1.0992366,19.6126022,4.6950054,-3.0238612,-106.9236679,-75.4580154,-21.1832066
7640,2.2601149,0.8403605,9.8089943,-4.9389315,-2.7786260,1.0381680,19.6126022,4.8865409,-1.9584470,-133.6946564,-32.5190849,-102.7022934
7650,2.4660151,0.7182568,9.9095497,-4.2595420,-3.8549619,-0.3206107,19.6126022,4.9176650,-0.6560079,-152.8931274,9.8625956,-194.3969421
7660,2.5522060,0.5865764,9.9526453,-3.1679389,-4.6259542,-1.5038168,19.6126022,4.0701222,1.1444225,-167.2290039,34.4198456,-250.1374054
7670,2.5689652,0.4812321,9.8257532,-2.2061069,-4.4427481,-1.7862595,19.6126022,1.5658000,2.7341642,-178.6030579,30.6183205,-250.1374054
7680,2.5593886,0.4094064,9.8880024,-1.7328244,-2.6717558,-2.3358779,17.3889980,-2.1643472,4.4316444,-189.1526642,2.3893130,-250.1374054
7690,2.6048782,0.4237715,9.8544836,-1.9160305,-0.2290076,-1.9541985,14.7865143,-5.9854736,6.3230543,-199.0076294,-36.7786255,-250.1374054
7700,2.4348907,0.4405309,9.8808203,-1.6564885,2.3664122,-1.2061069,11.8488436,-10.4338779,8.6262646,-205.2519073,-73.9618301,-250.1374054
7710,2.3750360,0.5722113,9.8903971,-1.0992366,4.1374044,-0.6717557,8.1450329,-14.7482071,10.6732969,-202.8091583,-99.6106873,-250.1374054
7720,2.1667414,0.7613522,9.8760319,-0.3969466,4.3511453,-0.7633588,2.7557120,-19.0601425,12.1193867,-188.6106873,-123.3587799,-250.1374054
7730,2.1020982,0.8164186,9.8688488,0.3511450,3.9236641,-0.8320611,-3.3925664,-19.6131992,12.6221666,-172.2137451,-159.4503784,-250.1374054
7740,2.0039365,0.9576758,9.8544836,1.5801526,2.1984732,-0.2213740,-10.8504667,-19.6131992,12.9669304,-166.5877838,-185.4503784,-250.1374054
7750,1.9536586,1.1492109,9.7730818,2.1908398,1.3053435,0.6335878,-19.6131992,-19.6131992,15.0115681,-167.8091583,-147.2213745,-250.1374054
7760,1.9608412,1.2210367,9.7036495,2.0229008,1.5419847,0.7938932,-19.6131992,-19.6131992,19.6126022,-147.9084015,-102.5419846,-250.1374054
7770,1.8938038,1.3048333,9.5240860,1.2748091,1.8854961,1.2290076,-19.6131992,-13.0746689,19.6126022,-88.4961853,-124.0381699,-250.1374054
7780,1.8746504,1.3598996,9.4666252,0.0610687,1.6183206,1.8931298,-19.6131992,-6.4236102,19.6126022,-6.3511453,-155.1603088,-250.1374054
7790,1.9033806,1.3431402,9.4283180,-0.8778626,0.9083970,1.5725191,-19.6131992,-3.7876077,19.6126022,76.1603088,-130.7633514,-140.5801544
7800,1.9871773,1.2689204,9.5959110,-1.6106870,0.2061069,0.9007633,-19.6131992,-3.2321558,17.6978493,134.8091583,-31.6793900,36.0534363
7810,1.9991482,1.2593436,9.5599985,-2.3664122,-0.1755725,0.6106870,-19.6131992,-3.3710186,11.3556404,152.9389343,114.3587799,167.1374054
7820,1.9967541,1.1300575,9.6437950,-3.1832061,-0.1679389,0.2977099,-12.7801828,-1.6759326,7.4028339,134.0076294,250.1297760,237.6717529
7830,2.0613971,1.0702027,9.6294298,-3.9160306,0.1755725,-0.0305344,-5.9519548,0.3184272,6.0501165,91.0229034,250.1297760,238.5190887
7840,2.0398495,0.9792235,9.7060442,-4.3664122,0.3587786,-0.0458015,-3.9839313,0.9289455,6.9790621,53.8320618,250.1297760,191.4274750
7850,2.1356170,0.9337339,9.9406748,-3.7938931,0.6259542,-0.1984733,-3.7732425,2.4779861,8.2551651,24.6793900,34.1908379,60.7251892
7860,2.1404054,0.8259954,9.9885588,-2.9160306,0.4656489,0.1832061,-3.5673423,3.1699069,7.6350703,20.3740463,-61.4809151,8.5038166
7870,2.0422437,0.8978211,10.0340481,-1.6870229,0.2442748,0.1832061,-3.7540891,3.4524212,6.9790621,14.1374044,-114.7786255,-27.3969460
7880,2.0542145,0.8666966,9.9263096,-0.0610687,-0.3129771,0.4274809,-4.1108232,3.3949606,6.9359670,13.5877867,-132.7633514,-46.5801544
7890,2.0206959,0.9145803,9.8736372,1.1832061,-0.9770992,0.8702290,-4.0366035,3.0214672,6.8689294,20.7251911,-120.1221390,-57.3969460
7900,2.0949159,0.9576758,9.6390066,1.8396946,-1.7328244,2.6412213,-7.4339581,2.3726418,5.3486195,45.6412201,74.7938919,-23.4732819
7910,2.2170193,1.0342898,9.6054878,1.5496184,-1.5343511,2.6106870,-8.0109577,2.1787124,5.1115947,45.9083977,91.0381699,-8.8854961
7920,2.2696917,1.0749911,9.5480280,0.5496183,-1.1526718,1.9618320,-8.0468712,2.0015423,4.8625989,43.2061081,89.6412201,0.4122137
7930,2.3702476,1.0917504,9.5983057,-0.1221374,-0.8702290,1.1221374,-7.7260494,1.9081690,4.6064205,37.5648842,80.7404556,6.1679387
7940,2.2840567,1.0247130,9.5264797,-0.7480916,-0.4274809,-0.0763359,-7.2136927,1.6591733,4.5585365,29.6030540,71.6870193,8.1603050
7950,2.3558824,1.0486550,9.5935173,-1.4274809,0.1832061,-0.7480916,-6.8473821,1.6136837,4.4364328,20.2366409,64.8244247,6.8778625
7960,2.2960277,0.9600700,9.6102762,-2.1068702,1.0763359,-1.1526718,-6.7444315,1.5681942,4.6016321,10.5190840,54.6183205,3.4122138
7970,2.2936335,0.9169745,9.6916790,-2.4809160,1.9923664,-1.9160305,-6.7540083,1.5897418,5.2193332,1.2366412,42.0610695,-1.1450381
7980,2.2313845,0.9193687,9.7635050,-2.9923663,1.9160305,-2.7328243,-6.6390872,1.5418580,5.7053533,-5.9007635,26.4427490,-7.6259542
7990,2.0063307,0.8547257,9.9670105,-1.7404580,1.7633588,-3.5572519,-6.4571290,1.4293311,6.7180958,-12.6488552,-3.9160306,-24.5648861
8000,1.9321109,0.7876883,9.9741936,-0.5419847,0.9770992,-3.1526718,-6.5074067,1.4101776,7.0963774,-12.4274807,-10.6259546,-30.2900772
8010,1.8315549,0.8738791,10.0388365,0.8244275,0.3129771,-2.3816793,-6.5169835,1.2330076,7.3980455,-11.0152674,-9.6717558,-36.3587799
8020,1.8243724,0.8882443,9.9885588,2.4885497,-0.3664122,-1.0152671,-6.7611909,1.0869620,7.6925306,-10.1603050,-3.4122138,-42.8320618
8030,1.8818330,1.0366840,9.9334917,3.7862597,-0.9694657,0.0152672,-7.3381906,0.9840119,8.0923605,-8.8473282,1.6259542,-48.5725174
8040,1.8100072,1.1516051,9.7611103,4.3435116,-1.6412214,0.6793893,-7.9487090,0.9768293,8.6190825,-5.1221375,4.8702292,-53.7480927
8050,1.8339491,1.2018831,9.5911226,4.1908398,-2.1145039,1.2671756,-8.8225880,0.8403605,9.0260944,1.2137405,9.8015270,-56.7099228
8060,1.9345051,1.3239868,9.5336628,3.8244274,-2.6641221,1.3358779,-10.5775290,0.8834559,9.5288744,10.1984730,8.9083967,-59.5343513
8070,2.3103929,1.0845678,9.5192976,-1.7251909,-1.0916030,0.7557252,-18.2724533,1.5394639,8.8321648,51.2213745,-15.2748089,-15.0839691
8080,2.3750360,1.0127422,9.5025377,-2.6259542,-0.5038168,0.2061069,-19.2588596,1.7405758,8.3868456,56.5343513,-13.6641226,14.4961834
8090,2.3510940,0.6967092,9.7204094,-5.8931298,2.1450381,-1.9770992,-19.4527893,2.3654592,6.3805151,46.6488533,64.3282471,177.4885559
8100,2.2864509,0.7038917,9.9095497,-5.2519083,2.8473282,-2.2137403,-19.0385952,1.9464760,6.6366930,38.0228996,93.1068726,220.0610657
8110,2.1116750,0.7134684,9.9813757,-4.3053436,2.9847329,-1.6870229,-18.9571915,1.5418580,7.3453732,31.0458012,107.4732819,250.1297760
8120,2.0039365,0.7230452,10.0340481,-3.3587787,2.7786260,-1.2366412,-18.3993454,0.8666966,7.7882981,29.8320618,97.3511429,250.1297760
8130,1.9249283,0.8714849,9.9813757,-1.9236641,1.9465649,-0.5190840,-17.0346584,0.1843526,7.8170285,32.5267181,82.2748108,250.1297760
8140,1.7333932,1.0031654,10.0771437,-0.2061069,0.7557252,0.2213740,-15.0857878,-0.3280039,7.5393028,36.0000000,69.9312973,250.1297760
8150,1.6998745,1.0271072,9.9263096,1.2213740,-0.2061069,1.1679389,-13.4385853,-0.6895266,7.1322904,40.4198456,58.8015251,250.1297760
8160,1.5849534,1.1875180,9.9909525,2.3740458,-1.1145039,2.6412213,-11.6956158,-0.9145803,6.8042865,44.6259537,52.0381660,250.1297760
8170,1.6495966,1.3646880,9.8592720,3.3664122,-1.0229008,4.3664122,-10.1154509,-1.1420283,6.3900914,49.3969460,49.0305328,250.1297760
8180,2.3127871,1.1348459,9.1817169,-5.3206105,-2.8549619,2.2519083,-1.8028246,-1.2042773,3.4308734,38.1984749,120.5114517,250.1297760
8190,2.4037662,0.9313397,9.4642305,-7.2977099,-4.9465647,-0.4503817,-0.0430954,-1.3503228,4.0964580,30.7022896,135.9541931,250.1297760
8200,2.5617826,0.6153067,9.7587166,-7.9389315,-7.3587785,-3.2595420,1.5490406,-1.1132981,4.8889351,28.0687027,146.0458069,250.1297760
8210,2.6096666,0.4836263,10.0125008,-6.3435116,-8.1908398,-5.0992365,2.4468615,-0.9337339,5.2935529,29.7786255,149.6030579,250.1297760
8220,2.5402350,0.4237715,10.2160063,-4.6183205,-7.5419846,-5.2137403,3.2034254,-0.9457048,5.2504573,33.0458031,144.8625946,250.1297760
8230,2.5498118,0.4046180,10.4338779,-2.0381680,-6.5190840,-5.3206105,3.9695661,-0.9313397,4.7141590,34.0000000,130.9465637,250.1297760
8240,2.4061604,0.6177009,10.3405046,1.0839695,-5.7480917,-5.1068702,4.7165532,-1.1779412,4.0749106,29.9694653,115.3664093,250.1297760
8250,2.0278785,0.9959828,9.6533718,3.7099237,-4.0152674,-4.9007635,6.1889796,-1.6902977,3.2058196,6.8167939,50.3053436,250.1297760
8260,1.9536586,1.4628497,9.4570484,0.2366412,0.9923664,-1.9312977,11.2191715,-1.7525467,2.9017577,-12.5343513,-110.9389343,164.8778687
8270,2.0470319,1.4796091,9.7539282,0.5190840,-3.1603053,-3.2366412,12.9501705,-0.3184272,2.1858950,-15.5725193,-130.7786255,122.0839691
8280,1.8722562,1.5203103,9.5599985,0.5496183,-2.0381680,-4.5114503,14.3124647,1.1013272,1.8578910,-20.2213745,-112.6717529,85.3053436
8290,1.9728121,1.4173602,9.4522600,-0.8931298,1.0839695,-4.0610685,15.7753143,2.5138988,1.8722562,-26.3664131,-66.6183243,47.6870232
8300,1.6065011,1.1659702,9.0069408,-8.1068707,10.5877867,-1.2290076,18.6890430,3.1076579,3.7349355,-25.9160309,41.8702278,-46.1450386
8310,1.9392935,0.8475431,9.1649570,-11.3969469,14.9160309,2.1526718,19.2708302,3.1794837,4.6734576,-18.5725193,67.8320618,-113.3358765
8320,2.1284344,0.6560079,9.7970228,-12.3053436,12.8396950,3.2442749,19.5844688,3.2465210,5.1546898,-8.5954199,76.8244247,-191.9465637
8330,2.4277081,0.4333483,10.0891142,-8.9618320,6.7557254,1.6717557,18.0904961,2.2170193,6.0381460,11.5877867,43.8778610,-250.1374054
8340,2.5761478,0.3615226,10.2112179,-6.5496182,2.7633588,0.1374046,17.6786957,0.2585725,6.2057390,22.3435116,16.7328243,-250.1374054
8350,2.5929072,0.3471575,10.2327662,-4.4809160,0.0839695,-1.1450381,16.2589397,-2.8419030,6.1458845,33.1832047,0.3435115,-250.1374054
8360,2.4923513,0.4141948,10.3261395,-1.3053435,-1.9770992,-1.4122137,13.1105814,-6.6989422,6.1195483,44.6717567,-14.5572519,-250.1374054
8370,2.2936335,0.5913648,10.2016411,1.8778626,-3.8167939,-0.6488550,7.7547798,-11.1904411,5.7867560,56.3511467,-38.3053436,-250.1374054
8380,2.2265961,0.6823440,10.0819321,3.7862597,-4.3511453,-0.1984733,0.0598547,-14.9445305,4.7285242,66.5725174,-82.1221390,-250.1374054
8390,1.9632354,0.9816177,10.0819321,5.5267177,-5.5572519,-0.2824427,-9.0596132,-17.2812595,2.2912393,64.9007645,-159.1145020,-250.1374054
8400,1.8866212,1.1539993,9.7228031,6.6946564,-5.6412215,0.2900763,-19.6131992,-17.5709572,-1.5322813,35.3053436,-250.1374054,-250.1374054
8410,1.6304430,1.3120158,9.5767574,6.2137403,-6.1526718,1.0076336,-19.6131992,-15.0019913,-4.5920553,-36.4580154,-250.1374054,-250.1374054
8420,1.6112895,1.3622938,9.5001440,5.2213740,-7.0534353,2.0229008,-19.6131992,-11.1018562,-4.2688398,-137.4274750,-250.1374054,-250.1374054
8430,1.5897418,1.3120158,9.4259243,3.9160306,-6.7557254,2.7099237,-19.6131992,-6.2464404,2.1523764,-213.1221313,-197.4122162,-250.1374054
8440,1.7645177,1.3551112,9.4546537,2.0610688,-6.2671757,3.7404580,-19.6131992,0.3710994,12.7299051,-220.4732819,-2.0839694,-250.1374054
8450,1.8794388,1.1994889,9.5169029,0.7557252,-5.8702292,4.4885497,-19.6131992,2.7796540,19.6126022,-144.6412201,183.3664093,-65.3282471
8460,1.9943599,1.1372399,9.5599985,-0.2824427,-5.4961834,4.7862597,-19.6131992,1.0917504,19.6126022,-24.0992374,250.1297760,91.7633591
8470,2.2265961,1.0342898,9.6198530,-1.0916030,-4.7404580,4.4274807,-19.6131992,0.4525018,19.6126022,87.6030502,250.1297760,146.5648804
8480,2.4444675,0.9289455,9.5959110,-1.6870229,-3.2748091,3.6793892,-17.6020813,0.8619082,14.4728756,165.1908417,250.1297760,139.5190887
8490,2.5067163,0.8499373,9.7515335,-2.4809160,-2.2290077,2.7404580,-14.8631277,1.5586174,9.0548248,201.3435059,250.1297760,103.8702316
8500,2.5593886,0.7876883,9.6318245,-2.7099237,-2.0610688,1.4732825,-12.9789009,2.6527619,4.0102673,201.1832123,125.0687027,58.6183205
8510,2.6024840,0.7445929,9.7467451,-2.9083970,-1.5496184,0.3206107,-11.8560257,3.2656744,-0.0047884,174.5877838,-9.1374044,15.0458012
8520,2.5713594,0.6416427,9.8137827,-2.5343511,-0.9923664,-0.6870229,-10.7546988,4.2544746,-2.9304879,126.0839691,-99.1908417,-15.9083967
8530,2.5234756,0.7110743,9.9119444,-1.8320611,-0.5725191,-1.4885496,-10.1585455,5.0637107,-3.7947903,77.5343475,-149.3893127,-31.3358784
8540,2.4229198,0.7206510,10.0962973,-0.7557252,-0.2595420,-2.0000000,-9.4570484,5.4156566,-3.4189026,31.7862587,-177.5267181,-39.4961815
8550,2.2385671,0.7661406,10.1729107,0.9694657,-0.2366412,-2.3587787,-8.7076674,5.2217274,-2.2313845,-1.8091604,-197.3435059,-44.2595406
8560,2.0997043,0.9672526,9.9765873,2.7557251,-1.2824427,-2.0305343,-8.1115141,4.7764082,-0.9457048,-24.5572510,-210.1755676,-49.2595406
8570,1.9536586,0.9720409,9.9574337,4.1603055,-2.8244274,-1.1526718,-7.7452030,4.3670015,0.2154770,-37.4503822,-208.1679382,-50.1450386
8580,1.9081690,1.1300575,9.7802639,4.4122138,-3.0916030,-0.5572519,-7.6111283,3.9935081,1.0654143,-41.6870232,-184.2977142,-44.0687027
8590,1.9512644,1.1755470,9.6366129,4.0916033,-3.0839694,0.0763359,-7.7404146,3.8570392,1.9273225,-38.9465637,-129.9541931,-30.1755733
8600,2.1380112,1.2377959,9.4546537,1.4427481,-2.6641221,1.1221374,-8.2838955,3.9097114,3.4165084,-17.0992374,10.1832066,13.9083967
8610,2.1715298,1.1947005,9.5216913,0.7633588,-2.7251909,0.5648855,-7.9918046,3.5194585,3.5242469,-5.5343513,60.0992355,30.7709923
8620,2.3319404,1.0797794,9.5169029,-0.0458015,-2.6870229,0.5725191,-7.6111283,3.1723011,3.4308734,0.4198473,82.0000000,36.7404594
8630,2.3894010,0.9935886,9.5959110,-0.7557252,-2.2748091,0.0687023,-7.3190370,2.8658447,3.3039815,1.5114504,80.6564865,35.6106873
8640,2.3678534,0.7685348,9.6797075,-2.1374047,-0.7404580,-2.3358779,-6.3948798,2.3247581,3.6822634,-13.1145039,4.1832061,-14.4580154
8650,2.3127871,0.8307837,9.8760319,-2.2061069,0.0610687,-2.5038168,-6.7085190,2.3199697,4.0892754,-14.2977095,-12.8702288,-28.3358784
8660,2.1571648,0.8499373,9.8473015,-1.8931298,0.7480916,-2.0000000,-7.2160869,2.3654592,4.5848727,-13.6259546,-25.1603050,-38.3969460
8670,2.1020982,0.8666966,9.9526453,-0.7709923,0.2977099,-1.2900764,-7.8936424,2.5258698,4.8578105,-10.9847326,-37.7251892,-45.8854980
8680,2.0254843,0.9337339,10.0364418,0.8473282,-0.7099237,-0.1832061,-8.4945841,2.6072724,4.8745699,-7.6412215,-53.6335869,-51.4580154
8690,2.5929072,0.9241571,9.6940727,-4.9389315,-1.4580153,2.4732823,-10.4506369,2.2122312,5.6598639,-2.2519083,-17.2977104,-33.3129768
8700,2.6886747,0.8116302,9.9047613,-5.1374044,2.4809160,1.7404580,-11.4035244,2.0398495,5.6047974,-2.1832061,-23.5648861,-31.9389305
8710,2.3846128,0.6392486,10.0579901,-4.3282442,3.6030533,1.7328244,-12.7610302,2.0278785,5.7532372,-2.4732823,-26.5038166,-27.6717548
8720,2.2553265,0.6919208,10.0340481,-2.8549619,1.7175573,2.3664122,-14.7122946,2.0374553,5.7628140,-2.8854961,-23.7862587,-17.8244267
8730,2.1523764,0.8930327,9.6749191,-1.3282443,0.1068702,3.4503818,-19.3929348,2.2242019,5.7436604,-4.2213740,-9.9160309,26.1374054
8740,2.2074428,0.9792235,9.5743637,-2.6488550,0.6335878,3.6183207,-19.6131992,2.6120608,5.9016771,-5.6335878,3.3129771,64.9542007
8750,2.2864509,1.0151364,9.9143381,-0.9160305,0.0000000,4.4351144,-19.1080265,1.7070571,6.1817970,-12.0152674,55.7709923,250.1297760
8760,2.2002602,1.0271072,9.7228031,-0.5877863,-0.2213740,4.4809160,-17.4273052,1.0390782,6.3062949,-8.5801525,54.8091621,250.1297760
8770,2.1427996,0.9983770,9.8592720,0.3206107,-1.2213740,4.4885497,-7.5536675,1.4197544,4.0437860,0.7175573,30.9312973,250.1297760
8780,2.1164634,1.0845678,9.8257532,0.8702290,-2.3740458,4.7709923,-5.8106980,1.4029950,3.6990228,-1.4580153,29.7099228,250.1297760
8790,2.1260402,1.0654143,9.8449068,1.3435115,-3.3282442,5.2595420,-4.5657191,1.5705882,3.5050933,-3.8473282,37.6717567,250.1297760
8800,2.2194135,1.2066715,9.8473015,2.1297710,-4.4809160,5.3435116,-3.6271970,1.6160779,3.5386121,-5.8396945,48.4961815,250.1297760
8810,2.3199697,1.1396341,9.7515335,2.5725191,-3.3206108,4.7480917,-3.1579359,1.8171898,3.7181761,-7.9923663,57.3587799,250.1297760
8820,2.2577207,1.1994889,9.6366129,2.4503818,-2.0916030,4.5038166,-2.6168492,1.8842272,3.7612717,-9.3587790,64.3358765,250.1297760
8830,2.3582766,1.1875180,9.5336628,-0.5496183,-0.8396947,2.7404580,-0.8355721,1.7908537,4.7285242,-10.3740454,82.6564865,250.1297760
8840,2.5330524,0.9193687,9.7443514,-0.5877863,-3.2213740,-1.2137405,1.9249283,1.3144100,4.8530221,1.7938931,73.1145020,250.1297760
8850,2.5043221,0.8547257,9.6629486,-0.8015267,-3.2366412,-1.7251909,3.3255291,1.2018831,4.8147149,5.1221375,65.2748108,250.1297760
