timestamp,rxacclX,rxacclY,rxacclZ,rxgyroX,rxgyroY,rxgyroZ,txacclX,txacclY,txacclZ,txgyroX,txgyroY,txgyroZ
0,0.3471575,1.0055596,9.9023676,-0.6717557,-5.7099237,1.3587786,-4.6519103,2.9209111,8.9183559,2.4351146,-3.9236641,0.8854962
10,0.3088504,0.9337339,9.9215212,-0.2748092,-4.7175574,1.3129771,-4.5489597,2.9304879,8.9207497,2.9465649,-3.7022901,-0.0229008
20,0.3639168,0.9744351,9.9885588,0.3816794,-5.2137403,1.2671756,-4.6758518,2.8826041,8.7651272,3.4732823,-3.1832061,-1.0229008
30,0.3088504,1.0151364,9.9047613,0.1374046,-4.7480917,2.1068702,-4.5800843,2.8873925,8.7483683,3.7786260,-2.9847329,-2.2290077
40,0.4261657,0.9744351,9.8592720,0.0229008,-4.7404580,2.3282442,-4.6734576,3.0166788,8.7028790,3.8244274,-2.7938931,-2.4961832
50,0.4213773,1.0582317,9.8903971,0.0687023,-4.5801525,2.0152671,-4.7333126,3.0501974,8.6023226,2.7328243,-2.5190840,-2.4732823
60,0.4692611,0.9672526,9.9239149,0.1297710,-5.0458016,1.3587786,-4.8290801,3.0023136,8.4993725,1.5648855,-2.6564887,-2.0305343
70,0.4596844,1.0558375,9.8616667,0.2137405,-4.8625956,1.1450381,-4.8099265,3.1770895,8.7340031,0.9160305,-2.6717558,-2.5877862
80,0.4309541,1.0199248,9.9023676,-0.1526718,-4.1984735,1.0916030,-4.8195033,3.4189026,8.9135675,1.8702290,-2.2366412,-2.7557251
90,0.4548960,0.9935886,9.8113880,-0.5572519,-4.2595420,0.9160305,-5.3677726,3.6343796,8.5089493,3.6717558,0.5419847,-1.4274809
100,0.4165890,0.9480990,9.9478569,-0.2442748,-3.9541984,1.1145039,-6.0118098,2.0733681,7.0796180,-2.0076337,0.8778626,3.0305343
110,0.2920911,1.0223188,9.9095497,-0.8702290,-3.8473282,1.5572519,-4.3095412,3.1459649,8.0803890,-8.2595415,-11.6335878,3.4274809
120,0.4453192,1.0031654,9.8856087,-0.6259542,-4.1068702,1.2900764,-4.8051381,3.0454090,8.7387915,-9.1221371,-9.0763359,-1.0076336
130,0.3950413,1.0582317,9.8975792,-0.9007633,-7.6259542,1.9007634,-4.7237358,2.7628946,9.4163475,0.3816794,-4.3587785,-3.4961832
140,0.3950413,1.0271072,9.9047613,-0.9389313,-7.5267177,2.0916030,-4.7333126,2.8945751,9.0883436,2.3511450,-2.3053436,-3.4122138
150,0.3998296,1.0845678,9.9622221,-0.7251908,-8.0152674,2.1984732,-4.6686692,2.9137285,8.7603388,2.7099237,-1.6717557,-1.8931298
160,0.4764437,1.0175306,9.8496952,-0.2977099,-8.5343513,2.4045801,-4.6758518,2.8945751,8.6047173,1.9694656,-1.5038168,-1.9007634
170,0.4788379,1.0007712,9.8473015,-0.0076336,-8.4732828,2.6183207,-4.6614871,2.8466914,8.5400734,1.1297710,-1.4351145,-2.4198472
180,0.5027798,1.0271072,9.9023676,0.1145038,-8.4274807,2.8778627,-4.7524662,2.9927368,8.3652983,-0.4274809,-2.1145039,-2.7862597
190,0.5291159,0.9816177,9.9813757,0.0687023,-8.6564884,3.1832061,-4.9535780,3.0310438,8.2743187,-2.7404580,-2.5267177,-1.6412214
200,0.6368544,1.0175306,9.8856087,-0.1297710,-8.4809160,3.2519083,-5.0014620,2.9999194,8.3676920,-5.1221375,-3.2366412,0.1450382
210,0.6631905,1.0103480,9.8042059,-0.0381679,-8.0687027,3.0152671,-5.0230093,3.0765336,8.3293848,-7.3969464,-3.2290077,0.8091603
220,0.7134684,1.0845678,9.8880024,0.0000000,-7.7328243,2.7786260,-5.1259594,3.0334380,8.3868456,-9.7557249,-4.1374044,2.4122138
230,0.6655847,1.0318956,9.8856087,0.0763359,-7.1603055,2.7709923,-5.0756817,2.9113343,8.3892403,-11.7862597,-6.3893127,3.0152671
240,0.7493813,1.0749911,9.9095497,-0.0839695,-6.8320613,2.7099237,-4.9344244,2.8945751,8.4275465,-13.0000000,-8.3282442,4.1679387
250,0.7278336,1.0318956,9.9334917,-2.1908398,-6.8931298,2.3435113,-4.3047528,2.3415172,9.4738073,-25.5496178,-58.9694672,14.4045801
260,0.7805058,0.9768293,9.9287033,-2.1297710,-6.5877862,2.1145039,-3.9623835,2.2840567,9.3636751,-24.4809170,-53.4198456,13.5801525
270,0.7613522,0.9552816,9.9670105,-1.9236641,-6.4809160,2.3893130,-3.6918402,2.3343346,9.3780403,-22.7480907,-48.3435097,12.2366409
280,0.7948709,0.9959828,9.9574337,-1.3511450,-6.7786260,2.4656489,-3.3638363,2.3247581,9.4690189,-20.6183205,-41.3511467,11.9160309
290,0.7637464,0.9983770,9.9502516,-1.2977099,-7.2900763,2.7709923,-3.1986370,2.3558824,9.5456333,-18.2748089,-32.8931313,11.0763359
300,0.8906385,0.9265513,9.8975792,-2.3587787,-7.0229006,3.8091602,-3.3470769,2.4420733,9.9526453,-8.3053436,-6.5419846,3.6717558
310,0.8978211,0.9888002,9.8832140,-2.4961832,-6.7328243,4.1679387,-3.5122759,2.3558824,9.8712435,-6.7938933,-3.7633588,2.4885497
320,0.9361281,1.0271072,9.8305416,-3.2595420,-5.9618320,4.4809160,-3.6487448,2.4085546,10.0029240,-4.7709923,-0.8320611,2.2519083
330,1.0366840,0.9696468,9.8377247,-3.4809160,-4.1603055,4.2900763,-3.9671719,2.3870070,10.0148945,-2.4656489,-0.5190840,4.3664122
340,1.0438666,0.9935886,9.8808203,-3.1984732,-2.4045801,4.1908398,-3.9504125,2.3702476,9.9670105,-0.0610687,4.5725193,5.4045801
350,1.0965388,1.0127422,9.9885588,-2.4427481,-1.7786260,3.9618320,-3.9456241,2.4301023,9.7084379,1.4656489,7.8015265,6.3282442
360,1.0917504,1.0127422,9.9646168,-1.8015267,-1.0305344,3.3358779,-3.9360476,2.3199697,9.6509781,2.3969467,11.4961834,6.9694657
370,1.1132981,1.0438666,9.8640604,-1.5267175,-1.1297710,2.5954199,-3.8259149,2.1523764,9.5264797,1.4427481,15.0458012,6.3282442
380,1.0941446,0.9528874,9.9765873,-1.2519084,-0.7404580,1.9160305,-3.1339941,2.5713594,8.8896255,2.4045801,27.7786255,3.6564887
390,1.0558375,0.9457048,9.9167328,-1.0381680,-0.1068702,1.2824427,-3.7828193,2.5617826,8.9686337,0.3816794,30.7480907,-1.1526718
400,1.0678085,0.9528874,9.9095497,-1.0992366,-0.0610687,0.7557252,-4.0557570,2.6120608,8.5999289,-4.9694657,29.1068707,-3.5190840
410,0.9648584,0.9720409,9.7946291,-1.4961832,-0.5419847,0.5572519,-4.3717899,3.0861101,8.6382351,-18.8702297,16.0763359,-10.1145039
420,0.8236012,0.8930327,9.9550400,-1.9847329,-1.7938931,0.3053435,-5.2265158,2.8945751,8.7028790,-33.1908379,-6.3282442,-13.2824430
430,0.8212070,0.8834559,9.8856087,-2.1526718,-2.6793892,0.6488550,-5.3701668,2.7868366,8.7675219,-37.8854980,-15.3282442,-12.7175570
440,0.8020535,0.9026094,9.8401184,-2.0839694,-3.4503818,1.3969465,-5.5329719,2.7197993,8.8824425,-42.1908379,-20.7404575,-10.7938929
450,0.8283895,0.9600700,9.8473015,-2.4274809,-3.4351146,2.0229008,-5.7795734,2.5881188,8.9399033,-45.9541969,-20.2824421,-6.3435116
460,0.8619082,1.0031654,9.8784256,-1.6183206,-3.8931298,2.2977099,-6.6462698,2.0494261,9.8449068,-54.9160309,5.3969464,15.8931293
470,0.9816177,1.0390782,9.8975792,-1.0076336,-3.1679389,2.7557251,-7.2519999,1.5634058,10.7594872,-57.2595406,41.3740463,35.7633591
480,1.0510491,0.9864060,9.8760319,-0.8778626,-3.2824428,2.8854961,-8.0013809,1.2856797,12.2965574,-51.6641235,98.6106873,62.2213745
490,1.1899122,1.0390782,9.9191265,-0.4580153,-2.0916030,2.2366412,-9.7778702,0.8834559,14.4417505,-34.6717567,179.4198456,98.5190811
500,1.2018831,0.9792235,9.9119444,-0.7786260,-0.8549618,1.3435115,-10.4362717,1.7309990,16.8239689,-2.1832061,250.1297760,141.9389343
510,1.1563935,1.0223188,9.7850523,-0.9083970,-0.1221374,0.1297710,-12.9094696,0.1675933,18.7967815,37.6870232,250.1297760,187.2366486
520,1.0797794,1.0175306,9.8161764,-0.9847328,0.7786260,-0.6412213,-14.4225969,0.0909792,19.6126022,82.5419846,250.1297760,237.8015289
530,0.9672526,0.9097920,9.8999729,-1.3816794,0.6259542,-0.7709923,-12.1217813,-1.0295014,19.6126022,121.2977066,250.1297760,250.1297760
540,0.8834559,0.8595140,9.9550400,-1.4503816,0.3816794,-0.1603053,-9.7922344,-1.8339491,19.1511211,154.6183167,250.1297760,250.1297760
550,0.8978211,0.8523315,9.9023676,-1.5038168,0.4732825,0.7175573,-7.2903070,-1.5753766,17.4416695,191.0229034,250.1297760,250.1297760
560,0.8451489,0.8978211,9.9406748,-0.9694657,0.3206107,1.8091604,-5.3246775,-1.2090657,14.9612904,217.2213745,250.1297760,250.1297760
570,0.9504932,0.9121862,9.9382801,-0.7862595,0.5725191,2.2671757,-4.4795284,0.0167593,12.3564119,231.7862549,250.1297760,250.1297760
580,1.0342898,0.9073978,9.9023676,-0.4656489,0.9236641,2.3282442,-4.0629396,1.0510491,10.0675669,234.7709961,250.1297760,250.1297760
590,1.1252691,0.9289455,9.8616667,-0.3740458,1.4198474,2.0839694,-4.0198441,2.1595588,7.7811155,231.3282471,250.1297760,250.1297760
600,1.2138541,0.9672526,9.9119444,-0.4580153,1.7480916,1.3893130,-3.3877780,3.0980811,5.4324160,221.9389343,239.4809113,250.1297760
610,1.2090657,0.9840119,9.8113880,-0.3587786,2.2137403,0.4351145,-2.6000898,3.7181761,3.4045374,208.1832123,224.1297760,242.5954132
620,1.1180865,1.0247130,9.7706871,-0.6335878,1.9007634,-0.3511450,-2.0063307,4.2520804,1.7238164,191.0763397,229.3816833,230.8549652
630,1.0151364,1.0462608,9.8496952,-0.6870229,1.5877863,-1.1679389,-1.7238164,4.9918852,1.1635761,175.1603088,236.0763397,218.0915985
640,0.9600700,0.9528874,9.8377247,-1.0458015,1.3435115,-1.2137405,-1.6879035,5.6790175,0.7876883,162.7862549,228.4351196,205.5725250
650,0.8379663,0.9744351,9.9167328,-1.1221374,0.4274809,-1.0839695,-1.8028246,6.5385313,-0.0574605,149.2671814,207.5877838,191.9389343
660,0.7805058,0.9265513,9.9023676,-1.0152671,-0.4198473,-0.5801527,-1.6807210,6.9359670,-1.2282192,132.6717529,179.9160309,180.6564941
670,0.8068419,0.8906385,9.8975792,-1.1297710,-1.0076336,-0.0381679,-1.0917504,7.2855186,-2.2840567,112.9770966,150.9923706,167.8396912
680,0.7996593,0.9169745,10.0029240,-1.1526718,-1.7251909,0.7404580,-0.6775556,6.8976598,-3.2273674,90.9923630,120.8625946,155.4656525
690,1.0725969,0.9097920,9.9119444,-0.8931298,-1.9694656,1.0076336,2.0302727,9.3014259,-5.6335278,-4.9618320,65.6412201,70.7633591
700,1.0318956,0.9289455,9.9598284,-1.2595420,0.6259542,-0.0305344,3.9073172,8.9686337,-4.9176650,-116.6870193,-66.8167953,-54.7480927
710,1.0462608,0.9480990,9.9239149,-0.9618320,0.7862595,0.0381679,3.2920105,8.3676920,-4.0605454,-141.5725250,-83.0610657,-87.7786255
720,0.9576758,1.0055596,9.8520899,-0.9618320,0.9923664,-0.0381679,2.0805507,7.8912482,-2.7652888,-160.4503784,-88.9160309,-111.8396912
730,0.9840119,0.9720409,9.8975792,-0.8931298,0.9465649,0.1145038,0.7398046,7.3022780,-1.4197544,-174.0305328,-84.5419846,-128.5648804
740,0.8379663,0.9935886,9.9023676,-0.7786260,0.4961832,0.2977099,-1.0007712,6.9335728,0.6033357,-179.9236603,-66.2519073,-136.3664093
750,0.8738791,0.9504932,9.8353300,-0.6564885,0.2442748,0.7633588,-3.7229645,5.9711084,2.7054341,-174.9770966,-20.1526718,-130.7557220
760,0.8643024,0.8882443,9.8951855,-0.8091603,-0.1984733,1.4885496,-8.2503767,5.9711084,5.4491754,-157.3740387,74.7328262,-103.2366409
770,0.9576758,0.9097920,9.8712435,-1.1297710,0.2442748,2.0152671,-14.5016060,6.7994981,8.7675219,-120.5267181,202.6412201,-41.0534363
780,0.9744351,0.9193687,9.8161764,-0.9465649,0.4885496,2.5267177,-19.4503956,7.7763271,11.7411051,-63.7557259,250.1297760,46.0687027
790,1.0773853,0.8930327,9.8449068,-1.2137405,0.4885496,2.5114503,-19.6131992,7.3142486,13.4409800,4.0763359,250.1297760,141.1908417
800,1.1492109,0.9050036,9.9454632,-0.9923664,1.0381680,2.0610688,-19.6131992,6.2727766,12.7586355,69.2519073,250.1297760,218.6335907
810,1.1851238,0.9073978,9.9789820,-0.7938932,1.3969465,1.2519084,-15.2629576,5.7460546,9.9765873,118.1450348,250.1297760,250.1297760
820,1.1994889,0.9409165,9.8975792,-0.9389313,1.8473282,1.0000000,-10.5535870,5.2408805,6.7827387,144.6488495,250.1297760,250.1297760
830,1.1899122,0.9361281,9.8592720,-0.7022901,2.2137403,0.0152672,-6.6295104,5.0493455,3.7756367,145.5419922,250.1297760,250.1297760
840,1.0486550,0.9409165,9.9119444,-0.7022901,1.6030535,-1.0687023,-3.6463506,5.9184365,1.0773853,121.1832047,250.1297760,240.4427490
850,0.9193687,0.9193687,9.8808203,-0.9770992,0.8473282,-1.3358779,-2.4899571,7.0532823,-0.4572902,90.2213745,223.5190887,215.1603088
860,0.7924767,0.8690908,9.8808203,-1.1297710,0.5877863,-1.0839695,-1.5179161,7.9008250,-1.1420283,61.4885483,178.6183167,190.4198456
870,0.7876883,0.9050036,9.8903971,-1.0229008,-0.2137405,-0.4656489,-0.9121862,7.2615767,-1.6400198,36.6946564,130.3893127,168.7251892
880,0.9864060,0.8906385,9.8664551,-0.7251908,-2.1755726,2.1832061,3.4859397,8.6190825,-4.0773048,-36.0458031,31.6183205,134.3587799
890,1.0295014,0.8906385,9.8520899,-0.9007633,-2.5725191,1.8244275,5.0900469,8.6765423,-3.6607156,-43.9771004,30.8702297,127.2137375
900,1.1635761,0.8954269,9.8736372,-1.0000000,-2.0687022,1.4045801,7.3717093,8.3748751,-3.5673423,-48.6335869,17.9083977,109.8931274
910,1.1851238,0.9002152,9.8616667,-1.0992366,-0.5877863,0.0000000,11.9398232,8.2407999,-4.0892754,-66.9236679,-17.9160309,40.3129768
920,1.0965388,0.8882443,9.9622221,-0.9007633,-0.0687023,-0.5725191,13.4433737,8.0468712,-4.2736282,-82.3740463,-39.5190849,-9.3282442
930,1.0678085,0.9624642,9.9023676,-0.7328244,0.5877863,-1.1221374,13.9629126,7.8984308,-4.2401094,-102.3206100,-66.6946564,-64.7251892
940,0.9696468,0.8762733,9.9095497,-0.6946565,1.0076336,-1.3740458,13.2901459,7.8649125,-3.8737986,-126.4885483,-100.2900772,-121.0152664
950,0.9528874,0.9457048,9.9430685,-0.4503817,0.9923664,-1.1603054,11.3269100,7.5871863,-2.9520357,-151.5648804,-132.0992432,-172.0381622
960,0.8403605,0.9289455,9.8592720,-0.5954198,0.7251908,-0.8854962,8.7723103,7.1203194,-1.5610116,-172.1374054,-158.1450348,-211.1221313
970,0.8690908,0.9241571,9.8473015,-0.7862595,0.2519084,-0.0381679,5.8370337,6.3948798,-0.0407012,-185.7175598,-173.9084015,-239.0076294
980,0.8331779,0.9361281,9.8185711,-0.9694657,0.1908397,0.4809160,2.5162930,5.9854736,1.6232605,-192.6106873,-170.2213745,-250.1374054
990,0.8259954,0.8738791,9.9981356,-1.0076336,-0.1297710,1.3816794,-2.5689652,6.1841912,3.5481887,-188.6183167,-133.0763397,-246.0381622
1000,0.8978211,0.9337339,9.9023676,-0.9083970,-0.4961832,1.6717557,-9.6198530,7.0269461,5.6957769,-171.4427490,-75.3358765,-210.9923706
1010,0.9337339,0.8786675,9.8951855,-0.8778626,-0.1221374,2.2977099,-15.7441902,7.7715387,7.6183109,-142.5801544,-10.2824430,-143.5496216
1020,1.0366840,0.9768293,9.9191265,-0.8320611,-0.2900763,2.0916030,-19.6131992,8.1210909,9.2870607,-105.7709961,60.1297722,-52.1984749
1030,1.0534433,0.9409165,9.8616667,-0.5267175,-0.1450382,1.9541985,-19.6131992,8.1282730,10.6158361,-60.1832047,115.3969498,49.2824440
1040,1.0534433,0.9720409,9.9023676,-0.4656489,0.8320611,1.5038168,-19.6131992,7.2591825,10.6110477,-13.2061071,141.8778687,144.6183167
1050,1.0941446,0.9241571,9.8568783,-0.5190840,1.3969465,0.8778626,-17.8414993,6.2608056,9.3588867,21.2061062,157.7862549,208.1755676
1060,1.1444225,0.9576758,9.8832140,-0.3587786,1.9847329,0.1297710,-13.8743277,6.1219425,8.7124557,38.2824440,171.0763397,238.9236603
1070,1.0007712,0.9552816,9.8688488,-0.4503817,2.9236641,-0.1145038,-11.3676119,6.2105274,8.3748751,46.0305328,163.3053436,249.3282471
1080,1.1228749,0.9289455,9.8161764,-0.3740458,3.4809160,-0.3282443,-9.3517036,6.4355812,7.8050575,50.4656487,133.1221313,250.1297760
1090,1.0821736,1.1970947,9.7228031,-1.4580153,5.4198475,0.4580153,-7.6326761,6.5864153,6.8569584,52.2748108,98.9389343,249.7404633
1100,0.7637464,0.7757174,9.9646168,-2.3129771,1.6793894,-0.1068702,0.8619082,6.5600791,1.5945302,48.5114517,19.2748089,248.1450348
1110,0.7924767,0.8738791,9.8329363,-0.5496183,1.2442749,0.5343512,4.6519103,6.0261750,0.2896969,46.9007645,15.0076332,250.1297760
1120,0.8834559,0.7541697,9.9215212,-0.3969466,-1.7099236,0.7786260,10.5224628,5.7005649,-1.6184721,42.4198456,17.2824421,237.0305328
1130,1.0438666,0.8379663,9.9215212,-1.4274809,-0.9923664,-0.2442748,19.6126022,7.0460997,-5.4539638,-17.9923668,-34.0000000,92.5572510
1140,0.9624642,0.8858501,10.0077124,-1.2061069,-0.5267175,-0.7328244,19.6126022,7.2519999,-5.5784616,-51.9465637,-51.1984749,19.4656487
1150,1.0103480,0.9193687,9.9502516,-0.7633588,-0.5038168,-1.5954199,19.6126022,7.4794478,-4.6662750,-82.5801544,-62.2595406,-53.5572510
1160,0.9648584,0.9097920,9.8951855,-0.4427481,-0.3816794,-1.9160305,19.6126022,7.5416965,-2.8945751,-106.8320618,-68.5877838,-121.7480927
1170,0.8906385,0.9552816,9.8808203,-0.6564885,-0.4274809,-1.9007634,18.6459484,7.1538382,-1.0295014,-121.1832047,-70.3740463,-179.2595367
1180,0.7924767,0.8858501,9.8808203,-0.7557252,-0.3129771,-1.4503816,16.1057129,6.6414814,0.5410868,-126.4732819,-70.3664093,-225.9541931
1190,0.6512195,0.9097920,9.9215212,-1.0305344,-0.2900763,-0.6106870,13.6373034,6.0046272,1.6687500,-127.1908417,-64.3969498,-250.1374054
1200,0.7182568,0.8930327,9.9239149,-1.1832061,-0.5496183,0.5190840,11.1162214,5.3869262,2.7868366,-124.3511429,-55.6030540,-250.1374054
1210,0.7685348,0.9097920,9.8832140,-1.3816794,-0.4427481,1.9389313,8.0756006,4.6255741,3.6200144,-118.2519073,-44.7557259,-250.1374054
1220,0.8044477,0.8690908,9.9813757,-1.1297710,-0.4961832,3.0076337,5.1546898,3.8929520,4.4627690,-110.3129807,-30.7633591,-250.1374054
1230,0.8499373,0.8810617,9.9287033,-1.2061069,-0.0992366,3.0992367,1.4413021,3.3063757,5.3151007,-99.5725174,-10.5801525,-250.1374054
1240,0.9265513,0.9026094,9.8808203,-1.0152671,0.1679389,3.3816793,-4.1467361,3.2417326,6.4954362,-84.8473282,20.4503822,-250.1374054
1250,1.0702027,0.8762733,9.9191265,-1.0763359,0.0229008,3.0152671,-12.6317434,4.3861551,7.6278877,-61.3740463,48.7938919,-250.1374054
1260,1.1228749,0.9241571,9.9334917,-0.8549618,0.7022901,2.4122138,-19.6131992,6.7468257,8.5616217,-34.2824440,59.8778610,-222.1984711
1270,1.1635761,0.8762733,9.9765873,-0.6946565,1.5114504,1.2213740,-19.6131992,8.0612354,8.3796635,-8.4656487,48.8702278,-113.9923630
1280,1.1228749,0.9480990,9.9191265,-0.4885496,1.9770992,0.4274809,-19.6131992,8.9375095,7.3477674,11.0229006,32.4427490,4.0763359
1290,1.0175306,0.8882443,9.8832140,-0.6106870,1.9770992,-0.0839695,-19.6131992,8.7699156,6.4667058,23.0687027,36.4122124,119.4656525
1300,1.0606259,0.8523315,9.9310980,-0.5419847,2.3511450,-0.6183206,-19.6131992,8.2527714,6.4619174,33.4732819,51.1908379,207.4427490
1310,0.9600700,0.8762733,9.9047613,-0.6030535,2.8854961,-1.0458015,-18.2604828,7.7475972,6.9216018,46.5038185,57.0992355,250.1297760
1320,0.9169745,0.8810617,9.8927908,-0.6030535,2.9083970,-1.0763359,-13.7594070,7.4722652,6.9192076,58.5190849,45.2595406,250.1297760
1330,0.7541697,0.9911944,9.7970228,-1.3511450,1.8015267,-0.0381679,-2.4851687,6.9814563,4.5800843,70.9847336,-29.4274807,250.1297760
1340,0.8212070,0.6512195,9.9143381,-2.3053436,-0.7557252,-0.3511450,0.7254394,6.5983863,3.3734128,69.7557220,-46.0152664,250.1297760
1350,0.7326220,0.7781116,9.9981356,-1.2900764,-1.3816794,-1.3053435,2.9400647,5.9663200,2.6958573,70.1297684,-52.4122124,250.1297760
1360,0.9313397,0.8499373,9.9478569,-0.5648855,-2.4351146,1.2519084,9.4474716,4.4148855,-0.7350162,72.8244247,-37.8167953,250.1297760
1370,1.0271072,0.9480990,9.8880024,-0.4274809,-1.6870229,1.1755725,12.5694942,4.2544746,-2.3391230,65.9160309,-28.2595425,246.0992432
1380,1.0175306,0.9169745,9.8640604,-0.3587786,-1.4045801,0.6335878,15.7968616,4.2496862,-3.5673423,52.6564903,-23.1603050,214.7786255
1390,1.0725969,0.9337339,9.8951855,-0.5190840,-1.1832061,0.0534351,19.3043499,4.4412212,-5.0254035,31.8091602,-27.2442741,169.0000000
1400,0.9672526,0.8738791,9.8736372,-0.5954198,-0.5190840,-0.9923664,19.6126022,4.6926112,-6.1123657,3.4198472,-34.9389305,110.1984711
1410,0.9193687,0.9145803,9.9430685,-0.6183206,-0.0381679,-0.9007633,19.6126022,4.8961172,-6.4307928,-28.8702297,-35.3282433,42.9541969
1420,0.8020535,0.8619082,9.7994175,-0.8396947,0.7480916,-0.1221374,19.6126022,5.2313042,-5.6071916,-59.3969460,-31.3206100,-26.3282452
1430,0.7206510,0.8547257,9.8401184,-1.0992366,1.6412214,1.8320611,19.6126022,5.1953912,-4.0126615,-85.0457993,-31.5954189,-91.6106873
1440,0.7757174,0.8307837,9.8089943,-1.8778626,2.7557251,3.5648854,19.6126022,5.0517397,-2.0159075,-102.3435135,-32.3740463,-148.3435059
1450,0.8236012,0.8643024,10.0220766,-2.0458016,3.9770992,4.6030536,18.8638191,4.9607606,-0.1412572,-108.7328262,-26.8473282,-197.9770966
1460,0.8834559,0.9624642,10.0244713,-1.6412214,5.8778625,5.9923663,16.2182388,4.9463954,1.1851238,-106.4274826,-14.1908398,-235.4274750
1470,1.1156923,0.9289455,10.0962973,-2.0076337,7.8396945,6.6641221,13.6827927,4.7117648,2.1835008,-99.0229034,0.7328244,-250.1374054
1480,1.2976507,0.8666966,10.0795374,-0.7633588,7.8625956,4.0610685,11.4753504,4.4029145,2.4396791,-90.5038147,12.5725193,-250.1374054
1490,0.9792235,0.8116302,9.8113880,-1.1145039,7.9770994,-0.7862595,1.8267666,3.5290353,3.3303175,-71.8167953,66.3206100,-250.1374054
1500,0.8020535,0.8666966,9.8449068,-1.3664122,8.4351149,-1.2824427,-4.4962878,3.9982965,4.3143296,-62.5725174,88.0992355,-250.1374054
1510,0.6081241,0.8714849,9.8496952,-1.7328244,7.5954199,-1.6106870,-11.6980095,5.2791877,5.2672167,-49.3893127,98.9083939,-250.1374054
1520,0.4453192,0.8283895,9.8856087,-2.4580152,4.5572519,-1.6259542,-18.8159351,7.3932571,6.2272868,-34.2671738,90.4656525,-241.5038147
1530,0.4285599,0.8882443,9.9143381,-1.7709924,1.9083970,-1.4045801,-19.6131992,9.3325500,6.7851329,-20.0534344,62.1145020,-153.8473358
1540,0.3687052,0.7733232,9.9933472,-1.4351145,-0.0916031,-0.8854962,-19.6131992,10.3620520,7.4100165,-8.4274807,35.9083977,-51.0458031
1550,0.3998296,0.7948709,10.0125008,-0.6946565,-3.0305343,2.3664122,-19.6131992,10.3141680,9.6533718,36.8931313,39.6641235,125.6412201
1560,0.5961532,0.8259954,9.8880024,-0.7786260,-3.6564887,3.2290077,-16.3020363,9.7371683,9.8664551,73.8702316,53.3664131,188.3740387
1570,0.7757174,0.8619082,9.8688488,-0.9923664,-3.1374047,3.0534351,-11.9302464,9.0213060,8.9710283,109.0457993,62.2137413,232.8396912
1580,0.9289455,0.8666966,9.8640604,-1.0458015,-3.2519083,2.8015268,-7.6781654,8.4874020,7.1873569,133.7862549,64.2671738,250.1297760
1590,1.0079538,0.8523315,9.8664551,-1.4656489,-3.2290077,1.5419847,-3.4619980,8.1450329,4.4484038,142.7404633,62.0839691,250.1297760
1600,0.9792235,0.8092360,9.9263096,-1.7099236,-2.5954199,0.7099237,-0.3710994,7.8050575,2.2744799,137.0000000,46.4198456,250.1297760
1610,0.8523315,0.8523315,9.9310980,-1.6488550,-0.1145038,0.4580153,6.3900914,6.8114691,-1.6088953,75.6183243,-32.9007645,239.0381622
1620,0.8858501,0.8068419,10.0125008,-1.3358779,1.6870229,0.5725191,9.0045462,6.4451580,-2.1978660,57.8015251,-53.8931313,220.8549652
1630,0.8858501,0.7924767,9.8281479,-1.2595420,2.7328243,0.8091603,12.0499554,6.1027889,-3.0190730,42.2824440,-63.8854980,195.3893127
1640,0.8331779,0.8523315,9.8425131,-1.5267175,4.2290077,1.0610687,15.1791611,6.0525107,-3.7828193,27.9541988,-59.9236641,159.9389343
1650,0.7852941,0.8523315,9.7036495,-2.5190840,5.2824426,1.6717557,18.2125988,6.2631998,-4.5274124,11.8167934,-50.5190849,113.8625946
1660,0.6416427,0.8714849,9.6030941,-5.8549619,6.9236641,3.1755726,19.6126022,6.5337429,-4.9272418,-31.2824421,-26.8167934,-3.8702290
1670,0.6775556,0.7876883,9.5839405,-8.8625956,8.5419846,5.1374044,19.6126022,6.5768385,-3.8666160,-52.5419846,-15.2671757,-63.7557259
1680,0.6177009,0.7206510,9.5983057,-10.7557249,9.4732828,4.8015265,18.4089222,6.2751703,-2.8131726,-68.8854980,-8.3740454,-114.8854980
1690,0.5482694,0.7302278,9.6677370,-12.7557249,10.9465647,5.2366414,15.8591108,6.2248926,-1.4676381,-76.3587799,1.5801526,-155.0229034
1700,0.5913648,0.6560079,9.7611103,-14.4122133,9.1297712,5.7175574,13.2997227,6.3110833,-0.3088504,-75.7099228,18.8473282,-182.5954132
1710,0.5722113,0.6081241,9.9646168,-14.8396950,8.5572519,4.8244276,10.7930059,6.3158717,0.4070122,-70.0839691,32.0381660,-200.0992432
1720,0.5171449,0.6919208,10.0388365,-14.1297712,8.7175570,5.0992365,9.1290445,6.7899213,0.7757174,-63.8778610,39.4961815,-210.2977142
1730,0.4860204,0.6105183,10.0675669,-13.4580154,6.1908398,5.7709923,7.7140784,7.0365229,0.9720409,-60.5419846,39.5038185,-217.7480927
1740,0.5410868,0.4955972,10.2255831,-12.2824430,3.6793892,5.7099237,6.7061248,7.2998838,0.9696468,-60.3129768,31.3358784,-222.3435059
1750,0.5889706,0.5746055,10.2351599,-10.7557249,1.7099236,5.4656487,5.6215568,7.4914188,1.3670821,-61.9541969,18.9694653,-226.5038147
1760,0.5650287,0.5243275,10.0101061,-8.4427481,0.4732825,6.5343513,3.9887197,7.4411407,1.7429699,-64.6641235,-0.1221374,-242.7251892
1770,0.5865764,0.4932030,9.9885588,-6.7022901,0.5877863,5.6564884,2.3271523,6.9790621,1.8674678,-65.7480927,2.5496182,-250.1374054
1780,0.5171449,0.5722113,9.9813757,-5.6793895,0.3511450,5.0992365,-0.4189832,6.7683735,2.0326669,-66.6183243,19.4885502,-250.1374054
1790,0.5315101,0.5386927,10.0627785,-5.6793895,0.2290076,5.4045801,-4.8410511,6.9120250,2.6360025,-65.1450348,54.9007645,-247.6717529
1800,0.6105183,0.5027798,10.0484133,-5.6030536,-0.5343512,5.5114503,-11.9470053,8.0133524,4.1299767,-57.6564903,100.9312973,-216.8167877
1810,0.7805058,0.5722113,9.9837704,-4.9770994,-1.0992366,5.3511453,-18.9547977,9.2679071,6.0381460,-41.0000000,132.0381622,-159.4198456
1820,0.7038917,0.4884146,10.0172882,-4.0610685,-0.9465649,5.4045801,-19.6131992,10.0771437,7.2998838,-19.1908398,125.0229034,-78.6793900
1830,0.3758878,0.5530578,9.8018112,-4.2671757,2.7099237,5.9541984,-19.6131992,10.0747490,7.7212610,1.2061069,95.7709961,12.6259546
1840,0.1651991,0.5769997,9.3971939,-8.6870232,6.5877862,9.7938929,-19.6131992,9.7491398,7.5393028,15.4351149,63.7709923,98.0610657
1850,-0.1987177,0.2729376,9.5216913,-14.3358774,11.1221371,14.9847326,-19.6131992,9.2679071,7.2112985,24.3816795,49.9541969,167.9923706
1860,-0.8882443,-0.1292862,9.4857788,-22.7557259,17.1984730,23.1832066,-16.9532547,8.5592270,7.5680327,34.9160309,51.1755714,216.2900696
1870,-1.5131277,-0.7254394,9.5240860,-34.5725174,11.5648851,38.0839691,-13.2135315,7.6326761,7.7643566,50.9083977,43.9236641,246.1908417
1880,-2.0757623,-0.6464311,9.0213060,-46.6564903,-4.4656487,58.1374054,-9.4522600,7.0556765,7.0006099,67.1603088,28.2213745,250.1297760
1890,-1.9895715,-1.1516051,8.9015961,-56.7557259,-23.0916023,80.1679382,-5.9758968,7.0149751,5.6814117,76.7557220,13.1984730,250.1297760
1900,-1.3191984,-3.3590479,8.9183559,-63.6335869,-63.3358765,100.9847336,-3.0621684,6.9958215,3.9719603,76.7099228,-1.0458015,250.1297760
1910,-1.6807210,-2.9256995,9.2032642,-72.1450348,-67.5725174,114.2748108,-1.4460905,6.8737178,2.6790979,70.3664093,-18.5496178,243.2519073
1920,-1.6998745,-2.3965836,9.5911226,-72.0839691,-47.2442741,126.7022934,-0.1699875,6.7061248,1.4915800,61.2900772,-44.3511467,235.7099304
1930,-1.0558375,-2.0446377,10.8576488,-57.1297722,-18.7404575,138.4274750,1.0151364,6.4691000,0.5793939,49.8473282,-69.1297684,232.3816833
1940,-0.4908088,-1.7645177,11.4729557,-34.8702278,-6.5572519,144.3435059,2.3989778,6.2416520,0.1173153,39.2671738,-88.3358765,232.9770966
1950,0.2394189,-1.4053892,11.0755205,-20.0839691,-16.2748089,143.8702240,4.3334827,5.7436604,-0.3710994,32.2824440,-102.4809189,233.8473358
1960,0.8475431,-1.0486550,10.6613255,-14.2824430,-33.6564903,140.2671814,6.6462698,5.5162125,-0.7613522,29.0000000,-110.8244247,234.1297760
1970,1.7860653,-0.8331779,10.3907824,-9.5114508,-39.2748108,135.7328186,9.7826586,4.9799142,-1.7046629,26.4885502,-114.9160309,226.4122162
1980,2.6599445,-0.5051740,9.9885588,-4.3435116,-36.4503822,129.2977142,13.6133614,4.8841467,-2.9017577,22.5496178,-110.9083939,206.7862549
1990,3.3853838,-0.1244979,9.6844959,-1.0534351,-29.9541988,117.0305328,17.4799767,4.7692256,-4.2496862,15.3893127,-93.2824402,172.4961853
2000,3.6990228,0.1580165,9.3780403,-2.8015268,-24.6106873,100.3587799,19.6126022,4.9176650,-5.3127065,1.3129771,-67.6793900,123.5572510
2010,3.5386121,0.2466015,9.0691900,-8.0076332,-19.1832066,83.4656525,19.6126022,5.0469513,-5.8561873,-18.8702297,-47.0076332,65.9007645
2020,3.2560976,0.1149211,9.0213060,-15.0076332,-13.2061071,70.0610657,19.6126022,5.1044121,-5.8106980,-44.9847336,-41.6870232,1.9923664
2030,2.6862805,-0.3208214,9.0979195,-22.0076332,-2.8244274,61.3129768,19.6126022,5.2887645,-5.0996237,-74.3969498,-56.2519073,-59.5877876
2040,1.7357874,-0.6296718,9.1936874,-30.4961834,5.3816795,58.5725174,19.6126022,5.2983413,-4.3741841,-105.4809189,-92.8473282,-111.2061081
2050,1.4532729,-0.7517755,9.6581602,-37.3206100,7.9236641,59.8396950,18.6196117,5.5257893,-3.2106080,-137.6412201,-130.8625946,-154.9618378
2060,1.1492109,-0.9457048,10.1609402,-38.9236641,10.4656487,61.3587799,17.2668934,5.7173243,-2.2649033,-164.6106873,-143.5343475,-193.7786255
2070,0.6775556,-1.1731528,10.4769726,-35.2137413,11.9923668,63.4045792,15.6292686,5.2552457,-0.5506636,-182.5954132,-134.2137451,-226.3129730
2080,0.3663110,-1.1132981,10.3716288,-27.8778629,1.7633588,65.5038147,13.8599625,4.9200592,1.1420283,-187.2900696,-111.9618301,-250.1374054
2090,0.4405309,-1.1683644,10.2758608,-21.5114498,-12.7404585,67.3664093,11.6836443,4.2161674,2.5138988,-178.4274750,-78.4809189,-250.1374054
2100,0.8978211,-1.1204807,10.2782555,-18.5725193,-14.5419846,69.0152664,8.5209198,3.6367738,3.6343796,-162.3740387,-37.8320618,-250.1374054
2110,1.2617378,-1.0917504,10.3405046,-17.3053436,-12.7328243,70.6259537,5.0732875,3.2991931,4.3717899,-143.5114441,1.8854961,-250.1374054
2120,1.7621235,-1.0271072,10.4099360,-13.6259546,-13.5038166,68.7633591,0.6153067,3.3542595,5.2313042,-126.1526718,42.1221390,-250.1374054
2130,2.3199697,-1.0007712,10.5990763,-7.9541984,-15.3053436,64.0076370,-5.1307478,4.0006905,6.4978304,-106.6641235,82.1297684,-250.1374054
2140,2.6455793,-1.0534433,10.5128860,-2.2366412,-16.9694653,57.5114517,-11.3963413,5.5114241,8.6573887,-81.1068726,104.2442780,-249.2595367
2150,2.8514795,-0.8786675,10.1226330,2.6793892,-16.9007626,49.5877876,-17.1711273,6.9431496,10.1681223,-48.1374054,90.8015289,-186.1374054
2160,2.6216373,-0.9840119,9.5360565,4.5496182,-21.3969460,41.2671738,-19.5102501,8.4179697,10.5847120,-15.4885492,63.4503822,-114.4198456
2170,3.0334380,-1.0175306,9.2463598,5.5954199,-32.3435097,33.4427490,-19.6131992,8.9758167,10.5152798,11.6564884,53.7862587,-44.0610695
2180,3.8307030,-0.7900825,9.2056589,2.1068702,-28.4732819,23.0763359,-19.5294037,9.2990322,10.7762470,37.7251892,58.8244286,28.8091602
2190,4.2065907,-0.8379663,9.2319946,-4.1832061,-18.0305347,9.4580154,-17.1519737,9.0189114,11.2191715,67.2290039,71.8167953,95.5725174
2200,3.9480183,-0.8714849,9.2679071,-10.1755724,-7.9465647,-4.1526718,-13.1919842,8.4371233,10.8624372,99.8625946,77.6412201,145.6946564
2210,3.5026991,-1.0534433,9.4618368,-13.9236641,-0.8778626,-14.7175570,-9.7228031,8.4155760,9.7371683,130.8931274,77.8015289,174.8320618
2220,2.9041519,-1.2401901,9.6725254,-16.3358784,5.1145039,-22.0229015,-6.8306227,8.4395180,7.7715387,153.1755676,71.8396912,189.2366486
2230,2.3415172,-1.4197544,9.9167328,-16.7633591,9.3511448,-27.5267181,-4.6327567,8.5783806,5.2241216,164.3969421,62.3358765,197.9618378
2240,1.6735384,-1.5681942,10.1058741,-15.7557249,11.7251911,-30.1755733,-2.7174051,8.5879574,2.9185169,164.1145020,53.1145020,204.0992432
2250,1.2569494,-1.7860653,10.3189564,-13.2366409,15.0534353,-29.3969460,-0.6296718,8.5376797,0.3591284,153.1832123,43.2366409,207.4122162
2260,0.7805058,-1.9321109,10.4099360,-9.9923668,16.0152664,-25.5419846,1.1539993,8.3150196,-1.2258250,136.4809113,30.2519093,209.7404633
2270,0.3615226,-1.9201399,10.3692341,-6.0152674,12.2671757,-20.6259537,2.8778157,8.0660238,-2.5115047,116.1068726,14.1984730,209.6488495
2280,0.2729376,-1.9392935,10.3620520,-2.0992367,8.2519083,-15.2900763,4.3646073,7.8218169,-3.3255291,94.7786255,-6.2213740,209.6030579
2290,0.2896969,-1.9153515,10.1034794,0.6946565,6.2900763,-9.8167934,6.0357518,7.3645267,-3.8714044,72.9770966,-20.0916023,207.1908417
2300,0.4165890,-1.9345051,10.0268650,1.9541985,4.7786260,-6.0763359,8.1378498,7.0317345,-4.1132174,54.0152664,-34.4503822,200.8015289
2310,0.6320660,-1.7812769,9.9023676,3.0152671,1.4656489,-3.9694657,10.5511932,6.6438756,-4.3047528,37.0687027,-40.9694672,187.8396912
2320,0.7900825,-1.7764885,9.8257532,3.1145039,0.1755725,-1.9847329,12.8663740,6.6558466,-4.0892754,22.0076332,-39.3587799,164.3358765
2330,0.9385223,-1.6735384,9.6797075,2.7404580,-0.1526718,-0.4656489,14.5159702,6.4523406,-4.0629396,7.9541984,-41.1679382,132.9923706
2340,1.1420283,-1.5538290,9.6797075,2.0763359,-0.8702290,-0.3282443,15.9764261,6.2991123,-4.2760224,-10.8091602,-44.4351158,97.0305328
2350,1.2952565,-1.4628497,9.6150646,1.4427481,1.1832061,-1.1832061,16.8479118,6.1291251,-3.4979107,-32.7633591,-36.4656487,57.2137413
2360,1.3239868,-1.3694763,9.5719690,-0.1221374,-0.6412213,-1.9236641,16.6539822,6.0357518,-1.9991482,-46.3740463,-29.0610695,18.3129768
2370,1.4173602,-1.3407460,9.5959110,-1.7633588,0.3511450,-3.2900763,16.2014809,5.8083038,-0.8738791,-50.7633591,-19.7175579,-17.6488552
2380,1.4053892,-1.4604555,9.5839405,-3.0305343,2.4809160,-4.2900763,15.4544926,5.5688848,-0.2896969,-51.5648842,-4.8549619,-50.4351158
2390,1.2617378,-1.5322813,9.5145092,-4.6641221,2.5190840,-4.9312978,14.3866844,5.4970589,-0.1987177,-54.0916023,5.2213740,-80.9465637
2400,0.9193687,-1.4700323,9.4283180,-7.0610685,3.8015268,-3.4045801,13.4266148,5.5018473,-0.1771700,-61.1832047,2.9465649,-108.3664093
2410,0.8403605,-1.6759326,9.5001440,-9.8167934,4.9160304,-0.6030535,12.8113079,5.4970589,-0.1077385,-70.9312973,-10.7404585,-135.0381622
2420,0.7637464,-1.7501525,9.5983057,-11.5114508,4.1908398,1.5572519,12.5311880,5.6909885,0.4979914,-80.9923630,-27.0610695,-162.7328186
2430,0.3327923,-2.0805507,11.5328102,-7.9160304,-18.9847336,2.1679389,11.8656025,5.9016771,1.5897418,-84.2824402,-29.1755733,-191.1145020
2440,0.7110743,-1.9273225,11.6788559,4.2290077,-15.1374044,8.2900763,11.0396080,6.2943239,2.1930776,-80.8015289,-15.9389315,-215.8015289
2450,1.0558375,-1.8363433,11.0491848,17.0229015,-7.7862597,13.5038166,9.8880024,6.4283986,2.0997043,-76.9236679,5.5114503,-241.8320618
2460,1.2210367,-1.5227045,9.8736372,21.7480907,-7.0916033,14.7938929,8.2384062,6.2823529,1.8626794,-75.4122162,28.9312973,-250.1374054
2470,1.5514348,-1.2617378,9.1984758,18.5267181,-4.0839696,13.3969469,6.5696559,6.1841912,1.5538290,-76.1984711,49.6183205,-250.1374054
2480,1.6879035,-1.2354017,8.9111729,12.7480917,-5.7786260,9.3129768,4.5992379,5.4539638,1.7262106,-77.3893127,64.6106873,-250.1374054
2490,1.8459201,-1.3191984,8.9662399,7.0229006,-5.7404580,5.6564884,1.6950861,4.6159973,2.5115047,-73.5419846,82.8091583,-250.1374054
2500,1.8890154,-1.3790531,9.3277617,2.9083970,-4.8244276,2.6259542,-3.9982965,3.0430148,3.3638363,-64.9618301,106.9007645,-250.1374054
2510,1.8171898,-1.4556671,9.6581602,1.0839695,-3.1145039,0.4274809,-9.7347746,4.5441718,4.9847026,-52.8625946,159.2061005,-250.1374054
2520,1.7669119,-1.4724265,9.8975792,1.2290076,-0.9770992,-1.4274809,-17.5278606,6.9024482,7.4914188,-26.3893127,227.4427490,-226.8473358
2530,1.6400198,-1.4963684,9.9287033,2.7175572,0.4885496,-2.9694657,-19.6131992,9.1817169,8.6933022,4.5877862,249.9541931,-144.1145020
2540,1.5107336,-1.4245427,9.7874460,3.2519083,0.0687023,-4.1450381,-19.6131992,11.1545286,7.0772243,34.3206100,189.9541931,-45.3893127
2550,1.3551112,-1.3766589,9.6078825,2.6870229,0.1450382,-4.6641221,-19.6131992,12.1768475,4.1515245,59.2519073,105.6870193,55.8473282
2560,1.3934183,-1.2713146,9.5408449,1.2137405,0.0229008,-5.7557254,-19.6131992,11.2886028,1.9943599,75.4580154,49.0534363,139.2290039
2570,1.2186425,-1.3646880,9.5671806,-0.4885496,-0.4198473,-6.0839696,-19.6131992,10.7762470,0.5291159,76.5190811,49.6335869,204.6412201
2580,1.2066715,-1.3598996,9.7754755,-1.6030535,-0.4122137,-5.4351144,-16.1224709,10.2184010,-0.4118006,62.1679382,66.4885483,250.1297760
2590,1.0941446,-1.4556671,9.8999729,-1.2977099,-0.8549618,-4.8702292,-11.5136566,9.5623922,-0.6224893,45.4885483,55.1755714,250.1297760
2600,1.1276633,-1.5658000,9.9143381,-0.5801527,-0.2366412,-3.7175572,-7.1466556,9.0763721,-0.5291159,32.6793900,14.9389315,250.1297760
2610,0.9959828,-1.5514348,9.9023676,0.1832061,-0.8549618,-2.1374047,-3.8187323,8.7842808,-0.6320660,20.0687027,-35.0763359,250.1297760
2620,1.1970947,-1.4987626,9.8784256,0.7709923,0.6030535,-1.0610687,-1.0702027,8.2695303,-0.6248835,7.0000000,-78.8625946,250.1297760
2630,1.1539993,-1.5346755,9.7443514,0.7404580,1.2061069,0.0152672,1.1444225,7.6925306,-0.3471575,-4.0152674,-103.9923630,250.1297760
2640,1.2737088,-1.4772149,9.7730818,0.5801527,-1.0076336,0.5648855,3.1292057,7.1849627,0.2130829,-10.3969469,-110.8702316,250.1297760
2650,1.2545552,-1.4700323,9.8089943,-0.0687023,0.4122137,0.2061069,6.6702118,4.9320302,1.1132981,-3.5954199,-103.4885483,250.1297760
2660,1.3431402,-1.4676381,9.8353300,-0.5572519,0.4122137,0.2290076,7.8697009,5.4012914,0.7398046,0.3129771,-94.1755753,246.3206177
2670,1.3215926,-1.4293311,9.9143381,0.4656489,1.6183206,0.9541985,12.0331964,4.3310885,-0.1723816,-0.9618320,-113.8625946,221.4198456
2680,1.2784972,-1.3168042,9.7539282,0.6717557,1.1679389,0.4122137,14.4920292,4.2640514,-0.7685348,-6.2290077,-123.6030502,193.5190887
2690,1.5059452,-1.3575054,9.8042059,0.6641222,0.3511450,-0.1603053,16.4744167,4.2736282,-1.0271072,-13.2595415,-113.2290039,160.5419922
2700,1.3886299,-1.3191984,9.7730818,0.3129771,2.0534351,-0.7404580,18.3634338,4.1227942,-1.3335636,-19.8396950,-84.6183243,124.1221390
2710,1.2593436,-1.3575054,9.7682934,-0.0458015,2.1297710,-0.7938932,19.5820751,3.9408360,-1.4963684,-26.1603050,-51.4122124,82.0152664
2720,1.2186425,-1.5634058,9.7994175,-0.4274809,1.5877863,-0.3740458,19.6126022,4.1874375,-1.6735384,-33.8854980,-25.8320618,35.4427490
2730,1.1180865,-1.4125718,9.8377247,-0.8015267,1.4961832,0.6946565,19.6126022,4.3981261,-1.6711442,-45.7709923,-16.4198475,-12.8320608
2740,1.1923064,-1.4915800,9.9358864,-0.5496183,1.3893130,2.1145039,19.0002880,4.6207857,-1.2066715,-60.0839691,-12.4732828,-59.6259537
2750,1.4867916,-1.1827296,9.9717989,5.9465647,11.9160309,7.1068702,10.7283630,5.3151007,1.8124014,-126.1603088,-85.3969498,-241.1297760
2760,1.5825592,-1.3144100,9.7323799,6.3129773,10.2061071,5.6335878,9.4355011,4.9990678,2.6527619,-132.3969421,-100.7099228,-250.1374054
2770,1.5634058,-1.3168042,9.4642305,3.2671757,13.3511448,6.3053436,8.2360115,4.8889351,2.9831600,-131.4198456,-103.8778610,-250.1374054
2780,1.5849534,-1.2354017,9.5719690,1.0534351,10.6641226,2.8549619,6.8042865,4.6973996,3.1004753,-128.7404633,-93.1603088,-250.1374054
2790,1.4125718,-0.9744351,9.4953556,0.7557252,5.7557254,-1.1603054,5.1977854,4.6614871,3.0861101,-128.7099304,-81.7480927,-250.1374054
2800,1.5083394,-1.0151364,9.5073261,-0.4274809,3.5648854,-3.5801528,4.0126615,4.8027439,3.1890604,-131.5343475,-80.3435135,-250.1374054
2810,1.2569494,-1.0989330,9.7730818,-1.2442749,1.6488550,-6.9465647,2.2888451,4.2233500,3.4667864,-136.5725250,-86.3740463,-250.1374054
2820,1.2545552,-1.0486550,9.8161764,-1.8931298,2.5114503,-8.8625956,0.0191535,3.7397239,4.0389977,-142.5572510,-104.8549652,-250.1374054
2830,0.8595140,-1.4125718,9.9191265,-1.3893130,2.7404580,-8.8931293,-2.2577207,3.1555417,5.5162125,-143.5343475,-118.5190811,-250.1374054
2840,1.1683644,-1.3000449,10.1944590,-0.4809160,3.2900763,-8.1221371,-6.5648675,3.0908985,8.8752604,-131.3435059,-80.3358765,-250.1374054
2850,1.0917504,-1.4772149,9.9406748,1.3816794,2.5114503,-8.1908398,-13.6157551,3.8450682,12.9573536,-94.3206100,27.7938938,-250.1374054
2860,1.0510491,-1.4867916,9.8353300,1.8549619,3.0229008,-7.7786260,-19.6131992,1.6591733,15.6963062,-37.1679382,132.4427490,-199.7175598
2870,1.0223188,-1.3670821,9.7036495,1.1679389,1.9389313,-6.6259542,-19.6131992,10.3213511,17.0155048,31.2977104,202.3587799,-91.3282471
2880,1.0486550,-1.3766589,9.6366129,-0.3511450,2.9236641,-6.2519083,-19.6131992,11.6477318,15.0235386,101.0687027,196.4732819,25.6412220
2890,0.9313397,-1.3934183,9.8209648,-1.0381680,3.0763359,-6.2595420,-19.6131992,8.8273764,11.1018562,156.0458069,146.0686951,130.4198456
2900,0.8930327,-1.4532729,9.8425131,-0.7786260,2.5038168,-5.4045801,-19.6131992,8.7794924,7.3812861,187.6183167,105.8854980,206.8091583
2910,0.9145803,-1.5035510,9.9215212,0.1526718,1.7557251,-4.8015265,-16.1009235,9.0093346,3.7349355,179.1221313,94.7709961,250.1297760
2920,0.8762733,-1.4221486,9.9047613,0.5419847,1.6564885,-3.4809160,-11.0635490,8.6286592,1.2497669,148.4961853,81.6488571,250.1297760
2930,0.8283895,-1.3766589,9.8353300,0.5801527,1.6335878,-2.5114503,-7.2376347,8.1833391,0.8164186,126.9770966,32.2748108,250.1297760
2940,0.8571198,-1.3646880,9.7563219,0.3129771,1.4885496,-2.1068702,-3.5745249,7.9487090,0.4309541,111.7938919,-20.1984730,250.1297760
2950,0.8523315,-1.3886299,9.8257532,-0.1297710,0.8549618,-1.3129771,-0.3232156,7.8720951,-0.4453192,96.1297684,-64.2519073,250.1297760
2960,0.8188128,-1.3455344,9.7467451,-0.5954198,-0.7557252,-0.6183206,2.3151813,7.7523856,-1.1635761,79.8854980,-101.6870193,238.1603088
2970,0.9672526,-1.3144100,9.8496952,-0.8931298,-1.7404580,0.1526718,4.5537481,7.6063399,-1.7932479,64.6412201,-138.5114441,219.0534363
2980,1.1324517,-1.3431402,9.9167328,-0.9083970,-2.1908398,0.1908397,6.9575148,7.7092900,-2.4085546,50.6946564,-176.2519073,199.2442780
2990,1.0917504,-1.3000449,9.9167328,-0.5725191,-1.4198474,0.4656489,9.2224178,7.5776095,-3.7756367,38.3664131,-227.0534363,175.0992432
3000,1.1970947,-1.3263810,9.8305416,-0.2595420,-0.5496183,0.7099237,13.4960461,6.3158717,-5.2648225,15.5038166,-250.1374054,141.7557220
3010,1.1420283,-1.3718705,9.7371683,-0.3969466,-0.5877863,0.5267175,15.7633438,7.1394730,-6.0572991,-4.5725193,-250.1374054,99.2748108
3020,1.1659702,-1.2784972,9.7922344,-0.5725191,-0.9007633,0.5648855,17.3482971,6.8306227,-6.2727766,-23.5267181,-240.0610657,58.5419846
3030,1.2569494,-1.2832855,9.8664551,-0.7251908,-0.1679389,0.2519084,18.5118732,6.3685441,-6.2727766,-38.7251892,-184.5190887,19.6793900
3040,1.3431402,-1.2784972,9.9287033,-0.5648855,0.5190840,-0.4961832,18.5645447,6.1506729,-5.9998388,-49.9694672,-115.1679382,-18.4732819
3050,1.7190280,-1.1061156,10.2016411,0.1832061,0.4961832,-2.6030533,17.7361546,6.1674318,-5.4779053,-60.5877876,-61.2748108,-58.3358765
3060,2.4205256,-0.7661406,10.2806492,2.5801528,-0.6870229,-7.3129773,16.1344433,6.0094156,-5.1451130,-72.6412201,-32.6870232,-95.7938919
3070,2.7844424,-0.7038917,10.0508070,4.7404580,5.1450381,-14.7480917,14.2789459,5.7723908,-4.6878228,-86.4732819,-23.2977104,-129.4427490
3080,2.7628946,-0.7948709,9.6821022,4.1221375,10.4274807,-24.0763359,12.8400383,5.5210009,-3.9599893,-101.1755753,-23.6259537,-157.9541931
3090,2.3917952,-0.9337339,9.5240860,1.2442749,11.1297712,-31.9618320,11.7387114,5.2097564,-3.1268115,-115.0610657,-26.3511448,-184.2213745
3100,1.9105632,-1.1635761,9.5623922,-0.8702290,13.8702288,-36.9771004,10.7163916,4.9583664,-2.0374553,-127.8396912,-33.8091621,-209.4351196
3110,1.4843974,-1.3383518,9.7778702,-1.6488550,15.2137403,-39.1832047,9.7395630,4.6040263,-0.8379663,-138.5343475,-42.3206100,-233.1908417
3120,0.8523315,-1.4772149,9.9095497,-1.5725191,15.2900763,-38.9847336,8.9159613,4.5274124,0.8259954,-146.5343475,-52.5114517,-250.1374054
3130,0.3998296,-1.6088953,9.8185711,-1.1984733,14.6412210,-36.8091621,7.9175844,4.1587071,2.5474176,-152.5114441,-75.2900772,-250.1374054
3140,-0.1436514,-1.6400198,9.7850523,-1.6793894,11.4274807,-32.3587799,6.4403696,3.5936785,4.0461802,-159.2824402,-119.3435135,-250.1374054
3150,-0.2130829,-1.6926919,9.7898407,-2.8702290,9.5877867,-25.1221371,5.3605900,2.7820482,5.8801293,-167.4732819,-179.2290039,-250.1374054
3160,-0.2729376,-1.9776005,9.8975792,-2.4122138,9.3053436,-20.2595425,4.7021880,1.3910241,7.1179252,-177.9541931,-235.7938995,-250.1374054
3170,-0.4405309,-1.8004304,9.9071560,-0.9770992,6.9541984,-15.1679392,3.3231349,1.4053892,8.2791071,-189.6183167,-250.1374054,-250.1374054
3180,-0.4477134,-1.6567791,9.8568783,0.1603053,4.3816795,-8.5954199,-1.2761030,0.5099624,9.6078825,-188.8778687,-192.2366486,-250.1374054
3190,-0.3878587,-1.6065011,9.8353300,-0.0992366,2.2137403,-2.1450381,-7.6685886,0.7637464,13.2135315,-153.9389343,-33.5648842,-250.1374054
3200,-0.0502780,-1.4197544,9.7491398,-0.6106870,-0.8244275,3.4503818,-13.6373034,1.2832855,16.7617207,-77.9923630,109.7786255,-250.1374054
3210,0.3926471,-1.3311694,9.9191265,-0.9389313,-4.5496182,6.8931298,-15.3108416,1.5107336,17.8917770,16.1908398,201.5801544,-196.9313049
3220,1.0055596,-1.2306134,9.7347746,-0.9160305,-5.5877862,8.1755724,-16.8359394,2.6455793,16.3882275,110.2061081,232.7251892,-147.8549652
3230,1.2234308,-1.1587877,9.8975792,-0.5725191,-2.4274809,7.6183205,-19.6131992,4.6183915,14.2214851,191.1908417,206.8320618,-111.5038147
3240,0.9911944,-1.0630201,9.7850523,-0.9160305,-2.1297710,6.8320613,-19.6131992,6.3374195,10.9079275,235.7175598,119.7480927,-67.9007645
3250,1.0606259,-1.1492109,9.8089943,-1.3893130,-4.0000000,6.3358779,-19.6131992,6.5816269,5.8657641,233.4274750,-1.4351145,-19.9694653
3260,1.2737088,-1.1252691,9.9574337,-1.3358779,-4.3358779,5.8931298,-19.6131992,7.6374645,1.7597293,185.8625946,-42.6793900,29.0534344
3270,1.1635761,-1.1396341,9.8640604,-1.1908396,-2.8931298,4.3816795,-18.0665531,9.5528164,0.7781116,129.1450348,-23.9389305,76.2290039
3280,1.2090657,-1.2018831,9.9454632,-1.1526718,-1.7099236,3.5190840,-15.9883976,9.2463598,2.3175755,95.0534363,21.5954189,114.4961853
3290,1.3311694,-1.2497669,9.9765873,-0.6946565,-0.9007633,2.5038168,-13.7953196,8.4921904,4.1682839,89.4045792,54.5496178,140.2595367
3300,1.3072275,-1.3287752,9.8688488,0.2061069,0.2137405,0.3664122,-9.3732519,8.7172441,5.0924411,96.6488571,56.8931313,153.9007568
3310,0.9720409,-1.2737088,9.8951855,-0.2290076,-1.3740458,-3.8091602,14.0778341,7.7092900,-9.8568783,-119.5954208,27.9312973,13.2824430
3320,1.0390782,-1.2401901,9.8568783,-0.2366412,-0.9160305,-4.2213740,14.2095146,7.3046722,-9.4019823,-152.0152740,29.1297703,-24.3206100
3330,0.9672526,-1.2497669,9.6533718,-0.6259542,-1.3511450,-4.0610685,13.8575687,7.2280579,-8.6071110,-184.0229034,34.7480927,-57.5648842
3340,0.8044477,-1.2545552,9.7850523,-1.1145039,-2.1984732,-3.6030533,13.6420918,6.2033448,-7.5488791,-210.0076294,61.0763359,-89.4427490
3350,0.7421987,-1.2808913,9.8496952,-1.3587786,-3.4732823,-2.8931298,13.5989962,5.1618724,-5.8274570,-226.0763397,107.1603088,-129.5648804
3360,0.7398046,-1.3287752,9.9382801,-0.9389313,-2.9541984,-1.1297710,12.5407648,4.2951760,-3.3446827,-229.7557220,146.1908417,-178.2442780
3370,0.8786675,-1.3455344,9.9119444,-0.1755725,-4.6412215,0.5725191,10.7235746,3.0669568,-0.8236012,-222.9923706,164.4198456,-228.2061005
3380,1.1132981,-1.2737088,9.8760319,-0.4809160,-3.4503818,1.4351145,8.7747040,2.0781565,0.7326220,-214.1755676,168.6564941,-250.1374054
3390,1.0821736,-1.2784972,9.9191265,-0.7404580,-1.2213740,1.5114504,5.4276276,0.9504932,2.0853391,-210.8702240,163.1297760,-250.1374054
3400,1.1563935,-1.2880739,9.8544836,-0.7709923,-0.5954198,1.5419847,0.6607963,0.6416427,3.8929520,-207.0000000,161.1297760,-250.1374054
3410,1.2449785,-1.2784972,9.9406748,-0.2595420,1.0839695,0.8702290,-4.6710634,0.3567342,6.6726060,-193.4503784,159.7557220,-250.1374054
3420,1.2234308,-1.2282192,9.9215212,0.2213740,2.9083970,0.4198473,-10.3428984,0.7876883,10.2543135,-165.0915985,164.4045868,-250.1374054
3430,1.0845678,-1.2880739,9.9143381,0.3816794,3.7328243,-0.0076336,-16.3954086,1.6543850,13.0124197,-123.1755753,168.3587799,-250.1374054
3440,0.9959828,-1.2928623,9.8856087,0.3129771,1.6564885,-0.1374046,-19.6131992,4.7644372,14.5255470,-73.0839691,158.5801544,-240.3816833
3450,0.9385223,-1.1779412,9.7682934,-0.2061069,0.4045801,-0.3358779,-19.6131992,6.1315193,14.9924145,-22.5343513,132.1984711,-146.7328186
3460,0.8283895,-1.1923064,9.7515335,-0.9923664,-0.8702290,-0.0763359,-19.6131992,7.5177550,13.6349087,28.3282452,106.0916061,-30.9618320
3470,0.8020535,-1.1803354,9.7802639,-1.7099236,-2.5648854,-0.1068702,-19.6131992,6.9503322,10.9725704,70.0457993,104.9236679,80.3511429
3480,0.8858501,-1.1947005,9.8903971,-1.8854961,-3.7022901,-0.0610687,-19.6131992,6.3948798,8.2360115,96.2671738,125.7557220,156.5114441
3490,1.0606259,-1.2952565,9.9406748,-1.7175573,-3.9083970,-0.2442748,-19.6131992,6.6031747,6.2488346,105.6183243,124.0381699,194.1603088
3500,1.1994889,-1.3766589,9.8664551,-1.0916030,-2.5343511,0.1374046,-16.7425671,6.9670911,4.3167233,98.7633591,84.7480927,209.5343475
3510,1.1683644,-1.3191984,9.9574337,-0.6259542,-1.2595420,-0.0916031,-13.4625273,7.2591825,3.0813217,82.1679382,26.5419846,210.7938995
3520,1.1851238,-1.3024391,9.7275915,-0.5496183,-0.8625954,-0.5725191,-11.0156660,7.4579000,3.0908985,66.8167953,-21.1374054,207.7557220
3530,1.0941446,-1.1779412,9.7898407,-0.1526718,-2.1908398,-1.6259542,-9.2726955,7.5632443,3.3207407,60.7938919,-44.3435097,209.1603088
3540,0.9600700,-1.2569494,9.8784256,-1.3740458,-3.2824428,-1.0839695,-8.1665802,7.8816719,3.3997490,61.6488533,-41.3435097,216.7786255
3550,1.0127422,-1.3455344,9.7347746,-2.0152671,-2.9389312,-0.7557252,-6.8066807,7.9965930,3.2513094,66.1297684,-25.7938938,233.7938995
3560,0.9888002,-1.2114599,9.7946291,-1.5954199,-3.8015268,-0.7175573,-5.1642666,8.0947542,2.7796540,71.4809189,-15.4580154,250.1297760
3570,1.0702027,-1.3024391,9.9909525,-1.0763359,-4.2748094,-0.0076336,-2.9664006,7.9199786,1.8842272,77.1221390,-16.5190830,250.1297760
3580,1.1683644,-1.3048333,9.8616667,-0.2290076,-3.4274809,-0.3129771,-0.8834559,7.6853480,0.4812321,81.3664093,-26.8091602,250.1297760
3590,1.0893562,-1.3072275,9.9191265,-0.2290076,-2.4351146,-0.1068702,1.3670821,7.3764977,-0.9528874,78.7709961,-37.7709923,250.1297760
3600,1.1539993,-1.2473727,9.7467451,-0.7709923,-2.2137403,-0.3206107,4.0725164,6.8018923,-2.6503677,69.6564865,-57.4656487,250.1297760
3610,1.0797794,-1.2210367,9.7922344,-0.7557252,-2.5877862,-0.7099237,6.9407554,6.3182659,-4.6519103,50.4885483,-90.3816757,250.1297760
3620,1.0845678,-1.3144100,9.8305416,-1.1068702,-2.5877862,-0.2519084,9.9095497,5.8370337,-5.9615316,24.9312973,-128.3587799,246.2366486
3630,1.0606259,-1.2808913,9.8281479,-0.9389313,-2.6870229,-0.0763359,12.2702208,5.8561873,-6.5912037,-1.4732825,-156.8167877,213.2824402
3640,1.0223188,-1.2952565,9.9191265,-1.0305344,-2.6335878,0.2595420,13.2877512,6.4403696,-6.9311786,-23.2519093,-167.6870270,182.7251892
3650,1.2066715,-1.3311694,9.9047613,-0.5419847,-3.0381680,0.4351145,17.0274754,4.6399393,-7.5153608,-48.9923668,-165.8091583,148.9007568
3660,1.1539993,-1.2641320,9.7036495,-0.8931298,-1.9770992,0.5343512,19.3091373,5.2313042,-7.2400289,-74.1068726,-148.0992432,90.2442780
3670,1.1923064,-1.2976507,9.8951855,-0.9694657,-2.0916030,0.1984733,19.6126022,5.2839761,-6.6534524,-98.1679382,-132.4427490,35.3816795
3680,1.1707586,-1.2784972,9.8927908,-0.8473282,-1.0000000,-0.3435115,19.6126022,5.4970589,-5.6814117,-120.7099228,-109.9847336,-17.9312973
3690,1.2330076,-1.3215926,9.8999729,-0.8702290,-0.3740458,-0.2977099,19.3977222,5.6359220,-4.2975702,-139.0534363,-91.3282471,-69.7099228
3700,1.1994889,-1.2521610,9.8664551,-0.5496183,0.0076336,-0.4503817,18.4711723,5.4300218,-2.7054341,-151.1908417,-68.7786255,-116.4427490
3710,1.0821736,-1.2162483,9.8185711,-1.0610687,-0.8167939,-0.0916031,17.3315372,5.4922705,-0.9385223,-154.0152740,-34.1221390,-159.5648804
3720,1.0606259,-1.1947005,9.8377247,-1.4351145,-2.1832061,-0.0381679,15.3491488,4.8362627,0.7014975,-147.8320618,3.0534351,-197.3664093
3730,1.2282192,-1.1779412,9.9239149,-1.3282443,-2.7633588,-0.0458015,13.5798426,4.7907729,1.9632354,-135.7480927,35.1374054,-236.7557220
3740,0.8834559,-1.0534433,9.8999729,-1.0992366,0.8549618,0.9923664,11.5016861,3.9887197,2.5976956,-124.0687027,53.0916023,-250.1374054
3750,0.9792235,-1.1492109,9.9095497,-0.9541985,-2.4580152,1.7938931,9.2583303,3.0430148,3.1028695,-116.4809189,63.0152664,-250.1374054
3760,1.1635761,-1.1085097,9.8856087,-0.4274809,-2.6641221,2.9160306,6.2871413,2.1284344,4.0868812,-109.6335907,84.1450348,-250.1374054
3770,1.2665262,-1.2808913,9.5743637,-0.5190840,-2.1908398,2.7404580,1.2018831,1.2018831,6.4379754,-92.3740463,127.6335907,-250.1374054
3780,1.2210367,-1.0917504,9.7850523,-1.7938931,-4.0000000,2.5038168,-6.5816269,1.5179161,9.3205795,-55.2824440,183.8702240,-250.1374054
3790,1.3598996,-1.2330076,9.8975792,-2.8625953,-4.4351144,2.0916030,-16.9652271,2.6862805,10.8480721,-6.3893127,195.2900696,-250.1374054
3800,1.4245427,-1.5131277,9.9047613,-3.0534351,-3.1908398,0.5267175,-19.6131992,7.3190370,10.5990763,34.8931313,141.1145020,-244.4656525
3810,1.2976507,-1.4867916,9.8473015,-1.2061069,-3.5496182,-1.1679389,-19.6131992,9.7970228,8.5807753,54.8625946,55.2748108,-123.9389343
3820,1.2449785,-1.5705882,9.8329363,-1.2366412,-4.0992365,-1.5343511,-19.6131992,10.1441803,6.7252784,60.4045792,15.2595415,5.1374044
3830,1.2952565,-1.6065011,9.8449068,-1.4503816,-2.2213740,-2.1450381,-19.6131992,9.5719690,6.7659793,69.9083939,39.4885483,107.3206100
3840,1.1683644,-1.5681942,9.7922344,-1.6564885,-0.7022901,-2.4045801,-19.6131992,9.1481981,7.1059542,87.6564865,84.9236679,173.5877838
3850,1.0821736,-1.5538290,9.8951855,-1.5572519,-1.0458015,-2.2748091,-16.4576588,9.0524302,6.9192076,104.9770966,95.4885483,209.4656525
3860,1.2521610,-1.3503228,9.8568783,-0.7709923,-1.4274809,-2.5801528,-12.6173782,9.4139528,5.8897061,113.3129807,70.0076370,223.5648804
3870,1.2665262,-1.3287752,9.8520899,-0.1832061,-0.4656489,-3.2366412,-8.9638453,9.6414013,4.2233500,113.5877838,32.6488533,227.5954132
3880,1.2258250,-1.2282192,9.9406748,0.1832061,-1.4961832,-4.2213740,-5.9232249,9.5216913,2.7796540,110.8396912,4.8244276,228.1526642
3890,1.0582317,-1.2066715,9.8305416,-0.0152672,-1.6106870,-4.1984735,-3.3901722,9.3947992,1.6160779,109.1832047,-2.0305343,228.7099304
3900,0.9313397,-1.1683644,9.8544836,0.0458015,-1.1297710,-2.9770992,-1.4939742,9.2583303,0.7278336,110.5572510,4.9923663,230.5419922
3910,0.9600700,-1.1204807,9.8568783,-0.3053435,-1.4427481,-0.4503817,-0.2322364,9.1458035,0.1388630,116.3053436,19.7099228,237.2061005
3920,0.9959828,-1.1372399,9.9526453,-0.9007633,-2.6183207,1.6106870,1.0869620,8.8082228,-0.4118006,126.5572510,37.7557259,250.1297760
3930,1.2210367,-1.0917504,9.8257532,-0.9236641,-2.9923663,2.3511450,2.7485294,8.1282730,-1.4077834,139.1068726,53.2671738,250.1297760
3940,1.2114599,-1.1611819,9.8592720,-0.9847328,-0.7175573,2.7938931,5.4587522,6.9934273,-3.1196289,145.9847260,63.7557259,250.1297760
3950,1.3191984,-1.2401901,9.9071560,-0.7709923,-0.9083970,2.6717558,8.8585014,6.3493905,-5.9639258,135.3206177,59.9160309,250.1297760
3960,1.3503228,-1.3527170,9.9167328,-0.4885496,0.1755725,2.6717558,11.8560257,5.6909885,-8.0277176,104.4885483,34.1221390,250.1297760
3970,1.3215926,-1.3287752,9.8784256,-0.1145038,1.0305344,2.5801528,15.0809994,4.7261300,-8.7651272,72.0000000,-9.5801525,222.2061005
3980,1.2761030,-1.3766589,9.8640604,-0.2748092,0.4809160,2.1832061,19.6126022,5.0924411,-10.1992474,26.3206100,-42.4885483,170.6641235
3990,1.2832855,-1.2976507,9.7251978,-0.8320611,1.3893130,2.0992367,19.6126022,5.5856438,-10.2734671,-21.8702297,-50.1068687,94.2977066
4000,1.2689204,-1.3934183,9.8257532,-1.8625954,1.1297710,2.0534351,19.6126022,5.8178802,-9.4714136,-69.4351120,-42.4503822,18.7251911
4010,1.2952565,-1.3215926,9.8688488,-1.3816794,-0.1145038,0.3129771,19.6126022,5.8609757,-7.5009956,-104.8702316,-28.5801525,-52.2290077
4020,1.1516051,-1.3311694,9.9287033,-0.4198473,-0.5114504,-0.6335878,18.0833130,5.6143742,-5.0014620,-126.0305328,-12.1068707,-108.7404556
4030,1.1539993,-1.3431402,9.7970228,-0.4351145,-0.6183206,-0.5190840,15.6244802,5.3941088,-3.3063757,-137.4274750,4.2595420,-152.7328186
4040,1.0582317,-1.3598996,9.7180147,-1.0076336,-1.2519084,-0.3435115,13.5128050,4.9583664,-1.8914096,-142.7938995,20.1374054,-189.1526642
4050,1.0989330,-1.3431402,9.8137827,-1.3435115,-2.5343511,-0.1832061,11.6022425,4.5465660,-0.7493813,-144.5343475,37.7404594,-219.7022858
4060,1.1204807,-1.3383518,9.8113880,-1.7480916,-4.1450381,0.3664122,9.9287033,3.8378856,0.5769997,-143.4580078,57.1832047,-247.9847260
4070,1.2114599,-1.2689204,9.7874460,-1.9541985,-4.9770994,0.0916031,7.9534974,3.0549858,1.7836711,-138.7404633,76.0992355,-250.1374054
4080,1.2904681,-1.2737088,9.9789820,-1.1908396,-5.8931298,-0.9083970,5.9782910,2.1835008,3.1459649,-132.9084015,96.4503784,-250.1374054
4090,1.2976507,-1.3096216,9.8808203,-0.3969466,-6.0076337,-1.2977099,2.9209111,1.4796091,5.0086441,-123.8549652,119.3664093,-250.1374054
4100,1.3527170,-1.2928623,9.8927908,-0.6030535,-3.4122138,-0.9083970,-1.8961980,1.3718705,7.5560617,-106.5954208,145.9923706,-250.1374054
4110,1.4245427,-1.3622938,9.8329363,-0.9312977,-2.2290077,-1.1603054,-8.2934723,1.9129574,10.4530315,-79.4198456,160.1526642,-250.1374054
4120,1.3766589,-1.2976507,9.8664551,-0.9007633,-2.0534351,-1.6870229,-16.3379498,3.7229645,13.3500004,-44.6946564,149.7480927,-250.1374054
4130,1.3215926,-1.2928623,9.8496952,-0.7022901,-1.1679389,-2.0839694,-19.6131992,5.7532372,15.0881815,-0.5114504,115.4503784,-215.5954132
4140,1.2761030,-1.3024391,9.8999729,-0.6335878,-0.6106870,-2.1374047,-19.6131992,7.6039457,14.5638542,51.5725174,67.2671738,-116.8625946
4150,1.1444225,-1.3096216,9.8712435,-0.8091603,0.3893130,-1.2519084,-19.6131992,8.3174143,11.9661589,100.5572510,40.2137413,-5.5725193
4160,1.0510491,-1.2521610,9.8257532,-0.9389313,0.0763359,-0.0610687,-19.6131992,7.4555058,8.6406298,138.5496216,56.1374054,91.4045792
4170,1.1827296,-1.2856797,9.6988611,-1.1068702,-0.3053435,0.8931298,-19.6131992,7.2136927,5.6287394,160.1908417,90.5648880,163.0534363
4180,1.2138541,-1.1635761,9.9406748,-1.3511450,-1.8854961,1.6564885,-14.8607340,7.4866304,2.9783716,163.9694672,109.1526718,207.4427490
4190,1.2258250,-1.1300575,9.9358864,-0.9007633,-0.5419847,2.2519083,-10.3021975,8.2575598,1.0630201,154.6946564,102.2748108,226.4198456
4200,1.1276633,-1.2856797,9.9909525,0.0534351,0.0992366,2.3435113,-6.9168134,8.8369532,-0.0215477,139.0686951,83.2137375,226.7862549
4210,1.2737088,-1.2880739,9.8999729,-0.0152672,-0.3053435,2.9083970,-4.6207857,9.4953556,-0.8523315,122.8396912,59.9541969,221.3511505
4220,1.2713146,-1.2880739,9.7491398,-0.0229008,1.5877863,3.1908398,-2.5474176,9.5959110,-1.4796091,107.9770966,38.4274826,218.3664093
4230,1.3072275,-1.3790531,9.7563219,-0.1068702,0.5343512,2.7328243,-0.5434810,9.7802639,-1.7453641,96.2977066,38.1908379,217.7175598
4240,1.6256547,-1.3910241,9.8784256,-0.2137405,1.3816794,0.8015267,3.5912843,9.0811605,-1.8195840,100.2366409,43.1908379,222.2366486
4250,1.4365137,-1.3551112,9.7802639,-0.1755725,3.1984732,-0.0534351,7.2974896,7.1969333,-3.2034254,104.0763321,42.2061081,233.6717529
4260,1.3072275,-1.2904681,9.7204094,-0.1603053,3.0152671,-0.8778626,12.3013458,7.7523856,-5.1834202,98.2671738,50.1221390,228.2671814
4270,1.2737088,-1.4173602,9.8736372,-0.3511450,-0.4961832,-1.4503816,16.4385052,7.5225434,-6.5552907,81.3435135,57.4885483,200.1374054
4280,1.1204807,-1.2976507,9.7587166,-0.8167939,-0.7251908,-0.8473282,19.6126022,6.4906478,-7.6470413,54.0992355,58.5648842,151.3358765
4290,1.1109039,-1.2880739,9.7180147,-1.1755725,-2.0534351,-0.8244275,19.6126022,5.7915444,-8.1498213,19.8473282,33.5496178,82.3358765
4300,1.0869620,-1.2497669,9.7658987,-1.5343511,-2.5419848,-0.4351145,19.6126022,5.5712790,-8.0013809,-19.0458012,-11.2213745,5.2748094
4310,1.1372399,-1.2258250,9.8377247,-1.5572519,-2.8625953,-0.0305344,19.6126022,6.1698260,-6.8354111,-55.9007645,-54.5114517,-68.3969498
4320,1.1803354,-1.2282192,9.9334917,-1.0229008,-3.0000000,0.0076336,19.1199970,6.2799587,-5.2121506,-83.6641235,-82.1068726,-124.4198456
4330,1.3503228,-1.3191984,9.8568783,-0.6946565,-3.3282442,0.1221374,17.1088772,5.8873119,-3.6966286,-99.8702316,-83.7099228,-166.5190887
4340,1.3814473,-1.3024391,9.8903971,-0.2290076,-3.2748091,-0.7022901,15.2078915,5.3270717,-2.4612267,-103.3969498,-63.1068687,-203.7786255
4350,1.3455344,-1.2545552,9.7994175,0.0687023,-3.4580152,-1.0229008,12.8472204,5.2073622,-1.5179161,-99.2595444,-36.3206100,-233.6564941
4360,1.3622938,-1.3910241,9.7060442,-1.0763359,-1.6564885,0.0229008,10.2495251,5.1714492,-0.9552816,-92.0534363,-9.5954199,-250.1374054
4370,1.3934183,-1.4245427,9.9167328,-1.4961832,-2.0076337,-0.4427481,8.0899658,4.9152708,-0.7709290,-86.3740463,10.6870232,-250.1374054
4380,1.3910241,-1.3455344,9.8664551,-0.7709923,-0.9770992,-0.9847328,5.3342543,4.3454537,-0.9504932,-84.1984711,24.0687027,-250.1374054
4390,1.5107336,-1.3359578,9.9119444,0.2366412,-0.6488550,-2.2442749,1.8650736,4.1180058,-0.3878587,-85.4656525,37.6488533,-250.1374054
4400,1.3694763,-1.2832855,9.7060442,0.7022901,-1.0687023,-3.4198472,-3.0765336,4.3741841,0.7733232,-84.9236679,58.9541969,-250.1374054
4410,1.2880739,-1.2784972,9.6773138,-0.4503817,-0.3053435,-2.9694657,-10.1082678,5.2480631,2.2768741,-79.0763321,71.5038147,-250.1374054
4420,1.1228749,-1.2880739,9.7204094,-0.9923664,-1.0839695,-3.0916030,-16.7856617,6.3469963,3.9552009,-69.2137375,70.5572510,-247.1984711
4430,1.0702027,-1.3335636,9.6366129,-1.5343511,-1.1221374,-2.2290077,-19.6131992,6.6965480,5.3438311,-59.5877876,69.0000000,-175.0229034
4440,1.0678085,-1.3120158,9.9191265,-1.2977099,-2.3664122,-0.7175573,-19.6131992,9.9789820,7.0580707,-46.2442741,59.5267181,-86.1832047
4450,1.3407460,-1.3838415,10.0148945,-0.2824427,-2.3358779,0.3511450,-19.6131992,10.0579901,7.8194227,-28.2366409,32.1450386,4.7099237
4460,1.4293311,-1.3862357,9.8065996,-1.2977099,0.1832061,0.2366412,-11.1257982,8.2503767,7.3477674,69.2977066,36.5419846,155.8244324
4470,1.3575054,-1.3694763,9.7347746,-0.6183206,0.0839695,-0.1297710,-9.0715837,8.1689749,5.8705525,83.6183243,32.2137413,159.4351196
4480,1.1779412,-1.2737088,9.8616667,-1.0381680,0.8931298,-0.0152672,-7.1155310,8.3054428,3.9552009,88.6870193,20.4503822,159.8702240
4490,1.1970947,-1.3862357,9.7682934,-0.6488550,-2.6641221,0.7175573,-4.0222383,8.2384062,1.2976507,71.8167953,-24.5648861,158.1068726
4500,1.3072275,-1.3694763,9.9406748,-0.5725191,-4.3969464,0.7633588,-2.7245877,8.3485384,0.8547257,63.0076332,-52.2290077,160.0915985
4510,1.3958124,-1.2784972,9.8736372,-0.9389313,-3.1679389,0.1603053,-1.1970947,8.4514885,0.3495516,57.2671738,-78.5725174,166.8473358
4520,1.3910241,-1.3048333,9.8808203,0.1297710,-3.8854961,-1.7480916,0.8068419,8.3844519,-0.3375807,55.4045792,-96.4122162,174.4732819
4530,1.3934183,-1.3144100,9.7467451,0.6183206,-4.7862597,-1.8167939,3.6128318,8.1498213,-1.5969244,56.5267181,-109.0534363,178.6946564
4540,1.3790531,-1.3407460,9.6797075,-0.5114504,-4.6183205,-1.6030535,6.9886389,8.4419117,-3.0789278,57.6641235,-108.7328262,171.5572510
4550,1.2306134,-1.3072275,9.7180147,-1.9465649,-4.6870227,-1.1374046,10.9007444,6.8521700,-5.1929970,55.7709923,-102.1755753,157.2137451
4560,1.2880739,-1.2880739,9.8281479,-1.9160305,-4.9465647,-0.8931298,15.7034883,6.3565731,-7.5704269,45.6259537,-80.1374054,123.6183243
4570,1.3718705,-1.1923064,9.9358864,-0.6870229,-5.0916033,-1.3893130,19.3474445,6.5050125,-9.3205795,25.6870232,-42.3740463,67.0687027
4580,1.2952565,-1.2114599,9.8903971,0.1603053,-4.3664122,-1.0687023,19.6126022,6.8330169,-9.9143381,-3.0076337,-12.1679392,2.2442749
4590,1.3790531,-1.2665262,9.8018112,0.2595420,-4.0916033,-0.8625954,19.6126022,7.2304521,-9.3900108,-39.8473282,-16.3587780,-64.3282471
4600,1.4436963,-1.2976507,9.7132263,-0.8473282,-3.9847329,0.3740458,19.6126022,7.1155310,-8.4921904,-81.5572510,-53.0000000,-130.5343475
4610,1.6017127,-1.3072275,9.8449068,-1.6412214,-3.4961832,0.5114504,18.7345333,6.5457139,-6.8018923,-121.5190811,-96.5038147,-193.0610657
4620,1.4125718,-1.1444225,9.8544836,-1.0992366,-0.1450382,0.7786260,16.4073811,5.5497313,-4.4891052,-155.5114441,-134.6335907,-250.1374054
4630,1.4317253,-1.2761030,9.9670105,-0.9847328,-0.0458015,0.6870229,13.8527803,4.4603748,-2.1356170,-180.5419922,-157.3511505,-250.1374054
4640,1.5155219,-1.3096216,9.8329363,-0.5267175,0.9694657,1.3435115,10.3309278,3.3542595,0.3902529,-195.5877838,-158.3893127,-250.1374054
4650,1.4748207,-1.3431402,9.8257532,0.0610687,0.8091603,1.1679389,5.8130918,3.0406206,3.3327117,-198.7480927,-136.0610657,-250.1374054
4660,1.4820032,-1.4101776,9.7012558,-0.1755725,0.0992366,1.1603054,0.1149211,3.0501974,6.2272868,-186.1145020,-97.2213745,-250.1374054
4670,1.4963684,-1.3527170,9.7754755,-0.9083970,0.2748092,0.6717557,-7.8649125,3.4452386,8.7172441,-155.5725250,-40.9007645,-250.1374054
4680,1.4245427,-1.2737088,9.7371683,-1.5114504,0.1145038,0.4198473,-16.5007534,5.2097564,10.9653873,-110.1450348,23.1526718,-250.1374054
4690,1.3239868,-1.3048333,9.7898407,-1.1603054,0.0687023,0.1450382,-19.6131992,7.7882981,12.3013458,-54.2824440,62.8473282,-198.2366486
4700,1.3670821,-1.3742647,9.8185711,-0.5190840,0.3435115,0.1984733,-19.6131992,9.0931320,12.2199430,5.6564884,78.2442780,-78.4961853
4710,1.3503228,-1.3886299,9.7946291,-0.4122137,0.3969466,0.3129771,-19.6131992,8.9135675,10.3883877,57.8778610,84.7786255,36.5038185
4720,1.3431402,-1.3048333,9.8520899,-0.8244275,0.0076336,0.5725191,-19.6131992,8.6430235,8.0995426,90.6870193,111.2900772,122.2748108
4730,1.4772149,-1.3694763,9.9263096,-1.0000000,-1.5725191,0.4503817,-18.0521889,8.2360115,6.6558466,111.0610657,138.0305328,170.3740387
4740,1.5179161,-1.3144100,9.8520899,-0.7022901,0.5267175,0.7786260,-14.9158001,8.0588417,5.4826937,121.4732819,132.7709961,190.6793823
4750,1.4700323,-1.2330076,9.7994175,-0.6106870,-0.7480916,-0.3587786,-9.6916790,8.5544386,2.5019281,110.5572510,51.2366409,195.0229034
4760,1.7573351,-1.2234308,9.8927908,-1.7557251,-3.8778627,1.2290076,5.2911587,7.4842362,-1.6088953,91.0305328,-68.4732819,217.0686951
4770,1.4676381,-1.1228749,9.8089943,-1.5877863,-0.8167939,0.7404580,8.7962523,6.9718795,-2.9376705,98.8473282,-48.8778610,209.1526642
4780,1.2641320,-1.2282192,9.8137827,-2.0534351,-0.9770992,0.9694657,17.1639442,6.4571290,-6.6678176,89.1679382,-21.3358784,141.9770966
4790,1.2449785,-1.4293311,9.7922344,-2.7557251,-1.2442749,1.7022901,19.6126022,6.5289545,-7.7571740,67.6106873,-14.0152674,81.6564865
4800,1.2641320,-1.3407460,9.8233595,-2.1450381,-3.3358779,0.6717557,19.6126022,6.5816269,-7.3334022,38.7557259,-16.2137413,9.3358774
4810,1.2808913,-1.3120158,9.8257532,-1.4732825,-4.0305343,0.8320611,19.6126022,6.4547348,-6.5098009,9.7099237,-35.4809151,-65.0839691
4820,1.4628497,-1.5466464,9.8832140,-0.7557252,-2.2519083,1.5648855,16.1105003,5.8849177,-3.5218527,-37.0305328,-105.0610657,-183.9313049
4830,1.7070571,-1.4580613,9.8544836,-0.6793893,-1.5343511,1.5114504,13.9293938,5.2001796,-2.1715298,-49.4961815,-121.1526718,-226.4732819
4840,1.7836711,-1.3886299,9.8185711,-0.6106870,0.2824427,0.8473282,11.5328102,4.5848727,-0.8283895,-52.8473282,-119.4885483,-250.1374054
4850,1.6448082,-1.2210367,9.8592720,-0.2900763,2.1908398,0.1984733,8.6166878,4.3023586,0.3136388,-46.7557259,-113.5267181,-250.1374054
4860,1.5753766,-1.2306134,9.8233595,-0.3053435,2.0152671,0.0381679,5.0277977,4.0126615,0.8283895,-34.8931313,-117.7786255,-250.1374054
4870,1.5921360,-1.2976507,9.8736372,-0.3358779,2.3053436,0.2442748,1.0366840,4.0940638,0.2705434,-25.3129768,-130.6641235,-250.1374054
4880,1.5658000,-1.2425843,9.8281479,-0.1908397,2.3587787,0.3587786,-2.8299320,4.6566987,-0.7110743,-27.5496178,-141.7862549,-250.1374054
4890,1.5562232,-1.2928623,9.7539282,-0.0458015,2.4198472,-0.0839695,-7.1610208,5.2648225,-1.5610116,-43.2519073,-139.1679382,-250.1374054
4900,1.5442522,-1.3575054,9.7778702,-0.2519084,2.4732823,0.0687023,-11.7434988,6.0022330,-0.4285599,-58.7404594,-106.2213745,-250.1374054
4910,1.5059452,-1.3024391,9.8089943,-0.2061069,2.6717558,0.0610687,-17.7529144,7.8361821,2.0542145,-57.7099228,-38.1908379,-210.8778687
4920,1.3503228,-1.3503228,9.7778702,-0.3664122,1.9923664,-0.0381679,-19.6131992,9.6078825,4.8985114,-35.8931313,40.7404594,-129.3664093
4930,1.3958124,-1.3191984,9.7658987,-0.6488550,1.7404580,0.4122137,-19.6131992,10.0484133,6.4499464,2.5877862,94.0763321,-28.5267181
4940,1.4053892,-1.3718705,9.7443514,-1.4045801,1.5114504,0.4427481,-19.6131992,9.5360565,6.5720501,47.2519073,112.3282471,77.2748108
4950,1.3191984,-1.2617378,9.7754755,-0.6030535,0.6106870,0.0076336,-19.6131992,8.9039907,5.7604198,81.6030502,117.7404556,157.7633514
4960,1.3814473,-1.3455344,9.8473015,-0.5648855,-0.1908397,-0.0229008,-18.5166607,8.5041609,4.7500720,98.6641235,128.6641235,203.6259613
4970,1.4820032,-1.3239868,9.7419567,-0.8167939,-0.1450382,-0.3282443,-13.0770626,8.4395180,4.1323709,101.4656525,134.4351196,221.4122162
4980,1.3838415,-1.3072275,9.7467451,-0.7557252,0.4885496,-0.7480916,-9.4474716,8.2958660,3.2489152,99.8015289,111.8396912,218.5954132
4990,1.3886299,-1.2976507,9.8496952,-0.8167939,0.1068702,-0.5648855,-6.5696559,8.3557215,1.6615674,94.8320618,60.6717567,205.6793823
5000,1.3718705,-1.2856797,9.7587166,-0.7557252,0.2213740,0.0534351,-4.2520804,8.5161324,-0.3375807,79.6564865,11.7175570,190.3511505
5010,1.4820032,-1.3766589,9.8975792,-0.3053435,0.0458015,0.4122137,-2.6336083,8.7507620,-1.8674678,58.0076332,-25.1374054,177.2977142
5020,1.5179161,-1.3718705,9.8401184,-0.3053435,0.4045801,0.7709923,-1.6136837,8.5209198,-2.4564383,42.6564903,-56.2824440,171.5114441
5030,1.5681942,-1.2952565,9.8329363,-0.2137405,1.1374046,0.7175573,-0.1891410,8.3796635,-2.9065459,37.5801544,-73.9007645,173.1450348
5040,1.3598996,-1.3072275,9.7946291,-0.2366412,1.3129771,0.1679389,5.1522956,7.5895805,-5.0996237,46.0458031,-61.1526718,181.0152740
5050,1.3096216,-1.2784972,9.8688488,-0.3206107,0.2061069,0.4885496,8.9877872,7.4938130,-6.5912037,53.2290077,-22.3587780,173.5496216
5060,1.2377959,-1.4173602,9.9047613,0.0229008,-0.1526718,1.3053435,13.9629126,6.7444315,-8.8082228,56.3587799,21.5190830,154.1679382
5070,1.1875180,-1.3503228,9.7658987,0.3129771,-0.9312977,2.3587787,18.0450058,6.7875271,-11.6836443,45.4427490,53.0000000,113.7557220
5080,1.3838415,-1.2761030,9.7682934,0.3816794,-2.8931298,3.0534351,19.5461636,7.2448173,-14.3411951,-46.4351158,22.3664131,-6.9236641
5090,1.3718705,-1.3191984,9.7946291,-0.0076336,-3.9007633,2.7709923,18.4448357,7.0149751,-13.0866394,-101.5343475,-43.2671738,-62.3053436
5100,1.4413021,-1.3096216,9.8042059,-0.3053435,-3.5114503,2.6870229,17.6068687,6.5193777,-10.6756907,-144.6412201,-90.6793900,-108.9618301
5110,1.4700323,-1.3790531,9.8688488,0.1832061,-2.9465649,2.6946564,16.4815998,5.9136481,-8.0971489,-171.6641235,-102.0152664,-150.2977142
5120,1.5610116,-1.3407460,9.8592720,0.9007633,-1.2061069,3.1297710,14.4704809,5.4276276,-5.4395986,-182.6030579,-86.5038147,-186.3282471
5130,1.5849534,-1.2234308,9.6916790,1.4274809,-0.0687023,2.8931298,11.2455082,5.2360926,-3.5817075,-183.5801544,-70.1908417,-215.9465637
5140,1.6663558,-1.2354017,9.7180147,0.8625954,0.5496183,2.6412213,7.3741035,5.4659348,-2.3726418,-181.3893127,-71.0076370,-235.6030579
5150,1.6256547,-1.2090657,9.7228031,0.0381679,0.8549618,1.5190840,3.3375001,5.6454988,-1.8291607,-182.6793823,-85.2442780,-244.0915985
5160,1.6615674,-1.2090657,9.7012558,-0.5114504,0.9847328,0.4961832,0.1484398,5.1187773,-1.3862357,-188.7709961,-97.5267181,-243.2671814
5170,1.4413021,-1.2210367,9.7658987,-0.9160305,0.5419847,-0.2824427,-3.7923961,6.0381460,-0.0526722,-193.4656525,-77.8549652,-232.5267181
5180,1.4939742,-1.2928623,9.7754755,-0.8549618,0.7480916,-0.4580153,-8.7770987,6.6007805,2.1739240,-189.8625946,-31.3282452,-205.2061005
5190,1.4724265,-1.2880739,9.8089943,-0.8625954,1.0305344,-0.4351145,-13.4792862,7.2807302,5.0158267,-177.2671814,7.2748094,-165.9618378
5200,1.4053892,-1.3048333,9.8257532,-0.6335878,1.1526718,-0.5190840,-18.2844257,7.9223728,8.4179697,-156.5801544,27.9389305,-116.5496216
5210,1.4436963,-1.3479286,9.7874460,-0.8549618,0.9541985,-0.5877863,-19.6131992,8.0468712,11.1497402,-126.8549652,28.7938938,-56.7709923
5220,1.4293311,-1.2784972,9.7754755,-1.1603054,1.2213740,-0.7480916,-19.6131992,7.9295554,12.9836893,-89.2366409,11.3893127,8.8244276
5230,1.3862357,-1.3287752,9.7084379,-1.6030535,0.4503817,-0.8396947,-19.6131992,7.4650826,13.9724894,-47.3740463,-7.5114503,70.8320618
5240,1.9440818,-1.2569494,9.9023676,-1.0763359,-0.7633588,-2.2061069,-19.0218353,6.8713236,14.2669754,-2.5725191,-13.7480917,120.2824402
5250,1.4413021,-1.2880739,9.8161764,-0.9694657,1.7709924,-2.9160306,-15.4736462,6.2009506,13.4577389,44.0076332,-8.1297712,155.0458069
5260,1.2593436,-1.3575054,9.7611103,-1.2824427,0.9236641,-3.2519083,-12.7969427,5.8849177,12.0116482,87.2137375,6.1603055,179.8244324
5270,1.2449785,-1.3622938,9.7778702,-1.6946565,1.0458015,-1.5801526,-10.5296450,5.8609757,10.0675669,122.3206100,19.3740463,197.5877838
5280,1.1348459,-1.3144100,9.8496952,-1.5419847,0.8320611,-0.2061069,-8.6693602,5.8561873,7.7811155,146.5572510,26.4274807,210.9160309
5290,1.3359578,-1.3455344,9.9143381,-1.0229008,0.1526718,0.8702290,-6.8473821,6.3469963,5.2720051,159.3816833,24.8931293,222.9694672
5300,1.5107336,-1.2425843,9.9765873,-0.0534351,0.5725191,1.4961832,-5.1163831,6.5289545,2.6288199,160.6488495,16.2061062,236.2519073
5310,1.6472024,-1.1611819,9.8065996,0.2442748,1.1221374,1.1984733,-3.1363883,6.5720501,0.5578461,155.9160309,7.1297708,250.1297760
5320,1.6663558,-1.1444225,9.7299862,-0.1068702,1.4122137,0.0916031,-1.0606259,6.3900914,-1.3982066,148.6946564,0.8473282,250.1297760
5330,1.6088953,-1.2545552,9.7682934,-0.5343512,1.7251909,-0.9312977,0.8643024,6.0142040,-2.8706331,141.4122162,0.9923664,250.1297760
5340,1.4053892,-1.3311694,9.6892843,-1.0229008,1.5648855,-1.0229008,3.4212968,5.7699966,-4.4412212,133.4961853,-4.2824426,250.1297760
5350,1.2617378,-1.3431402,9.7443514,-1.2290076,1.4351145,-0.8778626,7.1921453,5.5425487,-6.8521700,120.9694672,-13.6183205,250.1297760
5360,1.3551112,-1.3527170,9.8449068,-0.8396947,0.5496183,-0.2442748,11.2574787,5.5664907,-9.2750902,99.3587799,-28.1984730,245.1526642
5370,1.3455344,-1.3551112,9.7994175,-0.3893130,0.4122137,0.0229008,15.4281569,5.7125359,-11.9493999,67.2671738,-38.4351158,203.3358765
5380,1.2665262,-1.4293311,9.7946291,-0.4198473,-0.1526718,0.3816794,18.3610382,6.1865854,-13.6684275,24.3206100,-33.2977104,147.0458069
5390,1.3144100,-1.2856797,9.7491398,-0.5496183,-0.5419847,0.7099237,19.6126022,6.7971039,-14.4178085,-24.3587780,-28.4656487,87.4732819
5400,1.4269369,-1.2497669,9.8065996,-0.6183206,-0.6793893,0.7099237,19.4647598,7.4387465,-13.2542324,-78.5343475,-35.3053436,29.5038166
5410,1.4365137,-1.3718705,9.7515335,-0.6412213,-0.2977099,0.7557252,18.4448357,7.3022780,-11.2718439,-128.3969421,-60.2900772,-22.7251911
5420,1.4317253,-1.2808913,9.8568783,-0.7099237,0.2595420,0.7862595,17.9995155,6.5935979,-8.5855637,-166.6870270,-85.3740463,-68.1221390
5430,1.4939742,-1.2449785,9.9167328,-0.3358779,0.8473282,0.9694657,17.3650570,6.2799587,-5.8035154,-189.0305328,-88.8854980,-109.8473282
5440,1.4843974,-1.2593436,9.8305416,-0.0534351,0.7557252,0.8015267,16.1176834,6.1817970,-3.0980811,-193.6106873,-68.2213745,-144.9007568
5450,1.4556671,-1.3239868,9.8544836,-0.1450382,-1.1679389,0.6564885,14.4321737,6.1363077,-0.6943150,-185.9084015,-35.9465637,-175.4427490
5460,1.3335636,-1.2689204,9.7323799,-0.5190840,-0.2442748,1.4427481,12.8376436,5.7939386,0.9026094,-171.6717529,-6.6030536,-204.6335907
5470,1.3431402,-1.4317253,9.7515335,-0.9770992,-1.7633588,1.9312977,11.0587606,5.2145448,2.1020982,-156.9313049,14.7404585,-233.2519073
5480,0.5339043,-1.7717001,9.3133974,-3.1374047,2.2748091,4.6870227,8.9015961,4.8290801,3.4691806,-142.7862549,40.2671738,-250.1374054
5490,0.2609667,-1.6495966,9.3110027,-6.5725193,4.2137403,12.2442751,5.5976148,4.5322008,5.6598639,-124.4503784,84.8854980,-250.1374054
5500,0.7517755,-1.4341195,9.7132263,-7.3282442,0.9847328,16.4351139,-0.8259954,4.5848727,8.5544386,-91.0305328,144.2366486,-250.1374054
5510,1.2952565,-1.1372399,10.7116032,-4.4885497,-8.9160309,15.6106873,-8.7890692,5.1475072,10.5344334,-40.5954208,192.1068726,-250.1374054
5520,1.9560528,-0.9409165,11.0443964,3.1221373,-13.1755724,12.1145039,-17.8798065,6.6031747,11.3364868,16.7480907,199.7557220,-217.9389343
5530,2.4205256,-0.9768293,10.7666702,12.1526718,-11.0076332,8.0687027,-19.6131992,8.3269911,10.4075413,64.8091583,170.8167877,-138.2671814
5540,2.8610563,-0.9409165,10.3093796,16.1679382,-6.5419846,0.9160305,-19.6131992,10.0125008,7.7906923,89.0457993,129.7328186,-40.7938919
5550,3.0813217,-0.7637464,10.0292597,14.6793890,0.1145038,-7.7938933,-19.6131992,10.9629936,5.4779053,94.2061081,102.6106873,52.7022896
5560,2.8610563,-0.7805058,10.0436249,13.5877867,-4.3129773,-15.6641226,-19.6131992,10.4434547,3.9671719,88.1908417,89.0076370,125.3587799
5570,2.8251436,-1.2449785,10.3596573,15.9312973,-5.3740458,-22.0152664,-18.2221756,10.2303715,3.9528067,87.9847336,77.5725174,176.6259613
5580,2.4995339,-1.5825592,10.1298151,18.4885502,6.0152674,-25.3358784,-13.8527803,9.5719690,3.6415622,90.6564865,59.8931313,212.7022858
5590,1.9488702,-1.6472024,10.0196829,20.2824421,17.9236641,-24.3282452,-9.1505919,9.1362267,2.7389526,96.2595444,46.3129768,230.0686951
5600,1.3383518,-1.4772149,10.8241301,21.9389305,19.2900772,-21.2977104,-5.7460546,9.0715837,1.6352314,95.8778610,39.3053436,234.6412201
5610,0.9911944,-1.2018831,13.1010046,30.1603050,-7.9541984,-18.7328243,-3.2177906,8.7818871,0.6895266,90.6106873,30.3969460,236.7099304
5620,1.8961980,-1.1899122,13.9030581,46.6488533,-26.2061062,-19.3282452,-1.2090657,8.2982607,-0.1723816,86.0992355,18.1603050,238.4961853
5630,2.9927368,-1.0223188,14.2597923,66.8625946,-36.8091621,-24.0992374,0.6440369,7.7332320,-1.1635761,77.4198456,6.8931298,240.0610657
5640,4.2329268,-0.7829000,13.2590208,89.3740463,-46.6412201,-35.9541969,2.0087249,7.1634150,-1.6160779,69.0076370,1.1221374,242.9618378
5650,6.3469963,-0.2944853,11.2981796,105.0381699,-37.5801544,-57.1984749,3.5290353,6.6103573,-2.2289903,62.4274826,-2.4427481,247.5267181
5660,5.2863703,0.3782819,9.4378948,112.0839691,-19.4351139,-73.8854980,5.7388721,6.1602492,-3.1196289,54.4809151,-15.7709923,250.1297760
5670,4.8961172,-0.6560079,7.5129666,107.5343475,-24.5114498,-90.9847336,9.0907373,5.3869262,-4.1299767,44.1832047,-35.7404594,242.9160309
5680,4.2281384,-0.0454896,6.4691000,88.5572510,-26.2824421,-105.7557220,13.2805691,4.8745699,-5.8250628,30.6870232,-52.8320618,219.1450348
5690,2.6647329,0.8283895,6.9192076,67.3587799,-15.4351149,-118.0534363,17.6954536,4.5226240,-7.8601241,8.8091602,-67.7022934,173.6641235
5700,1.3120158,0.5578461,7.4435349,51.0000000,-3.3053436,-118.6793900,19.6126022,4.5465660,-9.5480280,-21.9541988,-76.0534363,113.4427490
5710,-0.5003856,0.5051740,9.6653433,39.6870232,-25.1450386,-58.4274826,14.8918581,4.6854286,-0.4525018,-141.4809113,-52.3587799,-144.2824402
5720,0.6200951,0.9217629,9.5983057,37.1374054,-25.0076332,-50.6335869,11.5495701,5.3773494,3.0645626,-126.2061081,-15.9694653,-164.4122162
5730,1.4365137,1.3575054,9.2415714,35.0763359,-24.6030540,-48.2442741,8.2743187,6.3613615,5.9926562,-97.5572510,36.8473282,-173.3587799
5740,1.8866212,1.6807210,8.8992023,31.0992374,-22.2366409,-50.1603050,4.5537481,7.5297260,8.9207497,-55.6870232,91.6793900,-172.2595367
5750,1.9321109,2.0039365,8.7651272,24.6641216,-17.8549614,-52.2671738,0.3878587,7.9343438,11.2862091,1.9007634,125.2137375,-162.2213745
5760,1.8866212,2.2098370,9.2894554,17.3587780,-19.3893127,-53.5877876,-4.9463954,8.3916340,11.8536320,64.8320618,140.8931274,-140.7938995
5770,2.0973101,2.3582766,10.5320396,15.2137403,-32.1297722,-55.7404594,-9.3924055,9.3660688,9.9765873,122.3969498,139.9694672,-103.6870193
5780,2.6288199,2.2696917,11.9661589,22.1145039,-44.3282433,-61.7099228,-11.8009596,10.8576488,5.1020179,140.3282471,122.3206100,-62.2290077
5790,3.2130022,1.8890154,13.2063494,39.8015251,-56.4961815,-70.7480927,-13.2542324,11.5304165,1.6424140,130.2748108,91.2366409,-18.4427490
5800,3.4476328,1.5634058,13.4721041,61.8396950,-65.9770966,-82.0152664,-13.3428183,11.5735121,0.0287303,115.5038147,63.0610695,24.7480907
5810,2.9520357,1.7717001,13.1991663,80.4351120,-77.0229034,-93.1755753,-11.5806942,11.1641054,-1.2354017,104.3358765,38.6717567,61.3969460
5820,2.2218077,1.9776005,12.5240049,88.2671738,-85.9389343,-100.1297684,-9.2559366,10.7307568,-1.8698620,93.1374054,29.2977104,91.2290039
5830,1.4125718,2.0949159,11.7602587,84.7709961,-84.6564865,-99.6183243,-7.5321202,10.5320396,-2.5689652,80.7175598,22.0076332,116.0152664
5840,0.6751614,1.8483143,12.0236197,76.3816757,-78.4961853,-91.6106873,-5.7364779,9.8951855,-2.9831600,67.4427490,5.4656487,140.5190887
5850,1.4101776,1.4532729,14.3771076,77.0152664,-94.9465637,-82.5267181,-3.3542595,9.2631187,-3.1004753,55.1374054,-13.6641226,161.4274750
5860,2.4923513,1.9584470,15.2174683,94.8854980,-103.9694672,-77.9847336,-0.5482694,8.3437500,-3.2680686,46.8015251,-31.6412220,175.6870270
5870,3.0047078,2.3654592,13.5343533,112.0076370,-99.3816757,-76.2061081,2.6407909,7.4531116,-3.8378856,40.9007645,-44.1068687,183.7404633
5880,3.2608860,2.4731977,10.9989061,113.3435135,-92.9007645,-72.5038147,6.2057390,6.8449879,-4.9104824,32.3893127,-57.0916023,182.2290039
5890,3.7181761,2.6312141,9.0260944,99.6946564,-93.0152664,-68.4580154,9.8880024,8.4826136,-5.5425487,22.9389305,-80.7786255,166.4274750
5900,3.6966286,3.4380560,8.1067257,82.1603088,-90.4656525,-63.8015251,14.9828377,5.3941088,-7.9199786,5.0458016,-104.2671738,145.0839691
5910,4.4819226,3.8929520,7.6111283,68.5801544,-75.8015289,-63.0610695,19.6126022,5.2839761,-9.0763721,-19.2519093,-92.6335907,93.1832047
5920,4.6758518,4.4388270,6.3206601,52.8015251,-40.5114517,-64.5801544,19.6126022,5.4180508,-9.3062143,-49.4656487,-78.3206100,29.6183205
5930,3.7540891,4.4484038,6.7372489,32.4274826,-44.4732819,-63.0381660,19.6126022,5.4755111,-8.8537130,-80.6793900,-87.3893127,-25.0763359
5940,4.3406653,3.6295912,6.8856888,15.6870232,-54.6259537,-66.9389343,18.9619808,5.4802995,-7.9606800,-112.7480927,-119.6870193,-74.2442780
5950,3.7684543,3.0956869,7.9678626,7.8625956,-58.9465637,-69.2824402,18.5717278,5.4419928,-6.3876977,-143.9541931,-149.1450348,-121.7480927
5960,2.6743097,2.7676830,8.7794924,9.0687027,-56.9694672,-66.4351120,17.6571465,5.3270717,-4.4651632,-167.6488495,-163.8396912,-167.5572510
5970,2.7317703,2.2098370,8.4730368,18.5343513,-43.9694672,-59.1908379,16.0314922,5.4372044,-2.2457497,-181.3206177,-159.6030579,-210.2366486
5980,1.9584470,2.1475880,7.3836803,30.6946564,-22.6335869,-48.8167953,14.1616306,5.1068063,0.1939293,-182.2671814,-134.4580078,-245.0152740
5990,0.7350162,2.8873925,6.1698260,36.6641235,-8.3129768,-28.7251911,11.7243462,4.5657191,3.0741394,-169.1908417,-93.1526718,-250.1374054
6000,0.0263361,3.4021432,5.0756817,34.0687027,-10.4732828,-2.0305343,8.1953106,3.9623835,6.2847471,-139.3893127,-35.7633591,-250.1374054
6010,-0.2394189,4.2377152,4.3741841,22.8625946,-33.1984749,29.4274807,2.5234756,3.9671719,9.5121145,-86.5038147,27.7404575,-250.1374054
6020,-0.2226596,5.1139889,4.1778607,8.1297712,-71.5190811,62.8778610,-5.3079181,4.8913293,11.4394369,-15.5496187,87.2213745,-250.1374054
6030,1.2808913,4.9655490,4.4029145,-2.1908398,-110.2595444,91.8549652,-12.9310169,6.6247220,10.6517487,48.8473282,127.4732819,-250.1374054
6040,4.2065907,3.3111639,5.0756817,-5.5496182,-147.5801544,104.5572510,-19.3833580,8.8704720,7.4674768,82.0229034,157.0152740,-184.8625946
6050,4.6303625,3.7445123,4.7524662,-5.0000000,-163.6183167,106.4580154,-19.6131992,10.6613255,4.1658897,101.0534363,159.6946564,-92.0152664
6060,4.9104824,4.2161674,4.7333126,-6.5725193,-173.8320618,107.5343475,-19.6131992,11.0827026,0.8858501,97.0687027,134.1297760,3.0610688
6070,4.8649931,4.2616572,4.4651632,-10.6564884,-173.8625946,114.3282471,-19.6131992,10.4626083,-1.7142396,84.0610657,87.3893127,84.7099228
6080,5.8202744,3.9144998,4.7117648,-15.8778629,-162.3511505,123.5419846,-15.7633438,9.8353300,-2.7557120,68.3358765,44.7175560,141.6106873
6090,6.8449879,4.1802549,4.8147149,-19.9770985,-135.6793823,126.2748108,-10.9725704,9.4474716,-2.8634505,52.0610695,13.7251911,176.4885559
6100,7.4531116,4.4843168,5.0972295,-23.5496178,-106.8015289,121.3740463,-6.8617468,9.2822723,-2.4372849,41.0992355,-14.6183205,195.5343475
6110,8.0684185,4.1802549,5.3821378,-27.0687027,-79.1908417,111.3893127,-3.4931223,8.9614515,-2.2625091,36.7862587,-40.1679382,207.0381622
6120,8.2815018,4.2760224,5.7771792,-27.1450386,-51.6717567,102.3206100,-0.4812321,8.4658537,-2.8706331,35.7099228,-57.7404594,213.4198456
6130,8.2647419,4.3406653,6.1147599,-21.0992374,-26.5954189,96.9465637,2.0039365,8.2000990,-3.9935081,34.9312973,-63.3587799,219.6946564
6140,8.3844519,4.3502421,6.3565731,-11.6412210,-6.5190840,91.3053436,5.0206151,7.5584559,-5.3821378,30.9541988,-59.0152664,222.4198456
6150,8.5568333,4.3023586,6.0405402,-2.0381680,8.2595415,84.1755753,9.4546537,6.7731619,-6.8186517,25.1068707,-57.8473282,214.0152740
6160,8.4203644,4.3909435,5.4132624,3.4427481,18.2137413,74.7328262,14.2645807,6.3517847,-8.2096758,16.2671757,-47.9312973,185.5038147
6170,7.9104018,4.1515245,4.8793583,3.5114503,22.0000000,65.4351120,18.0737362,6.7731619,-9.8161764,-1.7099236,-32.8778610,139.4427490
6180,7.5632443,4.1180058,4.1634955,-0.9694657,19.4732819,57.2748108,19.6126022,6.3709383,-10.7163916,-29.0458012,-31.6870232,92.7557220
6190,7.0221577,3.9288650,3.9959023,-8.4809160,10.4351149,50.4351158,19.6126022,5.6071916,-10.7499104,-69.1832047,-53.2290077,26.8320618
6200,6.7899213,3.6918402,3.7708483,-15.9389315,0.1984733,47.1679382,19.6126022,5.9711084,-9.4785957,-109.7099228,-86.5267181,-45.3740463
6210,6.4714942,3.5194585,4.1275826,-22.5496178,-9.7022905,48.0076332,19.6126022,6.3230543,-7.5440907,-140.8091583,-112.8702316,-103.1603088
6220,6.5481081,3.2776453,4.8506279,-28.6717548,-16.6793900,49.4045792,19.6126022,6.4691000,-5.4898763,-160.4580078,-123.5190811,-155.8931274
6230,6.7827387,2.9616125,5.4228392,-30.6412220,-17.0992374,49.7709923,19.6126022,6.2751703,-3.7229645,-171.3435059,-130.7480927,-214.2137451
6240,6.8401995,2.7748656,5.8633699,-29.3664131,-12.9236641,47.9923668,19.3474445,5.9902620,-2.3534882,-174.3129730,-131.2671814,-250.1374054
6250,7.2591825,2.5450234,6.1578555,-27.4732819,-14.0916033,43.6793900,16.9891682,5.3390427,-1.1923064,-172.5496216,-124.6412201,-250.1374054
6260,6.5696559,2.7676830,4.9224534,-45.6946564,-39.8778610,32.1374054,13.4242201,4.0725164,-0.5482694,-170.5801544,-116.3206100,-250.1374054
6270,5.6287394,2.8802099,5.5329719,-72.2061081,-49.4809151,22.2290077,8.5831690,2.1020982,-0.2059003,-170.1679382,-115.2366409,-250.1374054
6280,4.7141590,2.3678534,8.9925756,-65.2442780,-25.2137413,19.2137413,3.4308734,1.2210367,0.6679789,-171.2519073,-105.0381699,-250.1374054
6290,3.3686244,0.2561783,10.4865494,-44.6030540,-49.9694672,34.7862587,-2.6383967,0.2489957,2.1547706,-165.9770966,-75.4274826,-250.1374054
6300,4.1874375,-1.0725969,11.5160513,-9.5419846,-73.4351120,57.4656487,-8.8944139,1.4413021,3.5673423,-148.4580078,-28.2519093,-250.1374054
6310,7.7906923,0.4979914,10.5248566,34.7480927,-50.2748108,74.5343475,-15.6077213,2.6024840,4.2305326,-121.6946564,30.7251911,-250.1374054
6320,10.0316534,1.9297167,8.1617918,59.6106873,-10.6030531,76.9618301,-19.6131992,5.6526814,5.3629842,-96.1679382,103.0763321,-246.4045868
6330,10.5871058,3.0717452,5.2073622,49.3740463,20.6946564,63.7938919,-19.6131992,8.8968077,7.3860745,-73.9465637,174.4580078,-121.3816757
6340,10.3644457,3.5601597,3.9240766,19.7251911,44.0305328,45.7709923,-19.6131992,9.3756456,9.5647869,-52.5496178,199.7404633,12.4809160
6350,9.8209648,2.9807658,3.9528067,-4.2366414,66.0000000,30.9465656,-19.6131992,8.0803890,11.3101511,-25.5114498,176.4198456,129.8473358
6360,8.4155760,2.0254843,5.1427188,-16.3206100,71.5114517,21.4503822,-19.6131992,6.3876977,12.1026278,4.9083967,146.5572510,211.8625946
6370,7.0245519,1.4484847,6.1482787,-17.0916023,61.5801544,18.0000000,-14.9181948,5.1690550,11.9493999,32.0763359,143.3664093,250.1297760
6380,6.1434903,0.9720409,6.7899213,-9.3893127,44.7862587,20.8015270,-8.9422979,4.5106530,11.2670555,54.3816795,144.3053436,250.1297760
6390,5.7580256,0.5410868,7.1538382,0.3206107,33.8931313,28.3587780,-5.0086441,5.0206151,10.3764172,74.3969498,137.9847260,250.1297760
6400,5.5593081,0.4022238,6.6821828,5.2977099,33.7633591,39.0839691,-2.8131726,5.7245069,8.8537130,90.7786255,119.3664093,240.4656525
6410,5.4611464,0.5626345,6.4379754,4.2213740,39.7709923,51.3587799,-1.6831152,6.4092450,6.4140334,100.1374054,91.4122162,219.6946564
6420,5.7245069,0.6895266,6.2560172,0.0458015,51.0916023,62.3740463,-1.7956421,7.2160869,3.9815371,103.3435135,70.1145020,208.8931274
6430,6.3948798,0.7014975,6.2177100,-4.2366414,64.6106873,68.9236679,-1.4915800,7.5656385,1.7717001,101.5725174,58.6259537,210.2442780
6440,6.8473821,0.7924767,6.5840211,-7.6870227,74.4656525,70.9770966,-0.5458752,7.6135225,-0.0550664,95.7480927,57.9236641,220.1908417
6450,6.9910331,0.8738791,6.8641410,-9.1374044,76.8091583,69.9312973,0.7445929,7.4722652,-1.4700323,89.2748108,65.7404556,232.3282471
6460,7.2065101,0.7709290,7.1298962,-9.1297712,73.9847336,66.9160309,2.1523764,7.1705976,-2.9424589,81.6793900,67.3969498,243.1603088
6470,7.0915890,0.7110743,7.4076223,-8.6564884,66.9389343,62.2366409,3.7900019,6.9431496,-4.6806402,68.7557220,64.5038147,248.7557220
6480,6.7204900,0.5315101,7.4004397,-8.6259546,54.2748108,56.5267181,5.2983413,6.7109132,-5.9591374,48.3053436,57.0305328,250.1297760
6490,6.5648675,0.3399749,7.7021074,-8.5877867,40.4885483,50.7175560,7.1203194,6.7492199,-6.8090749,21.8931293,42.2519073,242.8320618
6500,6.2368636,-0.0478838,8.1857338,-7.8167939,27.2213745,46.1526718,9.4785957,6.8042865,-7.2280579,-9.8091602,8.5954199,223.8167877
6510,6.0501165,-0.4357425,8.5161324,-5.1908398,17.2900772,45.5572510,12.2151546,6.9335728,-7.6254935,-45.9007645,-54.0000000,191.2671814
6520,6.2608056,-0.9121862,8.7723103,-2.6946564,12.7175570,47.4427490,15.8375635,7.1131368,-7.4435349,-81.4122162,-121.5725174,147.0915985
6530,6.4116392,-1.1731528,8.7411861,-1.3282443,11.2213745,49.7022896,18.6387653,6.8401995,-6.8832946,-112.5954208,-169.6030579,92.5267181
6540,6.5217719,-1.4460905,8.6693602,-2.7709923,6.0610685,51.9236641,19.6126022,6.6510582,-5.8250628,-134.3893127,-183.6793823,34.7709923
6550,6.2536230,-1.6136837,8.2838955,-7.4656487,-9.4351149,55.3053436,19.6126022,6.7707677,-4.1874375,-147.3893127,-164.0229034,-25.4045811
6560,5.8178802,-1.9512644,8.3054428,-16.8167934,-53.9618340,63.4122124,19.6126022,6.7492199,-2.5785420,-152.5954132,-129.4503784,-83.7099228
6570,8.0301113,-0.8403605,10.3117743,-19.8167934,-92.5038147,71.2824402,18.6866493,6.4810710,-0.9983770,-150.7786255,-86.4122162,-135.3282471
6580,10.6517487,0.2011119,10.9222927,-2.7786260,-62.0763359,58.6717567,16.0721931,6.3972740,-0.0335187,-143.6488495,-58.5496178,-179.1374054
6590,10.0891142,-0.3519458,9.4139528,11.3206110,-12.1679392,30.3664131,13.8025026,6.1219425,0.4046180,-140.4656525,-51.2061081,-217.1450348
6600,7.8720951,-0.6536137,8.2336178,9.8931293,5.9007635,15.7022905,10.8169479,6.0764527,0.9385223,-141.1526642,-52.9694672,-248.5877838
6610,6.8904772,-0.7421987,7.9702568,4.4732823,3.4656489,18.8167934,7.7787213,6.1506729,0.8283895,-146.9465637,-72.7328262,-250.1374054
6620,6.9670911,-0.7613522,8.1091194,5.8473282,2.6946564,27.4961834,4.9799142,5.9878678,0.0478838,-163.4885559,-119.4274826,-250.1374054
6630,7.2950954,-0.7733232,7.7619624,12.1526718,6.6106873,31.5267181,2.9951310,5.3294659,0.3926471,-187.2213745,-165.7251892,-250.1374054
6640,7.5009956,-0.5602403,7.3310080,18.4427490,8.5419846,28.5725193,0.5889706,4.5298066,2.0350611,-206.4961853,-175.9389343,-250.1374054
6650,7.5919747,-0.1891410,6.6055689,18.9694653,5.8625956,24.0152664,-2.6288199,3.6391680,5.2360926,-206.9770966,-138.9084015,-250.1374054
6660,7.8218169,0.0000000,6.1243367,13.1526718,3.5954199,18.4198475,-7.6829538,2.9137285,9.5839405,-179.0915985,-35.2595406,-247.1145020
6670,7.8026633,0.0981618,5.9878678,4.9541984,3.4274809,12.6335878,-16.8191814,4.9248476,15.9357252,-119.8244247,112.7480927,-183.5725250
6680,7.6470413,-0.0119709,5.9950504,-2.7557251,2.3740458,7.8549619,-19.6131992,6.4068508,19.5796814,-39.5877876,202.6641235,-82.0839691
6690,7.5297260,-0.1628049,6.2823529,-8.6946564,1.2977099,4.4885497,-19.6131992,4.7333126,19.5054607,38.4427490,186.7862549,14.5954199
6700,7.3764977,-0.2561783,6.5433197,-12.3893127,1.1145039,2.8625953,-17.1112728,8.1043310,19.0601425,107.5038147,164.1832123,66.8778610
6710,7.2496057,-0.2059003,6.7109132,-14.5954199,1.0152671,3.1145039,-13.4098549,6.9958215,16.3283730,154.3129730,157.4045868,106.7099228
6720,7.2448173,-0.2896969,7.0389171,-17.1908398,-1.9007634,3.9389312,-9.8185711,7.2663651,13.0698805,181.0152740,147.6946564,133.1221313
6730,7.3860745,-0.4237715,7.1203194,-18.3893127,-5.2061067,3.2519083,-6.7348547,7.4004397,10.2136126,201.0152740,126.2519073,142.1145020
6740,7.3812861,-0.5362985,7.3381906,-16.9465656,-6.7709923,1.7404580,-5.1762376,7.4626884,6.6127515,209.8778687,100.6030502,141.5572510
6750,7.3717093,-0.5267217,7.5776095,-14.6870232,-10.0076332,0.5267175,-4.3454537,8.0205345,2.6982515,204.2900696,73.2213745,138.6564941
6760,7.4148049,-0.4884146,7.5847921,-11.6488552,-14.3740454,-0.9694657,-3.4165084,8.6071110,-0.9983770,182.8625946,38.7557259,139.1068726
6770,7.3669209,-0.5195391,7.6781654,-8.8473282,-15.8320608,-2.7633588,-2.7509236,8.9829988,-3.7923961,156.4503784,7.2061067,143.3816833
6780,7.3094602,-0.6129125,7.6087341,-7.7786260,-14.6564884,-4.7251906,-1.5705882,9.3947992,-5.1618724,131.2900696,-9.5496187,153.7480927
6790,7.2687593,-0.5841822,7.6350703,-8.0916033,-9.3206110,-4.9541984,0.0574605,9.4833841,-6.2512288,110.5877838,-12.0152674,165.8702240
6800,7.1322904,-0.6248835,7.6087341,-9.6106873,-2.5572519,-3.6259542,2.4157372,9.4235296,-7.6183109,91.0916061,-22.7633591,175.0686951
6810,7.0772243,-0.6560079,7.5225434,-10.6488552,3.2442749,-3.1908398,5.7556314,9.3445215,-9.4043760,63.7404594,-61.4351158,171.9847260
6820,7.0413113,-0.6368544,7.6015515,-10.5877867,7.1908398,-3.0458016,10.1441803,9.0141230,-10.9031391,28.3206100,-116.0992355,150.2824402
6830,7.0221577,-0.4501076,7.6901364,-10.0992365,9.7404585,-3.1145039,14.1951494,8.5688038,-11.3843708,-5.6793895,-158.1068726,114.2137375
6840,6.9527264,-0.4429250,7.6398587,-10.0076332,11.8091602,-3.2519083,17.7146072,8.4826136,-11.1952295,-36.9236641,-158.9389343,67.9236679
6850,6.8497758,-0.3447633,7.4315639,-10.2900763,14.3740454,-2.5267177,19.6108055,8.4897957,-10.2591019,-64.3129807,-123.5267181,16.0763359
6860,6.6821828,-0.2705434,7.5488791,-10.6641226,15.9694653,-2.9923663,19.6126022,8.3916340,-8.9734221,-87.8778610,-79.3893127,-35.6488533
6870,6.5050125,-0.2178712,7.5656385,-10.4427481,17.2366409,-2.8244274,19.0146523,8.5209198,-7.2256637,-107.5725174,-49.8320618,-84.5190811
6880,6.1554613,-0.0790083,7.4507174,-9.8854961,17.3206100,-2.2213740,17.4584293,8.8656836,-5.3103123,-124.1297684,-34.4961815,-130.0992432
6890,6.0142040,0.0574605,7.4650826,-9.0839691,14.8396950,-0.1908397,15.6843348,8.5592270,-3.5553713,-133.8167877,-31.1679382,-167.6641235
6900,5.9806852,0.0574605,7.3070664,-8.3664122,10.1297712,3.0076337,13.7737722,8.3102312,-1.9943599,-136.2748108,-24.4274807,-199.8091583
6910,6.2967181,-0.1963235,7.3477674,-7.4503818,4.3893127,6.0000000,12.1241751,7.8697009,-0.4884146,-131.2671814,-10.0839691,-228.9770966
6920,6.4403696,-0.5243275,7.3190370,-6.9618320,-1.9770992,8.1068707,10.0579901,7.0413113,0.4165890,-121.8167953,2.7328243,-250.1374054
6930,6.6558466,-0.8236012,7.3764977,-6.3358779,-8.6641226,9.0000000,7.8816719,6.1698260,0.7876883,-113.9618301,16.1221371,-250.1374054
6940,7.0437055,-1.1180865,7.5057840,-5.1068702,-14.8091602,8.9389315,5.5281835,5.3007355,1.2425843,-109.1297684,21.3740463,-250.1374054
6950,7.5225434,-1.4700323,7.5776095,-3.4427481,-16.3358784,7.9160304,2.8419030,4.3167233,1.9680238,-105.9923630,12.4580154,-250.1374054
6960,7.7164726,-1.7357874,7.4507174,-2.1068702,-13.3893127,6.8549619,0.1364688,3.4452386,2.8419030,-103.3053436,-10.6641226,-250.1374054
6970,7.7643566,-1.7645177,7.3717093,-1.9083970,-8.4045801,5.8778625,-2.5306582,2.5761478,3.5912843,-101.9236679,-34.2748108,-250.1374054
6980,7.7404146,-1.7262106,7.2567883,-2.2595420,-3.0229008,5.5648856,-5.2839761,2.1930776,5.0517397,-99.5725174,-32.4045792,-250.1374054
6990,7.7691450,-1.7429699,7.3381906,-1.6106870,1.0916030,4.6793895,-9.7108326,2.2050486,7.5584559,-86.5801544,7.5648856,-250.1374054
7000,7.7428088,-1.6065011,7.2567883,-0.9236641,4.2519083,3.5572519,-16.1200771,3.1986370,10.0196829,-57.3435097,69.2213745,-250.1374054
7010,7.5009956,-1.3718705,7.2615767,0.1832061,5.3053436,2.8854961,-19.6131992,4.8338685,12.1433287,-15.5038166,142.6106873,-180.6106873
7020,7.6278877,-1.1300575,6.9335728,1.1679389,4.9694657,1.7404580,-19.6131992,6.7252784,13.7761660,34.8854980,210.4503784,-68.1679382
7030,7.5033898,-0.8331779,6.8545642,0.7480916,3.5190840,-0.4580153,-19.6131992,6.9120250,13.0459385,86.8778610,246.7175598,66.4885483
7040,7.3812861,-0.7493813,6.7252784,-1.0610687,0.3816794,-3.0763359,-19.6131992,6.2177100,9.8018112,127.1679382,250.1297760,174.7862549
7050,7.3310080,-0.6679789,6.6702118,-4.8396945,-2.7022901,-5.3358779,-19.6131992,5.5281835,5.9280128,142.8320618,250.1297760,234.7938995
7060,7.2855186,-0.7469871,6.8665352,-8.6183205,-3.7938931,-7.0152674,-18.1240139,5.3534074,2.5833304,132.0610657,250.1297760,250.1297760
7070,7.0484939,-0.7398046,6.9192076,-12.1603050,-4.1145039,-8.2137403,-14.5997677,5.9998388,-0.1771700,106.3740463,220.9389343,250.1297760
7080,6.8306227,-0.6943150,7.1658092,-14.1603050,-4.6030536,-8.6030531,-11.7842007,6.4571290,-1.2641320,73.7938919,148.5877838,250.1297760
7090,6.6893654,-0.7302278,7.3621325,-14.9083967,-3.9618320,-9.1450386,-8.7699156,6.6223278,-1.5753766,43.4809151,77.1221390,250.1297760
7100,6.4619174,-0.8427547,7.5704269,-14.8015270,-3.8473282,-8.0229006,-5.7029591,6.6319046,-1.2138541,20.8625946,18.4732819,250.1297760
7110,6.3350253,-0.8283895,7.6685886,-13.4885492,-4.3282442,-5.5648856,-3.1052637,6.5672617,-0.7565638,6.2213740,-19.5877857,250.1297760
7120,6.2392578,-0.7948709,7.8697009,-11.9770994,-5.5114503,-2.2519083,-0.4548960,6.6773944,0.2154770,2.7709923,-34.1832047,250.1297760
7130,6.6031747,-0.8930327,7.8074517,-0.6488550,-3.2519083,11.4656487,10.5655584,6.1410961,-2.2936335,22.1832066,-0.5038168,217.0610657
7140,6.8186517,-0.9864060,7.7595682,1.1221374,-3.3435113,12.1297712,14.1041698,5.7723908,-3.4165084,14.6488552,-30.2824421,180.8167877
7150,6.9551206,-0.9696468,7.6087341,2.3282442,-3.2519083,11.8702288,17.1807041,5.8106980,-3.8450682,5.0076337,-48.0763359,131.3740387
7160,7.0365229,-1.0941446,7.5225434,2.7862597,-1.9389313,11.3435116,19.6126022,5.8825235,-4.3981261,-5.4198475,-44.0534363,71.8549652
7170,7.1514440,-1.1013272,7.2927012,2.4580152,-0.3969466,10.9770994,19.6126022,6.0094156,-5.1307478,-19.6946564,-14.3816795,6.4580154
7180,7.0508881,-1.2401901,7.2328463,1.7404580,0.3969466,10.8320608,19.6126022,6.3446021,-5.0541339,-42.6259537,-0.5038168,-58.6030540
7190,7.0245519,-1.2377959,7.1131368,1.1068702,-0.2748092,10.9923668,17.6044750,6.0956063,-3.8139439,-67.3587799,-28.7633591,-116.3587799
7200,7.0724359,-1.2569494,7.0963774,0.9541985,-1.8854961,10.5190840,15.5574427,5.8106980,-2.3175755,-87.5496216,-69.6259537,-163.8702240
7210,7.0053983,-1.2737088,7.1059542,1.0229008,-3.8396947,9.8015270,13.8647509,5.5736732,-0.8954269,-100.3816757,-92.3206100,-203.8015289
7220,6.8210459,-1.2234308,7.1203194,1.0992366,-6.7404580,10.9389315,12.1553001,5.0780759,0.7110743,-102.9847336,-93.6030502,-236.4045868
7230,6.7659793,-1.2617378,7.1035600,1.0916030,-10.0229006,12.3358774,10.1872759,4.7357068,2.2457497,-98.1526718,-86.5877838,-250.1374054
7240,7.1251078,-1.2617378,7.0460997,1.1984733,-10.4656487,12.8167934,8.0756006,4.4819226,3.0813217,-88.9847336,-78.9923630,-250.1374054
7250,7.2567883,-1.1061156,7.1035600,1.0992366,-12.2824430,12.0534353,5.8322453,4.1730723,3.6750808,-79.6183243,-72.1679382,-250.1374054
7260,7.3118544,-0.9744351,7.1705976,1.0992366,-15.5038166,10.5954199,3.3063757,3.6583214,4.5585365,-70.2519073,-67.4961853,-250.1374054
7270,7.5728211,-1.0845678,7.3836803,1.5419847,-15.8167934,9.6259546,-0.0718257,3.2776453,5.0349803,-58.5267181,-66.7862625,-250.1374054
7280,7.8697009,-1.0630201,7.2783360,2.0381680,-12.8091602,8.9465647,-4.6519103,3.2201848,5.0373745,-44.2748108,-68.7175598,-250.1374054
7290,7.9199786,-1.0821736,7.2184811,1.0687023,-9.4580154,6.8702292,-9.1314383,3.5386121,4.5417776,-32.2824440,-68.6335907,-250.1374054
7300,7.9511032,-1.0007712,7.2376347,-0.8549618,-6.2061067,4.1908398,-15.2342272,4.5106530,3.9623835,-22.7862587,-46.5877876,-250.1374054
7310,7.8313937,-0.9744351,7.3717093,-2.1908398,-1.6946565,1.4045801,-19.6131992,7.2400289,3.8594334,-11.7175570,3.6641221,-223.5801544
7320,7.6901364,-1.0678085,7.4219875,-2.2061069,2.8473282,-1.4351145,-19.6131992,9.0811605,3.8283088,-3.2137403,48.9389305,-126.2213745
7330,7.3908629,-1.0223188,7.4267755,-1.7633588,4.6793895,-3.1297710,-19.6131992,9.6174593,4.2281384,2.7175572,61.3206100,-22.2137413
7340,7.1945391,-1.0462608,7.4076223,-0.7709923,4.0610685,-3.7404580,-19.6131992,9.2679071,5.2983413,14.0458012,59.0763359,65.0076370
7350,6.9383612,-1.0175306,7.2879128,0.5572519,3.1984732,-2.9847329,-19.6131992,8.7675219,6.0836353,30.8931293,64.7862625,127.9847336
7360,6.8282285,-1.0654143,7.2400289,1.5877863,2.2061069,-1.7328244,-18.7824154,8.2072811,6.2799587,46.5572510,65.0839691,170.4427490
7370,6.6821828,-1.0821736,7.1275020,2.3816793,1.4580153,-0.1832061,-14.5566721,8.1115141,6.1387019,59.4732819,53.4732819,195.2213745
7380,6.6510582,-1.1563935,6.9551206,0.8015267,-1.7786260,6.0229006,-5.7005649,7.8409705,4.3933377,81.5954208,-12.9465647,199.5572510
7390,6.6989422,-1.2282192,6.9503322,0.2748092,-3.2595420,7.3664122,-3.9192882,7.8242111,3.3758070,82.8778610,-39.9541969,192.9236603
7400,6.8976598,-1.2737088,7.0197635,-0.3282443,-3.8320611,8.3587790,-2.5881188,7.8242111,2.6383967,84.5496216,-61.2977104,185.9007568
7410,7.0053983,-1.3431402,7.0508881,-0.8091603,-3.2900763,9.7022905,-1.6998745,8.0253229,1.8363433,87.4274826,-68.6870193,183.8625946
7420,7.1107426,-1.3598996,7.1298962,-1.4274809,-3.2748091,10.2900763,-0.8427547,8.1713686,0.9433106,90.4732819,-67.7557220,185.7099304
7430,7.3142486,-1.4006008,7.0987716,-1.5648855,-3.4656489,10.2748089,0.0047884,8.1498213,-0.2466015,98.7633591,-63.0687027,190.9923706
7440,7.4195933,-1.2473727,7.1921453,-1.2213740,-4.2137403,9.3740454,0.8786675,8.0348997,-1.7022687,103.2442780,-46.7557259,198.8702240
7450,7.5153608,-1.2473727,7.1873569,-0.6946565,-4.5496182,7.7786260,1.7525467,7.9127960,-2.9328821,106.2519073,-21.7709923,208.3587799
7460,7.4674768,-1.1587877,7.1251078,-0.0610687,-5.0381680,5.8778625,2.9041519,7.8242111,-4.3502421,105.5572510,2.5725191,217.1068726
7470,7.2903070,-1.1994889,7.0748301,-0.3206107,-3.2900763,5.0687022,5.7197185,7.4028339,-6.9599090,86.1068726,19.0839691,223.5648804
7480,7.2639709,-1.2186425,7.0341287,-1.0916030,-3.0152671,5.5267177,7.3980455,7.4818420,-7.6278877,65.6946564,10.6564884,216.7099304
7490,7.3453732,-1.2617378,6.9670911,-2.1526718,-3.2061069,5.3664122,9.5336628,7.3501616,-8.3940287,40.8244286,-19.2900772,200.9389343
7500,7.3118544,-1.2497669,7.0365229,-2.8702290,-3.6183207,4.4809160,12.4521790,6.8497758,-9.3469152,10.6412210,-62.8854980,172.8549652
7510,7.2903070,-1.2784972,7.1203194,-3.3587787,-3.9083970,3.8015268,14.6859579,6.9192076,-9.3995876,-20.9160309,-91.7404556,134.5419922
7520,7.2424231,-1.3287752,7.1179252,-3.2061069,-5.0534353,3.5114503,16.0003681,6.9263902,-8.7579451,-45.6564903,-93.6793900,93.9770966
7530,7.2184811,-1.3598996,7.0724359,-2.8320611,-5.9083967,3.4274809,17.1160603,6.7755561,-8.1067257,-61.2137413,-73.5877838,51.6488533
7540,7.1251078,-1.4197544,7.0844064,-2.7862597,-6.7099237,3.5572519,17.2812595,6.7420373,-7.1227136,-71.7633591,-41.0992355,6.1297708
7550,6.9431496,-1.4556671,7.1370788,-2.9465649,-6.9465647,3.5496182,16.3714676,6.8593526,-6.3206601,-81.1908417,-15.1755724,-36.9236641
7560,6.7683735,-1.3287752,7.1131368,-2.5648854,-5.5343513,4.7480917,15.2198620,6.7731619,-5.5473371,-92.1374054,-6.8854961,-75.1755753
7570,6.6486640,-1.3790531,7.0173693,-2.5496182,-3.9007633,6.8473282,14.0419216,6.6414814,-4.5154414,-102.1755753,-5.2671757,-110.9770966
7580,6.6366930,-1.4221486,7.0508881,-2.7557251,-3.1679389,9.3587790,12.8089132,6.4499464,-3.5553713,-109.7633591,-4.0763359,-143.1297760
7590,6.7707677,-1.4293311,6.9958215,-2.8091602,-4.0763359,11.9770994,11.4633789,6.1315193,-2.6719155,-114.4580154,0.0610687,-171.6412201
7600,6.9503322,-1.4652439,7.0724359,-2.7328243,-6.4045801,13.8015270,10.1561518,5.7077475,-1.8387375,-116.8702316,3.6259542,-197.0763397
7610,7.2735476,-1.4532729,7.1658092,-1.8396946,-7.9694657,14.8778629,9.0021524,5.3581958,-1.0462608,-118.8702316,3.9236641,-220.1450348
7620,7.4770536,-1.3598996,7.2639709,-0.7175573,-9.2671757,14.3587790,7.9511032,4.8410511,-0.2418131,-120.4122162,-0.0763359,-244.4809113
7630,7.6398587,-1.3144100,7.2735476,-0.0763359,-9.4122133,12.5877867,6.9886389,4.3598189,0.6871324,-120.7633591,-7.5190840,-250.1374054
7640,7.7140784,-1.3575054,7.3142486,0.5877863,-8.0839691,10.5343513,5.9806852,3.8905578,1.6855093,-118.4961853,-14.3893127,-250.1374054
7650,7.6566176,-1.3790531,7.3166428,0.7633588,-5.7938933,9.3816795,4.4364328,3.2201848,2.7365584,-113.6717529,-15.0458012,-250.1374054
7660,7.7021074,-1.4029950,7.3262196,1.4198474,-4.2061067,7.9236641,2.5210814,2.6958573,3.6367738,-106.5572510,-11.3664122,-250.1374054
7670,7.6733770,-1.3598996,7.3142486,2.3969467,-2.2137403,7.0000000,0.0957676,2.4133430,4.7716198,-96.5954208,-7.1679387,-250.1374054
7680,7.5704269,-1.4532729,7.2711535,3.5114503,0.5954198,6.0229006,-2.9041519,2.1930776,5.7197185,-82.3511429,-2.7557251,-250.1374054
7690,7.3932571,-1.4604555,6.9144192,5.0534353,3.8473282,4.3740458,-12.5934362,3.6008608,7.4243813,-38.1755714,21.1755733,-250.1374054
7700,7.2711535,-1.5059452,6.7396431,4.7022901,3.0152671,4.1450381,-17.9348736,5.3773494,7.9295554,-13.7862597,34.1908379,-250.1374054
7710,7.2089043,-1.6759326,6.4906478,1.3511450,-0.6946565,4.9618320,-19.6131992,7.4722652,7.7475972,30.3129768,36.8625946,-116.8244247
7720,7.2160869,-1.6328372,6.5002246,-0.6335878,-2.9923663,5.3587785,-19.6131992,7.7523856,7.1634150,49.8854980,39.4198456,-43.6412201
7730,7.3166428,-1.6208663,6.7372489,-2.1450381,-4.6106873,5.3129773,-19.6131992,7.6015515,6.4882536,66.9083939,49.4122124,18.1145039
7740,7.5033898,-1.5801650,6.8330169,-3.0763359,-5.5725193,4.6488547,-18.7656574,7.5608501,5.6766233,80.6335907,55.3511467,62.0228996
7750,7.6997132,-1.5610116,7.0460997,-3.2442749,-5.6335878,3.5038168,-16.3068237,7.7739329,5.3725610,89.6564865,51.8625946,91.0687027
7760,7.6709828,-1.5155219,6.9886389,-3.0305343,-5.4809160,1.8396946,-14.0538921,8.1426382,4.9918852,93.4351120,35.1832047,108.1526718
7770,7.7021074,-1.5753766,7.0676475,-3.3206108,-4.7022901,0.3358779,-12.1648769,8.2958660,4.8266859,94.8473282,5.9389315,116.8931274
7780,7.6015515,-1.4891858,6.9958215,-3.4274809,-3.1221373,-0.8167939,-10.2495251,8.4036045,4.4292507,95.8549652,-22.1908398,120.0916061
7790,7.5560617,-1.5418580,7.0269461,-3.5648854,-1.7480916,-1.4961832,-9.3660688,8.5352850,4.2999644,97.3282471,-35.8778610,122.9542007
7800,7.4267755,-1.5083394,7.0844064,-3.2213740,-0.8015267,-1.9847329,-8.8824425,8.4179697,4.0366035,100.1679382,-46.0763359,130.0534363
7810,7.3238254,-1.4484847,7.1179252,-2.6030533,-0.1832061,-2.3664122,-8.2527714,8.2168579,3.7109938,106.9542007,-56.3511467,138.4045868
7820,7.1179252,-1.4556671,6.9982157,-1.6946565,0.1755725,-2.2671757,-7.2615767,7.9941988,2.7964132,116.9770966,-64.7099228,147.3511505
7830,6.9527264,-1.5011568,6.9934273,-1.5114504,-0.4122137,-1.0916030,-5.6263452,8.1833391,1.0486550,125.5572510,-55.0458031,157.1068726
7840,6.4619174,-1.5346755,6.7276726,-2.1603053,-1.0763359,3.3435113,-3.5098817,8.9542685,-2.4205256,132.7328186,-8.8091602,180.4961853
7850,6.2847471,-1.4724265,6.6917596,-3.0687022,-0.1832061,6.5648856,-2.3295465,9.1649570,-4.6519103,128.8396912,7.7633586,193.7557220
7860,6.0261750,-1.5538290,6.6366930,-3.9923663,1.6641221,10.4885492,-0.1891410,9.3205795,-7.2567883,116.3587799,10.9312973,203.5190887
7870,5.7269011,-1.7118455,6.5457139,-5.0152674,2.9770992,14.9770994,2.6192431,9.3277617,-10.0555954,91.3664093,-4.0229006,202.1908417
7880,5.5138183,-1.9584470,6.5409255,-5.9389315,-0.4503817,19.8320618,5.1355362,8.8944139,-12.2869806,59.1603050,-41.4427490,191.9313049
7890,5.3653784,-2.1835008,6.5792327,-5.8244276,-6.9694657,27.4732819,8.2503767,8.8369532,-13.8910875,18.3664131,-82.7862625,172.4732819
7900,5.5425487,-2.3678534,6.5648675,-5.2137403,-14.5190840,35.9083977,12.5048513,8.4059992,-15.1145182,-19.7404575,-108.4503784,138.6564941
7910,6.0429344,-2.5282640,6.6606350,-4.2824426,-20.1908398,43.9389305,16.2086620,7.9391322,-16.1631737,-57.5801544,-102.9236679,92.0839691
7920,6.8497758,-2.4253139,6.8521700,-3.3664122,-21.8396950,50.1908379,18.0665531,7.9127960,-16.1416245,-99.5190811,-76.7862625,35.9389305
7930,7.6039457,-2.1116750,6.9886389,-2.2977099,-23.1221371,53.0839691,17.4225159,7.7835097,-14.8607340,-143.9923706,-59.7099228,-18.0839691
7940,8.2599535,-2.0302727,6.8378053,-2.3053436,-23.0763359,49.4503822,15.5119534,7.2759418,-12.2582502,-183.8549652,-70.3358765,-65.1603088
7950,8.4562769,-1.8794388,7.0365229,-3.5190840,-22.1297703,42.8778610,14.1400833,6.8042865,-9.7156210,-215.1755676,-91.7328262,-101.6641235
7960,8.6023226,-1.9560528,7.0053983,-4.4656487,-18.9083977,37.3816795,13.4792862,6.3278427,-6.8904772,-235.9236603,-98.0152664,-132.7709961
7970,8.5041609,-1.9656296,7.0844064,-5.0992365,-12.8015270,33.7862587,12.4761209,5.4779053,-4.1299767,-243.9389343,-86.8396912,-163.2519073
7980,8.4012108,-1.8842272,7.2711535,-4.8396945,-6.7175574,30.2824421,11.1832590,4.8266859,-1.9608412,-242.1145020,-62.1068687,-190.8778687
7990,8.2838955,-1.8914096,7.2352405,-3.9923663,-2.3358779,26.1297703,9.4235296,4.0054789,0.1532281,-233.9313049,-28.7633591,-218.1145020
8000,8.0612354,-2.0494261,7.1729918,-3.2519083,0.9389313,22.8625946,7.1945391,3.6008608,2.7724714,-219.5419922,17.0534344,-241.4427490
8010,7.7499914,-2.2313845,7.0772243,-2.8931298,3.0076337,21.2900772,3.8737986,3.0214672,5.8849177,-192.6106873,81.2213745,-250.1374054
8020,7.5536675,-2.2457497,6.9838505,-2.4961832,3.3358779,20.9236641,-1.4532729,0.8930327,8.8728657,-152.3358765,162.4580078,-250.1374054
8030,7.3645267,-2.4564383,6.9718795,-1.8167939,3.2137403,20.8931293,-6.6654234,3.1387823,12.5694942,-96.8396912,244.6870270,-238.0000000
8040,7.2927012,-2.4636209,6.8593526,-0.4503817,2.9923663,20.7557259,-15.4066095,4.4914994,15.7202482,-15.9923668,250.1297760,-199.3816833
8050,7.2424231,-2.5091105,6.7587967,0.8549618,1.2748091,20.0992374,-19.6131992,6.1339135,15.8854465,65.3358765,250.1297760,-128.3129730
8060,7.2759418,-2.5881188,6.7252784,1.7633588,-1.5343511,19.9770985,-19.6131992,7.8816719,11.7698355,107.4885483,250.1297760,-43.6488533
8070,7.2807302,-2.6886747,6.6630292,2.0305343,-4.4732823,19.4809170,-19.6131992,9.3804340,7.3932571,115.9236679,235.3435059,47.0381660
8080,7.5105724,-2.7054341,6.6199336,1.5648855,-6.3969464,18.5801525,-19.6131992,9.4426832,5.1618724,118.1221390,223.1984711,116.9465637
8090,7.7188668,-2.7317703,6.5528965,0.6412213,-7.5954199,16.7938938,-19.6131992,8.9590569,3.1914546,116.1603088,218.9236603,175.6717529
8100,7.7547798,-2.6719155,6.6127515,-0.1908397,-8.0916033,14.3358774,-19.6131992,8.8800488,0.7541697,101.7328262,211.4198456,223.8167877
8110,7.8242111,-2.6623387,6.6055689,-0.2824427,-6.2595420,12.2519083,-19.6131992,9.2535419,-0.8954269,77.3893127,187.5572510,250.1297760
8120,7.7212610,-2.6527619,6.5576849,0.0839695,-3.9465649,10.5877867,-15.9907913,9.0859489,-1.6041069,55.6870232,123.9694672,250.1297760
8130,7.6638002,-2.6288199,6.6295104,-0.0534351,-1.3893130,9.2671757,-12.5359764,8.5855637,-1.8746504,38.9618340,45.8549614,250.1297760
8140,7.5584559,-2.4229198,6.5912037,-0.7022901,-0.0458015,7.5114503,-8.5185261,8.1665802,-1.8291607,25.2290077,-19.6030540,250.1297760
8150,7.4579000,-2.3965836,6.5313487,-1.2519084,0.5343512,6.0152674,-4.4603748,7.7571740,-1.9680238,13.1984730,-64.1832047,250.1297760
8160,7.3142486,-2.4372849,6.5816269,-1.8320611,0.3282443,5.1145039,-0.4668669,7.3381906,-2.2936335,0.5419847,-106.4885483,250.1297760
8170,7.1418672,-2.4396791,6.6199336,-2.0076337,-0.4198473,5.7251906,4.4340386,7.0197635,-3.3015873,-9.9541988,-138.9160309,250.1297760
8180,7.0245519,-2.4372849,6.6797886,-1.3587786,-2.1755726,6.8320613,8.7675219,6.6486640,-4.2760224,-12.9083967,-154.1450348,245.4885559
8190,6.9910331,-2.5234756,6.7971039,-0.0687023,-4.3129773,8.4656487,13.2111378,6.0381460,-5.7149301,-12.0992365,-141.3129730,218.3511505
8200,7.1466556,-2.4372849,6.7875271,1.9160305,-6.0381680,10.1755724,16.6803188,8.1546097,-6.9048424,-7.9541984,-98.6488571,178.8015289
8210,7.3381906,-2.3319404,6.8210459,3.5572519,-7.5877862,10.5954199,19.6126022,4.7620430,-9.5839405,-19.1145039,-46.7099228,137.0839691
8220,7.5393028,-2.3846128,6.7085190,4.1603055,-8.5038166,9.6793890,19.6126022,5.2720051,-11.0683374,-48.6870232,-5.4503818,72.7557220
8230,7.4100165,-2.3247581,6.6055689,4.1755724,-8.7633591,8.2824430,19.2109756,6.2895355,-9.9741936,-87.0763321,-2.6488550,14.1984730
8240,7.5297260,-2.4181314,6.6223278,3.0076337,-7.6870227,7.2977099,17.5111008,6.1937680,-8.5185261,-122.9542007,-35.6106873,-26.7099228
8250,7.6278877,-2.5282640,6.6965480,1.6717557,-5.4732823,6.3358779,16.8862190,5.3917146,-6.7971039,-153.2213745,-68.9160309,-62.5419846
8260,7.6590118,-2.6336083,6.6007805,0.8167939,-2.7786260,5.3435116,16.3211899,4.6614871,-4.6710634,-174.1374054,-84.0000000,-97.6335907
8270,7.6901364,-2.7581062,6.6414814,0.5496183,-0.9541985,3.7862597,15.2773228,4.0342093,-2.4157372,-183.4045868,-77.0763321,-130.6259613
8280,7.7140784,-2.8275378,6.5768385,0.6106870,-0.7480916,2.1679389,13.7258883,3.7229645,-0.2418131,-182.1221313,-54.0534363,-159.6793823
8290,7.6901364,-2.9328821,6.5935979,0.4198473,-1.4351145,0.5877863,12.0738974,3.3782012,1.5298871,-171.6106873,-28.0152664,-185.5114441
8300,7.6230993,-2.9113343,6.4930420,0.0381679,-1.3053435,-0.6183206,10.6493549,3.0908985,3.1675127,-157.6030579,-6.9618320,-212.0686951
8310,7.5416965,-2.9256995,6.3900914,-0.9007633,-0.5190840,-1.7328244,8.9925756,2.4708035,4.6495161,-142.2977142,15.4122133,-238.0229034
8320,7.4698710,-2.9711890,6.4283986,-1.7938931,-0.0458015,-2.5190840,6.3996682,1.9967541,6.8593526,-122.0916061,58.6946564,-250.1374054
8330,7.4938130,-2.9089401,6.3685441,-2.8473282,-0.3893130,-3.3893130,3.3255291,1.5298871,9.2319946,-89.7709961,122.0763321,-250.1374054
8340,7.3764977,-2.8490853,6.4475522,-3.8931298,-0.9541985,-3.8549619,-0.7086801,1.0103480,11.8751793,-42.9312973,189.9694672,-250.1374054
8350,7.3836803,-2.7557120,6.4571290,-4.5038166,-1.1832061,-3.6564887,-8.3365679,0.3327923,14.3866844,20.3893127,250.1297760,-250.1374054
8360,7.3070664,-2.7389526,6.5840211,-4.9312978,-0.6641222,-3.3511450,-19.6131992,1.5658000,15.9046001,98.4122162,250.1297760,-250.1374054
8370,7.3453732,-2.6982515,6.5528965,-5.2900763,0.1145038,-3.3587787,-19.6131992,5.1546898,13.5463238,167.9618378,248.3587799,-156.0381622
8380,7.3357964,-2.6958573,6.5576849,-5.5343513,0.5801527,-3.8320611,-19.6131992,8.7172441,7.7116842,176.9389343,174.3511505,-37.1221390
8390,7.2639709,-2.6503677,6.6055689,-5.6717558,0.3053435,-4.4885497,-19.6131992,7.7140784,3.5410061,154.6870270,125.2748108,48.3740463
8400,7.1155310,-2.6599445,6.4834652,-5.9389315,-0.3816794,-4.6946564,-19.6131992,7.3956513,2.4085546,133.5419922,84.1832047,114.4503784
8410,7.1346846,-2.5881188,6.6773944,-5.7633586,-1.1679389,-3.8320611,-19.6131992,6.3446021,2.4588325,125.1984711,32.1603050,162.8015289
8420,7.0939832,-2.5713594,6.6414814,-5.7022901,-0.8396947,-3.0076337,-19.5485573,6.5888095,2.4109488,118.6793900,-5.8320613,188.0763397
8430,7.0556765,-2.7245877,6.7204900,-5.5801525,-1.0610687,-2.0076337,-15.3754845,7.6757712,1.8938038,108.5419846,-30.4656487,199.2977142
8440,7.0628591,-2.6958573,6.7468257,-5.3893127,-1.2290076,-0.9083970,-12.1433287,8.1785507,1.3814473,99.5190811,-54.6564903,209.0152740
8450,7.0915890,-2.7126167,6.8018923,-4.6946564,-1.2290076,0.0534351,-8.9494801,8.1282730,0.8020535,94.8091583,-73.0229034,218.8015289
8460,7.0580707,-2.7102225,6.9383612,-3.7480917,-0.4198473,1.6106870,-5.8274570,8.1498213,-0.5674229,94.2977066,-75.9389343,230.0992432
8470,6.9814563,-2.7174051,6.9048424,-2.7938931,0.6946565,3.0305343,-2.9065459,8.0827837,-1.7333932,96.7862625,-64.2595444,243.3816833
8480,7.0245519,-2.8347204,6.8306227,-1.8854961,0.8473282,4.1679387,-0.1508339,8.0468712,-2.8778157,103.3206100,-31.2061062,250.1297760
8490,7.0341287,-2.7461352,6.7899213,-0.7404580,0.2519084,5.6488547,2.9256995,7.5847921,-4.9176650,106.9542007,-3.2290077,250.1297760
8500,7.2041159,-2.7150109,6.7204900,0.8931298,-1.9923664,7.2595420,8.8130112,6.7564025,-9.9454632,80.0152664,-25.1526718,250.1297760
8510,7.1849627,-2.7964132,6.7444315,1.3587786,-2.4885497,7.0076337,12.0906563,6.8210459,-11.9206696,44.6946564,-67.2900772,238.5954132
8520,7.2112985,-2.7078283,6.7061248,1.6564885,-2.0916030,7.2977099,14.6979294,7.8912482,-11.8967276,8.1221371,-112.3358765,204.2213745
8530,7.1921453,-2.7341642,6.6438756,1.7251909,-1.4045801,7.5725193,17.5350437,6.6797886,-11.4083128,-30.1755733,-150.8854980,167.2900696
8540,7.3669209,-2.8610563,6.5768385,1.5190840,-1.2900764,7.5343513,19.6126022,7.1275020,-9.3588867,-65.3893127,-188.8778687,109.0305328
8550,7.4602942,-2.9017577,6.5935979,1.5572519,-0.9312977,7.2290077,19.6126022,7.3788919,-6.7420373,-85.9694672,-234.1679382,52.8702278
8560,7.5776095,-2.9352763,6.4571290,1.4427481,-1.0916030,6.4045801,19.6126022,7.1705976,-4.9128766,-97.8854980,-250.1374054,-2.5877862
8570,7.5249376,-2.8634505,6.4499464,1.4045801,-1.5725191,5.3969464,19.6126022,6.5983863,-4.1850433,-105.1755753,-250.1374054,-63.2290077
8580,7.5393028,-2.9017577,6.3589673,0.6106870,-2.5496182,4.3969464,19.6126022,6.0788469,-3.7373297,-105.1068726,-245.3282471,-124.1068726
8590,7.6015515,-2.9352763,6.3709383,0.0992366,-2.6793892,3.6106870,18.2102051,5.4922705,-4.2951760,-95.5190811,-180.2900696,-173.9770966
8600,7.6566176,-2.9328821,6.4331870,-0.2977099,-2.3740458,2.8167939,14.7769375,5.1594782,-5.3917146,-84.5419846,-93.9847336,-208.5496216
8610,7.5608501,-2.8778157,6.4738884,-0.3893130,-2.7251909,1.3816794,11.0276365,5.0421629,-6.7947097,-86.3893127,-17.9160309,-233.0839691
8620,7.5201492,-2.7988074,6.5098009,-0.5496183,-3.5954199,0.4045801,8.0564480,4.3622131,-7.4986014,-110.7633591,12.4198475,-250.1374054
8630,7.3836803,-2.8586621,6.5552907,-1.0839695,-4.3893127,-0.2213740,4.8075323,3.6176202,-6.8976598,-139.5572510,-3.7099237,-250.1374054
8640,7.2950954,-2.8562679,6.5888095,-1.0229008,-4.6793895,-0.3129771,2.2218077,3.4404502,-4.9248476,-167.0992432,-27.8549614,-250.1374054
8650,7.1514440,-2.8754215,6.4882536,-1.2595420,-5.0763359,0.2061069,0.3471575,3.0717452,-2.3654592,-187.4045868,-32.8015251,-250.1374054
8660,7.0772243,-2.8993635,6.5050125,-1.6717557,-6.2595420,1.2137405,-2.1954718,1.7477583,0.8403605,-196.0229034,-8.3587790,-250.1374054
8670,6.9958215,-2.8131726,6.5720501,-1.8854961,-7.4351144,2.4274809,-6.6989422,-0.4525018,3.7301471,-188.4961853,61.4809151,-250.1374054
8680,7.0724359,-2.7796540,6.6223278,-1.7480916,-7.6030536,3.3053436,-14.5830078,3.3973548,7.4100165,-162.7328186,174.8167877,-250.1374054
8690,7.1586266,-2.8802099,6.5002246,-1.1908396,-8.1603050,3.8549619,-19.6131992,6.6247220,10.5440102,-110.5572510,250.1297760,-205.0534363
8700,7.3310080,-2.8538737,6.5576849,-0.9312977,-8.5877867,4.4961834,-19.6131992,9.8544836,12.2055779,-59.7404594,250.1297760,-78.1755753
8710,7.5177550,-2.8299320,6.6486640,-0.8167939,-9.1221371,4.5648856,-19.6131992,11.7099810,12.7825775,-19.4045811,250.1297760,67.7022934
8720,7.7308378,-2.7772598,6.5528965,-0.4122137,-8.0458012,3.3893130,-19.6131992,10.9414454,11.5806942,2.6793892,198.7786255,185.8854980
8730,7.7212610,-2.7581062,6.6414814,-0.1450382,-5.7938933,1.8015267,-19.6131992,9.2535419,10.3045912,15.8091602,123.7099228,250.1297760
8740,7.7140784,-2.8371146,6.5241661,0.0381679,-3.0763359,0.6946565,-18.2892132,8.0133524,8.9063845,35.9312973,83.7480927,250.1297760
8750,7.5895805,-2.7628946,6.5026188,0.2900763,-0.8320611,0.0152672,-12.0547438,7.3573442,7.0149751,58.3893127,71.3893127,250.1297760
8760,7.1155310,-2.6743097,6.3685441,-0.9083970,-3.3664122,2.3206108,10.3045912,7.8864598,-5.6047974,-10.3816795,-58.1221390,214.7251892
8770,7.1418672,-2.8131726,6.4547348,-1.4274809,-3.3129771,3.1984732,14.5614605,7.1610208,-6.6917596,-36.1984749,-97.1145020,176.7022858
8780,7.1370788,-2.8083842,6.5600791,-1.3511450,-2.8473282,4.3740458,17.8750191,6.8114691,-7.8337879,-57.7175560,-103.4656525,129.8778687
8790,7.2160869,-2.9568241,6.6582408,-0.9236641,-2.4580152,5.7709923,19.1583042,6.9287844,-8.2336178,-77.6183243,-86.2748108,79.7328262
8800,7.4052281,-2.9903426,6.7133074,0.1679389,-1.4122137,6.0687022,19.6126022,6.9239960,-8.0708122,-98.3893127,-75.3587799,33.5954208
8810,7.4914188,-2.9328821,6.6558466,1.1450381,0.1450382,5.8320613,19.6126022,6.7994981,-6.9455438,-118.5954208,-67.1297684,-12.2824430
8820,7.5488791,-2.8945751,6.5576849,2.1297710,1.8091604,4.7175574,19.1894283,6.5552907,-5.1642666,-133.8396912,-65.9618301,-56.3511467
8830,7.4411407,-2.8514795,6.3422079,2.3511450,1.5267175,3.5190840,18.5525742,6.3422079,-3.3375001,-141.9770966,-64.2519073,-95.7404556
8840,7.4171991,-2.9687948,6.1746144,1.7557251,-0.1603053,2.6641221,17.7816448,5.9232249,-1.5562232,-141.5114441,-58.0916023,-135.7557220
