timestamp,rxacclX,rxacclY,rxacclZ,rxgyroX,rxgyroY,rxgyroZ,txacclX,txacclY,txacclZ,txgyroX,txgyroY,txgyroZ
0,10.5009146,-1.6855093,8.7004843,26.5725193,-24.5038166,123.7862625,-2.3056045,1.6591733,10.2710724,-1.0763359,-4.7099237,-3.0152671
10,11.4346485,-1.3287752,8.5281029,41.5114517,-27.7099228,108.9007645,-2.1978660,1.6304430,10.2614956,-0.4122137,-4.2824426,-3.3816793
20,12.3300753,-1.0630201,7.8266053,71.1526718,-22.6870232,70.7557220,-2.3127871,1.6208663,10.2375546,0.5496183,-3.6488550,-3.0381680
30,12.5982246,-1.0821736,7.1275020,78.6641235,-16.0763359,51.1832047,-2.2625091,1.6639616,10.1130562,0.4122137,-3.9770992,-2.9770992
40,12.6628675,-1.1037214,6.5145893,81.4732819,-6.8778625,29.9694653,-2.2984219,1.5993185,10.0795374,-0.4580153,-3.9770992,-3.1221373
50,12.6580801,-1.1061156,5.9735026,80.5419846,3.0000000,9.3969469,-2.2313845,1.6112895,10.2064295,-0.0229008,-5.7633586,-3.1832061
60,12.5096397,-1.1348459,5.5808558,78.4656525,11.8625956,-10.2290077,-2.2002602,1.6639616,10.1130562,-0.4732825,-5.1832061,-3.2519083
70,12.3588057,-1.0414724,5.1475072,76.0229034,17.3282452,-28.0458012,-2.2720859,1.6424140,10.1298151,-1.6183206,-5.2519083,-3.9618320
80,12.3348637,-0.8475431,4.7476778,73.2061081,18.3969460,-47.3893127,-2.2864509,1.6783268,10.1010857,-1.9694656,-5.6793895,-3.9465649
90,12.2893744,-0.6081241,4.5034704,70.2519073,18.6793900,-67.9312973,-2.3079987,1.6639616,9.9981356,-3.6030533,-6.0839696,-4.4503818
100,12.0260134,-0.5482694,4.0677280,64.7328262,18.8625946,-86.8396912,-2.2649033,1.5179161,10.2495251,-3.6259542,-7.9541984,-3.2137403
110,11.4466200,-0.6057299,3.7109938,57.0076332,18.6412220,-103.0152664,-2.1188576,1.5945302,10.2231894,-2.6106870,-6.6030536,-3.5877862
120,11.2957859,-0.6129125,3.5577655,48.1374054,17.9083977,-117.8854980,-2.2553265,1.5634058,10.2974091,-2.5572519,-6.6335878,-4.0839696
130,11.2407198,-0.3256098,3.6966286,43.1068687,14.6870232,-133.8549652,-2.3199697,1.6711442,10.4195127,-2.0534351,-5.9389315,-4.2671757
140,11.1234045,-0.1675933,4.0820932,44.5954208,2.8244274,-152.2290039,-2.3894010,1.6304430,10.4793673,-0.5877863,-4.5114503,-3.2519083
150,11.2335367,0.0526722,4.3286943,46.7022896,-13.8244276,-171.0610657,-2.2720859,1.5681942,10.4003592,0.7022901,-2.8549619,-1.5190840
160,11.0659437,0.0359128,3.9623835,47.8244286,-23.1984730,-188.5038147,-2.2194135,1.5107336,10.3093796,1.9847329,-1.9923664,-1.4732825
170,10.5511932,0.0095768,3.7133877,43.6870232,-30.2366409,-198.9618378,-2.1284344,1.6065011,10.2207947,2.1145039,-1.2595420,-1.8396946
180,9.8808203,0.0622489,3.3231349,34.2595406,-33.3664131,-201.3206177,-2.1332228,1.5203103,10.3309278,2.4351146,-1.3969465,-3.1603053
190,8.7651272,0.0574605,3.1507533,20.0000000,-35.0534363,-193.3816833,-2.3247581,1.6112895,10.4434547,3.8473282,-0.3282443,-2.8549619
200,7.6398587,-0.1867468,2.9472473,-0.1755725,-36.6335869,-175.4656525,-2.3989778,1.5418580,10.5990763,6.5343513,1.4351145,-1.7175573
210,6.6582408,-0.7350162,2.7916248,-26.1297703,-37.0000000,-150.2671814,-2.3151813,1.6017127,10.5871058,8.6335878,3.9160306,-0.9236641
220,5.9304070,-0.9959828,2.9664006,-49.2213745,-33.1068687,-122.2213745,-2.4396791,1.5897418,10.7139978,11.4503813,7.4503818,-0.2442748
230,5.5138183,-0.6584021,3.8905578,-62.6946564,-23.6259537,-98.1297684,-2.6048782,1.5969244,11.1401634,17.5038166,13.5572519,1.3587786
240,5.2791877,-0.5243275,4.5561423,-66.6106873,-18.8778629,-80.4274826,-2.8179610,1.6567791,11.3269100,23.7480907,20.0458012,3.9083970
250,5.0349803,-0.2681492,4.9320302,-64.8549652,-20.6793900,-67.7175598,-2.7796540,1.6591733,11.3053627,30.5267181,25.8854961,7.0381680
260,4.9440012,0.0335187,5.2241216,-59.9389305,-29.3740463,-56.8167953,-2.6671271,1.5179161,11.1329813,37.3129768,31.6641216,9.3282442
270,4.9990678,0.2705434,5.3127065,-54.9389305,-39.0228996,-45.0687027,-2.7030399,1.7070571,10.7858238,41.2137413,37.8167953,10.0152674
280,4.9368186,0.4237715,5.3031297,-51.3129768,-47.3587799,-30.9618320,-2.9065459,1.8650736,10.3955708,41.3893127,41.2748108,10.9770994
290,4.7069764,0.3782819,5.2983413,-49.9160309,-52.0839691,-12.8167934,-3.1339941,1.7980363,10.3979645,42.3282433,39.2748108,11.7862597
300,4.5034704,0.1771700,5.3581958,-51.3664131,-52.8396950,8.7022905,-2.8873925,1.9440818,10.1106625,43.1297722,42.0076332,13.0076332
310,4.7021880,0.1029501,5.5114241,-54.3282433,-49.4045792,30.1908398,-2.9975252,2.1212518,9.7611103,42.4198456,42.0000000,14.8625956
320,5.2528515,0.1604107,5.9854736,-54.0228996,-45.6870232,48.2671738,-2.9687948,2.2146254,9.4953556,40.2595406,37.9694672,14.4122133
330,6.3996682,0.5769997,6.7468257,-48.1984749,-39.7480927,60.1145020,-2.8754215,2.2385671,9.3373384,36.5801544,34.0916023,13.5267172
340,7.4698710,0.9050036,7.7236552,-37.0381660,-39.7786255,66.2824402,-2.9400647,2.2816625,9.4331064,33.0763359,30.8091602,12.8702288
350,8.5496502,1.4077834,8.3964224,-21.4045811,-46.4503822,66.8778610,-3.1124463,2.2265961,9.2056589,30.0839691,25.2519093,11.8015270
360,9.2846670,1.7142396,8.6789370,-4.2137403,-52.3129768,63.8091621,-2.9711890,2.3941894,8.9399033,26.0763359,18.4885502,10.9618320
370,10.2591019,1.8052188,8.6573887,12.0076332,-51.7862587,59.2671738,-2.8347204,2.5330524,8.8321648,20.0763359,15.4427481,8.5572519
380,10.7834291,1.8483143,8.1115141,25.1526718,-36.8167953,52.6412201,-2.8227494,2.7078283,8.9877872,15.4809160,11.8167934,7.2290077
390,9.9454632,1.3120158,6.5289545,32.9312973,7.5877862,44.8931313,-3.0717452,2.6431851,9.2128410,10.3816795,3.7328243,7.6946564
400,9.4235296,1.0510491,6.1219425,29.1984730,19.9389305,45.8244286,-2.9879484,2.4636209,9.6605549,8.2595415,1.5343511,7.2671757
410,8.9351149,0.7326220,5.7125359,27.6641216,26.9541988,49.0458031,-2.9687948,2.2864509,10.0364418,8.6870232,4.2900763,6.0916033
420,8.7148495,0.5147507,5.5712790,30.4809170,30.3435116,50.7251892,-3.0358322,2.2816625,10.1609402,10.0916033,1.6412214,5.4045801
430,8.3892403,0.3160330,5.2576399,34.3740463,28.0610695,51.9847336,-2.9592183,2.2816625,9.8832140,10.0839691,3.2366412,4.3435116
440,8.5975342,0.3495516,5.0804701,37.8854980,22.0687027,52.8015251,-2.7293761,2.7150109,9.9622221,12.3740454,-0.5572519,4.3816795
450,8.8297710,0.4285599,4.8099265,40.7175560,16.1832066,51.7786255,-2.5019281,2.9256995,9.5815458,12.8854961,-2.7328243,3.7251909
460,9.0548248,0.4453192,4.6351509,40.7099228,12.7480917,50.1297722,-2.5067163,2.8682389,9.2319946,10.4732828,1.0610687,2.2595420
470,9.2224178,0.3639168,4.5585365,39.3816795,12.0534353,49.4656487,-2.5115047,2.8251436,9.1027079,7.4122138,1.2290076,0.1374046
480,9.3804340,0.3806761,4.4244623,37.9618340,11.7557249,49.2213745,-2.5162930,2.9951310,9.1458035,4.9236641,-1.7251909,-2.6717558
490,9.2942438,0.3495516,4.2592630,36.4503822,12.1755724,49.3206100,-2.5617826,3.1268115,9.1721401,3.0076337,-5.6335878,-5.0229006
500,9.2726955,0.3950413,4.0533628,34.0152664,11.5572519,49.2442741,-2.7054341,3.0262554,9.2080526,1.1450381,-7.0152674,-6.6870227
510,9.2319946,0.3136388,3.9719603,31.4198475,10.8473282,50.3358765,-3.0932927,2.9304879,9.4546537,0.2977099,-7.8549619,-7.5419846
520,9.2870607,0.3974355,3.9168940,28.1755733,8.9007635,50.6946564,-3.3997490,2.9448531,9.4929609,-0.2519084,-9.0687027,-7.5190840
530,9.3157911,0.4572902,3.9432299,25.4656487,5.4198475,49.4961815,-3.4787574,2.9233053,9.5001440,-1.1297710,-9.0076332,-5.6564884
540,9.3660688,0.4955972,3.8905578,23.0305347,1.0534351,47.0076332,-3.6487448,2.8826041,9.3804340,-1.6106870,-8.9389315,-4.4198475
550,9.5671806,0.3998296,3.9863255,16.2671757,-3.0000000,41.4732819,-3.3470769,2.8730273,9.2032642,-4.2137403,-11.0229006,-0.4961832
560,9.7994175,0.4548960,4.1251884,14.3053436,-4.8625956,37.6488533,-3.1220231,2.8323262,9.1098909,-6.7480917,-13.2366409,-0.3053435
570,9.7180147,0.3878587,4.2113791,12.8244276,-6.5954199,34.6564903,-2.8945751,2.7365584,9.2056589,-9.1526718,-15.1145039,-1.3511450
580,9.6749191,0.3998296,4.1132174,10.5114508,-7.6870227,32.7099228,-2.7150109,2.7892308,9.3924055,-11.0381680,-15.1068707,-2.9007633
590,9.6126709,0.3256098,4.0701222,6.7175574,-5.0992365,32.1297722,-2.8395088,2.6671271,9.6366129,-12.0458012,-15.1984730,-4.4274807
600,9.3181858,0.1077385,4.0940638,-6.0229006,5.8091602,32.3893127,-2.8658447,2.6838863,9.8880024,-12.2519083,-13.3969469,-5.1755724
610,9.1458035,-0.0885850,4.1371593,-11.3053436,8.4198475,32.7862587,-2.8730273,2.4875629,9.9406748,-11.8625956,-11.8244276,-5.8549619
620,8.6597834,-0.3256098,4.2640514,-16.2061062,10.2977095,35.0228996,-2.7772598,2.4420733,9.9957409,-10.2595415,-11.7251911,-5.6412215
630,8.5472565,-0.3710994,4.5776901,-19.1526718,10.0763359,38.5114517,-2.6240315,2.5234756,9.9310980,-9.0534353,-11.3893127,-6.6412215
640,8.2336178,-0.6464311,4.6136031,-20.6183205,8.9465647,43.5801544,-2.5330524,2.5378408,9.8520899,-8.5343513,-12.2137403,-7.6335878
650,8.2431946,-0.8140244,4.5944495,-22.2824421,14.4656487,48.1984749,-2.4420733,2.6288199,9.7611103,-8.9083967,-11.6717558,-10.1679392
660,8.1330614,-1.1204807,4.7189474,-26.4656487,21.7709923,53.4351158,-2.5953014,2.4875629,10.0053177,-8.3511448,-9.9541988,-12.4809160
670,7.7595682,-1.4748207,4.7333126,-36.2061081,34.4351158,62.4274826,-2.6072724,2.4588325,10.0101061,-7.7786260,-8.7480917,-13.5648851
680,7.2879128,-1.6591733,5.1259594,-43.3511467,44.4961815,71.0229034,-2.7676830,2.5378408,9.9670105,-6.7862597,-7.5419846,-14.4503813
690,7.4124107,-1.8147956,5.9591374,-43.0763359,43.3893127,76.4961853,-2.8610563,2.5067163,10.0125008,-5.9389315,-6.3664122,-14.0610685
700,7.3788919,-1.7597293,6.7635851,-31.7404575,30.3053436,78.7175598,-2.9664006,2.4037662,9.9789820,-4.4427481,-5.3893127,-14.4427481
710,7.4914188,-1.9440818,7.2208753,-14.1450386,16.3282452,80.7709961,-3.1603301,2.4636209,10.1250277,-2.7786260,-2.7709923,-13.3358774
720,7.2735476,-2.4851687,6.9503322,-0.5419847,13.4732828,87.5648880,-3.2584918,2.4277081,10.1441803,-0.8320611,-1.5190840,-11.8396950
730,7.7547798,-2.3750360,6.4020624,5.0687022,11.5572519,92.6412201,-3.3279233,2.5426292,9.9646168,-0.1145038,-0.3129771,-10.7709923
740,8.7028790,-2.0111191,6.6702118,9.1526718,11.2824430,94.3053436,-3.4308734,2.4564383,9.8449068,1.4656489,-0.6564885,-9.3282442
750,10.0172882,-1.5298871,7.3836803,20.3816795,11.0992365,88.6793900,-3.4907281,2.5234756,9.6509781,1.1984733,-0.7099237,-7.6106873
760,10.9486284,-1.2138541,7.3836803,37.5496178,10.9694653,75.4198456,-3.4572096,2.4971397,9.5049324,1.2290076,-2.5419848,-6.0000000
770,11.3867655,-1.2689204,6.6654234,50.3969460,8.5725193,60.7938919,-3.4189026,2.5378408,9.4067707,-0.4274809,-3.8549619,-4.4198475
780,12.0116482,-0.9097920,5.9926562,56.3358765,2.5954199,45.0763359,-3.3255291,2.5857246,9.2487535,-2.4503818,-7.5648856,-4.0763359
790,13.1057930,-0.1436514,5.9256191,59.6412201,-7.8396945,23.7175579,-3.3135581,2.4731977,9.2487535,-4.5267177,-10.8320608,-3.2977099
800,14.3723192,0.6631905,5.6718349,62.3129768,-17.6717548,-5.3511453,-3.0190730,2.5115047,9.3469152,-7.0839696,-13.9541988,-3.3129771
810,14.9229832,1.1492109,5.0900469,58.9007645,-19.5572510,-41.0152664,-3.0071020,2.4660151,9.4139528,-9.5419846,-16.7328243,-3.5496182
820,14.6404686,1.0845678,4.4268565,48.6793900,-14.5725193,-76.5496216,-2.8849983,2.4277081,9.5192976,-11.5725193,-18.1221371,-3.3816793
830,13.6995516,0.3663110,4.6806402,35.5343513,-4.4809160,-106.2595444,-2.9592183,2.3774302,9.6126709,-13.7022905,-19.4503822,-3.0152671
840,12.6939926,-0.2154770,3.9216824,23.4580154,3.7862597,-126.4580154,-2.8658447,2.3941894,9.8161764,-14.9312973,-20.5190830,-3.6259542
850,11.7818060,-0.5793939,3.9791429,7.2519083,14.0610685,-139.9694672,-2.8107784,2.2864509,10.0340481,-15.3664122,-16.3358784,-3.0305343
860,10.3931761,-1.1659702,4.3382711,-5.2900763,26.4351139,-143.6946564,-2.7748656,2.2122312,10.6876621,-12.4656487,-9.2442751,-3.3206108
870,9.4307127,-1.4484847,4.3382711,-14.1374044,35.3206100,-141.5648804,-2.5881188,1.8602852,11.3819771,-5.8778625,-2.0763359,-3.7786260
880,8.5807753,-1.5729824,4.6710634,-17.7099228,38.6717567,-137.7938995,-2.2768741,1.6639616,11.9278517,5.2290077,7.6030536,-5.6717558
890,7.7906923,-1.3120158,4.7428894,-16.6488552,35.6335869,-133.5954132,-2.2672975,1.9488702,12.0762920,17.1755733,16.9160309,-7.6946564
900,7.0963774,-1.2928623,4.6423335,-14.6641226,30.3740463,-129.0458069,-2.4636209,2.1188576,11.6908274,27.2137413,27.7175579,-7.8473282
910,6.6821828,-1.2449785,4.3933377,-14.1374044,23.9389305,-122.4580154,-2.7628946,2.0685797,10.9941177,34.3358765,37.3740463,-6.3816795
920,6.4714942,-1.0462608,4.4460096,-14.7557249,16.3053436,-114.0381699,-2.9687948,2.2146254,10.1322098,36.7404594,43.2519073,-3.6259542
930,6.3254485,-0.9696468,4.2784166,-16.5267181,7.9007635,-105.5725174,-3.0166788,2.4923513,9.3157911,35.5648842,46.6106873,-1.6183206
940,6.1291251,-0.7637464,4.2377152,-19.2366409,-1.6793894,-95.2442780,-3.1028695,2.5785420,8.8345594,31.4351139,49.0458031,-1.6106870
950,5.9902620,-0.5985473,4.1132174,-24.0916023,-10.5801525,-81.4427490,-3.2800395,2.5402350,8.5807753,24.9923668,49.0305328,-1.3893130
960,6.2823529,-0.4213773,4.1180058,-30.9160309,-17.3664131,-68.0152664,-3.3039815,2.5354466,8.4395180,18.0305347,49.5572510,-0.9618320
970,6.4978304,-0.1508339,4.2544746,-37.1145020,-24.8931293,-56.6793900,-3.6678982,2.5976956,8.0301113,9.8167934,50.1068687,-0.5038168
980,6.5552907,-0.0526722,4.4747400,-42.1832047,-30.1374054,-45.6183205,-9.9191265,0.2657550,3.8594334,-13.1832066,30.9541988,20.7786255
990,6.3039007,-0.1795642,4.1754665,-48.3358765,-35.7251892,-32.3587799,-3.1435707,3.5170643,7.8960366,-15.3206110,50.6870232,22.4427490
1000,6.1698260,-0.1843526,3.6583214,-59.3511467,-40.9923668,-15.4198475,-3.1076579,3.7588775,8.9422979,-22.7633591,32.5954208,18.2595425
1010,6.2823529,-0.2585725,3.7157819,-72.5648880,-42.5267181,-0.8091603,-4.2736282,2.9664006,7.7140784,-31.1908398,40.2748108,11.5954199
1020,6.4164276,-0.4932030,4.3023586,-82.6259537,-39.8931313,9.7480917,-4.5034704,2.7748656,8.8896255,-39.0610695,44.6030540,11.7709923
1030,6.0094156,-0.7637464,5.3725610,-85.1908417,-39.4809151,21.4885502,-4.5034704,2.5234756,9.2176294,-42.2213745,39.6793900,11.4580154
1040,5.4252334,-1.3455344,5.4276276,-84.8320618,-38.7938919,39.4274826,-4.1347651,2.4899571,9.3804340,-40.9771004,45.6259537,7.1603055
1050,5.0732875,-1.6663558,5.3270717,-86.7099228,-37.2290077,60.7557259,-4.2137733,2.7078283,9.8927908,-36.3893127,56.1755714,1.7099236
1060,4.7476778,-1.9560528,5.4228392,-90.2900772,-34.8396950,82.7099228,-4.9032998,2.9903426,9.8329363,-30.7175579,68.6870193,-0.4503817
1070,4.5250182,-2.4827745,6.1267309,-91.5572510,-28.5954189,104.1679382,-5.3174949,3.1531475,9.9239149,-26.1297703,81.9618301,-0.0458015
1080,4.1778607,-3.3063757,7.0389171,-85.9923630,-19.0000000,126.9542007,-5.7029591,2.9424589,10.0220766,-21.2519093,95.6488571,0.5190840
1090,3.9982965,-3.9959023,7.8361821,-71.4427490,-16.8549614,150.2519073,-5.8825235,2.8347204,10.0220766,-13.8931293,108.9923630,-0.5725191
1100,4.1323709,-4.4747400,8.5544386,-50.5801544,-21.3511448,173.9007568,-6.4954362,2.8347204,9.9310980,-3.6564887,114.3511429,-0.3511450
1110,4.3813667,-4.7644372,8.7100611,-27.4045811,-20.6717548,194.2977142,-7.2352405,2.8442972,9.8951855,3.8778627,112.1297684,2.4961832
1120,5.4348102,-5.1451130,8.5448618,-8.3664122,-24.0381680,211.7557220,-7.8984308,2.9113343,9.9598284,9.6641226,100.7404556,8.2213745
1130,7.7236552,-4.8218975,9.5432396,12.0000000,-35.3053436,218.9007568,-7.9750452,3.1435707,9.6916790,11.0534353,83.8244247,13.9770994
1140,9.6270361,-4.1180058,10.1776991,41.1221390,-49.7709923,213.8702240,-8.0779953,3.0693510,9.6222477,11.8015270,63.9312973,19.7328243
1150,11.7530756,-3.8402798,10.8073711,75.9312973,-58.5801544,199.4580078,-7.6638002,2.8682389,9.2200232,10.1450386,48.0228996,25.6946564
1160,13.4290085,-3.4548154,11.0611553,116.7480927,-64.9007645,177.5419922,-7.3621325,2.8466914,8.5304966,7.3435116,38.3511467,28.7404575
1170,14.8224268,-2.9017577,10.2231894,157.9084015,-71.0992355,148.7862549,-7.0628591,2.9352763,8.0947542,2.0610688,31.3511448,31.1297703
1180,15.3754845,-2.4851687,8.8944139,187.6793823,-73.8244247,115.8320618,-7.0197635,2.7724714,8.1474266,-3.6335878,24.4503822,33.4656487
1190,15.9046001,-1.8483143,7.6350703,204.5877838,-60.2977104,82.9465637,-6.9216018,2.6264257,8.1857338,-8.3816795,12.3282442,37.0763359
1200,16.1009235,-1.2641320,5.7723908,205.9389343,-31.3816795,51.0687027,-6.8018923,2.7102225,7.9008250,-13.6259546,2.9847329,39.5801544
1210,15.9381189,-0.9313397,4.2975702,193.0992432,-4.2213740,18.7404575,-6.6175399,2.6407909,7.8673067,-18.7633591,0.9083970,43.1679382
1220,15.3132353,-0.6703730,2.9544299,170.3358765,16.7709923,-12.0916033,-6.7013364,2.3486998,7.5440907,-23.7938938,-1.9923664,47.6488533
1230,14.6811695,-0.2178712,1.4820032,138.8167877,41.4809151,-37.9847336,-6.5169835,2.2696917,7.5584559,-28.1450386,-7.7786260,53.9312973
1240,14.4920292,-0.2059003,0.2873027,98.5648880,70.1145020,-60.5496178,-6.2584114,2.3702476,7.3453732,-32.5725174,-12.2900763,59.0076332
1250,13.8839045,-0.0526722,-0.1316804,57.0152664,92.6641235,-84.4503784,-5.8537931,2.4277081,7.2328463,-39.0152664,-9.0687027,65.4961853
1260,12.7059631,-0.1987177,0.3567342,24.6030540,100.8091583,-108.1297684,-5.8130918,2.4061604,7.4148049,-45.6183205,-0.6641222,70.5267181
1270,11.6046362,-0.7733232,1.1372399,4.9160304,90.2748108,-127.2137375,-4.8218975,2.0254843,7.7882981,-48.6564903,2.8778627,77.9694672
1280,10.7858238,-1.2234308,2.0039365,-2.8167939,69.9389343,-141.0534363,-3.4524212,2.0733681,7.6709828,-49.7709923,5.3511453,78.0992355
1290,10.1178446,-1.4724265,2.3079987,-4.6717558,46.8931313,-151.0610657,-3.2417326,1.5227045,7.7739329,-50.7175560,15.6564884,72.3893127
1300,9.6629486,-1.6041069,2.5569944,-6.9083967,24.5648861,-158.9618378,-3.0693510,1.3359578,7.6398587,-49.1603050,20.5343513,67.3282471
1310,9.3253679,-1.6783268,2.4277081,-13.5114508,8.7251911,-164.0152740,-2.9831600,1.1037214,7.6254935,-47.0534363,27.6793900,63.3816795
1320,8.9470863,-1.5610116,2.5833304,-23.0763359,-0.4198473,-167.1908417,-3.0094962,0.9576758,7.3884687,-45.4503822,41.2290077,61.4732819
1330,8.5424681,-1.7070571,2.4755919,-36.0534363,-4.8320613,-167.5648804,-3.1220231,0.8762733,7.3214312,-45.8091621,69.8320618,62.1374054
1340,7.7380204,-2.0901275,2.5234756,-53.6259537,-1.6488550,-160.3893127,-3.5410061,0.8738791,7.8074517,-48.0228996,115.6412201,67.1603088
1350,6.8378053,-2.1020982,3.1866663,-70.9465637,-1.2900764,-145.5419922,-4.3406653,0.5961532,9.1098909,-46.2442741,169.4045868,76.9618301
1360,6.5265603,-2.0183017,3.2177906,-86.0534363,0.8702290,-128.4503784,-5.0828643,0.3040621,10.3859940,-37.7480927,222.0152740,88.1221390
1370,6.1410961,-2.0374553,3.0334380,-105.2366409,8.9541988,-111.9160309,-5.5808558,0.0215477,11.4011297,-24.4427490,250.1297760,99.6335907
1380,5.6167684,-1.8674678,3.7277529,-119.8702316,10.2366409,-98.9465637,-6.2823529,-0.1221037,12.2055779,-10.0610685,250.1297760,107.6717529
1390,5.1570840,-1.7333932,4.5178356,-124.0000000,-3.2137403,-87.6412201,-6.9072366,-0.2035061,13.0124197,4.8931298,250.1297760,113.4961853
1400,4.7668314,-1.7836711,5.3103123,-119.1526718,-24.8473282,-74.9083939,-7.5009956,-0.0407012,13.3523941,19.9618320,250.1297760,115.3740463
1410,4.3454537,-2.2098370,5.9399838,-110.3740463,-49.4274826,-58.0076332,-7.6542239,0.1556223,13.6780043,33.1755714,250.1297760,113.0305328
1420,4.0868812,-2.5067163,6.1219425,-102.6793900,-70.2595444,-37.5648842,-7.5249376,0.3256098,13.3954897,44.6335869,203.8473358,106.6793900
1430,4.0294209,-2.5426292,6.8018923,-92.9618301,-94.0457993,-17.0916023,-7.0796180,0.6512195,12.8951044,51.1832047,150.0610657,95.4809189
1440,3.8666160,-2.4396791,7.8529415,-75.3358765,-125.0839691,2.0152671,-6.7228842,1.0725969,11.9541883,54.1679382,99.5572510,81.7251892
1450,4.3741841,-2.1427996,8.8872309,-52.2061081,-152.1908417,21.1374054,-6.4786768,1.3646880,11.6213961,58.1221390,58.6183205,68.6183243
1460,5.4826937,-2.0637913,9.2343884,-30.2900772,-153.1908417,38.8244286,-6.3062949,1.7214222,11.4154949,65.9007645,37.2290077,57.8549614
1470,6.4044566,-1.7740943,9.3301563,-15.0610685,-130.7480927,54.5496178,-6.1243367,2.1451938,11.2933912,80.0610657,30.5267181,48.8702278
1480,7.8601241,-1.2641320,9.5647869,-4.9007635,-92.8854980,65.3587799,-5.7604198,2.7293761,11.0108776,100.2595444,29.0305347,41.2900772
1490,8.8393478,-1.0678085,9.5408449,3.5190840,-47.7557259,71.1068726,-5.5760674,3.5769191,10.4578199,124.6335907,27.5801525,31.1984730
1500,9.4163475,-0.9313397,9.4977493,13.6564884,-13.3358774,73.7099228,-5.8657641,4.1850433,9.6126709,151.2366486,23.5038166,20.3740463
1510,9.6533718,-0.8643024,9.4043760,27.9083977,7.9694657,74.4198456,-6.5289545,4.8147149,8.1091194,178.8091583,17.5648861,11.7404585
1520,9.7563219,-0.8212070,9.1098909,45.0076332,19.2671757,75.3053436,-7.3597383,5.2839761,6.3900914,206.3511505,14.7862597,8.9083967
1530,9.8018112,-0.8619082,8.4754305,60.1526718,26.8244267,74.9542007,-8.1546097,5.7149301,4.0773048,231.0076294,15.8396950,12.6946564
1540,9.5456333,-1.0223188,8.0803890,72.9312973,30.3969460,74.2977066,-8.5520449,6.2320752,0.3854645,244.3893127,23.4351139,21.5801525
1550,9.3828287,-1.0989330,7.5464849,84.8778610,36.2824440,74.3740463,-8.0157461,6.6247220,-3.2417326,234.1984711,36.2442741,35.3969460
1560,9.5983057,-1.1994889,7.0006099,93.1450348,44.3053436,73.9694672,-7.2017217,6.8665352,-6.0501165,203.2213745,45.4809151,44.2290077
1570,10.1298151,-0.9457048,6.4643116,96.7786255,57.1450386,69.9618301,-6.7755561,7.1969333,-7.8026633,161.1832123,47.6030540,45.8320618
1580,10.2231894,-1.0271072,6.0980005,97.5267181,69.5877838,63.5877876,-7.0077925,8.2838955,-8.5161324,114.3664093,48.4809151,48.2061081
1590,10.0125008,-1.3958124,6.0237808,96.8931274,77.9618301,58.9007645,-6.8042865,8.1833391,-8.3102312,71.5725174,46.9694672,50.3740463
1600,9.9191265,-1.5466464,5.8418221,98.6870193,82.7404556,56.3282433,-6.1387019,8.4299412,-7.6111283,36.0763359,48.5648842,51.6183205
1610,10.2327662,-1.3048333,5.3893204,100.5038147,81.7709961,51.8015251,-6.1937680,8.6980906,-7.1801744,7.6717558,50.8396950,53.4198456
1620,10.5655584,-0.8403605,4.7309184,101.0763321,75.9236679,43.9007645,-6.0740585,8.6310530,-6.6151457,-15.1221371,52.5267181,55.2748108
1630,10.9701757,-0.2442073,3.5170643,94.7404556,68.1755753,33.7938919,-5.5257893,8.3485384,-6.3206601,-36.0000000,55.2900772,54.4580154
1640,11.1784706,0.6177009,0.9480990,75.6793900,53.7709923,26.7709923,-5.1379304,8.0516596,-5.7484488,-56.2671738,57.1984749,52.4503822
1650,11.5304165,1.3120158,-1.7693061,35.9007645,30.2595425,16.8473282,-4.8147149,7.7787213,-5.0301919,-75.6717529,56.8931313,48.8854980
1660,12.4617558,1.5897418,-3.0621684,-15.8244276,9.6106873,-4.3816795,-4.4843168,7.2663651,-4.2353210,-93.5877838,51.2824440,44.3435097
1670,13.3667593,1.3790531,-2.4013720,-57.8778610,4.5572519,-35.9465637,-4.2544746,6.8306227,-3.6343796,-110.7938919,40.7862587,35.4656487
1680,13.3883076,1.1013272,-0.7972651,-86.9236679,6.5496182,-67.6412201,-3.9695661,6.2631998,-2.6048782,-126.5877838,24.8854961,26.1145039
1690,12.5407648,0.1628049,0.5961532,-107.2671738,1.7328244,-93.3282471,-3.9192882,5.7149301,-1.6424140,-140.6793823,6.2900763,14.7633591
1700,11.9206696,-1.0151364,1.4628497,-123.3206100,-3.9083970,-110.6335907,-3.8785870,5.1858144,-0.6967092,-153.1526642,-14.9007635,3.0458016
1710,10.8791971,-1.8842272,2.5330524,-134.7786255,-5.5954199,-120.9694672,-3.9192882,4.6183915,0.5985473,-163.9618378,-32.7404594,-8.5190840
1720,9.5408449,-2.5115047,4.1922259,-136.6564941,-13.3435116,-123.9236679,-4.0892754,4.2113791,2.0015423,-171.5725250,-40.8396950,-18.8396950
1730,8.3772688,-2.7796540,5.5377603,-129.7480927,-23.2977104,-119.5419846,-4.7692256,3.6870518,3.9264708,-175.3664093,-31.3435116,-25.3435116
1740,7.5560617,-2.8658447,5.9926562,-120.0839691,-28.2442741,-110.3664093,-5.9543490,3.4548154,6.3206601,-173.2595367,0.8854962,-25.0305347
1750,6.8785062,-2.8897867,6.2368636,-111.7404556,-30.1068707,-99.5419846,-7.3453732,3.0861101,9.0452480,-162.1755676,45.4580154,-19.5419846
1760,6.1219425,-2.9233053,6.6678176,-102.6641235,-33.9160309,-86.5343475,-8.9566631,2.4851687,11.3388815,-142.7328186,84.3053436,-11.3053436
1770,5.3222833,-2.7988074,6.6271162,-93.7862625,-40.4351158,-70.0839691,-10.3548698,1.8411317,12.9621420,-118.0534363,105.2824402,-2.1374047
1780,4.7213416,-2.6743097,6.0213866,-89.7480927,-51.3969460,-50.8854980,-12.7370882,2.4564383,14.6668043,-83.6106873,122.1068726,13.7251911
1790,4.3861551,-2.6743097,5.8585815,-90.4656525,-63.6717567,-31.9236641,-14.3340120,2.5043221,15.6963062,-45.4122124,146.3282471,40.8473282
1800,4.1180058,-2.5857246,6.0477223,-89.3511429,-76.4885483,-11.8473282,-15.7968616,2.1140692,16.1775379,-3.8931298,171.2519073,73.0610657
1810,4.0820932,-2.7485294,6.2009506,-87.3129807,-88.1450348,8.2824430,-16.6635590,1.9776005,16.5246964,41.5648842,184.5801544,108.4198456
1820,4.0509686,-2.8993635,6.9048424,-81.3816757,-99.8778610,27.6870232,-16.3379498,1.7118455,15.8160152,86.6717529,183.0458069,141.0915985
1830,4.4891052,-2.7700772,7.6446471,-70.3664093,-106.3664093,47.2290077,-14.5877962,1.4604555,13.8623571,123.4427490,171.3511505,166.2290039
1840,4.9416070,-3.0047078,7.3070664,-60.7328262,-100.8854980,67.3282471,-12.7801828,1.7836711,11.6429434,146.6106873,164.8320618,180.0381622
1850,5.2217274,-3.2584918,6.7061248,-60.6946564,-89.5038147,88.3740463,-11.5280218,2.2002602,9.6557665,157.1068726,169.5725250,188.8549652
1860,5.8298512,-3.6535332,7.6685886,-59.4809151,-72.0992355,106.8931274,-10.7307568,2.4827745,7.9151902,160.4045868,162.6946564,195.9160309
1870,6.2655940,-3.9288650,8.9422979,-44.6183205,-52.7862587,124.4503784,-9.6940727,2.7485294,6.3254485,159.9389343,142.2519073,199.4885559
1880,6.7994981,-4.0988522,9.5671806,-16.2748089,-43.8778610,139.3053436,-8.0516596,3.4212968,4.6638808,155.2290039,112.9694672,199.6106873
1890,7.4866304,-4.1467361,8.9758167,14.8167934,-44.6030540,150.0305328,-6.3733325,4.3191175,2.6647329,143.2366486,85.5419846,194.4503784
1900,8.0803890,-4.3526363,7.6590118,37.1068687,-43.0687027,157.9923706,-4.9032998,4.9487896,1.0366840,130.1908417,62.7633591,186.4351196
1910,9.4977493,-4.2113791,6.5289545,47.7557259,-37.0381660,160.9313049,-3.5242469,5.6359220,-0.7493813,121.7557220,49.7633591,179.0229034
1920,10.9342632,-3.6343796,6.1530671,51.8320618,-22.3129768,156.2137451,-2.2385671,6.4068508,-3.1914546,114.0076370,56.7022896,174.0839691
1930,12.5982246,-3.1746953,6.4355812,56.0076332,-2.0992367,141.9847260,-0.5458752,7.2855186,-5.9088597,105.0305328,91.6488571,173.8244324
1940,13.6468801,-3.2680686,7.1729918,65.6488571,19.7328243,121.2061081,1.3120158,8.0229292,-8.6549950,92.3587799,158.7404633,176.0381622
1950,13.9916430,-3.2872221,7.9415264,84.7862625,32.9083977,98.9770966,3.5601597,7.8074517,-10.7259684,78.0076370,250.1297760,179.8091583
1960,13.8671455,-3.4069316,7.6398587,106.8396912,39.9771004,77.5572510,7.2017217,8.9207497,-12.6844158,65.8625946,250.1297760,174.7404633
1970,13.7258883,-3.5026991,6.7731619,125.2519073,45.6717567,56.1984749,8.5711985,8.6861191,-13.6827927,39.9083977,250.1297760,159.3129730
1980,13.4912577,-3.6128318,6.4547348,137.9770966,50.5419846,34.8931313,8.9853926,9.0284882,-12.7945480,10.0305347,250.1297760,132.0839691
1990,12.7897596,-3.7684543,6.2512288,148.5114441,54.5801544,15.7022905,9.6773138,9.8975792,-10.8600435,-25.2061062,250.1297760,92.4427490
2000,12.1409349,-3.7181761,5.7316895,155.0381622,61.1908379,0.5419847,10.9294748,10.8887739,-9.6318245,-76.6259537,172.0915985,40.9389305
2010,12.0738974,-3.6702924,5.8897061,158.4351196,67.5496216,-14.1374044,11.1497402,10.0244713,-8.6166878,-129.7404633,29.0000000,-9.7251911
2020,11.8081427,-3.5984666,6.3685441,165.6946564,76.4961853,-29.7022896,12.4904861,8.1929159,-5.6670465,-166.5648804,-83.6793900,-53.3664131
2030,11.5184450,-3.1770895,6.0812411,171.1832123,88.0534363,-42.7633591,12.7131462,7.3429790,-2.9089401,-181.5725250,-140.0152740,-100.3435135
2040,11.5016861,-2.4899571,4.7333126,167.2213745,94.5954208,-55.3893127,11.1377697,7.1011658,-1.1061156,-183.3282471,-128.8473358,-141.6412201
2050,11.2383251,-2.0111191,2.8826041,150.9541931,98.3053436,-67.9694672,9.1146793,6.6199336,0.9097920,-172.3511505,-82.2900772,-173.6793823
2060,10.9198980,-1.3910241,0.8427547,120.6793900,105.3358765,-78.3511429,5.5281835,6.0692701,2.1475880,-154.4732819,-41.0916023,-196.5267181
2070,10.4027529,-0.7685348,-0.5315101,80.4045792,109.5419846,-88.3358765,1.7717001,6.0812411,3.0334380,-136.1984711,-23.8473282,-211.6793823
2080,9.7467451,-0.5003856,-1.1539993,40.2748108,104.3816757,-99.0076370,-1.3742647,5.7699966,3.7540891,-120.3129807,-28.8396950,-221.0381622
2090,8.9422979,-0.5147507,-1.5514348,1.3587786,88.5267181,-108.7099228,-4.2879934,5.5617023,4.0749106,-107.7557220,-49.7404594,-222.5190887
2100,8.4993725,-0.2442073,-1.1132981,-31.5496178,58.7633591,-118.5648880,-7.1251078,5.6431046,4.0366035,-97.1603088,-65.8549652,-215.3358765
2110,8.2120695,-0.2801202,-0.7900825,-59.9083977,27.3740463,-128.2366486,-10.0196829,5.6071916,3.9025288,-86.9007645,-52.1145020,-195.5725250
2120,8.1402445,-0.7876883,-0.6153067,-89.2748108,1.7557251,-137.1603088,-13.4361916,5.3366485,3.9815371,-73.5954208,-10.1145039,-162.7786255
2130,7.8050575,-1.4700323,-0.4333483,-119.5648880,-13.6793890,-142.3511505,-16.9795914,5.3677726,4.1347651,-59.0458031,38.6793900,-120.8015289
2140,7.0197635,-2.3870070,0.1699875,-149.6259613,-27.2900772,-141.2671814,-19.6131992,5.5210009,4.7907729,-42.9541969,79.4961853,-71.2671738
2150,5.8729467,-3.5290353,1.8028246,-169.2900696,-49.6412201,-132.7862549,-19.6131992,5.5401545,5.2743993,-28.9541988,99.4656525,-17.7786255
2160,4.7261300,-4.2975702,3.8953462,-171.4427490,-86.0916061,-117.0076370,-19.6131992,5.7101417,6.0189924,-16.2824421,94.0992355,34.8244286
2170,4.1108232,-4.5322008,5.7197185,-156.2977142,-129.4580078,-96.1603088,-19.6131992,5.6862001,6.5385313,-4.5343513,74.7938919,82.4885483
2180,3.8450682,-4.6662750,6.9359670,-131.8625946,-168.5572510,-72.2442780,-19.6131992,5.4012914,6.9934273,7.6793895,62.7251892,120.8549652
2190,4.0222383,-4.5441718,8.0301113,-106.2290039,-197.5725250,-44.8473282,-18.6794662,4.8793583,7.4004397,24.2213745,57.7328262,147.7786255
2200,4.8123207,-4.4891052,8.8441362,-89.3129807,-194.7099304,-14.8549614,-16.4313221,4.6590929,7.0413113,42.9847336,48.1526718,167.9618378
2210,5.2863703,-4.7764082,9.4283180,-81.2290039,-154.7251892,15.7557249,-14.4130201,4.8386569,5.9926562,57.4122124,43.2061081,180.9389343
2220,5.2169390,-4.7811961,10.1681223,-73.9770966,-104.4732819,46.0992355,-12.5838594,4.8817525,4.9894910,65.8015289,41.2748108,192.6030579
2230,5.5329719,-4.5657191,10.8121595,-60.9160309,-59.9083977,73.6946564,-10.9294748,4.8314743,4.0820932,70.5725174,35.7022896,202.9465637
2240,5.8035154,-4.3598189,11.0060892,-39.4961815,-31.7633591,96.1221390,-9.2631187,4.9200592,3.4883339,73.2671738,26.2290077,210.3435059
2250,6.4044566,-4.0222383,10.6014709,-13.6335878,-21.7786255,111.3664093,-7.6853480,5.2983413,2.9280937,76.2977066,12.0458012,216.0839691
2260,7.3525558,-3.3518653,9.9741936,10.5496187,-24.8396950,118.3282471,-5.6718349,5.7963328,2.0542145,79.6717529,0.9770992,221.4427490
2270,8.3269911,-2.6838863,9.0117292,29.3816795,-32.3358765,118.1832047,-3.7373297,6.3948798,0.9983770,84.2824402,1.0534351,226.8702240
2280,9.1458035,-2.1882892,8.0971489,41.7633591,-38.9083977,111.5343475,-2.4516499,7.0245519,-0.0670373,91.8396912,13.5267172,237.7557220
2290,9.7323799,-2.0326669,7.4387465,47.8167953,-37.6106873,101.8015289,-0.7326220,7.4028339,-1.5921360,98.8549652,36.7786255,250.1297760
2300,10.2519188,-2.0039365,7.0963774,53.4274826,-31.6335869,91.1832047,1.6041069,7.4890246,-3.4572096,101.4656525,66.4274826,250.1297760
2310,10.4602137,-2.1811066,6.6654234,59.9007645,-27.0381680,81.8396912,4.3406653,7.2903070,-5.6838059,95.3587799,104.2137375,250.1297760
2320,10.6804790,-2.2816625,5.8394279,63.9465637,-23.7709923,74.1221390,7.1849627,6.9455438,-7.2927012,80.9618301,137.4351196,250.1297760
2330,11.0060892,-2.3606708,5.1475072,63.3358765,-16.5038166,65.8015289,9.6916790,6.4906478,-8.0013809,61.2824440,156.9541931,250.1297760
2340,11.1521349,-2.4851687,4.6710634,60.4580154,-5.6946564,56.5343513,12.5742826,6.3326311,-7.8361821,40.2977104,136.9618378,250.1297760
2350,11.0563669,-2.6743097,4.3215117,57.6335869,2.9618320,47.6259537,16.2254219,6.3805151,-7.5704269,19.8549614,83.6946564,214.1297760
2360,10.7786407,-2.6814921,4.0198441,56.0458031,7.6106873,38.7404594,19.6126022,6.3350253,-7.5440907,-3.0687022,14.1450386,154.2595367
2370,10.4530315,-2.8395088,3.8235207,55.6488533,10.2595415,30.0534344,19.6126022,6.3254485,-7.6446471,-30.9160309,-54.3816795,79.8167953
2380,10.0651722,-3.1435707,3.9144998,56.4122124,13.0534353,23.6259537,19.6126022,6.9072366,-7.1921453,-62.8396950,-93.6335907,-0.3587786
2390,9.5360565,-3.3446827,4.0198441,58.3969460,13.2290077,19.0992374,19.6126022,7.2112985,-5.8585815,-91.3282471,-107.5267181,-70.6641235
2400,9.1362267,-3.6008608,4.3813667,62.9389305,11.0076332,16.6793900,19.6126022,6.9239960,-3.6487448,-107.8167953,-115.1068726,-130.7633514
2410,8.6909075,-3.8402798,4.5968437,67.6183243,7.8167939,16.3282452,17.5182838,6.7899213,-1.4484847,-112.1450348,-115.2977066,-179.5877838
2420,8.2288294,-4.0174499,4.8578105,71.7862625,6.4045801,18.9007626,14.6117382,6.5744443,0.0215477,-107.1908417,-105.2824402,-218.5496216
2430,7.9415264,-3.7995787,4.7620430,74.5038147,8.1297712,23.4656487,11.9015160,6.2608056,1.0103480,-97.2366409,-82.9542007,-247.6870270
2440,7.6542239,-3.6056492,4.4651632,73.1832047,9.7328243,28.5038166,9.0787668,5.7077475,1.4317253,-83.3129807,-61.8244286,-250.1374054
2450,7.6709828,-3.4069316,4.1658897,68.1374054,12.3053436,32.8702278,6.4355812,5.2432747,1.3766589,-69.1832047,-43.4427490,-250.1374054
2460,7.6278877,-3.1076579,3.9791429,61.1374054,15.5190840,36.1755714,2.9137285,4.5034704,0.8666966,-58.2213745,-25.6412220,-250.1374054
2470,7.5632443,-2.7796540,3.9743545,54.9389305,12.3282442,38.4961815,-0.5650287,4.3454537,-0.2106887,-52.8931313,-18.2595425,-250.1374054
2480,7.8625183,-2.5546002,4.0054789,48.9007645,3.6183207,39.3511467,-4.3334827,4.4316444,-1.1659702,-52.8396950,-16.2900772,-250.1374054
2490,7.9032192,-2.4037662,3.9408360,43.8396950,-7.0916033,39.3053436,-8.5735922,4.9272418,-1.7094513,-57.8549614,-18.5419846,-250.1374054
2500,8.2455883,-2.3582766,3.9767487,38.3435097,-17.1603050,38.6106873,-12.5718889,5.7125359,-1.4556671,-66.5801544,-18.8625946,-245.7938995
2510,8.5209198,-2.2744799,3.9025288,32.5877876,-24.0687027,36.7099228,-16.7976341,6.4571290,-0.9002152,-74.4656525,-6.7862597,-198.0686951
2520,8.8010406,-2.2792683,4.0078731,26.1450386,-28.7633591,33.1297722,-19.6131992,7.3477674,0.2154770,-76.4503784,32.0763359,-133.9236603
2530,9.0979195,-2.3439114,4.0270267,19.9160309,-32.5038185,28.3053436,-19.6131992,7.7356262,1.9943599,-71.3511429,81.4122162,-58.6717567
2540,9.3732519,-2.2984219,4.2784166,14.0000000,-35.0687027,23.0687027,-19.6131992,7.4579000,4.2975702,-58.3053436,119.1068726,15.9389315
2550,9.8903971,-2.4636209,4.0078731,8.7786255,-31.6564884,17.8702297,-19.6131992,7.2280579,6.1003947,-37.5572510,127.2366409,74.1755753
2560,9.9909525,-2.4253139,3.6439564,2.4809160,-27.5267181,13.8091602,-19.6131992,7.1705976,6.8617468,-14.9465647,108.6335907,114.3816757
2570,9.9909525,-2.5474176,3.2728570,-7.8320613,-24.8396950,10.7557249,-18.3299141,6.9503322,6.7252784,0.9389313,88.0763321,140.0152740
2580,10.2399483,-2.5450234,3.2872221,-18.5648861,-17.5572510,5.0610685,-16.0267048,6.6726060,6.9287844,12.7633591,72.0610657,158.0992432
2590,10.1465750,-2.4851687,3.5481887,-27.9618320,-7.3740458,-2.8167939,-13.7618008,6.4044566,6.8761120,26.1908398,54.3664131,170.6335907
2600,9.6629486,-2.7054341,3.9264708,-34.6335869,-2.6641221,-9.6259546,-11.6261835,6.0788469,6.6223278,39.6183205,35.8320618,177.2290039
2610,9.3014259,-2.9113343,4.1204000,-38.2900772,-3.0839694,-14.2366409,-9.8856087,6.0309634,5.9016771,51.4122124,25.4503822,182.3969421
2620,8.9063845,-3.1507533,4.3406653,-40.4580154,-5.1679387,-16.8549614,-8.7196379,6.1267309,5.2217274,60.6488533,21.8473282,189.9313049
2630,8.5304966,-3.3135581,4.5561423,-42.9771004,-7.0229006,-16.9007626,-7.5776095,6.0668759,4.5250182,70.4122162,19.6946564,200.8778687
2640,8.1139078,-3.5721307,4.9368186,-44.5648842,-7.1145039,-14.8473282,-6.2608056,6.2799587,3.5314295,80.8854980,18.4732819,214.0610657
2650,7.9032192,-3.7253587,5.4874821,-43.1374054,-6.7633586,-11.9083967,-4.5609307,6.5385313,1.7597293,89.7022934,18.6793900,229.8473358
2660,7.5249376,-4.5705075,6.1865854,-38.1526718,-7.1984735,-9.6106873,-2.7389526,6.8665352,-0.0478838,92.8702316,21.0305347,248.9389343
2670,6.7707677,-5.7029591,7.5464849,-29.3435116,-9.9618320,-3.3435113,-0.4692611,6.9623032,-2.0206959,89.7633591,39.0610695,250.1297760
2680,5.8011212,-5.7891502,9.0213060,-12.2748089,-7.8396945,12.8244276,1.9225341,6.9287844,-4.2879934,81.2595444,72.8778610,250.1297760
2690,5.3653784,-5.0708933,10.2088242,13.8320608,3.4656489,33.3893127,3.9743545,6.9144192,-6.8210459,61.3816795,113.1297684,250.1297760
2700,5.8609757,-4.4843168,10.4530315,45.4656487,15.1832066,49.9618340,6.3086891,6.2512288,-8.8872309,34.2671738,138.8931274,250.1297760
2710,6.8761120,-3.9935081,9.4450769,73.7938919,23.3511448,57.1603050,9.3493099,5.3390427,-9.4522600,3.6106870,132.3129730,250.1297760
2720,7.4890246,-3.3398943,8.1210909,93.0381699,27.1832066,56.9389305,14.7146883,4.6016321,-9.0428534,-25.1755733,76.2366409,250.1297760
2730,7.8457589,-2.7030399,6.5505023,100.4656525,26.9694653,52.4198456,19.6126022,4.8745699,-7.8266053,-49.4351158,-11.2671757,235.8625946
2740,8.1426382,-2.5354466,5.1403246,97.3587799,24.4045811,48.0381660,19.6126022,5.7508430,-7.2041159,-74.4198456,-94.7175598,154.6183167
2750,8.2934723,-2.3965836,4.0677280,86.7709961,20.0687027,44.8854980,19.6126022,7.3142486,-6.7947097,-113.6717529,-131.8854980,69.6488571
2760,8.5783806,-2.3103929,3.4955165,73.8931274,13.3664122,42.8625946,19.6126022,7.1346846,-5.3558016,-144.1450348,-153.6030579,-13.9618320
2770,8.7340031,-2.1787124,3.0142846,60.2213745,2.9007633,40.0305328,19.6126022,7.4219875,-2.6743097,-151.0839691,-142.5114441,-92.2595444
2780,9.0835552,-2.0901275,2.7964132,48.5114517,-10.6412210,35.8320618,19.6126022,4.5944495,-1.0271072,-151.8549652,-103.5648880,-155.5877838
2790,9.6054878,-2.0781565,2.6312141,38.5877876,-22.7404575,29.7404575,19.6126022,4.7572546,0.9576758,-140.3816833,-74.2366409,-230.2290039
2800,10.2136126,-2.2122312,2.5138988,30.0687027,-28.7099228,21.1755733,16.6372223,4.9990678,2.0877333,-122.8625946,-42.7786255,-250.1374054
2810,10.5224628,-2.4253139,2.3103929,19.2824421,-28.3511448,11.6412210,12.5790710,4.7644372,2.1906834,-106.2900772,-19.9923668,-250.1374054
2820,10.6062593,-2.7054341,2.2170193,6.0152674,-22.9160309,2.0229008,9.9095497,4.1563129,2.2744799,-96.3282471,-7.1603055,-250.1374054
2830,10.5751352,-3.0908985,2.4755919,-7.0305343,-16.5801525,-6.1297708,7.3334022,3.5410061,2.4013720,-90.7404556,-4.0763359,-250.1374054
2840,10.1992474,-3.2967989,2.9879484,-17.0534344,-11.6488552,-13.5419846,4.0366035,2.9400647,3.1076579,-85.2213745,-4.6564884,-250.1374054
2850,9.8401184,-3.4165084,3.4524212,-22.1526718,-8.8244276,-18.8549614,-0.5147507,2.6312141,3.9408360,-78.0000000,-1.3664122,-250.1374054
2860,9.6461897,-3.5745249,3.7038112,-24.7404575,-5.3511453,-24.0305347,-6.1889796,2.7916248,5.1115947,-65.5190811,11.6488552,-250.1374054
2870,9.4450769,-3.6702924,4.0461802,-28.0992374,-1.4122137,-27.5267181,-13.6277266,3.8857694,6.4762826,-45.4885483,37.3206100,-250.1374054
2880,9.1625633,-3.5577655,4.1970143,-32.1908379,2.6183207,-30.4122143,-19.6131992,6.0046272,7.5081782,-17.3053436,65.4198456,-248.5572510
2890,8.8321648,-3.5026991,4.4771342,-35.4656487,3.5190840,-32.7633591,-19.6131992,7.7859039,6.9886389,13.2595415,79.2061081,-140.0839691
2900,8.6190825,-3.4787574,4.7548604,-36.7175560,2.9389312,-34.4503822,-19.6131992,7.9606800,4.9344244,34.4885483,83.4045792,-16.6564884
2910,8.3964224,-3.2848279,4.9607606,-37.0534363,2.0305343,-34.6488533,-19.6131992,7.4602942,3.0645626,43.0534363,105.8702316,90.1832047
2920,8.1785507,-3.2560976,5.0397687,-37.3053436,1.0229008,-33.5954208,-19.6131992,6.9072366,2.0925217,45.0000000,136.6564941,166.0610657
2930,7.9223728,-3.1842721,5.0852585,-39.4656487,1.6870229,-31.9465656,-19.4072990,6.5864153,1.9919657,45.5190849,149.5877838,214.8778687
2940,7.7667508,-3.2225790,5.1044121,-42.3129768,1.6183206,-29.4122143,-15.6172981,6.7635851,2.0350611,46.0381660,132.9770966,241.1450348
2950,7.4674768,-3.2130022,5.2791877,-44.1984749,2.1221373,-25.7251911,-11.6022425,7.0077925,1.4820032,44.4809151,95.0305328,250.1297760
2960,7.0508881,-3.3853838,5.2217274,-46.9007645,4.2595420,-18.3206100,-8.1665802,7.2831244,0.5171449,39.0381660,55.4809151,248.7862549
2970,6.6750002,-3.6271970,5.2025738,-50.6183205,5.6946564,-8.6259546,-5.3031297,7.5967631,-0.3256098,30.4580154,21.2213745,241.7175598
2980,6.3805151,-3.9073172,5.5186067,-51.6564903,3.0229008,0.7328244,-3.0071020,7.6781654,-1.0031654,21.7404575,-5.6106873,234.8396912
2990,5.8537931,-4.2592630,5.6957769,-48.2213745,-7.7709923,11.5343513,-1.0989330,7.7332320,-1.4604555,13.1221371,-22.7633591,229.3511505
3000,5.2336984,-4.5872669,5.3677726,-42.8396950,-24.4198475,24.4809170,0.7421987,7.9846220,-1.6472024,6.1755724,-29.9160309,228.8931274
3010,4.7357068,-4.7524662,5.1834202,-36.5725174,-50.0534363,39.0839691,2.2026544,8.0516596,-1.7669119,3.4198472,-26.1068707,235.1297760
3020,5.3462253,-4.5513539,5.7388721,-28.8625946,-73.6641235,52.0763359,4.3574247,7.8194227,-1.9871773,4.2213740,-5.2366414,246.7175598
3030,6.8330169,-4.2137733,6.4188218,-20.1145039,-75.3664093,59.3664131,7.6542239,6.9670911,-2.3271523,11.8015270,31.6488552,250.1297760
3040,7.9032192,-3.8666160,6.8928714,-9.4274807,-57.7404594,60.9923668,12.3707771,6.2584114,-2.9448531,22.2137413,82.6946564,250.1297760
3050,8.6597834,-3.9575951,7.2855186,2.5648854,-33.2366409,61.0076332,17.2788658,6.5361371,-3.5529771,22.7938938,129.2824402,226.2290039
3060,9.4977493,-3.8163381,6.9239960,13.9618320,-8.2137403,54.3587799,19.6126022,6.6414814,-4.5130472,7.2900763,131.3664093,167.3129730
3070,9.7251978,-3.7516949,6.4619174,23.8396950,7.8778625,48.0763359,19.6126022,6.5528965,-4.5058646,-23.1526718,79.5419846,87.2213745
3080,9.9789820,-3.7421181,5.8011212,31.2671757,14.8396950,41.9541969,19.6126022,6.3709383,-3.7995787,-58.5954208,-6.2442746,-2.4198472
3090,9.9382801,-3.6822634,4.9200592,35.6259537,14.9236641,35.1755714,19.6126022,5.9256191,-2.3917952,-89.4961853,-85.5801544,-89.1450348
3100,9.8999729,-3.4260850,4.3071470,37.3587799,11.1603050,28.6870232,19.6126022,5.3318601,-0.3591284,-108.0916061,-123.9542007,-167.8244324
3110,9.9574337,-3.2465210,3.5553713,34.2442741,7.9541984,22.6488552,19.6126022,4.5968437,1.7381816,-110.8244247,-122.6335907,-231.3816833
3120,9.9885588,-3.0286496,3.1052637,27.3282452,5.3893127,15.9847326,17.9324799,4.1204000,3.2896163,-101.3587799,-100.7022934,-250.1374054
3130,10.0340481,-2.9975252,2.9017577,19.0152664,0.9465649,8.5648851,14.1927547,3.7373297,4.3406653,-85.9694672,-82.3587799,-250.1374054
3140,10.0172882,-2.9711890,2.9759774,11.1450386,-3.5572519,0.7480916,10.3692341,3.4356618,4.9104824,-70.0687027,-73.1832047,-250.1374054
3150,9.8425131,-3.1411765,3.1363883,4.9923663,-7.2977099,-6.3816795,6.9934273,3.2273674,5.0301919,-56.1755714,-73.8702316,-250.1374054
3160,9.7635050,-3.3015873,3.1866663,-0.8167939,-9.1450386,-12.8549614,3.8211265,3.0837159,5.2097564,-45.0458031,-83.2595444,-250.1374054
3170,9.5695753,-3.5697365,3.5553713,-5.3740458,-7.9236641,-19.3511448,0.9097920,2.7916248,4.6375451,-38.6641235,-99.0763321,-250.1374054
3180,9.4163475,-3.7349355,3.9360476,-7.9160304,-4.8091602,-24.2977104,-2.2122312,2.7174051,3.8929520,-38.5343513,-112.3740463,-250.1374054
3190,9.1481981,-3.9767487,4.0796990,-9.4656487,1.3816794,-27.9694653,-6.5672617,3.2513094,3.5912843,-41.3053436,-112.4656525,-250.1374054
3200,8.8417416,-4.1156116,4.0102673,-11.2595415,6.7022901,-30.2442741,-12.6580801,4.0557570,4.0749106,-38.9007645,-77.1908417,-250.1374054
3210,8.5065556,-4.2089849,4.0773048,-13.2290077,9.1908398,-31.0687027,-19.6131992,5.7843618,4.7165532,-24.6106873,-9.3511448,-250.1374054
3220,8.0875721,-4.2425036,4.0581512,-15.3206110,9.5877867,-29.7328243,-19.6131992,7.4387465,5.1475072,-3.0381680,65.8015289,-154.1755676
3230,7.8409705,-4.1922259,4.0868812,-16.9389305,8.1908398,-26.9389305,-19.6131992,8.1019373,5.3342543,18.4198475,125.3893127,-9.5648851
3240,7.6757712,-4.1658897,4.1778607,-18.0229015,4.7480917,-24.0534344,-19.6131992,7.5201492,4.7285242,35.6335869,158.2519073,123.6183243
3250,7.6063399,-3.9935081,4.3406653,-18.3969460,-0.2900763,-20.8396950,-19.6131992,6.9287844,4.0318151,42.7938919,175.9084015,212.6030579
3260,7.5943689,-3.9552009,4.5106530,-17.4045811,-5.4045801,-17.8015270,-19.5437679,6.4020624,4.2568688,43.9923668,177.3358765,250.1297760
3270,7.5512733,-3.8354914,4.5657191,-16.4045811,-9.5114508,-14.6030531,-15.5861731,6.3900914,4.6136031,47.9389305,154.0458069,250.1297760
3280,7.7260494,-3.9073172,4.7261300,-16.0229015,-9.5954199,-11.3893127,-12.2367020,6.6055689,4.3933377,53.0076332,116.8091583,250.1297760
3290,7.6877422,-3.9216824,4.8338685,-15.7404585,-7.5572519,-8.0763359,-8.3533268,6.8378053,3.3566537,54.4732819,79.8854980,250.1297760
3300,7.7619624,-3.8450682,4.8458395,-15.7938929,-5.9160304,-5.0229006,-4.8171091,6.9982157,2.3127871,50.7251892,47.2824440,250.1297760
3310,7.8697009,-3.9552009,4.9823084,-14.6335878,-4.4274807,-2.3587787,-2.3319404,7.0556765,0.9648584,44.2671738,19.3816795,250.1297760
3320,7.8840661,-3.9384418,5.1115947,-11.8167934,-5.0763359,0.2442748,-0.3902529,7.0365229,-0.0861908,36.4122124,-4.0076337,250.1297760
3330,7.9846220,-3.8977404,5.2432747,-7.7251906,-7.0076337,2.3435113,1.3048333,6.9982157,-0.8499373,28.8015270,-19.7633591,250.1297760
3340,7.9702568,-3.9911139,5.1762376,-4.0229006,-7.3664122,4.7175574,2.9711890,6.9144192,-1.3215926,22.3740463,-25.3358784,250.1297760
3350,8.0588417,-4.0054789,5.0541339,-1.5038168,-6.6488547,7.0534353,4.5776901,6.7444315,-1.9105632,17.4732819,-24.7251911,250.1297760
3360,8.2671366,-3.8283088,5.1092005,0.6946565,-4.1603055,8.4045801,6.1985564,6.3134775,-2.4923513,11.6106873,-21.2824421,250.1297760
3370,8.4802189,-3.6487448,4.9463954,5.7175574,-0.2137405,8.7022905,11.3771887,5.3725610,-3.2225790,-5.9236641,-9.6946564,250.1297760
3380,8.4419117,-3.6990228,4.7596488,8.5038166,0.2900763,8.2442751,15.4688578,4.9056940,-3.1244173,-13.8931293,-3.5114503,233.9084015
3390,8.5544386,-3.6487448,4.5322008,10.3969469,-0.0992366,8.5496187,19.1152077,5.0349803,-3.2130022,-21.3053436,5.1679387,193.4656525
3400,8.6382351,-3.6726866,4.4364328,11.8015270,-1.3053435,8.2595415,19.6126022,5.3893204,-3.4667864,-32.5648842,3.3664122,136.9541931
3410,8.5616217,-3.5553713,4.2903876,12.0458012,-2.2595420,7.9465647,19.6126022,5.4611464,-3.8594334,-51.7786255,-16.9083977,67.1221390
3420,8.6214762,-3.5577655,3.9360476,11.1832066,-2.4351146,8.0839691,19.6126022,5.4300218,-3.3662305,-75.1908417,-40.0305328,-14.1526718
3430,8.6717539,-3.5290353,3.7828193,7.9236641,-2.7633588,8.2748089,19.6126022,5.3677726,-1.7884595,-94.0610657,-57.7328262,-91.9694672
3440,8.6885138,-3.6295912,3.6535332,4.4961834,-3.1374047,7.0534353,19.6126022,5.4180508,0.2489957,-102.7099228,-68.2290039,-156.7404633
3450,8.6406298,-3.6152260,3.8881636,1.9007634,-3.5725191,5.8854961,19.6126022,5.1929970,1.6759326,-101.8015289,-66.7328262,-211.0610657
3460,8.6526003,-3.7109938,4.0078731,0.4198473,-2.7557251,4.9389315,17.2980194,4.8721757,2.6288199,-94.5877838,-56.8320618,-250.1374054
3470,8.5831690,-3.7923961,4.1706781,0.0763359,-1.6564885,4.3740458,14.1712074,4.4388270,3.4045374,-83.2900772,-38.5343513,-250.1374054
3480,8.5783806,-3.9097114,4.1922259,0.1221374,-1.1450381,4.3053436,11.3795824,3.9982965,4.1060348,-68.2671738,-20.3129768,-250.1374054
3490,8.6573887,-3.9336534,4.0701222,-0.0992366,-0.6488550,4.5648856,8.8944139,3.4500270,4.3646073,-51.6488533,-7.2290077,-250.1374054
3500,8.6382351,-3.8809812,4.0078731,-0.5572519,0.0305344,4.7786260,6.4619174,2.9975252,4.4220681,-36.7099228,-4.9694657,-250.1374054
3510,8.7579451,-3.8354914,4.0389977,-2.0610688,0.6183206,4.3511453,3.8546450,2.6431851,4.1299767,-27.3816795,-13.8473282,-250.1374054
3520,8.8201942,-3.8378856,4.1898317,-2.9923663,0.8015267,3.1221373,0.6057299,2.2792683,3.9647777,-22.6717548,-35.4809151,-250.1374054
3530,8.9063845,-3.7421181,4.2688398,-3.4122138,0.2977099,1.0229008,-2.7772598,2.3295465,3.6152260,-22.4274807,-62.1984749,-250.1374054
3540,8.8992023,-3.7876077,4.2927818,-3.6412213,0.8091603,-0.7404580,-6.6917596,2.6048782,3.1052637,-23.9389305,-76.9542007,-250.1374054
3550,8.8489246,-3.7062054,4.3526363,-4.5267177,2.4885497,-2.8396947,-12.8376436,3.6248028,3.0094962,-21.5190830,-54.2290077,-250.1374054
3560,8.8920193,-3.7373297,4.4100971,-5.3664122,3.8320611,-4.2366414,-19.6131992,5.6071916,3.1387823,-9.9236641,10.4732828,-250.1374054
3570,8.7028790,-3.7397239,4.3310885,-5.7862597,5.2290077,-5.0992365,-19.6131992,8.2168579,3.5074875,7.9847326,75.9160309,-178.2519073
3580,8.5664101,-3.7828193,4.4196739,-6.1068702,4.7862597,-5.6259542,-19.6131992,9.5097208,3.3398943,24.4427490,113.4427490,-53.8396950
3590,8.4921904,-3.7397239,4.5202298,-5.6183205,3.8549619,-5.8854961,-19.6131992,9.6988611,3.1148405,35.9083977,125.1908417,61.0763359
3600,8.3748751,-3.7157819,4.6758518,-4.4580154,2.5190840,-5.3358779,-19.6131992,9.2798786,2.9304879,43.2595406,132.2442780,150.8473358
3610,8.2144642,-3.8426740,4.8242917,-2.9236641,1.3587786,-4.8091602,-19.6131992,8.7699156,2.7245877,49.3282433,131.4351196,206.7175598
3620,8.1354561,-3.8881636,4.8434453,-0.7251908,1.0305344,-3.0610688,-16.1152897,7.9918046,2.5953014,53.9389305,114.2366409,240.8244324
3630,8.1306677,-3.9216824,4.8003497,1.1755725,0.9389313,-1.8396946,-11.9829178,7.5632443,2.1930776,53.6030540,84.2137375,250.1297760
3640,8.2407999,-3.9911139,4.5729017,3.9236641,0.6946565,0.0458015,-4.7764082,7.3645267,1.5777708,42.7557259,20.6717548,249.2442780
3650,8.2767134,-3.9599893,4.6064205,4.2671757,1.0229008,0.7022901,-2.4660151,7.1969333,1.1970947,37.2519073,-4.9694657,235.4503784
3660,8.0109577,-3.9623835,4.2736282,-0.0458015,-6.5648856,7.4045801,3.5601597,7.2974896,-1.0223188,31.7633591,-42.4732819,212.0915985
3670,8.1570034,-3.8450682,4.5274124,0.6030535,-7.0000000,8.6030531,4.4938936,7.0604649,-1.8914096,29.2519093,-37.4503822,221.8549652
3680,8.5113440,-3.7397239,4.7404952,3.3282442,-5.2366414,8.8625956,6.0094156,6.8617468,-2.7150109,23.5343513,-35.4351158,230.3740387
3690,8.6621771,-3.6176202,4.6112089,5.2977099,-2.7938931,7.2137403,8.4012108,6.4260044,-3.4763632,13.0458012,-37.9389305,231.4045868
3700,8.7387915,-3.5817075,4.5896611,6.8320613,-1.2366412,5.8549619,11.4681673,5.8394279,-4.2353210,-0.1526718,-52.1068687,218.2290039
3710,8.8800488,-3.5769191,4.5082588,8.8320608,0.0152672,4.4885497,16.3020363,5.3510137,-4.9344244,-13.7175570,-69.8167953,187.6870270
3720,8.9877872,-3.5314295,4.0533628,8.6412210,2.5648854,3.0229008,19.6126022,5.1044121,-5.5257893,-28.5343513,-78.1526718,136.5190887
3730,8.9925756,-3.5338237,3.6008608,4.7709923,4.0458016,1.2671756,19.6126022,5.2648225,-5.4898763,-44.8473282,-72.6335907,67.8091583
3740,9.0260944,-3.3997490,3.2728570,-1.2366412,4.7099237,-0.7862595,19.6126022,5.5257893,-4.8338685,-61.9389305,-59.8320618,-6.8396945
3750,9.0548248,-3.3255291,3.6104376,-6.0229006,2.2442749,-3.1984732,19.6126022,5.8274570,-3.4907281,-77.5954208,-57.3816795,-78.8778610
3760,9.3062143,-3.4476328,3.9432299,-7.1603055,-2.5496182,-7.5801525,19.6126022,5.9567432,-2.0781565,-90.6717529,-64.8931274,-144.2137451
3770,9.4929609,-3.2896163,4.1180058,-6.5877862,-5.5954199,-13.2595415,19.6126022,5.8466105,-0.7182568,-97.9770966,-72.5190811,-201.3358765
3780,9.6054878,-3.3901722,3.9599893,-7.1679387,-7.0458016,-19.5954189,17.7170029,5.2049680,0.3016679,-99.9618301,-69.5648880,-250.1374054
3790,9.6078825,-3.4907281,3.9408360,-9.8244276,-6.3053436,-24.6488552,15.1983147,4.4986820,1.3694763,-96.2595444,-59.0305328,-250.1374054
3800,9.5264797,-3.7588775,4.2041965,-11.0687027,-1.5801526,-27.3206100,12.4809093,3.7109938,2.2170193,-89.7709961,-51.2977104,-250.1374054
3810,9.3038206,-3.6726866,3.7708483,-14.0381680,1.2977099,-28.1145039,10.0579901,3.2177906,2.7006457,-83.3282471,-47.2595406,-250.1374054
3820,9.4642305,-3.6678982,3.5410061,-17.5419846,3.6488550,-28.3053436,7.4171991,2.8251436,3.0669568,-79.3969498,-50.9083977,-250.1374054
3830,9.3421268,-3.4883339,2.5019281,-26.9083977,8.5725193,-28.7099228,4.6375451,2.3199697,3.2082138,-80.8854980,-62.9389305,-250.1374054
3840,9.6150646,-3.0190730,1.7501525,-43.5343513,9.9007635,-32.0992355,1.5705882,1.8171898,4.0629396,-83.7633591,-67.1068726,-250.1374054
3850,9.9837704,-2.6886747,1.6687500,-60.3664131,8.6106873,-39.8549614,-2.8802099,1.5418580,5.7915444,-77.5877838,-44.3435097,-250.1374054
3860,10.0101061,-2.4971397,1.4532729,-73.0534363,7.4351144,-47.7251892,-8.8441362,2.0590029,7.9726510,-55.0763359,3.7709923,-250.1374054
3870,9.8784256,-2.7748656,0.4309541,-89.9389343,6.5267177,-53.6793900,-15.4497042,3.2082138,10.0986910,-13.9236641,50.7938919,-250.1374054
3880,9.8113880,-2.9975252,0.0646431,-114.7480927,9.7022905,-59.8167953,-19.6131992,4.5992379,11.1066446,39.6030540,82.1984711,-250.1374054
3890,9.6437950,-3.2082138,1.0486550,-135.3206177,10.7786255,-67.4045792,-19.6131992,6.3374195,9.7706871,98.3206100,103.2671738,-157.7480927
3900,9.2966375,-3.8067613,2.4540441,-142.3282471,3.4961832,-74.3511429,-19.6131992,7.8625183,4.4316444,135.3129730,124.3816757,-46.5725174
3910,8.6765423,-4.5226240,3.4117200,-138.1984711,-17.9618320,-78.6793900,-19.6131992,8.2024927,-0.5075682,139.1145020,145.5801544,54.1908379
3920,8.4419117,-4.8003497,4.0988522,-129.4503784,-47.4580154,-78.9923630,-19.6131992,8.0851774,-3.5960727,122.0457993,161.7022858,128.9389343
3930,8.3102312,-5.2001796,4.0701222,-123.5954208,-66.7709961,-74.5419846,-19.6131992,8.2551651,-4.4579806,96.0152664,153.9389343,175.9618378
3940,8.5616217,-5.4012914,4.3502421,-124.6793900,-68.8320618,-67.9465637,-17.1304264,8.4059992,-3.8139439,70.2519073,120.2900772,203.7786255
3950,8.8537130,-5.1714492,5.7460546,-118.8549652,-66.0687027,-63.1603050,-13.5247765,8.5616217,-2.8299320,46.8473282,83.8778610,216.3969421
3960,9.2487535,-5.0948353,6.8114691,-102.0229034,-66.6259537,-60.4732819,-10.7163916,8.6956959,-1.9009864,30.4427490,40.1984749,221.4503784
3970,9.9358864,-5.2863703,6.7228842,-81.6335907,-71.0610657,-57.4274826,-8.3676920,8.7435799,-1.0654143,20.7862587,-2.1450381,222.8015289
3980,10.5631638,-5.2265158,6.2608056,-66.4961853,-69.6946564,-59.6183205,-6.2153158,8.7603388,-0.3184272,13.9389315,-24.0839691,221.8091583
3990,11.0922794,-5.0804701,5.5138183,-63.9923668,-73.1832047,-60.9923668,-4.3646073,8.6693602,0.1077385,10.8091602,-39.3282433,222.9847260
4000,11.4705620,-4.7644372,6.0309634,-61.4809151,-85.3206100,-66.8091583,-2.2649033,8.5161324,0.3782819,12.8625956,-48.2519073,226.9923706
4010,11.6453371,-4.5226240,6.3637557,-51.9618340,-107.5190811,-77.0152664,-0.4429250,8.3461447,-0.2250538,16.5267181,-46.7099228,232.2137451
4020,11.6309719,-4.4053087,6.7444315,-37.7633591,-138.6259613,-89.4656525,0.9361281,8.1306677,-0.7900825,18.6106873,-35.4580154,239.2290039
4030,11.7506819,-4.1874375,6.9000540,-20.7175579,-163.9084015,-102.1755753,2.0949159,7.7571740,-1.0917504,20.0839691,-19.1984730,249.5190887
4040,11.8440552,-3.5529771,6.2177100,-4.0534353,-176.4809113,-113.5648880,3.3566537,7.2950954,-1.6160779,21.4961834,-7.5725193,250.1297760
4050,11.7267399,-2.9137285,5.3510137,6.4198475,-181.9160309,-126.6870193,5.1882086,6.6127515,-2.1140692,21.0458012,-1.3893130,250.1297760
4060,11.5232334,-1.3455344,5.3797436,14.9160309,-170.8778687,-144.4732819,7.3262196,5.8825235,-2.2265961,20.0916023,-6.2671757,250.1297760
4070,11.2933912,-0.5410868,5.9399838,26.1145039,-147.0000000,-170.7557220,10.1082678,5.0301919,-2.1499822,20.6259537,-23.4580154,250.1297760
4080,10.5559816,-0.2992737,5.6670465,38.9007645,-103.6717529,-198.2213745,13.4697094,4.6159973,-1.7190280,27.2442741,-35.3587799,219.7175598
4090,9.8927908,0.3806761,5.4755111,46.0763359,-32.5801544,-221.0152740,16.7305965,3.7516949,-2.4372849,36.4885483,-32.8244286,185.9313049
4100,8.8393478,-0.2418131,2.7557120,39.2519073,58.0610695,-239.8396912,18.6770725,1.9536586,-4.5082588,41.1374054,-28.5343513,150.0229034
4110,7.3884687,-1.3718705,0.5099624,19.4732819,148.9694672,-248.8549652,19.6126022,6.4882536,-8.1282730,23.0534344,-43.7480927,88.3969498
4120,5.5449429,-2.4779861,-2.0087249,-6.6946564,237.9465637,-240.1679382,19.6126022,8.8345594,-9.1529865,-33.8167953,-39.7328262,2.5496182
4130,2.5258698,-3.5098817,-4.8314743,-36.9160309,250.1297760,-202.9313049,19.6126022,8.4610653,-7.9295554,-85.4580154,-58.5038185,-66.9389343
4140,0.5506636,-3.4931223,-5.3869262,-67.0381699,250.1297760,-141.4809113,18.1383801,6.7228842,-4.7788019,-124.4885483,-89.7938919,-116.1068726
4150,1.5370697,-1.4125718,-2.4851687,-74.7251892,250.1297760,-82.6870193,16.8383350,5.6862001,-1.7333932,-141.8854980,-107.4809189,-158.5877838
4160,3.8283088,1.0869620,-0.3854645,-54.9160309,250.1297760,-45.1145020,16.0745888,4.8338685,0.3208214,-142.8702240,-103.3053436,-204.3816833
4170,6.7180958,2.7605004,0.3830703,-30.8396950,219.4656525,-30.7022896,14.2573986,4.6016321,1.7956421,-132.9618378,-69.7480927,-250.1374054
4180,9.2272062,3.8283088,0.1747758,-14.9312973,194.0152740,-36.5267181,8.7986460,5.8226686,2.4444675,-114.1145020,-60.9465637,-250.1374054
4190,11.0252428,4.6950054,0.6200951,-3.2366412,181.1221313,-56.9083977,7.3621325,6.3015065,2.2337787,-97.2290039,-32.5801544,-250.1374054
4200,11.5854826,4.6902170,1.1587877,8.4351149,175.8549652,-81.6106873,8.0588417,5.2289100,2.0613971,-92.9923630,-3.5496182,-250.1374054
4210,10.9629936,4.2544746,1.3215926,17.3053436,170.0839691,-101.2137375,6.1315193,4.1180058,2.9113343,-91.4045792,0.3053435,-250.1374054
4220,9.8903971,3.3518653,0.7158626,17.3129768,167.7251892,-108.9618301,3.0885043,4.1778607,3.9695661,-85.9236679,-1.7633588,-250.1374054
4230,9.0883436,2.6383967,0.2418131,3.4885497,170.1145020,-103.6335907,-0.2825144,3.7995787,5.1882086,-75.9465637,11.6793890,-250.1374054
4240,8.4179697,2.4612267,0.3758878,-19.2977104,173.7404633,-86.9923630,-4.5010762,3.5721307,6.9096308,-55.6259537,37.2519073,-250.1374054
4250,8.5879574,2.6767037,1.5250987,-45.8473282,174.9313049,-64.1755753,-10.1872759,3.9959023,8.2599535,-21.5801525,67.8320618,-250.1374054
4260,9.0859489,3.6056492,2.8442972,-70.1603088,170.3587799,-47.7557259,-17.8965664,5.3749552,8.5089493,21.8778629,88.1374054,-240.6030579
4270,9.7156210,4.1419477,4.5657191,-85.4961853,169.1908417,-44.0534363,-19.6131992,6.9000540,6.8952656,61.6870232,86.8091583,-155.8320618
4280,10.5368280,4.0246325,6.6917596,-89.4885483,175.7404633,-50.8320618,-19.6131992,8.1186962,3.4380560,84.8702316,82.6946564,-50.4045792
4290,10.5416164,4.1204000,8.6645718,-78.8549652,184.7938995,-64.2366409,-19.6131992,9.1027079,0.3806761,90.7557220,102.8702316,45.1374054
4300,9.6461897,3.9982965,9.1170731,-60.3129768,194.5648804,-77.4045792,-19.6131992,9.3133974,-0.9361281,89.3893127,143.2824402,118.8167953
4310,8.2024927,3.6295912,7.9654684,-47.6946564,203.8244324,-85.0305328,-18.0785236,9.3852224,-1.4843974,81.8702316,176.7862549,176.8702240
4320,6.9168134,3.1292057,6.1746144,-53.3435097,217.9007568,-84.4122162,-14.9924145,9.3708572,-2.1260402,72.5190811,161.5877838,210.9236603
4330,5.6167684,2.6814921,4.5561423,-75.0381699,234.0839691,-77.5343475,-11.6405487,9.4067707,-3.0573800,59.5648842,111.3358765,229.5954132
4340,3.8570392,2.2337787,4.8889351,-101.6488571,232.7022858,-67.8320618,-8.2767134,9.2918491,-3.1579359,44.0687027,52.4503822,236.3053436
4350,2.7006457,1.7693061,6.3541789,-113.3740463,212.8320618,-56.2748108,-5.2839761,9.0931320,-3.0262554,27.7709923,11.1984730,236.4503784
4360,1.2737088,1.3838415,7.5105724,-108.0992355,183.9847260,-41.1145020,-2.6360025,8.8225880,-2.9137285,13.0839691,-17.6488552,231.8244324
4370,-0.2082945,0.7206510,7.8888540,-95.2442780,143.4045868,-19.8015270,-0.5219333,8.5975342,-2.4564383,2.7709923,-37.6412201,226.0305328
4380,7.7643566,6.0405402,19.5892582,-124.3969498,174.8091583,-9.8931293,1.1492109,8.3365679,-2.0159075,-3.3435113,-48.1374054,221.1832123
4390,7.0317345,3.9959023,19.6126022,-76.0687027,24.5190830,-34.1832047,2.7317703,8.1258793,-1.8602852,-5.8778625,-48.8396950,219.7251892
4400,6.5912037,-1.6974803,19.2660427,6.1297708,-40.3664131,-28.0610695,4.3334827,7.9534974,-2.1284344,-6.9389315,-42.0228996,220.4809113
4410,3.8426740,-0.0430954,9.7371683,78.4809189,76.1755753,15.3664122,5.7867560,7.7140784,-2.4420733,-8.9312973,-32.3435097,221.6946564
4420,-0.5889706,0.0047884,4.8171091,85.1145020,141.4274750,54.5267181,7.1945391,7.1993275,-2.9137285,-12.3511448,-18.3511448,221.0839691
4430,0.5722113,1.8746504,2.0661855,37.6030540,92.9694672,36.4274826,9.1649570,6.7947097,-3.5122759,-18.4961834,-13.4045801,212.0305328
4440,0.0574605,2.5689652,1.5274929,-4.4122138,69.7633591,13.7175570,11.8943329,6.3374195,-4.6495161,-29.9618320,-22.7557259,189.8015289
4450,0.2226596,1.2186425,4.8913293,-22.3816795,67.9312973,29.8549614,14.6452570,6.2248926,-5.6239510,-43.3206100,-34.3969460,157.3206177
4460,1.9991482,1.1420283,8.2312231,-43.8244286,69.3129807,43.3206100,17.1471844,6.3541789,-6.6223278,-60.6793900,-30.5725193,114.6335907
4470,2.9879484,1.8243724,13.6444855,-53.4809151,56.5419846,43.2977104,18.8039646,6.7133074,-7.2424231,-83.5038147,-13.6793890,65.2137375
4480,2.8682389,1.5322813,14.7625723,-39.2366409,30.2595425,41.8396950,19.4360294,6.7923155,-6.8785062,-107.1755753,-1.3893130,11.8702288
4490,2.6192431,0.5051740,12.5790710,-10.7633591,28.8244267,46.6030540,19.4072990,6.6486640,-5.2959471,-128.0686951,-3.1832061,-42.4961815
4500,1.8387375,1.3191984,9.9622221,12.1068707,29.6412220,50.4351158,18.9045200,6.5696559,-3.5266411,-144.9694672,-15.7786255,-93.7709961
4510,1.7501525,1.6376256,8.1043310,16.6641216,16.9160309,45.7938919,18.3490677,6.3278427,-2.0709739,-158.5190887,-36.9618340,-143.6106873
4520,2.0566087,2.0302727,8.4993725,13.3129768,7.3587785,35.7786255,17.7193966,5.7412663,-0.9361281,-168.1526642,-58.3435097,-190.0229034
4530,2.2122312,1.8985922,9.4402885,11.7099237,4.7404580,30.4809170,16.2780933,5.0206151,0.5841822,-173.5114441,-61.7480927,-232.1603088
4540,2.3056045,1.6495966,10.4123297,14.0992365,3.6946564,29.8702297,14.6596222,4.2065907,1.9416877,-171.9236603,-45.8244286,-250.1374054
4550,2.2122312,1.5442522,10.6493549,19.0992374,1.7404580,32.1984749,12.5407648,3.4356618,2.8059900,-165.2977142,-28.2213745,-250.1374054
4560,2.2122312,1.5418580,10.5224628,25.6259537,1.0152671,36.9007645,10.0939026,2.8251436,3.4308734,-157.6870270,-17.0534344,-250.1374054
4570,2.1332228,1.6591733,10.1465750,32.7328262,-0.1679389,40.8015251,7.8146343,2.1906834,4.2065907,-149.4809113,-11.9618320,-250.1374054
4580,2.1930776,1.7525467,9.6725254,36.9923668,-1.5572519,42.8625946,5.0206151,1.4556671,5.3127065,-140.2137451,-12.0000000,-250.1374054
4590,2.4492557,2.0135133,9.1721401,36.5725174,-0.9618320,43.5801544,1.9871773,0.9050036,6.4978304,-128.1068726,-9.9389315,-250.1374054
4600,2.7078283,2.0925217,9.3660688,35.0610695,-0.1832061,43.3816795,-1.8291607,0.9050036,8.0229292,-110.8396912,8.8473282,-250.1374054
4610,3.1220231,2.0518203,9.5480280,34.7175560,1.3206106,41.1755714,-6.9024482,1.2880739,9.7491398,-84.7099228,42.8015251,-250.1374054
4620,3.4045374,2.3319404,9.5456333,34.9694672,2.9312978,37.2137413,-12.4186611,2.0206959,10.8049774,-48.1450386,73.5725174,-250.1374054
4630,3.6942344,2.3726418,9.4929609,34.9465637,4.5725193,31.8473282,-18.7129841,3.4859397,10.8480721,-7.6870227,85.7480927,-250.1374054
4640,3.7947903,2.3989778,9.2463598,32.9312973,6.0381680,25.0076332,-19.6131992,4.8602047,9.3469152,28.3358784,89.6793900,-180.9389343
4650,4.1682839,2.3247581,8.7699156,26.1297703,10.3740454,18.1603050,-19.6131992,6.1387019,7.6207051,53.8549614,98.7328262,-85.6870193
4660,4.1275826,2.2122312,8.2767134,15.7786255,16.1068707,11.2213745,-19.6131992,6.7540083,5.9399838,69.5801544,109.1221390,10.5496187
4670,5.2504573,2.5953014,7.9367380,-21.5038166,34.6717567,-3.2900763,-19.6131992,7.3310080,5.3127065,82.0457993,110.7786255,140.9389343
4680,5.4156566,2.5976956,6.6821828,-54.1297722,56.4961815,-15.1221371,-17.5541973,7.5440907,5.7388721,89.8549652,93.5496216,168.4732819
4690,5.1187773,2.5689652,5.7747850,-89.4274826,54.3816795,-32.3358765,-15.1815557,7.7332320,5.6095858,96.7328262,65.9770966,184.4503784
4700,4.4244623,2.4636209,5.7269011,-113.3129807,22.2977104,-54.2366409,-13.0746689,7.8122401,5.0996237,102.7328262,44.3740463,195.1984711
4710,4.0653338,1.8100072,5.9471664,-127.5038147,-20.9770985,-74.8396912,-10.9797525,7.6757712,4.7285242,107.8931274,29.6335869,201.4580078
4720,4.0844874,0.7852941,7.3334022,-131.1908417,-51.1145020,-90.1755753,-9.0644016,7.5369086,3.7876077,111.4351120,18.9389305,204.7633514
4730,3.9528067,0.2968795,9.6461897,-126.3587799,-63.9465637,-99.6183243,-7.9487090,7.3405848,2.8514795,110.9236679,11.0152674,208.9618378
4740,3.7708483,0.1939293,11.8272963,-115.4198456,-60.2900772,-107.4885483,-6.7276726,7.2400289,2.1020982,106.1984711,-5.1603055,212.9847260
4750,3.1962428,-0.3758878,13.0100250,-96.9312973,-45.8320618,-110.2519073,-5.5904322,6.9838505,1.4628497,101.0916061,-27.0305347,217.1374054
4760,2.2553265,-0.6823440,13.1129761,-71.4351120,-32.8167953,-104.1984711,-3.8450682,6.8976598,1.0941446,98.7786255,-47.2290077,222.0686951
4770,1.6926919,-0.7829000,12.2295198,-46.4732819,-18.3053436,-91.4961853,-1.9033806,6.8785062,0.4979914,99.3664093,-56.5572510,228.8473358
4780,1.1492109,-0.4525018,11.4585905,-27.1755733,-4.6946564,-76.0457993,-0.1053443,6.7635851,-0.5267217,101.2824402,-55.3206100,237.0534363
4790,1.2832855,0.1628049,10.8073711,-15.3511448,4.3053436,-61.1526718,1.4197544,6.9216018,-1.7405758,101.9312973,-47.8549614,247.9084015
4800,1.7262106,0.8523315,9.9310980,-12.8625956,15.6106873,-52.5954208,2.9640064,6.7683735,-3.1746953,101.0839691,-33.1603050,250.1297760
4810,1.7262106,1.1516051,9.5456333,-18.5038166,24.1832066,-48.0610695,5.0134325,6.2991123,-4.8673873,95.9770966,-16.9541988,250.1297760
4820,1.7429699,1.3598996,9.2056589,-28.2061062,29.3206100,-47.0381660,7.8170285,5.8274570,-6.5289545,84.0763321,-2.6870229,250.1297760
4830,1.6615674,1.2282192,9.1577749,-36.1221390,38.5648842,-48.6946564,10.5559816,5.5066357,-7.6015515,65.4503784,-1.1908396,250.1297760
4840,1.4628497,1.1947005,9.5073261,-39.7175560,48.6030540,-50.6106873,14.3627424,5.0900469,-8.5855637,43.2213745,-17.6412220,250.1297760
4850,1.5945302,1.0893562,9.8257532,-40.7862587,54.7633591,-51.9923668,18.8829727,4.9511838,-9.7156210,17.3282452,-39.6870232,216.0534363
4860,1.8267666,0.9888002,10.2591019,-37.8244286,54.9083977,-55.1755714,19.6126022,5.3342543,-10.1417866,-14.1068707,-53.2290077,156.7938995
4870,1.4939742,0.6871324,10.3476868,-30.9618320,48.3129768,-59.6488533,19.6126022,5.7149301,-9.5815458,-47.8778610,-59.4809151,87.0916061
4880,1.1539993,0.4381367,10.3859940,-21.2671757,35.8167953,-62.7022896,19.6126022,5.6933827,-8.3245964,-77.7480927,-66.9618301,17.2442741
4890,0.8762733,0.1101327,10.3117743,-11.6259546,22.1221371,-64.1679382,19.6126022,5.6191626,-6.8162575,-103.7022934,-67.9618301,-52.0152664
4900,0.5410868,-0.2466015,10.1872759,-4.0839696,10.2213745,-61.8702278,19.6126022,5.6095858,-4.5441718,-122.7099228,-64.1145020,-115.5877838
4910,0.1628049,-0.6584021,10.2471304,1.3969465,-3.5954199,-55.1984749,19.6126022,5.4755111,-2.1523764,-130.0610657,-55.1984749,-165.8167877
4920,-0.0909792,-0.9385223,10.4889441,6.7404580,-15.1297712,-45.7709923,19.1894283,5.1044121,-0.3375807,-126.8320618,-40.3511467,-209.9694672
4930,-0.2681492,-1.0989330,10.7475166,13.3664122,-24.4045811,-33.9389305,16.9293137,4.8386569,0.8619082,-114.9923630,-16.8320618,-245.7175598
4940,-0.3974355,-1.3598996,10.7283630,20.5954189,-30.6564884,-20.1679382,14.7122946,4.4771342,1.3598996,-99.9542007,14.0916033,-250.1374054
4950,-0.3806761,-1.0941446,10.7906122,28.4427490,-37.7404594,-6.0839696,12.4378138,4.0318151,1.5801650,-84.6335907,37.9923668,-250.1374054
4960,-0.2489957,-1.0821736,11.3676119,38.0534363,-45.2366409,8.8549614,10.0915089,3.6248028,1.5203103,-73.3129807,47.2977104,-250.1374054
4970,-0.2753318,-1.2832855,12.4186611,53.4503822,-53.7175560,24.4809170,7.7835097,2.9855542,1.1539993,-68.1297684,41.7786255,-250.1374054
4980,-0.1532281,-1.2689204,12.2869806,74.5419846,-56.7709923,42.7175560,5.3198891,1.9608412,1.0223188,-67.7709961,26.2900772,-250.1374054
4990,-0.0933734,-1.0630201,11.1904411,94.3129807,-57.6564903,65.6488571,2.8275378,1.5610116,1.1061156,-71.1068726,7.9694657,-250.1374054
5000,0.8954269,-1.0893562,9.7730818,106.8625946,-61.4809151,83.9542007,-0.2394189,1.1372399,1.5705882,-73.0992355,6.8473282,-250.1374054
5010,1.6208663,-0.4357425,8.6645718,106.3129807,-53.6030540,95.1603088,-6.1913738,0.5434810,2.7197993,-69.1297684,26.0458012,-250.1374054
5020,2.4540441,0.7517755,7.7332320,95.8244247,-47.6488533,99.3511429,-12.9573536,1.5083394,4.1132174,-58.1908379,47.2137413,-250.1374054
5030,3.3111639,1.5993185,7.4650826,78.6106873,-46.2213745,93.4427490,-19.6131992,3.2632802,5.4348102,-39.0228996,56.6641235,-250.1374054
5040,4.0389977,2.2960277,7.2496057,59.3129768,-40.2748108,82.5190811,-19.6131992,5.4156566,6.5217719,-14.9923668,64.9465637,-230.5038147
5050,4.4795284,2.3965836,7.6063399,44.8167953,-28.0610695,73.7633591,-19.6131992,6.5552907,6.6486640,9.9465647,74.4045792,-121.4427490
5060,4.9559722,2.6838863,8.1330614,34.9083977,-15.4045801,65.7480927,-19.6131992,6.9503322,6.2679882,34.9847336,93.4045792,-8.7786255
5070,5.3222833,2.9424589,8.6885138,28.3358784,-7.0763359,56.1679382,-19.6131992,6.9120250,5.3725610,56.4045792,130.5267181,74.8625946
5080,5.3965030,3.2297616,8.8465300,25.2595425,-6.8778625,45.9389305,-19.6131992,6.7899213,4.5944495,71.5648880,159.6793823,133.1832123
5090,5.3534074,3.2920105,8.7220325,23.4961834,-10.3435116,36.1221390,-19.6131992,6.8210459,3.4883339,77.9923630,152.8473358,171.3816833
5100,5.2672167,3.1794837,8.2671366,18.4961834,-11.7786255,27.9923668,-17.9875450,7.0221577,2.7197993,76.2595444,114.9160309,193.1755676
5110,5.0038562,2.9855542,7.8170285,10.9923668,-12.5572519,22.0992374,-14.9301653,6.9431496,2.1380112,71.6106873,64.7328262,205.1832123
5120,4.8147149,2.9065459,7.8409705,3.8091602,-16.3206100,16.0916023,-12.3899307,6.8114691,1.8578910,66.8702316,16.5648861,209.5648804
5130,4.8769641,2.7030399,7.8984308,-1.6488550,-18.7480907,9.8778629,-9.8305416,6.5576849,1.5274929,62.3435097,-27.2137413,208.6870270
5140,4.6926112,2.4061604,8.1354561,-7.8244276,-15.4045801,3.9923663,-7.5656385,6.4978304,1.0606259,56.7175560,-63.1603050,204.5267181
5150,4.3526363,2.2457497,8.5424681,-13.5877867,-9.9083967,0.6106870,-6.0884237,6.2751703,0.6464311,51.0458031,-92.0000000,197.9084015
5160,4.2975702,1.9752063,9.2104464,-16.9389305,-3.2519083,-1.5496184,-4.6902170,6.0956063,-0.2035061,45.6946564,-120.5419846,191.9236603
5170,4.3334827,1.9799947,9.6509781,-17.0152664,3.4122138,-4.2519083,-3.5003049,5.8873119,-0.9265513,40.3816795,-146.7709961,186.7175598
5180,4.1012464,1.8483143,9.9837704,-14.2595415,7.6335878,-6.5648856,-2.0302727,5.9064655,-1.2258250,33.8167953,-164.4885559,182.5801544
5190,3.8091555,1.6112895,9.9765873,-9.5038166,8.1450386,-7.7480917,-0.4381367,5.9136481,-1.0678085,27.8320618,-168.6335907,175.4045868
5200,3.7684543,1.5394639,9.5432396,-5.3511453,9.5496187,-7.8625956,0.5937590,6.1003947,-0.5722113,25.8320618,-164.3435059,168.8549652
5210,3.5864959,1.6376256,9.1625633,-4.7022901,10.4961834,-7.6641221,0.7852941,6.8354111,-0.2035061,30.5496178,-159.0458069,168.0305328
5220,3.6176202,1.6759326,9.0524302,-5.8015265,9.7175570,-8.5801525,1.1180865,7.2160869,-0.4836263,41.7022896,-149.3740387,178.8015289
5230,3.4811516,1.7525467,9.1170731,-7.3664122,8.6106873,-10.0992365,2.1667414,7.1394730,-1.3718705,56.7557259,-129.2290039,198.9084015
5240,3.4835455,1.6376256,9.4043760,-8.5038166,8.6412210,-10.9312973,3.7900019,6.7875271,-2.8323262,72.1755753,-88.3053436,223.5038147
5250,3.2800395,1.6735384,9.5839405,-8.8931293,9.0916033,-11.3053436,5.9375896,5.9447722,-4.7021880,85.1221390,-36.8931313,244.9084015
5260,2.7844424,1.5825592,9.5336628,-7.2366414,8.9083967,-10.0458012,11.9709473,5.1882086,-7.7763271,86.7709961,36.6870232,250.1297760
5270,2.7197993,1.4676381,9.4977493,-6.3893127,8.7862597,-8.2519083,15.4880114,5.5233951,-9.0356712,68.1450348,37.1908379,231.3358765
5280,2.5474176,1.3598996,9.3876171,-6.2061067,9.8396950,-5.8625956,18.5549679,6.0716643,-9.5216913,39.9847336,10.1068707,187.8549652
5290,2.4947455,1.4963684,9.3612804,-5.5954199,7.1832061,-3.1755726,19.6126022,6.7300668,-9.4905672,7.3969464,-26.3511448,131.0763397
5300,2.5426292,1.4365137,9.5480280,-4.3816795,4.0610685,-1.1526718,19.6126022,7.0125809,-8.9015961,-23.6183205,-51.0534363,65.9312973
5310,2.6336083,1.4436963,9.5935173,-2.3435113,-0.8396947,0.5114504,19.6126022,7.3405848,-7.9726510,-48.9312973,-56.9618340,1.5648855
5320,2.8993635,1.4867916,9.7898407,-0.3206107,-4.1984735,1.0305344,19.6126022,6.9455438,-6.6750002,-67.2061081,-48.2061081,-57.2519073
5330,3.0693510,1.5155219,9.6701307,0.9847328,-4.4503818,0.4580153,19.6126022,6.6630292,-4.9056940,-75.4122162,-32.5343513,-107.4809189
5340,3.0621684,1.4197544,9.4091644,1.0305344,-4.3053436,-0.5954198,17.0849361,6.3948798,-3.6894460,-76.3893127,-15.2366409,-147.5877838
5350,2.9137285,1.3838415,9.4522600,1.4961832,-6.2900763,0.0305344,14.4992113,6.3374195,-3.2920105,-74.4503784,-0.9236641,-175.0458069
5360,2.9759774,1.4413021,9.4546537,3.0152671,-8.5419846,1.0000000,12.4521790,6.2392578,-3.1268115,-71.9083939,9.1526718,-195.6259613
5370,3.0310438,1.5155219,9.4714136,4.2366414,-9.7786255,2.0458016,10.8815908,5.9519548,-3.1196289,-70.1755753,17.3587780,-211.9847260
5380,3.0980811,1.6112895,9.4833841,5.6488547,-10.7175570,3.5725191,9.7036495,5.7795734,-3.3183465,-70.3740463,20.6335869,-227.0992432
5390,3.1603301,1.6304430,9.4235296,6.9389315,-11.4809160,5.0000000,8.4371233,5.6766233,-3.5218527,-73.6412201,23.1297703,-241.8396912
5400,3.3853838,1.7740943,9.3540983,1.5877863,-1.0381680,5.3893127,-19.6131992,5.6383162,17.4009686,-1.3969465,32.1755714,-44.9541969
5410,3.4189026,1.7693061,9.1673517,1.2442749,-1.6030535,5.7251906,-18.4735661,5.2839761,10.7546988,124.4351120,104.0000000,80.6946564
5420,3.4811516,1.8531027,9.1745338,0.9236641,-2.0458016,5.3587785,-15.3826675,5.5449429,6.9216018,150.7022858,130.2213745,112.8778610
5430,3.5769191,1.7286048,9.3181858,-0.1145038,-2.0992367,4.1450381,-6.9503322,7.0077925,-0.2274480,97.6870193,-4.5496182,116.2366409
5440,3.4907281,1.7142396,9.2367830,-0.8931298,-2.1984732,3.7862597,-5.3965030,7.2424231,-0.1221037,85.7633591,-41.7099228,106.4732819
5450,3.5194585,1.6041069,9.2583303,-0.3587786,-3.9389312,2.6412213,0.3423691,9.4091644,-2.7174051,101.1526718,-29.5648861,103.3129807
5460,3.5194585,1.5155219,9.3133974,0.0763359,-4.5801525,3.1832061,1.1516051,9.4187412,-3.6391680,101.6259537,-23.0534344,104.5267181
5470,3.5050933,1.6136837,9.2056589,0.4351145,-4.9389315,3.5496182,2.9161227,9.9478569,-6.2272868,83.9007645,-17.4885502,95.9847336
5480,3.6008608,1.6591733,9.2750902,0.0152672,-3.4198472,3.2366412,3.5984666,9.9263096,-7.0652533,66.5419846,-13.3664122,87.3358765
5490,3.5888901,1.7142396,9.3038206,-0.2900763,-1.7557251,2.4809160,3.4452386,10.0723553,-7.3764977,34.3282433,-28.7251911,63.9541969
5500,3.5577655,1.7980363,9.3684635,0.3740458,-1.8702290,1.8931298,3.2776453,10.0412302,-6.9072366,3.8091602,-46.1450386,42.3893127
5510,3.4165084,1.7333932,9.1841106,0.2290076,-1.4809160,1.5801526,2.6192431,10.4171181,-6.0572991,-20.9770985,-84.7251892,28.1374054
5520,3.4476328,1.7094513,9.2391768,-0.2137405,-1.6106870,1.7557251,3.0190730,10.7906122,-5.8992829,-32.5954208,-100.9770966,26.7022896
5530,3.4811516,1.7764885,9.1793222,-0.2595420,-2.5419848,1.6259542,4.7093706,11.0755205,-5.8585815,-46.6946564,-130.8091583,19.7099228
5540,3.5386121,1.7453641,9.2990322,0.1221374,-3.2061069,1.5343511,7.9774394,10.6900558,-6.5720501,-63.2671738,-191.3053436,-2.2519083
5550,3.4739690,1.6136837,9.3828287,0.1832061,-1.8549619,1.9465649,11.2598734,10.3237448,-7.7452030,-80.6488571,-244.8244324,-39.1603050
5560,3.5026991,1.7022687,9.3373384,0.6870229,-1.8625954,2.1984732,13.1441002,9.5216913,-9.1098909,-101.0687027,-239.2671814,-80.1832047
5570,3.4955165,1.7309990,9.2798786,1.0839695,-2.2213740,2.4274809,12.1217813,9.1888990,-9.0045462,-121.6106873,-165.6946564,-117.3358765
5580,3.6128318,1.7070571,9.2343884,1.2595420,-2.2290077,2.3587787,8.3102312,9.1242561,-7.2472115,-136.8702240,-78.0457993,-142.2519073
5590,3.6439564,1.7046629,9.2080526,1.0152671,-1.7862595,2.0839694,4.6614871,8.7268209,-5.4252334,-146.7328186,-37.8473282,-155.0534363
5600,3.6822634,1.7836711,9.2104464,0.9236641,-1.7633588,1.8778626,1.6424140,8.5185261,-3.7062054,-157.4580078,-40.9923668,-160.0915985
5610,3.6535332,1.8315549,9.2080526,1.0381680,-2.1984732,1.6106870,-0.3447633,8.1689749,-1.7645177,-166.8396912,-56.6488533,-158.2748108
5620,3.7181761,1.7908537,9.2152348,0.9312977,-2.1450381,1.8549619,-1.4317253,7.3645267,0.6248835,-170.0076294,-62.3206100,-149.4885559
5630,3.7828193,1.7621235,9.2224178,0.4122137,-1.2519084,1.7480916,-2.0877333,6.7683735,2.7892308,-163.4656525,-49.3053436,-136.1832123
5640,3.6271970,1.7453641,9.2367830,0.4274809,-1.1221374,1.4427481,-2.2361729,6.3374195,4.6638808,-147.8396912,-18.5419846,-121.7786255
5650,3.6559272,1.8650736,9.1170731,0.1832061,0.0763359,1.5496184,-2.3654592,5.9782910,5.9471664,-125.0916061,17.8625946,-108.7099228
5660,3.6846576,1.8004304,9.1194677,-0.9007633,0.1679389,1.4732825,-2.5809362,5.4874821,6.9144192,-99.1679382,55.0839691,-101.1068726
5670,3.6750808,1.7573351,9.3564920,-1.9694656,1.3740458,0.3587786,-4.7835903,5.0948353,7.4818420,-47.9083977,108.1297684,-88.4580154
5680,3.6822634,1.6807210,9.2128410,-1.9007634,1.7404580,0.2748092,-6.1387019,4.9487896,7.4100165,-28.8625946,103.5496216,-83.7328262
5690,3.5529771,1.6304430,9.1888990,-1.2213740,-0.4351145,0.1526718,-9.2966375,5.2576399,7.5105724,2.4809160,41.3664131,-53.4274826
5700,3.4715748,1.5777708,9.2894554,-0.5190840,-2.6870229,1.2595420,-10.2064295,5.4994531,9.3564920,38.2900772,38.4427490,-33.4885483
5710,3.5960727,1.7070571,9.2463598,-0.7480916,-2.7022901,1.3511450,-10.7570934,5.8083038,9.6581602,65.6717529,42.9465637,-21.5190830
5720,3.7493007,1.6543850,9.2248116,-1.1374046,-1.5877863,1.0687023,-11.4633789,5.9471664,9.1649570,93.9847336,45.6106873,-10.9618320
5730,3.5817075,1.6472024,9.3133974,-0.4122137,-2.3893130,0.0534351,-13.1632538,6.6606350,5.7364779,135.4580078,30.8702297,17.0076332
5740,3.5960727,1.7286048,9.2535419,0.0839695,-0.4885496,0.8396947,-10.7858238,7.8409705,-1.4867916,128.0229034,4.0152674,117.6946564
5750,3.6056492,1.7525467,9.3397331,-0.2366412,-0.6335878,0.8931298,-9.4259243,8.2838955,-2.1236460,117.1908417,-8.5038166,130.7862549
5760,3.6271970,1.7597293,9.1912937,0.0458015,-1.9923664,1.0458015,-8.0564480,8.9207497,-2.5689652,106.8931274,-27.1145039,141.9923706
5770,3.6942344,1.7022687,9.1242561,0.0610687,-2.5801528,0.8778626,-6.4140334,9.2128410,-3.2680686,98.3435135,-43.0992355,153.2671814
5780,3.6463506,1.6950861,9.2224178,0.0839695,-2.7938931,0.6641222,-4.3861551,9.7730818,-3.9216824,93.2977066,-50.0610695,167.3511505
5790,3.6583214,1.6280488,9.2535419,0.1068702,-2.8167939,0.6488550,-2.0709739,10.1992474,-4.9104824,90.7480927,-47.2977104,181.8931274
5800,3.5841017,1.5945302,9.2846670,0.4809160,-2.0534351,0.5877863,0.8116302,10.1010857,-6.3086891,89.5648880,-32.7404594,193.8778687
5810,3.5457945,1.7573351,9.2463598,1.4885496,-3.5496182,2.2442749,12.6078014,8.7579451,-11.9182749,56.4351158,29.2061062,158.4809113
5820,3.6535332,1.7836711,9.2056589,1.4656489,-3.5648854,2.4274809,16.2733059,8.6047173,-13.5271702,28.8167934,36.7175560,110.8320618
5830,3.7038112,1.7908537,9.1051025,1.4045801,-3.1145039,2.3053436,18.6148224,8.6741486,-14.5303354,-14.5648851,21.4656487,46.2290077
5840,3.7828193,1.8554969,9.1505919,1.0916030,-3.0000000,2.1679389,19.3546276,8.4921904,-14.3220415,-65.9847336,-15.4351149,-25.1832066
5850,3.8354914,1.8961980,9.0715837,0.6870229,-2.7099237,1.8320611,18.2676659,7.8840661,-12.2343082,-114.7251892,-54.7709923,-93.8091583
5860,3.8354914,1.7836711,9.1434097,0.0839695,-2.8320611,1.8549619,16.4815998,7.3884687,-9.6605549,-151.5190887,-82.1526718,-151.0915985
5870,3.8235207,1.7118455,9.1481981,-0.0381679,-2.2977099,1.2442749,14.2095146,6.6510582,-7.1729918,-177.2595367,-99.2671738,-195.2977142
5880,3.7325413,1.7286048,9.2535419,-0.2595420,-1.3893130,0.7938932,11.9015160,6.1770086,-4.5345950,-193.1374054,-101.9236679,-231.2137451
5890,3.8115497,1.7405758,9.1817169,-0.8320611,-1.1603054,0.7404580,9.7275915,5.5162125,-2.5641768,-199.7099304,-97.0457993,-250.1374054
5900,3.7804251,1.6807210,9.1194677,-1.1526718,-0.4732825,0.0381679,6.9072366,4.5274124,-0.7421987,-200.8396912,-88.4503784,-250.1374054
5910,3.6726866,1.7190280,9.1529865,-1.3664122,-0.2900763,-0.3206107,3.9695661,3.9552009,0.3112446,-198.9618378,-69.2137375,-250.1374054
5920,3.6631098,1.6424140,9.1601686,-0.9694657,-1.1908396,0.2366412,0.0478838,2.8610563,1.2569494,-192.3587799,-39.0916023,-250.1374054
5930,3.6942344,1.6065011,9.2176294,-0.1603053,-2.1145039,0.0992366,-4.5250182,2.0613971,2.4947455,-178.2442780,9.8549614,-250.1374054
5940,3.7109938,1.6759326,9.1936874,-0.1755725,-1.9694656,0.6030535,-12.2606440,1.9416877,4.3191175,-157.7557220,83.5114517,-250.1374054
5950,3.8330972,1.6783268,9.1769285,-0.5190840,-1.2519084,0.8091603,-19.6131992,3.4643922,6.7037306,-133.5725250,156.3664093,-211.6488495
5960,3.9552009,1.6352314,9.2583303,-0.6259542,-1.7175573,0.1984733,-19.6131992,4.9080882,9.1003141,-107.7557220,182.3282471,-116.0839691
5970,4.0413918,1.8291607,9.2583303,0.3282443,-2.9618320,-1.8167939,-19.6131992,4.8697815,11.5256281,-78.6946564,171.8931274,-6.8702292
5980,4.3717899,1.8626794,9.2631187,1.3206106,-4.1450381,-6.0687022,-19.6131992,3.9959023,13.8096848,-37.4656487,176.5114441,90.1755753
5990,4.7021880,2.0015423,9.3588867,3.1221373,-4.5343513,-13.8702288,-19.6131992,3.3566537,14.5973730,14.8931293,204.4885559,167.9084015
6000,4.4124913,1.9608412,9.2870607,4.8854961,-1.8702290,-21.3206100,-19.6131992,3.2824337,13.6971579,64.0763321,235.8320618,235.5419922
6010,4.0725164,1.8890154,9.0715837,4.4122138,0.2137405,-25.1297703,-19.6131992,3.4308734,11.7530756,98.2977066,247.9389343,250.1297760
6020,3.5003049,1.7309990,9.0859489,2.2061069,1.4122137,-25.2595425,-19.5796814,3.5888901,9.0284882,113.2748108,226.1908417,250.1297760
6030,3.1268115,1.5993185,9.0907373,0.5801527,2.9389312,-20.4427490,-16.1248665,4.0533628,6.3350253,115.7480927,179.9541931,250.1297760
6040,3.0478032,1.6304430,9.2248116,-0.7557252,4.7099237,-14.1145039,-12.3252869,4.6159973,4.0629396,111.5725174,133.8015289,250.1297760
6050,2.9951310,1.7022687,9.2535419,-0.4427481,4.1832061,-7.8778625,-8.5352850,4.8051381,1.9632354,105.5572510,91.5419846,250.1297760
6060,3.1818779,1.8028246,9.0907373,0.6946565,0.6259542,0.3053435,-1.9440818,6.0549049,-1.8698620,87.3206100,34.3893127,250.1297760
6070,3.3063757,1.7645177,9.0907373,0.1603053,-0.3129771,2.9770992,1.0318956,6.3613615,-3.2752512,76.8396912,23.8015270,250.1297760
6080,3.6870518,1.9632354,9.0644016,0.5877863,-1.2519084,1.4122137,19.6126022,6.3709383,-9.0691900,-29.8244267,13.8091602,124.4427490
6090,3.6248028,1.8028246,9.0596132,-0.0381679,-1.2213740,1.5038168,19.6126022,6.8234401,-8.3293848,-62.8473282,-28.1297703,47.3282433
6100,3.7253587,1.9153515,9.1003141,-0.4198473,-1.0152671,2.6488550,19.6126022,7.3381906,-6.6582408,-91.3740463,-57.1832047,-21.0687027
6110,3.8474624,1.9297167,9.1218615,-0.7709923,0.3053435,2.7786260,19.6126022,7.3788919,-4.6878228,-110.3282471,-66.8549652,-79.1145020
6120,3.9480183,1.9847831,9.1194677,-1.6335878,1.6564885,2.8320611,19.4408188,6.8114691,-2.4851687,-115.9770966,-61.7022896,-124.9160309
6130,3.9408360,2.0853391,9.0548248,-1.7404580,1.5877863,1.5648855,16.4265347,6.7635851,-0.5985473,-111.4580154,-43.8625946,-163.5877838
6140,3.9863255,2.0997043,9.0165176,-2.0458016,0.8702290,-0.4351145,13.9533358,6.4403696,0.3016679,-100.6793900,-20.8091602,-193.1755676
6150,3.9049230,2.0015423,9.0979195,-2.4351146,0.1832061,-2.4503818,11.5878773,6.1051831,0.6919208,-89.6488571,-0.7557252,-217.3282471
6160,3.8785870,1.9201399,9.1625633,-3.1526718,0.1297710,-4.1603055,9.1673517,5.7867560,0.7876883,-80.6106873,11.8396950,-238.0229034
6170,3.8761928,1.9129574,9.3086090,-2.8167939,0.6335878,-5.9923663,6.8282285,5.3390427,0.7972651,-74.9542007,10.6412210,-250.1374054
6180,3.7277529,1.9033806,9.2535419,-1.8931298,0.9389313,-7.6488547,4.6950054,4.8027439,0.5674229,-72.5496216,-0.8473282,-250.1374054
6190,3.4787574,1.8339491,9.1865053,-1.3893130,0.7557252,-7.6030536,2.5522060,4.1922259,0.4716553,-74.9847336,-18.9083977,-250.1374054
6200,3.4835455,1.7405758,9.2272062,-1.8702290,0.3282443,-6.7480917,0.1125269,3.6966286,0.7876883,-80.1145020,-43.6793900,-250.1374054
6210,3.3614421,1.7405758,9.1912937,-1.7328244,-0.2366412,-5.1679387,-2.5833304,3.2752512,1.3479286,-86.3587799,-69.1145020,-250.1374054
6220,3.4452386,1.7238164,9.1817169,-1.3587786,-1.4045801,-3.3511450,-6.6678176,3.0358322,2.1811066,-90.9160309,-86.1450348,-250.1374054
6230,3.6583214,1.6783268,9.2535419,-0.6793893,-2.8244274,-2.8091602,-11.5591469,3.5625539,3.5673423,-90.0763321,-75.0992355,-250.1374054
6240,3.7445123,1.7333932,9.3397331,-0.7557252,-3.1984732,-2.7862597,-17.3818150,4.4962878,5.6957769,-81.9770966,-22.9236641,-240.4122162
6250,3.7157819,1.7788827,9.2511482,-0.8702290,-3.0458016,-2.9847329,-19.6131992,5.5521255,8.3557215,-59.9160309,47.0992355,-164.6335907
6260,3.6966286,1.7286048,9.2846670,-0.6564885,-3.4274809,-3.7328243,-19.6131992,6.0596933,10.5583754,-24.1145039,96.8702316,-72.7938919
6270,3.5864959,1.7764885,9.2319946,-0.8702290,-4.6335878,-3.9389312,-19.6131992,5.7532372,11.3724003,21.7938938,123.5725174,22.5801525
6280,3.5074875,1.6112895,9.2966375,-0.1297710,-5.7862597,-3.8015268,-19.6131992,5.3007355,10.4171181,66.6488571,142.6870270,110.2366409
6290,3.4045374,1.7190280,9.2679071,1.0381680,-7.1297708,-3.0305343,-19.6131992,5.0876527,8.3461447,96.3816757,164.4274750,178.3282471
6300,3.4284792,1.7980363,9.2439651,2.2977099,-7.9618320,-1.2748091,-19.6131992,4.7955613,6.6630292,110.6335907,170.1221313,226.6717529
6310,3.5170643,1.8722562,9.3517036,3.2137403,-7.3282442,-0.1526718,-17.6427822,4.5441718,5.2073622,114.9770966,150.6335907,250.1297760
6320,3.6774750,1.9368993,9.2846670,3.7251909,-5.9923663,0.9923664,-13.4026728,4.5345950,3.7109938,112.1221390,106.2366409,250.1297760
6330,3.7445123,2.0997043,8.9949694,3.5190840,-3.9236641,1.9770992,-6.3517847,4.8434453,1.5083394,98.3893127,1.1832061,249.2213745
6340,3.7828193,2.0566087,8.8968077,1.3893130,-3.3740458,2.3129771,-1.5849534,5.7604198,-0.7781116,87.2519073,-63.0458031,217.0305328
6350,3.8115497,1.9368993,9.2248116,-0.1603053,-1.5496184,2.0763359,3.0382264,7.4339581,-4.5417776,81.9542007,-66.0305328,217.6946564
6360,3.8618276,2.0159075,9.1434097,0.8244275,-1.0381680,0.3511450,7.6254935,7.2280579,-7.3525558,78.1450348,0.9770992,238.4427490
6370,3.9312592,2.0230901,8.9901810,0.0916031,-0.4809160,-0.2137405,19.6126022,7.7954807,-7.8433647,-84.0916061,-92.3740463,-34.2290077
6380,3.9528067,2.1044924,8.9686337,-0.8931298,0.0305344,-0.3053435,19.3761749,7.5776095,-6.1291251,-101.8167953,-93.3664093,-85.7709961
6390,3.8905578,1.9464760,9.0859489,-1.6030535,0.5038168,-1.4961832,17.5134964,7.3669209,-4.5465660,-111.8854980,-93.7938919,-129.2748108
6400,3.9001346,1.9704180,9.0739784,-2.3206108,1.1526718,-1.2137405,15.1097298,6.8832946,-2.9664006,-116.7633591,-87.9542007,-165.1908417
6410,3.8283088,1.9225341,9.1194677,-2.2061069,0.9389313,-1.4351145,12.5263996,6.4954362,-1.8004304,-117.7404556,-84.4656525,-192.1450348
6420,3.5912843,1.8507085,9.1984758,-1.8015267,0.6183206,-1.4045801,10.8121595,5.9950504,-0.9888002,-116.4045792,-88.0305328,-212.3282471
6430,3.6056492,1.8794388,9.1649570,-1.2213740,-0.2061069,-0.1526718,9.1529865,5.6383162,-0.4740495,-117.7404556,-100.3969498,-233.3435059
6440,3.5098817,1.8291607,9.1553802,-0.5114504,-0.6793893,0.7786260,7.5895805,5.4970589,-0.1244979,-120.8091583,-121.2290039,-250.1374054
6450,3.5338237,1.8028246,9.2152348,-0.1374046,-1.1145039,2.0229008,5.6718349,5.5688848,0.1580165,-124.6412201,-140.3740387,-250.1374054
6460,3.6798692,1.9129574,9.1745338,-0.0458015,-1.9160305,2.8396947,3.1914546,5.4324160,0.0478838,-130.4885559,-153.0305328,-250.1374054
6470,3.8737986,1.9225341,9.0763721,0.0687023,-2.1068702,2.9618320,0.5865764,5.3605900,0.1197095,-134.1068726,-145.6412201,-250.1374054
6480,3.8881636,1.9009864,9.0189114,-0.0381679,-2.2366412,2.3358779,-2.7748656,5.0732875,0.3854645,-135.6870270,-120.4656525,-250.1374054
6490,3.8905578,1.9129574,9.0667953,0.6106870,-3.6488550,1.3740458,-6.2416520,5.3438311,0.7852941,-137.2137451,-101.3587799,-250.1374054
6500,3.9144998,1.8435259,9.1553802,0.5038168,-3.6488550,0.7175573,-9.3708572,5.8466105,1.8387375,-141.9923706,-88.6030502,-232.7022858
6510,3.9288650,1.9440818,9.0596132,0.2137405,-2.6870229,0.3282443,-11.3700056,5.8226686,3.6678982,-141.8778687,-68.8625946,-198.7022858
6520,3.8833754,1.8698620,9.1386213,-0.0610687,-2.1068702,0.2900763,-13.9605188,5.9064655,6.2512288,-130.2290039,-17.4351139,-158.7633514
6530,3.8498566,1.9345051,9.1481981,-0.0763359,-1.2519084,0.3129771,-17.5302544,6.4714942,9.3684635,-102.4885483,57.7022896,-107.9160309
6540,3.7277529,2.0326669,9.1314383,0.2290076,-0.6030535,0.7251908,-19.6131992,6.9048424,12.0212250,-60.3282433,104.7557220,-48.6793900
6550,3.8091555,2.0757623,9.1122847,0.3282443,-0.6259542,0.7557252,-19.6131992,7.2879128,12.4378138,-16.3053436,106.8473282,6.0687022
6560,3.8211265,2.0278785,9.1218615,-0.7251908,0.9465649,0.5343512,-19.6131992,7.3693151,10.1441803,46.1145020,78.0381699,100.9542007
6570,3.8426740,1.9776005,9.1314383,-0.3664122,0.9160305,-0.0076336,-16.7904510,7.1322904,8.8513184,65.9770966,75.1145020,137.3664093
6580,3.7876077,1.9895715,9.1434097,-0.0381679,0.2824427,-0.0916031,-13.8695393,7.1155310,7.3860745,80.8702316,67.6793900,162.2366486
6590,3.6511390,1.9345051,9.0572186,-0.1908397,-0.8320611,0.1068702,-10.9246864,7.0365229,5.9184365,88.9465637,48.0763359,175.0686951
6600,3.6822634,1.8483143,9.2559366,0.1755725,-2.4732823,2.2671757,-6.4714942,7.5895805,2.9304879,90.2290039,-3.7328243,185.4809113
6610,3.8450682,2.0518203,9.0667953,1.0534351,-1.8702290,1.4732825,-1.1683644,8.5352850,-1.3048333,110.0457993,-2.4732823,226.2061005
6620,3.8450682,1.9823889,9.0404596,0.2137405,-2.2366412,1.9770992,3.5505829,7.7595682,-6.7899213,92.2595444,49.8244286,250.1297760
6630,3.7995787,2.0685797,9.1122847,0.3358779,-1.7862595,1.4961832,5.8968887,7.0748301,-7.6781654,75.6641235,66.8091583,250.1297760
6640,3.8570392,2.0398495,9.1841106,0.3511450,-1.1297710,1.6030535,9.0165176,6.3493905,-8.0684185,60.1603050,67.7557220,250.1297760
6650,4.1539187,2.0326669,8.9518747,-1.0076336,1.7633588,1.8854961,19.6126022,6.5935979,-7.2472115,-12.1068707,38.3740463,125.9847336
6660,4.0246325,2.0087249,9.0021524,-2.8320611,3.7938931,-0.9618320,19.6126022,6.3350253,-3.9863255,-82.5419846,-10.7328243,-73.9312973
6670,3.9839313,1.9752063,9.0093346,-3.6564887,3.7175572,-1.5496184,19.6126022,6.0022330,-2.1763182,-90.0305328,-7.5801525,-125.5954208
6680,3.9623835,1.9129574,9.0308828,-4.0305343,3.7022901,-2.3969467,16.9795914,5.4874821,-0.8140244,-87.2137375,4.2366414,-166.4274750
6690,3.9121056,1.8243724,9.1194677,-3.6717558,3.9389312,-3.1984732,14.5279417,5.5664907,-0.1556223,-80.0992355,19.4732819,-199.1908417
6700,3.7947903,1.7573351,9.2703018,-2.1297710,3.0458016,-3.6259542,11.7889891,5.2791877,0.0933734,-73.1755753,34.3816795,-225.1221313
6710,3.6200144,1.7477583,9.0811605,-2.2290077,2.7633588,-3.3969467,9.6461897,5.0349803,-0.0287303,-68.5419846,42.5877876,-242.4122162
6720,3.6224086,1.6591733,9.2176294,-2.4503818,1.3282443,-1.8702290,7.9750452,4.7261300,-0.4740495,-65.8091583,42.0839691,-250.1374054
6730,3.4763632,1.7309990,9.2703018,-1.3664122,0.2366412,-0.6870229,6.8114691,4.1754665,-0.6272776,-67.6488571,39.6870232,-250.1374054
6740,3.6535332,1.6926919,9.2870607,-0.7404580,-0.6335878,0.5725191,4.8530221,3.6056492,-0.3088504,-71.1755753,42.9160309,-250.1374054
6750,3.5505829,1.9153515,9.2296000,1.9312977,-2.7862597,2.0076337,-0.8595140,2.3079987,0.6248835,-75.8625946,48.9465637,-250.1374054
6760,3.6726866,1.9297167,9.1266499,2.0458016,-2.7862597,2.9083970,-6.6534524,2.5354466,1.6735384,-74.5038147,51.6870232,-250.1374054
6770,3.7229645,2.0278785,9.1218615,1.7557251,-2.4427481,3.0839694,-12.6149845,3.2896163,2.9544299,-68.1984711,59.6259537,-250.1374054
6780,3.8187323,2.1116750,9.0548248,1.6793894,-2.8702290,3.0992367,-19.6131992,4.8362627,3.9049230,-57.9694672,71.8167953,-250.1374054
6790,3.9097114,2.1523764,9.1122847,1.4274809,-2.5496182,3.0763359,-19.6131992,6.6414814,5.2001796,-45.6259537,68.3511429,-169.9541931
6800,3.9504125,2.1667414,8.9566631,0.7099237,-1.8320611,2.6183207,-19.6131992,7.6661944,7.0341287,-28.8473282,68.3969498,-72.4732819
6810,4.0749106,2.0901275,9.0500364,-0.3053435,-0.6870229,0.2748092,-19.6131992,7.3310080,9.3660688,28.3129768,109.8625946,105.7862625
6820,3.9575951,2.0829449,9.0428534,-1.1679389,-0.0305344,0.1221374,-19.6131992,6.7420373,8.6454182,59.2824440,122.7633591,165.4732819
6830,3.9791429,1.9680238,8.9877872,-2.0229008,0.6870229,-0.8244275,-17.7098198,6.4834652,7.1969333,81.8625946,120.9847336,200.6793823
6840,3.7684543,1.9105632,9.1003141,-2.7557251,1.0534351,-0.6488550,-14.3076763,6.2560172,5.3438311,92.9465637,94.2519073,220.0763397
6850,3.7181761,1.8890154,9.1218615,-2.2595420,0.7022901,-0.3129771,-10.6134415,6.0764527,3.2130022,94.6030502,49.5648842,226.2824402
6860,3.6487448,1.8483143,9.1769285,-1.3893130,-0.1755725,0.5114504,-7.7930865,6.3302369,1.7788827,89.7099228,7.9007635,224.6183167
6870,3.5984666,1.8171898,9.1434097,-0.4732825,-0.6717557,1.3206106,-5.2097564,6.2847471,0.8044477,81.7938919,-20.5801525,220.3587799
6880,3.8091555,1.9129574,9.1745338,-0.0916031,-1.6946565,2.4045801,-2.9711890,6.3086891,-0.0598547,75.6564865,-40.5038185,218.0381622
6890,3.7636659,1.8961980,9.0572186,0.4274809,-2.1984732,2.6183207,-1.3862357,6.5433197,-1.0318956,70.9465637,-56.3435097,218.2061005
6900,3.9384418,1.9560528,9.0667953,-0.3358779,-1.9541985,2.4427481,1.9416877,6.9670911,-2.6479735,63.5725174,-51.0839691,241.1984711
6910,4.0366035,2.0087249,9.0236998,-0.4961832,-1.8396946,2.1450381,4.0342093,6.4667058,-3.6822634,62.2519073,-29.8854961,250.1297760
6920,4.1060348,2.0757623,9.0404596,-1.6335878,1.0381680,-1.4503816,14.2190914,5.4252334,-6.0716643,49.2442741,34.2290077,250.1297760
6930,3.9623835,2.0709739,9.0093346,-2.5190840,1.7022901,-2.3358779,18.4352589,5.6335278,-6.7348547,35.8167953,37.2748108,222.5572510
6940,3.9432299,1.9392935,9.1194677,-2.5801528,2.4885497,-2.7862597,19.6126022,5.9878678,-7.0245519,16.1526718,28.8244267,170.8167877
6950,3.8833754,1.8243724,9.0141230,-3.5877862,2.1374047,-2.7709923,19.6126022,6.4595232,-7.0460997,-8.7328243,10.2824430,109.2977066
6960,3.7636659,1.8435259,9.2367830,-2.1755726,1.1832061,-2.1526718,19.6126022,6.8617468,-6.3613615,-35.4961815,-14.1984730,40.6717567
6970,3.6535332,1.7549409,9.2032642,-1.8702290,0.2366412,-1.6335878,19.6126022,6.9120250,-5.2193332,-59.7480927,-37.0839691,-27.0458012
6980,3.6295912,1.6759326,9.2008705,-1.5038168,-0.2290076,-0.1221374,19.6126022,6.7420373,-3.8330972,-77.6335907,-52.6793900,-85.5038147
6990,3.5817075,1.7693061,9.2008705,-0.4656489,-0.9923664,1.1908396,19.6126022,6.2344694,-1.8147956,-85.6183243,-52.3893127,-138.5343475
7000,3.8091555,1.7214222,9.1745338,-0.0610687,-1.7099236,2.2290077,19.6126022,5.7891502,-0.2370248,-83.9923630,-35.7862587,-181.7099304
7010,3.8618276,1.8100072,9.1577749,0.9541985,-3.0916030,2.0305343,18.0234585,5.1355362,1.2545552,-76.2748108,-1.1450381,-219.7251892
7020,3.9121056,1.8339491,9.1170731,1.5877863,-3.5877862,2.2671757,15.3347836,4.7931671,2.7413468,-60.0763359,34.3358765,-250.1374054
7030,4.0006905,1.9416877,9.1721401,1.5648855,-3.4274809,1.3435115,12.7682123,4.3143296,3.5026991,-37.4122124,54.0305328,-250.1374054
7040,3.8714044,1.9584470,9.0476418,0.6488550,-2.3587787,0.4427481,10.2064295,4.0437860,3.1244173,-14.6641226,63.5648842,-250.1374054
7050,3.8163381,1.9105632,9.0260944,0.2519084,-2.2137403,0.3969466,7.6087341,3.9049230,1.6304430,2.6259542,67.0457993,-250.1374054
7060,3.7229645,1.9416877,9.0979195,0.9083970,-2.5877862,0.8015267,5.1570840,3.6032550,-0.2729376,9.8244276,67.9007645,-250.1374054
7070,3.7181761,1.9752063,9.0715837,1.6488550,-2.8625953,1.8396946,3.3063757,3.3015873,-1.9895715,5.9236641,65.8244247,-250.1374054
7080,3.8594334,2.0398495,9.0859489,1.8244275,-1.6793894,3.0000000,-2.8419030,2.1667414,-3.1172347,-17.3435116,73.8015289,-250.1374054
7090,3.9791429,2.2026544,9.0476418,1.3282443,-1.4885496,2.9694657,-8.5640154,2.5162930,-2.9975252,-22.8396950,66.8931274,-250.1374054
7100,4.0198441,2.1284344,8.9614515,1.0000000,-2.1374047,2.4427481,-16.4217453,4.1180058,-2.4061604,-24.2442741,42.1984749,-250.1374054
7110,4.0725164,2.0302727,8.9207497,-0.5496183,-3.9770992,0.8167939,-19.6131992,8.2862902,0.2322364,-31.0305347,10.2290077,-186.5801544
7120,3.9408360,1.9943599,8.9829988,-0.7251908,-3.9770992,0.4885496,-19.6131992,9.1194677,2.1523764,-29.3053436,15.0687027,-82.2442780
7130,3.9887197,1.9440818,9.0596132,-0.9389313,-3.2900763,0.7480916,-19.6131992,8.7842808,3.7277529,-14.8320608,34.3511467,24.2290077
7140,3.8881636,1.9584470,9.0069408,-0.8091603,-1.0610687,0.2824427,-15.0522690,6.0525107,2.4564383,42.5343513,135.2366486,249.0686951
7150,3.8498566,1.9560528,9.0715837,-0.8015267,-0.7786260,0.3129771,-12.0571384,6.2608056,1.7573351,41.7862587,102.5877838,250.1297760
7160,4.0078731,1.9632354,9.1074963,0.2748092,-1.6870229,1.8167939,-4.3789725,6.5361371,0.1029501,33.4198456,-9.5954199,250.1297760
7170,4.0030847,1.9105632,9.0213060,0.0916031,-1.0687023,1.6793894,-2.0159075,6.6390872,-0.5602403,32.0076332,-22.9083977,250.1297760
7180,3.9935081,1.9728121,8.9183559,-0.3816794,-0.3587786,1.4198474,3.0310438,5.8202744,-2.4923513,24.3893127,-10.8396950,250.1297760
7190,4.0150557,1.9584470,8.8513184,-0.7404580,-0.2900763,1.3587786,5.3797436,5.4755111,-3.0334380,18.5954189,5.2977099,250.1297760
7200,3.9671719,1.8459201,9.1529865,-1.4885496,-0.4503817,0.5343512,13.1010046,5.1786318,-3.8857694,-13.0305347,28.3587780,250.1297760
7210,3.8690102,1.9392935,9.0236998,-1.4885496,-0.7099237,0.6717557,15.3706961,5.5281835,-3.4715748,-28.7251911,6.4580154,233.1603088
7220,3.9144998,1.9392935,9.2224178,-1.6488550,-0.7862595,0.9389313,18.4735661,5.7412663,-2.9233053,-44.9847336,-33.7786255,186.3206177
7230,3.9336534,1.9201399,9.0189114,-1.7557251,-0.2824427,1.3893130,19.6126022,5.6024032,-2.3103929,-56.2213745,-85.7404556,124.4198456
7240,3.9049230,1.9177457,9.1074963,-0.7786260,-0.4351145,1.0839695,19.6126022,5.7580256,-1.5107336,-60.4427490,-119.8244247,54.0534363
7250,3.8785870,1.8842272,9.0835552,0.0763359,-1.7328244,0.8167939,19.6126022,5.9974446,-1.1276633,-62.4427490,-131.8473358,-10.7786255
7260,3.9671719,1.9919657,9.0620070,0.4198473,-2.3358779,0.4122137,19.6126022,6.1458845,-0.9480990,-65.7328262,-131.8320618,-68.9847336
7270,3.9216824,1.9225341,9.0907373,0.3206107,-1.7022901,0.1679389,19.6126022,6.4188218,-1.1875180,-71.5725174,-130.8778687,-119.1603088
7280,3.8378856,1.8507085,9.0620070,0.2671756,-1.9007634,0.5954198,17.4895535,6.2177100,-0.7182568,-75.9847336,-130.0229034,-157.7862549
7290,3.7923961,1.8554969,9.0691900,0.5496183,-3.2137403,1.5496184,15.7370071,6.5026188,-0.3136388,-78.5877838,-122.4503784,-189.9694672
7300,3.8402798,1.8890154,9.0308828,1.2748091,-4.7557254,2.3129771,13.9270000,6.0884237,0.2035061,-76.6946564,-114.3664093,-219.2213745
7310,3.8426740,1.9057748,9.1098909,2.3358779,-5.6564884,3.3358779,12.2558556,5.8130918,0.4046180,-70.8320618,-104.5877838,-245.2671814
7320,3.9815371,1.9608412,9.0117292,2.4961832,-6.2366414,4.0839696,10.7163916,5.5664907,0.1963235,-65.9465637,-92.5572510,-250.1374054
7330,3.9336534,2.0183017,9.0428534,2.5038168,-6.2442746,4.0687022,9.1003141,5.1690550,-0.2561783,-64.0687027,-81.8167953,-250.1374054
7340,4.0964580,2.0973101,9.0715837,2.3053436,-6.6259542,3.4961832,7.3381906,4.7740140,-0.5482694,-64.4885483,-74.3511429,-250.1374054
7350,4.2425036,2.1236460,8.9925756,1.9465649,-5.4732823,2.9160306,5.0780759,3.9432299,-0.8307837,-67.6183243,-76.0687027,-250.1374054
7360,4.1515245,2.1164634,8.9039907,1.4732825,-4.7938933,2.0839694,2.7940190,3.3925664,-0.9361281,-73.2442780,-81.1984711,-250.1374054
7370,4.1443419,2.1164634,8.9470863,1.2290076,-5.8320613,1.4656489,-0.4309541,2.7988074,-0.6344602,-79.0305328,-76.5190811,-250.1374054
7380,4.0916696,2.0326669,8.9375095,0.9923664,-4.8931298,1.2595420,-4.8530221,2.8347204,0.0981618,-80.8167953,-49.7480927,-250.1374054
7390,4.0773048,1.9608412,9.0260944,0.5038168,-3.8320611,1.2671756,-12.0595322,4.1275826,1.4293311,-76.0610657,6.4274807,-250.1374054
7400,4.0796990,1.9919657,8.9518747,0.2290076,-3.1221373,1.5190840,-19.3258972,6.4858594,3.5242469,-64.6564865,71.3893127,-250.1374054
7410,4.0940638,2.0590029,8.9710283,0.0687023,-2.5877862,1.7404580,-19.6131992,8.5065556,5.8777351,-45.8244286,111.5954208,-174.2061005
7420,4.1108232,1.9943599,9.0596132,-0.1832061,-1.9618320,1.8702290,-19.6131992,9.8353300,7.4722652,-18.9312973,113.4351120,-73.2900772
7430,4.1467361,2.0374553,9.0045462,0.0916031,-1.7099236,1.0687023,-19.6131992,8.4682484,6.7971039,47.1221390,104.4351120,121.2671738
7440,4.1204000,1.9584470,8.9662399,0.1221374,-2.2671757,1.2748091,-19.1080265,7.7739329,5.4084740,72.0839691,138.4961853,185.8854980
7450,4.0294209,1.9345051,8.9566631,-0.0916031,-2.5801528,1.8396946,-14.5638542,7.2089043,3.5769191,87.1374054,166.8320618,220.8931274
7460,4.0796990,1.9776005,8.9949694,-0.2595420,-2.8931298,2.2442749,-11.3747940,6.9431496,1.5083394,90.4351120,166.2137451,237.4274750
7470,4.0916696,1.9512644,9.0189114,-0.1603053,-2.8625953,2.6412213,-8.5496502,7.1298962,-0.3854645,80.5038147,137.0992432,240.4122162
7480,4.0773048,2.0087249,9.0093346,-0.0992366,-2.4961832,2.9923663,-5.8442163,7.5680327,-1.6902977,60.7633591,91.7633591,233.8702240
7490,4.1539187,2.0925217,8.9399033,-0.4427481,-2.0305343,3.4351146,-4.1036406,7.8768835,-2.1547706,38.4732819,35.1526718,223.2213745
7500,4.1611013,1.9895715,8.9063845,-1.3053435,-2.0000000,2.9618320,-2.5905130,8.4083929,-2.3008161,18.2595425,-21.1679382,218.3511505
7510,4.2281384,1.9991482,8.9039907,-1.4045801,-2.2900763,2.1908398,-1.3886299,8.5209198,-2.3151813,1.9694656,-59.3511467,221.4885559
7520,4.1491303,1.9584470,9.0213060,-0.9083970,-3.1145039,1.4809160,-0.2513899,7.9822278,-1.8459201,-1.6030535,-75.0305328,237.9618378
7530,4.1347651,1.9129574,8.9877872,-0.0534351,-2.3129771,0.0229008,5.5257893,5.8561873,-3.0430148,15.4351149,-76.9618301,250.1297760
7540,4.1539187,1.9321109,8.9494801,0.3053435,-1.7099236,1.1068702,13.9174232,4.5082588,-6.9766679,-2.2671757,-72.8625946,250.1297760
7550,4.2401094,1.9776005,8.9590569,-0.2900763,-0.8702290,1.4961832,18.3323078,4.2377152,-8.1665802,-26.9465656,-97.8167953,210.7328186
7560,4.3502421,1.9512644,8.9255381,-0.7480916,-0.6412213,1.1526718,19.6126022,4.5106530,-8.0540533,-49.3358765,-126.6793900,149.1908417
7570,4.3047528,1.9895715,8.8680773,-1.0000000,-0.3053435,0.7557252,19.6126022,5.0684991,-6.6199336,-65.0687027,-134.1679382,80.4198456
7580,4.2401094,1.9033806,8.8968077,-1.0916030,0.0076336,0.0610687,19.6126022,5.7316895,-5.3701668,-75.8473282,-121.7480927,13.6564884
7590,4.2065907,1.9416877,8.9375095,-1.5190840,-0.0229008,-0.1450382,19.6126022,6.4236102,-4.3813667,-86.8015289,-104.2595444,-49.8854980
7600,4.1251884,1.9273225,8.9782104,-1.1832061,-0.7862595,-0.2137405,19.6126022,6.5409255,-3.1914546,-97.4656525,-86.8931274,-105.4809189
7610,4.0437860,1.9297167,8.9901810,-0.6641222,-1.2671756,0.4503817,19.2636490,6.5864153,-1.8387375,-101.3587799,-67.9312973,-153.3435059
7620,4.1347651,1.9105632,9.0141230,-0.1068702,-1.6870229,0.5648855,16.8335457,6.4212160,-0.5722113,-96.3740463,-40.6870232,-192.1832123
7630,4.0557570,1.9560528,9.0476418,0.0839695,-1.2290076,0.2595420,14.5758257,6.2655940,-0.2657550,-85.5343475,-9.0152674,-224.5954132
7640,4.1012464,2.0254843,9.0524302,0.3969466,-1.0687023,0.1755725,12.6485033,5.9351954,-0.5147507,-75.5419846,19.9389305,-250.1374054
7650,4.0581512,1.9584470,8.9901810,0.8549618,-1.4351145,0.3358779,10.5559816,5.4683285,-1.3431402,-71.2213745,42.4045792,-250.1374054
7660,4.0557570,1.9871773,9.0236998,0.9923664,-1.7328244,1.0763359,8.1953106,4.8099265,-1.9297167,-72.3129807,57.6793900,-250.1374054
7670,4.0461802,1.9656296,8.8728657,1.2824427,-2.3587787,1.6946565,5.4324160,3.9839313,-2.3702476,-77.2137375,61.7251892,-250.1374054
7680,4.1180058,1.9488702,8.9063845,1.0610687,-2.5114503,2.1450381,1.8818330,3.2489152,-2.5809362,-86.2748108,54.4427490,-250.1374054
7690,4.1850433,1.9895715,8.9446917,0.8549618,-2.2748091,2.3587787,-2.0566087,2.8969693,-2.7628946,-98.7328262,42.1603050,-250.1374054
7700,4.2975702,2.0709739,8.8369532,0.8091603,-1.7862595,2.2213740,-7.5847921,2.8107784,-2.1499822,-114.2442780,35.8091621,-250.1374054
7710,4.2975702,2.0685797,8.8441362,0.4351145,-1.3664122,1.6564885,-13.4457684,3.5434003,-0.1771700,-125.9465637,48.1832047,-250.1374054
7720,4.2616572,2.1404054,8.9111729,0.1755725,-0.9770992,1.1297710,-19.6131992,5.0732875,3.2920105,-129.2595367,74.4961853,-250.1374054
7730,4.3143296,2.1212518,8.8561068,-0.3587786,-0.4351145,0.5267175,-19.6131992,6.3637557,7.0508881,-116.7328262,100.1603088,-204.1832123
7740,4.2688398,1.9560528,8.9829988,-0.9312977,-0.2366412,-0.0610687,-19.6131992,7.4052281,10.7475166,-87.8091583,107.5572510,-103.6793900
7750,4.1060348,1.9943599,8.9494801,-0.8473282,-0.3435115,-0.0534351,-19.6131992,7.8649125,13.3404236,-44.2595406,87.6717529,9.2671757
7760,4.1874375,1.9799947,8.9997578,-0.4809160,-0.7633588,0.9007633,-19.6131992,7.0173693,13.8408089,7.7328243,71.7709961,112.5190811
7770,4.0773048,1.9919657,8.9829988,-0.3435115,-0.9312977,1.2748091,-19.6131992,6.2392578,12.5886478,57.0305328,99.3282471,186.0305328
7780,4.1371593,2.0446377,8.9877872,-0.1832061,-1.2213740,1.6488550,-18.8087521,5.7843618,10.7499104,92.2595444,137.8473358,229.7709961
7790,4.1706781,1.9943599,9.0260944,-0.3206107,-1.2595420,1.9770992,-15.3228121,5.5018473,8.2862902,115.6183243,151.5267181,250.1297760
7800,4.2496862,2.0590029,8.8944139,-0.2061069,-0.8549618,1.9541985,-12.2007895,5.5210009,5.5186067,123.3053436,136.2824402,250.1297760
7810,4.1970143,2.0518203,8.9399033,-0.4656489,-0.9618320,2.2061069,-9.7730818,5.8825235,3.2225790,116.0305328,98.8549652,250.1297760
7820,4.2496862,1.9871773,8.8273764,-0.8396947,-2.3282442,1.8396946,-5.9591374,6.2584114,0.3447633,81.2900772,0.5190840,250.1297760
7830,4.2425036,2.0015423,8.8345594,-1.3893130,-1.9007634,1.4732825,-4.6710634,6.5241661,-0.0478838,65.8854980,-42.5572510,250.1297760
7840,4.3167233,2.0015423,8.8944139,-2.0305343,-1.4885496,0.8778626,-2.4971397,6.5696559,-0.2753318,58.8396950,-72.8473282,250.1297760
7850,4.3095412,1.9584470,8.9063845,-2.0992367,-0.8778626,0.4122137,-0.4261657,6.3374195,-0.5793939,60.0687027,-82.1984711,250.1297760
7860,4.3263001,1.8363433,8.9015961,-2.0458016,-0.4809160,-0.4198473,1.1803354,6.3326311,-1.0773853,65.0992355,-65.4809189,250.1297760
7870,4.2472920,1.8722562,8.9351149,-1.5648855,0.7557252,-1.0076336,2.4827745,6.1722202,-1.9464760,70.0763321,-30.1374054,250.1297760
7880,4.3382711,1.9033806,8.9303265,-1.8320611,1.7633588,-1.2213740,3.9025288,5.8418221,-3.2034254,70.7099228,1.1297710,250.1297760
7890,4.1323709,1.9153515,8.9279327,-1.0305344,0.3740458,-0.4503817,15.7130651,4.7740140,-6.5576849,-5.4198475,-45.7175560,250.1297760
7900,4.2018023,1.8746504,8.8848372,-1.2977099,0.4732825,-0.0916031,19.2277355,5.0277977,-6.2943239,-30.6793900,-88.6106873,202.3435059
7910,4.1706781,1.9608412,9.0213060,-1.3664122,0.4961832,-0.2290076,19.6126022,4.9607606,-6.3469963,-53.6335869,-125.2213745,140.0610657
7920,4.0581512,1.9153515,9.1242561,-0.7862595,0.2213740,-0.1145038,19.6126022,4.8410511,-5.7987270,-72.0457993,-144.8091583,72.6564865
7930,4.0916696,1.9105632,9.0165176,0.2900763,-0.2366412,0.4732825,19.6126022,4.9535780,-5.3486195,-84.5343475,-132.0534363,5.6870227
7940,4.1012464,1.9416877,9.0476418,0.5572519,-0.3511450,1.0763359,19.6126022,5.0349803,-4.3646073,-93.5038147,-91.8320618,-53.3358765
7950,4.0557570,1.9704180,8.9566631,0.6564885,-0.5343512,1.5725191,19.6126022,4.8171091,-2.7628946,-97.7633591,-60.0458031,-104.2900772
7960,4.1180058,1.8483143,8.9686337,1.1297710,-1.2061069,1.8778626,19.3953285,4.6279683,-1.6136837,-96.7404556,-50.2442741,-149.1068726
7970,4.1036406,1.9584470,8.9422979,1.4503816,-1.5572519,2.3740458,17.2046452,4.9847026,-0.8020535,-94.3969498,-42.2137413,-186.3816833
7980,4.1826491,1.9512644,8.9446917,1.5801526,-1.2137405,3.0916030,15.4808292,4.7476778,-0.2011119,-92.3358765,-36.7786255,-216.7633514
7990,4.2879934,1.9871773,8.8656836,1.6335878,-0.7862595,2.9541984,14.1712074,4.6447277,0.0215477,-88.7404556,-36.8320618,-246.3282471
8000,4.3095412,2.0087249,8.8968077,1.2442749,-0.5725191,2.7480917,12.7801828,4.6686692,0.2322364,-86.0916061,-37.7786255,-250.1374054
8010,4.3550305,2.0925217,8.8177996,0.7175573,-0.9312977,2.1374047,11.6094246,4.3023586,-0.0191535,-84.5038147,-38.0763359,-250.1374054
8020,4.3885493,2.0901275,8.7699156,-0.0916031,-1.0610687,1.3816794,10.0915089,3.7612717,-0.5339043,-87.7328262,-39.4961815,-250.1374054
8030,4.3478479,2.0661855,8.7866755,-0.7175573,-1.9770992,0.4885496,8.0229292,3.0334380,-0.9768293,-96.0763321,-44.5725174,-250.1374054
8040,4.3334827,1.9919657,8.8417416,-1.1068702,-1.9847329,0.1832061,5.6598639,2.2696917,-1.1731528,-108.1679382,-56.3511467,-250.1374054
8050,4.1970143,1.9991482,8.9375095,-1.0763359,-0.9923664,0.4045801,2.5210814,1.3862357,-1.0702027,-120.4885483,-73.1297684,-250.1374054
8060,4.1395535,1.9871773,9.0476418,-0.8396947,-0.6335878,0.9694657,-0.8116302,1.0079538,-0.7182568,-133.9847260,-94.7404556,-250.1374054
8070,4.1922259,2.0374553,8.9494801,-0.4351145,-0.9083970,1.6259542,-4.7500720,1.0534433,0.1843526,-149.2366486,-119.3816757,-250.1374054
8080,4.2018023,2.0230901,8.9087791,-0.1984733,-0.8549618,1.4045801,-10.0771437,1.2832855,2.1787124,-158.3893127,-138.9847260,-250.1374054
8090,4.2448978,2.0350611,8.9470863,-0.0610687,-1.2595420,1.2137405,-16.6276455,2.3391230,4.5776901,-155.4732819,-143.9923706,-250.1374054
8100,4.1467361,1.9967541,8.9111729,-0.0229008,-1.9007634,1.2290076,-19.6131992,4.8482337,7.9104018,-142.9465637,-126.4122162,-250.1374054
8110,4.2305326,1.9512644,8.8944139,0.0229008,-2.2900763,1.5190840,-19.6131992,6.4882536,10.8049774,-120.2137375,-107.1526718,-161.7099304
8120,4.2688398,1.9057748,8.9925756,-0.0152672,-3.1755726,1.8854961,-19.6131992,6.7037306,12.7562418,-83.6717529,-105.4274826,-53.6870232
8130,4.2903876,1.9584470,8.9063845,0.0381679,-2.6946564,2.4122138,-19.6131992,6.0644817,12.9453821,-37.8702278,-103.9236679,32.4045792
8140,4.3981261,1.9464760,8.9470863,-0.1984733,-1.6412214,2.4198472,-18.4639893,5.8035154,12.5096397,4.2290077,-83.4580154,86.9618301
8150,4.4938936,1.9799947,8.9279327,-0.3587786,-0.8702290,2.1450381,-12.9022865,5.8274570,10.9103212,38.2213745,-59.8244286,117.7099228
8160,4.5130472,1.9704180,8.9686337,-0.6870229,-0.2137405,1.2290076,-8.4299412,6.0405402,9.0380650,59.9541969,-50.2061081,126.9465637
8170,4.0796990,1.8746504,8.9734221,-2.0000000,-0.0305344,-0.0152672,-3.8307030,6.7755561,3.7181761,67.4580154,-42.1450386,54.2977104
8180,4.1539187,2.0398495,8.9351149,-0.8702290,-1.0458015,1.0458015,-7.2112985,7.6087341,5.8585815,79.6488571,11.5648851,81.2595444
8190,4.2592630,1.9297167,8.9590569,-0.5496183,0.1145038,0.9312977,-7.3597383,7.9534974,6.6199336,94.2977066,20.2900772,104.0916061
8200,4.3454537,2.0206959,9.0500364,0.0839695,0.2977099,0.2595420,-4.1108232,8.6909075,5.0732875,166.3893127,52.0916023,190.5877838
8210,4.1395535,1.9560528,8.8465300,0.3129771,0.3893130,-0.0076336,-0.1484398,7.9223728,0.4213773,201.4427490,116.8167953,250.1297760
8220,4.2975702,1.9608412,8.8944139,-0.0381679,0.7328244,1.4198474,8.7100611,7.3094602,-7.9247670,128.7404633,161.9694672,250.1297760
8230,4.2760224,2.0278785,8.8321648,-0.6641222,-0.0687023,0.6030535,14.9301653,8.1115141,-7.3621325,25.4122143,64.3587799,184.3053436
8240,4.2041965,1.9943599,8.8608952,-1.3129771,0.1603053,-0.0229008,19.2373123,8.1641865,-6.3685441,-29.0992374,-19.5496178,79.3969498
8250,4.1180058,2.0135133,8.9183559,-0.9770992,-0.7709923,0.5343512,19.6126022,7.8768835,-5.8681583,-47.1297722,-41.5343513,19.6412220
8260,4.0820932,1.9847831,8.9973640,-0.7480916,-0.9389313,1.2900764,19.6126022,7.6925306,-5.5856438,-60.7175560,-32.7175560,-38.0839691
8270,4.1060348,1.9799947,9.0093346,-0.6183206,-0.5419847,1.5343511,19.6126022,7.3669209,-5.1331420,-75.2824402,-12.7328243,-94.4961853
8280,4.1539187,1.9488702,9.0141230,-0.2824427,-0.4885496,1.7786260,18.5932751,7.0460997,-4.4172797,-88.8702316,-7.7251906,-144.9084015
8290,4.2089849,1.9967541,8.8920193,-0.1297710,-0.9770992,1.9618320,16.8335457,6.3493905,-3.5888901,-99.0916061,-12.5648851,-191.4351196
8300,4.2377152,1.9991482,8.9422979,-0.0992366,-0.9694657,2.0763359,14.9325600,5.9806852,-2.6383967,-108.8091583,-12.9083967,-231.2671814
8310,4.2688398,2.0805507,8.9135675,-0.3282443,-0.7404580,2.0763359,12.8137016,5.2672167,-1.4341195,-114.1221390,-8.7862597,-250.1374054
8320,4.3310885,2.0302727,8.8417416,-0.6870229,-0.4198473,2.2519083,10.8863792,4.5154414,-0.6153067,-115.7404556,-0.9160305,-250.1374054
8330,4.3310885,2.0326669,8.8608952,-0.9770992,-0.5267175,2.2061069,8.7316093,3.9121056,-0.1149211,-115.6106873,7.7022901,-250.1374054
8340,4.3789725,2.0422437,8.8824425,-1.0534351,-0.4809160,1.8702290,6.4164276,3.1603301,-0.0622489,-115.0152664,13.7480917,-250.1374054
8350,4.3430595,1.9799947,8.8321648,-1.7633588,0.1145038,1.6259542,3.7900019,2.3941894,0.0047884,-116.2137375,17.9541988,-250.1374054
8360,4.4579806,1.9081690,8.8034344,-2.3740458,1.1755725,1.0076336,0.0670373,1.5849534,0.3758878,-118.0000000,29.8549614,-250.1374054
8370,4.4460096,1.9345051,8.8369532,-2.8015268,2.2366412,0.4427481,-5.3366485,1.5921360,1.5107336,-114.6717529,63.7557259,-250.1374054
8380,4.4244623,1.8818330,8.9135675,-3.2595420,3.1679389,-0.0839695,-13.7019463,2.6000898,3.2537034,-103.5801544,115.4351120,-250.1374054
8390,4.4220681,1.9273225,9.0356712,-3.3435113,3.3129771,-1.1908396,-19.6131992,5.0254035,5.1953912,-84.5496216,148.9770966,-250.1374054
8400,4.2209558,1.9488702,9.0045462,-2.8167939,2.8549619,-2.0458016,-19.6131992,6.8809004,7.3549500,-60.0687027,142.9160309,-168.1755676
8410,4.1060348,1.8531027,8.9375095,-2.2595420,1.8244275,-2.5038168,-19.6131992,7.7787213,9.2966375,-26.8702297,121.8320618,-49.8931313
8420,4.0006905,1.8363433,8.9758167,-1.5419847,0.6106870,-1.9312977,-19.6131992,7.9822278,9.7204094,11.0000000,115.5038147,64.9312973
8430,3.9336534,1.8794388,8.9925756,-0.9923664,-0.3664122,-0.6106870,-19.6131992,7.3142486,9.0189114,46.7862587,134.1908417,157.9313049
8440,3.9959023,1.8818330,9.0572186,-0.6870229,-1.3206106,0.9160305,-19.6131992,6.8617468,7.9080076,74.2977066,168.9770966,220.8625946
8450,4.2041965,1.8004304,8.9877872,0.1679389,-2.2519083,1.0458015,-17.8438931,6.5026188,6.5217719,92.4809189,188.3053436,250.1297760
8460,4.1156116,1.9105632,9.0691900,1.5572519,-3.6793892,1.2061069,-13.9820662,6.3972740,4.3646073,100.7175598,174.3129730,250.1297760
8470,4.2041965,1.9105632,9.0284882,1.9541985,-4.6412215,1.4274809,-10.6948442,6.3829093,2.9592183,100.2519073,134.6564941,250.1297760
8480,4.2257442,1.8387375,8.9183559,1.9465649,-4.4809160,0.9618320,-7.9774394,6.8497758,1.8171898,94.2366409,87.8091583,250.1297760
8490,4.3143296,1.9536586,9.0260944,1.6259542,-3.4045801,0.7938932,-5.9351954,7.1418672,0.7206510,87.4580154,39.7099228,250.1297760
8500,4.4436154,2.0685797,8.8513184,1.1832061,-0.6717557,1.1603054,-2.2696917,7.3262196,-2.1882892,72.2137375,-41.1679382,250.1297760
8510,4.4891052,2.1715298,8.7100611,-0.0839695,1.1297710,-0.3511450,2.0566087,5.4587522,-4.7189474,60.1984749,-44.8320618,250.1297760
8520,4.4914994,2.1308286,8.8225880,-1.1984733,1.4885496,-1.4656489,4.7404952,4.2329268,-5.9375896,50.1450386,-16.3969460,250.1297760
8530,4.3717899,2.0613971,8.9279327,-1.6259542,1.2290076,-2.7557251,8.1522150,3.0717452,-6.3206601,36.0839691,6.9160304,250.1297760
8540,4.0964580,1.7932479,9.0093346,-1.9694656,1.2290076,-1.3282443,16.9700146,2.9233053,-5.7939386,-4.1984735,-17.0229015,250.1297760
8550,3.8785870,1.7740943,8.9949694,-1.7557251,0.4961832,-0.4732825,19.6126022,3.5577655,-5.4587522,-26.7786255,-62.9007645,250.1297760
8560,3.9073172,1.8507085,9.0620070,-0.4427481,-0.9541985,1.9312977,19.6126022,4.1060348,-4.8195033,-44.0687027,-105.4045792,185.8702240
8570,4.0725164,1.7142396,9.0356712,0.4809160,-1.9160305,3.1832061,19.6126022,4.9918852,-4.0964580,-53.4580154,-116.0381699,101.6183243
8580,4.0150557,1.9345051,8.9829988,1.7022901,-3.3816793,3.2748091,19.6126022,5.4898763,-3.7636659,-59.7557259,-88.1221390,17.4580154
8590,4.2065907,2.0781565,8.9255381,2.0000000,-4.6564884,3.9847329,19.6126022,5.8968887,-3.4117200,-67.7786255,-48.8778610,-57.6335869
8600,4.4507980,2.0422437,8.8465300,1.5725191,-4.0916033,3.2671757,19.6126022,5.8729467,-2.1164634,-75.2977066,-35.7099228,-119.2671738
8610,4.4531922,2.1787124,8.8752604,-0.0534351,-2.2366412,1.3129771,16.8790359,5.3988972,-0.4788379,-79.4045792,-36.9236641,-210.7557220
8620,4.5106530,2.0997043,8.8896255,-0.4732825,-2.0381680,0.1297710,14.6261034,5.0972295,-0.4070122,-78.6183243,-24.6870232,-242.2061005
8630,4.4029145,2.1811066,8.7387915,-0.9923664,-1.8702290,-0.3129771,12.5048513,4.5154414,-0.0909792,-76.8015289,-11.8931293,-250.1374054
8640,4.5154414,2.0518203,8.7651272,-1.9465649,-0.9007633,-0.9312977,10.5033092,3.9719603,0.0047884,-74.3511429,-4.5877862,-250.1374054
8650,4.3861551,1.9752063,8.8968077,-3.2290077,0.5114504,-1.7480916,8.6286592,3.2417326,-0.3160330,-74.8549652,-2.3206108,-250.1374054
8660,4.3526363,1.9177457,8.9351149,-3.1068702,0.4809160,-1.9618320,6.3733325,2.5378408,-0.6488253,-80.3358765,-7.5343513,-250.1374054
8670,4.2329268,1.9153515,9.0907373,-2.0000000,0.1297710,-2.0687022,4.2760224,1.6926919,-0.3615226,-89.7251892,-21.5648861,-250.1374054
8680,4.0940638,1.7980363,9.0093346,-1.2671756,-0.5572519,-1.6030535,1.7740943,0.9768293,0.3112446,-100.0687027,-41.9312973,-250.1374054
8690,4.1084290,1.6974803,8.9207497,-0.9847328,-0.9618320,-0.5267175,-1.2617378,0.6105183,1.3191984,-109.4045792,-59.9618340,-250.1374054
8700,4.0892754,1.8961980,8.9135675,-0.7480916,-1.4198474,0.9770992,-4.5944495,0.4572902,2.9304879,-114.6259537,-68.9083939,-250.1374054
8710,4.2281384,1.9177457,8.9159613,-0.6030535,-1.4656489,1.5038168,-10.3596573,0.9313397,4.8075323,-109.2595444,-44.7328262,-250.1374054
8720,4.3191175,1.9967541,8.9255381,0.3893130,-2.1755726,0.1984733,-18.4591999,3.1435707,7.2160869,-89.0457993,24.7175579,-250.1374054
8730,4.3430595,1.9799947,8.9351149,0.5725191,-2.7633588,0.1068702,-19.6131992,6.1817970,10.1992474,-56.9541969,101.6564865,-207.8625946
8740,4.3502421,1.9991482,8.8513184,0.0381679,-1.7938931,-0.3358779,-19.6131992,7.8050575,12.0331964,-16.2519093,133.8778687,-80.2061081
8750,4.3454537,1.9919657,9.0117292,-0.8015267,-1.7404580,-0.4045801,-19.6131992,7.5225434,11.3388815,28.3740463,133.3053436,51.6412201
8760,4.2879934,1.9153515,9.0811605,-0.6564885,-2.1603053,-0.0610687,-19.6131992,6.4738884,8.6526003,64.0305328,139.6793823,169.5877838
8770,4.2712340,1.8985922,8.9806042,0.4122137,-2.4427481,0.1526718,-19.6131992,5.3653784,6.5193777,82.3511429,170.4122162,250.1297760
8780,4.2903876,1.8842272,9.0380650,0.9465649,-2.7175572,0.7022901,-14.9421368,4.6926112,5.3414369,90.8702316,192.4656525,250.1297760
8790,4.1634955,1.9129574,8.9446917,1.1145039,-2.5267177,1.2595420,-10.3021975,5.1882086,4.4029145,92.3740463,180.1374054,250.1297760
8800,4.3023586,1.9991482,8.8800488,1.2442749,-3.7404580,2.0152671,-4.1347651,6.5026188,1.1947005,80.0839691,89.2824402,250.1297760
8810,4.3717899,2.0446377,8.8776541,1.1526718,-3.9160306,1.9541985,-0.7805058,7.1993275,-1.0558375,48.8091621,1.6412214,250.1297760
8820,4.3382711,2.0015423,8.8369532,0.5419847,-2.2366412,1.4045801,10.2998028,4.5800843,-3.3758070,14.5496187,-53.1450386,250.1297760
8830,4.4436154,2.0925217,8.7842808,0.4503817,-2.3435113,1.5343511,19.6126022,4.2808108,-4.1754665,-9.0229006,-69.8854980,173.9923706
