timestamp,rxacclX,rxacclY,rxacclZ,rxgyroX,rxgyroY,rxgyroZ,txacclX,txacclY,txacclZ,txgyroX,txgyroY,txgyroZ
0,-0.0598547,-0.1963235,9.9694052,-0.6946565,-0.1374046,0.2824427,-1.7142396,0.9744351,10.4219065,0.3206107,-3.7022901,-2.2900763
10,0.1149211,-0.1699875,9.7347746,-0.7557252,0.0381679,0.0763359,-1.8147956,1.0223188,10.4554253,0.3282443,-3.6335878,-2.1984732
20,0.0119709,-0.2537841,9.9239149,-0.7557252,0.0076336,0.2061069,-1.7022687,0.9911944,10.5009146,0.2748092,-3.6717558,-1.6106870
30,0.0861908,-0.2035061,9.9215212,-0.8396947,0.0992366,0.4503817,-1.7717001,1.0007712,10.3500814,0.5038168,-3.6412213,-2.6259542
40,-0.0383070,-0.1819584,9.8927908,-0.7709923,-0.0534351,0.2977099,-1.7429699,0.9528874,10.2854376,0.4656489,-3.5267177,-3.4503818
50,0.0095768,-0.1747758,9.9263096,-0.6412213,-0.0687023,0.2213740,-1.7381816,1.0007712,10.3141680,-0.3969466,-4.0458016,-2.1450381
60,0.0718257,-0.1556223,9.9574337,-0.4732825,-0.4274809,-0.4961832,-1.8195840,1.0127422,10.4362717,-0.3511450,-4.0687022,-1.9465649
70,0.0981618,-0.1939293,9.8784256,-0.4656489,0.0305344,-1.6335878,-1.7621235,0.9983770,10.5296450,-0.4656489,-4.0152674,-2.7938931
80,0.0000000,-0.2130829,9.8616667,-0.9770992,0.1450382,-2.0458016,-1.7309990,0.9911944,10.4099360,-0.3664122,-4.0916033,-2.3893130
90,-0.1628049,-0.1819584,9.9382801,-0.8167939,0.0076336,-1.1221374,-1.8076130,0.9073978,10.5080976,-0.2061069,-3.6488550,-2.5877862
100,-0.0287303,-0.1915352,10.0029240,-0.7633588,-0.6335878,0.4656489,-1.6663558,0.9816177,10.5535870,0.1603053,-3.4045801,-3.0916030
110,0.0383070,-0.2705434,10.0029240,-0.2900763,-0.0076336,0.3511450,-1.7980363,1.0390782,10.4147243,0.3129771,-2.6564887,-2.5648854
120,0.0023942,-0.1628049,9.8281479,-0.7480916,-0.0152672,0.1297710,-1.8004304,0.9864060,10.4578199,-0.1145038,-2.6259542,-2.7175572
130,0.0502780,-0.1651991,9.8951855,-0.7786260,-0.3129771,0.0534351,-1.8195840,0.9289455,10.3812056,-0.3740458,-2.8854961,-2.4198472
140,-0.0287303,-0.2418131,9.8832140,-0.8320611,-0.3358779,-0.0229008,-1.7525467,0.9576758,10.5033092,-0.3893130,-2.9160306,-2.8015268
150,0.0311245,-0.1963235,10.0364418,-0.6870229,-0.1526718,0.4122137,-1.8052188,0.9864060,10.4099360,0.3206107,-3.1450381,-3.3282442
160,-0.0071826,-0.2298422,10.0484133,-0.7480916,0.3664122,0.5954198,-1.7453641,0.9193687,10.4338779,0.4656489,-3.1984732,-2.4885497
170,-0.0143651,-0.1987177,9.9239149,-0.7251908,-0.1526718,0.2824427,-1.7717001,0.9576758,10.3788109,0.3511450,-3.0916030,-2.1068702
180,0.0526722,-0.1939293,10.0053177,-0.7251908,-0.0687023,0.1908397,-1.7525467,0.9720409,10.4482431,0.3587786,-2.9160306,-2.5725191
190,-0.0023942,-0.1412572,9.9789820,-0.9007633,-0.2748092,0.3740458,-1.7788827,0.9983770,10.4290895,0.5190840,-2.8167939,-2.7099237
200,-0.0071826,-0.1843526,9.8808203,-0.6946565,-0.3587786,0.0763359,-1.8554969,0.9983770,10.4650021,0.2824427,-2.9847329,-2.5038168
210,-0.0023942,-0.2035061,9.8999729,-0.7786260,-0.4732825,0.1984733,-1.7621235,0.9600700,10.3812056,0.0839695,-3.2900763,-2.3664122
220,-0.0598547,-0.1436514,9.9119444,-0.8091603,0.0076336,0.1374046,-1.7309990,0.9840119,10.3764172,-0.2519084,-3.5038168,-2.2748091
230,0.0119709,-0.2202654,9.9263096,-1.0076336,-0.5877863,0.0381679,-1.8004304,0.9792235,10.4027529,-0.2213740,-3.6183207,-2.5419848
240,0.0694315,-0.1723816,9.8736372,-0.4198473,0.3129771,-0.2900763,-1.7429699,0.9935886,10.3883877,-0.2290076,-3.4580152,-2.1374047
250,-0.0287303,-0.1699875,9.9550400,-0.6717557,-0.0992366,-0.2900763,-1.7836711,1.0055596,10.3883877,-0.3282443,-3.3969467,-2.5801528
260,0.0502780,-0.2011119,9.8880024,-0.6793893,-0.1832061,-0.4045801,-1.7333932,0.9600700,10.5033092,-0.0610687,-3.3053436,-2.4122138
270,0.0311245,-0.1675933,9.8856087,-0.6030535,-0.1984733,-0.7022901,-1.7597293,0.9217629,10.5248566,0.0152672,-3.4198472,-1.9541985
280,-0.0478838,-0.1723816,9.9287033,-0.7786260,-0.0992366,-0.4427481,-1.7788827,0.9576758,10.4219065,0.2748092,-2.9083970,-1.9389313
290,0.0239419,-0.2154770,10.0029240,-0.6870229,-0.3511450,-0.0610687,-1.7764885,0.9528874,10.3835993,0.5190840,-2.7557251,-2.5496182
300,0.0718257,-0.2968795,9.9909525,-0.7404580,-0.2595420,0.6030535,-1.8004304,1.0055596,10.2207947,-0.1908397,-2.9618320,-2.1832061
310,-0.0478838,-0.2130829,9.8185711,-0.7022901,-0.0916031,0.3129771,-1.7669119,1.0342898,10.3931761,-0.5954198,-3.2061069,-2.6106870
320,-0.0263361,-0.2154770,9.8233595,-0.6564885,0.0381679,0.4885496,-1.7812769,0.9576758,10.4338779,-1.1068702,-3.3206108,-3.1603053
330,0.0263361,-0.1628049,9.8161764,-0.4885496,-0.3816794,0.0534351,-1.8291607,0.9480990,10.3524752,-0.8320611,-3.0229008,-3.5114503
340,0.0095768,-0.2537841,9.8544836,-0.4961832,-0.0610687,0.3358779,-1.8100072,0.9552816,10.4817610,-0.5954198,-3.2977099,-3.0000000
350,0.0478838,-0.2633608,9.9071560,-0.8320611,-0.0305344,0.0687023,-1.8267666,0.9457048,10.4243011,-0.3435115,-2.8167939,-3.2595420
360,0.0598547,-0.1963235,9.9143381,-0.6183206,0.0763359,0.6030535,-1.7908537,1.0103480,10.3692341,0.0229008,-2.7099237,-3.4351146
370,-0.0023942,-0.2346306,9.9765873,-0.5648855,-0.6259542,0.0839695,-1.8291607,0.9768293,10.4099360,0.3358779,-2.2595420,-3.1297710
380,-0.0359128,-0.2226596,10.0699606,-0.3206107,-0.1068702,0.3664122,-1.8531027,0.9073978,10.3764172,0.0229008,-1.5877863,-3.3358779
390,0.1508339,-0.1867468,9.7850523,-0.7175573,-0.3969466,0.0763359,-1.8435259,1.0558375,10.4290895,-0.1221374,-2.4274809,-2.8167939
400,-0.0574605,-0.2250538,10.0244713,-0.4885496,-0.0763359,0.5725191,-1.9488702,0.9720409,10.4171181,-0.0839695,-2.3587787,-2.6717558
410,-0.0191535,-0.1580165,9.8640604,-0.5954198,-0.0610687,0.5954198,-1.8147956,0.9337339,10.4243011,0.1450382,-2.3740458,-2.4198472
420,-0.0885850,-0.1628049,9.9981356,-0.4732825,-0.0381679,0.4732825,-1.7669119,0.9696468,10.4171181,0.2595420,-2.4885497,-3.3129771
430,-0.0119709,-0.1628049,9.8257532,-0.5877863,-0.2900763,0.1984733,-1.8195840,0.9959828,10.4602137,0.4122137,-2.2671757,-2.8549619
440,0.0526722,-0.1987177,9.9310980,-0.4656489,-0.0839695,-0.2290076,-1.8985922,0.9720409,10.4650021,0.3435115,-2.6641221,-2.8396947
450,-0.0119709,-0.2035061,9.9646168,-0.9694657,-0.0687023,-1.3129771,-1.9536586,0.9145803,10.3405046,0.6641222,-1.6641221,-2.9236641
460,-0.0814024,-0.1628049,9.9239149,-0.9160305,0.0305344,-0.4351145,-2.0374553,0.8307837,10.4386663,0.6946565,-1.4885496,-2.2671757
470,0.0047884,-0.1628049,9.8640604,-0.5801527,-0.1221374,0.7709923,-2.5929072,0.7996593,10.3237448,0.6870229,-2.3358779,0.3664122
480,-0.0143651,-0.2681492,9.9215212,-0.5954198,0.1679389,0.5114504,-3.4356618,0.8044477,10.0867205,-1.3129771,-11.2671757,5.0687022
490,0.0119709,-0.2202654,9.9310980,-0.4656489,-0.1526718,0.6335878,-4.2544746,0.8643024,9.9215212,-4.2977099,-11.3969469,12.4580154
500,-0.0071826,-0.1843526,9.8401184,-0.3206107,-0.0076336,0.1068702,-4.1539187,1.1228749,9.9933472,-8.0839691,-7.8931298,24.8091602
510,0.0359128,-0.1819584,9.8880024,-0.7404580,-0.3511450,0.2824427,-3.6798692,1.0175306,10.2710724,-10.9541988,-1.1145039,36.5572510
520,0.0550664,-0.1819584,9.9023676,-0.4503817,-0.0839695,0.3358779,-3.1746953,0.5315101,10.4673967,-10.9236641,6.7862597,45.1374054
530,-0.0742199,-0.1580165,9.9215212,-0.4427481,0.1145038,0.2977099,-2.5713594,0.5123565,10.5751352,-9.6946564,10.8702288,48.8473282
540,0.0263361,-0.2035061,9.9574337,-0.7480916,-0.4656489,0.4122137,-1.8770446,0.9121862,10.6732969,-8.6183205,16.4809170,47.6259537
550,0.0359128,-0.2394189,9.9119444,-0.5801527,-0.2290076,-0.2366412,-2.0757623,1.1516051,10.6685085,-7.2442746,14.7251911,41.5954208
560,0.0742199,-0.1316804,9.7371683,-0.7175573,-0.1755725,-0.0152672,-2.4636209,1.7333932,8.8297710,-15.7404585,-1.9694656,25.4809170
570,-0.0861908,-0.1484398,9.8736372,-0.6412213,0.1145038,0.3587786,-3.6391680,2.3534882,8.3940287,-31.2061062,-3.1984732,22.1297703
580,0.0837966,-0.2370248,9.7778702,-0.6717557,-0.4427481,0.1145038,-4.8051381,2.7269819,8.4419117,-57.6793900,-3.2137403,28.1297703
590,0.0047884,-0.2035061,9.8999729,-0.5038168,-0.2290076,0.3129771,-5.2097564,2.4253139,9.4785957,-87.4961853,-3.5190840,40.1145020
600,-0.0478838,-0.2202654,9.9813757,-0.7099237,0.0610687,0.4580153,-5.5257893,2.2601149,12.2630386,-109.8702316,-5.3969464,54.0687027
610,-0.0191535,-0.2059003,9.9191265,-0.5038168,0.1526718,0.3511450,-5.8633699,1.4724265,15.2414103,-118.6793900,-2.4045801,68.6946564
620,0.0359128,-0.1771700,9.9167328,-0.9160305,-0.0839695,0.2748092,-5.5497313,0.2418131,17.3363266,-109.2061081,-0.7099237,81.4580154
630,0.0502780,-0.1436514,9.9287033,-0.7251908,-0.6564885,0.0610687,-4.8649931,-1.0223188,18.0952835,-88.5343475,-4.2366414,87.3129807
640,-0.0574605,-0.2322364,10.0125008,-0.4961832,0.5801527,0.6183206,-4.4196739,-1.1563935,18.8997307,-60.5419846,-14.6641226,88.3435135
650,0.1101327,-0.1867468,9.8449068,-0.8931298,-0.3053435,-0.0687023,-4.3119354,-1.8554969,19.1487274,-26.5343513,-14.2213745,92.7099228
660,-0.0311245,-0.1771700,9.9143381,-0.8931298,0.3511450,0.7633588,-4.2520804,-1.8291607,18.9739513,8.9160309,-2.5801528,103.5267181
670,-0.0071826,-0.1364688,9.9454632,-0.7328244,0.0000000,0.2977099,-4.0701222,-2.2864509,18.4496231,44.9771004,18.5114498,117.2900772
680,-0.0215477,-0.1771700,9.7994175,-0.6793893,-0.5725191,0.2442748,-4.2401094,-2.6503677,17.8702297,78.4885483,44.3969460,134.6793823
690,0.0407012,-0.2130829,9.8903971,-0.6412213,-0.4351145,0.2519084,-4.3741841,-3.0382264,17.1663380,108.8931274,68.6793900,157.3740387
700,0.0502780,-0.1891410,9.8688488,-0.3816794,-0.2595420,0.0305344,-3.9815371,-3.8378856,16.6635590,137.0610657,110.7328262,184.4732819
710,0.1005560,-0.1795642,9.9957409,-0.5343512,-0.0687023,0.4503817,-3.3853838,-4.0389977,16.4935703,164.4122162,167.6870270,211.0076294
720,0.0311245,-0.1987177,9.9694052,-0.6564885,0.1832061,-0.0229008,-3.4715748,-4.1227942,16.7186241,193.9313049,213.9160309,231.7557220
730,0.1173153,-0.1963235,9.8975792,-0.6793893,0.0076336,-0.5419847,-2.5378408,-4.4771342,16.3738613,223.7328186,235.8778687,243.3664093
740,-0.1580165,-0.2394189,9.9143381,-0.9541985,0.0839695,-0.1679389,-1.2497669,-4.3550305,15.7322187,246.6793823,239.6030579,245.4656525
750,0.1149211,-0.1915352,9.8305416,-0.8625954,-0.3206107,0.2824427,0.1125269,-4.0246325,14.6021614,250.1297760,237.2290039,239.6335907
760,0.0143651,-0.2513899,9.9861641,-0.5725191,-0.2366412,0.3893130,0.7685348,-3.5745249,13.9820662,250.1297760,242.7175598,228.4045868
770,0.0407012,-0.1699875,9.8903971,-0.4656489,-0.5954198,0.2595420,0.9289455,-2.8107784,13.4768925,250.1297760,250.1297760,218.3816833
780,-0.0191535,-0.2729376,9.9239149,-0.5572519,0.1450382,0.4885496,0.4932030,-2.4013720,12.8328552,250.1297760,250.1297760,211.2061005
790,0.0287303,-0.2274480,9.9358864,-0.6946565,0.0458015,0.4656489,-0.3710994,-2.2170193,11.7411051,250.1297760,250.1297760,207.0458069
800,0.0430954,-0.2035061,9.8832140,-0.6717557,-0.0229008,0.2977099,-0.9911944,-1.7070571,10.5272512,250.1297760,250.1297760,207.6488495
810,0.0837966,-0.2442073,9.9191265,-0.2213740,-0.7557252,0.0000000,-1.5011568,-1.1947005,9.2990322,250.1297760,250.1297760,208.5572510
820,0.1101327,-0.2202654,9.8736372,-0.6030535,0.2366412,-1.0152671,-1.9991482,-0.8092360,7.9511032,250.1297760,250.1297760,211.7786255
830,0.2944853,-0.2298422,9.9334917,-0.2595420,-0.3053435,-3.6564887,-2.2649033,-0.2011119,6.6175399,250.1297760,250.1297760,215.3282471
840,0.1197095,-0.1891410,9.9310980,-0.3740458,0.3358779,-5.8625956,-2.2553265,0.3639168,5.7484488,250.1297760,243.3587799,217.5954132
850,0.1484398,-0.2035061,9.8832140,-0.1603053,-0.1755725,-7.6106873,-1.6136837,0.9983770,4.6279683,250.1297760,227.2671814,216.8091583
860,-0.0119709,-0.1723816,9.9502516,-0.0992366,-0.1908397,-7.6641221,-0.9552816,1.6400198,3.6032550,250.1297760,204.8167877,210.4656525
870,0.3136388,-0.2346306,9.9526453,-0.0992366,-0.9236641,-9.5648851,-0.6177009,2.3199697,2.6120608,250.1297760,181.8473358,200.2748108
880,0.1316804,-0.2442073,9.9957409,-0.0458015,0.0763359,-11.2366409,-0.1125269,3.3303175,1.5705882,250.1297760,162.5267181,190.5267181
890,-0.0311245,-0.2011119,9.9981356,-0.3740458,-0.3282443,-10.9694653,-0.2873027,3.8690102,0.8283895,247.8473358,153.5114441,186.5496216
900,-0.0311245,-0.2250538,9.9263096,-0.0916031,-0.4732825,-10.5267172,-0.1244979,4.4268565,0.7230452,232.8091583,151.4961853,186.2519073
910,0.0646431,-0.2561783,9.9981356,0.1755725,-0.4198473,-10.1908398,0.3184272,4.4077029,0.5793939,223.0610657,148.7557220,186.0000000
920,-0.0694315,-0.2370248,10.0484133,-0.3740458,-0.1832061,-9.5877867,1.2066715,4.6471219,0.4261657,218.3969421,148.5114441,181.6488495
930,-0.0071826,-0.2250538,10.0101061,-0.0687023,-0.2824427,-8.7480917,1.6232605,4.7788019,0.0215477,215.5572510,149.6793823,174.6335907
940,-0.0646431,-0.1747758,9.9478569,-0.4351145,0.2366412,-7.4198475,1.9967541,5.1115947,-0.5099624,210.9084015,149.1832123,166.7786255
950,0.0885850,-0.2011119,9.8975792,-0.1450382,-0.3740458,-7.3435116,2.2720859,5.5952206,-0.7158626,204.0686951,146.8854980,158.0534363
960,0.0191535,-0.1484398,9.8975792,-0.2137405,0.2366412,-7.6335878,2.2696917,6.0884237,-0.7278336,198.0458069,142.3053436,149.3969421
970,0.1723816,-0.1699875,10.0388365,-0.2900763,-0.3969466,-8.2900763,2.2601149,6.0884237,-1.5394639,191.9847260,134.2290039,142.1145020
980,0.0574605,-0.2801202,9.9430685,-0.2748092,0.0534351,-9.1145039,2.3989778,6.2081332,-2.5330524,183.4503784,127.7709961,137.3740387
990,0.0407012,-0.1412572,9.9454632,-0.1603053,0.0000000,-9.6183205,2.6431851,6.4116392,-3.4476328,171.2900696,129.2824402,136.0534363
1000,0.0502780,-0.2011119,9.9239149,-0.2900763,-0.2824427,-9.7022905,2.6958573,6.5289545,-4.0366035,159.0763397,133.1603088,135.4809113
1010,0.0239419,-0.2154770,9.8951855,-0.3587786,-0.0229008,-9.1526718,3.0334380,6.6606350,-4.6088147,147.6259613,129.7480927,136.3969421
1020,-0.0191535,-0.1843526,9.9239149,-0.2137405,-0.1068702,-8.5648851,3.5410061,6.7013364,-5.3653784,134.0305328,120.6259537,134.6030579
1030,-0.1316804,-0.1819584,9.8784256,-0.1145038,0.0534351,-7.4580154,4.4005203,6.8928714,-6.1626434,117.4503784,116.1984711,133.2671814
1040,-0.1508339,-0.1867468,9.9765873,-0.3740458,-0.0610687,-5.1145039,5.8992829,7.6566176,-6.7779503,98.3282471,137.6564941,124.9007645
1050,-0.0071826,-0.2442073,9.8856087,-0.4961832,-0.1374046,-3.9007633,6.2368636,6.4643116,-7.9678626,82.0381699,140.9465637,127.2290039
1060,0.0239419,-0.1651991,9.9023676,-0.3053435,-0.2137405,-3.0687022,6.3541789,6.8162575,-8.8489246,68.9847336,123.7251892,140.3664093
1070,-0.1173153,-0.2537841,9.9622221,-0.5496183,-0.1832061,-1.6793894,9.4211359,6.7707677,-8.8920193,58.6870232,118.2977066,145.1526642
1080,-0.0742199,-0.2035061,9.8927908,-0.9083970,0.1679389,-0.5496183,12.0260134,6.6295104,-9.1098909,50.3511467,130.7251892,131.5954132
1090,-0.0359128,-0.1268920,9.9215212,-0.7099237,-0.3740458,0.5877863,14.0227680,6.9144192,-9.3636751,41.7862587,145.0992432,108.3664093
1100,0.0574605,-0.2346306,9.9406748,-0.6412213,-0.0610687,0.2595420,15.2438040,7.1945391,-9.9047613,29.7480907,139.5343475,77.6793900
1110,0.0478838,-0.1723816,9.9310980,-0.7328244,-0.1374046,0.3664122,16.8311520,7.4938130,-10.1633339,9.9236641,114.9236679,38.2442741
1120,0.0502780,-0.2082945,9.9646168,-0.8625954,-0.2977099,0.2366412,18.0043049,7.4746594,-10.6086531,-15.9618320,85.0076370,-11.1679392
1130,-0.0071826,-0.1771700,9.9670105,-0.7328244,-0.2977099,0.3511450,17.7433376,7.3956513,-10.7738523,-46.0381660,63.9771004,-65.3435135
1140,0.0909792,-0.2370248,9.9717989,-0.6946565,-0.0763359,0.4045801,16.4959660,7.1131368,-10.2638903,-71.9389343,43.2213745,-112.0916061
1150,0.0167593,-0.1819584,9.8927908,-0.5572519,-0.1374046,0.4580153,14.9205885,6.7803445,-9.5384512,-93.0076370,23.3587780,-152.4732819
1160,-0.0287303,-0.2130829,9.8281479,-0.7022901,0.0687023,0.3358779,13.1895895,6.6007805,-9.1051025,-113.1068726,5.9541984,-187.2061005
1170,0.0454896,-0.1651991,9.9670105,-0.6870229,-0.4580153,0.2061069,11.2167778,6.4810710,-8.7579451,-135.5648804,-7.5572519,-217.1068726
1180,-0.0407012,-0.1819584,9.9215212,-0.8015267,-0.0687023,0.4274809,9.6126709,6.1267309,-7.9415264,-154.2290039,-17.3816795,-240.3282471
1190,0.0957676,-0.2250538,10.0005293,-0.5801527,-0.3816794,0.2595420,8.0540533,5.7412663,-6.8880830,-165.4198456,-21.7786255,-250.1374054
1200,-0.0454896,-0.2394189,9.9694052,-0.4809160,-0.2366412,0.4580153,6.5983863,5.4419928,-5.9136481,-168.9465637,-16.8244267,-250.1374054
1210,0.0694315,-0.1795642,9.8520899,-0.6183206,-0.2213740,0.2290076,4.8171091,5.2815819,-5.3797436,-169.3435059,-7.7404580,-250.1374054
1220,-0.0047884,-0.2537841,9.8927908,-0.9389313,-0.2519084,0.3053435,3.0621684,5.0182209,-5.1929970,-171.4274750,-1.2442749,-250.1374054
1230,0.0430954,-0.1771700,9.8329363,-0.6641222,-0.3206107,0.1908397,0.8643024,4.7764082,-4.9727316,-179.4732819,-0.2290076,-250.1374054
1240,-0.0239419,-0.1747758,9.9334917,-0.9160305,-0.1908397,0.1221374,-1.9991482,4.7644372,-4.5154414,-192.1755676,-8.5572519,-250.1374054
1250,0.0335187,-0.1699875,9.8784256,-0.5572519,-0.2137405,0.3969466,-4.6926112,5.0876527,-4.0773048,-207.5419922,-31.4961834,-250.1374054
1260,-0.0335187,-0.2011119,9.8999729,-0.8015267,0.0610687,0.2519084,-7.1011658,5.0972295,-3.1052637,-224.0458069,-62.6030540,-250.1374054
1270,0.0383070,-0.1412572,9.8640604,-0.7480916,-0.3129771,0.4427481,-9.2439651,5.2959471,-1.5586174,-236.6183167,-86.2519073,-250.1374054
1280,0.0454896,-0.1675933,9.8760319,-0.6870229,-0.1068702,0.3893130,-11.4322548,5.5736732,0.7134684,-244.3358765,-89.9083939,-223.9236603
1290,0.0311245,-0.2442073,9.9119444,-0.6030535,-0.2748092,0.3893130,-13.1680422,5.9878678,2.8610563,-243.9465637,-66.1984711,-179.5038147
1300,0.0454896,-0.1651991,9.9334917,-0.5190840,-0.0152672,0.3358779,-15.1839495,6.5696559,5.6550756,-235.6488495,-8.4351149,-123.2595444
1310,0.0646431,-0.2035061,9.9095497,-0.6030535,0.0381679,0.1679389,-16.7569313,6.5720501,8.3772688,-218.9160309,58.7099228,-61.5954208
1320,0.0430954,-0.2059003,9.8257532,-0.8091603,0.3511450,0.2137405,-17.1495800,6.2847471,10.4314833,-192.2900696,103.7175598,-6.4274807
1330,-0.0095768,-0.2274480,9.9646168,-0.7404580,-0.2519084,0.1526718,-15.9812145,6.1530671,11.6549139,-160.4503784,120.4122162,38.3053436
1340,0.0071826,-0.2202654,9.9215212,-0.6335878,-0.1297710,0.3129771,-14.0179796,5.8370337,11.7339230,-129.3893127,118.7557220,66.8396912
1350,0.0191535,-0.1891410,9.9191265,-0.6870229,-0.0305344,0.3587786,-11.7363167,5.5042415,10.9486284,-102.4809189,117.7404556,82.6412201
1360,-0.0622489,-0.1412572,9.9981356,-0.7938932,-0.0610687,0.2671756,-10.1513634,5.2360926,9.9239149,-82.0229034,124.9770966,90.3664093
1370,-0.0191535,-0.2489957,10.0148945,-0.5725191,-0.3282443,0.2824427,-9.1817169,4.9344244,9.1290445,-67.8396912,127.6564865,92.1984711
1380,0.0335187,-0.2442073,9.9885588,-0.7328244,-0.1068702,0.2671756,-8.4993725,4.7668314,8.5735922,-59.0687027,120.9770966,89.6793900
1390,0.0957676,-0.2274480,9.8856087,-0.5343512,-0.2748092,0.1374046,-8.3652983,4.6159973,8.3557215,-54.2290077,106.3587799,85.4198456
1400,0.0095768,-0.1436514,9.9143381,-0.4198473,-0.2671756,0.2519084,-8.4203644,4.3191175,9.1362267,-49.3282433,87.7557220,82.9542007
1410,0.0933734,-0.2178712,9.8688488,-0.6717557,-0.3969466,0.2977099,-8.6765423,4.2544746,10.4985209,-38.5190849,68.5038147,83.6183243
1420,-0.0119709,-0.1843526,9.9047613,-0.5572519,-0.0305344,0.3129771,-8.8968077,4.1156116,12.1409349,-18.8167934,50.2671738,88.8396912
1430,-0.0239419,-0.2346306,9.9215212,-0.7557252,-0.3129771,0.0687023,-9.0021524,4.0389977,13.3284531,11.4961834,28.5343513,97.4351120
1440,0.0574605,-0.1819584,9.9358864,-0.4351145,0.0305344,0.4656489,-8.5233145,4.0892754,13.8551741,46.0381660,16.7862587,108.6412201
1450,0.0957676,-0.2250538,9.9239149,-0.5343512,-0.3969466,0.1755725,-7.7882981,4.1371593,13.1057930,81.5496216,12.6946564,118.5877838
1460,0.0407012,-0.2394189,9.9861641,-0.5725191,0.0076336,0.0534351,-7.1586266,4.2137733,11.6716738,112.5801544,8.8549614,127.2671738
1470,0.0837966,-0.2442073,9.7706871,-0.2977099,0.4503817,-0.5801527,-6.4475522,4.3239059,9.6294298,135.8015289,5.4732823,134.4351196
1480,0.1843526,-0.1987177,9.8616667,-0.4351145,-0.7251908,-2.8473282,-5.6502872,4.4388270,7.4219875,151.1374054,3.2977099,140.2213745
1490,-0.1556223,-0.1675933,9.9526453,-1.0763359,0.9541985,-2.8396947,-4.8769641,4.3430595,5.2624283,160.8702240,3.6335878,146.0915985
1500,-0.0670373,-0.1436514,9.9406748,-0.5496183,0.0687023,-2.9541984,-3.8426740,4.6543045,1.0199248,167.1984711,11.5801525,162.0763397
1510,-0.0407012,-0.1412572,9.8784256,-0.4503817,-0.2671756,-2.6106870,-3.2010312,5.0014620,-0.6033357,165.2977142,11.0763359,171.8702240
1520,-0.0742199,-0.2082945,9.9119444,-0.6946565,-0.3129771,-1.4503816,-2.5665710,5.4012914,-1.7740943,160.6870270,7.4809160,183.2213745
1530,-0.0167593,-0.1197095,9.9023676,-0.7175573,-0.2366412,-0.4503817,-1.4843974,5.7484488,-3.0717452,154.4503784,-3.2442749,196.5801544
1540,-0.0407012,-0.1436514,9.9598284,-0.4732825,-0.5267175,0.5114504,-0.2370248,6.2488346,-4.3334827,144.7328186,-9.3740454,209.5496216
1550,0.0095768,-0.2418131,9.9239149,-0.4274809,-0.2366412,0.3206107,1.3263810,6.4762826,-5.2432747,132.9541931,-8.2671757,222.0305328
1560,0.0814024,-0.1675933,9.9670105,-0.7022901,-0.3816794,0.4732825,2.7413468,6.6103573,-5.9735026,119.2519073,-8.1526718,231.4732819
1570,0.0646431,-0.2178712,9.9263096,-0.8778626,0.0763359,0.4961832,4.0725164,6.7851329,-6.2009506,105.5877838,-8.3740454,235.2748108
1580,-0.0119709,-0.1915352,9.9430685,-0.7022901,-0.2366412,0.3358779,5.4970589,6.8306227,-6.1698260,89.7099228,-12.5267172,235.9465637
1590,0.0694315,-0.0909792,9.8329363,-0.6259542,-0.1832061,0.3435115,8.0875721,6.6319046,-6.6079631,58.2137413,-2.1984732,228.9313049
1600,-0.0837966,-0.2920911,10.0005293,-0.8549618,-0.2519084,0.2824427,8.9901810,6.7180958,-6.2847471,42.0839691,-1.2137405,222.4732819
1610,0.0957676,-0.2011119,9.9287033,-0.7022901,-0.3893130,0.2442748,10.0268650,6.7516141,-6.2057390,26.9007626,-3.4732823,213.0915985
1620,-0.0071826,-0.2801202,9.9837704,-0.6183206,0.1526718,0.5190840,10.5296450,6.9072366,-5.9854736,13.2519083,-22.4045811,202.6412201
1630,0.0981618,-0.1364688,9.7922344,-0.7251908,0.0229008,0.3969466,11.2383251,6.6606350,-5.6167684,1.5877863,-47.0152664,194.8167877
1640,-0.0095768,-0.1675933,9.8903971,-0.5954198,-0.2137405,0.1984733,12.8448267,6.4834652,-4.9296360,-6.4656487,-51.6946564,184.6946564
1650,0.0790083,-0.1987177,9.9191265,-0.6564885,-0.5725191,0.2977099,14.4249916,5.9782910,-4.4292507,-9.1603050,-31.0000000,174.3587799
1660,0.0574605,-0.1987177,9.8736372,-0.6641222,0.0610687,0.5038168,15.9046001,5.5545197,-3.6056492,-8.4122133,-1.8778626,160.7938995
1670,-0.0023942,-0.1915352,9.9646168,-0.5954198,-0.2824427,0.2595420,17.5087070,5.3773494,-3.0501974,-4.5343513,20.8473282,139.0610657
1680,-0.0095768,-0.2466015,9.9861641,-0.2748092,-0.1984733,0.4961832,19.3258972,5.0804701,-2.3247581,2.6412213,37.9694672,107.2595444
1690,0.0574605,-0.2130829,9.9670105,-0.7022901,-0.1603053,0.3740458,19.6126022,5.2169390,-2.4755919,1.5954199,46.2366409,-24.5496178
1700,-0.0143651,-0.1412572,9.9191265,-0.5877863,0.1297710,0.3206107,19.6126022,5.0277977,-2.3606708,-2.2213740,40.0992355,-72.0381699
1710,0.0215477,-0.1460456,9.9287033,-0.4961832,-0.1755725,0.1297710,18.5094795,4.9703374,-2.2122312,-3.9770992,36.1908379,-111.7099228
1720,0.0263361,-0.2418131,9.9191265,-0.5877863,-0.1145038,0.3053435,16.7880573,4.9727316,-2.1164634,-6.6183205,42.3206100,-144.4351196
1730,0.0454896,-0.1699875,9.9765873,-0.7328244,-0.1297710,0.4427481,15.0043850,4.9009056,-1.8626794,-8.7633591,52.5725174,-171.5190887
1740,0.0502780,-0.1987177,9.9215212,-0.6641222,0.0305344,0.3053435,13.0698805,4.7381010,-1.5011568,-7.1908398,64.0229034,-191.8244324
1750,0.0814024,-0.2059003,9.8520899,-0.4427481,-0.1984733,0.3053435,11.3724003,4.6926112,-1.5466464,-2.3282442,76.4885483,-207.9694672
1760,0.1221037,-0.1340746,10.0244713,-0.5572519,0.0381679,0.3435115,9.9239149,4.9056940,-2.0015423,2.9923663,85.7709961,-219.0534363
1770,0.0574605,-0.1867468,9.8449068,-0.4885496,-0.0610687,0.2213740,8.8177996,5.1331420,-2.3941894,5.9236641,89.8625946,-228.2671814
1780,0.0167593,-0.1771700,9.9430685,-0.8549618,-0.1832061,0.5114504,7.8170285,5.3366485,-2.5019281,7.7480917,85.2748108,-237.5038147
1790,0.0526722,-0.1436514,9.8473015,-0.7404580,-0.1145038,0.1450382,6.8689294,5.5545197,-2.7317703,7.0000000,73.2137375,-247.2442780
1800,0.0119709,-0.1987177,10.0220766,-0.7938932,0.0992366,0.5725191,6.0261750,5.5904322,-3.1363883,2.9236641,58.5954208,-250.1374054
1810,0.0071826,-0.2082945,9.8568783,-0.7175573,-0.0381679,0.4580153,5.2576399,5.8513989,-3.3710186,-5.3053436,41.1679382,-250.1374054
1820,-0.0047884,-0.2561783,10.0268650,-0.7633588,0.0381679,0.7251908,4.4029145,5.7340837,-3.5338237,-16.0152664,21.0992374,-250.1374054
1830,0.0311245,-0.1843526,9.8736372,-0.6793893,0.1221374,0.4427481,3.5362179,5.6071916,-3.3422885,-27.9389305,-0.1679389,-250.1374054
1840,-0.0239419,-0.1173153,10.0172882,-0.8167939,-0.1679389,0.4961832,2.3846128,5.1690550,-3.0023136,-39.9312973,-21.8244267,-250.1374054
1850,0.0215477,-0.2154770,9.9023676,-0.5267175,-0.0305344,0.4809160,0.7421987,4.7572546,-2.6743097,-50.4427490,-39.2900772,-250.1374054
1860,0.0311245,-0.2346306,9.8688488,-0.3664122,-0.3282443,0.0458015,-1.9081690,4.6519103,-2.4899571,-59.0152664,-43.4503822,-250.1374054
1870,0.0909792,-0.1292862,9.9263096,-0.5648855,-0.6870229,-0.0687023,-5.3031297,5.1235652,-1.9225341,-66.7557220,-32.5877876,-250.1374054
1880,0.0718257,-0.2418131,9.8353300,-0.4274809,0.0458015,-0.3587786,-8.8800488,5.7652082,-1.4724265,-74.0839691,-19.7786255,-250.1374054
1890,0.0000000,-0.1556223,9.9670105,-0.6259542,0.2061069,0.0763359,-12.6006193,6.7396431,-0.1843526,-79.9312973,-12.8015270,-250.1374054
1900,0.0718257,-0.2154770,9.9837704,-0.5190840,0.1068702,0.4732825,-15.2509871,7.4028339,1.1492109,-82.3969498,-9.5648851,-222.9084015
1910,0.0670373,-0.1651991,10.0484133,-0.6488550,-0.3893130,0.3206107,-17.2166157,7.8289995,2.8275378,-78.7633591,-4.4732823,-173.1679382
1920,0.0598547,-0.1915352,9.8544836,-0.6793893,0.1221374,0.2442748,-18.6196117,7.7978749,4.4364328,-68.2442780,10.4580154,-119.6106873
1930,0.0359128,-0.1556223,9.8903971,-0.7557252,-0.3587786,0.1832061,-18.9691639,7.9008250,6.1554613,-51.7404594,33.1908379,-66.4580154
1940,-0.0646431,-0.1747758,9.8736372,-0.3893130,0.1832061,0.3206107,-18.6100349,7.6997132,7.2496057,-31.7862587,55.4198456,-20.6259537
1950,-0.0023942,-0.1628049,9.8544836,-0.6641222,-0.0839695,0.4274809,-17.7050304,7.5680327,7.9295554,-11.5190840,63.4427490,14.3664122
1960,0.0383070,-0.2561783,9.9670105,-0.6259542,-0.1908397,0.2137405,-15.1073351,7.4195933,7.3453732,17.2671757,45.1068687,54.0763359
1970,0.0742199,-0.1699875,9.8568783,-0.5725191,-0.2671756,0.2061069,-11.1329813,6.9503322,5.0134325,45.2061081,-18.5725193,89.6488571
1980,0.0502780,-0.2729376,9.9358864,-0.5496183,-0.1297710,0.4274809,-10.3093796,6.9383612,4.9440012,51.0381660,-28.6183205,98.7404556
1990,0.0000000,-0.2370248,9.8927908,-0.7709923,0.0839695,0.4503817,-9.6414013,6.9024482,4.5800843,59.6717567,-36.5038185,109.8396912
2000,0.0287303,-0.1939293,9.9981356,-0.4961832,-0.3893130,0.3282443,-8.8106174,6.8952656,4.0318151,68.8778610,-40.3282433,121.7404556
2010,0.0191535,-0.1915352,9.8784256,-0.5114504,-0.1221374,0.3740458,-7.9582858,6.8497758,3.2944047,76.9847336,-40.8549614,132.7786255
2020,0.0263361,-0.1508339,9.8616667,-0.7251908,-0.2595420,0.1755725,-6.9958215,6.7707677,2.4660151,83.8854980,-41.9389305,143.3053436
2030,0.0574605,-0.1460456,9.8353300,-0.6259542,-0.1221374,0.4045801,-5.8609757,6.8497758,1.1635761,88.2519073,-45.7175560,153.0686951
2040,-0.0047884,-0.2489957,9.8640604,-0.7251908,-0.4961832,0.2213740,-4.8745699,7.0053983,-0.2274480,89.9083939,-52.5038185,162.2519073
2050,0.0119709,-0.2154770,9.9382801,-0.6412213,-0.1679389,0.0992366,-3.6726866,7.1059542,-1.6017127,88.3129807,-63.7786255,169.6183167
2060,0.0550664,-0.1939293,10.0603838,-0.6641222,-0.5648855,0.2366412,-2.4947455,7.1705976,-2.7628946,82.7480927,-68.4427490,175.8549652
2070,0.0119709,-0.2226596,9.8664551,-0.8473282,0.1908397,0.5419847,-1.0103480,7.3788919,-3.6894460,74.8778610,-65.0610657,183.1984711
2080,-0.0119709,-0.2753318,9.9310980,-0.7786260,-0.0076336,0.5267175,0.3040621,7.3812861,-4.4603748,66.3129807,-60.9083977,192.0229034
2090,0.0119709,-0.2777260,9.8353300,-0.8854962,0.0000000,0.3511450,1.3862357,7.4866304,-5.0708933,58.3358765,-63.9389305,201.6488495
2100,0.0718257,-0.1987177,9.9047613,-0.7557252,-0.0763359,0.3206107,2.8323262,7.4171991,-5.4970589,51.4885483,-61.6488533,212.5648804
2110,0.0478838,-0.2370248,10.0148945,-0.7557252,-0.3511450,0.2671756,4.2065907,7.3501616,-5.7221127,44.7404594,-56.3664131,224.9923706
2120,0.0407012,-0.1939293,9.8185711,-0.6412213,-0.2824427,0.0839695,6.2608056,7.1562324,-5.5401545,39.3587799,-47.3511467,235.5190887
2130,0.0143651,-0.1364688,9.9167328,-0.7404580,0.2213740,0.3969466,8.7603388,6.6869712,-5.5401545,36.4885483,-30.9847336,241.0610657
2140,-0.0023942,-0.1963235,9.8568783,-0.5877863,0.0000000,0.3664122,12.0260134,6.2081332,-5.5784616,37.3816795,0.7862595,238.3587799
2150,0.0047884,-0.1651991,9.9694052,-0.6717557,-0.4122137,0.1526718,15.5406837,5.6885943,-5.7436604,39.6030540,39.2671738,224.6183167
2160,0.0790083,-0.2154770,9.9095497,-0.7328244,-0.2213740,0.3893130,18.3490677,5.4946647,-5.8561873,38.1068687,66.8702316,194.9770966
2170,0.0909792,-0.1699875,9.9191265,-0.7251908,-0.3129771,0.2519084,19.6126022,6.1913738,-6.4810710,22.3435116,66.9618301,146.8091583
2180,0.0430954,-0.1867468,9.9789820,-0.5725191,-0.0229008,0.3129771,19.6126022,6.2871413,-6.7133074,-3.7557251,29.6717548,87.1526718
2190,0.0287303,-0.2537841,9.9215212,-0.5190840,-0.1297710,0.2061069,19.6126022,6.0405402,-5.7891502,-29.0000000,-23.8320618,20.8931293
2200,0.0670373,-0.1244979,9.9502516,-0.6717557,-0.1755725,0.1297710,19.6126022,5.8083038,-4.4100971,-45.0610695,-64.0229034,-41.1984749
2210,-0.0167593,-0.2059003,9.9789820,-0.7251908,-0.0534351,0.4809160,19.6126022,5.9782910,-3.4476328,-53.5801544,-86.8015289,-89.4274826
2220,-0.0095768,-0.1963235,9.9071560,-0.6793893,-0.2595420,0.2061069,17.2333755,6.0788469,-2.6719155,-57.6946564,-95.6870193,-127.7709961
2230,0.1125269,-0.2250538,9.9717989,-0.5725191,-0.5343512,0.1603053,15.1552191,6.0860295,-2.1260402,-59.9465637,-93.1374054,-156.0458069
2240,-0.0383070,-0.1843526,9.7898407,-0.6564885,-0.1832061,0.3587786,13.2877512,6.1674318,-1.6495966,-60.0152664,-86.1679382,-176.7022858
2250,0.0933734,-0.2873027,10.1034794,-0.4580153,-0.1297710,0.4122137,11.7794123,6.1913738,-1.2856797,-56.9847336,-74.4351120,-192.8015289
2260,0.0478838,-0.2106887,10.0029240,-0.3206107,0.4503817,0.3587786,10.4195127,5.9950504,-1.3598996,-53.8015251,-59.8625946,-207.8015289
2270,0.0023942,-0.1795642,9.9813757,-0.8015267,-0.0305344,0.3206107,9.2248116,6.0572991,-1.4389079,-51.3664131,-47.0152664,-224.0610657
2280,0.0646431,-0.1221037,9.9861641,-0.6259542,0.1603053,0.1297710,7.9726510,5.9687142,-1.6352314,-51.1297722,-35.9389305,-240.8625946
2290,0.0694315,-0.1891410,9.8880024,-0.6106870,-0.3587786,-0.1068702,6.6678176,5.9351954,-2.1691356,-54.9465637,-29.5572510,-250.1374054
2300,0.1149211,-0.1771700,9.8903971,-0.7404580,-0.1450382,-0.5725191,5.1331420,5.6981707,-2.4851687,-62.0534363,-33.8778610,-250.1374054
2310,-0.0766141,-0.1963235,9.8113880,-0.8473282,-0.1755725,-0.2137405,3.5098817,5.6933827,-2.7389526,-72.9389343,-47.8396950,-250.1374054
2320,-0.0407012,-0.1867468,9.7754755,-0.7709923,-0.2061069,0.3816794,2.0973101,5.4180508,-2.5091105,-86.5190811,-71.6412201,-250.1374054
2330,0.0574605,-0.2082945,9.8161764,-0.5114504,-0.1068702,0.2519084,0.7326220,4.9655490,-1.9632354,-100.0839691,-99.4351120,-250.1374054
2340,-0.0454896,-0.2322364,9.8185711,-0.7480916,-0.1908397,0.2900763,-0.5817881,4.5513539,-1.1923064,-113.0229034,-127.7099228,-250.1374054
2350,0.0095768,-0.2346306,9.9358864,-0.7251908,-0.4503817,0.1755725,-1.8459201,4.1587071,-0.0119709,-125.6335907,-155.3893127,-250.1374054
2360,0.0814024,-0.2154770,9.9334917,-0.5648855,-0.4122137,0.4274809,-3.2608860,3.6391680,1.6088953,-135.5038147,-180.2061005,-250.1374054
2370,-0.0119709,-0.1412572,9.9454632,-0.6183206,-0.2366412,0.1450382,-4.9128766,3.1411765,3.0118904,-141.1374054,-197.4809113,-250.1374054
2380,0.1125269,-0.2298422,9.9646168,-0.6870229,-0.5877863,0.1755725,-6.8186517,3.0693510,4.5633249,-141.5725250,-200.9694672,-250.1374054
2390,-0.0335187,-0.1628049,9.9023676,-0.9236641,-0.3129771,0.3664122,-8.4658537,2.9951310,5.9711084,-139.6106873,-195.6106873,-250.1374054
2400,0.0071826,-0.1604107,9.8832140,-0.6412213,-0.0763359,0.3282443,-9.9143381,2.6455793,6.3685441,-135.2519073,-183.2290039,-250.1374054
2410,-0.0383070,-0.1939293,9.8784256,-0.9389313,0.2671756,0.6030535,-13.9677010,3.2465210,6.4810710,-125.2061081,-154.0305328,-250.1374054
2420,0.0694315,-0.2011119,10.0029240,-0.6183206,-0.1450382,0.4122137,-18.3825874,4.2855992,7.1801744,-113.3053436,-106.9847336,-215.6106873
2430,0.0502780,-0.1580165,9.8568783,-0.8244275,-0.6183206,0.1526718,-19.6131992,4.8458395,7.4435349,-99.1145020,-41.0305328,-135.7022858
2440,0.1077385,-0.1939293,9.8425131,-0.7099237,-0.3587786,0.1603053,-19.6131992,5.9735026,8.0827837,-79.6488571,44.0839691,-37.4198456
2450,0.0335187,-0.1675933,9.9478569,-0.6870229,-0.0458015,0.3053435,-19.6131992,5.9208307,9.8305416,-58.5496178,121.8702316,73.1603088
2460,0.1005560,-0.2178712,9.9047613,-0.7175573,-0.1221374,0.2748092,-19.6131992,4.8554163,11.7123747,-31.2061062,174.3816833,173.4961853
2470,-0.0383070,-0.1747758,9.9622221,-0.7099237,-0.3282443,0.4885496,-19.6131992,4.1108232,11.9158812,2.3664122,189.2061005,243.8473358
2480,0.0837966,-0.2082945,9.9502516,-0.5648855,-0.1908397,0.3740458,-18.8111458,3.6942344,11.2359314,30.6793900,177.1755676,250.1297760
2490,0.0359128,-0.1604107,9.8185711,-0.5648855,-0.3511450,0.1603053,-13.8432035,3.7588775,10.3572636,48.7633591,154.7328186,250.1297760
2500,0.0550664,-0.1987177,9.9047613,-0.6946565,-0.1526718,0.2824427,-9.4905672,4.1227942,9.3900108,60.6564903,133.4809113,250.1297760
2510,0.1604107,-0.2154770,9.9406748,-0.7328244,-0.3358779,0.1984733,-6.5959921,4.8530221,8.2910776,70.2900772,113.6946564,250.1297760
2520,-0.0335187,-0.1771700,9.9023676,-0.7557252,0.2595420,0.4045801,-5.2648225,5.2241216,7.2017217,81.1603088,88.8320618,233.1908417
2530,0.0502780,-0.1963235,9.9047613,-0.5572519,-0.1603053,0.2900763,-4.4316444,5.6071916,5.5114241,83.8320618,65.2442780,212.0839691
2540,-0.0047884,-0.2418131,9.9502516,-0.6793893,0.0000000,0.3969466,-3.7780309,5.9926562,4.1826491,82.5419846,39.9083977,195.0076294
2550,0.0119709,-0.2011119,10.0125008,-0.7099237,-0.1679389,0.1908397,-3.3039815,6.4403696,3.0047078,80.3358765,6.1145039,182.1068726
2560,0.0095768,-0.1771700,9.9478569,-0.7938932,0.0305344,0.1908397,-3.4452386,6.7731619,2.6096666,80.0381699,-23.2137413,176.3358765
2570,0.0047884,-0.2418131,9.9622221,-0.6641222,-0.2137405,0.4351145,-3.6846576,6.9431496,2.5330524,84.3129807,-35.1068687,181.1755676
2580,-0.0167593,-0.1556223,9.8449068,-0.8244275,-0.0763359,0.3969466,-3.2513094,6.9431496,1.9560528,91.4503784,-31.0992374,194.4122162
2590,-0.0263361,-0.2178712,9.9167328,-0.8854962,-0.2900763,0.3511450,-2.4516499,6.8234401,1.2952565,99.4580154,-16.5343513,210.4961853
2600,0.0000000,-0.2202654,9.9454632,-0.2442748,-0.5496183,0.0152672,-1.3766589,6.6654234,0.2849085,105.5725174,-0.9236641,226.9923706
2610,0.0047884,-0.1221037,9.9646168,-0.7099237,-0.2366412,0.3129771,-0.2729376,6.4547348,-0.7972651,106.7404556,10.5572519,240.7633514
2620,0.0454896,-0.2681492,9.8401184,-0.5190840,0.0534351,0.3969466,1.0702027,6.1099715,-1.6448082,101.3969498,23.6870232,248.8320618
2630,0.0478838,-0.1580165,9.8880024,-0.5419847,-0.0534351,0.1221374,2.2002602,6.0596933,-2.3941894,91.2061081,37.6488533,250.1297760
2640,-0.0359128,-0.1699875,9.9239149,-0.7633588,0.0305344,0.3129771,3.8618276,6.2057390,-2.8993635,69.0305328,41.8702278,244.9770966
2650,-0.0478838,-0.1604107,9.8664551,-0.6259542,0.0229008,0.4274809,4.6878228,6.3422079,-2.9496415,58.4580154,43.7328262,240.5648804
2660,0.1532281,-0.1963235,10.1369982,-0.4122137,-0.3969466,0.0534351,5.6790175,6.3733325,-3.0789278,47.8091621,54.4885483,237.0839691
2670,0.0095768,-0.2106887,9.9622221,-0.5267175,-0.1755725,0.1908397,6.9072366,6.3685441,-3.5817075,36.5954208,70.0916061,235.7251892
2680,0.0622489,-0.1987177,9.9071560,-0.5496183,-0.4122137,-0.0610687,8.1809454,6.3972740,-4.2425036,25.5954189,70.1755753,233.5114441
2690,0.0909792,-0.1651991,9.8927908,-0.4580153,0.1755725,-0.8702290,9.6030941,6.3876977,-4.1922259,15.7404585,61.6564903,227.8167877
2700,0.0215477,-0.1963235,9.8832140,-0.4274809,0.3664122,-1.0381680,11.4442253,6.4092450,-4.2425036,6.5038166,50.2977104,215.9313049
2710,-0.1101327,-0.1867468,10.0532017,-0.7862595,-0.6030535,-0.1603053,13.8503857,6.1913738,-4.0701222,-1.2824427,35.6335869,196.5877838
2720,0.0909792,-0.2873027,10.0484133,-0.5267175,-0.4274809,0.6259542,16.3571014,6.1578555,-3.6678982,-7.3664122,30.2519093,166.4580078
2730,-0.0215477,-0.2274480,10.0340481,-0.7022901,0.3053435,0.5038168,19.3258972,6.1865854,-3.5817075,-14.3969469,28.3053436,123.1603088
2740,-0.0766141,-0.2130829,10.0172882,-0.8931298,-0.1755725,0.3358779,19.6126022,6.1554613,-3.2920105,-22.6106873,16.7480907,67.4656525
2750,0.0694315,-0.2178712,9.8042059,-0.4274809,-0.3053435,0.1221374,19.6126022,6.3158717,-2.7581062,-28.6946564,-5.2442746,6.1603055
2760,0.0335187,-0.1891410,9.8832140,-0.3816794,-0.5496183,0.3587786,19.6126022,6.5098009,-2.1930776,-32.0687027,-28.6106873,-51.8244286
2770,0.0622489,-0.2633608,10.0220766,-0.4580153,0.0610687,0.4427481,18.7991753,6.7085190,-2.2002602,-37.2213745,-48.6030540,-99.8396912
2780,0.0167593,-0.1819584,9.9287033,-0.5496183,-0.3053435,0.0152672,17.1950684,6.6103573,-2.2170193,-43.0152664,-63.8549614,-141.8702240
2790,0.0718257,-0.1628049,9.8808203,-0.6030535,-0.6946565,0.1221374,15.3659077,6.4834652,-2.1236460,-48.5038185,-73.4961853,-174.4961853
2800,0.0766141,-0.2106887,9.9502516,-0.5801527,-0.1221374,0.2213740,13.7282820,6.5840211,-1.9847831,-53.4274826,-76.7862625,-200.9236603
2810,0.0622489,-0.1771700,9.8951855,-0.5572519,0.2061069,0.3664122,12.2989511,6.6079631,-1.7501525,-58.2442741,-75.9389343,-223.0229034
2820,0.0814024,-0.2011119,9.9478569,-0.5038168,-0.0610687,0.4274809,10.8121595,6.4643116,-1.6902977,-64.0610657,-76.0610657,-240.7938995
2830,0.0430954,-0.2154770,9.9023676,-0.8091603,-0.3129771,0.3129771,9.4115591,6.3493905,-1.5394639,-69.4809189,-72.4045792,-250.1374054
2840,0.0646431,-0.1843526,10.0220766,-0.5190840,-0.0610687,0.2824427,8.2551651,6.2081332,-1.5155219,-74.8549652,-66.6488571,-250.1374054
2850,-0.0359128,-0.2202654,9.8664551,-0.7709923,0.2595420,0.3740458,7.1131368,5.9351954,-1.7860653,-81.6641235,-61.7251892,-250.1374054
2860,0.0095768,-0.1867468,9.9598284,-0.3664122,-0.2519084,0.3129771,5.9375896,5.6598639,-2.2074428,-91.0381699,-54.6106873,-250.1374054
2870,0.0095768,-0.1628049,9.9813757,-0.6564885,0.1068702,0.1984733,4.2760224,5.2767935,-2.4947455,-105.2366409,-49.0992355,-250.1374054
2880,0.0263361,-0.1771700,9.9023676,-0.7557252,-0.3435115,0.4580153,2.5713594,5.1139889,-2.8419030,-122.8320618,-58.5114517,-250.1374054
2890,-0.0239419,-0.1987177,9.9143381,-0.4503817,-0.0229008,0.5267175,1.2138541,4.6207857,-2.7365584,-143.7328186,-86.9465637,-250.1374054
2900,0.0430954,-0.2059003,9.8377247,-0.6259542,-0.1145038,0.3129771,-0.6679789,3.8043671,-1.8315549,-165.0915985,-116.6488571,-250.1374054
2910,-0.0095768,-0.2059003,9.9502516,-0.7404580,0.1297710,0.3587786,-3.9815371,3.5194585,0.0191535,-175.9007568,-125.7251892,-250.1374054
2920,0.0119709,-0.2082945,9.9646168,-0.5801527,-0.2977099,0.3969466,-8.3533268,3.9097114,2.0542145,-175.5267181,-112.3664093,-250.1374054
2930,0.0766141,-0.2370248,9.9334917,-0.6030535,-0.2519084,0.4580153,-12.6532917,4.6566987,4.2951760,-170.8015289,-88.4809189,-250.1374054
2940,-0.0023942,-0.2466015,10.0029240,-0.6870229,-0.1221374,0.4809160,-15.5454721,4.9918852,6.3086891,-161.7633514,-61.2442741,-210.8473358
2950,-0.0191535,-0.2178712,10.0579901,-0.5801527,-0.0916031,0.4580153,-18.6603127,5.8226686,8.1450329,-146.8244324,-35.9160309,-149.2442780
2960,-0.0718257,-0.2130829,9.8377247,-0.9160305,-0.0305344,0.4503817,-19.6131992,6.3853035,10.3620520,-124.9847336,-9.6106873,-79.7480927
2970,0.0143651,-0.1532281,9.8137827,-0.8244275,-0.3282443,0.0610687,-19.6131992,6.1889796,11.8775740,-95.5419846,22.0534344,-9.8625956
2980,-0.0311245,-0.1556223,10.0484133,-0.2442748,-0.0763359,0.4274809,-19.6131992,5.6838059,12.8448267,-57.5572510,58.2290077,55.0228996
2990,-0.0766141,-0.2035061,10.0508070,-0.6106870,-0.2442748,0.2366412,-18.6603127,5.3079181,13.2278967,-16.2900772,102.6793900,112.2290039
3000,0.0646431,-0.1795642,9.9430685,-0.7480916,-0.0305344,-0.2213740,-16.3116131,5.0373745,12.7490587,21.3587780,140.8931274,155.8854980
3010,-0.0814024,-0.1963235,10.0795374,-0.6106870,0.2213740,0.1450382,-13.9198179,5.2313042,11.2526903,49.9771004,154.9313049,178.8549652
3020,0.0837966,-0.2154770,9.9430685,-0.9770992,-0.3816794,0.0000000,-12.2869806,5.4443870,9.8161764,67.2900772,143.9923706,191.2977142
3030,0.0383070,-0.2346306,9.8209648,-0.5038168,-0.0763359,0.6183206,-10.9318695,5.5808558,8.6190825,77.1984711,124.2748108,198.1526642
3040,-0.0383070,-0.1675933,10.0962973,-0.6793893,-0.2671756,0.2671756,-10.0292597,5.5688848,7.4698710,83.6335907,108.4427490,205.7480927
3050,0.0526722,-0.2609667,9.9287033,-0.7099237,-0.1984733,0.4122137,-9.0644016,5.6502872,6.6797886,90.0381699,96.2290039,216.8854980
3060,0.0119709,-0.1891410,9.8281479,-1.0916030,-0.5877863,0.0152672,-8.1115141,5.7053533,5.8154860,93.3664093,91.0457993,229.7480927
3070,-0.0071826,-0.1891410,9.8137827,-0.7175573,0.0076336,0.1984733,-7.2017217,5.8873119,4.7811961,96.5572510,89.8320618,245.2213745
3080,-0.0526722,-0.2011119,9.8975792,-0.6106870,-0.1832061,0.2290076,-6.3637557,5.8609757,3.8330972,97.8931274,90.6106873,250.1297760
3090,0.0263361,-0.2250538,9.8473015,-0.8931298,-0.0534351,0.1374046,-1.9345051,5.1762376,0.5698171,88.7099228,109.0457993,250.1297760
3100,0.0574605,-0.1891410,9.8257532,-0.6183206,0.0305344,0.2824427,0.5674229,4.7261300,-0.9433106,76.8473282,113.8778610,250.1297760
3110,0.0335187,-0.2202654,10.0125008,-0.5572519,-0.4351145,-0.0916031,2.7197993,4.3502421,-1.7477583,61.8320618,105.4656525,250.1297760
3120,0.0167593,-0.2154770,9.7754755,-0.5343512,-0.3740458,-0.1145038,4.9535780,4.1898317,-2.1906834,42.6259537,96.4427490,250.1297760
3130,0.0718257,-0.1675933,9.8736372,-0.7404580,-0.0610687,0.0916031,7.1131368,3.8019729,-2.1619530,22.5801525,89.4274826,250.1297760
3140,0.0766141,-0.1532281,9.8880024,-0.4351145,-0.5267175,0.0152672,12.2151546,3.5817075,-1.4197544,-12.4732828,66.3358765,250.1297760
3150,-0.0143651,-0.1915352,9.8880024,-0.6564885,-0.2824427,0.3435115,14.7960911,3.7445123,-0.5315101,-24.5190830,58.8091621,250.1297760
3160,0.0095768,-0.1604107,9.9310980,-0.6259542,-0.0305344,0.1450382,17.0538120,4.0102673,0.2418131,-32.4885483,52.6793900,235.7404633
3170,0.0742199,-0.1747758,9.9406748,-0.4198473,0.2977099,-0.5725191,19.2828026,4.2832050,0.6991033,-37.5190849,35.6259537,184.9313049
3180,0.0047884,-0.1867468,9.9047613,-0.5648855,0.1908397,-0.6870229,19.6126022,4.6997938,1.8147956,-36.2290077,20.0458012,128.5114441
3190,-0.0263361,-0.1388630,9.9406748,-0.7709923,0.2061069,-0.2748092,19.6126022,4.8865409,2.4396791,-29.3053436,5.9847326,66.7404556
3200,-0.0167593,-0.1675933,9.9215212,-0.7328244,-0.0610687,0.0458015,19.6126022,5.2408805,2.4157372,-24.0763359,-7.9618320,5.4122138
3210,0.0646431,-0.2394189,9.9143381,-0.7557252,0.0839695,0.0992366,19.6126022,5.4228392,1.9177457,-22.9083977,-26.2137413,-52.1068687
3220,0.0215477,-0.2178712,9.8688488,-0.7175573,-0.0152672,-0.3816794,19.6126022,5.2720051,1.5921360,-25.1374054,-51.2595406,-102.3816757
3230,-0.0646431,-0.2226596,9.8544836,-0.9083970,-0.1374046,0.2290076,18.4089222,5.3055239,1.6902977,-27.0381680,-67.7251892,-146.9084015
3240,0.1101327,-0.1532281,9.9263096,-0.5572519,-0.2519084,0.3358779,16.4073811,5.1858144,1.1851238,-28.8778629,-78.9007645,-181.5648804
3250,-0.0047884,-0.2394189,10.0196829,-0.6793893,-0.0076336,-0.2519084,15.0618458,5.3055239,1.1635761,-32.4580154,-84.1068726,-209.1221313
3260,0.0119709,-0.2178712,10.0555954,-0.5343512,-0.1145038,0.3816794,14.3124647,5.2887645,1.3598996,-35.8625946,-78.8625946,-235.5114441
3270,0.0430954,-0.1508339,9.8832140,-0.5343512,-0.2595420,0.3053435,13.4170380,5.1403246,1.4389079,-36.9312973,-66.6335907,-250.1374054
3280,0.0023942,-0.2178712,9.8664551,-0.1526718,-0.3358779,0.2900763,11.8823624,5.1092005,1.5250987,-37.3511467,-61.2519073,-250.1374054
3290,0.0023942,-0.2011119,9.8520899,-0.7786260,-0.3587786,-0.2061069,10.2303715,4.8410511,1.5155219,-38.8091621,-62.6412201,-250.1374054
3300,0.0000000,-0.1819584,10.0029240,-0.4885496,0.0916031,-0.0076336,8.3844519,4.5465660,1.3551112,-42.4198456,-74.9694672,-250.1374054
3310,-0.0311245,-0.2011119,10.1681223,-0.5648855,0.1297710,-0.2061069,6.5050125,4.2448978,1.3646880,-48.6641235,-91.6106873,-250.1374054
3320,0.0502780,-0.1436514,9.7898407,-0.6793893,-0.6946565,-0.0458015,4.4843168,3.7804251,1.6376256,-55.7022896,-105.0229034,-250.1374054
3330,0.0574605,-0.2059003,10.0101061,-0.3511450,-0.3282443,-0.0229008,2.3175755,3.4667864,2.1547706,-62.7938919,-116.1221390,-250.1374054
3340,-0.0622489,-0.2106887,9.8473015,-0.6564885,-0.2824427,0.2519084,0.6248835,3.2153964,2.8490853,-68.7251892,-129.6488495,-250.1374054
3350,-0.0047884,-0.1364688,9.8592720,-0.6870229,0.1755725,0.1755725,-0.8547257,3.0597742,3.5338237,-73.7786255,-144.2366486,-250.1374054
3360,-0.0407012,-0.2274480,9.9622221,-0.7709923,-0.0687023,0.4122137,-2.1930776,2.7700772,4.4388270,-76.0305328,-156.3664093,-250.1374054
3370,0.1029501,-0.1723816,9.7946291,-0.7404580,-0.2748092,0.2595420,-3.9671719,2.2026544,5.0445571,-73.7862625,-159.8854980,-250.1374054
3380,0.0430954,-0.1675933,9.8975792,-0.6641222,-0.2671756,0.0610687,-8.0325060,1.8483143,5.2504573,-65.2900772,-151.2442780,-250.1374054
3390,0.0598547,-0.2035061,9.8880024,-0.4809160,-0.2519084,0.2442748,-15.5095596,2.9759774,5.8729467,-49.3053436,-134.5190887,-250.1374054
3400,0.0167593,-0.2801202,10.1106625,-0.6106870,0.0076336,0.4045801,-19.6131992,5.9519548,6.7109132,-30.0610695,-103.8625946,-250.1374054
3410,0.0167593,-0.2178712,9.9813757,-0.5725191,-0.0381679,0.3511450,-19.6131992,7.7428088,8.0875721,-17.9541988,-72.7175598,-144.6793823
3420,-0.0071826,-0.1508339,9.8832140,-0.6030535,-0.2977099,0.2519084,-19.6131992,7.0197635,10.6613255,-3.5496182,-38.0992355,-25.8778629
3430,-0.0478838,-0.1867468,9.9119444,-0.7862595,-0.1221374,0.2061069,-19.6131992,5.8322453,12.5120344,32.9389305,5.1145039,76.0687027
3440,0.0359128,-0.1556223,9.9310980,-0.7480916,-0.1908397,0.6183206,-19.6131992,4.6136031,11.2502966,76.8167953,68.6564865,162.3358765
3450,0.0383070,-0.1436514,9.9646168,-0.5954198,-0.5496183,0.2671756,-18.8805771,4.0389977,9.4378948,111.0534363,137.3664093,231.3206177
3460,0.0861908,-0.2274480,9.8616667,-0.7328244,-0.2366412,0.3740458,-14.8439751,4.2664456,7.7356262,129.8091583,194.4427490,250.1297760
3470,-0.0047884,-0.2154770,9.8975792,-0.6335878,-0.1297710,0.1984733,-11.5495701,4.8386569,5.6981707,134.9847260,212.8778687,250.1297760
3480,0.0047884,-0.2226596,9.8473015,-0.7557252,0.0152672,0.0000000,-9.0213060,5.7843618,3.9360476,129.8854980,197.6412201,250.1297760
3490,0.0407012,-0.2178712,9.8449068,-0.3893130,-0.3282443,0.0839695,-6.9192076,6.3781209,2.3917952,118.8854980,165.9465637,250.1297760
3500,0.0191535,-0.2106887,9.9741936,-0.4351145,-0.1450382,-0.1679389,-4.9296360,6.6007805,1.3383518,104.9312973,136.4732819,250.1297760
3510,0.0766141,-0.1867468,9.7754755,-0.7633588,-0.0687023,0.1526718,-3.3279233,6.8258343,0.5793939,93.6335907,113.5190811,250.1297760
3520,-0.0502780,-0.2370248,9.9454632,-0.6946565,-0.0381679,0.4274809,-1.2521610,6.9287844,-0.3639168,82.0381699,99.8625946,250.1297760
3530,0.0478838,-0.1556223,9.8089943,-0.5725191,-0.1450382,0.1374046,0.7613522,6.8545642,-1.4843974,68.9389343,85.0000000,250.1297760
3540,0.0861908,-0.1771700,9.9478569,-0.4427481,-0.3358779,-0.0152672,2.2409613,6.6750002,-2.1260402,54.3816795,73.6870193,250.1297760
3550,0.0311245,-0.1891410,9.8999729,-0.5801527,-0.1297710,0.2977099,3.8714044,6.3948798,-2.4181314,37.7938919,69.0916061,250.1297760
3560,0.1125269,-0.1915352,9.9622221,-0.6183206,-0.0229008,0.2442748,5.4874821,6.1458845,-2.5737536,20.5190830,65.4274826,250.1297760
3570,0.0119709,-0.1795642,9.9143381,-0.4732825,-0.0610687,0.1832061,9.0691900,5.7101417,-2.2888451,-15.8091602,35.4809151,250.1297760
3580,0.0790083,-0.2059003,9.9813757,-0.5648855,-0.6106870,-0.0916031,11.0779142,5.4850879,-1.5250987,-29.7175579,14.8931293,250.1297760
3590,-0.0095768,-0.1771700,9.8233595,-0.4580153,0.0992366,-0.2900763,13.1512823,4.9679432,-0.8212070,-38.7862587,-6.4045801,250.1297760
3600,-0.0095768,-0.1699875,10.0244713,-0.7709923,-0.2824427,0.2366412,15.8998117,4.4938936,-0.6775556,-44.7786255,-29.6106873,229.4580078
3610,-0.0239419,-0.2130829,9.8640604,-0.4274809,0.2290076,0.3511450,18.7081966,4.1371593,-0.4620786,-47.4961815,-55.1908379,185.1908417
3620,0.0885850,-0.1891410,9.8880024,-0.7022901,0.0000000,0.3435115,19.6126022,4.2736282,-0.2298422,-47.3435097,-74.8625946,132.5496216
3630,0.0071826,-0.1628049,9.9191265,-0.4427481,-0.2442748,-0.3664122,19.6126022,4.4220681,-0.4141948,-48.4580154,-91.9083939,75.0305328
3640,0.0167593,-0.2298422,9.8808203,-0.4885496,0.0839695,-0.2671756,19.6126022,4.7955613,-0.0646431,-51.4656487,-95.2137375,12.1221371
3650,-0.0263361,-0.2035061,9.9406748,-0.8244275,-0.0687023,0.8244275,19.6126022,4.5633249,0.2298422,-53.5725174,-91.9618301,-47.4961815
3660,0.1292862,-0.2202654,9.9334917,-0.5572519,-0.3282443,0.4885496,19.6126022,4.8673873,0.7206510,-53.0763359,-86.0305328,-97.4274826
3670,-0.0023942,-0.1915352,9.9119444,-0.4961832,-0.1984733,0.1755725,18.2844257,4.8961172,1.0295014,-49.5114517,-79.2595444,-138.9694672
3680,0.0837966,-0.2059003,9.8329363,-0.4809160,-0.1374046,0.3587786,16.1871147,4.9870968,1.2354017,-44.0992355,-69.3053436,-170.7099304
3690,0.0933734,-0.1891410,10.0005293,-0.4580153,-0.4656489,0.1908397,14.3435888,5.2360926,1.1707586,-38.8473282,-53.5801544,-195.7480927
3700,-0.0023942,-0.2106887,9.9454632,-0.6030535,-0.0687023,0.2977099,12.9382000,5.3725610,0.7278336,-36.2748108,-42.9236641,-215.2442780
3710,0.0502780,-0.1651991,9.8449068,-0.6870229,-0.5038168,0.0458015,11.4825325,5.5425487,0.7948709,-35.7633591,-39.6106873,-235.0000000
3720,-0.1340746,-0.2250538,9.9861641,-0.4274809,0.1221374,0.5725191,10.2040358,5.5976148,0.7876883,-35.8625946,-36.8625946,-250.1374054
3730,0.1963235,-0.1556223,9.9215212,-0.4732825,-0.5648855,0.3358779,9.1721401,5.4443870,0.7134684,-36.8015251,-33.5801544,-250.1374054
3740,-0.0167593,-0.1604107,9.7084379,-0.7328244,-0.1603053,0.1221374,7.9846220,5.3701668,0.5793939,-38.0534363,-30.1679382,-250.1374054
3750,-0.0119709,-0.1915352,10.0316534,-0.6183206,-0.1755725,0.5877863,6.4403696,5.1594782,0.1723816,-40.0763359,-30.3969460,-250.1374054
3760,0.0622489,-0.1963235,9.8544836,-0.6335878,-0.0076336,0.3587786,4.9942794,4.8937230,-0.2082945,-45.7099228,-38.8244286,-250.1374054
3770,0.0239419,-0.1556223,9.8760319,-0.6717557,0.0839695,0.4274809,3.4691806,4.5729017,-0.1484398,-54.5114517,-53.0305328,-250.1374054
3780,0.0694315,-0.1795642,9.8616667,-0.6870229,-0.0687023,0.2977099,2.0206959,4.1587071,0.1771700,-65.4961853,-70.0916061,-250.1374054
3790,0.0383070,-0.1867468,9.9598284,-0.6030535,-0.2748092,0.0992366,0.4644727,3.7469065,0.9864060,-76.6106873,-92.2671738,-250.1374054
3800,-0.0478838,-0.1651991,9.7251978,-0.7709923,-0.1526718,0.2824427,-1.7046629,3.0932927,1.9847831,-85.8396912,-120.9847336,-250.1374054
3810,-0.0311245,-0.1508339,9.8808203,-0.7480916,0.0076336,0.4809160,-4.2712340,2.8586621,3.5026991,-91.6335907,-146.5343475,-250.1374054
3820,0.0909792,-0.1723816,10.0651722,-0.7633588,-0.2977099,0.1526718,-6.8186517,2.6240315,5.1163831,-90.5343475,-156.0000000,-250.1374054
3830,0.0407012,-0.2298422,10.0532017,-0.5954198,-0.1832061,0.1679389,-9.8018112,3.1651185,6.7923155,-80.3435135,-134.7862549,-250.1374054
3840,-0.0526722,-0.2561783,9.9933472,-0.6641222,-0.2824427,0.3282443,-13.6444855,4.2329268,8.1402445,-76.7709961,-133.7557220,-250.1374054
3850,0.0694315,-0.1939293,10.0364418,-0.7709923,-0.2366412,0.1908397,-18.0521889,5.6167684,9.8927908,-71.1297684,-148.2061005,-250.1374054
3860,-0.0646431,-0.2346306,9.9334917,-0.6488550,0.0763359,0.4885496,-19.6131992,6.5002246,12.5527353,-41.3511467,-137.1679382,-193.8778687
3870,0.1795642,-0.1891410,10.0148945,-0.6335878,-0.1603053,0.2671756,-19.6131992,6.5864153,13.4577389,3.4274809,-82.0687027,-95.9923630
3880,0.0694315,-0.2035061,9.9622221,-0.7557252,-0.2977099,0.2213740,-19.6131992,6.5145893,9.8568783,77.8549652,78.8931274,92.5267181
3890,0.0407012,-0.1963235,9.9622221,-0.6641222,-0.1908397,0.3358779,-19.6131992,6.4355812,7.8002691,103.7709961,137.4656525,170.7480927
3900,0.0119709,-0.2250538,9.8592720,-0.5877863,-0.1679389,0.3740458,-16.5630035,6.4523406,6.7037306,121.6412201,172.2442780,227.0305328
3910,0.0478838,-0.2705434,10.0244713,-0.7175573,0.0534351,0.5419847,-13.3691540,6.5959921,5.1906028,131.4427490,187.9160309,250.1297760
3920,0.0335187,-0.1987177,9.8832140,-0.5343512,-0.2442748,0.3816794,-10.3596573,7.2400289,3.8378856,134.3816833,179.8549652,250.1297760
3930,0.0335187,-0.2082945,9.8496952,-0.7251908,-0.0229008,0.3587786,-8.5352850,7.7667508,2.2313845,130.0305328,158.5496216,250.1297760
3940,0.0263361,-0.2035061,9.9047613,-0.6335878,-0.3587786,0.1679389,-6.1889796,8.2838955,1.0295014,124.0610657,140.4580078,250.1297760
3950,0.0311245,-0.1460456,9.9215212,-0.6564885,-0.1603053,0.5267175,-4.0773048,8.1091194,-0.0383070,117.1374054,119.2442780,250.1297760
3960,0.0263361,-0.2489957,9.9095497,-0.5572519,0.2748092,0.5343512,-2.1643472,8.0636301,-1.3455344,106.8854980,100.6946564,250.1297760
3970,0.0478838,-0.1580165,9.8927908,-0.6793893,-0.3435115,0.3587786,0.1604107,8.1929159,-2.4755919,91.0000000,92.3206100,250.1297760
3980,-0.0095768,-0.1963235,9.8975792,-0.6946565,-0.2748092,0.1603053,3.3590479,7.7906923,-3.7540891,70.8473282,101.1374054,250.1297760
3990,0.0191535,-0.2537841,9.9670105,-0.6030535,0.0000000,0.3893130,6.2272868,7.3573442,-4.5944495,46.1145020,121.7938919,250.1297760
4000,0.0478838,-0.1987177,9.9095497,-0.3816794,-0.0687023,0.5572519,9.6246414,7.1658092,-4.6519103,21.1221371,134.0839691,250.1297760
4010,0.0047884,-0.1939293,10.0029240,-0.3893130,0.0381679,0.3053435,13.3356352,6.8521700,-4.4819226,1.1526718,111.9236679,250.1297760
4020,-0.0167593,-0.1915352,9.9119444,-0.5725191,-0.0305344,0.2290076,16.7641144,7.0844064,-3.9839313,-11.4961834,74.5648880,237.4122162
4030,0.0095768,-0.2418131,9.9143381,-0.8167939,0.0229008,0.1145038,19.6126022,6.1075773,-2.5761478,-13.5267172,55.7099228,188.8015289
4040,-0.0622489,-0.2944853,9.9741936,-0.8244275,-0.0687023,0.3206107,19.6126022,4.8482337,-1.3838415,-13.6488552,56.7022896,127.3282471
4050,0.0478838,-0.2346306,9.9765873,-0.5572519,-0.3206107,0.2290076,19.6126022,5.2336984,-0.6105183,-13.7480917,60.1450386,51.8167953
4060,-0.0718257,-0.1484398,9.8808203,-0.7175573,-0.0992366,0.2290076,19.6126022,5.3103123,-0.4764437,-16.2137413,47.5877876,-23.4427490
4070,-0.0383070,-0.1316804,9.7539282,-0.5725191,-0.1908397,0.2137405,19.6126022,6.2057390,-0.2226596,-20.8854961,8.2213745,-87.2213745
4080,0.0957676,-0.1987177,9.8664551,-0.4732825,-0.0229008,0.4580153,18.0473995,6.5912037,-0.2777260,-26.1450386,-47.2366409,-134.9847260
4090,0.0574605,-0.2059003,10.0388365,-0.4809160,-0.3435115,0.1679389,16.1679611,6.3230543,0.2729376,-29.7557259,-68.8244247,-172.1832123
4100,0.0383070,-0.1987177,9.9143381,-0.5877863,-0.3282443,-0.0839695,14.7841196,5.9758968,0.5482694,-30.3358784,-57.9847336,-202.3358765
4110,0.0167593,-0.2082945,9.9430685,-0.4885496,0.0229008,0.0076336,12.6245613,5.8083038,0.4094064,-28.4656487,-38.8778610,-223.0381622
4120,0.0574605,-0.1819584,9.8520899,-0.5725191,0.5038168,0.1755725,10.2423429,5.8035154,0.4908088,-24.3511448,-20.1679382,-236.9541931
4130,0.0000000,-0.2298422,9.8161764,-0.6412213,-0.0610687,0.4198473,8.0732069,5.8298512,0.3303981,-19.9236641,-3.8473282,-247.8320618
4140,0.0335187,-0.1867468,9.9287033,-0.6106870,-0.0839695,0.2137405,6.1171541,5.7652082,-0.3830703,-16.5267181,6.7557254,-250.1374054
4150,0.0670373,-0.2082945,9.9550400,-0.7480916,-0.3435115,0.2977099,3.7828193,5.4611464,-0.9576758,-13.3816795,18.1145039,-250.1374054
4160,0.0095768,-0.2226596,9.9287033,-0.5801527,-0.2366412,0.2900763,0.4548960,5.2504573,-1.4676381,-12.3511448,32.3816795,-250.1374054
4170,0.0263361,-0.1843526,9.9694052,-0.6183206,-0.0458015,0.4198473,-4.0437860,5.5473371,-1.5274929,-10.3816795,57.6335869,-250.1374054
4180,-0.0311245,-0.1939293,9.9717989,-0.5877863,-0.0992366,0.4351145,-9.7539282,6.9383612,-1.4628497,-6.9618320,85.6641235,-224.4580078
4190,0.0478838,-0.2011119,9.8520899,-0.7862595,-0.0458015,0.4503817,-13.7546186,8.1306677,-1.4293311,-6.9618320,92.3893127,-180.9084015
4200,0.0095768,-0.2011119,9.8951855,-0.6335878,-0.1603053,0.2290076,-15.8088331,8.4706421,-0.8954269,-10.5190840,84.5190811,-130.9084015
4210,0.0167593,-0.2035061,9.8760319,-0.4809160,-0.1526718,0.2595420,-17.1232433,8.2455883,0.0742199,-13.0305347,78.4351120,-85.0229034
4220,0.0191535,-0.2346306,9.8760319,-0.5648855,-0.1145038,0.3206107,-18.4065285,8.4251528,1.4341195,-13.5419846,82.1297684,-45.1068687
4230,0.0383070,-0.1819584,9.8784256,-0.7557252,-0.4122137,0.2671756,-19.2133713,8.5376797,2.4133430,-11.9236641,78.7862625,-8.1221371
4240,-0.0167593,-0.1149211,9.8520899,-0.8702290,-0.0152672,0.6335878,-19.0529594,8.4634600,3.6535332,-6.5114503,66.6030502,24.9847336
4250,-0.0311245,-0.2394189,9.8832140,-0.3664122,-0.1755725,0.2748092,-15.6699696,7.4243813,4.7069764,15.4961834,7.4045801,77.5725174
4260,0.0095768,-0.1963235,9.8329363,-0.8396947,-0.1832061,0.1603053,-14.5854025,6.9982157,4.7237358,20.0229015,-10.2595415,85.4656525
4270,-0.0191535,-0.1699875,9.8257532,-0.4885496,0.2442748,0.3969466,-13.8240499,6.8401995,4.6878228,25.6488552,-25.6946564,93.3740463
4280,0.0861908,-0.1556223,9.9191265,-0.5801527,-0.5572519,0.1221374,-12.7490587,6.6151457,4.5226240,33.1145020,-41.4503822,101.8167953
4290,0.0239419,-0.1795642,9.7850523,-0.4885496,-0.1297710,0.3969466,-11.5591469,6.4236102,4.4196739,43.2213745,-60.8015251,110.9923630
4300,0.0622489,-0.2370248,10.0795374,-0.4656489,-0.6488550,0.2366412,-9.8137827,6.0932121,4.0294209,53.5877876,-73.5725174,119.2824402
4310,-0.0454896,-0.2729376,10.0675669,-0.6106870,0.1679389,0.1755725,-8.0923605,5.7843618,3.4308734,63.7099228,-80.0152664,125.6564865
4320,0.0814024,-0.1699875,9.7563219,-0.8702290,-0.1984733,-0.0992366,-6.4451580,5.7173243,2.3917952,72.6717529,-79.5419846,131.5801544
4330,-0.0359128,-0.2346306,9.9095497,-0.5496183,-0.0458015,0.0305344,-4.4460096,5.8370337,1.2066715,80.2824402,-82.1145020,133.4427490
4340,0.1436514,-0.1532281,9.8353300,-0.6183206,-0.5114504,-0.0305344,-2.7006457,6.1410961,-0.2394189,85.9542007,-96.3206100,129.0992432
4350,-0.0263361,-0.2250538,9.9574337,-0.4732825,-0.0687023,0.7557252,-0.7541697,6.8401995,-2.2625091,85.3893127,-117.0610657,122.3587799
4360,-0.0119709,-0.1628049,9.9933472,-0.4961832,-0.3282443,0.1145038,1.1899122,7.5823979,-3.6343796,80.0000000,-132.4198456,115.6488571
4370,0.0335187,-0.1795642,9.9933472,-0.8320611,-0.3893130,0.1526718,3.1315999,8.1713686,-4.7740140,73.3664093,-138.8702240,112.0610657
4380,0.0909792,-0.1819584,9.8736372,-0.6106870,-0.4198473,0.2213740,5.3342543,8.6166878,-5.7652082,67.8244247,-128.4045868,113.6641235
4390,0.0861908,-0.1987177,9.8999729,-0.5496183,-0.2442748,0.0305344,7.7380204,8.9806042,-6.5816269,62.7557259,-101.4885483,119.0457993
4400,-0.0814024,-0.2082945,9.8688488,-0.3893130,0.1068702,0.5114504,11.0276365,9.3493099,-7.9175844,54.4045792,-69.5038147,120.7099228
4410,0.1101327,-0.1939293,9.9717989,-0.4809160,-0.0305344,0.2595420,13.8575687,9.5240860,-9.1003141,40.3358765,-48.3664131,114.0229034
4420,0.0000000,-0.1843526,9.9741936,-0.3206107,-0.2290076,0.2137405,16.1775379,9.7754755,-9.2032642,21.5725193,-37.0076332,97.0992355
4430,0.0359128,-0.2418131,10.0436249,-0.2137405,-0.2824427,0.2824427,17.6739063,10.1106625,-8.4155760,2.6106870,-31.0152664,74.4045792
4440,-0.0191535,-0.2011119,9.9430685,-0.4580153,-0.2595420,0.5801527,18.2413292,10.2974091,-7.2352405,-14.2519083,-27.8702297,50.0305328
4450,-0.0263361,-0.2082945,9.9358864,-0.5648855,-0.0534351,0.5419847,18.4903259,10.4243011,-6.0812411,-25.8702297,-18.6641216,26.4580154
4460,-0.0526722,-0.2226596,10.0053177,-0.5725191,-0.0763359,0.3511450,18.5980644,10.1298151,-5.2624283,-32.8702278,-8.1832066,4.1755724
4470,0.0071826,-0.1963235,9.9334917,-0.3358779,-0.2213740,0.5725191,18.2006283,9.7874460,-4.3478479,-35.9694672,4.4503818,-17.1832066
4480,0.0335187,-0.2082945,10.1369982,-0.7251908,-0.5038168,0.1526718,17.2908363,9.2918491,-3.7923961,-35.2442741,12.0839691,-38.5038185
4490,0.1221037,-0.1843526,9.8736372,-0.5190840,-0.3587786,0.2213740,15.9429073,9.0476418,-3.3183465,-32.0610695,17.7175579,-59.7175560
4500,0.1053443,-0.2226596,9.9382801,-0.7328244,-0.2366412,0.2748092,14.6715927,8.7220325,-2.9209111,-29.2595425,23.9083977,-78.6946564
4510,0.1005560,-0.2226596,9.9646168,-0.7328244,-0.2748092,0.1450382,13.0626974,8.3102312,-3.0478032,-27.4732819,25.4885502,-98.0000000
4520,0.0670373,-0.2346306,9.8712435,-0.3969466,0.0916031,0.3740458,11.4298601,8.1378498,-3.1028695,-27.6488552,26.6870232,-117.1984711
4530,0.0239419,-0.2082945,9.8736372,-0.4656489,-0.1603053,0.2442748,9.7467451,7.9870162,-3.1196289,-28.6106873,24.6793900,-132.1603088
4540,0.0526722,-0.2202654,9.9287033,-0.6946565,-0.0839695,-0.1450382,7.7284436,7.8026633,-2.9687948,-30.3053436,25.7099228,-143.8778687
4550,0.0023942,-0.2394189,9.9406748,-0.4885496,-0.0687023,-0.2900763,6.2536230,7.8002691,-2.7916248,-31.4427490,32.2595406,-152.3282471
4560,-0.0239419,-0.2346306,9.9502516,-0.6717557,-0.1908397,0.0000000,4.7907729,7.6326761,-2.8275378,-31.2671757,36.9312973,-159.2290039
4570,0.0670373,-0.2011119,9.8425131,-0.8396947,-0.0458015,0.4427481,3.4404502,7.5800037,-2.9065459,-31.0305347,39.2900772,-165.3969421
4580,0.0287303,-0.2418131,9.8832140,-0.6106870,-0.1450382,0.4198473,1.9201399,8.0013809,-3.1866663,-32.0916023,41.5038185,-169.4427490
4590,-0.0167593,-0.1963235,9.9765873,-0.5877863,0.0152672,0.4885496,0.1580165,7.4315639,-2.7988074,-30.7099228,42.0687027,-174.8473358
4600,0.0574605,-0.1747758,9.9215212,-0.8167939,-0.4351145,0.0610687,-2.0350611,7.6015515,-2.8993635,-33.3358765,44.8549614,-172.9694672
4610,-0.0311245,-0.2442073,9.9047613,-0.7328244,-0.0916031,0.4885496,-3.5577655,7.7571740,-2.8754215,-39.6183205,43.9312973,-168.6030579
4620,0.1436514,-0.1771700,9.9095497,-0.7099237,-0.4580153,0.1374046,-4.6351509,7.7116842,-2.4971397,-46.6335869,36.3664131,-163.3664093
4630,-0.0574605,-0.2226596,9.8592720,-0.4961832,0.3511450,0.5572519,-5.6814117,7.5895805,-2.0063307,-52.8778610,30.6183205,-157.7175598
4640,-0.0119709,-0.1699875,9.8520899,-0.8244275,0.2213740,0.2977099,-7.1370788,7.4531116,-1.1779412,-57.6412201,33.6717567,-151.0458069
4650,0.0311245,-0.2346306,9.8712435,-0.4961832,-0.1832061,0.2977099,-9.2942438,7.6997132,-0.4118006,-62.0687027,40.3358765,-141.3816833
4660,0.0502780,-0.1987177,10.0172882,-0.5648855,-0.4351145,0.3206107,-11.7530756,7.8433647,0.8044477,-66.3206100,45.6793900,-125.1297684
4670,-0.0454896,-0.2489957,9.8712435,-0.8549618,0.0000000,0.5954198,-14.1448717,7.8218169,2.1835008,-69.5267181,41.8702278,-105.0839691
4680,-0.0119709,-0.1628049,9.9167328,-0.6183206,-0.1374046,0.5038168,-15.6077213,7.7164726,3.6535332,-68.5114517,29.4809170,-83.1297684
4690,0.0287303,-0.2011119,9.9502516,-0.6641222,-0.3053435,0.3282443,-16.5941277,7.5871863,4.9487896,-61.2442741,14.1297712,-58.9389305
4700,0.0574605,-0.1747758,9.9670105,-0.4809160,-0.2061069,0.4732825,-16.8718529,6.9503322,6.0572991,-49.8625946,5.2900763,-33.8320618
4710,0.0909792,-0.1819584,10.0172882,-0.6335878,-0.3435115,0.2290076,-16.8263626,6.4978304,6.9766679,-35.7404594,5.9236641,-6.9847326
4720,-0.0239419,-0.1963235,9.8544836,-0.8091603,0.3358779,0.5572519,-16.1895084,6.3398137,7.4076223,-21.1908398,10.3816795,18.7099228
4730,0.0287303,-0.2011119,9.8856087,-0.8396947,-0.0381679,0.3206107,-13.7330704,5.6862001,7.4339581,10.4961834,12.7633591,58.4885483
4740,0.0167593,-0.1915352,9.8185711,-0.6106870,-0.1984733,0.1297710,-10.8073711,5.6885943,5.0828643,49.3435097,-10.7175570,86.7557220
4750,0.0957676,-0.2442073,9.9646168,-0.4503817,-0.3435115,0.1984733,-10.0005293,5.8992829,4.2425036,56.2824440,-27.1450386,93.4427490
4760,0.0215477,-0.2513899,9.8975792,-0.5419847,-0.5114504,-0.2290076,-9.4785957,6.1985564,3.4787574,63.5648842,-45.2519073,101.7251892
4770,0.0311245,-0.1747758,10.0268650,-0.3435115,0.4656489,0.4274809,-8.5640154,6.2751703,2.7772598,70.9312973,-61.0763359,109.8091583
4780,0.1388630,-0.1460456,9.9239149,-0.7404580,-1.0610687,-0.6488550,-7.8122401,6.1674318,1.8315549,79.9083939,-72.1908417,118.8778610
4790,-0.1077385,-0.1987177,9.9167328,-0.6870229,0.4580153,-0.2366412,-7.0460997,6.4140334,0.7972651,87.2671738,-75.8244247,127.3893127
4800,-0.0095768,-0.1723816,9.7395630,-0.7938932,-0.1984733,0.2595420,-5.7963328,6.0788469,-0.3112446,91.2519073,-78.0229034,136.2824402
4810,0.0766141,-0.2202654,10.0077124,-0.5572519,-0.1297710,0.4122137,-4.7428894,6.3565731,-1.4867916,94.0916061,-78.4732819,142.9389343
4820,-0.0526722,-0.1819584,9.9598284,-0.4656489,0.6717557,0.7404580,-3.6176202,6.3972740,-2.4229198,95.9465637,-75.7022934,148.7557220
4830,0.0957676,-0.1268920,9.7587166,-0.6106870,-0.0916031,0.2137405,-2.7102225,6.6462698,-3.5936785,95.3053436,-72.0457993,153.9847260
4840,-0.0071826,-0.2274480,9.9717989,-0.7404580,-0.7404580,0.1145038,-1.7094513,7.1346846,-4.6112089,93.7862625,-73.8320618,163.0458069
4850,-0.0023942,-0.1771700,9.9813757,-0.6412213,-0.5038168,0.1832061,-0.2513899,7.7595682,-5.9567432,89.8778610,-82.1221390,173.3587799
4860,0.1891410,-0.2394189,9.8664551,-0.6564885,-0.1984733,-0.6488550,1.4580613,8.0803890,-7.0389171,82.3282471,-85.5419846,184.5954132
4870,-0.0550664,-0.2513899,10.1202393,-0.5801527,-0.0992366,-0.7251908,3.7828193,8.5999289,-8.2647419,73.3816757,-78.4503784,197.8625946
4880,-0.0143651,-0.1244979,9.8137827,-0.6793893,0.0000000,0.0610687,6.5169835,8.0851774,-9.6821022,63.9312973,-69.6259537,213.2900696
4890,0.0287303,-0.1819584,9.8018112,-0.6259542,0.1374046,0.4885496,10.2375546,7.9678626,-10.2638903,54.9694672,-54.8320618,226.0000000
4900,0.0383070,-0.1819584,9.8640604,-0.2595420,0.0000000,0.3893130,14.8176384,7.9439206,-10.6852674,44.7480927,-26.1679382,224.6259613
4910,-0.0215477,-0.2801202,10.0388365,-0.9541985,-0.2900763,0.2442748,18.5094795,7.9630742,-10.9031391,30.7480907,-1.0992366,205.4351196
4920,0.0766141,-0.2178712,9.8951855,-0.6335878,-0.4427481,0.0152672,19.6126022,8.0348997,-10.9917240,9.3435116,7.9312978,166.7938995
4930,-0.0239419,-0.2178712,10.0939026,-0.4351145,0.4656489,0.4198473,19.6126022,8.2767134,-10.3045912,-16.7175579,2.8931298,114.2671738
4940,0.1221037,-0.2250538,9.8616667,-0.4656489,-0.2748092,0.5572519,19.6126022,8.3245964,-8.4945841,-41.6183205,-6.5496182,55.5419846
4950,0.0047884,-0.2346306,10.0508070,-0.5267175,0.0076336,0.4122137,19.6126022,8.0420828,-6.9694853,-56.3358765,-12.8015270,3.2290077
4960,0.0383070,-0.1723816,9.9909525,-0.7480916,-0.0305344,-0.1755725,19.6126022,7.5440907,-5.2743993,-61.3206100,-5.9160304,-38.7938919
4970,0.0454896,-0.2106887,9.8664551,-0.7557252,-0.0992366,-0.2748092,19.6126022,7.4195933,-4.0222383,-61.1526718,6.1145039,-74.8778610
4980,-0.0598547,-0.1101327,9.8640604,-0.6564885,-0.0076336,0.1984733,17.8175583,7.3693151,-3.3446827,-58.3587799,11.3358774,-105.3358765
4990,-0.0047884,-0.2130829,9.9191265,-0.6030535,-0.1068702,0.4503817,15.6196918,7.1131368,-2.9496415,-56.3129768,10.0916033,-130.9618378
5000,0.0646431,-0.1580165,9.9263096,-0.5190840,-0.2061069,0.0534351,14.0179796,6.9575148,-2.5809362,-55.2213745,10.5114508,-153.7938995
5010,0.0047884,-0.2035061,9.9813757,-0.6488550,0.0152672,0.4580153,12.4114780,6.5385313,-2.2361729,-53.7022896,11.1068707,-175.1297760
5020,0.0359128,-0.2082945,9.9598284,-0.5114504,-0.2137405,0.1755725,10.6685085,6.5864153,-2.3463056,-51.0458031,17.5343513,-192.2748108
5030,0.0454896,-0.2130829,9.8257532,-0.7175573,0.0839695,0.4274809,9.2224178,6.4978304,-2.5546002,-49.9007645,24.7404575,-207.9389343
5040,0.0885850,-0.2250538,9.8161764,-0.7480916,-0.0687023,0.1374046,7.7284436,6.3302369,-3.2704628,-52.0763359,31.4045811,-222.6946564
5050,0.0191535,-0.2106887,9.8640604,-0.6106870,-0.0458015,0.3053435,5.9399838,6.2033448,-3.6008608,-58.8091621,34.5114517,-236.7099304
5060,0.0311245,-0.2178712,9.9095497,-0.6870229,-0.1679389,0.3511450,3.7804251,6.1195483,-3.6966286,-63.6030540,47.4732819,-246.4351196
5070,0.0167593,-0.2298422,9.8903971,-0.6259542,-0.1374046,0.2137405,1.6567791,6.0405402,-3.4117200,-69.6106873,54.0610695,-250.1374054
5080,0.0622489,-0.2298422,9.8880024,-0.6946565,-0.0992366,0.4809160,-0.5386927,6.0118098,-3.2177906,-75.6259537,50.5038185,-250.1374054
5090,-0.0694315,-0.1987177,9.9598284,-0.7557252,-0.1221374,0.3664122,-3.3446827,5.7652082,-2.5474176,-80.7709961,41.3587799,-250.1374054
5100,0.0383070,-0.1484398,9.9454632,-0.5419847,-0.2519084,0.2442748,-5.6957769,5.8418221,-2.2385671,-86.7022934,30.4351139,-250.1374054
5110,0.0287303,-0.2011119,9.8688488,-0.7251908,-0.1679389,0.2061069,-7.5297260,5.7269011,-1.6855093,-93.9083939,17.7709923,-241.7328186
5120,0.0287303,-0.2322364,9.8281479,-0.8473282,-0.1450382,0.4961832,-9.8161764,5.3701668,-0.9385223,-99.5725174,15.3893127,-226.7251892
5130,-0.0071826,-0.2322364,9.8999729,-0.7251908,-0.2519084,0.1374046,-13.2542324,5.4156566,0.3495516,-100.1755753,26.2061062,-201.4732819
5140,0.0000000,-0.1963235,9.8640604,-0.5343512,0.0152672,0.6183206,-16.4049854,5.8753409,1.7812769,-98.9923630,33.7175560,-164.8091583
5150,0.1125269,-0.2035061,9.9454632,-0.1297710,-0.7328244,-0.2442748,-17.7577038,5.4491754,3.1986370,-96.9312973,29.6335869,-125.2061081
5160,-0.0957676,-0.2442073,9.7898407,-0.4885496,0.2900763,-2.3282442,-9.4905672,5.3725610,3.7133877,94.0000000,15.0992365,204.1068726
5170,-0.0359128,-0.1484398,9.8257532,-0.6564885,0.0229008,-1.1450381,-7.8457589,5.3438311,2.3582766,98.8167953,-11.8625956,214.8015289
5180,-0.1292862,-0.2442073,9.9095497,-0.6030535,-0.0076336,0.2671756,-6.4762826,5.3127065,1.7884595,102.0457993,-28.6335869,221.3893127
5190,0.1292862,-0.1675933,9.8880024,-0.6259542,-0.2137405,0.1297710,-5.1642666,5.3174949,1.2497669,103.5725174,-39.8473282,227.3282471
5200,-0.0454896,-0.2130829,9.9167328,-0.6641222,0.0916031,0.6106870,-3.7971845,5.4156566,0.6033357,105.4732819,-47.6030540,233.5954132
5210,0.0502780,-0.2035061,9.9119444,-0.6870229,-0.2442748,0.1450382,-1.4221486,5.6143742,-0.7517755,113.3358765,-56.9923668,247.2977142
5220,0.0861908,-0.2130829,9.9358864,-0.4198473,-0.1374046,0.3129771,-0.1388630,5.6071916,-2.1595588,115.7862625,-48.5801544,250.1297760
5230,0.0526722,-0.1771700,9.8880024,-0.7022901,-0.3893130,0.2977099,1.4987626,5.2863703,-3.8019729,113.3816757,-32.5954208,250.1297760
5240,0.0359128,-0.1939293,9.8903971,-0.6488550,0.0916031,-0.2519084,3.4021432,4.9727316,-5.9351954,105.8167953,-24.7022896,250.1297760
5250,0.0359128,-0.2154770,9.7323799,-0.7557252,-0.3358779,0.0381679,4.8865409,4.7189474,-7.4483232,92.0610657,-27.1603050,250.1297760
5260,-0.0861908,-0.2298422,9.9023676,-0.6183206,-0.0763359,0.7099237,7.6518297,4.5034704,-8.1570034,71.5038147,-15.5725193,250.1297760
5270,0.0311245,-0.1771700,9.9454632,-0.5954198,-0.0229008,0.5114504,10.1489687,4.3550305,-8.1067257,50.3740463,14.1068707,250.1297760
5280,0.1340746,-0.2705434,9.9430685,-0.7786260,-0.3129771,0.1450382,12.6078014,4.2065907,-7.5752153,32.1221390,38.1755714,250.1297760
5290,-0.0239419,-0.2082945,10.0125008,-0.6106870,-0.1679389,0.3282443,14.7865143,4.5752959,-6.3685441,17.1755733,43.6793900,241.9084015
5300,0.1005560,-0.2489957,9.8951855,-0.6564885,-0.0992366,0.1221374,18.5693340,4.4675574,-4.4244623,14.2519083,44.2442741,203.1679382
5310,0.0574605,-0.2537841,9.8903971,-0.6870229,-0.1526718,0.4122137,19.6126022,4.3382711,-3.6080434,22.1068707,74.0076370,154.4961853
5320,0.0239419,-0.1819584,9.8784256,-0.6946565,-0.2519084,-0.0152672,19.6126022,5.0780759,-4.6016321,21.7557259,94.3129807,98.2061081
5330,0.0167593,-0.1891410,9.8784256,-0.6641222,0.3282443,0.5267175,19.6126022,5.5760674,-5.6311336,4.7938933,80.5038147,37.8702278
5340,0.0502780,-0.2082945,9.9239149,-0.6030535,-0.3893130,0.2748092,19.6126022,5.7580256,-5.7891502,-20.7404575,39.7328262,-19.5419846
5350,0.0263361,-0.2106887,9.9023676,-0.6488550,-0.2442748,0.3511450,19.3330803,5.6383162,-5.1690550,-40.7022896,-12.8473282,-70.6412201
5360,-0.0311245,-0.2130829,9.9526453,-1.0381680,-0.2595420,0.4503817,17.5877151,5.5808558,-3.7995787,-51.4274826,-57.0228996,-108.4732819
5370,0.0335187,-0.1795642,9.8688488,-0.6641222,0.3816794,0.0839695,16.2876701,5.6478930,-2.6790979,-54.7862587,-75.8473282,-129.3206177
5380,0.0861908,-0.1819584,9.8903971,-0.7709923,-0.4045801,0.2442748,14.8415804,5.7747850,-1.2593436,-50.4351158,-64.9847336,-140.2671814
5390,0.1173153,-0.1364688,9.8640604,-0.7099237,-0.0229008,-0.4045801,13.5966015,6.0405402,-0.6200951,-41.2595406,-44.1221390,-142.7557220
5400,-0.0646431,-0.1699875,9.8832140,-0.7328244,-0.0687023,-0.2671756,12.9836893,6.3134775,-0.6272776,-31.5190830,-25.2900772,-146.3282471
5410,-0.0526722,-0.1819584,10.0675669,-0.4580153,-0.2290076,0.4503817,12.6772327,6.3733325,-1.1755470,-24.7099228,-10.3206110,-154.4580078
5420,0.1149211,-0.1508339,9.8903971,-0.3740458,0.0381679,0.3587786,12.2750092,6.3996682,-1.6065011,-22.5725193,-2.1832061,-168.3587799
5430,0.0071826,-0.2513899,9.9191265,-0.6641222,0.1755725,0.0152672,11.6333666,6.2272868,-1.8578910,-21.7328243,-5.8244276,-188.3511505
5440,0.0502780,-0.1628049,9.8353300,-0.7175573,-0.0458015,0.0000000,10.8959560,6.0572991,-2.0877333,-25.0000000,-18.2442741,-210.3206177
5450,0.1077385,-0.1795642,10.0412302,-0.5725191,-0.6259542,-0.6793893,9.3636751,6.2009506,-2.2672975,-30.8244267,-38.5954208,-233.1755676
5460,-0.1316804,-0.2082945,9.8449068,-0.9007633,0.5496183,-0.8702290,8.3102312,6.0549049,-1.9799947,-37.9618340,-56.1603050,-250.1374054
5470,-0.1149211,-0.1939293,9.8496952,-0.7099237,-0.0992366,0.2595420,6.8904772,5.7819676,-1.5705882,-44.5954208,-72.6183243,-250.1374054
5480,0.1364688,-0.3040621,9.9765873,-0.3664122,-0.6335878,0.2900763,5.5018473,5.4587522,-1.1923064,-48.8778610,-83.6488571,-250.1374054
5490,0.0095768,-0.2801202,10.2064295,-0.4198473,-0.8244275,0.0992366,3.9073172,5.1810260,-0.7110743,-51.3664131,-88.9312973,-250.1374054
5500,-0.0526722,-0.1173153,10.0148945,-0.6259542,0.0610687,0.2366412,2.0518203,4.9344244,-0.5985473,-53.2442741,-91.3816757,-250.1374054
5510,0.0000000,-0.1675933,9.9239149,-0.4274809,-0.4427481,0.0152672,-0.1556223,4.8482337,-0.5195391,-55.7938919,-87.8167953,-250.1374054
5520,-0.0311245,-0.1891410,9.9502516,-0.6870229,-0.1374046,-0.1832061,-2.3510940,4.7309184,-0.1723816,-57.7328262,-85.0610657,-250.1374054
5530,-0.0742199,-0.1771700,10.0101061,-0.5419847,-0.2748092,-0.3053435,-4.6782460,4.8697815,0.0359128,-58.8015251,-84.1374054,-250.1374054
5540,-0.0430954,-0.1939293,9.9598284,-0.3816794,0.1374046,0.2213740,-6.9766679,5.0014620,0.4572902,-59.6488533,-80.5801544,-250.1374054
5550,-0.0430954,-0.1939293,9.7587166,-0.5725191,-0.2290076,0.2748092,-9.4666252,5.3174949,0.7589580,-59.0000000,-73.7099228,-250.1374054
5560,0.1292862,-0.1939293,9.8592720,-0.7938932,-0.2366412,0.1832061,-11.9972830,5.7269011,1.0223188,-56.1526718,-60.1068687,-248.1832123
5570,-0.0119709,-0.1963235,9.9813757,-0.4580153,0.1145038,-0.1755725,-14.1855726,6.3541789,1.2210367,-51.9465637,-42.3129768,-205.9541931
5580,0.1173153,-0.2154770,9.9646168,-0.3587786,-0.2977099,0.2671756,-15.8447456,7.0987716,1.5131277,-45.7557259,-13.7709923,-153.0076294
5590,0.0622489,-0.1819584,10.0340481,-0.3587786,-0.5801527,-0.1908397,-16.4959660,7.4626884,1.6926919,-39.0152664,21.3053436,-98.4274826
5600,-0.0718257,-0.2466015,9.9191265,-0.6335878,-0.3893130,-0.0839695,-16.1942978,7.5919747,1.8938038,-29.7022896,63.5496178,-43.0916023
5610,-0.0383070,-0.2466015,9.8161764,-0.7328244,0.0992366,-0.0076336,-15.4353390,7.5393028,1.9273225,-18.5877857,110.4274826,7.4274807
5620,-0.1292862,-0.1532281,10.0244713,-0.8625954,0.4885496,0.2977099,-14.4944229,7.3405848,1.9392935,-7.7862597,147.5572510,48.7633591
5630,-0.0119709,-0.1963235,9.9382801,-0.6335878,-0.2290076,0.5343512,-12.7179346,7.6997132,1.8435259,3.6259542,153.9007568,87.2671738
5640,-0.0047884,-0.2202654,9.9406748,-0.4809160,0.0916031,0.2977099,-12.4042959,7.9008250,2.0302727,4.6641221,120.2366409,92.0381699
5650,0.0263361,-0.1771700,9.9885588,-0.7404580,-0.2442748,0.3511450,-11.4346485,7.9367380,3.4811516,14.0152674,0.9312977,104.3740463
5660,0.0359128,-0.1675933,9.7994175,-0.7099237,-0.3664122,0.2137405,-11.3652172,7.9702568,3.9959023,24.0534344,-5.2824426,117.9542007
5670,0.0191535,-0.2059003,9.9694052,-0.6564885,-0.1755725,0.5038168,-10.9965124,7.8936424,3.8450682,36.5190849,0.6412213,135.8320618
5680,0.0742199,-0.2035061,10.0053177,-0.8015267,-0.6259542,0.0229008,-10.5751352,7.9511032,3.5314295,49.2900772,11.9694653,156.6946564
5690,0.0574605,-0.1891410,9.9957409,-0.6641222,-0.1984733,0.2748092,-10.0747490,8.0396881,2.7940190,60.7480927,25.5725193,177.2290039
5700,-0.0335187,-0.2035061,9.9694052,-0.7251908,-0.1984733,0.3435115,-9.1434097,7.7260494,2.0350611,69.4045792,34.9236641,198.5190887
5710,0.1053443,-0.1508339,9.9454632,-0.6793893,-0.3358779,0.0687023,-7.8960366,7.5488791,1.1085097,75.6412201,38.9236641,216.2442780
5720,-0.0311245,-0.2154770,9.9430685,-0.5572519,-0.0076336,0.4503817,-6.5121951,7.4914188,0.3016679,78.4503784,39.3435097,231.7633514
5730,0.0143651,-0.1891410,9.9167328,-0.4351145,-0.2824427,0.2595420,-4.9128766,7.3860745,-0.5123565,77.5572510,36.9236641,241.8549652
5740,0.0598547,-0.1843526,9.8808203,-0.7480916,-0.2977099,0.3206107,-3.3805954,7.3549500,-1.3503228,74.2519073,23.2061062,247.6412201
5750,0.0000000,-0.1939293,9.9598284,-0.7251908,-0.3358779,0.4045801,-1.9464760,7.4938130,-2.5498118,66.8702316,-0.8244275,249.6412201
5760,-0.0071826,-0.1723816,9.8568783,-1.0229008,-0.2519084,0.3282443,-0.6057299,7.5345144,-3.4835455,55.5877876,-24.5648861,249.6106873
5770,0.0694315,-0.2035061,9.9454632,-0.4809160,-0.3511450,-0.1679389,0.7398046,7.5297260,-3.7636659,43.4274826,-38.2061081,249.4885559
5780,-0.0622489,-0.2657550,10.0053177,-0.5190840,-0.0687023,0.4427481,2.1451938,7.2950954,-3.9360476,34.0228996,-42.7175560,250.1297760
5790,0.0670373,-0.1556223,9.9933472,-0.4885496,-0.1603053,0.2061069,3.2465210,6.5121951,-4.2832050,28.0763359,-48.2366409,250.1297760
5800,0.0143651,-0.1771700,9.8951855,-0.5572519,0.3740458,0.6564885,4.2808108,6.0812411,-4.5585365,23.3053436,-44.6641235,250.1297760
5810,-0.0047884,-0.2274480,9.9478569,-0.7022901,-0.1450382,0.3816794,5.6981707,5.4515696,-4.6950054,19.0305347,-26.4503822,250.1297760
5820,-0.0502780,-0.2082945,10.0220766,-0.6641222,-0.2900763,0.2061069,7.8122401,4.5776901,-4.4914994,15.6946564,-1.0534351,250.1297760
5830,-0.0430954,-0.1580165,9.8233595,-0.8625954,0.1908397,0.6030535,9.9957409,3.8642218,-4.0940638,14.7099237,32.2137413,250.1297760
5840,0.0909792,-0.2059003,10.0101061,-0.7404580,-0.5419847,-0.0458015,12.0930510,3.0861101,-3.6726866,15.3358774,68.8473282,250.1297760
5850,-0.0526722,-0.2322364,9.8544836,-0.4351145,-0.1679389,0.2366412,14.9253769,2.9903426,-2.7820482,17.3053436,110.2213745,250.1297760
5860,0.0622489,-0.1819584,9.9334917,-0.3358779,-0.1603053,0.3053435,16.1607780,4.1682839,-1.8076130,22.7251911,139.1908417,239.7251892
5870,0.0646431,-0.1963235,9.8927908,-1.0076336,-0.1832061,-0.0076336,17.2668934,1.8435259,-1.1587877,26.3358784,126.3206100,206.9313049
5880,0.0287303,-0.1915352,9.9358864,-0.8931298,-0.0076336,-0.6106870,19.2540722,1.9129574,-0.3471575,26.8854961,111.7480927,164.6183167
5890,0.0837966,-0.1795642,9.8927908,-0.8473282,-0.1526718,-1.9541985,19.6126022,2.8323262,0.1460456,23.1984730,101.6335907,110.7862625
5900,0.0574605,-0.1747758,9.9119444,-0.4351145,-0.2900763,-0.1832061,16.3858318,3.7085996,-1.0678085,33.4580154,-71.2595444,-74.1984711
5910,0.0598547,-0.1915352,9.9310980,-0.8625954,-0.5343512,0.3587786,15.3347836,4.2305326,-2.2696917,31.7251911,-99.3358765,-104.0839691
5920,0.0095768,-0.2082945,9.9885588,-0.6183206,0.1145038,0.2900763,14.3914728,4.4364328,-3.2872221,23.9083977,-108.0457993,-129.0305328
5930,-0.0311245,-0.2489957,9.9717989,-0.5572519,-0.2748092,0.3893130,14.1759958,4.5250182,-3.6415622,14.8549614,-115.9236679,-156.0839691
5940,0.0167593,-0.1436514,9.9694052,-0.7099237,-0.1755725,0.1526718,12.8927097,4.5920553,-3.7636659,6.7862597,-132.4351196,-181.2290039
5950,0.0359128,-0.2418131,9.9502516,-0.7022901,-0.3435115,0.5114504,11.4394369,5.0014620,-3.6990228,-1.0763359,-145.8473358,-202.2977142
5960,0.0742199,-0.1604107,9.8640604,-0.4885496,-0.5572519,0.0534351,10.9151096,5.4491754,-3.6391680,-10.6793890,-150.7786255,-220.6717529
5970,0.0287303,-0.1628049,9.8951855,-0.7022901,-0.3816794,0.1832061,10.7044210,5.4683285,-3.3925664,-20.4503822,-151.8320618,-238.2137451
5980,-0.0071826,-0.2250538,9.8903971,-0.6946565,0.1221374,0.3969466,10.2662840,5.1882086,-3.3566537,-29.9465656,-141.5954132,-250.1374054
5990,0.0454896,-0.2106887,9.8999729,-0.7175573,0.1068702,0.2366412,9.3445215,5.1858144,-3.4524212,-39.3740463,-116.9465637,-250.1374054
6000,-0.0574605,-0.2082945,9.8233595,-0.4580153,0.1221374,0.5496183,7.8170285,5.4156566,-3.5481887,-47.0992355,-92.5801544,-250.1374054
6010,0.0646431,-0.1604107,9.8257532,-0.6106870,-0.2671756,0.1221374,6.1650376,5.5449429,-3.6870518,-53.8015251,-76.1984711,-250.1374054
6020,-0.0239419,-0.1699875,9.9454632,-0.7938932,-0.3511450,0.1145038,4.6854286,5.3893204,-3.9575951,-60.0916023,-74.6946564,-250.1374054
6030,0.0263361,-0.1580165,9.9047613,-0.6717557,0.2442748,0.0000000,3.7684543,4.9224534,-4.0006905,-67.5648880,-81.8778610,-250.1374054
6040,0.0095768,-0.2585725,9.9789820,-0.6183206,-0.4656489,0.3511450,2.9999194,4.5968437,-4.0222383,-76.7633591,-86.7938919,-250.1374054
6050,0.0383070,-0.2059003,9.9334917,-0.6030535,0.0687023,0.7251908,2.1835008,4.0533628,-4.0557570,-86.9847336,-94.6106873,-250.1374054
6060,0.0071826,-0.1508339,9.9191265,-0.7786260,-0.2977099,0.2671756,0.5865764,3.2034254,-3.6295912,-99.2366409,-109.2977066,-250.1374054
6070,0.0095768,-0.1939293,9.8209648,-0.4427481,-0.1221374,0.3282443,-0.4501076,2.4851687,-2.7796540,-112.5190811,-122.0916061,-250.1374054
6080,-0.0239419,-0.2226596,9.9215212,-0.8091603,-0.6717557,0.0687023,-1.8387375,1.7836711,-2.3534882,-128.4503784,-132.4122162,-250.1374054
6090,-0.0071826,-0.2035061,9.8616667,-0.6793893,-0.1297710,0.3282443,-4.5824785,0.8379663,-2.7389526,-145.9389343,-121.2595444,-250.1374054
6100,0.0622489,-0.2298422,9.9933472,-0.7099237,-0.1526718,0.2137405,-9.2367830,1.5729824,-2.8323262,-162.6870270,-77.8854980,-250.1374054
6110,0.0239419,-0.2106887,9.8281479,-0.5038168,0.1984733,0.3282443,-16.2637291,3.5266411,-1.2042773,-171.3740387,-10.0687027,-250.1374054
6120,0.0335187,-0.1963235,9.9047613,-0.6946565,0.0076336,0.4351145,-19.6131992,5.0852585,1.9273225,-167.3816833,40.0381660,-250.1374054
6130,0.0143651,-0.1436514,9.7754755,-0.6793893,0.2366412,0.6259542,-19.6131992,5.3653784,4.2520804,-151.3511505,43.6335869,-204.5496216
6140,-0.0191535,-0.2035061,9.8616667,-0.7328244,-0.4732825,-0.0916031,-19.6131992,5.3605900,6.2296810,-129.5496216,25.4732819,-109.2061081
6150,0.0000000,-0.1412572,9.8209648,-0.3969466,-0.2137405,0.0763359,-19.6131992,5.5760674,8.3365679,-103.9465637,16.9923668,-7.0534353
6160,0.0383070,-0.1867468,9.9574337,-0.4885496,-0.1603053,0.3893130,-19.6131992,5.2097564,10.0196829,-77.5496216,39.4198456,84.2977066
6170,0.0502780,-0.1771700,9.8377247,-0.5114504,0.0076336,0.4580153,-19.6131992,4.6279683,10.4697905,-48.5725174,77.6793900,147.0610657
6180,0.0574605,-0.1819584,9.9406748,-0.7938932,0.3053435,0.4580153,-17.4943428,4.3382711,9.9574337,-13.9083967,109.0305328,182.7404633
6190,0.0814024,-0.2178712,9.8568783,-0.7557252,-0.1068702,0.2442748,-15.8782644,4.3837609,9.0787668,22.9465656,112.9312973,202.0381622
6200,0.0766141,-0.1771700,9.9622221,-0.1526718,-0.4122137,0.0763359,-14.3220415,4.4412212,8.0588417,56.7862587,92.8244247,211.8625946
6210,0.0335187,-0.1699875,9.8975792,-0.9007633,0.0839695,-0.7404580,-12.5910425,5.0110383,6.7252784,85.2061081,63.2977104,213.1297760
6220,0.0239419,-0.1915352,9.9885588,-0.7709923,-0.4961832,-0.4503817,-11.4202833,5.4683285,4.9056940,103.4580154,29.9007626,213.1221313
6230,-0.0383070,-0.1484398,9.9382801,-0.4351145,-0.1297710,0.5419847,-10.6637201,5.8370337,2.5091105,101.4732819,7.9465647,219.0763397
6240,0.0454896,-0.1843526,9.8377247,-0.2595420,-0.3282443,0.0076336,-9.7563219,6.3829093,0.6703730,86.8549652,13.4427481,238.9084015
6250,-0.0718257,-0.1364688,9.8496952,-0.6183206,-0.0076336,0.1908397,-8.7986460,6.2679882,-0.2585725,72.7557220,22.2519093,250.1297760
6260,0.0335187,-0.1699875,9.8832140,-0.6793893,-0.2824427,0.3129771,-7.0772243,6.3015065,-0.6224893,66.7404556,23.2137413,250.1297760
6270,0.0598547,-0.1771700,9.9885588,-0.6641222,-0.3969466,-0.4274809,-5.9184365,6.2392578,-1.3910241,65.9923630,11.6870232,250.1297760
6280,0.1029501,-0.1699875,9.8880024,-0.9312977,-0.2977099,-1.3969465,-5.0397687,6.1578555,-2.5761478,63.8778610,6.8473282,250.1297760
6290,0.0119709,-0.2250538,9.8688488,-0.9465649,-0.3511450,-1.2442749,-3.8546450,5.8585815,-3.8522508,53.7557259,-0.1832061,250.1297760
6300,-0.1340746,-0.1244979,9.8999729,-1.0000000,0.1297710,-0.0687023,-1.9560528,4.9583664,-4.5345950,38.6488533,-17.5572510,250.1297760
6310,0.0023942,-0.1867468,9.9478569,-0.6641222,-0.2137405,1.4122137,0.1053443,3.8426740,-4.1587071,28.5038166,-32.8091621,250.1297760
6320,0.0454896,-0.2394189,9.8880024,-0.1603053,0.0076336,1.1221374,2.4564383,2.1667414,-3.4859397,28.4427490,-41.2748108,250.1297760
6330,0.0119709,-0.2082945,9.9741936,-0.5190840,-0.4351145,0.1908397,6.0429344,0.8571198,-2.9568241,36.0610695,-31.3893127,250.1297760
6340,0.0598547,-0.1915352,9.9622221,-0.5038168,0.1068702,0.4503817,13.7378588,-0.3734936,-2.3319404,57.8320618,45.7862587,250.1297760
6350,-0.0119709,-0.1508339,9.8449068,-0.8320611,0.0458015,0.5343512,19.6126022,-0.1244979,-2.1882892,60.6641235,93.8091583,250.1297760
6360,0.0095768,-0.2226596,9.8975792,-0.6488550,-0.3435115,0.2290076,19.6126022,0.3854645,-2.4229198,54.7251892,142.4122162,250.1297760
6370,0.0430954,-0.2011119,9.9454632,-0.6106870,0.0000000,0.3282443,19.6126022,1.3862357,-3.2082138,40.6030540,161.5954132,250.1297760
6380,0.0023942,-0.2226596,9.9143381,-0.7328244,-0.4580153,0.2595420,19.6126022,1.8531027,-3.9647777,18.5190830,138.9389343,163.4122162
6390,0.0215477,-0.1723816,9.9430685,-0.6717557,-0.1297710,0.3740458,19.6126022,2.8059900,-4.5633249,-28.3053436,33.3511467,-10.6946564
6400,0.0143651,-0.2011119,9.9143381,-0.6488550,-0.1755725,0.4274809,19.6126022,2.4899571,-3.6535332,-41.6106873,-21.2824421,-82.5648880
6410,0.0095768,-0.2059003,9.9310980,-0.6030535,-0.2748092,-0.0152672,19.6126022,2.5522060,-3.4045374,-51.0458031,-56.8778610,-133.6488495
6420,0.0119709,-0.1891410,9.9358864,-0.4732825,-0.4351145,0.2977099,18.7321377,2.7054341,-2.4444675,-55.9312973,-73.6946564,-171.9694672
6430,0.0478838,-0.1388630,9.9454632,-0.5496183,-0.0076336,0.3129771,16.7138367,2.9879484,-1.7525467,-57.0916023,-78.3435135,-200.0229034
6440,0.0622489,-0.2346306,9.9430685,-0.5648855,-0.1145038,0.2824427,15.0618458,3.3901722,-0.8116302,-55.2595406,-73.0000000,-223.2595367
6450,-0.0167593,-0.1987177,10.0005293,-0.6259542,0.1374046,0.4198473,13.5271702,3.9982965,-0.3615226,-50.0839691,-60.1755714,-244.8931274
6460,-0.0383070,-0.2346306,9.8065996,-0.7557252,0.0763359,0.2977099,12.3683825,4.5872669,-0.4716553,-45.0000000,-50.6717567,-250.1374054
6470,0.0383070,-0.2106887,9.9239149,-0.8015267,0.4045801,0.3740458,11.2502966,4.7069764,-0.8571198,-41.8015251,-40.4351158,-250.1374054
6480,0.0311245,-0.2035061,9.9047613,-0.6030535,0.0152672,0.5496183,9.3924055,4.8099265,-1.1563935,-40.1450386,-31.3740463,-250.1374054
6490,0.0191535,-0.1412572,9.8353300,-0.9007633,0.2824427,0.5877863,7.5321202,4.8697815,-1.6879035,-40.3587799,-29.2290077,-250.1374054
6500,0.0766141,-0.2035061,9.9406748,-0.5190840,-0.5877863,0.4427481,5.7723908,4.6183915,-2.3223639,-44.2900772,-38.3282433,-250.1374054
6510,-0.0407012,-0.2130829,9.8712435,-0.4961832,-0.1755725,0.3664122,4.0461802,4.2257442,-2.8754215,-52.8549614,-57.0916023,-250.1374054
6520,0.0119709,-0.1891410,9.9047613,-0.8320611,-0.0076336,0.4351145,2.4229198,3.9456241,-3.1315999,-66.5496216,-78.9160309,-250.1374054
6530,0.0790083,-0.2059003,9.9119444,-0.5572519,-0.4198473,0.2290076,0.5458752,3.3997490,-2.8682389,-84.9923630,-102.6870193,-250.1374054
6540,0.0502780,-0.2178712,9.9526453,-0.3358779,-0.7251908,-0.3435115,-1.4053892,2.5617826,-1.5131277,-102.0687027,-122.3587799,-250.1374054
6550,-0.0143651,-0.2609667,9.8784256,-0.6641222,0.1221374,0.0458015,-4.0916696,2.1667414,0.1364688,-110.5877838,-122.1145020,-250.1374054
6560,0.0047884,-0.2106887,9.8568783,-0.8625954,0.2900763,0.3206107,-8.6023226,2.4037662,1.5538290,-106.8015289,-90.5114517,-250.1374054
6570,-0.0047884,-0.2777260,9.7946291,-0.7022901,0.1450382,0.3511450,-15.3323889,0.7302278,2.1811066,-96.4351120,-28.3282452,-250.1374054
6580,-0.0143651,-0.2011119,9.9143381,-0.6793893,0.0229008,0.3893130,-19.6131992,6.8066807,3.9695661,-87.3664093,56.3435097,-241.1221313
6590,0.0191535,-0.2298422,9.8999729,-0.3893130,-0.0687023,0.1832061,-19.6131992,9.8784256,5.7269011,-71.2366409,120.8778610,-129.1374054
6600,0.0670373,-0.1364688,10.0484133,-0.6717557,-0.1526718,0.3664122,-19.6131992,9.6533718,6.2871413,-51.3816795,132.3053436,-15.5648851
6610,0.0933734,-0.1819584,9.8999729,-0.5572519,-0.2137405,-0.1832061,-19.6131992,8.8920193,5.3821378,-30.3282452,107.2748108,84.6412201
6620,-0.0263361,-0.2106887,9.9502516,-0.7404580,0.1068702,-0.3893130,-19.6131992,8.1546097,4.3981261,-10.6870232,78.4198456,164.8167877
6630,0.0742199,-0.2059003,9.8927908,-0.7938932,-0.7786260,-0.2900763,-12.0786858,7.2903070,2.0805507,21.0305347,70.0305328,232.2290039
6640,-0.0191535,-0.1819584,9.9191265,-0.9770992,-0.0916031,0.0229008,-9.0356712,7.4076223,0.7589580,23.6030540,64.0076370,226.7099304
6650,0.1987177,-0.1963235,9.9502516,-0.8396947,-0.1374046,-1.0152671,-7.1059542,7.7835097,-0.2753318,18.6030540,46.3816795,214.1297760
6660,-0.0407012,-0.2250538,9.8449068,-0.7175573,0.0992366,-1.2061069,-5.7508430,8.2024927,-1.0606259,6.6106873,17.3282452,202.7786255
6670,-0.0957676,-0.2106887,9.9765873,-0.9465649,-0.5954198,0.6335878,-4.9224534,8.3676920,-0.7637464,-6.6106873,-14.9770994,194.2061005
6680,0.0167593,-0.2250538,9.9047613,-0.1679389,0.7404580,0.6946565,-3.7085996,8.2336178,-0.0047884,-16.2366409,-42.2671738,187.5572510
6690,-0.0167593,-0.2202654,9.9358864,-0.5725191,-0.0152672,0.5114504,-2.8586621,8.1570034,0.7469871,-19.7557259,-63.3664131,183.2671814
6700,0.0790083,-0.1867468,9.9047613,-0.7328244,-0.2977099,0.3129771,-1.6879035,8.2312231,1.1707586,-18.5190830,-77.5190811,183.6412201
6710,-0.0550664,-0.1699875,9.8640604,-0.9618320,-0.0763359,0.2900763,-1.0773853,7.8194227,1.1516051,-13.7786255,-87.5114517,190.8931274
6720,-0.0071826,-0.1604107,9.8975792,-0.6412213,-0.2061069,0.0458015,-0.1388630,7.5393028,1.1563935,-6.3358779,-90.4503784,206.3969421
6730,0.0263361,-0.2346306,9.9239149,-0.4809160,0.1526718,0.2977099,8.5257082,5.2265158,0.0957676,20.6183205,6.3893127,250.1297760
6740,0.1460456,-0.2059003,9.9047613,-0.6793893,-0.7557252,0.1374046,11.9589767,4.9703374,-0.0263361,22.9847336,36.5801544,250.1297760
6750,-0.0119709,-0.1484398,9.9239149,-0.6946565,0.2519084,0.4961832,16.0697994,4.7309184,-0.0287303,23.4274807,63.2519073,223.1679382
6760,0.0574605,-0.1675933,9.8520899,-0.7328244,-0.3740458,0.0458015,19.3187141,5.1211715,0.3064562,24.6335869,82.3969498,175.5419922
6770,0.0287303,-0.1939293,9.9598284,-0.4580153,-0.1832061,0.3129771,19.6126022,5.2672167,-0.0790083,31.9770985,83.8320618,120.9465637
6780,0.0023942,-0.1484398,9.9239149,-0.3740458,-0.3893130,0.0992366,19.6126022,3.9695661,-0.6871324,29.8091602,59.2213745,56.1603050
6790,0.0023942,-0.2250538,9.9957409,-0.6259542,-0.5267175,0.4198473,19.6126022,5.0661049,-0.8858501,18.0000000,35.5267181,-20.8396950
6800,-0.0383070,-0.2130829,9.8975792,-0.7404580,-0.3129771,0.2748092,19.6126022,5.7508430,-0.9672526,7.3816795,6.0992365,-88.3053436
6810,0.0143651,-0.2202654,9.9382801,-0.5648855,-0.2366412,0.1603053,18.7345333,5.6502872,-0.3902529,-2.2366412,-29.8549614,-143.8167877
6820,0.0215477,-0.1651991,9.8712435,-0.6717557,0.0458015,0.3053435,16.4815998,5.4946647,0.2274480,-6.9770994,-62.5496178,-189.7709961
6830,0.0191535,-0.1963235,9.9310980,-0.6564885,-0.2213740,0.2519084,14.3890781,5.5521255,0.4788379,-5.9541984,-76.0000000,-226.4732819
6840,0.0215477,-0.2082945,9.9263096,-0.6106870,-0.1603053,0.4503817,12.3372583,5.4850879,0.4429250,-3.7938931,-74.7938919,-250.1374054
6850,0.0359128,-0.1939293,9.9454632,-0.5801527,0.0381679,0.1908397,10.5631638,5.4491754,0.3136388,-2.0916030,-67.3435135,-250.1374054
6860,-0.0215477,-0.1987177,9.9143381,-0.5190840,-0.3664122,0.2366412,8.9734221,5.5593081,-0.3639168,-2.4580152,-58.6641235,-250.1374054
6870,0.0598547,-0.1987177,9.8736372,-0.4656489,0.1603053,0.4580153,7.1035600,5.5664907,-0.9002152,-4.5572519,-53.2671738,-250.1374054
6880,-0.0287303,-0.2130829,9.9981356,-0.4732825,-0.0381679,0.2671756,5.4252334,5.1666608,-1.4413021,-10.3816795,-56.9541969,-250.1374054
6890,-0.0215477,-0.1675933,9.9502516,-0.7557252,-0.4122137,0.2519084,3.8426740,5.1163831,-1.7597293,-19.2671757,-69.4198456,-250.1374054
6900,0.0550664,-0.1819584,9.9263096,-0.4961832,-0.4961832,0.0229008,2.1930776,4.6997938,-1.6280488,-32.1832047,-90.1984711,-250.1374054
6910,0.0502780,-0.1867468,9.8281479,-0.5572519,0.0152672,0.5038168,0.8164186,4.3167233,-1.1827296,-46.9160309,-120.7557220,-250.1374054
6920,-0.0119709,-0.2346306,9.8520899,-0.4809160,0.1755725,0.3740458,-0.8020535,3.7756367,-0.2705434,-62.8244286,-156.9236603,-250.1374054
6930,0.0095768,-0.1987177,9.8856087,-0.4427481,0.2366412,0.4656489,-2.2505381,3.2608860,0.7350162,-77.6335907,-186.4656525,-250.1374054
6940,0.0023942,-0.1723816,9.7826586,-0.6641222,0.3816794,0.4580153,-3.8450682,2.9735832,2.1164634,-89.5190811,-205.9923706,-250.1374054
6950,-0.0957676,-0.1268920,9.8999729,-0.7404580,-0.0305344,0.5038168,-5.4707227,2.4708035,3.3710186,-96.4274826,-212.8931274,-250.1374054
6960,0.0263361,-0.2322364,10.1417866,-0.4427481,-0.5419847,0.2213740,-9.5025377,1.9153515,4.2832050,-94.9694672,-191.9160309,-250.1374054
6970,0.0167593,-0.1651991,9.8281479,-0.7862595,0.2595420,0.5419847,-16.0386753,3.6008608,5.8154860,-82.2366409,-132.3282471,-250.1374054
6980,0.0359128,-0.2130829,10.0172882,-0.3358779,0.0458015,0.3358779,-19.6131992,5.8418221,8.2934723,-57.5954208,-45.3587799,-246.0763397
6990,-0.0191535,-0.1604107,9.9717989,-0.3435115,0.2519084,0.1832061,-19.6131992,7.0987716,11.1904411,-25.4427490,38.8320618,-141.6106873
7000,-0.0790083,-0.2011119,9.8425131,-0.6412213,0.9236641,0.6488550,-19.6131992,7.9032192,12.7514534,11.6335878,95.4351120,-43.6793900
7010,0.0670373,-0.2729376,10.0172882,-0.8549618,-0.2595420,-1.0916030,-19.6131992,7.9558916,11.4202833,49.3282433,107.7251892,36.3358765
7020,0.0191535,-0.1244979,9.8401184,-1.0229008,0.6106870,-1.6564885,-19.6131992,7.8361821,9.6988611,81.4427490,98.1221390,95.9389343
7030,-0.1364688,-0.2418131,9.8520899,-0.7786260,-0.0839695,-0.8778626,-18.8590298,7.1705976,8.2791071,107.6335907,90.1450348,135.1374054
7040,-0.0478838,-0.1316804,9.9239149,-0.2213740,-0.4122137,-0.4580153,-16.0937424,6.9431496,6.2224984,124.8015289,98.1374054,159.9313049
7050,0.0000000,-0.2011119,10.0029240,-0.1297710,-0.4732825,-0.1221374,-13.8958759,7.0844064,3.7421181,128.1068726,120.9083939,177.6183167
7060,-0.0502780,-0.1987177,9.9406748,-0.5572519,0.1221374,0.4427481,-12.9046812,6.9263902,1.2497669,119.5572510,150.9007568,194.3740387
7070,0.1364688,-0.1939293,9.9071560,-0.4961832,-0.1297710,-0.7099237,-12.1840305,6.8162575,-0.2681492,103.1908417,175.9160309,212.0458069
7080,0.0574605,-0.2873027,9.9215212,-0.6946565,-0.0381679,-1.4045801,-11.2694502,6.6726060,-1.0821736,84.6564865,188.6488495,230.8702240
7090,-0.0359128,-0.2418131,9.9502516,-0.6259542,0.1679389,-1.3282443,-10.4697905,6.8066807,-1.2545552,65.3358765,190.1679382,248.9465637
7100,-0.1053443,-0.2561783,9.8808203,-0.7938932,-0.2595420,0.2824427,-8.9422979,6.7731619,-1.4604555,48.0228996,169.6641235,250.1297760
7110,-0.0359128,-0.1723816,9.9143381,-0.2900763,0.2213740,1.4580153,-7.2376347,6.8210459,-1.2713146,34.3435097,135.8320618,250.1297760
7120,0.0933734,-0.1987177,9.9574337,-0.5954198,-0.1297710,1.4503816,-5.5832496,6.6917596,-1.4820032,25.0992374,100.8091583,250.1297760
7130,0.1173153,-0.1987177,9.9023676,-0.7709923,-0.3129771,0.2748092,-3.6655040,6.3589673,-2.0206959,18.9923668,66.4122162,250.1297760
7140,0.0837966,-0.2274480,9.9598284,-0.6030535,-0.3435115,0.1755725,-1.5849534,5.5856438,-2.9735832,13.3740454,24.4885502,250.1297760
7150,0.0335187,-0.2178712,9.9095497,-0.5267175,0.2900763,0.1374046,0.1675933,4.8195033,-3.2584918,8.3053436,-6.2061067,250.1297760
7160,0.0287303,-0.1388630,9.9358864,-0.4885496,-0.3358779,0.4809160,6.8689294,3.2776453,-3.0334380,-13.3129768,39.6412201,250.1297760
7170,0.0718257,-0.2082945,9.8951855,-0.7404580,-0.1374046,-0.2442748,8.8441362,2.8897867,-2.8395088,-19.0763359,62.1145020,250.1297760
7180,0.0287303,-0.1843526,9.9741936,-0.6717557,-0.3129771,0.3511450,10.9773588,2.6934631,-2.3870070,-24.2671757,82.2824402,250.1297760
7190,-0.0143651,-0.1508339,9.9382801,-0.7557252,0.0992366,0.4885496,12.9597473,2.7509236,-2.1882892,-29.5038166,97.6030502,250.1297760
7200,0.0766141,-0.1867468,9.9550400,-0.5572519,-0.2671756,0.4045801,14.8104563,2.9664006,-1.6639616,-35.1526718,97.5267181,250.1297760
7210,0.0047884,-0.2418131,9.8688488,-0.6870229,0.0534351,0.2595420,16.4600525,3.4763632,-1.1132981,-37.6641235,83.0916061,217.8549652
7220,0.1364688,-0.1197095,9.9143381,-0.5801527,-0.2824427,0.2824427,17.6882725,3.8091555,-0.5147507,-39.3053436,70.1221390,169.5801544
7230,-0.0287303,-0.1867468,9.9095497,-0.6030535,-0.1145038,0.2290076,19.1008434,4.3263001,-0.0167593,-38.6717567,57.1526718,116.3282471
7240,0.1077385,-0.2849085,9.9598284,-0.6412213,-0.6030535,0.0763359,19.6126022,4.2065907,0.7134684,-34.6641235,43.1374054,61.2290077
7250,0.0814024,-0.1987177,9.9598284,-0.6946565,0.1984733,0.5419847,19.6126022,4.3837609,1.1516051,-25.4961834,39.7099228,3.7709923
7260,-0.0191535,-0.2011119,9.8209648,-0.6030535,-0.2366412,0.2366412,19.6126022,4.5800843,1.5107336,-14.9389315,45.3816795,-52.0763359
7270,0.0287303,-0.1723816,9.9885588,-0.5801527,-0.3129771,0.3129771,19.3402615,4.7117648,1.9201399,-3.9694657,58.3435097,-102.4580154
7280,0.0287303,-0.1244979,9.8233595,-0.6793893,-0.2137405,-0.0229008,17.3339310,4.6782460,1.9201399,8.9236641,79.2519073,-146.2137451
7290,0.0622489,-0.1125269,9.9215212,-0.6488550,-0.5190840,0.1832061,14.9948082,4.9823084,1.5993185,20.7251911,93.9923630,-183.7022858
7300,-0.0766141,-0.2035061,9.7539282,-0.9007633,0.1679389,0.4580153,12.7562418,5.3941088,0.5578461,27.9770985,84.0992355,-215.0076294
7310,-0.0766141,-0.1963235,9.9191265,-0.6946565,0.0000000,0.5572519,11.1234045,5.5257893,-0.7876883,28.9923668,43.8320618,-247.2671814
7320,0.0646431,-0.1699875,9.7898407,-0.4580153,-0.1984733,0.0610687,9.5863342,5.5377603,-1.5370697,25.5725193,-4.1145039,-250.1374054
7330,0.0287303,-0.1915352,9.9765873,-0.6870229,-0.2137405,0.3587786,8.3222027,5.6215568,-2.0829449,17.5038166,-47.2748108,-250.1374054
7340,-0.0407012,-0.1604107,9.9957409,-0.5801527,-0.1832061,0.4198473,7.4124107,5.3653784,-2.2265961,5.0610685,-79.0381699,-250.1374054
7350,-0.0957676,-0.2418131,9.8832140,-0.4885496,0.0534351,0.6183206,6.4643116,4.9990678,-1.8985922,-6.6106873,-102.4427490,-250.1374054
7360,0.0478838,-0.2322364,9.9406748,-0.6946565,-0.4045801,0.1145038,5.2767935,4.5657191,-1.4317253,-15.2671757,-118.7099228,-250.1374054
7370,0.0670373,-0.1316804,9.8975792,-0.5801527,-0.3587786,0.0534351,3.6032550,4.0174499,-0.9145803,-22.4961834,-126.6183243,-250.1374054
7380,0.0023942,-0.2059003,9.7060442,-0.4351145,-0.0916031,0.2748092,1.6304430,3.5505829,-0.3136388,-31.2213745,-138.6183167,-250.1374054
7390,0.0047884,-0.2322364,9.9933472,-0.4809160,-0.1450382,0.2061069,-0.4501076,3.2704628,0.6057299,-40.6030540,-163.3664093,-250.1374054
7400,0.0694315,-0.1628049,10.0220766,-0.5343512,-0.2366412,0.1374046,-2.5354466,2.8730273,1.9464760,-50.0228996,-193.5343475,-250.1374054
7410,0.0646431,-0.2418131,9.8736372,-0.9160305,-0.4961832,0.1297710,-4.5441718,2.4372849,3.3351059,-56.4580154,-219.5572510,-250.1374054
7420,0.2561783,-0.2178712,9.9382801,-0.6946565,-0.3358779,-0.9847328,-7.2879128,1.9919657,5.0254035,-57.8549614,-237.4045868,-250.1374054
7430,-0.1436514,-0.1819584,9.8377247,-0.6641222,0.4809160,-1.0763359,-10.1058741,1.7309990,6.5313487,-50.7633591,-247.1297760,-250.1374054
7440,-0.0071826,-0.2322364,10.0196829,-0.3587786,-0.9312977,0.0381679,-14.6691990,2.3056045,6.6797886,-35.3511467,-246.3816833,-250.1374054
7450,0.0287303,-0.2274480,9.9310980,-0.2519084,0.6259542,0.5954198,-19.6131992,3.9911139,6.5361371,-13.6183205,-210.1374054,-250.1374054
7460,-0.0311245,-0.2370248,9.8927908,-0.5725191,-0.0229008,0.5114504,-19.6131992,5.7292953,6.7276726,2.9160306,-109.8320618,-217.1450348
7470,0.1077385,-0.2561783,9.8664551,-0.7099237,-0.7557252,0.1297710,-19.6131992,8.9446917,7.2879128,28.0000000,13.0687027,-93.9160309
7480,-0.0311245,-0.2082945,9.8832140,-0.8015267,0.1145038,-0.1450382,-19.6131992,6.9000540,6.3493905,51.1450386,100.1832047,36.3511467
7490,-0.0502780,-0.2370248,9.9358864,-0.5496183,0.4045801,0.1526718,-19.6131992,4.5752959,4.9918852,66.0610657,166.3206177,163.1755676
7500,0.0909792,-0.2059003,9.9933472,-0.4198473,0.0229008,0.7328244,-19.6131992,3.7373297,5.2456689,76.1145020,229.4427490,250.1297760
7510,0.0430954,-0.1388630,9.7706871,-0.6946565,0.0992366,0.3587786,-16.0578289,3.6966286,4.9248476,80.8473282,250.1297760,250.1297760
7520,-0.0167593,-0.1675933,9.9526453,-0.7251908,0.0916031,0.2671756,-10.7666702,4.3861551,3.3566537,76.8091583,250.1297760,250.1297760
7530,0.0023942,-0.0957676,9.8401184,-0.9312977,-0.2366412,0.1603053,-8.7675219,5.4443870,1.8818330,68.4961853,247.5496216,250.1297760
7540,0.0167593,-0.2082945,10.0148945,-0.4427481,-0.2824427,0.2290076,-7.4363523,6.0956063,0.9840119,58.2748108,176.0915985,250.1297760
7550,-0.0119709,-0.1891410,10.0172882,-0.3587786,-0.1068702,0.4198473,-5.6790175,6.0740585,0.7637464,52.0992355,117.8854980,250.1297760
7560,-0.0239419,-0.1963235,9.9430685,-0.6488550,-0.2366412,0.2900763,-4.0916696,5.8513989,0.4620786,48.8091621,92.7175598,250.1297760
7570,0.0023942,-0.1771700,9.8592720,-0.7633588,-0.5954198,0.0687023,-3.0478032,6.0956063,-0.0742199,46.0916023,92.0534363,250.1297760
7580,0.0000000,-0.2130829,9.9813757,-0.4656489,0.0610687,0.4274809,-1.2928623,5.9974446,-0.8954269,42.2366409,98.2519073,250.1297760
7590,0.0167593,-0.2178712,9.7730818,-0.7709923,-0.0152672,0.3740458,-0.0263361,5.8944945,-2.1547706,36.0305328,95.5572510,250.1297760
7600,-0.0095768,-0.1795642,9.8664551,-0.7175573,-0.4045801,0.0458015,1.1683644,5.9878678,-2.9113343,25.3053436,96.9923630,250.1297760
7610,0.1556223,-0.2130829,9.9957409,-0.3511450,-0.2137405,0.2061069,2.7605004,5.6766233,-3.2082138,7.8396945,101.2061081,250.1297760
7620,-0.0215477,-0.1963235,9.9287033,-0.6641222,-0.4656489,-0.0610687,4.7883787,5.3965030,-2.7964132,-10.3129768,103.7251892,250.1297760
7630,0.0550664,-0.1915352,9.7898407,-0.8473282,-0.3816794,0.1145038,6.7109132,5.0397687,-1.7525467,-25.2748089,108.2977066,250.1297760
7640,-0.0814024,-0.2059003,9.9430685,-0.5801527,0.0152672,0.3587786,8.5568333,4.8051381,-0.8044477,-34.4809151,107.4427490,250.1297760
7650,-0.0359128,-0.2154770,9.9167328,-0.6259542,0.1145038,0.5114504,10.5703468,4.5729017,-0.3088504,-40.8854980,98.7022934,250.1297760
7660,0.0191535,-0.2250538,9.8784256,-0.7633588,-0.0381679,0.3893130,12.5335817,5.1020179,0.3926471,-44.8320618,79.6030502,250.1297760
7670,0.0526722,-0.1771700,9.9526453,-0.7175573,-0.2442748,0.4198473,13.9844608,5.7915444,1.0438666,-45.3282433,56.9160309,239.1450348
7680,0.0957676,-0.2106887,9.9334917,-0.5801527,-0.3511450,0.2442748,15.2246504,5.8513989,1.2928623,-43.2977104,30.5114498,204.5801544
7690,0.0239419,-0.1915352,9.9263096,-0.7404580,-0.3358779,0.2519084,17.4057579,5.5210009,2.1068866,-38.6412201,8.5954199,157.2671814
7700,0.0550664,-0.2035061,9.9957409,-0.8091603,-0.2061069,0.4122137,19.2301292,5.6622581,2.1906834,-32.6717567,-8.3740454,95.3358765
7710,0.0047884,-0.1891410,9.8449068,-0.7480916,-0.3740458,0.3740458,19.6126022,5.7723908,2.1811066,-23.0763359,-30.1145039,29.3435116
7720,-0.0143651,-0.2178712,9.9622221,-0.6183206,-0.2213740,0.3587786,19.6126022,5.7987270,1.9033806,-11.9770994,-42.6488533,-34.8854980
7730,0.0047884,-0.2082945,9.8377247,-0.4885496,-0.0076336,0.2748092,18.8470592,5.9160423,0.8355721,-5.1832061,-51.6106873,-96.9847336
7740,-0.0407012,-0.2801202,9.9143381,-0.6030535,0.1450382,0.4427481,17.3267498,6.3948798,0.0215477,-4.4122138,-71.1832047,-153.5267181
7750,0.0430954,-0.2466015,9.9143381,-0.7251908,-0.1526718,-0.0229008,14.8080616,6.5481081,-0.4836263,-8.4961834,-91.3053436,-198.5572510
7760,0.0000000,-0.2130829,9.9598284,-0.5419847,0.0305344,0.3816794,12.6532917,6.5121951,-0.4381367,-13.4503813,-104.2519073,-233.4809113
7770,0.0550664,-0.2178712,9.8185711,-0.5496183,-0.6106870,0.2137405,10.8265247,6.3637557,-0.2537841,-17.3893127,-111.9236679,-250.1374054
7780,0.0383070,-0.1651991,10.0029240,-0.6412213,0.4503817,0.6106870,9.1266499,6.2033448,-0.4477134,-20.7938938,-118.5877838,-250.1374054
7790,0.0191535,-0.1604107,9.7706871,-0.8091603,-0.0763359,0.1679389,7.5273318,6.1482787,-0.7278336,-24.2137413,-126.2137375,-250.1374054
7800,-0.0143651,-0.1604107,9.9717989,-0.5801527,0.1374046,-0.0992366,6.0213866,5.9758968,-1.0151364,-30.1145039,-135.0763397,-250.1374054
7810,0.0215477,-0.1987177,9.9239149,-0.3053435,0.0687023,0.3511450,4.2137733,5.8466105,-1.0462608,-37.6335869,-139.7938995,-250.1374054
7820,0.1316804,-0.3064562,9.9981356,0.0610687,-0.8396947,-0.2748092,2.5306582,5.9902620,-0.5315101,-44.7557259,-145.2671814,-250.1374054
7830,-0.0119709,-0.1963235,9.7611103,-0.9312977,0.2442748,0.2061069,1.0127422,6.2057390,0.0718257,-49.3282433,-152.7709961,-250.1374054
7840,0.0766141,-0.1843526,9.9454632,-0.8396947,-0.0381679,0.5343512,-0.2226596,6.2224984,0.6320660,-50.9236641,-159.0610657,-250.1374054
7850,-0.0694315,-0.2106887,9.9047613,-1.0076336,0.0916031,-0.0076336,-1.4772149,6.3254485,1.1180865,-50.8549614,-162.4351196,-250.1374054
7860,0.0526722,-0.2059003,9.8640604,-0.4045801,0.1832061,-0.2595420,-2.2984219,6.4164276,1.0654143,-51.0610695,-162.8091583,-250.1374054
7870,0.0311245,-0.1651991,10.0292597,-0.6946565,-1.1755725,-0.2595420,-2.8442972,6.4188218,1.2090657,-51.7251892,-159.0381622,-250.1374054
7880,-0.0215477,-0.2513899,9.9047613,-0.7099237,-0.3435115,0.2366412,-3.7684543,6.1650376,1.3551112,-52.7938919,-148.7557220,-250.1374054
7890,0.0383070,-0.2250538,9.9957409,-0.6564885,-0.0839695,0.4427481,-6.0261750,5.8753409,1.0749911,-50.3129768,-121.9694672,-250.1374054
7900,0.0335187,-0.2202654,9.9933472,-0.7022901,-0.6412213,-0.1221374,-10.2303715,6.1530671,0.5746055,-42.3358765,-62.3206100,-231.5801544
7910,0.0742199,-0.2035061,9.9933472,-0.6412213,0.0534351,0.5572519,-15.1408539,7.2543941,0.1915352,-32.3282433,29.5801525,-170.7404633
7920,-0.1149211,-0.2059003,9.9885588,-0.8931298,0.3053435,0.2595420,-19.4695492,8.4059992,0.1987177,-27.4580154,128.0839691,-90.3435135
7930,0.0550664,-0.1747758,9.7802639,-0.8931298,-0.3053435,0.4122137,-19.6131992,9.2415714,0.4668669,-29.5801525,200.5572510,-3.9160306
7940,0.0215477,-0.1532281,9.9358864,-0.5038168,-0.4045801,0.1221374,-19.6131992,9.6605549,1.2880739,-33.6946564,230.5343475,71.9236679
7950,-0.0718257,-0.2274480,10.0340481,-0.5496183,-0.2977099,0.2595420,-19.6131992,9.2296000,2.4612267,-33.2213745,215.6564941,127.1221390
7960,0.0646431,-0.1580165,9.9310980,-0.7175573,-0.1908397,0.3206107,-19.3235035,9.4881725,3.2082138,-26.9694653,183.3816833,166.4427490
7970,0.0071826,-0.1508339,9.8425131,-0.8473282,-0.1297710,0.3435115,-17.2692890,8.2671366,4.0725164,-10.2671757,149.7022858,197.7404633
7980,-0.0287303,-0.1580165,9.9047613,-0.8473282,-0.1603053,0.3969466,-15.1408539,7.8146343,4.0030847,4.1832061,130.7022858,227.2595367
7990,0.0047884,-0.1316804,9.8688488,-0.7557252,0.0992366,0.4427481,-12.8951044,7.5297260,3.6128318,16.1068707,125.8854980,248.9389343
8000,0.0167593,-0.1915352,9.9191265,-0.5419847,-0.1374046,0.1755725,-10.7642756,7.1418672,2.7126167,23.4732819,119.5267181,250.1297760
8010,0.0287303,-0.2226596,9.9598284,-0.3816794,-0.2366412,0.4122137,-8.7675219,6.8904772,1.7453641,26.5419846,99.6106873,250.1297760
8020,0.0694315,-0.1795642,9.9981356,-0.6946565,-0.2290076,0.1526718,-5.4731169,6.4954362,0.6057299,24.1526718,58.8625946,250.1297760
8030,0.0478838,-0.2633608,9.8999729,-0.5190840,-0.1755725,0.3435115,-3.6271970,6.3637557,0.2394189,19.5190830,45.6488533,250.1297760
8040,0.1029501,-0.1795642,9.7228031,-0.5877863,-0.0534351,0.1221374,-1.6902977,5.9471664,-0.0837966,14.3587790,36.7099228,250.1297760
8050,0.0574605,-0.2274480,10.2016411,-0.6564885,-0.0076336,0.4503817,-0.1292862,5.6024032,-0.0909792,10.1297712,34.1450386,250.1297760
8060,-0.0191535,-0.1651991,9.8353300,-0.8167939,0.1145038,0.5648855,1.5322813,5.0732875,0.0933734,8.4274807,41.1679382,250.1297760
8070,0.0311245,-0.1556223,9.7898407,-0.7557252,-0.2366412,0.1450382,3.4979107,4.7093706,0.0000000,7.7633586,51.3511467,250.1297760
8080,0.0287303,-0.1771700,9.9191265,-0.5496183,-0.0381679,0.3969466,5.5018473,4.0318151,0.0622489,6.8396945,61.8931313,250.1297760
8090,0.0071826,-0.1508339,9.9310980,-0.5877863,0.0458015,0.7022901,9.7108326,3.8378856,-0.1795642,1.6335878,86.5419846,250.1297760
8100,0.0287303,-0.2202654,9.8951855,-0.6183206,-0.3587786,0.3206107,11.4107065,4.0126615,-0.3184272,-3.8931298,83.2824402,250.1297760
8110,0.0526722,-0.2035061,9.9789820,-0.5419847,-0.2137405,0.0916031,13.2398672,4.2927818,-0.3615226,-10.3358774,70.8854980,245.7862549
8120,0.0407012,-0.1580165,9.9167328,-0.7862595,-0.1984733,0.3206107,14.8343983,4.4771342,-0.2011119,-16.0763359,50.2213745,207.6412201
8130,0.0311245,-0.1915352,9.9478569,-0.6488550,-0.2824427,0.5038168,16.1871147,4.8625989,0.3567342,-20.5801525,30.5725193,164.2442780
8140,0.0359128,-0.2106887,9.9861641,-0.6488550,-0.3435115,0.3358779,17.2381649,5.0086441,0.6967092,-22.9770985,12.9923668,116.5038147
8150,0.0335187,-0.1867468,9.8808203,-0.6259542,-0.2137405,0.2213740,17.8702297,5.1810260,1.1396341,-22.6641216,-4.4274807,70.0763321
8160,0.0622489,-0.2178712,9.8832140,-0.6106870,-0.4045801,0.0916031,18.0258522,5.2791877,1.5227045,-19.5419846,-19.3969460,21.6946564
8170,0.0000000,-0.2394189,9.9670105,-0.5801527,-0.1221374,0.4503817,16.9388905,5.2935529,1.5658000,-15.6335878,-28.0916023,-22.6717548
8180,0.0335187,-0.2274480,10.0915089,-0.6183206,-0.1374046,0.2442748,15.6388454,5.4276276,1.5634058,-11.0610685,-28.7709923,-59.3587799
8190,0.0215477,-0.1843526,10.0101061,-0.5877863,-0.5114504,0.3053435,14.1281118,5.6574697,1.6495966,-4.9694657,-19.2977104,-90.0763321
8200,0.0095768,-0.1867468,9.8161764,-0.6259542,-0.0610687,0.3282443,13.1177645,5.6718349,1.7645177,1.4427481,-6.5343513,-110.9236679
8210,0.0263361,-0.1101327,9.8377247,-0.9007633,-0.0152672,0.1603053,12.6987810,5.9136481,1.7453641,9.1068707,-3.9541984,-130.3587799
8220,-0.0119709,-0.0933734,9.8808203,-0.6106870,0.2748092,0.0305344,11.8440552,5.8418221,1.4891858,18.6717548,-15.6412210,-154.1832123
8230,0.0981618,-0.1651991,9.9646168,-0.3664122,-0.0687023,-0.1221374,11.1449518,5.9998388,1.1300575,25.6106873,-31.9389305,-181.2900696
8240,-0.0526722,-0.2011119,10.1322098,-0.5648855,-0.1068702,0.3053435,10.2160063,5.9591374,0.7685348,26.4580154,-52.8931313,-207.9465637
8250,0.1125269,-0.2059003,9.8018112,-0.8931298,-0.1755725,-0.4809160,9.3660688,5.8561873,0.1412572,22.5190830,-76.1297684,-235.8244324
8260,-0.0598547,-0.1963235,9.8018112,-0.4809160,0.1145038,0.0076336,8.2982607,5.8657641,-0.2418131,15.1908398,-98.3816757,-250.1374054
8270,0.0646431,-0.2035061,9.9502516,-0.8854962,-0.3358779,0.3969466,7.0556765,5.6766233,-0.3423691,8.2366409,-121.5954208,-250.1374054
8280,0.0574605,-0.1675933,9.8880024,-0.5877863,0.1068702,0.3587786,5.9136481,5.5808558,-0.6799498,1.4045801,-145.6717529,-250.1374054
8290,0.1101327,-0.2274480,9.9382801,-0.7862595,-0.7099237,0.1908397,4.9368186,5.4060798,-0.6631905,-6.5114503,-170.9236603,-250.1374054
8300,0.0574605,-0.2011119,9.9095497,-0.7633588,0.2442748,0.4885496,3.8283088,5.2480631,-0.8259954,-16.6335869,-193.4045868,-250.1374054
8310,0.0095768,-0.2202654,9.9382801,-0.6030535,-0.1221374,0.1221374,2.5522060,4.9847026,-0.6296718,-28.5725193,-216.5114441,-250.1374054
8320,0.1053443,-0.1963235,9.9550400,-0.7633588,-0.5954198,0.3511450,1.4484847,4.7716198,-0.4189832,-40.0687027,-241.1526642,-250.1374054
8330,-0.0359128,-0.2082945,9.9478569,-0.7633588,0.2977099,0.3587786,0.1939293,4.4100971,0.5506636,-51.5648842,-250.1374054,-250.1374054
8340,0.0119709,-0.1819584,9.8616667,-0.6030535,-0.2748092,0.0229008,-0.9097920,4.0030847,1.9105632,-61.6335869,-250.1374054,-250.1374054
8350,0.0502780,-0.1628049,9.8329363,-0.5267175,-0.1603053,0.1603053,-1.9871773,3.4739690,3.4165084,-68.9542007,-250.1374054,-250.1374054
8360,0.0263361,-0.1556223,9.9837704,-0.8091603,-0.1984733,0.3511450,-4.4843168,2.5665710,4.7309184,-70.7786255,-250.1374054,-250.1374054
8370,0.0095768,-0.2082945,9.9526453,-0.5877863,-0.1908397,0.3664122,-8.8872309,2.3534882,4.8530221,-63.9083977,-250.1374054,-250.1374054
8380,-0.0311245,-0.1675933,9.8616667,-0.6793893,-0.1145038,0.2824427,-16.2589397,4.2784166,4.8195033,-46.3511467,-162.6335907,-250.1374054
8390,0.0359128,-0.1867468,9.8520899,-0.6106870,-0.3206107,0.1526718,-19.6131992,5.2983413,5.2360926,-21.5343513,-33.0076332,-233.2519073
8400,0.1675933,-0.1891410,9.8808203,-0.6412213,-0.3206107,0.0534351,-19.6131992,8.8968077,6.7300668,8.3435116,106.3511429,-116.3664093
8410,0.0407012,-0.1699875,9.9478569,-0.5725191,-0.6946565,0.0534351,-19.6131992,10.0651722,6.4834652,40.2366409,196.7862549,23.0076332
8420,-0.0095768,-0.1891410,9.8712435,-0.6564885,0.1221374,0.3740458,-19.6131992,8.9566631,4.8123207,61.7862587,223.8396912,157.0839691
8430,0.0454896,-0.2011119,9.8688488,-0.4885496,-0.3206107,0.2366412,-19.6131992,7.8625183,3.2584918,70.0000000,223.4961853,243.0381622
8440,0.0766141,-0.1077385,9.9095497,-0.6335878,-0.2748092,0.0076336,-14.6859579,7.8816719,2.4061604,71.2061081,231.2290039,250.1297760
8450,-0.0478838,-0.2274480,9.9574337,-0.5801527,-0.2519084,0.2061069,-12.0236197,7.4986014,0.8164186,67.7251892,220.1755676,250.1297760
8460,0.0335187,-0.1891410,9.9095497,-0.5267175,-0.3893130,0.3893130,-9.8161764,7.1011658,-0.9840119,61.8549614,179.6717529,250.1297760
8470,0.0885850,-0.1795642,9.8520899,-0.6030535,-0.0458015,0.3969466,-7.5943689,6.9335728,-1.8315549,53.8244286,137.4427490,250.1297760
8480,-0.0023942,-0.2154770,9.8736372,-0.7786260,-0.3206107,0.5801527,-5.6622581,7.2208753,-2.3726418,43.4961815,115.1068726,250.1297760
8490,-0.0359128,-0.1819584,9.8281479,-0.8931298,-0.0152672,0.3435115,-4.0054789,7.1490498,-2.1835008,34.9083977,102.4656525,250.1297760
8500,0.0454896,-0.2322364,9.9119444,-0.4885496,-0.0534351,0.1984733,-2.9951310,7.2472115,-2.0302727,22.1221371,91.8244247,250.1297760
8510,0.1053443,-0.2322364,9.9598284,-0.2137405,-0.5343512,0.1603053,-2.4540441,7.5823979,-1.4101776,10.0458012,82.8320618,250.1297760
8520,-0.0359128,-0.1795642,9.9119444,-0.8625954,0.0229008,0.3282443,-0.1340746,6.6055689,-0.2250538,3.6030533,64.7251892,250.1297760
8530,0.0526722,-0.1628049,9.8640604,-0.3358779,-0.4274809,-0.0610687,1.1563935,5.9758968,-0.1843526,8.5343513,56.4809151,250.1297760
8540,0.0574605,-0.2633608,9.9239149,-0.7938932,-0.0229008,0.0000000,2.7605004,5.1283536,-0.1723816,14.4503813,50.8854980,250.1297760
8550,-0.0071826,-0.2274480,9.9239149,-0.6412213,-0.0763359,0.5572519,5.3390427,4.5345950,0.0095768,17.0534344,56.7175560,250.1297760
8560,-0.0383070,-0.2106887,9.8712435,-0.6641222,-0.1145038,0.3969466,6.4331870,4.3382711,0.2753318,13.9160309,59.4122124,250.1297760
8570,0.0383070,-0.2035061,9.8473015,-0.5954198,-0.1450382,0.2366412,10.7714586,4.8697815,-0.1316804,6.1603055,28.4122143,240.4885559
8580,-0.0359128,-0.1053443,10.0005293,-0.4885496,0.2671756,0.4198473,11.9422169,4.6447277,-0.4596844,5.5801525,26.0229015,217.1297760
8590,0.1197095,-0.1939293,9.9215212,-0.7709923,-0.6412213,0.0458015,13.5535069,4.7692256,-1.1420283,4.1145039,30.2977104,193.8702240
8600,0.0574605,-0.2681492,10.1824875,-0.3816794,0.1450382,0.3129771,14.8607340,4.6997938,-1.5298871,2.8931298,33.9618340,168.8015289
8610,-0.0814024,-0.1460456,9.9191265,-0.5038168,0.0992366,0.3893130,16.1607780,4.6997938,-1.8722562,0.5190840,39.5267181,140.1450348
8620,0.0454896,-0.1484398,9.8784256,-0.7404580,-0.3969466,0.0534351,17.0657825,4.8937230,-2.1835008,-3.5801528,43.3816795,107.6641235
8630,0.0694315,-0.2106887,9.8808203,-0.9007633,-0.3587786,0.1221374,18.3466740,5.1594782,-2.0302727,-8.7709923,38.8702278,71.0000000
8640,0.0287303,-0.2322364,10.0388365,-0.4503817,-0.4122137,0.0610687,19.2253418,5.1092005,-1.7621235,-12.6183205,21.8396950,27.4198475
8650,0.0837966,-0.2035061,9.8616667,-0.7557252,-0.1068702,-0.1450382,19.6126022,5.3270717,-1.7094513,-13.6106873,-2.8167939,-19.1908398
8660,0.0119709,-0.2825144,9.8209648,-0.6641222,-0.0839695,0.3969466,19.6126022,5.4132624,-1.4820032,-14.7022905,-28.3816795,-68.5419846
8670,0.0742199,-0.1867468,9.8449068,-0.8244275,-0.0305344,0.3587786,19.6126022,5.4707227,-1.9105632,-18.6641216,-50.6412201,-119.1984711
8680,0.0215477,-0.2154770,9.7730818,-0.8167939,-0.1374046,0.2061069,19.0625362,5.4132624,-2.3582766,-25.8549614,-64.4885483,-169.2595367
8690,0.0359128,-0.1867468,9.8688488,-0.6946565,0.3129771,0.5038168,17.4153347,5.3055239,-2.7724714,-35.5572510,-84.5954208,-215.0229034
8700,-0.0119709,-0.2154770,9.8664551,-0.3969466,0.0305344,0.3969466,15.4209747,5.0541339,-2.7150109,-46.3893127,-106.5496216,-250.1374054
8710,0.0933734,-0.1867468,9.8880024,-0.5954198,-0.0687023,0.5267175,13.4050665,4.8027439,-2.5498118,-56.9389305,-124.6488571,-250.1374054
8720,0.0311245,-0.1675933,10.0029240,-0.6488550,-0.0839695,0.5877863,11.4011297,4.7716198,-2.3319404,-67.8167953,-143.6412201,-250.1374054
8730,0.0287303,-0.1963235,9.9191265,-0.7251908,-0.0458015,0.2671756,9.3780403,4.5250182,-1.9847831,-79.3969498,-157.2748108,-250.1374054
8740,0.0335187,-0.1388630,9.8449068,-0.7786260,-0.1450382,0.2290076,7.8577299,4.3215117,-1.3287752,-87.8625946,-157.4503784,-250.1374054
8750,0.0095768,-0.2609667,9.9909525,-0.5648855,0.0305344,0.4885496,6.0908179,4.0533628,-0.7134684,-93.5572510,-151.1374054,-250.1374054
8760,0.0718257,-0.2322364,9.9382801,-0.5725191,-0.3358779,0.5343512,4.5322008,4.0605454,-0.0885850,-97.0610657,-147.1908417,-250.1374054
8770,0.0718257,-0.1819584,9.8951855,-0.6259542,0.0458015,0.3282443,2.7868366,3.6678982,0.6320660,-97.5725174,-147.9236603,-250.1374054
8780,0.0095768,-0.2202654,9.9023676,-0.5496183,-0.4580153,0.2366412,1.4963684,3.3829896,1.5394639,-97.0000000,-150.4809113,-250.1374054
8790,0.0311245,-0.1819584,9.9143381,-0.5190840,-0.2213740,0.1984733,-0.0550664,2.9256995,2.2146254,-93.8244247,-150.1526642,-250.1374054
8800,0.0574605,-0.2106887,9.9670105,-0.6870229,-0.0839695,0.3664122,-3.5625539,2.0829449,3.3758070,-81.3053436,-130.9465637,-250.1374054
8810,0.0000000,-0.2226596,9.9167328,-0.7328244,-0.1526718,0.2137405,-9.4067707,2.8538737,4.3095412,-55.1832047,-73.4503784,-250.1374054
8820,-0.0119709,-0.2226596,9.9167328,-0.6717557,-0.3664122,0.3282443,-15.6627874,5.0589223,5.8681583,-19.0534344,20.4580154,-246.3664093
8830,0.0215477,-0.1819584,9.9933472,-0.5572519,0.1832061,0.4656489,-19.6131992,7.2639709,7.5273318,20.1679382,111.6106873,-151.6641235
8840,0.1077385,-0.1771700,9.9670105,-0.5343512,-0.1908397,0.4122137,-19.6131992,8.5376797,7.1562324,52.7862587,189.9465637,-52.1221390
8850,-0.0191535,-0.2489957,9.9119444,-0.7938932,0.0000000,0.4045801,-19.6131992,9.3133974,5.3510137,72.4427490,238.9847260,36.2748108
