timestamp,rxacclX,rxacclY,rxacclZ,rxgyroX,rxgyroY,rxgyroZ,txacclX,txacclY,txacclZ,txgyroX,txgyroY,txgyroZ
0,0.3758878,1.3215926,10.0077124,-1.0229008,-7.0076337,4.0610685,-0.8523315,1.9321109,10.5559816,-1.2900764,-1.2137405,-1.9465649
10,0.5386927,1.5681942,9.7587166,-2.1984732,-1.5267175,-1.4274809,-0.7086801,1.9536586,10.3955708,-3.8702290,0.0687023,0.2824427
20,-0.5027798,1.7621235,10.4314833,4.0381680,-11.9083967,-1.2061069,-0.9097920,1.6926919,10.5009146,-5.7786260,-5.1679387,-5.3511453
30,-0.8259954,1.6376256,10.6086531,9.0839691,-19.8320618,3.9236641,-0.8451489,1.7238164,10.4243011,-5.7862597,-5.3740458,-5.6106873
40,-0.7829000,1.7836711,10.6325951,15.5954199,-26.5801525,10.8778629,-0.8978211,1.7429699,10.4793673,-5.8320613,-4.3816795,-6.4122138
50,-0.4525018,1.9560528,10.4410601,22.2977104,-31.6564884,16.7633591,-0.9935886,1.7717001,10.4530315,-6.4351144,-4.4274807,-5.7328243
60,-0.1173153,2.2337787,9.8999729,26.5572510,-33.5801544,19.6259537,-1.0725969,1.7764885,10.4913378,-6.9389315,-4.6793895,-4.7480917
70,0.2298422,2.4109488,9.4307127,27.0229015,-33.5572510,19.7404575,-1.0558375,1.7669119,10.4362717,-6.8931298,-4.4961834,-3.4885497
80,0.3399749,2.5976956,8.8992023,24.1832066,-29.1755733,19.1908398,-0.9552816,1.7645177,10.6278067,-6.5419846,-3.7709923,-3.3511450
90,0.3064562,2.5115047,8.4945841,18.3435116,-22.3816795,19.4656487,-0.9217629,1.7429699,10.7546988,-5.9389315,-3.4656489,-2.7938931
100,0.3040621,2.5402350,8.4059992,10.1221371,-15.2671757,20.6946564,-0.7900825,1.7477583,10.6804790,-5.3129773,-3.5419848,-2.6717558
110,0.3878587,2.2481439,9.4762020,-14.9847326,7.3664122,26.0534344,-0.7086801,1.7669119,10.4434547,-4.2366414,-3.4274809,-4.7633586
120,0.4070122,2.1260402,9.7994175,-14.7709923,7.5419846,26.3053436,-0.6895266,1.7142396,10.4147243,-4.7175574,-3.0610688,-5.6183205
130,0.4596844,2.1356170,10.0077124,-12.8778629,6.3664122,26.5725193,-0.6751614,1.6208663,10.3548698,-5.4885497,-4.6488547,-5.1603055
140,0.5482694,2.0877333,10.1465750,-10.0992365,2.8931298,26.1450386,-0.5985473,1.3598996,10.4003592,-6.9923663,-5.7862597,-6.4656487
150,0.7062859,1.9919657,10.1513634,-7.3816795,-0.3664122,24.9618320,-0.5099624,1.1109039,10.3428984,-8.7328243,-5.3435116,-5.8320613
160,1.0271072,1.9871773,9.9981356,-4.7328243,-4.3435116,23.1755733,-0.4022238,1.1061156,10.5152798,-9.9847326,-5.3740458,-6.5343513
170,1.1755470,1.9129574,9.8688488,-2.5038168,-8.4351149,19.7480907,-0.3830703,1.2641320,10.5823174,-10.9083967,-5.1145039,-8.9770994
180,1.3814473,1.8938038,9.8736372,-1.2366412,-11.1450386,15.9770994,-0.5291159,1.5155219,10.5990763,-10.6335878,-5.5877862,-11.5648851
190,1.5490406,1.8842272,9.7922344,-0.3358779,-13.9465647,11.8778629,-0.8451489,1.6041069,10.7139978,-9.9236641,-5.3435116,-13.3282442
200,1.7573351,1.8076130,9.8233595,-0.1221374,-15.4885492,6.9236641,-0.9935886,1.7501525,10.6637201,-8.7633591,-5.5114503,-14.0229006
210,1.7693061,1.7501525,9.9239149,-0.1984733,-14.6717558,2.7862597,-1.0989330,1.8578910,10.6780853,-7.6641221,-4.1221375,-13.4122133
220,1.6831152,1.6352314,10.0723553,0.1679389,-12.6870232,-0.7786260,-1.1731528,1.8866212,10.4602137,-6.5725193,-2.0229008,-13.0992365
230,1.5969244,1.5777708,9.9837704,0.9236641,-9.4809160,-2.4503818,-1.2928623,1.9752063,10.2207947,-6.5801525,-1.9236641,-13.2671757
240,1.7717001,1.6783268,10.0436249,4.0381680,-3.5038168,-4.8244276,-1.1037214,1.6639616,9.9574337,-17.4656487,-2.6641221,-6.2824426
250,1.6783268,1.8985922,9.6294298,4.7557254,3.4351146,-8.5419846,0.0047884,1.4149660,10.1657286,-25.7022896,2.4427481,-4.5801525
260,1.5107336,2.0326669,9.4666252,3.4580152,5.4885497,-11.3129768,0.5889706,1.2832855,10.4027529,-28.4580154,8.3358774,-9.7175570
270,1.2354017,1.9440818,9.5480280,0.8396947,6.8320613,-13.3664122,0.7637464,1.0486550,10.3405046,-29.5801525,18.8931293,-17.4274807
280,0.8762733,1.8291607,9.7802639,-0.8549618,6.4198475,-14.1603050,0.6057299,1.0366840,10.6062593,-31.8702297,34.8167953,-24.7557259
290,0.5051740,1.8411317,10.0555954,-0.1832061,3.5725191,-12.6259546,0.3375807,0.6224893,10.2064295,-35.7328262,48.5954208,-31.5496178
300,0.2896969,1.8722562,10.1298151,2.3053436,0.2213740,-9.7022905,-0.0454896,0.5099624,10.1082678,-41.1984749,61.4122124,-40.3511467
310,0.2561783,2.0302727,10.1609402,5.5419846,-3.2366412,-6.8015265,-0.6057299,0.2801202,9.9382801,-47.4961815,72.7709961,-48.4045792
320,0.3160330,2.1547706,9.9406748,7.9465647,-5.6106873,-4.6946564,-1.2114599,0.3327923,10.0220766,-53.1221390,82.7480927,-58.1526718
330,0.2992737,2.2170193,9.6198530,9.4045801,-6.4351144,-3.2061069,-2.1739240,0.4620786,10.1465750,-58.7557259,90.6335907,-65.6717529
340,0.3064562,2.3606708,9.2750902,9.0916033,-6.7709923,-1.2671756,-3.4236910,0.7996593,10.3859940,-64.7709961,93.0152664,-69.8625946
350,0.3399749,2.3582766,9.2128410,6.9923663,-5.4885497,0.8473282,-5.3797436,1.2449785,11.0228481,-72.0076370,94.5419846,-66.4198456
360,0.2825144,2.3463056,9.1386213,3.3206108,-3.9770992,3.5343511,-7.6015515,1.4628497,11.6549139,-79.3053436,104.2442780,-46.0534363
370,0.4644727,2.3127871,9.2367830,-0.1450382,-2.5725191,5.4809160,-9.5264797,0.9026094,12.7275114,-85.9389343,131.2213745,-9.3358774
380,0.5961532,2.2385671,9.4115591,-2.3282442,-0.4503817,6.7862597,-11.6549139,-0.2346306,15.1264887,-86.4656525,161.0381622,33.4351158
390,0.6871324,2.2433555,9.6222477,-3.3358779,0.4656489,7.5572519,-12.9741125,-0.8307837,17.8199520,-80.9312973,179.8854980,76.1526718
400,0.7900825,2.1571648,9.7491398,-3.2595420,0.1755725,8.4274807,-13.5295649,-1.2665262,19.6126022,-68.9160309,203.1221313,118.2137375
410,0.8379663,2.1188576,9.8233595,-2.3282442,0.0305344,8.9007635,-13.4912577,-2.0613971,19.6126022,-46.9771004,225.1068726,156.0076294
420,0.9744351,2.1595588,9.8113880,-1.1068702,-0.8320611,8.9694653,-13.0459385,-3.3686244,19.6126022,-14.9312973,235.6335907,186.1679382
430,0.9600700,2.1284344,9.8257532,0.0381679,-1.0381680,9.0229006,-11.9350348,-4.0677280,19.6126022,27.5419846,227.9236603,202.8320618
440,1.0366840,2.0757623,9.8257532,0.7557252,-2.1755726,8.6564884,-11.1641054,-4.4196739,19.6126022,79.5038147,195.0076294,208.9313049
450,1.0893562,2.0590029,9.6844959,0.9541985,-1.9465649,8.0763359,-10.3045912,-4.6183915,19.6126022,132.6259613,155.6030579,208.9770966
460,1.2018831,2.0015423,9.6605549,0.5419847,-1.9007634,7.4503818,-9.3708572,-4.3406653,19.6126022,177.2595367,121.4580154,204.3740387
470,1.2569494,2.0374553,9.6102762,-0.0839695,-0.6106870,6.4427481,-8.7962523,-3.5529771,16.9197369,205.0610657,96.7709961,200.9541931
480,1.3598996,1.9823889,9.6437950,-0.4427481,-0.0916031,5.3664122,-9.0811605,-2.4109488,13.6277266,216.3053436,84.9618301,203.3435059
490,1.3982066,2.0039365,9.7587166,-0.4656489,0.2366412,3.6183207,-9.5240860,-1.7333932,11.1928358,215.5496216,79.4885483,216.5267181
500,1.4293311,1.9392935,9.7443514,-0.3969466,0.2671756,1.8244275,-9.1960821,-1.2354017,9.1098909,206.0381622,82.3893127,235.4809113
510,1.3575054,2.0398495,9.8209648,0.4045801,0.2595420,-0.2366412,-8.7962523,-0.6464311,8.3126259,193.1984711,94.3129807,250.1297760
520,1.3694763,2.0254843,9.7515335,0.4580153,0.4045801,-1.7175573,-8.7100611,-0.4860204,7.9678626,182.7786255,95.3969498,250.1297760
530,1.1875180,2.0398495,9.7682934,0.6641222,0.8473282,-2.7633588,-7.6326761,-0.7948709,7.3453732,176.6183167,87.6335907,250.1297760
540,1.1539993,2.0853391,9.7323799,0.9312977,1.1374046,-3.3740458,-6.1171541,-0.9409165,6.4140334,172.6335907,77.4732819,250.1297760
550,1.1037214,2.1356170,9.8209648,1.3816794,0.7786260,-3.9618320,-4.9966736,-0.9050036,4.9032998,166.9007568,74.2061081,250.1297760
560,1.0989330,2.1691356,9.6581602,2.0763359,0.6412213,-4.3358779,-4.6734576,-0.8906385,3.5362179,158.0534363,76.1374054,250.1297760
570,1.1276633,2.1978660,9.5695753,1.5954199,0.9389313,-5.2900763,-4.5729017,-0.7350162,2.1475880,144.3206177,88.1984711,250.1297760
580,1.1492109,2.1978660,9.6940727,1.2824427,1.6793894,-5.9236641,-3.2967989,-0.7493813,1.6208663,129.4732819,108.6946564,250.1297760
590,1.0773853,2.2337787,9.7060442,1.2671756,2.6793892,-6.5114503,-1.3000449,-1.0749911,1.7094513,116.9923630,146.8931274,250.1297760
600,1.0247130,2.2002602,9.6821022,1.6641221,3.8778627,-6.9847326,0.8116302,-1.1731528,2.3056045,107.9618301,194.1526642,250.1297760
610,0.9361281,2.2505381,9.5480280,1.6106870,4.0687022,-7.1603055,2.5378408,-1.4460905,3.4165084,100.8702316,234.9847260,250.1297760
620,1.2449785,2.1763182,9.3421268,-3.7786260,7.7480917,-9.3358774,7.0556765,-1.9776005,5.9567432,83.2061081,218.7404633,250.1297760
630,1.2904681,2.0805507,9.2655134,-6.1221375,8.6564884,-11.2824430,8.8824425,-2.3367288,5.2456689,78.3740463,187.3587799,250.1297760
640,1.2904681,2.0111191,9.4043760,-8.3435116,11.0305347,-13.3740454,10.9677820,-2.2960277,4.3933377,70.8320618,155.5190887,250.1297760
650,1.2042773,2.1164634,9.5336628,-11.0534353,15.0305347,-15.0610685,12.9525652,-1.7573351,3.5146701,57.1374054,124.9923630,250.1297760
660,0.9983770,1.8842272,9.6414013,-13.3969469,14.9160309,-15.3206110,14.7673607,-1.4676381,3.1052637,39.5114517,95.0152664,206.9770966
670,0.8619082,1.7549409,9.8018112,-12.2977095,12.4351149,-15.2213745,16.3786507,-0.8475431,3.1004753,23.0992374,62.5725174,145.9923706
680,0.7709290,1.7908537,9.7539282,-8.0534353,8.8320608,-14.5343513,18.0402184,-0.0670373,2.5378408,-0.8015267,16.1450386,13.7786255
690,0.7398046,1.8554969,9.7108326,-7.7557254,8.1374044,-14.8320608,18.4328651,0.1532281,2.1044924,-11.3282442,4.7786260,-55.4427490
700,0.4908088,1.7693061,9.8329363,-7.5114503,6.7938933,-13.7022905,18.9667683,-0.1604107,1.5897418,-24.6564884,-5.6641221,-124.4732819
710,0.3782819,1.8243724,9.9071560,-5.9618320,6.5954199,-11.9160309,18.9547977,-0.7014975,1.8602852,-38.9007645,-12.9389315,-196.5190887
720,0.2537841,1.8339491,10.0627785,-4.8625956,5.0916033,-10.4274807,18.3370972,-1.6759326,2.5617826,-48.9312973,-13.4503813,-250.1374054
730,0.1795642,1.9177457,10.0795374,-3.0076337,2.9007633,-9.9312973,17.0083218,-3.0118904,4.2305326,-49.9007645,-15.0305347,-250.1374054
740,0.0191535,1.8794388,10.0891142,-0.3969466,0.7557252,-7.7251906,15.3419657,-4.1227942,5.6694407,-44.3129768,-30.6412220,-250.1374054
750,-0.1173153,1.9560528,10.1058741,2.2366412,-1.4961832,-5.0305343,13.6253319,-5.3581958,6.8832946,-35.0916023,-55.4198456,-250.1374054
760,-0.0143651,2.1140692,9.9287033,3.7862597,-3.6412213,-2.7633588,11.5711174,-6.6797886,7.7667508,-23.2977104,-78.0076370,-250.1374054
770,0.0742199,2.2026544,9.5288744,4.4580154,-4.9770994,-0.9923664,9.1697454,-8.2551651,8.3102312,-12.4198475,-89.7557220,-250.1374054
780,0.1436514,2.2696917,9.4714136,3.6793892,-4.2977099,-0.5725191,5.0014620,-10.8169479,9.0213060,-2.3893130,-104.0916061,-250.1374054
790,0.2154770,2.3056045,9.3229742,2.2900763,-3.0992367,0.2748092,-2.5402350,-13.2255030,10.0316534,10.4198475,-164.7709961,-250.1374054
800,0.3758878,2.3199697,9.4833841,0.6564885,-1.5801526,0.9083970,-12.1050215,-14.7266598,9.6677370,14.7404585,-250.1374054,-250.1374054
810,0.4022238,2.2744799,9.5073261,-0.6412213,-1.1984733,0.6870229,-19.6131992,-14.0610743,6.9886389,-24.1297703,-250.1374054,-250.1374054
820,0.4333483,2.2074428,9.6581602,-1.2519084,-0.8778626,0.6564885,-19.6131992,-11.5926657,4.4843168,-126.2900772,-250.1374054,-250.1374054
830,0.5243275,2.0973101,9.7898407,-0.6946565,-0.9389313,0.6564885,-19.6131992,-6.9503322,7.9918046,-250.1374054,-250.1374054,-250.1374054
840,0.5339043,2.0901275,9.9717989,-0.0076336,-1.7938931,1.0992366,-19.6131992,-3.1100521,17.0729656,-250.1374054,-243.4503784,-250.1374054
850,0.5410868,2.0206959,9.9119444,2.0534351,-2.2442749,1.4809160,-19.6131992,-3.1411765,19.6126022,-247.3587799,30.1526718,-180.5190887
860,0.5243275,2.0230901,9.8640604,3.6030533,-3.6183207,1.7709924,-19.6131992,-3.0861101,19.6126022,-122.6564865,250.1297760,-11.0381680
870,0.6153067,2.0446377,9.6461897,4.3053436,-4.6412215,1.3893130,-19.6131992,-1.6352314,19.6126022,-3.4580152,250.1297760,77.4274826
880,0.7158626,2.0757623,9.5073261,4.2290077,-4.8549619,1.1068702,-19.6131992,0.0622489,19.6126022,75.5038147,250.1297760,108.2977066
890,0.8307837,2.1499822,9.5576038,3.3816793,-3.5877862,0.0763359,-19.6131992,0.8403605,19.6126022,139.9847260,250.1297760,107.4656525
900,0.9169745,2.1978660,9.5671806,2.1374047,-2.4198472,-1.0839695,-16.4480820,2.2505381,16.8311520,178.8244324,129.3282471,78.5419846
910,0.9576758,2.1427996,9.4809904,1.1603054,-0.5648855,-2.5343511,-11.8895445,3.9504125,12.5431585,191.9847260,7.3129773,30.8015270
920,0.9720409,2.1595588,9.4498653,-0.5572519,1.0839695,-3.8396947,-9.9119444,5.2863703,8.0851774,183.8625946,-50.0381660,-10.3664122
930,0.9121862,2.1284344,9.4977493,-1.5190840,2.3053436,-5.1068702,-10.2519188,5.4491754,3.6343796,165.6564941,-66.9770966,-31.2671757
940,0.9361281,2.0637913,9.6390066,-2.0687022,3.2519083,-5.8091602,-10.7762470,5.5305777,0.4548960,140.6488495,-67.1526718,-27.2442741
950,0.8547257,2.0302727,9.7587166,-2.3740458,3.4122138,-6.4580154,-10.1944590,5.9447722,-1.8746504,109.5648880,-61.8015251,-12.5496187
960,0.8403605,1.8339491,9.7994175,-0.1450382,1.0534351,-7.8931298,-5.0493455,5.0684991,-0.3591284,-29.7786255,-45.9083977,8.4274807
970,0.9504932,1.8770446,9.6964674,-0.7938932,0.9923664,-9.8625956,-3.6152260,3.7780309,2.8682389,-51.7938919,-32.7557259,-0.1297710
980,0.9385223,1.9368993,9.5695753,-1.5267175,1.6183206,-11.4809160,-3.1579359,3.1459649,3.9432299,-48.4809151,-20.4656487,-8.9770994
990,0.8571198,1.9081690,9.7012558,-2.2213740,1.7328244,-12.2900763,-2.9927368,2.7437410,4.6183915,-41.2366409,-3.6793892,-20.0381680
1000,0.6703730,1.9919657,9.8233595,-2.1755726,1.0610687,-13.1832066,-3.4093258,2.5569944,5.2336984,-32.3282433,17.4198475,-31.2977104
1010,0.6105183,1.9967541,9.8903971,-1.1297710,0.2595420,-13.3969469,-4.2616572,2.6000898,5.5688848,-23.0076332,33.4656487,-39.8473282
1020,0.4525018,2.0637913,9.9502516,0.5114504,-0.8473282,-13.2977095,-5.1618724,2.4755919,5.7915444,-14.8473282,41.9771004,-45.9771004
1030,0.4381367,2.1236460,9.8760319,2.2824428,-3.7175572,-12.9389315,-5.9471664,2.2960277,5.9304070,-8.2824430,42.6412201,-49.7633591
1040,0.4285599,2.2481439,9.7180147,3.4122138,-4.6259542,-12.6717558,-6.9144192,2.2337787,6.0429344,-4.5038166,34.3053436,-51.3511467
1050,0.4285599,2.2122312,9.6414013,3.6335878,-4.7938933,-12.6030531,-7.4195933,2.1571648,5.8992829,-4.0534353,19.5419846,-53.2900772
1060,0.3495516,2.2888451,9.4019823,1.7251909,-2.3129771,-11.7175570,-7.6230993,1.8147956,5.9495606,-12.5877867,-19.2213745,-55.3587799
1070,0.2442073,2.2936335,9.3947992,0.0534351,-1.3664122,-10.9541988,-7.6518297,1.8219782,6.0237808,-19.6030540,-37.4961815,-59.7251892
1080,0.2944853,2.1835008,9.5384512,-1.2824427,-0.1908397,-9.7938929,-7.6422529,1.7645177,6.1195483,-27.9007626,-53.2977104,-64.0916061
1090,0.2585725,2.1547706,9.5935173,-2.3282442,1.0839695,-9.1068707,-7.7404146,1.7118455,6.2392578,-36.0381660,-64.8854980,-68.0076370
1100,0.1915352,2.0757623,9.5743637,-2.7938931,1.4961832,-7.9389315,-8.0899658,1.6639616,6.3469963,-43.8015251,-75.4961853,-69.6564865
1110,0.2633608,2.0422437,9.6844959,-2.9007633,1.9160305,-6.5190840,-9.1865053,2.4660151,6.1291251,-64.9770966,-114.2748108,-77.5190811
1120,0.2920911,1.9799947,9.6844959,-2.8320611,1.8778626,-5.3129773,-10.8696203,2.1475880,7.2735476,-89.0152664,-150.1526642,-80.5954208
1130,0.3280039,1.9392935,9.8305416,-2.8015268,1.5343511,-4.6106873,-12.7682123,2.6623387,8.4874020,-104.5038147,-158.4961853,-71.6717529
1140,0.4501076,1.9129574,9.8401184,-2.1450381,0.5419847,-4.3206105,-13.3236647,2.2816625,9.6270361,-103.0152664,-136.9541931,-46.5572510
1150,0.5458752,1.9632354,9.8760319,-1.2061069,-0.0152672,-4.2977099,-13.0339670,1.2258250,10.0819321,-86.9236679,-126.5801544,-17.8396950
1160,0.6296718,1.9297167,9.9191265,-0.2366412,-0.4656489,-4.2671757,-10.3716288,0.4477134,10.4721851,-66.8625946,-130.4274750,3.1068702
1170,0.6416427,1.9201399,9.8496952,0.7404580,-1.4580153,-4.1679387,-7.2424231,0.4046180,10.4075413,-45.7862587,-136.5190887,5.1603055
1180,0.4908088,2.0374553,9.8329363,1.4198474,-1.6030535,-3.9465649,-4.5130472,0.6033357,9.8233595,-29.0916023,-144.8473358,-8.6335878
1190,0.4572902,2.0733681,9.5408449,1.2061069,-2.7480917,-3.8091602,-3.0621684,0.6871324,9.2966375,-20.0000000,-148.0763397,-30.3358784
1200,0.4932030,2.1308286,9.6366129,0.5801527,-2.3129771,-2.9465649,-2.4396791,0.6751614,8.5999289,-19.4732819,-144.5343475,-54.7862587
1210,0.4955972,2.1356170,9.5504217,-0.6106870,-0.7251908,-2.6335878,-2.9855542,0.7493813,8.1163025,-26.4503822,-119.0687027,-75.7709961
1220,0.3423691,2.1451938,9.5552101,-1.6793894,0.7328244,-1.8473282,-5.1331420,0.8643024,8.3772688,-33.6641235,-76.4809189,-85.6412201
1230,0.1867468,2.1356170,9.5384512,-2.2748091,0.3587786,-0.2137405,-8.2455883,0.7493813,9.2200232,-37.6412201,-42.7022896,-78.2366409
1240,0.4118006,2.1763182,9.6844959,-2.7328243,1.5648855,2.0000000,-10.5823174,0.7134684,10.2878323,-39.0610695,-20.2519093,-63.2442741
1250,0.5865764,2.1835008,9.6653433,-2.2137403,3.3816793,3.6259542,-12.2414904,0.6057299,11.5998478,-37.2595406,-10.6870232,-42.9541969
1260,0.7278336,2.1308286,9.7275915,-2.1450381,4.8702292,3.5496182,-13.4361916,0.3782819,12.8208847,-31.9465656,-16.8015270,-20.3358784
1270,0.7948709,2.2170193,9.7347746,-2.4580152,4.5572519,2.2748091,-13.5056229,-0.2442073,13.6540623,-24.0763359,-33.4656487,0.3587786
1280,0.7757174,2.1595588,9.6749191,-2.5114503,4.5496182,0.7480916,-13.0507269,-0.5434810,14.2693691,-13.4732828,-50.0916023,16.5496178
1290,0.6775556,2.0805507,9.7635050,-2.1755726,4.6488547,-0.9083970,-12.3061342,-0.7398046,14.5566721,-1.2900764,-53.3664131,31.8320618
1300,0.5674229,2.0350611,9.8137827,-2.1145039,4.7328243,-2.3664122,-11.8536320,-0.8690908,14.9134064,13.1297712,-41.7938919,47.1984749
1310,0.4572902,1.9967541,9.8449068,-1.1908396,2.1908398,-3.2824428,-11.8225079,-1.2162483,14.9876261,30.3206100,-24.8854961,63.4122124
1320,0.3926471,2.0422437,9.9382801,-0.0152672,0.0152672,-4.2671757,-12.1026278,-1.6065011,15.0809994,48.7480927,-5.8015265,81.6564865
1330,0.1580165,1.9584470,9.8113880,1.2748091,-0.0152672,-4.5267177,-12.4186611,-1.3024391,15.1169119,66.5419846,8.6183205,100.9083939
1340,0.1173153,1.9943599,9.7443514,1.6641221,0.1984733,-3.9618320,-12.8807392,-1.0007712,15.0139618,84.5114517,19.3740463,123.4656525
1350,0.1316804,2.0278785,9.6246414,1.1297710,-0.3511450,-2.7786260,-13.6732159,-0.6991033,14.9469252,103.7328262,28.2824421,150.8091583
1360,0.2011119,2.0135133,9.5097208,0.0381679,0.4122137,-1.8549619,-13.8048964,-0.5985473,14.3771076,122.7633591,37.5114517,184.6106873
1370,0.3399749,2.0302727,9.6270361,-0.9083970,1.2213740,-1.5725191,-13.2422619,-0.7230452,13.7522240,142.1297760,52.5648842,223.4656525
1380,0.5195391,2.0326669,9.6844959,-1.2442749,1.7404580,-2.0916030,-11.6525202,-1.3191984,12.9477768,161.3969421,74.7099228,250.1297760
1390,0.5578461,2.0087249,9.7922344,-1.1832061,1.3664122,-2.1145039,-10.1130562,-1.6424140,12.0667152,179.1145020,109.2824402,250.1297760
1400,0.5674229,2.0685797,9.7563219,-0.8473282,1.0992366,-2.6412213,-8.9710283,-1.8171898,11.2191715,193.4198456,149.0381622,250.1297760
1410,0.5722113,2.0949159,9.7156210,-0.7022901,0.4961832,-3.3129771,-7.9774394,-1.8339491,10.8696203,203.4427490,190.4961853,250.1297760
1420,0.6536137,2.0350611,9.8018112,-0.3816794,-0.4732825,-3.7175572,-7.0963774,-1.7980363,10.9653873,212.0152740,231.9541931,250.1297760
1430,0.5746055,1.9368993,9.7539282,-0.0916031,-1.5038168,-4.0305343,-6.3134775,-2.1667414,11.1545286,222.2061005,250.1297760,250.1297760
1440,0.6536137,2.0230901,9.6605549,0.2824427,-2.3206108,-4.0763359,-5.0517397,-2.9855542,10.5631638,237.9313049,250.1297760,250.1297760
1450,0.5722113,1.9704180,9.6797075,0.2595420,-2.0687022,-3.9465649,-2.6647329,-3.9240766,9.5935173,250.1297760,250.1297760,250.1297760
1460,0.4381367,1.9776005,9.8640604,0.0305344,-1.5114504,-3.4656489,0.8930327,-4.5681133,7.2304521,250.1297760,250.1297760,250.1297760
1470,0.4525018,2.0063307,9.7682934,0.3358779,-1.0916030,-2.7862597,4.9511838,-4.3454537,4.6112089,250.1297760,250.1297760,250.1297760
1480,0.3734936,1.9536586,9.7323799,0.5801527,-1.0458015,-2.0534351,8.1306677,-3.7900019,2.0613971,247.9084015,250.1297760,250.1297760
1490,0.4285599,2.0326669,9.7084379,0.9618320,-1.3969465,-1.7328244,9.2439651,-3.1986370,0.2657550,213.6946564,246.1297760,250.1297760
1500,0.3280039,2.0087249,9.7060442,1.5114504,-1.7404580,-1.7480916,9.6390066,-2.6767037,-0.3351865,173.3358765,240.4656525,250.1297760
1510,0.3327923,2.0135133,9.7251978,1.5648855,-2.4274809,-1.7099236,9.5935173,-2.1164634,-0.4429250,139.3282471,247.1145020,250.1297760
1520,0.2849085,2.1164634,9.6916790,2.1145039,-3.4580152,-1.4122137,9.2080526,-1.4413021,0.0359128,110.5648880,246.4580078,250.1297760
1530,0.3806761,2.2457497,9.5456333,1.5190840,-3.7022901,-1.0381680,9.3493099,-0.6847382,0.4046180,81.9770966,209.6564941,250.1297760
1540,0.3639168,2.2242019,9.5192976,1.0381680,-3.0381680,-0.6259542,11.1641054,-0.7948709,0.4548960,50.6106873,139.5801544,250.1297760
1550,0.3710994,2.2840567,9.4953556,0.1679389,-2.4122138,-0.2137405,14.7769375,-0.4429250,-0.4908088,15.3587790,42.8244286,198.6870270
1560,0.3639168,2.1691356,9.5360565,-0.5954198,-1.0000000,0.4122137,18.7153797,-0.6464311,-0.8403605,-17.9389305,-33.4503822,133.8320618
1570,0.3040621,2.1978660,9.5408449,-1.2977099,-0.1679389,0.8244275,19.6126022,0.3543400,-0.7374104,-45.1297722,-54.6488533,47.0534363
1580,0.3806761,2.1308286,9.5336628,-2.3587787,0.3740458,1.6030535,19.6126022,1.1516051,0.0000000,-59.1297722,-52.0610695,-45.4274826
1590,0.5051740,2.1140692,9.6390066,-2.9541984,1.2442749,1.4503816,19.6126022,1.5849534,0.6488253,-58.7404594,-32.3206100,-141.7404633
1600,0.5506636,2.0566087,9.7108326,-3.1450381,1.9007634,1.2900764,19.6126022,1.1468167,0.4884146,-50.4351158,-9.6030531,-241.7404633
1610,0.5769997,2.0063307,9.7299862,-2.8549619,1.8854961,0.9389313,19.6126022,-0.1867468,-0.1316804,-44.5572510,-2.0610688,-250.1374054
1620,0.5865764,2.0470319,9.7539282,-2.4503818,1.2824427,0.2595420,19.6126022,-2.2146254,-0.8762733,-47.0305328,-13.6335878,-250.1374054
1630,0.5865764,1.9799947,9.7754755,-2.1297710,0.8167939,-0.4198473,16.7617207,-5.0684991,-1.2042773,-57.9389305,-26.1603050,-250.1374054
1640,0.3878587,2.0374553,9.7922344,-1.8473282,0.1068702,-1.1145039,12.6604738,-8.4323349,-0.6775556,-76.5038147,-25.3282452,-250.1374054
1650,0.2489957,2.0781565,9.8832140,-1.1603054,-0.5801527,-1.0610687,7.7763271,-13.1560707,0.9696468,-97.4274826,-24.4045811,-250.1374054
1660,0.2059003,2.0685797,9.8065996,-0.5496183,-1.1221374,-0.7786260,0.6751614,-17.9252968,4.3861551,-108.7099228,-43.9847336,-250.1374054
1670,0.0814024,2.1260402,9.8664551,0.3587786,-1.7480916,0.4351145,-9.7395630,-19.6131992,7.9822278,-104.7251892,-91.1908417,-250.1374054
1680,0.1556223,2.1739240,9.7419567,1.0763359,-2.1145039,1.9312977,-19.6131992,-19.6131992,10.9055328,-92.7862625,-183.6106873,-250.1374054
1690,0.3734936,2.1595588,9.6988611,1.4351145,-1.9847329,2.7404580,-19.6131992,-14.6883526,12.4833040,-83.0000000,-250.1374054,-250.1374054
1700,0.5195391,2.1858950,9.5743637,1.0381680,-0.6335878,2.8931298,-19.6131992,-7.5033898,14.2454271,-88.1908417,-250.1374054,-250.1374054
1710,0.6009415,2.1236460,9.5935173,0.2977099,-0.2671756,2.1755726,-19.6131992,-4.6806402,14.7194767,-110.1603088,-250.1374054,-250.1374054
1720,0.7350162,2.0685797,9.5480280,-0.4427481,-0.2824427,1.1679389,-19.6131992,0.0790083,14.6452570,-118.2900772,-250.1374054,-250.1374054
1730,0.7110743,1.9943599,9.6366129,-1.0763359,-0.4351145,0.4274809,-19.6131992,0.2633608,14.3723192,-92.6183243,-250.1374054,-121.2595444
1740,0.5530578,1.9368993,9.8401184,-1.4198474,-0.4122137,-0.1145038,-19.6131992,-1.9105632,13.7665892,-41.8015251,-133.1374054,-5.6793895
1750,0.5147507,1.8363433,9.8616667,-1.3511450,-0.0534351,-0.2442748,-19.6131992,-2.5067163,12.9214401,19.4045811,95.8702316,89.6106873
1760,0.4572902,1.8507085,9.9981356,-0.2671756,-0.3969466,0.5038168,-18.7034073,-1.6615674,11.8679972,64.9236679,236.1984711,157.4351196
1770,0.4046180,1.9129574,10.0244713,0.9236641,-0.6030535,1.5267175,-14.5303354,-0.4644727,11.0013008,84.9923630,250.1297760,180.9694672
1780,0.3710994,2.0949159,9.8209648,2.0381680,-1.2900764,1.8931298,-11.1856527,0.9672526,10.2016411,85.1755753,225.3893127,166.9770966
1790,0.4405309,2.3032103,9.5671806,2.2137403,-1.5954199,1.0534351,-5.3366485,2.3343346,7.2783360,57.5267181,36.1603050,83.9160309
1800,0.3974355,2.3582766,9.5192976,1.5877863,-2.0916030,0.2519084,-3.8235207,2.4660151,5.6622581,43.1450386,-21.9541988,39.0458031
1810,0.3280039,2.3127871,9.4714136,0.9312977,-2.3664122,-0.2671756,-3.6128318,2.6934631,4.3981261,31.2900772,-46.5572510,6.5496182
1820,0.3639168,2.3606708,9.4857788,-0.1374046,-2.5190840,-0.6870229,-4.0629396,2.8395088,3.8211265,21.5038166,-48.4732819,-14.3893127
1830,0.3926471,2.2577207,9.4977493,-0.9770992,-1.7938931,-0.6564885,-4.7835903,2.9448531,3.9264708,14.4656487,-38.6946564,-25.8015270
1840,0.3256098,2.2361729,9.6461897,-1.7175573,-0.4885496,-0.2824427,-5.3366485,2.7892308,4.1706781,11.4274807,-31.4580154,-30.4961834
1850,0.3208214,2.0949159,9.8496952,-0.9618320,-0.3282443,1.3282443,-5.6646523,2.5354466,4.5202298,12.9847326,-21.1679382,-35.8015251
1860,0.8283895,2.0637913,9.4402885,-1.1984733,-0.1832061,1.9236641,-8.4131813,1.9273225,4.2185616,-0.5496183,-17.6641216,-53.8396950
1870,0.5051740,2.2242019,9.8377247,-1.8320611,0.7786260,0.1832061,-8.7220325,1.6615674,5.5425487,-11.4122133,-26.7099228,-35.9160309
1880,0.3782819,2.2625091,9.9119444,-0.6870229,-0.0992366,0.2442748,-8.5209198,1.5658000,5.6215568,-12.8320608,-28.7938938,-33.2137413
1890,0.3208214,2.3008161,9.8999729,0.5801527,-1.1297710,0.4122137,-8.2815018,1.4149660,5.7292953,-15.0992365,-31.3893127,-33.0763359
1900,0.2825144,2.3127871,9.7970228,1.5877863,-1.6106870,0.3129771,-10.7068148,1.9680238,5.8059096,-32.1526718,-87.8015289,-42.1603050
1910,0.1125269,2.2720859,9.6006994,1.6488550,-1.5725191,0.6564885,-13.5582952,2.6599445,6.6773944,-55.9236641,-105.4732819,-44.5267181
1920,0.2202654,2.2960277,9.5384512,1.0152671,-2.1908398,1.0381680,-13.3835192,1.7693061,7.6901364,-56.9312973,-93.5190811,-22.0381680
1930,0.5698171,2.1595588,9.6916790,-1.1908396,-0.6870229,1.8167939,-7.8505473,1.7309990,8.1881275,1.5496184,-12.3435116,16.1679382
1940,0.6368544,2.0590029,9.7611103,-0.9770992,-0.8702290,2.0152671,-7.1179252,1.7980363,7.5273318,12.5877867,-1.6793894,11.6870232
1950,0.7134684,2.0206959,9.7108326,-0.5419847,-0.5877863,2.0916030,-6.6582408,1.7621235,6.8401995,17.4274807,2.2595420,8.0305347
1960,0.7517755,1.9704180,9.7251978,-0.3816794,-0.1374046,2.0458016,-6.3637557,1.7214222,6.3565731,17.3816795,0.8854962,3.9465649
1970,0.8451489,1.9680238,9.6485834,-0.9160305,0.2900763,1.7862595,-6.2392578,1.6615674,5.9447722,14.2137403,-3.5572519,-3.6183207
1980,0.8858501,1.8770446,9.5815458,-2.2671757,4.0534353,2.1145039,-6.4786768,1.6950861,5.7221127,9.2137403,-8.3587790,-8.4732828
1990,0.7541697,1.8890154,9.6318245,-3.8320611,6.4427481,2.6641221,-6.9096308,1.6759326,5.6790175,2.9770992,-14.2519083,-11.4122133
2000,0.6967092,1.9871773,9.9047613,-3.8473282,10.0534353,2.4961832,-7.5249376,1.4820032,6.2272868,-4.8625956,-19.0076332,-10.8625956
2010,0.4955972,2.0183017,10.0891142,-2.9618320,12.4732828,2.2213740,-7.6997132,1.3000449,6.3661499,-5.8320613,-17.5801525,-9.0305347
2020,0.2873027,2.1188576,10.0172882,-1.8549619,12.5343513,2.5419848,-7.8313937,1.0797794,6.5624733,-6.0458016,-16.3816795,-7.3358779
2030,0.2082945,2.2864509,9.8377247,1.3129771,11.7709923,3.2595420,-7.8170285,1.0749911,7.0149751,-4.6335878,-11.2748089,-5.4656487
2040,0.0837966,2.3151813,9.6557665,2.8931298,9.8167934,2.8549619,-7.7164726,1.1851238,7.0125809,-2.2977099,-7.0763359,-5.4198475
2050,0.0167593,2.3103929,9.4067707,3.3740458,7.2290077,2.7175572,-7.6973190,1.2114599,7.1753860,1.7709924,-4.0458016,-4.6946564
2060,-0.0598547,2.4229198,9.1888990,3.0839694,4.1984735,3.0381680,-7.7332320,1.3120158,7.0939832,6.1450381,-3.1603053,-5.0152674
2070,0.0383070,2.3726418,9.1505919,0.9389313,2.0152671,3.4122138,-7.5823979,1.3503228,6.9311786,10.2519083,-3.2977099,-5.3282442
2080,0.0598547,2.4468615,9.0811605,-1.4732825,1.5419847,3.4885497,-7.3908629,1.3934183,6.6438756,12.8244276,-4.2213740,-7.2213740
2090,0.2944853,2.3391230,9.3445215,-3.7404580,2.5267177,3.9160306,-7.4411407,1.3168042,6.2727766,13.1755724,-1.6259542,-9.2061071
2100,0.3471575,2.2074428,9.5576038,-5.0000000,3.3282442,3.8396947,-7.7021074,1.3455344,6.2440462,11.9312973,0.5343512,-12.6641226
2110,0.3926471,2.1547706,9.7108326,-5.3969464,3.5343511,3.5114503,-7.9367380,1.4724265,6.2608056,10.3206110,0.6870229,-14.6106873
2120,0.3639168,2.1044924,9.8449068,-4.4427481,2.1679389,3.6564887,-8.3940287,1.3934183,6.4164276,9.8015270,-0.9312977,-17.7328243
2130,0.4548960,1.9440818,9.8209648,-3.3358779,0.8778626,3.3587787,-9.5097208,1.3742647,6.4236102,11.2824430,-2.3129771,-20.9389305
2140,0.5339043,1.8554969,9.9191265,-2.3053436,-0.6030535,3.2137403,-10.9127159,1.1061156,6.2320752,12.3969469,-7.8015265,-22.7099228
2150,0.5961532,1.8626794,9.8856087,-1.4122137,-1.6564885,3.0534351,-12.0691090,1.2737088,6.1434903,7.1221375,-10.9312973,-19.5038166
2160,0.7900825,1.7884595,9.7994175,-0.3358779,-0.9618320,1.9007634,-15.7705259,2.3295465,8.0325060,-25.4656487,-5.0534353,12.0305347
2170,0.8307837,1.8746504,9.7874460,-0.8702290,0.8167939,0.0000000,-18.4113178,1.1779412,11.3867655,-36.2137413,-3.2824428,63.6335869
2180,0.7110743,1.8794388,9.8736372,-0.5267175,1.3740458,-1.2366412,-18.6914368,0.6655847,12.4665442,-25.4122143,3.3893130,92.0000000
2190,0.5817881,1.9943599,9.9741936,0.1908397,1.0458015,-2.2824428,-18.3227310,0.3902529,13.1249466,-7.3053436,10.3435116,122.0687027
2200,0.5315101,2.0326669,9.8808203,1.4656489,0.7938932,-2.8625953,-17.3052006,0.0885850,13.5056229,15.2595415,16.9847336,148.0992432
2210,0.4788379,2.1667414,9.8616667,2.6030533,0.9618320,-3.2748091,-16.0051556,0.2681492,13.3069048,39.8320618,21.4045811,167.9160309
2220,0.4237715,2.1954718,9.8305416,3.3129771,0.7099237,-3.2137403,-14.5423069,0.2274480,12.3516235,61.8091621,20.4122143,182.0992432
2230,0.2202654,2.3486998,9.6366129,3.4885497,0.5954198,-3.2519083,-13.3930960,0.0215477,11.0731258,79.5343475,21.8854961,188.0229034
2240,0.1532281,2.3271523,9.4426832,3.1297710,-0.1832061,-2.9618320,-13.1848011,0.0287303,9.8161764,94.0687027,28.8091602,193.1374054
2250,0.2274480,2.4516499,9.2918491,1.9312977,0.1450382,-2.3511450,-13.5942078,0.5315101,8.6262646,105.1679382,43.5954208,202.6564941
2260,0.1771700,2.4037662,9.3708572,0.1832061,1.0381680,-2.0305343,-14.1999378,1.1659702,7.1155310,112.1374054,55.5267181,224.2900696
2270,0.2489957,2.4037662,9.1817169,-2.0305343,1.9770992,-1.6030535,-14.0419216,1.3383518,5.7508430,111.3969498,68.8625946,250.1297760
2280,0.2059003,2.1140692,9.5408449,-3.4809160,1.8854961,-1.3511450,-13.1632538,1.4173602,4.6040263,104.9389343,93.6717529,250.1297760
2290,0.2106887,2.1619530,9.6198530,-4.0000000,2.3206108,-0.7328244,-11.7937775,1.0342898,4.0030847,93.9770966,118.1068726,250.1297760
2300,0.2585725,2.0518203,9.7611103,-3.9923663,2.3740458,-0.3282443,-10.4865494,0.7589580,3.8259149,82.7786255,130.7557220,250.1297760
2310,0.2082945,2.0661855,9.9119444,-3.1908398,2.1984732,-0.2290076,-8.8034344,0.1532281,3.8522508,72.8244247,125.2977066,250.1297760
2320,0.1867468,1.9895715,9.9119444,-2.1679389,1.6793894,-0.0534351,-6.6175399,-0.3256098,3.7828193,64.2977066,114.7099228,250.1297760
2330,0.2298422,2.0973101,9.9191265,-1.0610687,0.9312977,-0.0916031,-4.5489597,-0.8092360,3.7660601,58.8244286,106.9694672,250.1297760
2340,0.1101327,2.1188576,9.7611103,-0.3740458,0.6412213,-0.2366412,-2.7652888,-0.9840119,3.8211265,55.3435097,103.5038147,250.1297760
2350,0.1197095,2.2098370,9.6940727,0.1755725,-0.2671756,-0.0152672,-1.2042773,-0.8882443,3.9982965,53.8778610,100.2824402,250.1297760
2360,0.0167593,2.2529323,9.6390066,0.3053435,-0.0687023,0.5954198,0.5027798,-0.8571198,3.8690102,53.9465637,96.7099228,250.1297760
2370,0.0143651,2.2792683,9.5480280,-0.0610687,1.4045801,1.4274809,2.2337787,-0.6320660,3.3183465,52.8854980,96.4274826,250.1297760
2380,0.1316804,2.2529323,9.6006994,-1.0610687,2.2595420,2.1755726,3.6702924,-0.5961532,2.6551561,49.3893127,93.3358765,250.1297760
2390,0.1651991,2.1787124,9.5767574,-1.6488550,2.3587787,2.6717558,5.0182209,-0.1867468,2.1619530,41.7938919,73.8396912,250.1297760
2400,0.2777260,2.0590029,9.6701307,-1.3511450,2.0305343,3.1755726,6.2464404,-0.0359128,1.1204807,29.8854961,43.2595406,250.1297760
2410,0.3064562,1.9847831,9.6437950,-1.4885496,1.0839695,3.5648854,7.5177550,0.0071826,-0.2370248,12.2442751,14.3664122,250.1297760
2420,0.4620786,1.8435259,9.7778702,-1.3282443,-0.1145038,3.5496182,8.4083929,-0.0814024,-1.3982066,-11.8702288,-0.0992366,235.5877838
2430,0.6464311,1.8052188,9.9622221,-0.7786260,-0.7709923,3.2824428,9.4211359,-0.0861908,-1.3144100,-32.5877876,-1.6183206,212.5343475
2440,0.7062859,1.7717001,10.0316534,-0.1450382,0.0458015,2.3664122,10.2136126,0.0742199,-0.9576758,-54.0305328,8.3587790,184.6946564
2450,0.4070122,2.0350611,9.7706871,2.3435113,-0.0534351,0.4961832,11.8560257,0.2489957,2.9496415,-75.9694672,6.5038166,103.8244247
2460,0.0718257,2.4971397,9.3493099,-0.3969466,-0.3282443,-1.1603054,19.6126022,0.6679789,3.7923961,-57.3816795,-12.2366409,-106.5801544
2470,-0.0239419,2.5378408,9.3852224,-1.7557251,-0.6641222,-1.2900764,19.6126022,0.4333483,4.4029145,-49.0228996,14.6870232,-187.6259613
2480,-0.1173153,2.4516499,9.5288744,-2.2824428,-1.4732825,-1.7328244,19.6126022,0.0167593,5.1570840,-36.4045792,40.1450386,-250.1374054
2490,-0.1197095,2.3894010,9.6653433,-2.0458016,-1.6183206,-0.7557252,19.6126022,-0.9792235,6.1027889,-22.0610695,52.1603050,-250.1374054
2500,-0.1101327,2.3079987,9.8329363,-1.1984733,-0.9083970,0.3511450,19.6126022,-3.0430148,7.1873569,-6.6717558,44.6183205,-250.1374054
2510,0.0047884,2.1140692,9.7898407,-0.6106870,-0.2519084,1.7404580,18.1455612,-6.6726060,8.3605099,11.7022905,21.6641216,-250.1374054
2520,0.0502780,1.9752063,9.8233595,-0.4427481,0.1908397,3.0000000,13.0650921,-11.7267399,8.6693602,30.8091602,-3.0000000,-250.1374054
2530,0.1867468,1.8866212,9.8042059,0.1526718,-0.3358779,4.1221375,5.6574697,-19.0218353,8.2312231,53.4503822,-23.3740463,-250.1374054
2540,0.3639168,1.8387375,9.7802639,0.7786260,-1.0458015,4.5877862,-3.5242469,-19.6131992,7.3525558,75.8854980,-55.7175560,-250.1374054
2550,0.5243275,1.8243724,9.8425131,1.3816794,-1.8015267,4.9160304,-13.9461536,-19.6131992,6.3781209,90.9923630,-108.1984711,-250.1374054
2560,0.6344602,1.7980363,9.7132263,0.8549618,-2.4732823,4.9007635,-19.6131992,-19.6131992,5.5114241,78.5114517,-136.1297760,-250.1374054
2570,0.8547257,1.8076130,9.5815458,0.0992366,-2.0916030,4.5496182,-19.6131992,-19.6131992,6.5385313,52.2213745,-124.4351120,-250.1374054
2580,1.0223188,1.9368993,9.6940727,-0.9007633,-0.9007633,3.3053436,-19.6131992,-9.2679071,8.9542685,32.1603050,-117.5648880,-250.1374054
2590,0.9911944,1.9129574,9.6006994,-1.8931298,0.6717557,1.8015267,-19.6131992,1.3359578,10.2974091,1.7557251,-141.5877838,-250.1374054
2600,0.8906385,2.0709739,9.7371683,-2.3587787,1.4732825,0.1068702,-19.6131992,3.1483591,10.3261395,-11.4732828,-201.2519073,-120.8778610
2610,0.7948709,2.0781565,9.7706871,-2.3511450,1.3664122,-1.5496184,-19.6131992,2.0781565,9.0404596,9.7022905,-138.9541931,111.4503784
2620,0.6057299,2.1188576,9.6821022,-1.8473282,1.5572519,-2.3282442,-19.6131992,-1.7597293,6.5672617,30.3587780,21.7251911,207.7862549
2630,0.3710994,2.2385671,9.7012558,-1.4122137,1.8320611,-2.9923663,-12.7299051,-2.8586621,5.5569139,37.3129768,184.4351196,231.4274750
2640,0.2825144,2.2289903,9.7180147,-1.5877863,2.5954199,-2.8320611,-7.1682034,-1.7788827,6.0812411,38.9541969,250.1297760,202.9236603
2650,0.0981618,2.3295465,9.7946291,-1.7328244,3.4274809,-2.7328243,-5.8585815,-0.0095768,6.9455438,42.4427490,229.0763397,140.2595367
2660,-0.0718257,2.2481439,9.8161764,-1.1832061,3.9236641,-2.1145039,-6.7803445,2.2601149,7.2328463,44.3053436,122.5572510,66.8244247
2670,-0.1987177,2.3175755,9.6509781,-0.6793893,4.3587785,-1.4427481,-8.0875721,4.0868812,6.5576849,36.7786255,0.9083970,9.4961834
2680,-0.4141948,2.2481439,9.5576038,-0.9083970,5.1908398,0.2977099,-8.7914639,4.7668314,5.1187773,23.4885502,-88.6259537,-20.2900772
2690,-0.3375807,2.2337787,9.4546537,-1.5190840,5.2290077,1.7557251,-8.7076674,4.5657191,4.1036406,12.7557249,-129.1297760,-27.9770985
2700,-0.2322364,2.2577207,9.4977493,-2.5954199,6.6106873,2.9541984,-8.0253229,4.1563129,3.5888901,8.3587790,-134.8167877,-26.7862587
2710,-0.2561783,2.1715298,9.5671806,-3.9694657,9.4732828,5.3358779,-7.2591825,3.5841017,3.1723011,8.3282442,-120.1908417,-23.5648861
2720,-0.1987177,2.1068866,9.6868906,-5.6030536,15.2061071,8.2519083,-6.7540083,3.1986370,2.8586621,10.1679392,-90.3664093,-18.8473282
2730,-0.1532281,1.9368993,9.7012558,-9.1755724,27.6183205,13.4961834,-6.6199336,2.9161227,2.6551561,10.3511448,-59.5801544,-12.4961834
2740,-0.3710994,1.6256547,9.9717989,-14.5419846,47.0992355,22.4503822,-6.2224984,2.6910689,2.7796540,8.3129768,-35.1832047,-8.8549614
2750,-0.1101327,1.6591733,10.0699606,-18.3816795,64.4580154,29.7709923,-5.8490047,2.4516499,2.9376705,5.6488547,-16.9465656,-8.7404585
2760,-0.0071826,1.8004304,10.0627785,-19.1374054,72.0152664,30.3206100,-5.7269011,2.1787124,3.2393384,3.1068702,-5.7633586,-12.3129768
2770,-0.0861908,1.8914096,9.9358864,-16.5343513,66.0381699,27.1603050,-5.7460546,2.1930776,3.4045374,-0.0229008,-5.2900763,-17.7938938
2780,-0.1651991,1.7333932,9.7299862,-11.2137403,50.2824440,23.3206100,-5.8513989,1.9512644,3.6750808,-4.3893127,-12.5343513,-25.6335869
2790,-0.1891410,1.6879035,9.6366129,-6.4351144,32.2595406,20.1297703,-6.1554613,1.7333932,4.0006905,-9.1755724,-24.5038166,-33.6412201
2800,-0.1771700,1.8507085,9.3708572,-3.1297710,13.0839691,16.7938938,-6.3733325,1.6424140,4.3406653,-12.8396950,-37.7786255,-40.1908379
2810,0.1101327,1.9919657,9.1434097,-2.1832061,-1.4656489,12.7022905,-6.6342988,1.4269369,4.7620430,-14.3358774,-46.7480927,-46.9389305
2820,0.3232156,2.1044924,9.1553802,-3.9541984,-7.2977099,8.2900763,-6.9144192,1.2545552,5.0469513,-14.0000000,-51.9236641,-50.0992355
2830,0.4668669,2.1236460,9.4235296,-5.6030536,-6.1068702,3.2137403,-7.1562324,1.1539993,5.2097564,-12.5267172,-50.4732819,-51.7175560
2840,0.4955972,2.1930776,9.6677370,-7.0000000,-0.6870229,-0.7786260,-7.7068958,1.0917504,5.4300218,-10.6335878,-45.6870232,-52.0076332
2850,0.1915352,2.1858950,9.9119444,-7.4656487,4.5190840,-4.3129773,-8.2360115,1.0869620,5.2767935,-9.1679392,-40.0000000,-48.3129768
2860,-0.1651991,2.0949159,10.0532017,-5.4351144,5.9007635,-6.2748094,-8.6358414,1.1109039,5.3510137,-10.3129768,-37.9236641,-42.8167953
2870,-0.3543400,2.2026544,10.1274214,-2.3587787,3.2748091,-7.0305343,-12.5862541,2.2122312,5.7125359,-34.8702278,-103.8549652,-53.4351158
2880,-0.4572902,2.1212518,9.8712435,1.7480916,-2.2213740,-8.0839691,-15.4137917,2.5976956,6.4020624,-63.4580154,-118.9007645,-41.7938919
2890,-0.3950413,2.1427996,9.6916790,4.9083967,-7.3129773,-9.7709923,-14.5087881,1.2689204,6.9623032,-67.9770966,-106.0610657,-6.7557254
2900,-0.6464311,2.1308286,9.4187412,4.8931298,-11.2061071,-10.4045801,-11.5854826,0.7972651,7.6853480,-53.5343513,-62.9618340,20.9389305
2910,-0.7206510,2.0159075,9.2726955,3.0458016,-13.0763359,-10.2137403,-8.7028790,1.2042773,8.0899658,-31.2900772,-25.2519093,31.4885502
2920,-0.7924767,1.9297167,9.4019823,1.1068702,-14.3587790,-9.0534353,-7.0628591,1.5658000,7.8457589,-14.0076332,-12.2595415,28.3358784
2930,-0.7134684,1.9057748,9.3828287,0.0229008,-14.2137403,-7.1984735,-6.1243367,1.6735384,7.3884687,-5.3129773,-7.4885497,19.4351139
2940,-0.6033357,1.7980363,9.6126709,-1.8473282,-11.1526718,-5.1221375,-5.8394279,1.6424140,7.0197635,-2.2290077,-7.4809160,10.4351149
2950,-0.4620786,1.6950861,9.8425131,-3.5038168,-7.1526718,-2.9083970,-5.7652082,1.5442522,6.8258343,-2.4274809,-13.3358774,1.9236641
2960,-0.3280039,1.6615674,9.9358864,-4.5419846,-3.0381680,-1.2137405,-5.9423780,1.4197544,6.6007805,-4.0305343,-18.7022896,-7.6564884
2970,-0.1077385,1.5921360,10.0962973,-3.8702290,-1.5419847,-0.7022901,-6.4930420,1.4077834,6.7635851,-4.7862597,-18.8167934,-15.6870232
2980,-0.0047884,1.6041069,10.0819321,-1.5801526,-1.9770992,-1.0000000,-7.2879128,1.3670821,6.9000540,-3.1603053,-14.2137403,-19.2977104
2990,-0.0478838,1.6208663,10.0244713,0.4809160,-3.2519083,-1.5954199,-7.8792777,1.3407460,7.0149751,0.1908397,-7.9694657,-19.3740463
3000,-0.0263361,1.6088953,9.8736372,1.4045801,-3.5267177,-1.1603054,-8.1761570,1.3503228,7.1490498,4.6488547,1.3740458,-18.2671757
3010,0.0095768,1.7070571,9.8113880,1.3206106,-3.0534351,-1.6106870,-8.1426382,1.2641320,7.1586266,9.9083967,10.1297712,-16.3740463
3020,-0.0670373,1.8052188,9.6677370,1.4961832,-0.4885496,-3.1679389,-7.7068958,1.0414724,6.9862447,19.1374054,21.5801525,-21.4198475
3030,-0.1819584,1.9249283,9.7443514,1.9312977,-1.2977099,-3.3587787,-7.7547798,0.9457048,6.8306227,21.6488552,26.5725193,-28.0839691
3040,-0.2011119,1.9847831,9.6773138,1.9694656,-3.0076337,-3.3511450,-8.2575598,0.5410868,6.6893654,23.8931293,34.2519073,-36.3206100
3050,-0.1675933,2.1380112,9.6437950,2.0305343,-4.1145039,-3.5954199,-9.4283180,0.1963235,6.7252784,24.1374054,37.5954208,-46.1908379
3060,-0.2298422,2.1356170,9.5504217,2.0076337,-3.6335878,-3.8015268,-11.4083128,0.2609667,7.0484939,19.6030540,33.7404594,-54.6717567
3070,-0.2442073,2.1260402,9.5001440,1.1526718,-3.6870229,-4.0305343,-14.7625723,0.6344602,7.5895805,10.7480917,14.1450386,-59.7938919
3080,-0.3710994,2.1284344,9.3971939,0.0992366,-4.2213740,-3.4885497,-18.4448357,1.4173602,8.0133524,-2.1832061,-7.8854961,-54.4122124
3090,-0.4405309,2.0422437,9.4043760,-0.7557252,-3.8778627,-3.0534351,-19.6131992,2.0230901,8.9111729,-14.9160309,-25.2061062,-28.8931293
3100,-0.5195391,2.0590029,9.4666252,-2.3969467,-2.5038168,-2.4885497,-19.6131992,1.9871773,9.7012558,-23.3206100,-40.7404594,25.0229015
3110,-0.5219333,1.9297167,9.5599985,-3.0610688,-2.1145039,-1.7404580,-19.6131992,1.1372399,10.6541433,-22.7557259,-51.2442741,89.6717529
3120,-0.6153067,1.9321109,9.7108326,-3.3893130,-0.8320611,-1.0000000,-19.6131992,0.2968795,11.2143831,-10.0076332,-41.6793900,141.6183167
3130,-0.6751614,1.9392935,9.7730818,-3.1755726,-1.1068702,-0.3511450,-19.6131992,-0.2537841,11.3676119,11.3129768,-16.1908398,178.3587799
3140,-0.7398046,1.9632354,9.8736372,-1.8778626,-1.6717557,0.2366412,-18.8877602,-0.1532281,11.0515785,34.8778610,11.9083967,210.3740387
3150,-0.7469871,1.9536586,9.9215212,-0.7404580,-2.1526718,1.6946565,-18.7488976,-0.1268920,10.1537571,53.7709923,31.4809170,243.3511505
3160,-0.7374104,2.0230901,9.8209648,0.5954198,-2.5419848,3.3435113,-17.6116581,-0.3303981,9.0165176,64.6564865,47.2442741,250.1297760
3170,-0.6703730,2.0566087,9.6916790,1.2442749,-2.8091602,4.9923663,-16.2589397,-0.3830703,8.0301113,66.8625946,63.4656487,250.1297760
3180,-0.5243275,2.0350611,9.6485834,1.8015267,-2.8167939,6.3435116,-15.0331154,-0.7685348,7.1825686,66.0381699,69.8167953,250.1297760
3190,-0.2561783,2.0135133,9.4067707,1.3358779,-2.3740458,6.9465647,-13.3500004,-1.4748207,6.1841912,63.3358765,79.8167953,250.1297760
3200,-0.1268920,1.9871773,9.4043760,0.1374046,-2.5877862,6.7328243,-11.0036945,-1.9416877,5.2600341,59.3435097,102.1679382,250.1297760
3210,0.1125269,1.9249283,9.5408449,-1.3816794,-2.4045801,6.2748094,-9.0045462,-2.0973101,4.1563129,52.2290077,126.5038147,250.1297760
3220,0.2322364,1.8267666,9.5671806,-2.7786260,-2.0076337,5.6870227,-7.1514440,-2.0422437,3.6439564,40.8396950,143.0000000,250.1297760
3230,0.3567342,1.7309990,9.8065996,-3.3740458,-1.5725191,4.8091602,-5.5712790,-2.0805507,3.3255291,25.9083977,149.3282471,250.1297760
3240,0.4237715,1.5921360,9.9837704,-2.8778627,-1.3358779,3.2519083,-3.8211265,-2.4157372,3.3231349,10.5343513,147.3206177,250.1297760
3250,0.3495516,1.5825592,10.1633339,-1.3664122,-0.8015267,1.6412214,-2.0422437,-2.5641768,3.8426740,-2.5267177,135.4503784,250.1297760
3260,0.2896969,1.5634058,10.0795374,-0.1755725,-0.2748092,0.5496183,-0.5315101,-2.8131726,4.3646073,-10.8167934,117.1679382,250.1297760
3270,0.2298422,1.7142396,10.0053177,1.0305344,0.5954198,-0.6870229,1.2713146,-2.7964132,5.0086441,-12.9389315,94.7404556,250.1297760
3280,-0.2920911,2.0661855,9.6198530,2.1603053,0.6641222,-2.4351146,5.5233951,-1.7932479,4.5250182,3.3664122,15.2519083,250.1297760
3290,-0.2801202,2.2289903,9.5288744,1.0229008,-0.0458015,-3.2824428,8.8034344,-1.8195840,1.6304430,-1.7480916,-43.5343513,250.1297760
3300,-0.4548960,2.1978660,9.5240860,0.4656489,-0.1145038,-3.1297710,10.2375546,-1.2162483,0.6224893,-14.0305347,-51.0458031,239.9770966
3310,-0.4525018,2.1116750,9.5671806,-0.0305344,-0.1068702,-2.4656489,10.7570934,-2.0470319,-0.1149211,-30.6412220,-53.5877876,202.1526642
3320,-0.4501076,2.0350611,9.5432396,-0.5648855,0.1679389,-1.4961832,12.4497852,-1.4317253,-0.4405309,-42.3893127,-38.0381660,160.4198456
3330,-0.2633608,1.8961980,9.6653433,-0.9312977,0.3893130,-0.8091603,9.4570484,-1.4796091,-0.8259954,-50.4351158,-15.1679392,122.0381699
3340,-0.2082945,1.8531027,9.6533718,-1.2061069,0.6106870,-0.2671756,11.1904411,0.4716553,0.4237715,-55.7633591,-21.0458012,98.4656525
3350,-0.1149211,1.8004304,9.7874460,-1.1068702,-0.0381679,-0.1297710,14.6763811,1.2856797,0.2801202,-61.2595406,-31.7786255,58.7175560
3360,-0.0670373,1.6879035,9.8377247,-0.9694657,-0.9083970,0.1374046,16.7042599,1.3934183,0.1268920,-83.0534363,-17.5267181,4.6564884
3370,0.0383070,1.7166338,9.8209648,-0.7862595,-1.4198474,0.2213740,17.9683914,2.8251436,2.9927368,-104.3664093,-10.3587790,-51.7251892
3380,0.0143651,1.6950861,9.8449068,-0.7633588,-1.2442749,-0.1450382,18.8590298,3.2584918,5.5186067,-109.2671738,-0.3969466,-111.4809189
3390,0.0000000,1.7573351,9.7898407,-0.5114504,-0.5190840,-0.2595420,19.6126022,2.6886747,7.9654684,-92.9618301,20.9847336,-181.6564941
3400,-0.1316804,1.7309990,9.8760319,-0.4274809,0.2595420,0.0229008,19.6126022,1.6160779,8.9183559,-62.1603050,46.8473282,-250.1374054
3410,-0.1053443,1.8243724,9.7611103,-0.2900763,0.1145038,0.3587786,19.6126022,1.0007712,9.9287033,-29.2137413,52.6793900,-250.1374054
3420,-0.2011119,1.8818330,9.6797075,0.2519084,-0.2824427,0.6641222,18.6914368,-1.2138541,10.2614956,3.4885497,44.0687027,-250.1374054
3430,-0.2250538,1.9799947,9.6414013,0.6717557,-0.8854962,0.9236641,15.7920732,-4.5130472,9.5456333,33.5038185,29.3816795,-250.1374054
3440,-0.2633608,2.0518203,9.6437950,0.3511450,-0.4961832,1.1374046,12.0116482,-8.6118994,8.3054428,58.2824440,16.6183205,-250.1374054
3450,-0.2513899,2.1499822,9.6078825,-0.4045801,0.2213740,0.8854962,7.6829538,-13.0986109,6.9814563,78.6259537,7.6183205,-250.1374054
3460,-0.3830703,2.2098370,9.5623922,-1.1832061,1.6259542,0.6106870,1.7980363,-18.2030220,5.6742291,97.2442780,-8.3053436,-250.1374054
3470,-0.5698171,2.1212518,9.6222477,-1.4732825,1.5877863,1.0687023,-6.7396431,-19.6131992,3.7181761,109.6183243,-62.7404594,-250.1374054
3480,-0.4908088,2.1140692,9.6581602,-1.0992366,0.9694657,1.0687023,-17.8079815,-19.6131992,2.4516499,99.2900772,-182.3358765,-250.1374054
3490,-0.5913648,2.1044924,9.7994175,0.1297710,-1.1603054,1.4732825,-19.6131992,-19.6131992,1.1899122,41.5648842,-250.1374054,-250.1374054
3500,-0.5458752,2.0494261,9.7132263,0.8091603,-3.0229008,3.0076337,-19.6131992,-13.2231083,2.3271523,-73.3511429,-250.1374054,-250.1374054
3510,-0.4453192,2.0159075,9.7012558,0.7938932,-2.3969467,4.3587785,-19.6131992,-2.6479735,7.2496057,-197.2671814,-250.1374054,-250.1374054
3520,-0.2753318,2.0063307,9.5528164,-0.7557252,-0.5267175,5.1755724,-19.6131992,0.3830703,14.3483772,-250.1374054,-250.1374054,-250.1374054
3530,-0.0526722,1.8938038,9.6270361,-1.2213740,1.5190840,4.4961834,-19.6131992,-2.2265961,19.6126022,-247.0152740,-250.1374054,-65.9007645
3540,-0.0766141,1.9009864,9.7012558,-1.9160305,1.4732825,4.1145039,-19.6131992,-4.0629396,19.6126022,-130.1297760,-12.1374044,143.1984711
3550,0.0502780,1.8507085,9.6629486,-1.7480916,-0.1908397,4.3129773,-19.6131992,-4.3813667,19.6126022,11.3206110,250.1297760,250.1297760
3560,0.1987177,1.8818330,9.6414013,-2.1068702,-1.6870229,3.4809160,-14.8032732,-4.3933377,19.6126022,94.2442780,250.1297760,250.1297760
3570,0.3519458,1.8076130,9.7658987,-2.2061069,-1.8244275,2.1221373,-8.8225880,-3.1723011,15.8447456,118.1603088,250.1297760,250.1297760
3580,0.4333483,1.8076130,9.9478569,-1.2442749,-1.6564885,0.1297710,-6.6438756,-1.4556671,13.8695393,114.0305328,250.1297760,234.9007568
3590,0.2250538,1.7908537,9.8520899,-0.7786260,-0.2977099,-0.9618320,-5.2935529,0.1125269,11.5711174,104.5725174,217.1145020,148.1984711
3600,0.2082945,1.7836711,9.7898407,-1.1679389,0.7251908,-1.7099236,-3.7516949,1.3239868,8.9087791,91.9312973,37.0992355,67.6183243
3610,0.0478838,1.7333932,9.8209648,-0.8396947,1.8015267,-2.1603053,-2.8275378,2.2744799,6.6414814,75.2137375,-76.3358765,7.3435116
3620,-0.1197095,1.8459201,9.8377247,-0.8778626,2.8244274,-2.3206108,-2.5929072,2.8514795,4.8961172,57.3969460,-129.7633514,-33.6641235
3630,-0.2226596,1.8028246,9.7132263,-1.4961832,3.2290077,-2.7557251,-2.8538737,2.9807658,4.1778607,43.0305328,-134.0229034,-56.9847336
3640,-0.2825144,1.9009864,9.6533718,-1.6488550,3.5419848,-2.6641221,-3.4093258,2.8826041,3.7516949,33.0534363,-117.6793900,-69.3740463
3650,-0.3184272,2.0135133,9.7874460,-1.4656489,3.1450381,-3.2519083,-3.9168940,2.5809362,3.8809812,26.1221371,-101.5877838,-76.2748108
3660,-0.4189832,1.9440818,9.8496952,-0.0916031,1.7099236,-3.3587787,-4.3023586,2.3510940,4.1778607,20.8091602,-91.9312973,-82.8549652
3670,-0.4788379,2.0566087,9.8137827,1.4198474,0.7786260,-2.9083970,-5.0254035,2.2936335,4.2855992,17.5725193,-83.4656525,-87.0229034
3680,-0.4860204,2.0973101,9.8065996,2.7328243,0.0229008,-2.3664122,-5.7412663,2.1332228,4.4077029,16.0076332,-71.3435135,-86.0763321
3690,-0.5482694,2.1691356,9.7371683,3.1450381,0.0534351,-1.4809160,-6.3469963,2.0422437,4.6303625,16.0992374,-55.1374054,-80.3129807
3700,-0.5650287,2.1236460,9.5480280,3.2595420,-0.0763359,-0.9465649,-6.7085190,1.9345051,4.8218975,17.8931293,-37.8931313,-72.8473282
3710,-0.4429250,2.0997043,9.5623922,2.6106870,-0.9541985,-0.2442748,-6.9694853,1.7645177,4.9583664,19.6793900,-21.6564884,-64.4351120
3720,-0.0526722,2.0039365,9.6126709,-0.8396947,0.1984733,0.3816794,-7.4794478,1.1851238,5.0301919,20.5038166,5.2671757,-48.1908379
3730,-0.0646431,1.7788827,9.8161764,-0.0992366,-0.4809160,-0.3435115,-8.3748751,1.0654143,5.0780759,-1.8549619,-23.0687027,-40.6259537
3740,-0.0407012,1.7525467,9.8640604,0.6717557,-0.6488550,-0.0992366,-8.2144642,1.1851238,5.4419928,-9.3664122,-28.0152664,-39.9160309
3750,-0.0837966,1.7309990,9.7635050,1.2671756,-1.6793894,-0.1603053,-8.2407999,1.2425843,5.6263452,-16.1603050,-32.4656487,-38.9312973
3760,-0.1915352,1.8076130,9.6892843,1.6488550,-4.7328243,0.0229008,-8.1019373,1.2138541,6.1410961,-20.5725193,-33.4274826,-38.5038185
3770,-0.2489957,1.9105632,9.6533718,1.9465649,-9.0076332,0.7938932,-8.0109577,1.2162483,6.7013364,-21.8091602,-32.4732819,-38.3282433
3780,0.0047884,1.9321109,9.5791521,2.0229008,-10.7175570,0.4351145,-7.9008250,1.0941446,7.1658092,-20.0534344,-30.0381680,-38.4351158
3790,-0.0742199,1.9871773,9.4977493,1.5038168,-8.8091602,-0.5114504,-7.8337879,0.9600700,7.3166428,-16.7938938,-27.1908398,-39.2595406
3800,-0.0742199,2.0422437,9.4283180,-0.7022901,-5.9923663,-0.6641222,-7.9343438,1.0462608,7.5009956,-12.5725193,-22.4198475,-40.0763359
3810,-0.0023942,2.0470319,9.4331064,-2.6106870,-3.4427481,-0.8244275,-8.5735922,0.7374104,7.4291697,-11.1832066,-33.3511467,-41.8549614
3820,-0.0598547,2.0039365,9.6461897,-4.0152674,-1.4885496,-0.7175573,-11.0803089,1.6639616,7.3836803,-26.8625946,-72.0381699,-55.3206100
3830,-0.0790083,1.9153515,9.7251978,-4.2137403,-0.0687023,-0.2671756,-13.5439301,1.5634058,7.7906923,-38.3435097,-90.2824402,-43.8320618
3840,-0.1268920,1.9536586,9.7251978,-4.6793895,0.6183206,-0.1297710,-13.0531206,1.0223188,8.2072811,-33.8549614,-74.8473282,-19.0839691
3850,-0.1292862,1.9632354,9.7012558,-4.4198475,0.4122137,0.1984733,-11.6740675,0.9840119,8.3389616,-20.3206100,-41.1526718,0.9389313
3860,-0.2873027,1.9560528,9.9334917,-2.7786260,0.5343512,0.9312977,-8.3557215,1.0893562,7.9798336,4.1374044,0.2519084,15.1221371
3870,-0.3280039,2.0781565,9.8975792,-2.1908398,-0.1526718,1.3053435,-7.0197635,1.0342898,7.6111283,8.3816795,7.1374044,12.9618320
3880,-0.3710994,2.1451938,9.9023676,-0.3435115,-0.4198473,1.7099236,-6.2296810,0.8140244,7.3022780,9.2977095,16.0687027,6.2900763
3890,-0.4453192,2.1547706,9.8712435,0.9541985,-0.7404580,2.7862597,-6.2919297,0.6512195,7.2376347,8.5190840,22.9923668,-4.3282442
3900,-0.4548960,2.1571648,9.7132263,1.6030535,0.0916031,3.3740458,-7.0939832,0.4812321,7.3046722,7.3740458,28.8702297,-13.5648851
3910,-0.4429250,2.1523764,9.5288744,1.5267175,0.9541985,3.9923663,-8.8441362,0.0574605,7.2424231,3.1145039,32.4045792,-20.1679382
3920,-0.3399749,2.1044924,9.5025377,0.4961832,1.6030535,4.5954199,-11.1329813,-0.4213773,7.5057840,-4.9541984,31.9312973,-22.1603050
3930,-0.1292862,1.9464760,9.4953556,-0.8091603,1.1603054,4.5954199,-13.8647509,-0.6440369,8.5352850,-15.5267172,25.3664131,-17.0610695
3940,0.1125269,1.8818330,9.6437950,-1.9923664,0.9312977,3.4885497,-16.9101601,-0.6823440,9.6485834,-25.5648861,16.9465656,-1.5343511
3950,0.2920911,1.7956421,9.8018112,-1.8854961,-0.0152672,2.1984732,-19.6131992,-0.5650287,11.2287483,-30.5496178,3.9923663,27.1068707
3960,0.3639168,1.6663558,9.9813757,-1.5725191,-1.5725191,0.9389313,-19.6131992,-0.7254394,12.6724443,-26.7709923,-17.8167934,66.2900772
3970,0.4094064,1.7094513,9.9406748,-0.2824427,-2.7480917,-0.8549618,-19.6131992,-1.0725969,13.7091284,-12.7022905,-40.4045792,106.4274826
3980,0.3806761,1.7094513,9.9789820,0.4045801,-2.6564887,-2.2595420,-19.4815197,-1.5250987,14.0634689,8.4503813,-52.9007645,138.6793823
3990,0.1891410,1.8554969,9.9071560,1.3511450,-1.1679389,-3.0381680,-18.2221756,-1.8698620,13.9724894,32.2824440,-44.6335869,166.1450348
4000,0.0885850,1.9799947,9.9334917,1.7786260,-0.0152672,-3.9160306,-17.6355991,-2.0590029,13.5080166,54.0610695,-16.1755733,197.6870270
4010,-0.0646431,2.1212518,9.8640604,2.6030533,0.7862595,-4.1145039,-17.1830978,-2.1332228,12.8328552,75.0152664,26.7862587,233.9236603
4020,-0.2585725,2.2313845,9.6701307,2.9618320,1.8167939,-4.6259542,-16.4935703,-1.7597293,12.0619268,92.6793900,79.2061081,250.1297760
4030,-0.3687052,2.2864509,9.3852224,2.7328243,1.5572519,-4.5648856,-16.2421818,-1.2737088,11.1904411,107.6641235,112.0992355,250.1297760
4040,-0.5219333,2.3654592,9.2631187,1.8549619,0.1984733,-4.4961834,-15.7441902,-1.3311694,10.1681223,117.7099228,124.8091583,250.1297760
4050,-0.5817881,2.2792683,9.2703018,0.6717557,-0.1145038,-4.0534353,-14.5111818,-1.5825592,8.7316093,122.2900772,123.0381699,250.1297760
4060,-0.6009415,2.1763182,9.3421268,-0.9770992,0.2137405,-2.8854961,-11.9589767,-1.8147956,7.2615767,121.1984711,118.7099228,250.1297760
4070,-0.5123565,2.0613971,9.4857788,-2.9694657,1.3511450,-1.2900764,-9.5504217,-2.0039365,6.2129216,116.7328262,112.0381699,250.1297760
4080,-0.4596844,1.9823889,9.6653433,-3.4427481,1.5190840,-0.0687023,-7.1801744,-1.7621235,5.0924411,110.7099228,106.7404556,250.1297760
4090,-0.3327923,1.8076130,9.8233595,-3.0000000,0.6717557,0.8625954,-5.1522956,-1.5179161,3.6846576,102.1908417,106.3664093,250.1297760
4100,-0.0861908,1.6759326,9.9622221,-2.1755726,-0.3740458,1.4198474,-4.0198441,-1.3096216,2.8203552,89.4503784,109.1832047,250.1297760
4110,0.0478838,1.5897418,9.9717989,-0.9389313,-1.4274809,1.5038168,-2.3199697,-1.3455344,1.9799947,75.4961853,106.6717529,250.1297760
4120,0.2082945,1.5466464,9.9646168,-0.1068702,-2.1526718,1.5877863,-1.1731528,-1.5945302,1.6448082,61.6870232,107.7862625,250.1297760
4130,0.2274480,1.6256547,9.9550400,0.5954198,-1.6412214,1.5419847,-0.3040621,-1.9584470,1.5705882,51.5190849,106.7404556,250.1297760
4140,0.4046180,1.6926919,9.8257532,0.8015267,-1.1297710,1.0916030,0.1340746,-2.0183017,1.4125718,43.2213745,98.1832047,250.1297760
4150,0.3088504,1.8243724,9.7946291,0.5496183,-0.4427481,0.1068702,0.6727672,-2.3391230,1.2042773,34.3282433,85.8473282,250.1297760
4160,-0.4118006,2.2218077,9.6150646,-0.1679389,0.1145038,-0.3358779,12.6006193,-2.3223639,1.4293311,-5.0458016,-23.3358784,250.1297760
4170,-0.4644727,2.2601149,9.5480280,-0.6412213,-0.6106870,0.3587786,15.7417955,-1.0941446,0.1604107,-7.2213740,-24.3053436,240.3282471
4180,-0.5291159,2.1571648,9.5695753,-1.1755725,-0.8778626,0.8854962,17.7577038,-0.0622489,-1.7309990,-15.8015270,2.1297710,180.2671814
4190,-0.5339043,2.0853391,9.4522600,-1.5419847,-0.1984733,1.4732825,18.7680511,1.1851238,-3.2896163,-30.6183205,58.0305328,116.9007645
4200,-0.6105183,2.1308286,9.5743637,-2.0152671,0.1755725,2.0687022,18.1024666,2.3271523,-3.7828193,-51.9923668,112.6870193,51.8091621
4210,-0.6105183,2.0470319,9.5599985,-2.4732823,0.0992366,3.1450381,16.7401733,3.1627243,-4.2927818,-84.4656525,131.7480927,-13.8625956
4220,-0.5578461,1.9153515,9.7251978,-2.4351146,-0.3816794,4.5343513,14.9014349,2.3630650,-2.6790979,-125.2900772,107.7862625,-69.7404556
4230,-0.3232156,1.9416877,9.7563219,-2.5954199,-1.3511450,5.0687022,14.7913027,1.2521610,-0.8092360,-166.8396912,60.9923668,-137.8091583
4240,-0.0718257,1.8507085,9.8712435,-1.6030535,-1.3206106,4.6946564,13.8455973,0.2801202,2.3319404,-198.4045868,7.3664122,-195.3816833
4250,0.0335187,1.8698620,9.7850523,-1.1145039,-1.1832061,3.8778627,13.5487185,-0.2609667,5.7771792,-207.1755676,-26.5343513,-244.2366486
4260,0.1149211,1.9057748,9.9047613,-0.6412213,-1.3511450,3.2748091,13.4577389,-0.5506636,8.8249826,-192.0152740,-22.9007626,-250.1374054
4270,0.2346306,1.9201399,9.7682934,-0.1068702,-1.2977099,2.5114503,13.4505568,-0.2178712,12.0068598,-153.1908417,1.6412214,-250.1374054
4280,0.2370248,1.9512644,9.7539282,0.2977099,-0.9618320,1.5648855,14.1736012,-0.1867468,13.8647509,-100.9389343,13.0076332,-250.1374054
4290,0.2418131,1.9823889,9.7347746,-0.1221374,-0.2366412,0.7404580,14.5447006,-0.3663110,13.7306767,-47.6412201,25.7251911,-250.1374054
4300,0.1915352,1.9847831,9.7084379,-0.2977099,0.8244275,-0.0992366,14.2669754,-1.6998745,12.5814657,1.0152671,33.6793900,-250.1374054
4310,0.1005560,1.9967541,9.7850523,-0.2977099,0.4274809,-0.7099237,13.9605188,-3.9528067,10.8504667,42.0000000,41.4656487,-250.1374054
4320,0.1005560,1.9177457,9.7850523,-0.0305344,0.2137405,-1.4809160,12.4880924,-8.2192526,8.1091194,73.5114517,47.8396950,-250.1374054
4330,0.0861908,1.9464760,9.7132263,0.2671756,0.1221374,-2.1297710,8.7794924,-13.7498302,5.2863703,98.3511429,54.9465637,-250.1374054
4340,-0.0574605,1.9416877,9.7467451,0.3511450,0.2137405,-2.4427481,1.9033806,-19.6131992,2.9065459,115.5648880,35.3358765,-250.1374054
4350,-0.1675933,1.9416877,9.7491398,0.2137405,-0.0992366,-2.4122138,-7.4243813,-19.6131992,0.9241571,107.5496216,-42.9847336,-250.1374054
4360,-0.1340746,1.9368993,9.7491398,0.4809160,0.1755725,-2.0687022,-17.9037495,-19.6131992,-0.1436514,59.9007645,-140.6793823,-250.1374054
4370,-0.1340746,1.9368993,9.6557665,0.2900763,0.1603053,-2.2977099,-19.6131992,-19.6131992,2.1906834,-22.2671757,-202.5038147,-250.1374054
4380,-0.1101327,1.9321109,9.5288744,-0.1832061,-0.0152672,-2.4503818,-19.6131992,-13.2135315,7.3525558,-112.7633591,-250.1374054,-250.1374054
4390,-0.1651991,1.9368993,9.6126709,-0.8244275,0.1297710,-2.9923663,-19.6131992,-1.4772149,13.8791161,-192.6488495,-250.1374054,-250.1374054
4400,-0.1388630,1.9560528,9.7802639,-1.0763359,0.2519084,-2.7633588,-19.6131992,-1.0462608,19.6126022,-204.1450348,-250.1374054,-131.9770966
4410,-0.1197095,1.9943599,9.8496952,-0.4427481,0.4580153,-2.9160306,-19.6131992,-3.5553713,19.6126022,-127.6946564,-176.4580078,89.0076370
4420,-0.1747758,2.0111191,9.8209648,0.8778626,0.1450382,-3.0381680,-19.6131992,-5.3270717,19.6126022,-7.9389315,72.8702316,208.9007568
4430,-0.2250538,2.1044924,9.7611103,1.7251909,-0.3816794,-2.7099237,-13.1728306,-5.0517397,17.7505207,88.8702316,250.1297760,250.1297760
4440,-0.3351865,2.0925217,9.7299862,1.9465649,-0.6870229,-2.3664122,-7.9678626,-2.9328821,14.4106264,129.2137451,250.1297760,250.1297760
4450,-0.1699875,1.9728121,9.6126709,2.8396947,-1.7175573,-1.8625954,-5.5521255,-0.5291159,12.6461086,136.8549652,250.1297760,206.4961853
4460,-0.4094064,2.0829449,9.4211359,2.3664122,-0.4045801,-1.0687023,-5.1451130,0.8307837,11.1138277,133.7633514,239.2137451,129.1603088
4470,-0.3447633,2.1475880,9.4283180,0.9770992,-1.8396946,-0.1374046,-4.7764082,1.9057748,8.2934723,126.3282471,66.0000000,48.6564903
4480,-0.2609667,2.0135133,9.4690189,-0.5877863,-1.1755725,0.6412213,-4.8290801,2.8754215,5.5856438,111.9694672,-56.9083977,-12.7328243
4490,-0.2346306,2.0254843,9.4522600,-1.4122137,-0.9389313,1.4656489,-5.4491754,3.4883339,3.7229645,92.2137375,-122.7175598,-50.0610695
4500,-0.1747758,1.9464760,9.6030941,-2.1603053,-1.2900764,1.8396946,-6.1530671,3.7852135,2.3822186,70.1984711,-144.4503784,-67.3816757
4510,-0.0287303,1.8770446,9.5576038,-2.5267177,-1.6717557,2.1984732,-6.6941538,3.6631098,1.8602852,51.5648842,-140.2442780,-70.2290039
4520,0.0239419,1.9560528,9.7347746,-2.8702290,-1.2748091,2.2748091,-6.9575148,3.3542595,1.6735384,35.6183205,-125.7786255,-66.1984711
4530,0.0718257,1.8507085,9.7084379,-2.8778627,-0.5190840,2.0152671,-6.9670911,3.1100521,1.7453641,22.7099228,-108.0839691,-62.3206100
4540,-0.0287303,1.8914096,9.8377247,-2.7022901,-0.2061069,1.6335878,-7.1418672,2.9041519,2.2409613,12.0687027,-91.1145020,-55.5954208
4550,-0.0478838,1.8914096,9.8209648,-2.4809160,-0.8549618,1.6488550,-7.4195933,2.5976956,2.6360025,4.2061067,-69.6335907,-47.3435097
4560,-0.1316804,1.8411317,9.7539282,-2.2748091,-1.5496184,2.2061069,-7.6350703,2.3367288,3.2967989,0.1603053,-45.3511467,-36.7099228
4570,-0.0933734,1.9392935,9.7850523,-2.3664122,-2.2519083,2.3664122,-7.7428088,2.0254843,3.9216824,-1.5114504,-24.6946564,-26.1679382
4580,-0.1723816,1.9943599,9.8544836,-2.1755726,-1.4961832,2.0076337,-7.7835097,1.6926919,4.1682839,-1.9007634,-10.0916033,-19.1374054
4590,-0.2705434,2.0446377,9.9215212,-0.9770992,-1.2137405,2.1068702,-7.9008250,1.2784972,4.2855992,-3.4351146,-3.5877862,-14.2442751
4600,-0.5123565,2.2672975,9.7611103,1.6412214,-0.9923664,3.5343511,-8.0923605,0.7110743,4.8745699,-13.1526718,-11.0000000,-12.8549614
4610,-0.4812321,2.3103929,9.5647869,2.2519083,-0.7328244,4.4885497,-7.9511032,0.6009415,5.5233951,-18.2137413,-20.3893127,-12.8015270
4620,-0.4309541,2.2672975,9.4402885,1.8549619,-0.9694657,5.2595420,-7.8002691,0.4237715,5.9471664,-21.0000000,-29.2748089,-14.4427481
4630,-0.2202654,2.1882892,9.3157911,0.2900763,-0.9007633,5.9312978,-7.4938130,0.4237715,6.3709383,-21.4732819,-36.3435097,-16.4198475
4640,0.0790083,2.1164634,9.3229742,-1.6183206,-0.4274809,5.7633586,-7.3190370,0.4884146,6.7827387,-19.9694653,-40.7709923,-18.4580154
4650,0.2011119,2.0470319,9.5025377,-3.1679389,-0.1068702,4.7557254,-7.0963774,0.5410868,7.1897511,-16.9847336,-42.3587799,-19.4045811
4660,0.3184272,1.9081690,9.6533718,-3.9923663,-0.6412213,3.1068702,-6.6175399,0.4812321,7.3429790,-12.1221371,-40.0916023,-22.4274807
4670,0.4141948,1.7142396,9.8353300,-4.0763359,-1.6793894,1.7175573,-6.3350253,0.6081241,7.2424231,-6.3206105,-33.6946564,-26.4885502
4680,0.3806761,1.6735384,9.9622221,-3.1984732,-4.8091602,0.3587786,-6.3493905,0.7637464,7.1897511,-1.7480916,-25.1526718,-29.0000000
4690,0.4620786,1.5179161,10.1657286,-1.7328244,-4.2900763,-0.8396947,-6.4667058,0.8906385,7.1418672,1.2671756,-16.4656487,-30.3282452
4700,0.3591284,1.6112895,10.2279778,0.2290076,-2.1984732,-1.4656489,-6.5313487,0.8882443,7.1275020,3.4503818,-10.5190840,-31.4274807
4710,0.1244979,1.9033806,9.9717989,2.4351146,0.5343512,-3.0763359,-6.6414814,1.0342898,7.0868006,6.4961834,-5.5419846,-35.5419846
4720,-0.0454896,2.1164634,9.8185711,3.0916030,1.3129771,-3.6335878,-6.7444315,0.9409165,7.1610208,7.1374044,-7.7099237,-38.1374054
4730,-0.2705434,2.3103929,9.4738073,3.2290077,0.4809160,-4.7328243,-8.5759869,0.7421987,7.1490498,-8.4503813,-45.2900772,-57.9007645
4740,-0.4764437,2.4181314,9.2990322,2.3282442,-0.4045801,-4.8091602,-9.7611103,0.4620786,7.7787213,-14.0152674,-55.2977104,-58.6717567
4750,-0.4884146,2.3917952,9.3469152,1.4274809,-0.5190840,-4.0534353,-10.1226330,0.1963235,8.4371233,-12.8015270,-48.3587799,-54.6641235
4760,-0.5243275,2.3223639,9.3684635,0.3511450,-0.9694657,-3.4656489,-10.7044210,0.1891410,9.1793222,-6.2595420,-26.4274807,-47.3206100
4770,-0.4764437,2.2409613,9.3373384,-0.6030535,-0.5038168,-2.4274809,-11.3149395,-0.3423691,9.5743637,3.2366412,1.7175573,-36.6183205
4780,-0.4764437,2.0997043,9.6030941,-1.4656489,0.7633588,-0.6641222,-12.2702208,-0.9600700,9.7323799,11.6793890,30.1374054,-26.6030540
4790,-0.4285599,2.2242019,9.6485834,1.9389313,0.5877863,-0.8396947,-11.8201132,2.3750360,3.0980811,102.4885483,71.7633591,214.6946564
4800,-0.5339043,2.2218077,9.4546537,1.7022901,0.1374046,-0.2824427,-10.3261395,2.6192431,1.4987626,88.5496216,75.9542007,234.9618378
4810,-0.4620786,2.2122312,9.5887289,-3.6717558,0.4656489,2.8244274,-5.8921003,2.7485294,-0.7206510,-0.8549618,105.2900772,250.1297760
4820,-0.2585725,1.9273225,9.8113880,-2.9083970,0.2748092,4.2900763,-4.7093706,2.5282640,-0.2729376,-19.0381680,109.0152664,250.1297760
4830,-0.1292862,1.9488702,9.7563219,-2.7633588,-0.7557252,4.8320613,-3.5553713,2.3175755,-0.0383070,-32.9541969,113.5801544,250.1297760
4840,0.0526722,1.9847831,9.8592720,-2.9083970,-1.1145039,5.1603055,-2.4085546,2.0135133,0.3303981,-43.7862587,116.4656525,250.1297760
4850,0.2011119,1.8459201,9.9478569,-1.3129771,-1.2977099,4.2671757,-1.5897418,1.7262106,0.7158626,-52.9160309,117.5419846,250.1297760
4860,0.2178712,1.8818330,9.8281479,0.6335878,-2.2137403,3.3587787,-1.5753766,1.5729824,1.4006008,-59.3282433,108.9007645,250.1297760
4870,0.2418131,1.9153515,9.5911226,-0.4045801,-1.4580153,3.6870229,-1.9919657,1.2090657,1.4915800,-63.7938919,88.7786255,250.1297760
4880,0.4046180,1.9177457,9.5288744,-3.6946564,2.5648854,2.0992367,-2.1811066,-0.4285599,-0.6727672,-76.3969498,2.1221373,250.1297760
4890,0.2250538,1.8363433,9.6030941,-3.6946564,2.6335878,0.4656489,0.1675933,-1.9536586,-2.0829449,-93.8931274,-41.2977104,250.1297760
4900,0.2250538,1.8626794,9.8042059,-3.3511450,2.0687022,-0.1679389,3.5481887,-3.3901722,-2.1906834,-116.8931274,-68.6793900,250.1297760
4910,0.0502780,1.9153515,9.8856087,-3.4732823,1.0610687,0.1068702,7.5393028,-3.4907281,-0.5315101,-135.6717529,-75.0687027,250.1297760
4920,0.0143651,1.9225341,9.9622221,-2.9389312,1.3511450,-0.0992366,11.0611553,-3.1028695,1.9991482,-138.7557220,-66.2519073,250.1297760
4930,-0.1340746,1.9225341,10.0412302,-1.3969465,1.5114504,-0.0229008,15.0809994,-1.6950861,4.3861551,-124.0229034,-51.7633591,250.1297760
4940,-0.2992737,1.9823889,9.8568783,-0.1908397,0.7480916,0.5801527,18.7560806,0.3926471,5.8130918,-101.6870193,-33.9923668,196.5877838
4950,-0.3567342,1.9943599,9.7539282,-0.0839695,0.6412213,1.5954199,19.6126022,1.9536586,5.7077475,-83.0457993,-14.4351149,113.8702316
4960,-0.1675933,2.0518203,9.5647869,-0.2824427,0.9465649,2.2213740,19.6126022,3.6152260,5.2648225,-74.4351120,54.3664131,-78.5419846
4970,-0.1867468,2.0590029,9.6150646,-0.1603053,0.3511450,1.8702290,19.6126022,3.3758070,5.4539638,-75.6259537,80.1603088,-178.9313049
4980,-0.1532281,2.0757623,9.6294298,-0.4885496,-0.5572519,1.6183206,19.6126022,2.3558824,5.5928264,-76.0916061,98.3740463,-250.1374054
4990,0.0454896,2.0709739,9.6294298,-0.3587786,-1.0076336,0.6259542,18.0617657,0.2250538,5.9208307,-75.9236679,97.4961853,-250.1374054
5000,0.1675933,2.0206959,9.6414013,-0.4045801,-1.1679389,-0.7099237,14.5782194,-2.8969693,6.5289545,-76.0610657,83.8091583,-250.1374054
5010,0.1891410,2.0183017,9.6629486,-0.5572519,-0.8320611,-2.1145039,11.6429434,-6.3015065,7.4315639,-71.8167953,63.7251892,-250.1374054
5020,0.1460456,1.9728121,9.6342182,-1.0534351,-0.2824427,-3.3129771,8.2216463,-10.0340481,9.2128410,-60.5572510,34.0992355,-250.1374054
5030,0.1268920,1.9704180,9.6174593,-1.6030535,0.6030535,-4.0687022,4.3430595,-13.7665892,10.4602137,-43.2671738,-8.2519083,-250.1374054
5040,0.0095768,1.8842272,9.8449068,-1.9618320,1.7175573,-4.1297708,-0.5626345,-17.1663380,11.1712875,-23.0000000,-57.4809151,-250.1374054
5050,-0.1532281,1.8531027,9.9909525,-1.2595420,2.3587787,-3.9770992,-7.3597383,-19.6131992,11.5304165,-5.0534353,-118.4427490,-250.1374054
5060,-0.2585725,1.8698620,9.9957409,0.1297710,2.0458016,-3.3206108,-15.3323889,-19.6131992,11.8344784,5.2061067,-211.2748108,-250.1374054
5070,-0.2035061,1.9440818,9.9239149,1.7938931,1.4274809,-2.7480917,-19.6131992,-19.6131992,12.3300753,0.7786260,-250.1374054,-250.1374054
5080,-0.2896969,1.9536586,9.8496952,2.7633588,1.4351145,-2.4809160,-19.6131992,-18.1934452,14.3028879,-35.8396950,-250.1374054,-250.1374054
5090,-0.2968795,1.9297167,9.5767574,2.9618320,1.4198474,-1.8625954,-19.6131992,-9.7850523,16.7282009,-106.5572510,-250.1374054,-250.1374054
5100,-0.3016679,2.0757623,9.5384512,2.2290077,1.1297710,-1.2519084,-19.6131992,-3.1723011,19.6126022,-179.3511505,-250.1374054,-250.1374054
5110,-0.2801202,1.9560528,9.4019823,1.4732825,-0.0076336,-0.6564885,-19.6131992,-3.6128318,19.6126022,-212.5572510,-250.1374054,-250.1374054
5120,-0.1819584,2.0853391,9.4091644,0.3816794,-1.2061069,-0.6412213,-19.6131992,-6.8162575,19.6126022,-164.3206177,-250.1374054,-195.5419922
5130,-0.1221037,2.0590029,9.5671806,-0.2595420,-1.0076336,-0.7022901,-15.9812145,-7.1370788,19.6126022,-36.1221390,-250.1374054,-49.8778610
5140,-0.0814024,1.9967541,9.7012558,-0.7557252,-0.6259542,-0.2519084,-13.5463238,-4.2257442,19.6126022,107.9236679,142.4961853,81.9312973
5150,-0.1651991,1.9416877,9.7395630,-0.9541985,0.0305344,0.2977099,-9.4881725,-2.9400647,19.6126022,198.7633514,250.1297760,187.1068726
5160,-0.1029501,1.9033806,9.7754755,-0.9083970,0.2519084,0.9847328,-4.6686692,-2.2170193,15.0833931,211.9618378,250.1297760,227.6106873
5170,-0.0430954,1.8770446,9.6797075,-0.7862595,-0.3129771,1.4580153,-1.1899122,-1.7405758,10.8911676,170.8778687,250.1297760,205.0534363
5180,-0.0359128,1.9105632,9.6006994,-0.8549618,-0.8167939,1.1145039,0.4764437,-1.1947005,9.6461897,119.5496216,250.1297760,147.9160309
5190,0.0095768,1.8961980,9.6030941,-1.2671756,-0.8015267,0.8702290,-0.0574605,-0.3782819,9.4833841,81.6030502,234.0686951,86.0610657
5200,0.0430954,1.8507085,9.8113880,-2.6717558,-0.8473282,-0.2977099,-2.3798244,1.0031654,8.7770987,47.6564903,56.9083977,3.2595420
5210,-0.0598547,1.9081690,9.7922344,-2.5267177,-0.8320611,-0.4656489,-3.1818779,1.4460905,7.6853480,36.2900772,15.9312973,-18.6870232
5220,-0.0790083,2.0350611,9.8975792,-1.8015267,-0.8473282,-0.3282443,-4.2161674,1.6017127,7.3525558,28.3358784,0.4045801,-26.6717548
5230,-0.3064562,2.0613971,9.6916790,0.8549618,-0.4122137,0.8549618,-5.5976148,1.7381816,7.0772243,32.7862587,42.6946564,-9.5343513
5240,-0.3543400,2.1332228,9.5049324,0.8854962,-1.2442749,0.9847328,-5.9280128,1.7357874,6.4547348,33.3816795,51.0458031,-3.3053436
5250,-0.3256098,2.1212518,9.4570484,0.2061069,-2.3893130,1.2366412,-6.2919297,1.8339491,5.7412663,29.6335869,52.1068687,4.2900763
5260,-0.2585725,1.9536586,9.7156210,-2.5343511,-1.5114504,3.5877862,-5.0637107,1.0654143,5.9256191,-7.5877862,32.4580154,9.4961834
5270,0.1149211,1.9608412,9.8832140,0.0152672,-2.3587787,4.1832061,-5.2384863,0.6440369,7.1873569,-20.9007626,30.6412220,-1.3816794
5280,0.1651991,1.9560528,9.7443514,0.4656489,-2.6259542,3.1526718,-5.5569139,0.6368544,7.4962072,-22.8702297,35.0839691,-3.3206108
5290,0.2250538,1.8890154,9.7922344,0.5343512,-2.1908398,2.1908398,-5.8370337,0.4932030,7.8792777,-24.1984730,43.0076332,-3.7175572
5300,-0.0287303,2.0135133,9.8640604,1.5190840,1.3206106,-2.1603053,-7.2735476,0.3734936,10.1202393,-5.9465647,73.8015289,-12.1984730
5310,-0.2106887,2.0518203,9.6006994,2.5343511,-0.1068702,-2.4427481,-9.1601686,0.6488253,10.2207947,8.8091602,55.0687027,-18.6106873
5320,-0.2896969,2.1068866,9.4977493,2.1374047,-0.7251908,-2.2061069,-9.9023676,0.7829000,10.2231894,14.2977095,42.4885483,-17.7786255
5330,-0.3280039,2.1954718,9.4019823,0.9847328,-1.5648855,-1.9694656,-10.4697905,0.8499373,10.0005293,17.8931293,33.8015251,-13.4961834
5340,-0.1747758,2.1954718,9.4594421,-0.0458015,-1.2366412,-1.8244275,-11.0467901,0.6943150,9.7730818,19.6335869,30.7862587,-7.2290077
5350,-0.1508339,2.1787124,9.4785957,-0.8854962,-0.7099237,-1.8931298,-11.7434988,0.4788379,9.5001440,19.7633591,40.0076332,2.5114503
5360,-0.0790083,2.0853391,9.6821022,-1.3893130,0.0152672,-1.7862595,-12.5072460,0.2154770,9.5264797,19.1450386,60.0610695,16.4580154
5370,-0.1077385,2.0087249,9.7275915,-1.4274809,0.1297710,-1.5419847,-13.2853575,0.1963235,9.8209648,19.3358784,82.6870193,33.9007645
5380,0.0263361,1.9560528,9.7132263,-1.2061069,0.1755725,-1.3282443,-14.0227680,0.4141948,10.0939026,21.6870232,102.3587799,53.1984749
5390,-0.0383070,1.8842272,9.7922344,-1.0916030,0.3511450,-1.2442749,-14.6213150,0.3878587,10.3883877,26.8625946,113.7480927,75.2061081
5400,0.0383070,1.7645177,9.8664551,-0.7328244,0.3053435,-0.6412213,-14.9469252,0.5099624,10.4147243,34.9771004,119.3664093,97.4122162
5410,0.0335187,1.6831152,9.8042059,-0.7022901,0.5114504,-0.5190840,-15.0714226,0.7541697,10.2184010,44.8320618,117.3587799,119.3053436
5420,0.0742199,1.6998745,9.7922344,-1.0305344,1.2061069,-0.4580153,-15.1025467,0.9002152,9.5504217,54.9083977,108.5343475,137.9618378
5430,0.0622489,1.7453641,9.7850523,-1.2366412,1.5114504,-0.4885496,-15.3419657,1.3120158,8.6190825,62.9541969,96.8167953,158.0076294
5440,0.1053443,1.7740943,9.7299862,-1.2061069,1.3053435,-0.9083970,-16.0650120,1.7381816,7.6805596,67.0839691,85.4274826,182.6488495
5450,0.0047884,1.8746504,9.8353300,-0.7175573,0.2900763,-1.0763359,-16.6372223,1.9225341,6.6630292,67.0305328,73.2519073,212.4198456
5460,-0.0981618,2.0039365,9.7563219,-0.3893130,-0.5496183,-0.8778626,-16.5414543,1.6448082,5.8298512,64.0839691,57.7633591,246.2213745
5470,-0.2082945,2.1140692,9.7850523,-0.0839695,-1.0534351,-1.0229008,-14.8846760,1.0917504,4.5106530,57.0992355,49.6106873,250.1297760
5480,-0.2466015,2.1332228,9.6006994,0.5725191,-1.2213740,-0.6412213,-12.5527353,0.5841822,3.5074875,45.7022896,61.4198456,250.1297760
5490,-0.3615226,2.2313845,9.6222477,0.7251908,-1.2366412,0.0763359,-10.7977943,0.5386927,2.7365584,32.4809151,88.8931274,250.1297760
5500,-0.3854645,2.2672975,9.5240860,0.4351145,-1.2900764,0.8396947,-9.6581602,0.4644727,2.7269819,19.2900772,117.8931274,250.1297760
5510,-0.4429250,2.2361729,9.4355011,-0.1755725,-0.5648855,1.9083970,-8.6645718,0.3016679,2.9544299,6.7786260,136.7633514,250.1297760
5520,-0.4046180,2.1284344,9.4235296,-1.6946565,0.4580153,2.8702290,-7.3262196,0.0191535,3.5481887,-3.8854961,146.5038147,250.1297760
5530,0.1388630,1.9225341,9.8089943,-1.2061069,-0.8015267,3.6641221,0.4453192,-0.2322364,4.9248476,-9.7251911,103.2213745,250.1297760
5540,0.3663110,1.9153515,9.6509781,-2.4122138,0.1984733,-0.6030535,6.5840211,1.3239868,3.9743545,5.8702292,117.0916061,250.1297760
5550,0.1675933,1.9368993,9.7850523,-2.5648854,1.0305344,-1.5954199,7.3166428,1.9584470,3.9887197,5.9160304,120.8167953,246.0915985
5560,-0.0933734,2.0111191,9.7754755,-1.6412214,1.2519084,-2.0534351,9.0979195,3.0932927,4.1826491,1.4809160,86.6030502,165.6717529
5570,-0.2561783,2.0015423,9.8065996,0.0839695,1.4809160,-1.1603054,11.0635490,3.9623835,3.2393384,-4.9465647,10.3969469,64.8702316
5580,-0.4596844,2.0326669,9.6916790,0.2290076,0.3129771,0.6412213,12.7035694,3.9001346,1.9416877,-27.3129768,-49.6946564,-47.2824440
5590,-0.3280039,2.0590029,9.6126709,0.3282443,-0.3511450,1.0152671,12.9956608,3.5984666,2.0613971,-40.6564903,-66.6412201,-103.0687027
5600,-0.1915352,2.1140692,9.6557665,0.1374046,-0.7328244,1.3435115,14.9349537,4.1012464,3.1004753,-47.5801544,-73.7404556,-163.0229034
5610,-0.1508339,2.0949159,9.6102762,-0.0763359,0.0839695,1.0916030,16.3259773,3.2967989,4.0988522,-50.9618340,-73.4427490,-232.0000000
5620,-0.0933734,2.0973101,9.6414013,-0.3053435,-0.0458015,0.9465649,17.1471844,2.2313845,5.0708933,-49.8625946,-69.1526718,-250.1374054
5630,0.0502780,2.0254843,9.7323799,-0.1068702,-0.3816794,0.4198473,16.7425671,0.2226596,6.1722202,-41.3664131,-61.9923668,-250.1374054
5640,0.0957676,1.9776005,9.7515335,0.4885496,-1.0992366,-0.0152672,14.6500454,-2.2984219,6.8713236,-28.7633591,-65.4274826,-250.1374054
5650,0.1364688,1.9871773,9.7347746,0.6870229,-1.7480916,-0.7480916,11.7722292,-5.7173243,7.3286138,-18.3816795,-84.9847336,-250.1374054
5660,0.1197095,1.9464760,9.7275915,0.2290076,-0.6259542,-1.5725191,8.0325060,-8.9470863,6.8258343,-11.1374044,-94.5496216,-250.1374054
5670,0.0837966,1.8315549,9.7635050,-0.3129771,1.3282443,-1.6946565,3.6343796,-12.5623121,6.4595232,-5.6488547,-85.0152664,-250.1374054
5680,0.0814024,1.8411317,9.9215212,-0.3587786,2.0229008,-1.8549619,-2.0470319,-16.7880573,6.3565731,0.8473282,-74.5038147,-250.1374054
5690,0.0742199,1.8650736,9.7970228,0.1526718,1.7862595,-2.7404580,-10.1082678,-19.6131992,6.8138633,13.2977095,-96.7786255,-250.1374054
5700,0.0454896,1.8459201,9.8209648,1.1145039,1.5954199,-2.9236641,-19.6131992,-19.6131992,7.2998838,21.5343513,-157.0229034,-250.1374054
5710,0.0239419,1.9249283,9.8209648,1.7175573,0.6412213,-3.2671757,-19.6131992,-15.1911325,9.1362267,7.4427481,-229.3587799,-250.1374054
5720,0.0191535,1.9847831,9.7539282,2.4732823,0.4045801,-3.7022901,-19.6131992,-5.3438311,11.8320847,-28.4961834,-250.1374054,-250.1374054
5730,-0.0191535,2.0949159,9.6533718,2.8015268,0.7786260,-4.3282442,-19.6131992,1.3120158,13.7761660,-69.6412201,-250.1374054,-250.1374054
5740,-0.1388630,2.0470319,9.6461897,2.0000000,1.1603054,-4.6030536,-19.6131992,1.1037214,14.8463688,-69.1832047,-250.1374054,-108.9618301
5750,-0.1771700,2.2433555,9.5312681,1.7633588,0.2824427,-4.1984735,-19.6131992,-1.3000449,13.6947641,-21.1526718,-126.3282471,89.7786255
5760,-0.3088504,1.9991482,9.5049324,1.3129771,-0.1908397,-3.6183207,-19.6131992,-2.9400647,11.3077564,35.6870232,138.0534363,198.0534363
5770,-0.3088504,2.0566087,9.5145092,0.6793893,-0.4351145,-2.9465649,-12.9645357,-2.8873925,9.4977493,64.1068726,250.1297760,242.9084015
5780,-0.3256098,2.0590029,9.4498653,0.1145038,-1.7175573,-1.6793894,-8.2623482,-0.8954269,9.3995876,63.7557259,250.1297760,233.8854980
5790,-0.1197095,2.0805507,9.3588867,-3.5954199,0.1221374,-1.0458015,-6.5576849,1.0989330,9.9909525,55.5725174,250.1297760,180.3282471
5800,-0.0933734,1.9177457,9.5695753,-4.5419846,0.9160305,-0.6259542,-6.2871413,1.7740943,10.0125008,51.5267181,166.0534363,104.7786255
5810,-0.0598547,1.9440818,9.4594421,-4.2595420,-0.1984733,-1.9541985,-5.6838059,1.9632354,8.2862902,47.7022896,-15.3358774,28.9312973
5820,-0.1436514,1.9105632,9.4953556,-4.8854961,-1.5648855,-1.2671756,-5.5497313,2.6168492,6.2871413,39.0610695,-131.5114441,-29.7175579
5830,0.0095768,1.7022687,9.5959110,-5.4732823,-2.1297710,-0.6183206,-6.4667058,3.3183465,4.8793583,25.3969460,-181.8778687,-58.3511467
5840,-0.0861908,1.7956421,9.7946291,-5.9389315,-2.9465649,-0.3740458,-7.2472115,3.3997490,4.0318151,11.4427481,-191.3282471,-65.7709961
5850,-0.0814024,1.7501525,9.9861641,-5.5419846,-2.2519083,-0.4045801,-7.8122401,3.2967989,4.0246325,4.5267177,-161.1145020,-57.2290077
5860,-0.2226596,1.8052188,10.2974091,-3.7938931,-1.5343511,0.6793893,-8.0660238,3.2776453,4.1898317,5.0992365,-98.8167953,-39.0763359
5870,-0.3447633,1.8746504,10.2686787,-1.6793894,-0.8396947,1.8015267,-8.3198080,3.1411765,4.4771342,12.0839691,-35.7328262,-17.8473282
5880,-0.4189832,2.1332228,10.3428984,1.0076336,0.3358779,2.3969467,-7.9989872,3.0382264,4.7045822,20.7709923,10.5267172,1.8320611
5890,-0.5793939,2.1858950,10.1681223,4.4732823,0.6183206,3.2366412,-7.4842362,2.9664006,4.6064205,28.3587780,39.5267181,16.2900772
5900,-0.7876883,2.2960277,9.8377247,6.1526718,-0.0305344,4.5190840,-6.6079631,2.6767037,4.2018023,32.8778610,54.1526718,24.6641216
5910,-0.8523315,2.4061604,9.3924055,6.4427481,-0.5496183,6.5114503,-5.9184365,2.3463056,3.8283088,34.0152664,60.3053436,26.7175579
5920,-0.7134684,2.3271523,9.1266499,4.6106873,-0.6412213,7.5190840,-5.2911587,1.9799947,3.3590479,30.9541988,60.8854980,21.9007626
5930,-0.5458752,2.3103929,8.8992023,1.2671756,-0.3511450,8.3511448,-5.1211715,1.7573351,3.2393384,25.5648861,58.1526718,13.1755724
5940,-0.2777260,2.1978660,8.9877872,-2.0687022,-0.0229008,7.9923663,-5.2001796,1.6328372,3.1938488,18.7480907,52.0305328,2.3664122
5950,-0.0430954,2.0757623,9.3133974,-4.9541984,0.3893130,7.5496182,-5.7316895,1.6879035,3.3542595,12.4580154,44.6564903,-6.4045801
5960,0.1556223,2.0039365,9.6677370,-6.0305343,0.5648855,6.0152674,-6.2991123,1.4580613,3.7062054,6.6793895,35.6717567,-13.5877867
5970,0.4620786,1.6448082,10.2207947,-1.1526718,-1.1374046,3.1297710,-7.7452030,1.2832855,4.7859845,-11.6641226,-6.1984735,-27.2748089
5980,0.5793939,1.6879035,10.1992474,1.1908396,-0.6793893,1.5954199,-7.7739329,1.1635761,5.1953912,-16.7709923,-13.9541988,-27.7557259
5990,0.5817881,1.7214222,9.9885588,2.3206108,-0.6717557,-0.4656489,-7.5728211,1.0390782,5.7747850,-18.0610695,-15.4045801,-28.6106873
6000,0.5027798,1.8124014,9.8473015,2.7709923,-0.4885496,-2.6412213,-7.4914188,1.0031654,6.2919297,-15.6564884,-14.1908398,-30.3511448
6010,0.4118006,1.9776005,9.7108326,2.6946564,0.4351145,-4.8244276,-7.3932571,1.0654143,6.3972740,-11.4656487,-12.0534353,-31.4045811
6020,-0.2226596,2.2002602,9.6988611,1.3893130,2.3511450,-6.6335878,-7.3214312,1.3407460,6.4858594,2.7786260,-8.8244276,-38.1679382
6030,-0.6057299,2.0973101,9.6414013,2.3664122,1.7938931,-3.1679389,-7.6159167,1.3311694,5.9687142,10.9389315,-14.0076332,-48.1603050
6040,-0.4932030,1.9368993,9.4762020,1.2900764,1.2366412,-1.3969465,-7.9343438,1.3048333,5.9184365,11.7633591,-16.4656487,-52.8320618
6050,-0.3280039,1.9225341,9.4690189,-0.1145038,0.4656489,-0.0381679,-8.4251528,1.2425843,5.8849177,11.5496187,-19.7328243,-55.9618340
6060,-0.1939293,1.9297167,9.6078825,-1.3893130,-0.1450382,0.7251908,-9.0428534,1.1109039,5.8777351,10.7557249,-23.7404575,-59.2442741
6070,-0.0215477,1.8243724,9.6533718,-2.2671757,-0.4809160,1.2748091,-10.1441803,1.6376256,6.0046272,5.4427481,-31.7404575,-66.7633591
6080,0.1580165,1.8938038,9.7730818,-2.2366412,-0.9618320,0.9694657,-12.2510672,1.8531027,6.1817970,2.9389312,-33.2671738,-64.5114517
6090,0.1125269,1.8794388,9.9550400,-1.5496184,-1.2748091,0.5419847,-13.1033993,1.5394639,6.3493905,3.1603053,-29.6259537,-49.3511467
6100,0.1292862,1.9321109,9.9263096,-0.2748092,-1.3053435,0.2061069,-12.6868095,1.5801650,6.7827387,6.3511453,-21.2442741,-35.0839691
6110,-0.0742199,2.0039365,9.8185711,0.2748092,-1.0229008,0.2442748,-11.5806942,1.5945302,7.2567883,14.9923668,-5.6641221,-24.8854961
6120,-0.1340746,2.0206959,9.6653433,0.2977099,-0.7175573,0.3282443,-10.8361015,1.3886299,7.4531116,27.0305347,14.6641226,-19.0381680
6130,-0.1843526,2.0518203,9.5719690,-0.3282443,-0.2137405,0.6183206,-10.5703468,0.6895266,7.1418672,36.5038185,31.4656487,-17.8320618
6140,-0.2489957,2.1212518,9.6773138,-1.0916030,0.1755725,0.9465649,-11.4849272,0.9935886,7.0077925,41.1068687,42.5114517,-21.4656487
6150,-0.3232156,2.1739240,9.6509781,-1.2366412,0.9236641,1.1603054,-13.1776190,1.1635761,6.9311786,44.1679382,41.7480927,-21.5572510
6160,-0.4237715,2.1619530,9.7682934,-1.1145039,0.0534351,1.7251909,-14.7841196,1.1923064,6.8066807,45.9771004,29.3053436,-13.1908398
6170,-0.5339043,2.1619530,9.6414013,-0.1908397,-1.1832061,2.7022901,-17.0202923,1.3934183,6.2895355,43.7328262,10.8167934,18.7709923
6180,-0.5219333,2.1763182,9.4115591,-0.5954198,-1.4351145,3.4274809,-18.1886578,1.4053892,6.1243367,41.6946564,-4.3664122,39.4198456
6190,-0.5099624,2.1044924,9.4762020,-1.6335878,-1.1603054,4.2061067,-18.5166607,1.6184721,5.6814117,37.2824440,-24.4503822,64.1145020
6200,-0.3375807,2.1164634,9.5384512,-2.5038168,-1.4351145,4.7480917,-18.0402184,1.4053892,5.2528515,30.1374054,-37.6564903,91.3511429
6210,-0.2274480,2.1188576,9.7539282,-2.8015268,-0.8854962,5.0687022,-17.0849361,1.1013272,4.7788019,22.2824421,-36.5419846,116.1145020
6220,-0.1101327,2.0039365,9.7970228,-2.5801528,-0.9083970,5.3282442,-16.2493629,1.0007712,4.5034704,12.7938929,-21.2824421,139.0229034
6230,0.1197095,2.0159075,9.7635050,-1.8015267,-1.7480916,5.1755724,-15.8638992,1.0917504,4.4268565,2.6717558,2.1221373,162.4427490
6240,0.1604107,2.0063307,9.7467451,-1.5114504,-2.0305343,4.5877862,-15.7370071,1.1923064,4.5968437,-5.9007635,26.7862587,186.4122162
6250,0.2849085,1.9608412,9.6797075,-1.7480916,-1.6412214,3.5801528,-15.8543224,1.3311694,4.9799142,-12.0381680,47.4656487,210.7786255
6260,0.3112446,1.9536586,9.6725254,-2.0458016,-1.0992366,2.8320611,-15.4927998,1.1468167,5.4515696,-14.7404585,51.3740463,234.3969421
6270,0.4094064,1.7381816,9.6821022,-2.7862597,-0.5343512,1.7251909,-14.7290535,0.7757174,5.9328012,-14.4198475,45.6183205,250.1297760
6280,0.3447633,1.6160779,9.7658987,-3.7175572,0.2519084,0.6030535,-13.4457684,0.6512195,6.1889796,-10.3816795,30.5267181,250.1297760
6290,0.1125269,1.9967541,10.1633339,-2.6030533,1.6946565,0.2977099,-10.4913378,0.3375807,5.3581958,1.0687023,5.5343513,250.1297760
6300,-0.3064562,2.0661855,9.6102762,-1.5572519,-0.8396947,0.3053435,-2.7509236,0.6823440,4.2401094,13.6793890,72.0534363,250.1297760
6310,-0.1484398,2.0829449,9.6988611,-1.6793894,-0.6717557,0.7175573,-0.9313397,0.5841822,3.9360476,15.7022905,84.1221390,250.1297760
6320,0.0909792,1.9081690,9.8377247,-1.6717557,1.3511450,-3.8702290,7.3046722,2.8658447,2.4995339,-7.5267177,47.1679382,196.6870270
6330,-0.0023942,1.8291607,9.9478569,-1.1908396,1.3969465,-3.9083970,8.1785507,3.3470769,2.2313845,-14.9694653,39.8473282,166.2366486
6340,-0.0119709,1.9704180,9.8449068,0.4961832,1.3358779,-4.2977099,9.0021524,4.2688398,2.1044924,-32.3435097,31.0305347,97.9465637
6350,-0.0550664,1.8650736,9.7491398,0.9618320,1.0763359,-4.0992365,9.0404596,4.5537481,2.3032103,-42.2671738,20.1450386,61.7480927
6360,-0.1532281,1.9345051,9.6198530,0.7557252,0.3969466,-4.0534353,9.0763721,4.7596488,2.4205256,-50.8625946,11.3053436,26.9465656
6370,-0.1867468,1.9416877,9.5695753,0.0763359,-0.3435115,-3.8778627,8.7531567,4.8290801,2.6431851,-57.4656487,6.4885497,-7.6030536
6380,-0.2370248,2.0135133,9.3971939,-0.6488550,-0.7022901,-3.5725191,8.3724804,4.9320302,2.4157372,-64.4656525,2.2290077,-43.4580154
6390,-0.2178712,2.0087249,9.5599985,-1.7022901,-1.1984733,-2.7557251,8.0732069,4.6758518,3.3207407,-64.5114517,-1.8473282,-67.9389343
6400,-0.2705434,1.9847831,9.5240860,-2.5343511,-1.1755725,-1.5190840,7.9534974,4.9056940,3.4212968,-66.4351120,-0.4198473,-100.0763321
6410,-0.3782819,2.0685797,9.5815458,-3.2519083,-1.5343511,-0.2748092,7.6757712,4.6519103,3.7516949,-68.3435135,-1.7938931,-126.6488571
6420,-0.2992737,2.0566087,9.5001440,-4.2290077,-2.0763359,0.7480916,7.8146343,4.7189474,4.0413918,-70.6793900,-0.0305344,-155.4885559
6430,-0.3495516,2.0159075,9.5049324,-4.8167939,-2.3053436,1.4427481,8.3341732,4.6495161,4.4364328,-71.2137375,5.3969464,-188.4427490
6440,-0.3303981,1.9488702,9.5456333,-5.8091602,-2.5114503,2.3587787,8.7004843,4.4172797,5.1642666,-67.9007645,8.3206110,-226.7633514
6450,-0.3160330,2.0302727,9.6725254,-6.0458016,-2.2900763,3.0763359,8.3892403,3.8402798,5.7987270,-59.3816795,18.8244267,-250.1374054
6460,-0.2633608,2.0063307,9.7850523,-6.0229006,-2.3740458,3.8854961,7.2759418,3.1172347,6.2392578,-44.9083977,31.4351139,-250.1374054
6470,-0.3567342,2.0111191,9.9023676,-5.5725193,-1.3358779,4.5725193,5.7221127,2.2074428,6.6678176,-26.7633591,33.4427490,-250.1374054
6480,-0.4548960,1.9919657,9.9358864,-4.4045801,-0.5038168,5.7557254,4.2496862,1.0342898,6.6821828,-8.3206110,24.0152664,-250.1374054
6490,-0.5171449,1.9560528,10.0962973,-3.1068702,-0.3969466,6.8244276,2.4564383,-0.4429250,6.6079631,7.5648856,1.7709924,-250.1374054
6500,-0.5219333,2.0183017,10.0244713,-1.1984733,-0.8473282,8.0839691,0.7781116,-2.1356170,6.6103573,19.3587780,-37.8549614,-250.1374054
6510,-0.4692611,2.0661855,9.9406748,0.6641222,-1.9847329,8.9312973,-1.0055596,-3.8330972,6.1913738,22.8549614,-86.4732819,-250.1374054
6520,-0.2298422,2.1212518,9.8832140,1.9770992,-2.9770992,9.7251911,-3.6295912,-6.0740585,5.6047974,14.8473282,-126.3282471,-250.1374054
6530,-0.0383070,2.0877333,9.5935173,1.7938931,-1.7404580,9.5038166,-7.2998838,-8.1905222,5.4874821,1.1450381,-145.4885559,-250.1374054
6540,0.2298422,2.1068866,9.5049324,0.2137405,-0.6259542,8.5572519,-12.9884777,-9.1434097,5.5233951,-12.2213745,-148.3053436,-250.1374054
6550,0.4022238,1.9608412,9.5192976,-1.2900764,-0.1297710,6.6564884,-19.3067436,-8.5664101,5.4348102,-28.8091602,-130.9618378,-250.1374054
6560,0.5099624,1.8602852,9.6725254,-1.9694656,-0.2366412,4.5801525,-19.6131992,-6.1650376,6.3709383,-52.1450386,-72.5343475,-250.1374054
6570,0.5267217,1.7142396,9.8257532,-1.9770992,-0.8167939,2.3435113,-19.6131992,-2.3606708,8.9207497,-76.9847336,-1.7251909,-250.1374054
6580,0.5434810,1.6926919,9.9263096,-1.2137405,-0.8473282,0.6488550,-19.6131992,0.3902529,11.9517937,-88.1145020,30.3053436,-250.1374054
6590,0.4836263,1.6567791,10.0795374,-0.1297710,0.1908397,-0.4045801,-19.6131992,-0.4836263,14.5518837,-73.8320618,35.6641235,-109.0000000
6600,0.3280039,1.7286048,10.0005293,1.0763359,1.4656489,-1.3358779,-19.6131992,-0.6512195,14.9972029,-34.6564903,50.9312973,-3.9083970
6610,0.1532281,1.8243724,9.8544836,1.8015267,2.3053436,-1.9160305,-19.6131992,-0.8092360,13.9102411,24.0916023,55.5648842,52.5190849
6620,0.1053443,1.9871773,9.6725254,1.8396946,2.2290077,-2.8167939,-15.2533808,-0.7445929,11.8488436,78.9389343,84.5419846,72.1526718
6630,0.0311245,2.1571648,9.4977493,1.3587786,1.8320611,-3.6870229,-11.7123747,-0.2513899,9.9861641,120.6412201,113.2977066,71.7633591
6640,-0.0383070,2.2194135,9.4450769,0.5648855,1.6946565,-4.9770994,-9.8018112,0.8571198,8.1570034,143.1984711,127.2671738,61.2977104
6650,-0.1173153,2.2960277,9.4546537,-0.3969466,1.2671756,-6.0458016,-8.9039907,2.0111191,6.5576849,149.4580078,125.0534363,46.8931313
6660,-0.1867468,2.1811066,9.5049324,-0.7938932,0.9312977,-6.6870227,-8.7124557,2.9376705,5.0397687,143.4732819,104.5496216,30.7938938
6670,-0.2944853,2.1380112,9.6294298,-0.5954198,0.3511450,-6.4809160,-8.6813307,3.1770895,3.1579359,128.8244324,70.5877838,14.5267172
6680,-0.3112446,2.0206959,9.7228031,-0.2137405,0.4503817,-5.8702292,-8.7627335,3.4045374,2.0326669,109.5572510,36.4809151,-0.4351145
6690,-0.2992737,1.8698620,9.7946291,0.1679389,0.4961832,-5.0992365,-8.7914639,3.5817075,1.3024391,87.8320618,8.0000000,-12.9618320
6700,-0.3160330,1.8602852,9.8042059,0.6488550,0.9236641,-3.7099237,-8.9973640,3.7947903,0.9121862,67.0839691,-14.1603050,-21.7022896
6710,-0.2250538,1.6663558,9.8018112,1.0610687,1.1145039,-2.3282442,-9.2655134,3.9480183,1.0462608,48.7557259,-30.8015270,-25.7175579
6720,-0.2609667,1.6376256,9.8089943,1.0152671,1.1755725,-0.9541985,-9.5743637,3.8091555,1.4628497,34.7862587,-43.3053436,-25.7633591
6730,0.0215477,1.6759326,9.7275915,1.2061069,0.0839695,0.9923664,-9.3301563,3.4763632,1.9752063,17.7633591,-49.3358765,-20.7404575
6740,0.1101327,1.8315549,9.5743637,0.1068702,-0.3587786,1.3053435,-9.3253679,2.8849983,2.6527619,8.1526718,-29.1145039,-17.0000000
6750,0.1747758,1.9560528,9.6198530,-0.6564885,-0.3358779,0.8244275,-10.0699606,2.9544299,3.2800395,5.3358779,-16.1908398,-13.0763359
6760,0.0790083,1.9560528,9.5671806,-1.3893130,-1.0610687,0.8167939,-10.5966825,3.0166788,3.7014170,3.3358779,-9.4274807,-5.8778625
6770,0.0047884,2.0015423,9.6198530,-1.8091604,-1.2977099,0.5648855,-10.6924505,2.9568241,3.9168940,2.7557251,-6.6641221,3.4885497
6780,-0.0790083,2.0278785,9.7587166,-1.8625954,-0.1297710,0.6412213,-9.8161764,2.6934631,4.3741841,4.1755724,-5.2671757,19.3358784
6790,-0.2154770,2.0757623,9.7587166,-1.6183206,0.2061069,0.8396947,-9.0476418,2.5019281,4.3550305,6.2824426,-2.5572519,24.2290077
6800,-0.1915352,2.1044924,9.8018112,-1.1755725,-0.0534351,1.1221374,-8.3126259,2.4420733,4.3933377,7.9541984,1.6412214,26.2671757
6810,-0.3782819,2.0590029,9.7898407,-1.0916030,-0.0687023,1.4274809,-7.6278877,2.4516499,4.2808108,8.6106873,4.2977099,25.2442741
6820,-0.3878587,2.1619530,9.7539282,-0.7633588,-0.5343512,1.5343511,-7.2974896,2.2840567,4.2329268,7.9541984,7.7099237,22.6030540
6830,-0.4884146,2.1380112,9.6485834,-0.6793893,-0.9160305,1.7099236,-7.3429790,2.1332228,4.3885493,7.1297708,8.4274807,16.8549614
6840,-0.4596844,2.0302727,9.7156210,-0.3969466,-1.2290076,2.2366412,-7.6494355,2.1571648,4.6183915,7.6335878,3.9770992,10.5572519
6850,-0.4070122,2.0901275,9.6701307,-0.1755725,-1.5648855,2.9007633,-8.3772688,2.4468615,4.7333126,10.1755724,-3.9923663,4.8167939
6860,0.1197095,1.9057748,9.7682934,-0.1374046,1.5419847,-2.3282442,-16.8742466,3.0358322,6.0070214,-10.3969469,23.1984730,110.8244247
6870,-0.1699875,1.9488702,9.7874460,0.6870229,0.7709923,-3.5877862,-18.3993454,3.1675127,7.2352405,8.3358774,-24.1450386,157.5725250
6880,-0.2322364,1.9943599,9.7395630,1.1374046,0.3893130,-3.6870229,-18.3323078,3.0118904,6.8282285,16.8473282,-54.0992355,177.2671814
6890,-0.1915352,2.0805507,9.7850523,1.6106870,0.2595420,-3.0916030,-17.1759148,2.6862805,6.1267309,21.2061062,-71.7709961,199.9618378
6900,-0.2873027,2.0159075,9.7156210,2.1374047,-0.0152672,-2.6335878,-15.9979744,2.4540441,5.3366485,22.2595425,-73.5725174,223.0686951
6910,-0.2681492,2.0733681,9.6725254,2.4274809,0.2748092,-2.0916030,-14.5877962,2.4181314,4.8841467,21.0916023,-61.0458031,247.0610657
6920,-0.2777260,2.0781565,9.5216913,2.1832061,-0.1374046,-1.6564885,-13.1991663,2.3654592,4.6543045,19.5343513,-40.2824440,250.1297760
6930,-0.2298422,2.1116750,9.5288744,2.0763359,-0.5038168,-1.1755725,-11.4538021,2.1140692,4.6112089,18.5725193,-18.6488552,250.1297760
6940,-0.1149211,2.0015423,9.6581602,0.8473282,-0.9465649,-0.6335878,-8.3269911,1.7190280,4.7907729,24.4274807,23.8625946,250.1297760
6950,-0.0047884,1.9991482,9.6916790,0.9923664,-2.2137403,-0.3893130,-1.4293311,0.7565638,3.9121056,39.0992355,56.4580154,250.1297760
6960,0.0598547,1.8938038,9.7467451,0.5419847,-1.2137405,-0.6259542,0.2777260,0.6823440,3.6367738,38.9389305,70.5496216,250.1297760
6970,-0.0885850,1.9847831,9.6581602,-0.8320611,0.1908397,-1.0229008,2.7605004,0.9528874,4.2616572,41.5648842,121.5877838,250.1297760
6980,-0.1580165,2.0159075,9.7060442,-0.8015267,-0.2595420,-0.2519084,3.9791429,0.5147507,3.4979107,41.0228996,53.0458031,250.1297760
6990,-0.2082945,2.0326669,9.7922344,-0.1832061,-0.3129771,-0.1679389,5.3390427,-0.2154770,1.8578910,33.4274826,15.8015270,250.1297760
7000,-0.2274480,2.1404054,9.6892843,0.1374046,-0.2290076,0.6488550,7.0030041,-0.6775556,0.5339043,18.0305347,-19.4732819,250.1297760
7010,-0.3423691,2.0781565,9.5671806,-0.1679389,0.2213740,1.5572519,8.3724804,-0.9073978,-0.7086801,-2.8244274,-46.0687027,250.1297760
7020,-0.3471575,2.1404054,9.4259243,-1.0763359,0.0229008,2.1832061,9.3110027,-1.2545552,-1.3455344,-23.8854961,-64.7938919,228.8931274
7030,-0.3591284,2.1356170,9.3947992,-1.9770992,-0.4503817,3.0152671,10.4219065,-1.0031654,-1.6136837,-44.7022896,-74.2213745,199.9541931
7040,-0.2992737,2.1236460,9.3971939,-2.9847329,-0.6183206,4.0458016,11.2143831,-0.5530578,-0.9720409,-62.2977104,-70.3511429,171.4503784
7050,-0.2729376,2.1188576,9.5767574,-4.1679387,-0.7251908,4.8320613,12.5694942,-0.2825144,0.1197095,-72.9236679,-57.5038185,141.1755676
7060,-0.0359128,2.0590029,9.7084379,-4.3664122,-0.9923664,4.8091602,13.8455973,0.1963235,1.7740943,-76.0229034,-30.1984730,106.6335907
7070,0.2370248,1.8052188,10.0412302,-3.6488550,-0.3206107,3.9770992,17.1352139,1.6136837,4.5417776,-62.7175560,21.4885502,15.4198475
7080,0.2585725,1.7860653,10.0891142,-2.4045801,0.4274809,3.4580152,19.0361996,1.7309990,4.9918852,-52.7328262,41.2900772,-46.3893127
7090,0.3064562,1.8100072,10.0005293,-1.2213740,0.9770992,2.8015268,19.6126022,2.0135133,5.6694407,-40.2671738,62.4580154,-125.8320618
7100,0.2035061,2.0015423,9.9047613,0.9541985,-0.2824427,-0.3893130,19.6126022,1.4389079,5.0637107,-15.4427481,74.5801544,-250.1374054
7110,0.0622489,2.1499822,9.6629486,1.2519084,0.4198473,-1.8167939,18.3059731,-0.2561783,4.4292507,-18.3664131,52.5801544,-250.1374054
7120,-0.1244979,2.2529323,9.5145092,0.5496183,1.3587786,-3.2900763,14.4944229,-3.6750808,4.0677280,-20.9923668,36.7251892,-250.1374054
7130,-0.4836263,2.2649033,9.5480280,0.4732825,1.2519084,-3.9541984,10.3357162,-7.2567883,4.1060348,-21.9694653,17.5725193,-250.1374054
7140,-0.6895266,2.3894010,9.4522600,-0.1832061,1.9694656,-3.3206108,5.7963328,-11.0443964,4.1826491,-23.9083977,-8.6870232,-250.1374054
7150,-0.7781116,2.4181314,9.5791521,-0.8320611,1.0458015,-1.5190840,0.3734936,-15.1193066,3.8785870,-25.9007626,-29.0839691,-250.1374054
7160,-0.6967092,2.3558824,9.6868906,0.2442748,0.3587786,-0.5038168,-6.9168134,-18.8997307,3.4811516,-21.5343513,-45.9312973,-250.1374054
7170,-0.5578461,2.2744799,9.6414013,1.4732825,-0.0687023,0.0992366,-15.1576138,-19.6131992,3.1292057,-21.1679382,-95.7480927,-250.1374054
7180,-0.5171449,2.2696917,9.4402885,1.1908396,-0.2748092,0.9007633,-19.6131992,-19.6131992,3.3997490,-33.6335869,-182.5038147,-250.1374054
7190,-0.3495516,2.0853391,9.5169029,-0.5267175,-0.4274809,1.7251909,-19.6131992,-16.8550930,4.4938936,-69.0457993,-250.1374054,-250.1374054
7200,-0.1388630,1.8842272,9.5623922,-2.0610688,-0.0610687,2.6259542,-19.6131992,-7.1753860,8.0564480,-130.4274750,-250.1374054,-250.1374054
7210,0.0790083,1.7860653,9.7347746,-1.9007634,-0.4809160,2.6488550,-19.6131992,1.2976507,13.7953196,-172.6717529,-250.1374054,-250.1374054
7220,0.2250538,1.6902977,9.8329363,-1.8091604,-0.8396947,2.6412213,-19.6131992,2.8035958,18.8039646,-162.8167877,-230.8778687,-189.2137451
7230,0.4141948,1.6687500,9.9095497,-1.7175573,-0.4045801,2.3740458,-19.6131992,0.8307837,19.6126022,-101.8167953,-101.5267181,16.2137413
7240,0.6224893,1.6424140,9.8951855,-1.0992366,-0.2748092,1.7557251,-19.6131992,-0.9145803,19.6126022,-10.8396950,61.7709923,151.0305328
7250,0.7541697,1.7477583,9.8305416,-0.7938932,-0.6335878,0.3969466,-18.3059731,-1.4460905,16.6108856,74.2519073,250.1297760,215.1755676
7260,0.6009415,1.6519908,9.7515335,-1.7099236,0.5038168,-0.6717557,-11.2622671,-0.9959828,12.8663740,124.1297684,250.1297760,227.1755676
7270,0.5123565,1.7621235,9.6342182,-1.9389313,0.8549618,-2.4503818,-6.9024482,0.5602403,9.9119444,138.8854980,250.1297760,200.8778687
7280,0.2561783,1.8938038,9.7802639,-1.8702290,-0.3435115,-4.0687022,-5.3510137,1.7669119,8.2695303,131.6641235,250.1297760,150.1832123
7290,-0.0694315,2.0135133,9.9239149,-1.0534351,-1.1526718,-3.5954199,-4.7907729,2.5761478,7.1753860,117.2137375,223.5114441,90.9007645
7300,-0.1747758,2.0661855,9.9789820,-0.4809160,-1.0687023,-2.8778627,-4.4675574,3.1483591,5.8585815,99.4503784,108.3969498,35.7022896
7310,-0.5985473,2.3391230,9.7275915,2.3511450,-0.6183206,-2.5648854,-4.3215117,3.0286496,3.8522508,63.7022896,-26.4503822,-36.8778610
7320,-0.8451489,2.3439114,9.5073261,2.7480917,-0.9160305,-1.1297710,-4.8099265,2.9280937,3.5960727,52.3816795,-45.6870232,-58.0228996
7330,-0.9720409,2.4061604,9.2487535,1.3435115,-1.6259542,0.9389313,-5.8298512,2.9855542,3.5625539,48.1832047,-55.7480927,-69.3664093
7340,-0.8236012,2.3534882,9.2391768,-1.1297710,-0.8244275,2.2977099,-6.8904772,2.9185169,3.4859397,47.2061081,-65.8854980,-74.7709961
7350,-0.7326220,2.2313845,9.2918491,-2.8244274,-0.2137405,3.2595420,-7.6757712,2.9233053,3.3494711,45.1755714,-70.6870193,-73.5725174
7360,-0.5841822,2.1140692,9.5312681,-4.1145039,-0.5572519,4.4045801,-8.3054428,2.9735832,3.2177906,42.4809151,-68.2595444,-67.1679382
7370,-0.3926471,2.0302727,9.6605549,-4.4809160,-0.8015267,5.4503818,-8.6047173,2.9903426,3.1842721,41.1450386,-61.0916023,-56.8473282
7380,-0.0861908,1.9632354,9.9382801,-4.0076337,-1.6793894,5.3816795,-8.6262646,2.6240315,3.0549858,41.1908379,-54.0839691,-46.8778610
7390,0.1963235,1.8531027,10.0101061,-2.3435113,-1.9618320,4.7099237,-8.3748751,2.3798244,2.9448531,40.1374054,-44.6106873,-40.5114517
7400,0.3806761,1.8147956,9.9334917,-1.2824427,-1.6641221,3.7022901,-8.2000990,2.3032103,2.8371146,37.1526718,-34.5343513,-36.9771004
7410,0.4836263,1.8028246,9.9071560,-0.2137405,-2.1679389,1.6946565,-8.1737623,2.4109488,2.6790979,32.9389305,-27.0992374,-35.1221390
7420,0.5339043,1.7645177,9.7922344,-0.1374046,-2.2900763,0.2290076,-8.2144642,2.3917952,2.7317703,27.8625946,-24.4732819,-34.5877876
7430,0.4908088,1.8171898,9.5911226,-1.8854961,-0.2671756,-1.1297710,-8.3629036,2.4396791,2.9568241,22.7786255,-24.1145039,-33.9389305
7440,0.4572902,1.7812769,9.7563219,-3.3893130,2.4122138,-1.9770992,-8.6118994,2.6264257,3.0118904,19.4274807,-26.1450386,-33.9541969
7450,0.3519458,1.7070571,9.8161764,-2.9847329,3.1297710,-3.0916030,-8.8177996,2.8634505,3.1435707,15.8549614,-33.0839691,-33.1679382
7460,-0.0885850,1.9033806,10.0292597,-1.3740458,1.2595420,-4.0305343,-8.9159613,2.6719155,3.1914546,2.3969467,-40.5114517,-29.3282452
7470,-0.3016679,1.9153515,9.9310980,0.0458015,0.6412213,-3.0458016,-8.7220325,2.3486998,3.3375001,-4.1984735,-39.0916023,-28.9083977
7480,-0.4357425,2.0015423,9.7611103,0.6793893,0.0687023,-1.8167939,-8.8441362,2.5067163,3.7397239,-8.9694653,-34.4656487,-29.4198475
7490,-0.5027798,1.9799947,9.7443514,1.3206106,-0.2290076,-0.5725191,-9.3876171,2.6024840,4.2592630,-12.6488552,-26.3587780,-27.9694653
7500,-0.5865764,2.1499822,9.6222477,1.4961832,-0.2061069,0.5801527,-10.0101061,2.6096666,4.8458395,-13.6946564,-20.7557259,-23.9923668
7510,-0.5674229,2.1715298,9.5528164,0.7328244,0.0152672,2.2977099,-10.2686787,2.6623387,5.3677726,-12.5954199,-16.1603050,-19.2366409
7520,-0.4237715,2.2218077,9.5240860,-0.1374046,0.1450382,3.2213740,-10.3093796,2.5474176,5.7173243,-8.9389315,-13.0152674,-16.2595425
7530,-0.3423691,2.2122312,9.6054878,-0.4503817,0.3206107,3.4885497,-10.4530315,2.4971397,5.9758968,-3.3664122,-11.4427481,-13.3893127
7540,-0.2681492,2.1236460,9.5791521,-0.3435115,0.3740458,3.3816793,-10.7116032,2.5498118,6.0165982,2.8167939,-10.8625956,-11.8702288
7550,-0.0933734,2.0925217,9.5815458,-0.3435115,-1.2900764,3.0381680,-11.1497402,2.2361729,5.9758968,13.9160309,-7.7328243,-8.5801525
7560,0.1532281,1.9799947,9.5839405,-0.2977099,-2.0152671,1.6870229,-12.0044661,2.1499822,6.0333576,20.0381680,-10.5877867,-8.6030531
7570,0.2274480,1.9033806,9.6318245,-1.2061069,-1.1297710,0.5419847,-12.8137016,2.2601149,6.0261750,21.9083977,-13.2442751,-6.1068702
7580,0.2537841,1.9009864,9.6868906,-2.0458016,0.2061069,-0.4351145,-13.8312321,2.3319404,6.1051831,24.0534344,-17.6259537,-0.5343512
7590,0.1987177,1.8315549,9.9933472,-2.6412213,0.4809160,-1.4503816,-13.8001080,1.6136837,6.3853035,28.7938938,-25.5038166,15.3816795
7600,0.2082945,1.8004304,9.9741936,-2.1068702,0.2900763,-2.4809160,-13.0339670,0.9672526,6.8234401,34.5725174,-25.8625946,14.1984730
7610,0.2513899,1.8363433,9.9694052,-0.6870229,0.2900763,-2.9847329,-12.6796274,1.0582317,7.6446471,45.0458031,-24.9389305,10.6793890
7620,-0.1484398,2.0111191,9.6749191,1.0687023,-0.5496183,-3.0305343,-13.1273403,1.1013272,7.8649125,105.4885483,36.6106873,23.5419846
7630,-0.2011119,1.9416877,9.4666252,-0.0305344,-0.7175573,-2.2748091,-14.7577839,1.5729824,7.0844064,131.4580078,52.4351158,32.6717567
7640,-0.2896969,2.0494261,9.3995876,-1.1221374,-1.2442749,-1.4885496,-15.9620609,2.2289903,5.3438311,148.4351196,53.2366409,50.9312973
7650,-0.2298422,2.0613971,9.4355011,-2.6793892,-1.0687023,-1.2748091,-16.4432926,2.7940190,3.0406206,149.4503784,47.3740463,75.1908417
7660,-0.2561783,1.9991482,9.5599985,-3.6106870,-1.1145039,-0.4885496,-16.9963512,3.4524212,1.0941446,133.9313049,36.8167953,102.9160309
7670,-0.2011119,1.9967541,9.7012558,-4.0763359,-1.0534351,0.0458015,-17.0897236,3.8187323,-0.6655847,103.9007645,25.6564884,134.1450348
7680,-0.2873027,1.9799947,9.8257532,-3.7709923,-0.7251908,0.6717557,-16.8119984,3.9408360,-1.6160779,61.1603050,19.0610695,170.2213745
7690,-0.2082945,1.9584470,9.8784256,-3.1068702,-0.8778626,1.7175573,-15.9093885,3.7900019,-1.4389079,14.8702288,13.6717558,207.6793823
7700,-0.2633608,1.9512644,9.9191265,-2.0610688,-0.6946565,2.4427481,-13.7522240,2.8945751,0.3639168,-25.6106873,17.2671757,244.3129730
7710,-0.2466015,1.9823889,9.8449068,-0.7022901,-0.4809160,2.8549619,-11.6740675,1.8961980,2.8203552,-47.6412201,29.6946564,250.1297760
7720,-0.2059003,2.0446377,9.7826586,-0.0687023,0.5419847,3.0839694,-10.0532017,1.1444225,4.8506279,-54.1221390,46.1908379,250.1297760
7730,-0.1843526,2.0877333,9.3995876,-1.7633588,-0.4427481,1.6488550,-2.7389526,-0.6009415,6.7037306,-1.0458015,34.0076332,250.1297760
7740,-0.2130829,1.7884595,10.1058741,0.5267175,1.1068702,1.0000000,3.1866663,-0.7876883,4.9823084,28.5954189,6.9923663,250.1297760
7750,-0.2226596,2.0326669,9.9119444,4.7099237,-2.1908398,2.2519083,3.9863255,0.3256098,3.3782012,35.8015251,2.0076337,250.1297760
7760,-0.0622489,2.1404054,9.6437950,4.9083967,-1.8702290,2.0916030,3.6128318,0.4141948,2.0590029,33.7557259,9.6564884,250.1297760
7770,-0.1268920,2.2002602,9.3421268,3.8091602,-1.3435115,1.6412214,1.7549409,0.4692611,0.9265513,26.0687027,34.2900772,250.1297760
7780,-0.0694315,2.2601149,9.1410151,1.7938931,-0.8091603,0.7480916,-0.1628049,0.6967092,-0.1819584,17.8015270,60.1908379,250.1297760
7790,-0.1292862,2.1954718,9.1098909,-0.8015267,-0.7786260,-0.1755725,-0.7014975,0.0574605,-1.1085097,6.8473282,85.9465637,250.1297760
7800,-0.1053443,2.0925217,9.3756456,-3.6870229,-0.0916031,-0.2061069,1.8507085,-1.6041069,-1.1468167,-6.2519083,95.4580154,250.1297760
7810,-0.0742199,1.9895715,9.6773138,-4.9847326,0.7709923,-0.0152672,6.7635851,-2.7030399,-0.4620786,-14.0152674,77.7709961,250.1297760
7820,-0.0526722,1.9081690,9.8784256,-4.7862597,1.4885496,0.4732825,12.7490587,-2.1188576,0.5698171,-21.0916023,53.9083977,250.1297760
7830,-0.0119709,1.7477583,10.0292597,-3.6106870,1.7251909,0.9236641,17.1088772,-0.6512195,1.9081690,-28.7022896,40.4274826,223.4427490
7840,0.0095768,1.7238164,10.0316534,-2.4961832,1.1908396,1.7251909,19.6126022,1.1731528,3.8929520,-27.3282452,38.0076332,154.6183167
7850,0.1436514,1.7094513,9.9550400,-1.4503816,0.0152672,2.3129771,19.6126022,3.2010312,5.8513989,-11.0305347,38.3740463,85.3435135
7860,0.2705434,1.6879035,9.8903971,-0.7251908,-0.2748092,0.9160305,19.6126022,4.2975702,6.0812411,16.8625946,39.3435097,10.4809160
7870,0.2394189,1.6879035,9.7706871,-0.1603053,-0.3816794,0.2519084,19.6126022,3.7181761,2.0637913,48.9847336,48.7022896,-170.9007568
7880,0.0885850,1.8985922,9.7371683,-0.4503817,-0.3587786,0.2213740,19.6126022,3.1962428,0.6009415,39.0610695,34.7633591,-250.1374054
7890,0.0071826,1.8770446,9.6749191,-0.6488550,-0.7404580,-0.3206107,19.6126022,2.0997043,-0.3902529,12.6793890,-0.7709923,-250.1374054
7900,-0.0574605,1.9823889,9.7323799,-0.4809160,-1.0076336,0.1908397,16.6803188,0.1699875,-0.6727672,-22.4656487,-47.0916023,-250.1374054
7910,-0.1436514,2.0590029,9.6006994,-0.7022901,-0.3664122,0.9160305,12.7418766,-2.8754215,-0.0861908,-62.7328262,-95.7099228,-250.1374054
7920,-0.2561783,2.1260402,9.6916790,-0.5267175,-0.3664122,1.0381680,9.8736372,-6.6462698,0.8140244,-100.3206100,-143.3664093,-250.1374054
7930,-0.2896969,2.2002602,9.6844959,-0.6030535,-0.1297710,1.2061069,7.3357964,-10.7834291,2.1284344,-136.9694672,-178.7786255,-250.1374054
7940,-0.2657550,2.1978660,9.6892843,-0.1603053,-0.1374046,1.2366412,4.5824785,-15.3898497,3.3662305,-171.4045868,-185.0610657,-250.1374054
7950,-0.2777260,2.2002602,9.6102762,-0.4503817,-1.0305344,1.5190840,1.4413021,-19.6131992,4.4316444,-194.7786255,-151.1603088,-250.1374054
7960,-0.3375807,2.1595588,9.6797075,-0.7709923,-1.0687023,1.2900764,-5.9375896,-19.6131992,5.7436604,-199.1755676,-87.3587799,-250.1374054
7970,-0.3543400,2.1092808,9.5767574,-1.7022901,-1.1603054,1.4732825,-14.4728756,-19.6131992,7.1897511,-186.9007568,-20.8549614,-250.1374054
7980,-0.2801202,1.9680238,9.6940727,-1.5954199,-0.6946565,1.4503816,-19.6131992,-19.6131992,10.5272512,-156.8702240,-7.5954199,-250.1374054
7990,-0.2753318,1.9680238,9.7874460,-1.6259542,-0.9618320,1.9083970,-19.6131992,-16.5199070,15.4353390,-113.7404556,-87.2442780,-250.1374054
8000,-0.0526722,1.9225341,9.7371683,-1.7404580,-0.5954198,2.4580152,-19.6131992,-1.9225341,19.6126022,-88.3740463,-228.3511505,-250.1374054
8010,0.2370248,1.8770446,9.9167328,-1.1221374,-0.4961832,1.4732825,-19.6131992,6.2847471,19.6126022,-87.2824402,-250.1374054,-250.1374054
8020,0.2489957,1.8100072,9.8544836,0.1679389,-0.7404580,0.2213740,-19.6131992,3.5146701,19.6126022,-66.5725174,-250.1374054,-5.8625956
8030,0.2609667,1.8483143,9.6605549,0.0992366,-0.1908397,-0.7557252,-19.6131992,-1.5610116,17.8319225,-12.7175570,-250.1374054,127.7099228
8040,0.2035061,1.8866212,9.7587166,-0.3358779,0.4274809,-1.2595420,-11.9805241,-4.0701222,13.1297350,43.9236641,-190.5114441,145.1755676
8050,0.1867468,1.8339491,9.7371683,-0.2977099,0.5267175,-1.6030535,-3.7349355,-4.4124913,9.3995876,79.2213745,-36.4885483,120.2061081
8060,0.0861908,1.9368993,9.8042059,-0.3664122,1.7862595,-1.8473282,-0.9097920,-1.8650736,6.0525107,93.1603088,118.0763321,86.5648880
8070,-0.0287303,1.9823889,9.7467451,-0.2061069,2.0381680,-2.6946564,-6.5959921,2.7413468,3.9312592,50.7938919,250.1297760,35.2366409
8080,-0.1077385,2.0757623,9.6773138,-0.1603053,2.3435113,-2.7480917,-9.9430685,3.5386121,4.9559722,14.7633591,236.8473358,26.7862587
8090,-0.1939293,2.0901275,9.7754755,0.6641222,1.6870229,-2.6717558,-11.3939476,3.6894460,6.4691000,-14.2290077,161.3816833,26.3435116
8100,-0.3208214,1.9871773,9.6677370,0.8854962,1.0534351,-2.5801528,-10.7930059,2.9520357,7.5776095,-29.8091602,77.3664093,27.2824421
8110,-0.3543400,2.0661855,9.6102762,0.5648855,0.9007633,-2.1755726,-8.8608952,2.0398495,8.1115141,-32.7709923,8.1603050,23.1068707
8120,-0.3902529,2.0230901,9.6030941,0.1526718,0.5343512,-1.1374046,-6.7564025,1.1731528,8.3102312,-25.7786255,-32.4656487,12.5190840
8130,-0.3327923,2.0039365,9.5504217,-0.2290076,0.5190840,-0.4198473,-5.1810260,0.7541697,8.3461447,-12.5648851,-47.5725174,-1.5954199
8140,-0.1364688,1.8578910,9.6126709,-0.9007633,0.3587786,0.3358779,-4.3765783,0.5051740,7.6470413,20.6946564,-23.1221371,-24.1755733
8150,-0.0191535,1.8770446,9.8808203,-1.5267175,-0.6488550,1.4656489,-5.7676024,0.8212070,5.7795734,53.1526718,34.3740463,-35.5419846
8160,-0.0263361,1.9776005,9.9071560,-0.0839695,-3.1603053,1.4122137,-6.2464404,0.8427547,5.2983413,53.4809151,42.5648842,-36.1984749
8170,0.0359128,1.9799947,9.7658987,1.5190840,-6.7480917,0.6946565,-6.8401995,0.9433106,4.9847026,50.0381660,43.9618340,-36.7938919
8180,0.0215477,2.2409613,9.3062143,0.2290076,-11.4122133,-2.1679389,-7.3453732,1.0342898,5.0301919,39.5648842,33.9236641,-35.0381660
8190,-0.0766141,1.9057748,9.4355011,-1.4351145,-7.5877862,-2.6412213,-7.2567883,0.9002152,5.0852585,35.4732819,28.5190830,-33.8244286
8200,0.0454896,2.0518203,9.6150646,-3.0763359,-5.0381680,-2.1297710,-7.1107426,0.8379663,5.2265158,32.8931313,24.1526718,-36.2671738
8210,-0.0766141,2.1044924,9.6749191,-3.7709923,-4.0687022,-2.4580152,-7.2591825,0.8499373,5.3941088,31.6488552,20.8167934,-39.3587799
8220,-0.2178712,1.8842272,9.7419567,-3.3358779,-4.1145039,-2.0381680,-7.4555058,0.9696468,5.4156566,31.3664131,17.4656487,-42.5190849
8230,-0.3495516,1.8124014,9.7515335,-2.4122138,-3.4351146,-0.2442748,-7.6230993,0.9217629,5.4084740,32.1297722,16.2137413,-44.5496178
8240,-0.4118006,1.8147956,9.8856087,-2.6946564,-2.2442749,1.7328244,-7.8936424,1.0582317,5.3821378,32.8091621,14.7404585,-46.9771004
8250,-0.3423691,1.7693061,10.0244713,-1.9083970,-1.6106870,3.3435113,-8.2791071,1.2904681,5.5281835,32.8931313,12.0229006,-48.2061081
8260,-0.1747758,1.9033806,9.8999729,0.1145038,1.2213740,4.9541984,-8.9542685,1.2880739,5.2624283,31.2900772,4.9465647,-48.4045792
8270,-0.0885850,1.9608412,9.7587166,0.6946565,0.4732825,4.9007635,-9.3708572,1.3766589,5.1570840,30.5190830,2.7480917,-48.7251892
8280,0.0694315,2.0398495,9.6653433,1.0534351,0.0076336,4.0381680,-9.9837704,1.6352314,5.1068063,28.8396950,-0.4351145,-48.7328262
8290,0.4070122,2.0757623,9.5073261,0.0687023,0.1374046,1.9389313,-10.7451220,1.3790531,5.0661049,22.0916023,-1.8091604,-44.0381660
8300,0.3303981,1.8578910,9.8616667,0.0458015,-1.4961832,-4.4427481,-14.9229832,0.2561783,6.3278427,17.9618320,20.4122143,-36.2213745
8310,0.2825144,1.8171898,9.7850523,0.4427481,-1.1908396,-5.0152674,-17.5781384,0.4860204,6.5840211,17.2137413,21.3587780,-24.2824421
8320,-0.0071826,1.8938038,9.8377247,-0.0916031,-0.0076336,-4.8931298,-19.6131992,0.7996593,6.8042865,14.9847326,15.6793890,-2.3358779
8330,0.0550664,1.9057748,9.8281479,0.0458015,1.3282443,-4.6030536,-19.6131992,1.0821736,7.1227136,12.6641226,3.3511450,30.4427490
8340,-0.2154770,2.0206959,9.8592720,0.7022901,1.7251909,-4.3053436,-19.6131992,1.3431402,7.4986014,11.3282442,-14.7786255,71.7786255
8350,-0.3184272,2.1380112,9.6988611,1.6870229,0.9618320,-3.7175572,-19.6131992,1.2114599,7.3621325,11.1221371,-33.2290077,119.4656525
8360,-0.3998296,2.2361729,9.5192976,1.9083970,0.4885496,-3.2213740,-19.6131992,0.6751614,7.4124107,12.7786255,-44.7480927,162.7938995
8370,-0.4716553,2.2984219,9.3995876,0.9007633,-0.1908397,-2.9312978,-19.4599724,0.3615226,7.3717093,16.4198475,-49.0152664,201.4427490
8380,-0.4525018,2.2313845,9.2726955,-0.3816794,-0.6717557,-2.3206108,-16.9412842,-0.1101327,7.2232695,23.0458012,-44.2977104,231.4580078
8390,-0.4525018,2.1739240,9.3469152,-2.0687022,-1.0305344,-1.4656489,-14.6428623,-0.2825144,6.8066807,31.1145039,-28.0839691,250.1297760
8400,-0.4501076,2.0805507,9.5049324,-3.5801528,-1.1603054,-0.0305344,-13.0076313,-0.2394189,6.2488346,38.0152664,-6.2900763,250.1297760
8410,-0.2729376,1.9249283,9.7108326,-3.9847329,-1.2519084,1.3129771,-12.3779593,0.0359128,5.7245069,42.0458031,16.7175579,250.1297760
8420,-0.1053443,1.8842272,9.9334917,-3.3053436,-1.0916030,2.3053436,-12.1529055,0.2681492,5.3174949,42.8091621,33.6488533,250.1297760
8430,0.0143651,1.7956421,10.1082678,-2.0839694,-1.3816794,2.9618320,-11.7674408,0.4046180,4.8434453,40.3740463,40.9847336,250.1297760
8440,0.0957676,1.7094513,10.0412302,-0.5648855,-2.1450381,3.5648854,-10.4697905,0.1221037,4.4699516,35.3664131,41.0534363,250.1297760
8450,0.4453192,1.8291607,9.6366129,-0.1603053,-1.6259542,2.4198472,-3.8283088,-0.8259954,3.8618276,19.3816795,42.2137413,250.1297760
8460,0.3351865,1.8650736,9.6246414,-1.0763359,-0.8091603,1.6030535,-1.8315549,-0.7302278,4.1587071,17.9083977,52.1297722,250.1297760
8470,0.2442073,1.9273225,9.6701307,-1.8702290,-0.2213740,0.7251908,-0.1053443,-0.6272776,4.6734576,20.1450386,64.0000000,250.1297760
8480,-0.0981618,2.1427996,9.7275915,-0.5725191,-0.2366412,0.9847328,7.0484939,0.8571198,5.2217274,90.7404556,110.7709961,245.5954132
8490,-0.1484398,2.0685797,9.5863342,-1.0000000,-0.1526718,1.1297710,8.2815018,1.3766589,4.5848727,103.6564865,109.6793900,217.5190887
8500,-0.0742199,1.9345051,9.6437950,-1.9465649,-0.0839695,0.8167939,10.5080976,2.2218077,1.3551112,104.9007645,71.6335907,142.9694672
8510,-0.0383070,1.9728121,9.6270361,-2.0687022,-0.0763359,0.6717557,11.2502966,2.6336083,-0.3854645,89.7786255,49.7557259,100.1832047
8520,0.0933734,1.9680238,9.8065996,-1.9236641,0.0610687,0.3435115,11.5783005,2.9185169,-1.6304430,64.6335907,29.5343513,57.2671738
8530,0.1029501,1.8602852,9.7898407,-1.9007634,0.0916031,-0.2671756,11.8991213,3.0310438,-2.4396791,35.0152664,8.9923668,12.5648851
8540,0.2202654,1.8315549,9.8712435,-0.9389313,0.5114504,-1.3282443,12.0571384,3.3111639,-1.9656296,-21.8854961,-21.7328243,-75.5267181
8550,0.1963235,1.8459201,9.7563219,-0.8931298,0.8549618,-1.5801526,11.5519638,2.8371146,-1.3024391,-43.1221390,-29.1450386,-118.4961853
8560,0.1675933,1.9321109,9.8161764,-0.4580153,0.5267175,-2.6412213,11.2239599,2.3319404,-0.7637464,-58.7786255,-34.4122124,-157.2595367
8570,0.1029501,1.8650736,9.7754755,-0.2671756,1.2519084,-2.9923663,11.5088692,1.9991482,-0.3184272,-69.6946564,-40.5267181,-198.5190887
8580,-0.0263361,1.9392935,9.6821022,-0.2977099,1.4503816,-2.8625953,12.1505117,1.4556671,-0.0814024,-77.4885483,-49.6946564,-245.4656525
8590,-0.1388630,1.9560528,9.7228031,-0.4809160,1.6488550,-2.2519083,13.5391417,0.7661406,-0.3208214,-85.9389343,-50.8015251,-250.1374054
8600,-0.3040621,1.9823889,9.7635050,-0.7557252,1.7480916,-1.3893130,14.7098999,-1.1587877,-0.2992737,-98.0152664,-44.8396950,-250.1374054
8610,-0.2849085,1.9704180,9.7228031,-0.5496183,1.1832061,-0.1755725,14.9565020,-4.3693957,0.1508339,-113.5725174,-33.3816795,-250.1374054
8620,-0.2609667,1.9967541,9.7012558,-0.1984733,0.8625954,0.4045801,12.3228931,-9.5552101,1.3886299,-128.9389343,-14.0152674,-250.1374054
8630,-0.3926471,1.9608412,9.6509781,-0.3587786,1.8702290,1.8167939,1.8842272,-16.8383350,3.5769191,-133.6412201,-12.9007635,-250.1374054
8640,-0.3303981,2.0183017,9.6701307,-0.6641222,1.1908396,2.9694657,-11.9948893,-19.6131992,4.8961172,-120.0916061,-75.0610657,-250.1374054
8650,-0.1244979,1.9440818,9.7539282,-0.8625954,0.3206107,3.7862597,-19.6131992,-19.4743366,5.1929970,-112.1984711,-206.8244324,-250.1374054
8660,-0.0957676,1.8818330,9.7946291,-0.4198473,0.9007633,3.3664122,-19.6131992,-13.8455973,4.4962878,-158.8702240,-250.1374054,-250.1374054
8670,0.0478838,1.9177457,9.7587166,-0.0916031,0.5267175,3.0305343,-19.6131992,-4.4938936,7.4028339,-250.1374054,-250.1374054,-250.1374054
8680,0.1101327,1.8938038,9.8568783,-0.0152672,1.3435115,2.3282442,-19.6131992,4.6351509,16.6013088,-250.1374054,-250.1374054,-250.1374054
8690,0.1460456,1.9009864,9.8113880,0.1221374,1.1450381,1.2748091,-19.6131992,1.1851238,19.6126022,-250.1374054,-250.1374054,-54.8931313
8700,0.1723816,1.9225341,9.9717989,0.8167939,0.8091603,0.2442748,-19.6131992,-6.1626434,19.6126022,-250.1374054,-250.1374054,122.8549652
8710,0.1197095,1.9752063,9.7491398,1.6717557,-0.3129771,-0.6488550,-19.6131992,-6.9646969,19.6126022,-133.0152740,-194.0000000,208.1221313
8720,0.1077385,1.9704180,9.6677370,1.9847329,-0.7786260,-1.3358779,-11.2957859,-5.8442163,19.6126022,16.3969460,-7.5190840,232.6335907
8730,0.0095768,2.0135133,9.6150646,1.9160305,-1.0076336,-1.5343511,-4.2808108,-3.8067613,19.6126022,138.4809113,191.9770966,225.5648804
8740,-0.0239419,2.0590029,9.6581602,1.5801526,-0.8778626,-1.7633588,-2.3103929,-2.2625091,14.4273853,209.4427490,250.1297760,207.6335907
8750,-0.1604107,2.0494261,9.5815458,1.2519084,-0.9694657,-1.8244275,-2.0398495,-0.6296718,10.0053177,234.9084015,250.1297760,178.1374054
8760,-0.0837966,2.0494261,9.6701307,0.8931298,-0.8167939,-1.5038168,-1.9991482,0.9840119,6.9479380,229.8244324,250.1297760,135.3893127
8770,-0.1556223,2.0254843,9.6940727,0.6793893,-0.8625954,-1.1526718,-2.2098370,1.8866212,4.4603748,206.9541931,217.6717529,86.8015289
8780,-0.1364688,2.0494261,9.7084379,1.1145039,-1.7251909,-0.8931298,-2.5522060,2.2361729,2.0446377,170.1679382,127.5190811,38.3282433
8790,-0.1484398,1.9991482,9.6605549,1.3816794,-2.9083970,-0.7251908,-2.8299320,2.3223639,0.6224893,124.3587799,51.6793900,-1.2977099
8800,-0.0646431,1.9512644,9.6366129,1.9007634,-4.2824426,-0.5038168,-3.2752512,2.2553265,0.0263361,76.4732819,-10.3282442,-33.0992355
8810,0.0263361,2.0542145,9.5360565,1.4503816,-4.9923663,-0.8320611,-4.2688398,2.1499822,0.6057299,40.7404594,-56.5954208,-56.2137413
8820,0.1125269,1.9752063,9.5671806,0.7175573,-3.8320611,-0.7938932,-5.4204450,2.1308286,1.1755470,18.3740463,-85.2977066,-70.9007645
8830,0.1221037,1.9057748,9.5863342,-1.2061069,-0.9007633,0.0916031,-6.4283986,2.0661855,1.7764885,2.8549619,-105.6030502,-77.9389343
8840,0.0766141,1.9033806,9.5911226,-3.2366412,1.2900764,0.6106870,-7.2591825,2.0374553,2.1092808,-9.9465647,-116.1068726,-77.6793900
8850,0.1795642,1.8243724,9.6892843,-3.9847329,2.0076337,0.4809160,-7.6254935,2.0111191,2.2313845,-22.1068707,-112.7786255,-72.7709961
8860,0.0383070,1.8387375,9.6414013,-3.7709923,1.6870229,0.1603053,-7.9367380,1.9177457,2.6144550,-32.4809151,-90.5954208,-60.9083977
8870,0.0766141,1.8267666,9.7156210,-4.3664122,0.5190840,0.2290076,-8.3844519,1.8387375,3.2896163,-38.8625946,-51.8549614,-43.8931313
8880,0.0239419,1.7932479,9.8089943,-4.6106873,-0.3358779,0.4198473,-8.8369532,1.6424140,4.3167233,-39.9312973,-5.6259542,-24.3511448
8890,-0.0861908,1.8100072,10.0005293,-3.9618320,-0.3053435,0.6030535,-8.8034344,1.3838415,5.3366485,-35.6030540,32.1297722,-7.5572519
8900,-0.1723816,1.8890154,10.1824875,-1.9694656,-1.0152671,0.7862595,-8.5975342,1.0366840,5.9447722,-28.7480907,53.3511467,1.6335878
8910,-0.2130829,2.2768741,9.5240860,3.9312978,0.6564885,3.0229008,-7.4219875,1.3814473,7.0604649,-9.5267172,20.2900772,-10.4198475
8920,-0.1005560,2.3103929,9.1505919,2.7938931,0.8778626,2.7328243,-7.2831244,1.2761030,6.9718795,-6.0916033,2.6870229,-19.2977104
