timestamp,rxacclX,rxacclY,rxacclZ,rxgyroX,rxgyroY,rxgyroZ,txacclX,txacclY,txacclZ,txgyroX,txgyroY,txgyroZ
0,3.9528067,11.5735121,3.2249732,6.3358779,-47.0687027,125.4427490,-0.3471575,1.1300575,11.4298601,6.0152674,-10.9541988,-21.8473282
10,5.2887645,11.3700056,4.8123207,-0.0458015,-50.5267181,112.6717529,-0.4644727,1.1635761,11.2790270,11.5725193,-11.3282442,-24.1221371
20,5.5832496,10.9582052,5.9567432,2.4045801,-33.7099228,94.0687027,-0.4716553,1.2784972,10.9701757,14.2900763,-11.0152674,-27.5648861
30,4.6447277,10.9821472,6.1243367,4.4045801,-5.9541984,84.6946564,-0.5243275,1.5011568,10.7762470,14.9923668,-11.3053436,-30.0534344
40,4.0054789,10.8696203,5.7915444,6.9770994,9.3969469,71.8625946,-0.7134684,1.6304430,10.7163916,15.2900763,-12.5038166,-33.5572510
50,2.9017577,10.4554253,5.4731169,4.6488547,15.5572519,63.2290077,-0.8714849,1.7094513,10.4578199,14.5038166,-13.7099237,-36.7938919
60,2.3151813,10.1274214,5.3534074,2.8244274,25.6183205,61.3206100,-1.1683644,1.8387375,10.4195127,13.1984730,-14.9541988,-38.3664131
70,2.1020982,9.5264797,5.3055239,0.9465649,29.9160309,63.5038185,-1.4341195,2.0015423,10.4123297,11.7938929,-16.6870232,-39.2748108
80,1.7286048,9.4642305,4.6112089,-2.5343511,27.4503822,64.1908417,-1.5849534,2.0925217,10.3979645,10.9770994,-17.7175579,-39.1221390
90,1.3862357,9.1697454,4.4627690,-6.9618320,10.5877867,62.0992355,-1.6615674,2.1260402,10.3835993,10.3435116,-18.7633591,-38.6106873
100,1.3742647,8.5304966,4.9416070,-9.1908398,-8.1145039,61.3664131,-1.6615674,2.1427996,10.3716288,10.2900763,-19.1145039,-38.2748108
110,1.4796091,8.5257082,5.4707227,-4.2137403,-15.9083967,60.2290077,-1.6950861,2.0925217,10.2710724,9.7251911,-19.5267181,-38.7099228
120,2.4516499,8.2288294,5.9136481,3.0687022,-16.0534344,56.7633591,-1.6807210,2.2409613,10.2351599,7.6717558,-21.2213745,-39.1145020
130,3.1675127,8.3245964,5.8370337,12.0458012,-9.4580154,45.5190849,-1.8914096,2.0590029,10.6206245,7.4732823,-22.6183205,-37.8473282
140,2.5450234,8.4155760,5.2073622,17.5190830,-3.1297710,31.6717548,-1.7573351,2.1236460,10.6110477,7.8396945,-23.5572510,-36.8625946
150,2.8012016,8.5448618,5.0014620,19.8778629,-4.8091602,17.6335869,-1.6376256,1.9871773,10.6421719,7.0687022,-25.3358784,-37.3358765
160,2.3199697,7.5129666,3.8402798,7.6183205,22.7099228,-3.0839694,-1.5011568,1.8267666,10.7044210,6.6259542,-28.1984730,-36.3740463
170,1.9512644,7.3836803,3.4141142,-3.8625953,44.7709923,-4.1755724,-1.3670821,1.7932479,10.8552551,7.9083967,-29.4580154,-37.7938919
180,0.6009415,7.0604649,3.0430148,-14.0916033,69.3816757,-2.1221373,-1.2593436,1.7621235,10.7403336,8.5114508,-31.7480907,-38.5954208
190,1.0151364,7.0269461,2.8873925,-22.6717548,72.2061081,1.0305344,-1.1947005,1.5873476,10.5176744,8.6870232,-32.9694672,-38.6641235
200,-0.0478838,6.9455438,2.6910689,-34.6183205,81.1221390,6.9083967,-1.1252691,1.5203103,10.5200682,8.9465647,-33.6488533,-39.3587799
210,0.0502780,7.0437055,3.3494711,-45.5496178,80.5877838,20.2213745,-0.9576758,1.5059452,10.2974091,8.5648851,-34.2366409,-40.5725174
220,1.4676381,7.4387465,3.5721307,-54.1068687,85.3358765,26.3435116,-0.8044477,1.4700323,10.3045912,7.6183205,-34.2900772,-42.7633591
230,1.9081690,7.7140784,3.8474624,-59.7786255,87.8931274,24.4961834,-0.6584021,1.4604555,10.1465750,6.1908398,-33.5801544,-46.3816795
240,2.0781565,8.1546097,4.4005203,-62.5419846,71.3053436,21.1679382,-0.7565638,1.5083394,10.3500814,5.1755724,-33.5190849,-50.8854980
250,2.2577207,8.0181408,5.0254035,-60.5267181,49.2748108,15.4580154,-1.0965388,1.5873476,10.3189564,4.3358779,-34.5114517,-55.2442741
260,2.2625091,7.6398587,5.9375896,-53.3740463,26.7862587,9.7099237,-1.4101776,1.8124014,10.3500814,2.6641221,-37.3587799,-58.5648842
270,2.3103929,7.4459291,6.7635851,-40.9541969,0.7404580,5.4198475,-1.8171898,1.9297167,10.3428984,0.3587786,-41.7633591,-60.6717567
280,1.9584470,7.2424231,6.8042865,-28.6488552,-22.9923668,4.7709923,-2.0494261,2.1308286,10.4195127,-2.6946564,-46.4961815,-61.7251892
290,2.0087249,7.6542239,6.9431496,-18.3740463,-37.3893127,5.4351144,-2.1547706,2.2409613,10.7355452,-5.3969464,-49.4503822,-62.5725174
300,1.8961980,7.5393028,7.0245519,-10.3282442,-47.7022896,7.6335878,-2.3582766,2.2696917,10.9534168,-6.5801525,-51.0458031,-61.7633591
310,2.0781565,7.4938130,6.8138633,-5.6717558,-52.6412201,12.0229006,-2.3798244,2.2649033,11.0803089,-5.4656487,-51.8702278,-60.6641235
320,1.9967541,7.9151902,6.8569584,-3.3435113,-46.6564903,17.9618320,-2.4636209,2.4947455,11.2790270,-2.8931298,-51.0687027,-59.1374054
330,2.3151813,7.8122401,6.5840211,-4.3969464,-49.3206100,20.3969460,-2.6240315,2.6336083,11.4346485,0.4732825,-49.5572510,-57.7557259
340,2.6288199,8.0779953,6.4116392,-5.7862597,-46.5648842,20.3206100,-2.6838863,2.7916248,11.5352049,5.0458016,-48.1374054,-55.4122124
350,3.4093258,8.4131813,6.8186517,-5.6946564,-42.3893127,18.4885502,-2.8442972,3.0047078,11.5759058,10.4274807,-46.7251892,-52.0000000
360,4.1132174,8.6813307,7.6207051,-2.4351146,-30.5648861,13.3511448,-2.9185169,3.1651185,11.3676119,16.9618320,-44.4045792,-46.6717567
370,4.4867110,8.5209198,7.7954807,6.2366414,-15.1603050,4.2442746,-2.8107784,3.3039815,11.1688938,23.6793900,-41.9465637,-40.9083977
380,4.3119354,8.3533268,8.0325060,15.2213745,-4.0534353,-4.3129773,-2.7054341,3.5386121,10.7690639,29.0076332,-37.8320618,-35.1374054
390,3.4572096,8.4610653,7.5297260,23.1832066,2.9389312,-11.4809160,-2.5067163,3.6295912,10.3548698,31.9541988,-34.7786255,-28.9847336
400,3.1220231,8.7292147,7.0437055,28.3664131,-0.0458015,-18.5801525,-2.2936335,3.8307030,9.9310980,31.8625946,-35.1068687,-22.9007626
410,2.4396791,8.7747040,7.4674768,33.1908379,3.7709923,-19.9694653,-2.0111191,3.9480183,9.5336628,29.0610695,-39.1450386,-19.4503822
420,1.9153515,8.7651272,7.5800037,39.2671738,-0.2595420,-16.6106873,-1.7597293,4.0413918,9.2559366,24.6335869,-48.2519073,-15.9923668
430,1.8507085,8.7100611,7.6278877,49.8702278,-6.6564884,-17.3969460,-1.6136837,4.0844874,9.2128410,18.3816795,-61.2442741,-13.0076332
440,2.2194135,8.7507620,7.5560617,58.8320618,-12.4427481,-19.1755733,-1.1947005,4.2975702,9.2870607,13.7175570,-69.9083939,-9.4427481
450,2.3151813,8.7316093,7.0269461,66.4274826,-17.9694653,-22.0152664,-0.5267217,4.2448978,9.3445215,12.4274807,-69.7099228,-5.1603055
460,2.9568241,8.7100611,6.4307928,68.3740463,-12.3587790,-25.3664131,0.0814024,4.0461802,9.4977493,16.3435116,-61.4885483,-2.4580152
470,3.7876077,9.0931320,5.2743993,64.7557220,-11.5801525,-33.4274826,0.5458752,3.9144998,9.3229742,21.8702297,-51.5572510,-0.5954198
480,3.0166788,9.7658987,4.1754665,49.2519073,2.2748091,-55.7557259,1.0055596,4.0629396,8.6382351,30.5801525,-24.4809170,5.4732823
490,2.8012016,9.5121145,4.0030847,43.7022896,2.7709923,-64.0152664,0.9145803,4.0629396,8.4107876,30.5190830,-9.9923668,8.8244276
500,2.0781565,9.4738073,4.3478479,42.8854980,-0.4503817,-71.6870193,0.6057299,3.9001346,8.2599535,26.8091602,2.7022901,13.2442751
510,2.5402350,8.3772688,4.5561423,41.4580154,-20.5725193,-78.5190811,0.4620786,3.7852135,8.5233145,18.8396950,10.5190840,17.9770985
520,0.3351865,9.2056589,3.5003049,28.9847336,-59.7633591,-90.5725174,1.1348459,2.3343346,11.1760759,-12.9007635,-8.9007635,12.7938929
530,-2.8442972,11.0635490,4.0701222,29.1145039,-30.6106873,-76.0381699,1.4053892,2.0206959,11.9206696,-14.8320608,-14.3053436,4.8625956
540,-2.2433555,10.3117743,4.6758518,32.7175560,-31.3740463,-49.5038185,1.3455344,1.7788827,12.4856977,-13.1679392,-15.7786255,-3.1526718
550,-1.1803354,9.3421268,4.3310885,36.0228996,-21.7328243,-29.2137413,0.9265513,1.6304430,12.7921543,-7.3587785,-15.6106873,-11.0916033
560,-0.2753318,8.8273764,4.3478479,39.0839691,-24.3664131,-22.3358784,0.4692611,1.6208663,13.1201582,1.4961832,-16.7099228,-17.7022896
570,0.0957676,9.2200232,3.9839313,40.7480927,-30.0916023,-23.5725193,-0.1628049,1.8507085,13.0579090,11.0000000,-17.0916023,-21.6106873
580,0.1987177,9.5025377,3.8450682,41.5190849,-37.8244286,-28.3740463,-0.7421987,2.0494261,12.6915979,20.6564884,-15.8702288,-23.2824421
590,0.2346306,9.3205795,3.6966286,40.9160309,-42.3435097,-33.3969460,-1.1779412,2.4085546,12.4162664,28.9236641,-11.6717558,-22.5496178
600,0.0718257,9.1314383,3.5649481,39.2595406,-40.6641235,-38.0152664,-1.7046629,2.8012016,12.0403786,36.2977104,-7.8091602,-19.2671757
610,-0.1005560,9.0332766,3.5410061,36.7709923,-34.4122124,-41.7099228,-2.0206959,3.1435707,11.5375986,42.7099228,-4.3664122,-14.1679392
620,-0.4764437,8.9399033,3.2632802,33.6870232,-24.8778629,-44.5954208,-2.2194135,3.4332676,11.1257982,47.5267181,-3.8244274,-8.1908398
630,-0.8307837,8.8824425,2.9855542,30.0381680,-15.1679392,-46.1374054,-2.3199697,3.6511390,10.7618818,49.9160309,-4.4274807,-3.0305343
640,-1.1803354,8.8680773,2.6695213,25.0076332,-2.7022901,-45.5725174,-2.2122312,3.8378856,10.3620520,51.1984749,-4.1374044,1.6106870
650,-1.7022687,9.2846670,2.1236460,12.5267172,15.8854961,-44.3816795,-1.9680238,4.1778607,9.4474716,50.6259537,-1.0152671,8.6183205
660,-1.8411317,7.8697009,2.9735832,2.0534351,-39.8015251,-40.9694672,-1.3646880,4.4579806,8.9710283,32.6335869,16.0534344,27.8167934
670,-1.3096216,7.5009956,3.6128318,8.9923668,-60.3969460,-33.1297722,-1.3766589,4.2592630,9.1553802,30.8854961,20.2671757,31.2595425
680,-1.0773853,6.8090749,3.9288650,19.0381680,-76.6488571,-21.7022896,-1.0821736,4.1012464,9.5049324,30.7786255,26.5648861,35.6793900
690,-0.7421987,6.8449879,3.8378856,27.2977104,-86.8396912,-9.7709923,-0.8499373,3.9049230,9.8329363,33.8473282,35.5114517,38.7404594
700,-0.2106887,7.2208753,3.6750808,31.7557259,-83.0305328,4.5190840,-0.6703730,3.8666160,10.0077124,39.5267181,44.5725174,42.2900772
710,0.8307837,7.1514440,3.1411765,30.3740463,-72.4427490,14.8625956,-0.4884146,3.7421181,10.0532017,46.8320618,54.3129768,46.4045792
720,1.7357874,7.2352405,2.4803803,22.2061062,-59.7786255,20.7938938,-0.1867468,3.6678982,10.0005293,53.1068687,63.3435097,49.2671738
730,2.5785420,7.9415264,2.4684093,3.8702290,-45.8931313,26.7709923,0.1795642,3.7804251,9.6844959,63.2977104,79.6564865,50.4732819
740,-1.7932479,10.5009146,1.1539993,-15.9923668,-8.8778629,-28.9312973,0.7350162,4.7452836,8.7770987,87.4885483,124.4122162,7.9007635
750,-2.0398495,10.8480721,1.7621235,-20.4198475,-10.7557249,-25.6793900,0.0718257,4.7955613,8.8656836,93.5877838,136.4732819,0.2671756
760,-2.1619530,11.3460636,2.4779861,-20.1908398,-13.5419846,-24.0152664,-0.5434810,5.1834202,8.7100611,101.5877838,146.9618378,-2.9770992
770,-2.3606708,12.0140429,3.2034254,-15.0839691,-17.7328243,-23.0534344,-1.0127422,5.5018473,8.5257082,110.7709961,156.0000000,-0.8091603
780,-2.4564383,12.8352499,3.6511390,-7.6946564,-23.0763359,-21.9083977,-1.2186425,5.6694407,7.9726510,118.1145020,166.2290039,4.7251906
790,-2.0159075,13.2590208,4.6159973,-0.0839695,-27.0992374,-22.1526718,-1.2689204,6.0644817,7.4579000,121.8473282,176.1603088,10.7633591
800,-1.8459201,13.7067347,5.4707227,10.6564884,-24.3435116,-22.4427490,-1.2593436,6.5840211,7.1682034,122.2519073,186.0686951,16.6259537
810,-1.1994889,13.9485474,5.3893204,19.9541988,-19.9770985,-22.0305347,-1.6615674,7.0868006,6.8186517,120.7175598,191.6641235,21.1221371
820,-0.7326220,14.0658627,5.1499014,25.4351139,-19.7480907,-25.9618320,-2.1787124,7.3932571,6.4619174,112.5419846,185.3893127,25.8702297
830,-0.4740495,14.1352949,5.4994531,28.3587780,-18.9160309,-32.4351158,-2.2265961,7.5656385,6.1626434,97.2824402,176.8778687,28.5038166
840,-0.2801202,13.8719339,6.0668759,32.2595406,-14.8091602,-38.6564903,-1.9991482,7.6590118,6.4116392,80.4580154,167.2748108,26.8091602
850,-0.1268920,13.5104113,6.4595232,39.3511467,-9.9847326,-46.3206100,-1.9416877,7.6135225,7.0796180,68.5038147,158.5725250,21.6564884
860,-0.1699875,13.0603037,6.4978304,47.9389305,-6.4351144,-54.1297722,-2.0566087,7.4148049,7.8433647,62.9847336,149.5038147,15.4274807
870,-0.3854645,12.4569674,6.4307928,56.5954208,-4.6488547,-61.6335869,-2.4731977,7.2232695,8.2455883,62.9389305,138.2671814,8.5496187
880,-0.6775556,11.9254580,5.8346395,65.3206100,-6.8702292,-69.0534363,-2.8849983,7.1394730,8.2695303,65.7557220,125.5419846,2.2213740
890,-0.8140244,11.2598734,5.4563580,72.1908417,-13.3893127,-76.2595444,-3.3566537,7.1490498,8.1139078,70.1297684,113.3129807,-2.0305343
900,-1.2856797,10.4171181,5.0158267,77.8015289,-22.1450386,-81.7175598,-3.6726866,7.2903070,7.6039457,74.1908417,102.4732819,-3.4961832
910,-1.8890154,9.7802639,4.6207857,81.7786255,-27.2213745,-83.0076370,-3.8283088,7.3788919,6.7923155,76.0381699,96.7862625,-2.8854961
920,-2.4133430,9.0524302,4.2425036,83.5267181,-18.0076332,-78.5877838,-4.1108232,7.3549500,6.4236102,75.8091583,95.5954208,1.4732825
930,-2.6838863,8.3940287,3.8450682,84.9160309,-5.5877862,-68.5267181,-4.2640514,7.4435349,5.8921003,74.6717529,97.2137375,6.6030536
940,-2.1595588,8.1019373,3.5529771,86.4961853,-1.0610687,-61.5648842,-4.3095412,7.3334022,5.5377603,72.6335907,97.7251892,13.1984730
950,-2.0159075,7.5919747,3.1411765,87.2977066,0.6030535,-60.9771004,-4.2377152,7.2256637,5.4683285,70.4732819,95.5648880,18.8625946
960,-1.7693061,6.8234401,2.7820482,85.7633591,6.0381680,-61.2977104,-4.0605454,7.2112985,5.1953912,67.7099228,88.2824402,21.6564884
970,-1.9847831,6.1243367,2.3056045,82.5343475,17.0305347,-58.6259537,-3.8283088,7.0269461,4.8937230,64.0305328,78.4580154,22.1297703
980,-2.6072724,5.1714492,1.3862357,77.9083939,31.1984730,-51.5267181,-3.6080434,7.0293403,4.5178356,58.6946564,65.7328262,18.3969460
990,-2.9496415,5.3629842,0.9816177,73.5801544,36.1832047,-36.8473282,-3.5362179,7.1873569,4.0413918,51.8549614,50.6717567,12.2748089
1000,-3.1435707,4.9751258,0.4932030,66.9542007,32.5038185,-26.4656487,-3.8187323,7.3381906,3.6056492,42.5190849,33.1603050,6.0381680
1010,-3.4236910,4.2425036,-0.4620786,60.3358765,19.9618320,-16.8702297,-3.9264708,7.4938130,3.0669568,30.4580154,14.0458012,1.4198474
1020,-3.7325413,3.5553713,-0.5339043,53.0228996,14.9312973,-5.6412215,-3.9552009,7.6422529,2.6168492,16.1450386,-5.0000000,-2.6335878
1030,-2.6383967,4.1132174,-0.2825144,47.1145020,-2.8167939,13.6106873,-3.8881636,7.5297260,2.1715298,-13.1603050,-30.7328243,-6.0839696
1040,-2.1930776,3.5888901,-0.0814024,46.4351158,-10.8320608,14.6412210,-3.6248028,7.4459291,2.3223639,-23.5496178,-27.4809170,-1.3358779
1050,-2.4277081,2.8826041,-0.2059003,45.2671738,-20.9160309,14.3587790,-3.4069316,7.3429790,2.5953014,-28.1679382,-13.4427481,4.5954199
1060,-2.5138988,2.7988074,0.1915352,41.7022896,-29.5419846,18.2061062,-3.4069316,7.0868006,3.2225790,-25.8244267,4.9236641,13.1145039
1070,-2.4875629,2.7820482,0.4118006,36.4122124,-28.0381680,25.8702297,-3.5817075,6.8425937,3.9887197,-19.0076332,19.2290077,20.7251911
1080,-2.0302727,2.6814921,0.5219333,30.9541988,-17.7099228,35.2900772,-3.3303175,7.0077925,4.2353210,-11.6717558,25.9694653,23.7175579
1090,-1.6807210,4.0509686,-0.0694315,15.2900763,23.0610695,47.4122124,-3.2441268,7.1586266,3.7540891,-3.0763359,21.1374054,19.4198475
1100,-1.8267666,5.1977854,-0.9169745,3.6793892,41.2748108,49.8167953,-3.0501974,7.3046722,3.6008608,-4.1374044,15.2213745,15.2061071
1110,-1.9488702,6.6007805,-1.5777708,-11.7557249,54.5725174,48.1068687,-2.8012016,7.2424231,3.2393384,-8.1755724,9.8549614,7.1145039
1120,-2.2768741,7.8768835,-2.1380112,-30.3664131,63.1374054,44.7099228,-2.4468615,7.4459291,3.0885043,-14.4885492,6.1450381,-4.2595420
1130,-3.0765336,8.8656836,-2.1260402,-49.9618340,66.5954208,43.4351158,-2.4444675,7.6374645,3.2225790,-19.6488552,7.3587785,-18.0229015
1140,-4.0581512,10.6828737,-1.0534433,-64.0381699,64.9465637,48.2977104,-2.9975252,7.6159167,3.5721307,-23.2061062,10.6412210,-30.3358784
1150,-4.7069764,12.1936073,0.0191535,-64.3587799,60.6717567,60.4580154,-3.8474624,7.7404146,3.8857694,-24.4427490,15.3129768,-36.3129768
1160,-3.9121056,13.7067347,1.4484847,-49.6793900,50.7709923,77.4274826,-4.6758518,7.8337879,4.5513539,-22.6488552,23.1908398,-35.9083977
1170,-2.4731977,15.2150736,2.2649033,-21.9770985,36.5343513,91.3893127,-5.2289100,7.8242111,5.1139889,-16.0229015,33.6946564,-30.6946564
1180,-0.6009415,16.4001980,2.0733681,12.7938929,28.4809170,99.6641235,-5.4898763,7.8792777,5.5473371,-6.0229006,43.2442741,-23.0534344
1190,1.3072275,16.9197369,0.7398046,47.1526718,26.8320618,98.4732819,-5.3941088,8.0588417,5.8418221,5.7938933,48.1145020,-17.5496178
1200,2.8131726,16.7928448,-0.7996593,70.5648880,20.6030540,85.2137375,-4.9727316,8.2288294,5.6694407,17.0687027,51.6412201,-16.6564884
1210,3.7588775,16.4385052,-2.7605004,76.8778610,10.1145039,63.4885483,-4.7165532,8.2886839,5.4228392,26.4351139,54.0687027,-18.1679382
1220,3.8714044,15.6149035,-3.8618276,69.1526718,-2.5419848,36.0152664,-4.3693957,8.6118994,5.0828643,32.9618340,56.8931313,-22.5267181
1230,3.1196289,14.4585104,-3.7636659,54.7709923,-16.0916023,10.8167934,-4.3765783,8.5759869,4.8410511,36.9847336,61.3664131,-27.2061062
1240,2.0015423,12.9453821,-2.5737536,40.9618340,-28.7709923,-5.2671757,-4.6399393,8.7747040,4.7021880,37.9236641,67.3816757,-29.9389305
1250,1.0127422,11.2167778,-0.7924767,34.3053436,-41.1068687,-13.1984730,-4.8673873,8.9806042,4.7165532,38.5725174,72.9236679,-30.9541988
1260,0.4094064,9.7850523,0.7110743,36.6412201,-49.9694672,-15.1755724,-5.2360926,9.0955257,4.9703374,40.8931313,77.0076370,-30.4961834
1270,-0.2298422,8.3485384,1.7262106,43.7633591,-51.6259537,-13.6030531,-5.3629842,9.1745338,5.3941088,44.8549614,77.7938919,-30.9160309
1280,-0.6248835,7.3310080,1.7669119,50.3664131,-47.4809151,-10.2977095,-5.5760674,9.2367830,5.4539638,52.0839691,75.2061081,-31.2748089
1290,-0.8619082,6.5050125,1.5298871,52.9923668,-38.9771004,-5.9236641,-5.5401545,9.2152348,5.2672167,60.6335869,75.9083939,-29.9847336
1300,-1.1468167,5.8777351,0.9600700,50.7404594,-29.4580154,-1.2900764,-5.4395986,9.3038206,4.8889351,70.1908417,79.9083939,-27.8473282
1310,-1.3024391,5.1355362,0.4309541,42.7022896,-20.1526718,4.1374044,-5.1451130,9.5145092,4.6351509,81.7099228,84.9236679,-26.4122143
1320,-1.5705882,4.8913293,0.2896969,32.0916023,-12.4274807,10.5572519,-5.1929970,9.4378948,4.0796990,93.1068726,91.3969498,-25.4198475
1330,-1.5131277,4.3215117,0.1604107,21.7328243,-7.4885497,16.2442741,-5.0684991,9.3828287,3.3566537,105.9312973,99.6946564,-24.3435116
1340,-1.4843974,3.8522508,0.0239419,11.8473282,-1.5114504,22.0229015,-5.1211715,9.4929609,2.6048782,115.8778610,109.9007645,-23.4274807
1350,-1.3575054,3.5218527,-0.1867468,2.6030533,5.2900763,27.0076332,-5.7532372,9.3517036,2.1906834,121.2442780,118.8473282,-21.3206100
1360,-1.1923064,3.4021432,-0.6153067,-8.1374044,13.4274807,31.3587780,-6.1267309,9.3277617,2.0757623,123.9389343,124.3893127,-19.6488552
1370,-0.9457048,3.4955165,-1.1204807,-21.2442741,21.0305347,34.4198456,-6.4236102,9.2415714,2.0757623,125.0687027,127.4274826,-16.5267181
1380,-0.4165890,3.6894460,-1.7214222,-37.6641235,28.0229015,35.4732819,-6.4475522,8.8537130,2.4708035,126.9923630,124.4122162,-13.6793890
1390,0.0095768,3.8354914,-1.8219782,-55.5801544,33.5725174,35.1221390,-6.1243367,8.6549950,2.7293761,130.8167877,116.7251892,-14.0305347
1400,0.6871324,4.3286943,-1.5705882,-72.1068726,38.3969460,33.2748108,-5.7173243,8.3964224,2.7940190,138.5190887,110.5419846,-15.5267172
1410,1.3383518,4.6183915,-1.2449785,-84.3511429,41.7099228,28.1297703,-5.2791877,8.4227581,2.0877333,146.5648804,107.4122162,-19.1603050
1420,1.8291607,4.9487896,-1.0223188,-93.8091583,44.1450386,21.1526718,-5.1187773,8.5328913,0.9911944,152.7099304,107.0000000,-22.2061062
1430,2.1116750,5.4755111,-1.0797794,-103.0839691,44.9007645,12.7633591,-4.6495161,8.8082228,-0.1987177,155.7022858,107.3969498,-24.3587780
1440,1.9991482,6.1889796,-1.1611819,-113.5496216,44.4885483,5.9312978,-4.1970143,9.3325500,-1.5155219,156.1832123,105.8549652,-25.8244267
1450,1.6950861,6.9862447,-1.1037214,-124.3893127,41.2595406,1.2213740,-3.6032550,9.5695753,-3.1651185,152.0381622,98.1832047,-24.2366409
1460,1.5849534,7.5105724,-0.7852941,-134.9847260,36.0839691,-1.6946565,-2.3989778,9.5767574,-4.8003497,142.2595367,84.8244247,-23.3893127
1470,1.4867916,7.9199786,-0.2418131,-142.7251892,31.8854961,-2.7480917,-0.9624642,9.5312681,-6.1913738,124.7099228,75.4122162,-25.1603050
1480,1.4413021,8.5113440,0.3926471,-146.4274750,29.4656487,-1.6335878,0.4285599,9.4355011,-6.6366930,101.5114517,63.4274826,-36.0152664
1490,1.2521610,9.1625633,1.1611819,-145.8015289,27.9236641,0.1908397,1.1156923,8.8608952,-6.3182659,79.3129807,49.4580154,-51.9007645
1500,1.0702027,9.8903971,1.5011568,-142.3969421,26.3511448,2.5572519,1.6615674,8.5783806,-5.5904322,62.5877876,34.9007645,-72.5877838
1510,0.6607963,10.6948442,1.6926919,-139.1984711,25.1297703,5.0000000,1.9416877,8.4299412,-5.0996237,53.4351158,22.7786255,-95.7557220
1520,0.3399749,11.6573086,1.9297167,-136.4961853,22.7862587,7.9618320,2.1811066,8.4419117,-5.0086441,49.6030540,14.1145039,-120.1526718
1530,0.0933734,12.3779593,2.4420733,-132.2061005,15.8167934,9.8015270,2.3726418,8.7651272,-5.3103123,46.4885483,8.6793890,-142.4503784
1540,-0.1340746,13.0291786,3.0573800,-125.1221390,1.6030535,8.8015270,2.1835008,9.9957409,-6.0118098,43.3511467,14.6564884,-158.9770966
1550,-0.5506636,13.4697094,3.8857694,-115.3893127,-19.5114498,6.9007635,2.2361729,10.2279778,-5.6167684,40.7633591,36.9618340,-169.2442780
1560,-1.0103480,13.8120794,4.8721757,-102.5877838,-43.7022896,7.1145039,3.1292057,10.3381100,-4.7764082,43.6793900,87.7251892,-174.4427490
1570,-1.0223188,13.9820662,5.8968887,-88.5496216,-64.2977066,8.7328243,2.7628946,9.5552101,-3.6535332,62.5419846,159.5419922,-172.4045868
1580,-0.9002152,14.1616306,7.1658092,-75.0457993,-77.6870193,8.9541988,2.9352763,8.6597834,-2.9616125,97.3282471,228.9847260,-160.7480927
1590,-0.3854645,14.0730457,8.2815018,-59.1221390,-80.0000000,6.6106873,3.7732425,7.2448173,-3.7014170,147.7786255,250.1297760,-140.8320618
1600,-0.0526722,14.1161413,8.9925756,-43.0687027,-67.5114517,1.9312977,5.7628140,6.7564025,-6.7420373,200.9160309,250.1297760,-116.2671738
1610,0.3543400,13.9892492,8.9710283,-29.4122143,-43.4580154,-4.4656487,7.4411407,5.4755111,-10.9941177,226.0076294,250.1297760,-101.3511429
1620,0.4764437,13.9605188,8.5688038,-20.3740463,-15.6564884,-13.4122133,8.9159613,3.2082138,-13.9341822,216.8778687,250.1297760,-103.0000000
1630,0.1029501,13.6827927,7.8457589,-15.2977095,7.3435116,-24.9847336,9.6844959,0.6727672,-16.7473545,183.1679382,250.1297760,-127.4732819
1640,-0.5291159,13.1153698,7.2663651,-12.7938929,21.9083977,-35.3435097,8.6645718,-3.0693510,-16.9436779,137.0076294,250.1297760,-167.4045868
1650,-1.1276633,12.3564119,6.9216018,-8.9618320,29.5648861,-43.1068687,5.1570840,-7.3214312,-14.9134064,101.1297684,250.1297760,-210.1297760
1660,-1.6711442,11.4945040,6.8354111,-2.5648854,32.0839691,-46.9007645,-0.6871324,-11.3029680,-12.0691090,89.5801544,250.1297760,-245.5801544
1670,-2.1212518,10.6086531,6.5840211,7.0916033,30.5572510,-46.5954208,-7.1011658,-14.4010496,-9.4163475,99.9083939,250.1297760,-250.1374054
1680,-2.5450234,9.7180147,6.0596933,16.5648861,27.3587780,-41.1297722,-13.2015610,-16.9101601,-8.5592270,125.7251892,250.1297760,-250.1374054
1690,-2.5761478,8.9375095,5.8178802,26.2290077,23.8015270,-31.0992374,-19.6131992,-17.3842087,-8.6430235,151.6717529,250.1297760,-250.1374054
1700,-2.4061604,8.2815018,5.3079181,36.8549614,23.7938938,-17.9923668,-19.6131992,-16.3187962,-11.0683374,158.6412201,206.5343475,-250.1374054
1710,-1.9512644,7.7619624,4.4244623,46.0763359,25.2442741,-2.8167939,-19.6131992,-14.3388004,-13.9413652,128.9618378,100.5801544,-235.5648804
1720,-1.4436963,7.7571740,3.2465210,50.7251892,21.1679382,11.7862597,-19.6131992,-11.0874910,-16.4600525,51.0228996,-0.8244275,-230.0915985
1730,-0.6967092,7.8146343,2.3654592,49.1145020,12.3969469,23.5801525,-19.6131992,-8.1522150,-16.8239689,-70.4885483,-97.0839691,-236.4427490
1740,0.1867468,7.6566176,2.0685797,46.3358765,1.1908396,30.5877857,-19.6131992,-4.9463954,-10.7068148,-196.1297760,-166.0000000,-242.1679382
1750,0.9911944,7.7212610,2.1212518,44.1908379,-12.6030531,34.4198456,-19.6131992,-3.3135581,-2.3175755,-250.1374054,-215.4656525,-211.7862549
1760,1.4245427,7.7140784,2.6336083,43.3740463,-26.9694653,35.5572510,-19.6131992,-0.6272776,6.6295104,-250.1374054,-245.6946564,-163.7709961
1770,1.8626794,7.8625183,3.1148405,44.4580154,-37.0534363,35.0763359,-19.6131992,0.8236012,8.9279327,-197.1908417,-250.1374054,-111.9618301
1780,2.1212518,8.0708122,3.5912843,47.7709923,-40.4198456,33.6946564,-19.6131992,1.2066715,6.7324610,-102.9236679,-250.1374054,-47.9923668
1790,2.1691356,8.2791071,3.3351059,51.6183205,-33.3587799,33.1526718,-19.6131992,1.2856797,-0.7350162,-21.9847336,-250.1374054,19.7328243
1800,2.2289903,8.6669655,2.6024840,51.9694672,-19.4732819,33.6870232,-19.6131992,0.3567342,-8.5448618,25.2061062,-250.1374054,85.6564865
1810,2.4468615,9.3014259,1.5681942,47.4809151,-3.6641221,34.3893127,-19.6131992,-1.2354017,-14.7338419,33.5190849,-250.1374054,140.3893127
1820,2.6264257,10.0172882,0.5506636,39.5038185,10.5801525,32.1603050,-19.0529594,-3.2417326,-18.9404335,11.0000000,-250.1374054,177.6793823
1830,2.4468615,10.5871058,-0.2106887,31.7328243,16.7480907,25.9389305,-17.4153347,-4.6136031,-19.4312420,-34.0381660,-250.1374054,202.4427490
1840,2.1739240,11.0659437,-0.6775556,24.8854961,13.8167934,18.0229015,-16.4289284,-6.1387019,-16.8790359,-79.7099228,-250.1374054,220.8549652
1850,1.7788827,11.5615406,-0.6607963,19.4732819,5.0534353,10.2137403,-15.3228121,-7.3764977,-13.7737722,-114.1374054,-250.1374054,231.4122162
1860,1.2928623,11.8201132,-0.3830703,17.4427490,-6.5877862,2.9007633,-12.8352499,-7.4722652,-9.8496952,-131.5267181,-250.1374054,228.6335907
1870,0.7733232,12.1553001,0.2513899,19.4961834,-14.8625956,-3.5725191,-10.1226330,-6.7085190,-6.5624733,-130.2442780,-250.1374054,212.0992432
1880,0.2537841,12.5407648,0.6871324,23.5877857,-18.4045811,-7.9007635,-8.1139078,-5.9280128,-3.8570392,-111.3740463,-250.1374054,185.8167877
1890,-0.1580165,13.2374735,0.9217629,26.0839691,-17.0763359,-12.0839691,-7.3932571,-4.8123207,-2.4684093,-83.3053436,-250.1374054,154.2900696
1900,-0.3232156,13.7115231,1.0917504,25.2748089,-12.1755724,-17.0076332,-8.2551651,-3.0837159,-2.2194135,-54.5496178,-250.1374054,121.5038147
1910,-0.3687052,13.9389706,1.5011568,22.8091602,-7.4045801,-23.3664131,-8.9494801,-1.1156923,-2.2313845,-30.8167934,-250.1374054,94.0305328
1920,-0.2298422,13.8599625,2.3127871,22.2748089,-5.0152674,-29.9312973,-10.0651722,1.1731528,-2.5234756,-9.9236641,-250.1374054,77.0076370
1930,-0.1987177,13.5750542,3.1962428,26.3053436,-4.7786260,-35.9618340,-11.0252428,3.3039815,-2.7389526,8.6030531,-250.1374054,72.3511429
1940,-0.4979914,13.2925396,3.8570392,35.1450386,-5.8702292,-39.0076332,-11.4250717,5.6359220,-2.8155668,25.7862587,-250.1374054,77.4198456
1950,-0.6655847,13.1057930,4.3047528,47.6183205,-8.2442751,-40.0458031,-11.0683374,7.1729918,-2.6503677,42.1908379,-250.1374054,90.4122162
1960,-0.6248835,13.0148134,4.2951760,60.1221390,-10.5648851,-41.5877876,-10.1226330,7.9534974,-2.7724714,56.8702278,-219.0076294,106.6412201
1970,-0.3878587,12.5407648,3.9336534,70.3969498,-12.0992365,-42.1450386,-9.5911226,8.3964224,-2.6383967,72.0916061,-159.1450348,123.3587799
1980,-0.0407012,12.0858688,3.6487448,76.0992355,-12.9312973,-41.0305328,-9.2774839,8.8968077,-2.4468615,89.0534363,-103.5343475,137.9160309
1990,0.2106887,11.4873209,3.1699069,78.9770966,-14.0076332,-39.4809151,-8.9279327,9.4977493,-2.6048782,102.3740463,-53.2977104,151.5954132
2000,0.6823440,11.0970678,3.2369442,82.0152664,-14.6488552,-37.6564903,-9.0213060,9.6868906,-3.2967989,111.4427490,-11.6412210,166.5114441
2010,1.0582317,10.5320396,3.2824337,86.3969498,-15.5038166,-39.4351158,-8.9159613,9.5240860,-3.9336534,113.3282471,15.6946564,182.5801544
2020,1.2617378,9.8688488,3.2249732,92.4656525,-16.0763359,-44.6183205,-8.2719250,9.2080526,-4.2209558,107.9160309,27.5725193,197.4503784
2030,1.0366840,9.1266499,2.8826041,98.4503784,-16.8015270,-51.3587799,-7.4770536,8.7004843,-4.6806402,98.4961853,25.9465656,206.1984711
2040,0.5841822,8.1929159,2.3008161,101.7404556,-16.9160309,-57.9160309,-6.1578555,7.7284436,-4.7716198,87.8091583,15.4198475,207.4732819
2050,0.0047884,7.3477674,1.6615674,100.6412201,-13.9389315,-62.4274826,-4.5537481,6.7731619,-4.5034704,73.3358765,-1.2671756,198.3358765
2060,-0.8475431,6.4954362,0.9696468,95.1755753,-7.5343513,-63.2900772,-3.2896163,6.0309634,-4.2496862,61.2671738,-16.9389305,184.2977142
2070,-1.6543850,5.5904322,0.3663110,85.1603088,1.4045801,-59.3511467,-2.4253139,5.5114241,-4.1443419,49.4503822,-28.4045811,170.0686951
2080,-2.2601149,4.8530221,-0.0311245,73.3282471,13.2290077,-51.1679382,-1.5059452,5.2887645,-3.8929520,38.5496178,-34.5267181,157.1984711
2090,-2.5522060,4.3981261,-0.2178712,61.8778610,26.3511448,-40.8167953,-0.8762733,4.9966736,-3.4452386,32.3740463,-32.8702278,147.7251892
2100,-2.7509236,4.0198441,-0.5195391,51.4045792,39.2595406,-30.3893127,-0.6919208,4.4986820,-3.2991931,29.2061062,-27.0687027,143.8473358
2110,-2.8466914,3.7062054,-0.7661406,41.4122124,49.9618340,-21.0992374,-0.3351865,4.0485744,-2.9783716,27.8473282,-21.7175579,142.1526642
2120,-2.9304879,3.2728570,-0.6895266,33.5267181,60.7709923,-11.2595415,0.2896969,3.7684543,-2.6503677,27.7328243,-16.7938938,137.2748108
2130,-3.4883339,3.0214672,-1.1683644,27.4961834,68.7175598,3.3816793,0.8930327,3.6104376,-2.5833304,28.5648861,-12.4656487,128.3358765
2140,-3.2824337,2.9041519,-1.5897418,19.8167934,70.8778610,19.1832066,1.6352314,3.6056492,-2.7485294,29.7251911,-4.0229006,119.0839691
2150,-2.9233053,2.7916248,-1.8770446,11.8091602,60.8244286,31.8244267,2.0542145,3.5529771,-3.0861101,30.1450386,8.5954199,109.3740463
2160,-2.4684093,2.8299320,-1.5514348,4.9923663,48.2748108,40.6183205,2.4444675,3.5553713,-3.1770895,28.9236641,23.7404575,101.0992355
2170,-1.7477583,3.1100521,-1.2282192,0.1908397,37.6412201,46.7557259,2.6527619,3.5793133,-3.1723011,28.4656487,40.3587799,92.2213745
2180,-0.8307837,3.3805954,-0.9672526,-3.8091602,30.8473282,48.8167953,2.4444675,3.2967989,-2.9975252,27.8320618,48.9312973,84.3435135
2190,-0.2801202,3.9216824,-1.0534433,-8.6030531,25.7709923,46.9007645,2.3774302,3.5218527,-3.2417326,26.2671757,49.9465637,75.5877838
2200,0.0694315,4.6686692,-1.3120158,-15.4580154,21.0839691,41.8091621,2.1547706,3.8785870,-3.3925664,21.5572510,44.2671738,69.2061081
2210,0.2920911,5.1858144,-1.5969244,-24.9618320,18.9312973,37.4580154,2.0422437,3.9456241,-3.8522508,11.8015270,34.0458031,66.0992355
2220,0.8164186,5.5281835,-1.7501525,-36.8931313,19.9465656,31.6183205,2.1188576,4.2808108,-4.1108232,-2.6412213,19.8778629,65.3740463
2230,1.1276633,5.9519548,-1.9871773,-50.7938919,27.9312973,27.2137413,2.5737536,4.3286943,-4.2233500,-18.1145039,6.8549619,62.3511467
2240,1.2449785,6.2129216,-2.2026544,-65.7175598,38.4885483,24.9389305,3.2177906,4.2808108,-4.1347651,-31.6870232,-1.2366412,56.3969460
2250,1.3120158,6.7324610,-1.9201399,-79.8473282,46.0763359,23.1297703,3.3566537,4.3071470,-3.6966286,-42.4045792,-7.9007635,47.7404594
2260,1.5179161,7.1873569,-1.3766589,-89.8320618,50.6030540,20.9923668,3.3566537,4.5082588,-3.2608860,-49.7328262,-15.2824430,36.8702278
2270,1.7549409,7.5297260,-0.8666966,-95.0076370,51.5114517,16.5725193,3.1818779,4.9870968,-2.6671271,-55.6412201,-23.5877857,26.6412220
2280,1.4317253,8.0181408,-0.6967092,-97.0610657,49.9923668,10.6488552,3.0717452,5.5640965,-2.2768741,-61.2061081,-31.6183205,16.7633591
2290,0.3375807,8.7890692,-0.7852941,-97.9847336,45.8244286,6.7633586,2.7389526,6.0189924,-1.9752063,-66.0305328,-38.4122124,6.2442746
2300,-0.9528874,9.4259243,-0.8690908,-99.4198456,30.2137413,7.1145039,2.1523764,6.5361371,-1.5250987,-68.9312973,-46.7404594,-4.0687022
2310,-1.8171898,10.0651722,-0.7493813,-101.5801544,4.4656487,10.2366409,1.3024391,7.1993275,-1.5394639,-70.7938919,-54.9312973,-13.0839691
2320,-2.2242019,10.8121595,-0.2178712,-104.1526718,-21.2137413,16.2213745,0.4740495,7.8481531,-1.4532729,-72.8320618,-64.5877838,-21.1984730
2330,-2.0326669,11.4274664,0.8188128,-104.9618301,-36.4656487,23.9236641,-0.5291159,8.4562769,-1.6783268,-77.3129807,-74.9389343,-29.7175579
2340,-1.8411317,12.2510672,2.0494261,-101.9923630,-39.1755714,33.9847336,-0.9935886,9.9310980,-1.8650736,-84.5877838,-84.3816757,-38.7328262
2350,-1.4436963,13.2925396,3.3015873,-92.8625946,-31.8015270,43.2290077,-1.4221486,10.8959560,-1.6112895,-93.7862625,-85.7709961,-47.5267181
2360,-0.7398046,14.0586805,4.1682839,-78.5648880,-20.7480907,48.4656487,-1.9273225,11.5543585,-1.0989330,-100.1450348,-76.8320618,-50.1603050
2370,-0.0023942,14.7122946,4.4603748,-63.5419846,-9.9083967,49.7786255,-2.4660151,12.0978394,-0.1699875,-102.5267181,-57.7175560,-43.7480927
2380,0.5674229,14.9612904,5.5353661,-45.8091621,4.5954199,48.8167953,-2.8203552,12.5479469,1.0318956,-99.4961853,-32.7404594,-33.5648842
2390,0.7541697,15.7394018,4.7333126,-28.8015270,9.2671757,49.6412201,-3.4596038,12.4545736,2.3798244,-89.4274826,-9.8320608,-21.6259537
2400,1.7405758,15.5478659,4.5705075,-15.9160309,3.3893130,45.6641235,-3.5745249,12.3731709,3.3782012,-73.5954208,6.1755724,-11.2290077
2410,2.3415172,15.1935263,5.0804701,-0.1068702,-10.4503813,37.1526718,-3.5026991,12.5814657,3.7588775,-55.4656487,14.6183205,-5.5038166
2420,2.6479735,14.7098999,5.1977854,16.7557259,-25.1526718,26.5572510,-3.5960727,12.8328552,3.4931223,-40.1984749,15.4045801,-3.5648854
2430,2.5857246,13.8791161,5.3007355,34.3664131,-35.8931313,17.1450386,-3.6966286,12.9214401,2.9687948,-32.2977104,11.8549614,-3.0916030
2440,2.3654592,12.9645357,4.6973996,48.8396950,-40.1297722,9.4656487,-3.5936785,12.6748390,2.3894010,-31.5954189,6.6030536,-2.3282442
2450,2.1691356,12.1696653,3.8115497,57.0152664,-35.5725174,3.2900763,-3.4021432,12.3468351,2.2289903,-35.5343513,2.6946564,-2.7557251
2460,1.6974803,11.3388815,2.8658447,59.1984749,-25.7862587,-2.5496182,-3.4500270,11.5304165,2.6168492,-38.7328262,-0.1832061,-3.0534351
2470,1.2018831,10.5440102,1.9033806,56.5419846,-14.1221371,-7.1755724,-3.1507533,10.6158361,3.1675127,-36.8167953,-0.4045801,-3.5725191
2480,0.5123565,9.8616667,1.1420283,50.2366409,-3.5954199,-9.8091602,-2.9831600,10.0986910,3.5960727,-31.6335869,3.7786260,-4.7862597
2490,-0.8212070,8.6956959,0.0311245,35.6335869,2.5496182,-5.3969464,-2.9161227,8.7483683,3.7516949,-11.3435116,14.1603050,-4.0610685
2500,-0.1484398,7.4866304,0.1125269,29.4885502,-26.6564884,15.7328243,-1.3790531,7.5225434,1.8674678,6.8854961,27.8473282,-20.9694653
2510,0.0766141,7.4339581,0.1484398,29.6183205,-30.5954189,16.0610695,-1.1132981,7.3788919,1.2306134,5.0610685,25.5343513,-23.7404575
2520,0.4381367,7.5536675,0.2011119,28.8778629,-32.5114517,15.1297712,-0.8595140,7.2041159,0.8762733,-1.8625954,21.8854961,-27.7938938
2530,0.8116302,7.5321202,0.2202654,26.2748089,-30.7786255,13.1984730,-0.6416427,7.0269461,1.0773853,-7.8473282,19.3053436,-29.8625946
2540,1.0534433,7.6470413,0.1819584,21.3282452,-25.6106873,11.4198475,-0.3878587,7.1035600,1.4317253,-11.2519083,20.1450386,-32.4122124
2550,1.0366840,7.8529415,-0.0670373,14.3282442,-18.4274807,10.4885492,-0.3208214,7.0628591,1.5466464,-11.1450386,20.2595425,-35.3435097
2560,1.2377959,8.0947542,-0.1484398,5.1755724,-11.1068707,10.2519083,-0.2298422,7.0652533,1.4843974,-8.7328243,20.5801525,-37.5572510
2570,2.1356170,8.8441362,0.5267217,-20.4885502,-2.9160306,5.8244276,-1.3886299,8.6980906,-0.2657550,-8.8854961,18.0381680,-66.2824402
2580,2.2313845,8.9159613,0.7541697,-23.5648861,-3.7557251,2.6946564,-1.7980363,9.3947992,-0.3495516,-16.0839691,13.4885492,-73.0687027
2590,2.0063307,9.1314383,0.7876883,-26.9465656,-4.8091602,-1.0687023,-2.1787124,9.7563219,0.0790083,-21.2213745,12.7099237,-78.2290039
2600,1.6591733,9.2224178,0.8116302,-31.0000000,-6.5038166,-4.5572519,-2.6383967,10.2567072,0.4740495,-21.2519093,16.7557259,-82.3053436
2610,1.2737088,9.2798786,0.9792235,-35.6870232,-8.1755724,-7.0305343,-2.9927368,10.6948442,0.8595140,-13.8931293,26.2977104,-84.1526718
2620,0.9241571,9.2942438,1.3742647,-39.8244286,-9.4503813,-7.5801525,-2.9496415,11.3340931,1.0414724,1.3435115,36.1221390,-88.0152664
2630,0.6655847,9.4163475,1.8746504,-41.1526718,-9.1450386,-6.2595420,-2.5593886,11.8823624,0.4405309,23.2290077,45.8549614,-93.2442780
2640,0.3639168,9.6342182,2.3534882,-40.2290077,-6.7786260,-4.7633586,-2.6599445,12.4066896,-0.4213773,45.8244286,54.7786255,-100.5267181
2650,0.0742199,10.0005293,2.5785420,-37.6183205,-2.4198472,-2.0610688,-3.1555417,13.0387554,-1.3575054,60.7557259,60.7328262,-105.1908417
2660,-0.0191535,10.2375546,2.6264257,-34.1755714,3.8167939,1.1526718,-3.5745249,13.3284531,-1.7836711,67.7709961,74.4198456,-107.5343475
2670,-0.0574605,10.5057030,2.5067163,-31.4198475,10.6030531,3.6106870,-3.8426740,13.1105814,-0.9864060,76.8931274,98.3587799,-107.9770966
2680,-0.1268920,10.8145542,2.4013720,-29.1908398,15.1526718,4.2213740,-4.1826491,12.8137016,-0.0550664,97.8091583,123.3587799,-107.2824402
2690,-0.0957676,10.9414454,2.1164634,-27.0076332,18.4961834,2.6412213,-4.4460096,12.3324699,0.1125269,128.7099304,143.5954132,-106.5190811
2700,-0.0239419,11.0180597,1.9704180,-23.8854961,18.4580154,-1.0687023,-4.0940638,11.8225079,-0.4525018,161.6793823,160.2366486,-110.0610657
2710,0.1197095,11.0443964,1.8076130,-20.2213745,18.0763359,-6.6717558,-3.3422885,11.4418316,-1.6950861,188.5419922,172.8015289,-118.1145020
2720,2.4564383,8.8632889,0.8978211,6.8320613,-18.4656487,27.2748089,-0.4165890,5.8274570,-6.2177100,126.4198456,119.6335907,-155.0534363
2730,3.1531475,8.8010406,0.6320660,4.8244276,-20.3893127,30.3893127,-0.5626345,4.3837609,-6.7133074,128.5954132,85.2366409,-161.4961853
2740,3.4619980,8.7723103,0.4932030,0.2671756,-21.0152664,28.8091602,-0.9002152,2.2553265,-7.3334022,127.9618301,49.7404594,-169.2824402
2750,3.4931223,8.6933022,0.7182568,-6.2748094,-23.5267181,24.5648861,-1.0534433,-0.1221037,-8.3940287,122.2061081,18.3816795,-180.2290039
2760,3.3135581,8.6526003,1.1994889,-11.3816795,-26.0763359,20.9694653,-1.1923064,-2.1475880,-10.0268650,109.9847336,4.9694657,-198.2748108
2770,2.9783716,8.6023226,1.8626794,-13.4427481,-25.6183205,17.8473282,-2.6096666,-3.8259149,-11.1497402,85.5648880,11.1603050,-217.3358765
2780,2.5330524,8.6861191,2.2481439,-12.0305347,-22.8702297,16.6870232,-5.0900469,-5.4563580,-12.1768475,45.1908379,37.2748108,-228.6259613
2790,2.1858950,8.8225880,1.9129574,-10.3740454,-16.6946564,18.3053436,-8.5304966,-7.7571740,-12.6652622,-4.3740458,68.8396912,-228.0839691
2800,1.9823889,9.0859489,1.4628497,-9.8473282,-8.8244276,19.0305347,-10.7355452,-10.3165627,-11.8344784,-55.5954208,108.8091583,-221.8167877
2810,1.7309990,9.6366129,0.6703730,-11.9847326,0.5419847,16.7938938,-12.7155399,-12.6772327,-10.4386663,-102.1526718,157.8549652,-216.0992432
2820,1.2210367,10.2926207,-0.0742199,-17.3664131,9.8854961,13.3664122,-15.8375635,-13.8048964,-7.7859039,-136.0229034,204.6106873,-211.4656525
2830,0.5698171,11.0156660,-0.4189832,-25.0381680,17.2977104,10.6793890,-18.9907112,-13.5894194,-3.5218527,-155.9389343,225.9618378,-205.0152740
2840,-0.0957676,11.6884327,-0.1675933,-30.0687027,20.8931293,9.8778629,-19.6131992,-12.3013458,0.9433106,-173.4961853,195.1450348,-197.7633514
2850,-0.6177009,12.3157110,0.2920911,-29.5038166,18.8473282,9.3511448,-19.6131992,-8.9470863,4.9823084,-203.7480927,106.4580154,-188.6030579
2860,-0.9337339,12.9405937,0.7900825,-24.7099228,14.8473282,10.0381680,-19.6131992,-5.1929970,8.1378498,-250.1374054,-11.5267172,-176.2290039
2870,-1.0965388,13.5606890,1.3862357,-15.7328243,9.3893127,12.2061071,-19.6131992,-3.2489152,11.6309719,-250.1374054,-141.0000000,-157.7786255
2880,-0.9313397,14.1209297,1.9225341,-3.5190840,2.8625953,13.6412210,-19.6131992,-2.4875629,14.9445305,-250.1374054,-250.1374054,-123.1221390
2890,-0.3950413,14.5470953,2.2960277,9.8702288,-4.9465647,13.3053436,-19.6131992,-1.9847831,14.3268299,-233.0992432,-250.1374054,-76.1679382
2900,0.3902529,14.7506008,2.7700772,22.6030540,-10.9541988,9.8244276,-19.6131992,-2.1116750,9.3493099,-156.9847260,-250.1374054,-27.7480907
2910,1.1923064,14.9110117,2.8658447,34.8167953,-12.6870232,3.6106870,-19.6131992,-2.8059900,2.3726418,-79.2366409,-250.1374054,20.9236641
2920,2.1547706,14.9397421,2.9783716,44.0381660,-11.0305347,-7.1755724,-19.6131992,-3.5074875,-4.7596488,-24.9618320,-250.1374054,60.7404594
2930,2.8610563,14.7553892,2.9280937,50.5496178,-6.2671757,-21.5725193,-19.6131992,-3.6487448,-10.1585455,-4.3816795,-250.1374054,85.7862625
2940,3.1292057,14.2143030,2.8419030,55.5648842,-1.5419847,-36.7328262,-18.3227310,-3.4596038,-12.2295198,-7.0763359,-250.1374054,102.8473282
2950,2.2625091,10.0029240,2.3510940,66.8015289,-14.8320608,-84.4427490,-8.8369532,-0.2849085,-2.3319404,40.2824440,-186.1450348,156.6183167
2960,1.7357874,9.1745338,2.0063307,64.6641235,-15.6335878,-92.4274826,-8.0516596,1.1516051,-2.0039365,38.3435097,-196.0305328,134.8702240
2970,1.0630201,8.1450329,1.5993185,58.2977104,-12.1297712,-98.2519073,-7.6183109,2.5953014,-1.3048333,32.1908379,-211.8396912,111.2213745
2980,0.4213773,7.1346846,1.2856797,49.3053436,-5.0152674,-101.8320618,-7.7308378,3.8330972,-0.5027798,27.3206100,-228.0839691,86.4122162
2990,-0.2705434,6.2536230,1.2928623,40.4045792,6.0534353,-103.2290039,-8.4730368,4.6686692,0.1101327,26.8396950,-239.4503784,61.9389305
3000,-0.8499373,5.2911587,1.5729824,33.3511467,18.2900772,-104.4427490,-9.2319946,5.9711084,0.5746055,29.4198475,-249.9313049,41.6564903
3010,-1.3862357,4.4053087,1.6256547,29.9312973,33.4274826,-104.7328262,-9.7874460,7.2519999,1.0606259,34.2519073,-250.1374054,27.4809170
3020,-2.0183017,3.4045374,0.8427547,24.9312973,52.6793900,-102.8473282,-10.4075413,8.1450329,1.2401901,42.3893127,-245.1297760,24.3511448
3030,-3.4643922,2.5713594,-0.4213773,15.1297712,66.8091583,-94.3893127,-10.5966825,8.6980906,1.2282192,54.0839691,-221.0992432,31.0610695
3040,-5.1211715,2.1260402,-1.2282192,4.1755724,67.0305328,-74.8015289,-10.6924505,9.0715837,0.9097920,66.6488571,-187.4885559,41.4885483
3050,-5.9806852,1.8770446,-1.6352314,-6.9923663,50.9160309,-45.7404594,-10.2351599,9.2248116,0.7613522,76.1374054,-148.7328186,56.0687027
3060,-5.6047974,2.0326669,-1.2401901,-15.9847326,26.9923668,-12.2595415,-9.8089943,9.2870607,0.4716553,85.3358765,-105.9618301,72.7633591
3070,-4.0725164,2.6982515,-0.0023942,-17.2137413,4.6030536,14.8167934,-9.3660688,9.1673517,-0.0430954,90.7938919,-60.4580154,92.7633591
3080,-1.8818330,3.7493007,1.0127422,-10.4580154,-11.0839691,27.3740463,-9.0428534,8.8680773,-0.1723816,96.7251892,-19.7099228,114.8854980
3090,-0.4812321,4.8386569,1.2210367,-4.0458016,-16.4045811,28.5190830,-8.1689749,8.4299412,-0.1843526,97.9312973,12.2900763,135.7328186
3100,0.3998296,6.1099715,0.7014975,-5.7328243,-13.8702288,24.9312973,-6.9407554,7.8864598,-0.5482694,97.7328262,39.6717567,152.4580078
3110,0.8427547,7.4507174,0.2442073,-14.3282442,-5.4274807,19.2595425,-5.8513989,7.1059542,-0.8283895,93.8778610,55.5877876,162.4580078
3120,0.4979914,8.2647419,-0.1819584,-26.8015270,6.0839696,14.9541988,-4.8865409,6.4044566,-1.0295014,88.5190811,60.8702278,165.7786255
3130,-0.3998296,9.6390066,-0.0598547,-42.9847336,20.4351139,16.6030540,-3.8737986,5.9567432,-1.0295014,78.0381699,56.7404594,163.7480927
3140,-0.8762733,10.5703468,0.6033357,-53.3816795,31.0305347,20.5725193,-3.0023136,5.5545197,-1.0414724,68.2977066,46.0458031,157.4198456
3150,-1.0318956,11.2431135,1.3072275,-54.2977104,33.2824440,24.1908398,-2.1930776,5.1044121,-0.9457048,60.3282433,32.6564903,148.3206177
3160,-0.9385223,11.7818060,1.9512644,-47.1984749,30.9312973,28.4732819,-1.4604555,4.8961172,-0.8044477,54.5038185,20.4809170,136.8473358
3170,-0.8379663,12.3013458,2.1571648,-35.0992355,26.3587780,34.4961815,-0.7829000,4.6064205,-0.8954269,50.3511467,10.9694653,124.3893127
3180,-0.3902529,12.9022865,2.4133430,-18.8778629,18.5572510,39.8091621,-0.3447633,4.4579806,-1.0869620,46.7251892,3.8931298,111.8091583
3190,1.1563935,13.6133614,1.7860653,17.3587780,-3.5954199,36.2824440,-0.0215477,4.2784166,-1.2928623,40.4198456,0.1603053,93.1908417
3200,1.4652439,13.6875811,0.8547257,27.4732819,-14.8244276,28.1526718,-0.1125269,4.1634955,-1.4987626,36.5190849,-0.2519084,87.1908417
3210,1.6184721,13.5559006,0.1795642,30.9236641,-23.4580154,19.4274807,0.0119709,4.0868812,-1.4724265,30.8320618,-1.9389313,82.4503784
3220,1.8076130,13.1776190,0.0287303,31.2824421,-27.6870232,12.6412210,0.2944853,4.2041965,-1.3000449,25.5954189,-2.2824428,78.3511429
3230,1.8411317,12.7514534,0.0311245,31.8778629,-27.7480907,6.8473282,0.4836263,4.1946201,-1.0773853,20.9694653,-2.2671757,73.1755753
3240,1.8698620,12.1505117,0.0239419,33.6488533,-25.4961834,1.3587786,0.3998296,4.1108232,-0.9050036,16.3587780,-2.7709923,68.9770966
3250,1.9967541,11.4609852,-0.1340746,35.6564903,-22.2977104,-4.5190840,0.3423691,4.3598189,-0.7374104,11.5725193,-6.0534353,65.5267181
3260,2.2337787,10.4937325,-0.3399749,37.2595406,-17.8854961,-13.1221371,0.6464311,4.2927818,-0.7062859,5.9389315,-8.8854961,63.1450386
3270,2.2481439,9.3804340,-0.7302278,36.7938919,-13.2366409,-25.9618320,0.8643024,4.4675574,-0.5195391,0.3435115,-10.0839691,58.5114517
3280,2.0183017,8.0301113,-0.7158626,33.7709923,-11.5572519,-40.2824440,0.8499373,4.4244623,-0.3040621,-3.6641221,-10.0916033,53.1374054
3290,1.3646880,6.8354111,-0.7326220,27.9847336,-14.0687027,-51.6946564,1.0199248,4.4938936,-0.0383070,-5.7862597,-10.0305347,46.8167953
3300,0.1891410,5.7699966,-0.1699875,21.0076332,-23.7938938,-55.1832047,1.0534433,4.8099265,0.2585725,-6.3587785,-11.4274807,37.0916023
3310,-0.7541697,5.2025738,0.6919208,16.7099228,-38.6412201,-49.2977104,0.6296718,5.2049680,0.1292862,-6.3435116,-16.0992374,26.1068707
3320,-1.1085097,4.7452836,1.5873476,15.5496187,-52.0458031,-38.6870232,-0.1867468,5.6526814,-0.1891410,-9.0000000,-26.5648861,16.3282452
3330,-1.1228749,4.5657191,2.2265961,16.1755733,-59.6793900,-28.1832066,-0.5841822,6.4188218,-0.7541697,-16.2137413,-39.0610695,11.2366409
3340,-0.9696468,4.6662750,2.4779861,15.9007635,-55.8091621,-20.8091602,-0.7182568,6.7827387,-0.9840119,-27.4961834,-46.8931313,8.8625956
3350,-0.9744351,4.8266859,2.1643472,12.0763359,-38.4580154,-16.5038166,-0.4453192,6.9862447,-0.7589580,-38.7175560,-51.6946564,6.2213740
3360,-1.3455344,5.1977854,1.6974803,3.7862597,-12.3893127,-13.9847326,-0.3351865,7.0317345,-0.2753318,-47.9007645,-52.2748108,1.9618320
3370,-1.9201399,5.8825235,0.9361281,-9.5419846,16.3206100,-10.5267172,-0.3854645,7.1490498,0.0430954,-53.3664131,-49.9541969,-2.3435113
3380,-2.3654592,6.3350253,0.3136388,-26.8015270,41.2519073,-6.1297708,-0.3615226,7.6829538,0.2489957,-55.3816795,-45.5114517,-7.1679387
3390,-2.6671271,7.0484939,0.1675933,-44.9083977,56.6412201,-1.2366412,-0.5482694,8.1857338,0.0957676,-57.1068687,-40.4274826,-11.5114508
3400,-3.0166788,7.7332320,0.3232156,-57.8549614,58.5114517,4.7786260,-1.0414724,8.3940287,-0.0311245,-63.4961815,-41.3587799,-19.6259537
3410,-3.3949606,8.3365679,0.7613522,-63.7404594,48.0458031,12.8167934,-1.4365137,8.7100611,0.3615226,-68.7938919,-45.9465637,-24.2366409
3420,-3.4452386,8.8608952,1.6304430,-61.2519073,28.9083977,22.7328243,-1.6711442,9.3014259,0.4812321,-73.2900772,-44.9007645,-24.8702297
3430,-2.9448531,9.3157911,2.3702476,-51.5877876,8.7022905,31.9160309,-1.5418580,9.4857788,0.3280039,-80.9083939,-39.7480927,-23.3511448
3440,-2.3079987,9.9957409,2.8897867,-35.8167953,-6.6641221,38.5725174,-1.7453641,9.4881725,0.8571198,-89.6183243,-30.2519093,-19.5343513
3450,-1.7573351,10.6254129,2.5450234,-20.4351139,-14.1450386,41.3740463,-1.8698620,9.6222477,1.7357874,-94.4656525,-19.3893127,-16.4045811
3460,-1.3790531,11.4442253,1.6807210,-11.0458012,-15.0916033,40.2900772,-2.0925217,9.3852224,2.7652888,-93.5114517,-10.7938929,-16.4274807
3470,-1.2737088,12.1337519,0.7302278,-10.1755724,-11.2671757,36.0381660,-2.4085546,9.4666252,3.6104376,-86.3053436,-6.1450381,-19.0076332
3480,-1.2138541,12.5982246,-0.0981618,-16.6259537,-5.6106873,29.7480907,-3.1962428,9.7323799,3.9336534,-75.3664093,-4.8702292,-24.3358784
3490,-1.2497669,12.9501705,-0.4189832,-26.8396950,-0.2595420,22.0229015,-4.1299767,10.0005293,3.8283088,-64.5496216,-7.5801525,-30.6335869
3500,-1.3263810,13.0579090,-0.2968795,-34.9847336,4.6183205,13.3282442,-4.8554163,10.6230183,3.6367738,-56.6106873,-10.8854961,-34.4351158
3510,-1.4604555,12.9046812,-0.0598547,-38.5190849,8.9312973,5.6717558,-5.3821378,11.1928358,3.5218527,-54.8625946,-12.2061071,-37.0763359
3520,-1.5634058,12.7562418,0.3591284,-35.9618340,11.0000000,0.2061069,-5.7963328,11.3484583,3.4165084,-58.1755714,-10.5725193,-35.5954208
3530,-1.9153515,12.4042959,0.7565638,-28.2519093,9.0381680,-1.8015267,-6.1147599,11.4609852,3.9216824,-64.5801544,-5.4656487,-29.7328243
3540,-2.1475880,11.9948893,1.1516051,-17.0687027,3.5648854,1.3816794,-6.2679882,11.2981796,4.9870968,-68.3511429,2.9770992,-21.1145039
3550,-1.9105632,11.4992924,1.3814473,-3.6412213,-3.1679389,9.5725193,-6.2967181,10.9198980,6.5528965,-65.1832047,12.5114508,-11.9083967
3560,-1.6280488,11.0539722,1.3718705,8.0763359,-13.0534353,21.5038166,-6.4331870,10.7068148,7.7643566,-53.4885483,18.0687027,-4.6870227
3570,-0.8930327,10.6852674,1.5729824,19.5038166,-27.6564884,34.7938919,-6.4667058,10.6828737,8.3054428,-35.0534363,20.6259537,-1.8320611
3580,0.2011119,10.4745789,1.7549409,30.8854961,-44.5267181,44.2061081,-6.3589673,10.5320396,8.0803890,-14.6946564,19.6641216,-1.7480916
3590,1.1516051,10.1776991,1.8483143,41.8091621,-59.8854980,46.5801544,-6.2057390,10.5871058,7.4842362,2.5114503,17.0839691,-2.5496182
3600,1.8411317,9.8688488,1.7908537,50.2213745,-68.8320618,43.0839691,-6.3709383,10.8959560,6.8425937,14.0534353,14.8396950,-2.5038168
3610,2.0398495,9.6390066,1.3359578,51.5801544,-70.6641235,36.0992355,-6.3206601,11.1545286,6.1291251,20.5954189,13.6717558,-2.9923663
3620,1.9799947,9.5384512,1.0271072,45.8473282,-64.7175598,28.4198475,-6.2536230,11.1497402,5.5210009,23.4503822,10.9847326,-2.6717558
3630,2.0087249,9.3014259,0.8020535,35.7404594,-49.1908379,20.3129768,-6.4044566,11.1449518,4.6806402,23.5572510,7.6641221,-1.2900764
3640,0.7805058,8.8944139,-0.7182568,1.9541985,19.3893127,-5.4122138,-6.6869712,10.8432837,3.6726866,18.2442741,-4.2061067,21.8549614
3650,0.2370248,8.9542685,-1.3407460,-8.9007635,33.2748108,-13.8473282,-6.0956063,10.5847120,3.3183465,17.2366409,-4.3206105,31.5267181
3660,-0.4070122,9.0189114,-1.7477583,-18.4045811,39.0152664,-22.1068707,-5.4180508,10.3117743,2.8826041,14.8015270,-0.1450382,37.9771004
3670,-1.0606259,9.0955257,-1.7525467,-23.9694653,38.7786255,-29.1832066,-4.8889351,9.9143381,2.9640064,11.2213745,4.5038166,40.2290077
3680,-2.0661855,9.2343884,-1.6088953,-26.3282452,30.8625946,-32.5343513,-4.3789725,9.6390066,3.1268115,8.0687027,8.9160309,39.5496178
3690,-2.9328821,9.4785957,-1.3479286,-26.6717548,18.9160309,-29.5496178,-4.2448978,9.3373384,3.4715748,6.7557254,12.1297712,38.8702278
3700,-3.5170643,9.9622221,-0.4668669,-21.9847336,8.0534353,-21.9923668,-4.0222383,9.0428534,3.5864959,6.5801525,13.4656487,39.8931313
3710,-3.6559272,10.4051476,0.1508339,-11.1450386,0.0534351,-12.0534353,-3.7995787,8.7220325,3.7085996,6.7480917,12.1984730,41.6106873
3720,-2.9089401,13.8599625,-1.0486550,16.5801525,14.5267172,16.0916023,-1.1779412,8.0732069,4.0318151,17.1297703,14.8320608,34.3435097
3730,-2.3391230,14.6261034,-0.8666966,16.5725193,13.6793890,17.9694653,-0.7613522,8.3437500,4.0342093,25.6259537,18.0458012,25.5496178
3740,-1.5658000,15.1288834,-0.1867468,19.8396950,10.1450386,16.3511448,-0.5219333,8.8585014,3.6200144,35.4045792,20.9312973,17.6412220
3750,-1.0390782,15.6196918,0.5578461,27.8396950,4.3435116,11.8931293,-0.1436514,9.3517036,3.2824337,45.4885483,27.1908398,10.4732828
3760,-0.2418131,15.5933561,1.2617378,39.3282433,-3.4122138,3.4732823,0.3184272,9.8353300,2.6144550,55.2366409,35.9389305,3.5114503
3770,0.2920911,15.3491488,1.7860653,52.0228996,-10.9923668,-6.8702292,0.9480990,10.2854376,2.3774302,65.4580154,48.1221390,-4.4045801
3780,0.6703730,14.7984848,2.0135133,63.6717567,-15.1221371,-16.7404575,1.9656296,10.9127159,1.9512644,79.3740463,66.2824402,-14.6183205
3790,0.4405309,14.2957048,1.7429699,71.2442780,-17.3664131,-23.7633591,2.2433555,11.4585905,1.2018831,98.8931274,88.7099228,-27.9389305
3800,0.2657550,13.7881374,1.4293311,74.3511429,-17.8320618,-27.1221371,2.0254843,12.1840305,0.3974355,123.6106873,110.3282471,-43.3511467
3810,0.0670373,13.4026728,1.2593436,74.9542007,-17.7480907,-27.3893127,1.5610116,13.2805691,-0.2968795,151.3893127,126.6793900,-57.7633591
3820,0.2777260,12.6365318,0.9864060,75.1450348,-17.3282452,-27.5267181,1.8219782,14.4225969,-1.0582317,178.7862549,132.8931274,-67.8854980
3830,0.3423691,11.8177195,0.5937590,74.5267181,-15.8091602,-28.9236641,3.0454090,15.2246504,-2.1691356,202.6106873,141.2595367,-77.2977066
3840,0.4932030,11.2479019,0.5171449,72.6564865,-15.9236641,-32.0763359,4.4244623,14.9972029,-3.0669568,221.9541931,154.7938995,-84.6259537
3850,0.3974355,10.4697905,0.5051740,71.9160309,-15.7328243,-37.2213745,5.7269011,14.2406387,-4.3095412,238.0534363,179.9160309,-93.9312973
3860,0.0215477,9.7180147,0.2944853,71.9083939,-15.5725193,-42.7938919,6.5912037,12.9022865,-5.1738434,250.1297760,206.8854980,-106.5877838
3870,-0.2489957,9.0141230,-0.0861908,70.9312973,-16.4351139,-47.3893127,7.4674768,11.3029680,-6.0932121,250.1297760,220.9465637,-127.1908417
3880,-0.7110743,8.2072811,-0.2035061,68.2824402,-18.3740463,-50.8625946,8.4945841,9.3612804,-7.0939832,250.1297760,220.1908417,-157.6183167
3890,-1.1635761,7.0939832,-0.2944853,65.4732819,-19.3740463,-52.2442741,9.3493099,7.6805596,-8.0229292,250.1297760,209.3282471,-196.3664093
3900,-1.6017127,6.0668759,-0.3806761,62.5954208,-19.3358784,-50.1221390,9.8018112,6.4738884,-9.1601686,250.1297760,189.6793823,-241.4045868
3910,-1.9991482,5.0852585,-0.6200951,58.9007645,-16.8244267,-44.4885483,9.5959110,5.2552457,-10.3213511,250.1297760,158.0076294,-250.1374054
3920,-2.6264257,4.1132174,-0.5650287,55.9312973,-11.8702288,-34.6030540,9.0835552,3.7732425,-11.6046362,250.1297760,124.9083939,-250.1374054
3930,-2.7868366,3.6487448,-0.5291159,53.3969460,-8.0229006,-22.3435116,8.1258793,2.1475880,-12.5000629,248.5190887,98.8396912,-250.1374054
3940,-2.9664006,2.9352763,-0.7254394,52.6335869,-6.3893127,-9.1755724,6.8186517,0.5027798,-13.0603037,218.4427490,94.8473282,-250.1374054
3950,-3.0765336,2.3534882,-1.0702027,51.1450386,-4.8854961,5.8931298,4.1084290,-1.1875180,-13.2159262,187.8625946,109.8091583,-250.1374054
3960,-3.4021432,2.0757623,-1.6328372,46.6259537,-6.4198475,24.2595425,0.4141948,-2.1906834,-13.3164816,159.9389343,127.4045792,-250.1374054
3970,-3.3470769,1.9752063,-2.1356170,37.0534363,-8.6641226,45.7557259,-2.9831600,-2.7748656,-13.2590208,132.0534363,134.6183167,-250.1374054
3980,-2.6144550,2.0111191,-2.0039365,24.5572510,-10.0458012,64.8244247,-6.6175399,-3.9480183,-12.6006193,98.0687027,131.1526642,-250.1374054
3990,-0.4860204,2.3127871,-1.2617378,13.9923668,-13.3587790,73.9083939,-9.5863342,-4.3813667,-12.2343082,56.8625946,126.6259537,-250.1374054
4000,1.7429699,2.2792683,-0.3040621,8.9618320,-18.7786255,65.8931274,-12.7131462,-4.1587071,-11.3628235,11.7633591,124.4961853,-250.1374054
4010,3.3710186,2.4636209,0.1963235,7.0992365,-20.1755733,43.8396950,-15.3683023,-4.5345950,-10.6517487,-35.6335869,134.2748108,-250.1374054
4020,3.4069316,3.0214672,0.0550664,3.5190840,-10.2290077,17.5343513,-16.9149494,-6.7204900,-9.2774839,-81.2748108,152.5496216,-207.9694672
4030,2.1404054,3.7373297,-0.7565638,-5.2595420,12.6335878,-0.7099237,-16.5055428,-10.4793673,-6.2320752,-120.2671738,175.1679382,-121.7328262
4040,0.6248835,4.6159973,-2.2481439,-21.6335869,41.3740463,-5.5190840,-15.4544926,-14.3507719,-2.6144550,-139.8244324,208.2519073,-57.8091621
4050,-0.6536137,6.2655940,-3.9216824,-47.0916023,71.8015289,-0.7557252,-14.4154148,-18.2580891,0.1747758,-129.0686951,241.3435059,-35.1832047
4060,-1.5681942,9.0284882,-5.0637107,-78.7175598,103.3511429,7.8702292,-13.0555153,-19.6131992,2.0254843,-96.6717529,211.9618378,-57.6641235
4070,-2.2218077,12.4402084,-5.2360926,-107.4885483,128.6641235,16.5572510,-12.6485033,-19.5940456,1.8938038,-66.5190811,122.9694672,-112.9236679
4080,-1.5490406,15.3323889,-3.0645626,-118.9465637,145.2977142,18.8015270,-13.0914278,-15.6963062,1.2162483,-64.8015289,22.7709923,-181.3969421
4090,-1.3575054,17.3435078,-1.4149660,-100.5267181,144.7480927,10.5114508,-15.4664640,-9.7515335,1.4389079,-101.8854980,-64.5954208,-229.4198456
4100,-0.9696468,18.7081966,-1.6687500,-68.6870193,113.2442780,-0.7709923,-18.7800217,-3.8235207,3.5122759,-160.3129730,-139.6946564,-231.7480927
4110,-1.3311694,18.7273502,-1.6256547,-31.1297703,68.3358765,-9.2595415,-19.6131992,0.1771700,7.7499914,-204.4732819,-183.6946564,-185.5801544
4120,-1.0462608,18.1168308,-2.2409613,1.0610687,27.7404575,-10.2900763,-19.6131992,1.8554969,13.1943779,-197.4732819,-205.1679382,-110.5190811
4130,-0.9145803,17.1352139,-2.5976956,26.3358784,-4.6335878,-7.7557254,-19.6131992,1.4796091,15.1887379,-133.3587799,-237.4503784,-25.6335869
4140,-0.7948709,16.0650120,-2.3319404,46.5877876,-28.9389305,-1.2519084,-19.6131992,-1.1683644,11.7147694,-26.6106873,-250.1374054,77.8473282
4150,-0.1699875,14.6548338,-1.9129574,63.5877876,-47.5267181,5.8625956,-19.6131992,-3.6607156,4.7333126,76.4580154,-250.1374054,162.8091583
4160,0.4261657,13.5199881,-1.6615674,76.7328262,-62.3435097,7.7709923,-19.6131992,-5.2336984,-3.2944047,134.2137451,-250.1374054,217.7862549
4170,0.7900825,12.2295198,-1.5586174,84.4045792,-73.2137375,5.6946564,-19.6131992,-6.2368636,-9.7347746,139.6335907,-250.1374054,250.1297760
4180,1.0199248,11.0659437,-1.1731528,85.9389343,-77.1832047,0.2977099,-19.6131992,-6.7516141,-14.5590658,112.7175598,-250.1374054,250.1297760
4190,1.0654143,9.8089943,-0.9720409,82.5648880,-71.4732819,-7.2366414,-19.3570213,-7.6446471,-18.0234585,67.2748108,-250.1374054,250.1297760
4200,0.8427547,8.5304966,-0.9385223,73.8320618,-57.7099228,-15.2213745,-15.7729197,-7.9606800,-18.1311970,8.0152674,-250.1374054,250.1297760
4210,0.4884146,7.0939832,-0.9648584,61.6335869,-38.7709923,-21.2900772,-12.8759508,-7.3453732,-15.3587255,-52.8625946,-250.1374054,250.1297760
4220,0.0526722,5.5449429,-1.0702027,46.8854980,-19.9541988,-24.7404575,-10.9605989,-6.7492199,-11.7411051,-100.3664093,-250.1374054,241.9847260
4230,-0.5195391,4.1419477,-1.2880739,30.7862587,-5.2442746,-24.0687027,-9.1242561,-6.0094156,-7.1107426,-127.4274826,-250.1374054,225.6030579
4240,-1.1037214,2.9137285,-1.2784972,12.6259546,-1.0458015,-17.8702297,-6.7204900,-4.2855992,-2.6790979,-129.9007568,-250.1374054,209.2137451
4250,-1.4053892,1.9799947,-0.5410868,-4.3435116,-6.2595420,-6.6946564,-4.7716198,-1.9105632,1.5035510,-106.9694672,-230.5496216,187.3816833
4260,-1.2976507,1.3239868,0.4357425,-13.7022905,-15.1603050,5.3129773,-3.9504125,0.0119709,4.5178356,-64.8091583,-202.9923706,159.4809113
4270,-0.5530578,0.8643024,1.3622938,-16.3206100,-24.7251911,14.6030531,-3.9480183,1.5873476,5.2121506,-16.0839691,-181.4274750,128.1755676
4280,0.6631905,0.8762733,1.8052188,-15.7022905,-26.7938938,18.7404575,-4.7764082,3.0861101,3.7301471,24.2290077,-166.0152740,101.5343475
4290,1.6902977,1.0318956,1.4053892,-16.0381680,-19.0839691,15.6641226,-6.0118098,5.0780759,2.3151813,49.8778610,-146.1221313,83.0381699
4300,2.2074428,1.5250987,0.3734936,-23.0763359,-6.2900763,7.7022901,-7.7308378,7.0939832,1.0773853,61.2900772,-123.0305328,77.5190811
4310,2.1930776,2.5354466,-1.0486550,-39.9465637,9.7175570,-1.3740458,-8.6047173,8.9614515,0.0263361,64.1221390,-103.7099228,81.0076370
4320,1.8243724,3.6128318,-2.2074428,-63.1908379,29.4809170,-8.4351149,-8.4730368,10.1465750,-0.2968795,61.5038185,-82.4885483,88.0763321
4330,1.3024391,4.7452836,-3.2872221,-90.9007645,51.2824440,-13.3664122,-8.1139078,10.8145542,0.0263361,56.3129768,-53.2748108,94.6183243
4340,0.8547257,5.7915444,-3.7181761,-119.6335907,70.4198456,-17.6793900,-7.8433647,10.8696203,0.6177009,52.3282433,-24.0458012,100.7328262
4350,0.0598547,7.0939832,-3.7325413,-143.9084015,84.6488571,-21.2290077,-7.8625183,10.8576488,0.8882443,52.9618340,1.2519084,104.5725174
4360,-0.7733232,8.2886839,-2.7413468,-157.8320618,90.0457993,-23.2137413,-7.7308378,10.6038647,0.9911944,58.2977104,20.0534344,107.7099228
4370,-1.4389079,9.6629486,-1.3144100,-154.7099304,81.5572510,-23.6870232,-7.5440907,10.0388365,1.0797794,66.3587799,36.2977104,112.5572510
4380,-2.3127871,11.0276365,-0.5602403,-137.3511505,60.0458031,-20.9770985,-7.2927012,9.3852224,0.7637464,73.9083939,50.2137413,118.7938919
4390,-3.1411765,12.4833040,-0.5937590,-116.1984711,30.1450386,-14.9694653,-6.8904772,8.9494801,0.2250538,80.2824402,59.2061081,124.3893127
4400,-3.2872221,13.4457684,-0.7182568,-98.1145020,-1.8091604,-7.2442746,-6.1123657,8.7052727,-0.5027798,83.0839691,64.1068726,127.2442780
4410,-3.0669568,14.2190914,-0.6177009,-83.7709961,-28.8854961,0.3435115,-5.5090299,8.2336178,-1.0989330,80.0000000,66.9618301,126.4732819
4420,-2.3726418,14.5758257,-0.2968795,-71.9389343,-43.8015251,6.8015265,-5.2408805,7.8098459,-1.4915800,72.2748108,66.4885483,125.7786255
4430,-1.7118455,14.5710373,0.1508339,-61.9007645,-47.6106873,9.7938929,-4.9894910,7.4890246,-1.9033806,61.8320618,62.2900772,126.9007645
4440,-1.3670821,14.7098999,0.5386927,-53.9389305,-45.7938919,9.9083967,-4.3670015,7.0460997,-1.9728121,49.6488533,54.0076332,128.3969421
4450,-1.1970947,14.5423069,0.9337339,-47.9083977,-42.3358765,7.4351144,-3.6918402,6.4427638,-1.8100072,35.6183205,42.3969460,129.0839691
4460,-1.1468167,14.2502155,1.5059452,-42.2519073,-37.0305328,4.1068702,-2.8347204,5.9567432,-1.4987626,21.3893127,29.4809170,126.8931274
4470,-1.2784972,13.8216553,2.0278785,-35.6793900,-31.6564884,1.8931298,-1.6926919,5.4539638,-0.9217629,8.5419846,16.1984730,119.5267181
4480,-1.6567791,13.3667593,2.5234756,-26.3053436,-28.0687027,3.0381680,-0.6560079,4.9416070,-0.4908088,-1.2519084,5.6030536,108.9389343
4490,-1.5969244,12.8951044,2.7748656,-14.8778629,-24.8549614,8.7251911,0.0766141,4.5417776,-0.2059003,-6.1221375,-1.7633588,95.5877838
4500,-1.1923064,12.5551291,2.7389526,-2.0076337,-23.8244267,12.8625956,0.5195391,4.2544746,0.1053443,-5.7786260,-4.6030536,82.2137375
4510,-0.8403605,12.1912127,2.3343346,10.9923668,-24.9923668,12.3664122,0.5530578,4.2018023,0.0814024,-2.0610688,-3.5038168,71.8320618
4520,-0.7134684,11.4945040,0.7733232,27.4961834,-26.0992374,0.3511450,0.7374104,4.5752959,-0.5267217,9.5114508,12.8396950,59.7557259
4530,-0.8116302,10.9486284,-0.0550664,28.4274807,-23.5038166,-8.4045801,0.3998296,4.8793583,-0.6153067,13.6641226,23.7175579,56.7480927
4540,-1.0678085,10.4027529,-0.8379663,24.0916023,-18.9618320,-17.7480907,-0.0550664,5.2863703,-0.7302278,16.8015270,32.5496178,56.1374054
4550,-1.5298871,9.8042059,-1.3551112,15.7938929,-12.8015270,-26.5038166,-0.5626345,5.7676024,-0.7996593,18.9694653,35.3893127,56.9847336
4560,-1.9536586,9.1936874,-1.3407460,7.1679387,-7.3435116,-31.8320618,-0.6464311,6.1530671,-1.2808913,18.0229015,34.2977104,57.6717567
4570,-2.5546002,8.7052727,-1.3215926,0.4351145,-3.2595420,-33.8702278,-0.6536137,6.5385313,-1.7573351,12.5267172,27.8625946,57.0305328
4580,-3.0717452,8.3461447,-1.0031654,-3.4732823,-0.9083970,-32.1908379,-0.6200951,6.9096308,-1.9512644,2.5343511,17.7251911,53.6564903
4590,-3.6056492,8.1354561,-0.8451489,-4.7633586,-1.6793894,-26.5725193,-0.4189832,7.2472115,-2.1188576,-10.1755724,5.9007635,48.0763359
4600,-3.9336534,8.1474266,-0.7038917,-4.1145039,-4.1984735,-18.0610695,0.0047884,7.5752153,-1.9321109,-23.4656487,-6.0992365,41.3435097
4610,-4.2425036,8.1665802,-0.5482694,-3.0839694,-6.6412215,-7.5419846,0.5362985,8.0732069,-1.6065011,-35.7099228,-12.9694653,32.3587799
4620,-4.0342093,8.0827837,-0.5147507,-2.9236641,-5.9236641,5.3740458,0.5003856,8.4778252,-1.1204807,-45.8473282,-17.7938938,21.0534344
4630,-3.7062054,8.2216463,-0.4525018,-4.2748094,-6.6106873,19.3587780,0.1651991,8.6502066,-0.6248835,-52.6259537,-23.8167934,10.6106873
4640,-3.1292057,8.5281029,-0.0718257,-6.4198475,-15.1984730,34.2061081,0.0430954,8.8489246,-0.1651991,-56.5038185,-28.9694653,0.7633588
4650,-2.2194135,8.7100611,0.8044477,-6.7786260,-28.6793900,49.2748108,-0.2226596,9.0380650,0.0407012,-56.6946564,-32.1450386,-6.3282442
4660,-0.5386927,8.9590569,2.0542145,-0.7099237,-43.0076332,61.2671738,-0.7517755,9.2870607,0.4357425,-53.8091621,-33.5343513,-10.1068707
4670,0.9385223,9.1793222,2.6886747,11.8854961,-51.9771004,69.0076370,-1.2473727,9.5599985,0.4716553,-50.4885483,-36.4885483,-11.4961834
4680,2.2864509,9.5097208,2.8059900,25.0839691,-50.8549614,72.8167953,-1.3934183,9.7898407,0.5434810,-48.9847336,-37.6946564,-12.1603050
4690,3.0980811,10.0771437,2.0733681,33.7251892,-40.4961815,70.3969498,-1.1372399,10.1896706,0.7374104,-46.4351158,-27.1908398,-12.4427481
4700,3.4308734,10.7068148,0.8212070,33.6259537,-26.9847336,59.2595406,-1.2042773,10.3548698,1.0678085,-40.6488533,-5.9160304,-12.0610685
4710,3.3303175,11.1066446,-0.4620786,22.8320618,-14.3893127,41.3816795,-1.6735384,10.4386663,1.6615674,-31.1145039,18.8778629,-9.0000000
4720,2.8107784,11.1210098,-1.2306134,5.0000000,0.2061069,21.7557259,-2.0087249,10.4458485,1.9273225,-18.4809170,42.1908379,-3.5114503
4730,2.0374553,10.7882175,-1.1587877,-12.6259546,15.9083967,4.5114503,-2.3678534,10.7906122,1.5681942,-4.4351144,68.7786255,2.8167939
4740,0.6775556,10.3021975,-0.8427547,-23.9160309,27.0610695,-8.2824430,-2.9065459,10.6852674,1.9297167,6.1068702,74.1679382,8.6488552
4750,-0.7086801,9.9406748,-0.3399749,-26.3816795,31.1908398,-13.0229006,-3.1794837,10.5942879,1.8363433,13.6030531,63.3282433,10.9465647
4760,-1.9943599,9.5911226,-0.2585725,-22.3053436,30.6641216,-10.3664122,-2.6599445,10.5895004,1.0271072,16.6564884,44.4809151,7.2366414
4770,-2.5953014,9.4857788,-0.6320660,-15.6564884,25.9007626,-3.5954199,-2.0159075,10.7834291,0.5985473,11.9770994,22.9007626,-2.4045801
4780,-2.9807658,9.5432396,-1.0654143,-9.9770994,18.2137413,4.7938933,-1.3335636,10.9390516,0.1412572,2.2824428,7.5343513,-17.2595425
4790,-2.9137285,9.5647869,-1.4580613,-6.0610685,7.2061067,12.7709923,-1.1444225,11.2072010,-0.4692611,-6.3282442,8.1908398,-32.9694672
4800,-2.8347204,9.6390066,-1.4125718,-3.5648854,-3.4122138,18.4351139,-2.0997043,11.5040808,0.3327923,-15.9312973,-5.8778625,-42.9083977
4810,-2.6312141,10.0268650,-1.0941446,-0.6564885,-11.7938929,23.1450386,-2.3199697,11.2838144,0.2849085,-27.9465656,-22.9465656,-45.6106873
4820,-2.2792683,10.3716288,-0.8475431,2.0229008,-16.6106873,25.9541988,-1.8866212,11.6046362,-0.5985473,-38.8244286,-27.8091602,-48.5190849
4830,-1.8794388,10.8528605,-0.8499373,2.2061069,-15.5954199,25.7480907,-1.9680238,11.9302464,0.0047884,-44.5114517,-15.9847326,-51.1526718
4840,-1.3838415,11.0898857,-0.8140244,-0.1374046,-11.4656487,21.2290077,-2.4779861,12.0834742,0.6296718,-44.2671738,-2.0458016,-49.9847336
4850,-1.1659702,11.4490137,-0.4381367,-3.8015268,-4.5801525,14.6030531,-2.5689652,11.9685535,1.2210367,-37.9083977,10.4122133,-44.6259537
4860,-1.2449785,11.6644907,-0.0670373,-6.6946564,1.9236641,9.0381680,-2.3774302,11.8727856,1.8674678,-26.3969460,23.4045811,-37.3816795
4870,-1.3215926,11.5591469,0.3232156,-7.3816795,6.9618320,4.6412215,-1.8770446,11.6309719,2.1427996,-9.6564884,38.5648842,-30.2671757
4880,-1.4508789,11.3412752,0.7517755,-6.2213740,10.6870232,3.1068702,-1.3263810,11.5232334,2.2936335,10.5419846,54.3053436,-27.7328243
4890,-1.4867916,11.2095947,1.0271072,-3.8473282,13.6030531,3.6412213,-0.7206510,11.5375986,2.1835008,32.5267181,71.3740463,-26.0152664
4900,-1.6400198,11.3580351,1.2282192,0.5038168,15.9465647,5.4656487,-0.5674229,11.6190014,1.6783268,55.5954208,81.7633591,-25.0000000
4910,-1.5945302,11.4992924,1.3144100,5.9847326,16.0687027,7.0992365,-0.8954269,11.6166077,0.8619082,74.4961853,74.1374054,-23.6870232
4920,-1.3383518,11.3795824,1.3024391,10.9923668,14.1145039,8.0152674,-0.5219333,11.4322548,-0.5243275,83.7938919,50.7862587,-21.0992374
4930,-1.0055596,11.3436699,1.5801650,15.9236641,11.2595415,8.5801525,1.2521610,11.1545286,-2.3558824,79.2137375,30.0076332,-25.5954189
4940,-1.0462608,11.0994625,1.5993185,21.0534344,8.4122133,10.4503813,2.6790979,10.5559816,-3.4500270,64.0610657,23.3587780,-36.8015251
4950,-0.5889706,11.2095947,2.0422437,26.0076332,9.0839691,10.6564884,3.4141142,9.8832140,-3.3422885,45.1221390,23.0839691,-52.7022896
4960,-0.6368544,10.7618818,2.1427996,32.8625946,9.5954199,11.0839691,4.1587071,9.3995876,-3.2130022,33.1450386,32.7175560,-72.1603088
4970,-0.5195391,10.4458485,1.9560528,39.1679382,11.7404585,12.5190840,4.6782460,9.0548248,-3.0190730,32.4503822,49.6488533,-91.5572510
4980,-0.5003856,10.2686787,1.7669119,43.9083977,15.4885492,15.4961834,4.5178356,8.6238708,-2.7652888,41.4656487,66.6259537,-112.7328262
4990,-0.5722113,10.2591019,1.6041069,48.4809151,21.9465656,19.9160309,4.2257442,8.8776541,-2.7581062,57.0381660,81.2900772,-130.8625946
5000,-0.5482694,10.3620520,1.3239868,53.1068687,26.1221371,24.3435116,3.9887197,9.8568783,-3.3494711,79.1755753,94.0916061,-137.0763397
5010,0.0694315,10.0675669,1.1635761,56.9160309,26.7022896,25.9541988,4.2257442,9.6318245,-5.2672167,100.8702316,100.3435135,-127.1450348
5020,0.8643024,9.7251978,0.8379663,60.4580154,25.9007626,22.0076332,6.1339135,9.8496952,-7.7116842,115.9923630,109.6641235,-117.3358765
5030,-0.0407012,12.4521790,-3.7660601,95.8091583,-39.5267181,37.1374054,-19.6131992,1.4221486,10.2471304,-94.0992355,-250.1374054,22.1374054
5040,1.0127422,11.8919392,-3.8881636,101.3129807,-47.0305328,36.6183205,-19.0361996,0.6991033,4.7931671,-19.4274807,-250.1374054,67.1374054
5050,2.4013720,11.3460636,-3.7469065,100.6106873,-47.5038185,26.1832066,-17.3794212,0.1053443,-0.2418131,33.2824440,-222.4809113,102.4351120
5060,3.2249732,10.5535870,-3.6870518,96.5267181,-43.8091621,5.3664122,-16.3594971,0.1867468,-4.0796990,64.4198456,-174.2671814,130.0686951
5070,3.2369442,9.8257532,-3.8235207,84.8778610,-36.4809151,-20.9236641,-16.4097748,-0.5746055,-8.0085640,74.4045792,-146.1221313,155.2442780
5080,2.2864509,8.7052727,-4.0413918,66.9694672,-26.6946564,-43.4122124,-16.3762550,-1.0989330,-9.6964674,65.2595444,-139.4809113,177.8091583
5090,0.9241571,7.3501616,-4.4244623,41.4503822,-11.3511448,-56.0916023,-15.2773228,-1.4987626,-10.9677820,37.8015251,-156.7480927,194.1679382
5100,-0.6440369,5.9711084,-4.1156116,13.3053436,4.4961834,-56.8931313,-12.5527353,-1.3263810,-11.5064745,-2.3511450,-196.7099304,195.6488495
5110,-1.8411317,4.8218975,-3.1268115,-8.1526718,17.3206100,-46.5190849,-8.8225880,-0.5674229,-11.0396080,-50.0305328,-240.8091583,176.7709961
5120,-2.5713594,4.0078731,-1.9584470,-18.7862587,22.4580154,-29.9007626,-5.0589223,0.3902529,-9.3684635,-96.5038147,-250.1374054,143.4809113
5130,-2.6958573,3.4524212,-1.2330076,-18.7633591,18.5572510,-12.0687027,-2.6910689,1.4963684,-6.7827387,-134.6183167,-250.1374054,102.2213745
5140,-2.4229198,2.8562679,-0.6272776,-10.5572519,5.2595420,3.6717558,-2.2002602,2.9783716,-3.2704628,-148.2900696,-250.1374054,62.0534363
5150,-1.9368993,2.2289903,-0.2466015,1.4045801,-14.3282442,16.1755733,-3.4308734,4.4196739,0.0119709,-133.4045868,-250.1374054,30.1603050
5160,-1.5131277,2.0039365,-0.3351865,12.0610685,-36.2290077,26.9694653,-5.7197185,6.3948798,1.7142396,-101.1679382,-250.1374054,9.7786255
5170,-0.7900825,2.1451938,-0.3615226,17.8015270,-49.9007645,36.5267181,-8.2743187,8.3437500,2.4947455,-63.8244286,-244.2290039,1.6412214
5180,-0.1987177,2.3678534,-0.5195391,18.5725193,-55.5725174,43.2977104,-9.9526453,10.1393919,2.2098370,-32.5801544,-236.2900696,2.9847329
5190,0.2178712,2.7748656,-0.8020535,14.7557249,-52.5496178,47.3511467,-10.4386663,11.4777441,1.5322813,-10.1221371,-221.0686951,11.3969469
5200,0.6129125,3.3758070,-1.4796091,4.8244276,-40.2748108,48.6870232,-10.3500814,12.2869806,1.3503228,7.4351144,-189.7099304,26.3969460
5210,1.1085097,3.9815371,-1.9704180,-10.1984730,-24.2213745,46.7175560,-10.2974091,12.8615856,1.7836711,23.7251911,-146.9847260,46.5801544
5220,1.7429699,4.5633249,-2.3726418,-28.3206100,-8.1297712,39.6793900,-10.0843258,13.0076313,2.5067163,40.7328262,-107.4274826,66.0229034
5230,2.1882892,4.9535780,-3.0956869,-50.1145020,7.4351144,28.6106873,-10.0340481,12.7586355,2.8873925,60.4198456,-76.0763321,80.3587799
5240,2.3056045,5.6550756,-3.3398943,-72.7557220,21.8931293,17.2061062,-9.9406748,12.3803539,2.4277081,79.5267181,-55.6259537,89.3435135
5250,2.3008161,6.2536230,-3.4787574,-94.2290039,34.9771004,6.9770994,-9.7347746,11.7818060,1.2880739,90.6564865,-43.5496178,94.8015289
5260,2.2912393,6.9599090,-3.0885043,-112.6259537,46.6183205,-2.3816793,-9.4450769,11.2814207,0.3136388,89.7251892,-40.0687027,100.6488571
5270,1.7764885,7.9941988,-2.6982515,-126.6793900,54.4045792,-12.1984730,-8.6454182,10.9055328,-0.5746055,85.0992355,-39.0610695,106.3740463
5280,0.7613522,8.8848372,-2.4205256,-135.4885559,52.5038185,-18.3816795,-7.9080076,10.1202393,-0.8786675,77.2671738,-37.2671738,112.0839691
5290,-0.4453192,9.7395630,-1.9967541,-137.8702240,37.2748108,-19.8167934,-6.9048424,9.4570484,-0.9600700,69.0381699,-37.0152664,115.8702316
5300,-1.3120158,10.5272512,-1.2713146,-134.3282471,15.4809160,-15.5572519,-5.7604198,9.0117292,-0.6033357,61.2671738,-36.7938919,117.2061081
5310,-1.6950861,11.1545286,-0.5051740,-124.3206100,-1.0305344,-5.8244276,-4.9870968,8.0732069,-0.7374104,54.5954208,-31.4122143,118.2061081
5320,-1.8483143,11.8105364,-0.0670373,-109.7404556,-10.7251911,8.3358774,-4.3358769,6.7061248,-2.5929072,43.2442741,-15.5038166,124.1068726
5330,-1.7597293,12.4402084,-0.2705434,-95.7709961,-15.9007635,24.4351139,-3.0190730,6.4595232,1.3575054,37.8931313,-30.4274807,129.2977142
5340,-1.5394639,13.1033993,-0.5386927,-85.3587799,-19.0000000,39.6106873,-1.8674678,6.6702118,1.2761030,45.6564903,-27.3816795,123.7786255
5350,-0.8427547,13.8001080,-0.4764437,-78.0000000,-22.8167934,50.9389305,-1.3670821,5.2720051,1.7477583,56.8931313,-28.3664131,115.0687027
5360,-0.0550664,14.3699255,-0.0119709,-70.4580154,-27.7557259,56.4732819,-0.5985473,4.8075323,1.5107336,69.5801544,-23.2595425,104.4656525
5370,0.6871324,14.7194767,0.4955972,-61.2290077,-35.2671738,55.8320618,0.1149211,4.6231799,0.7637464,79.2442780,-15.6259546,93.1984711
5380,1.2018831,14.8343983,1.2473727,-49.7480927,-43.1832047,50.5419846,0.0311245,4.4603748,0.3998296,84.3435135,-8.1984730,80.2137375
5390,1.3311694,14.7793312,1.8147956,-36.2671738,-47.2442741,43.7786255,-0.5195391,4.6040263,-0.0718257,84.6793900,-3.0992367,71.9542007
5400,1.3742647,14.5806141,2.0326669,-23.7175579,-46.2519073,38.5572510,-1.2138541,4.8171091,-0.7565638,79.3511429,0.9465649,69.4045792
5410,1.0606259,14.4824524,1.8028246,-14.0610685,-41.4961815,35.6335869,-1.6495966,4.7716198,-1.3790531,69.5038147,0.9389313,73.3664093
5420,0.8188128,14.3411951,1.6304430,-7.3129773,-38.7022896,33.6030540,-1.5011568,4.7069764,-1.7477583,56.7862587,-0.5419847,79.6870193
5430,0.6991033,13.9581242,1.2545552,-3.0152671,-37.8473282,29.6717548,-1.3646880,4.4627690,-1.6926919,42.7480927,-3.2213740,83.3282471
5440,0.4620786,13.4361916,1.0702027,-0.1832061,-36.0152664,24.4503822,-1.1013272,4.3622131,-1.4700323,29.6030540,-8.1068707,85.0381699
5450,0.0215477,12.9238348,0.7541697,0.5114504,-35.6946564,20.1832066,-0.7469871,4.0030847,-1.4077834,16.9923668,-14.2061071,84.3282471
5460,-0.5722113,12.1265697,0.6631905,0.7175573,-38.8473282,17.4122143,-0.2370248,3.8115497,-1.2689204,6.4885497,-19.9083977,80.4809189
5470,-0.9768293,11.4274664,0.6512195,1.4503816,-41.3206100,17.6412220,0.1915352,3.6583214,-0.8283895,-1.1832061,-22.0687027,71.9465637
5480,-1.0151364,10.7714586,0.7876883,3.1221373,-41.9694672,20.3511448,0.3615226,3.6152260,-0.6967092,-5.4427481,-18.2137413,61.0076332
5490,-0.7876883,10.2399483,0.9145803,7.1526718,-39.1145020,22.6488552,0.4620786,3.8546450,0.0047884,-6.1450381,-17.0534344,49.0687027
5500,-0.3878587,9.9622221,0.8068419,12.7022905,-35.4122124,21.6793900,0.5458752,4.2377152,0.4740495,-4.6641221,-19.0610695,34.7862587
5510,-0.3375807,9.7108326,0.3734936,17.1221371,-33.0839691,18.9312973,0.2250538,5.0206151,0.5578461,-1.1526718,-24.0610695,21.6793900
5520,-0.3830703,9.5599985,0.0047884,19.5648861,-33.3664131,15.7709923,-0.8188128,5.9064655,0.2920911,0.4961832,-31.5877857,14.8625956
5530,0.1987177,9.5192976,-0.0550664,21.4656487,-34.7862587,11.6641226,-1.0845678,6.4116392,-0.4118006,-0.7786260,-41.4427490,12.7175570
5540,0.5506636,9.3133974,-0.0263361,24.0992374,-33.8167953,4.9312978,-1.0989330,7.3669209,-1.3527170,-4.9770994,-45.3587799,12.9541988
5550,0.6584021,9.1625633,-0.1412572,25.8320618,-29.1297703,-2.3282442,-1.6352314,8.7962523,-2.3822186,-14.6564884,-41.5419846,16.5038166
5560,0.7134684,9.0117292,-0.2896969,25.1603050,-22.5801525,-9.2366409,-1.9057748,9.5767574,-2.6096666,-26.7938938,-34.1297722,23.2671757
5570,0.6129125,8.3700867,-0.7038917,21.7633591,-17.2442741,-14.5801525,-1.7884595,10.1609402,-2.4229198,-36.9160309,-22.0458012,33.9923668
5580,0.4764437,7.9726510,-0.8188128,17.6564884,-14.8549614,-15.8549614,-1.1923064,10.3907824,-1.5107336,-41.1145020,-8.6870232,41.6030540
5590,0.4285599,7.6614060,-0.6536137,15.7175570,-14.4427481,-12.8015270,-0.5291159,10.8432837,-0.1029501,-35.3511467,5.2900763,45.5267181
5600,0.4381367,7.4602942,-0.7302278,15.9847326,-14.2137403,-6.1984735,0.1891410,10.9031391,1.0989330,-20.3969460,18.4580154,42.4427490
5610,0.5865764,7.8840661,-0.7805058,15.5572519,-16.0992374,1.8931298,0.3519458,11.3221216,1.6711442,-1.0000000,26.8625946,35.6412201
5620,1.2042773,8.3700867,-0.5171449,16.4274807,-19.1603050,6.5267177,0.3375807,11.6142130,1.1683644,13.7633591,26.8320618,26.2671757
5630,2.3415172,8.7148495,-0.6296718,16.9923668,-20.1908398,3.0687022,0.0742199,12.0954447,0.2513899,19.3969460,19.1832066,17.0534344
5640,2.6024840,9.1170731,-1.2258250,13.8778629,-16.3511448,-5.2671757,-0.0383070,12.3492289,-0.7661406,14.6106873,9.4809160,10.2595415
5650,2.3582766,9.3732519,-1.6328372,5.6106873,-9.2595415,-14.5267172,-0.3495516,12.2271252,-1.4796091,1.6870229,-0.2366412,5.3053436
5660,1.7836711,9.6294298,-1.7214222,-6.3893127,0.5801527,-23.9389305,-0.5458752,11.7650471,-1.7549409,-16.8320618,-10.4961834,2.4580152
5670,0.8810617,9.5240860,-1.5658000,-17.1526718,12.1526718,-29.9465656,-0.3639168,11.3101511,-1.2808913,-34.1603050,-17.8167934,-0.1832061
5680,-0.2035061,9.4307127,-1.1611819,-25.5038166,22.1984730,-29.6793900,-0.2226596,10.5152798,-0.5243275,-47.4580154,-18.2366409,-1.7251909
5690,-0.9744351,9.4307127,-0.7230452,-28.0152664,28.6030540,-23.0076332,-0.0526722,9.8089943,0.0622489,-55.2213745,-13.0458012,-3.3664122
5700,-1.4915800,9.4522600,-0.3064562,-24.0687027,30.8778629,-10.8015270,-0.0670373,9.3469152,0.7972651,-56.7633591,-4.4809160,-6.6488547
5710,-1.7429699,9.6078825,-0.0909792,-15.1679392,27.1908398,4.7557254,-0.6727672,8.9614515,1.3910241,-53.4503822,3.9923663,-9.0687027
5720,-1.6304430,10.0316534,-0.2442073,-3.7404580,17.7862587,19.9083977,-1.5322813,8.7986460,1.4915800,-48.0610695,9.4732828,-9.6335878
5730,-1.1635761,10.4099360,-0.5315101,7.9694657,5.8702292,32.4427490,-2.1787124,8.9159613,1.5274929,-43.6412201,10.3969469,-5.2366414
5740,-0.5722113,10.7977943,-0.9792235,17.3435116,-5.2519083,41.4427490,-2.9065459,8.8632889,1.6543850,-39.4580154,8.6717558,1.6335878
5750,0.1460456,11.3221216,-1.2976507,22.3664131,-12.6106873,46.1374054,-2.9448531,8.7914639,1.4293311,-33.3740463,4.2900763,12.2519083
5760,0.9935886,11.7602587,-1.5442522,25.4427490,-15.1374044,45.0076332,-2.5186872,8.7483683,1.1372399,-27.1755733,0.7022901,20.0152664
5770,1.7094513,12.0475616,-1.8052188,25.3664131,-12.8931293,38.6030540,-2.0997043,8.7220325,0.9050036,-23.5877857,-2.8320611,24.4580154
5780,2.1906834,12.2390966,-2.0183017,21.8320618,-8.8549614,29.3206100,-1.7214222,8.7148495,0.5985473,-22.0839691,-6.9160304,26.7709923
5790,2.4947455,12.3157110,-1.8219782,16.8091602,-6.3740458,18.3358784,-0.9313397,8.5903521,0.2849085,-23.1145039,-6.9923663,24.8778629
5800,2.7437410,12.2893744,-1.6304430,12.9847326,-6.5419846,5.9083967,-0.3710994,8.5352850,0.0263361,-25.3816795,-5.0076337,18.6717548
5810,2.5115047,12.0858688,-1.2330076,11.4656487,-8.8625956,-6.0763359,-0.2370248,8.6669655,0.1053443,-29.8625946,-3.9236641,11.1145039
5820,2.0446377,11.7219515,-0.5889706,12.8473282,-12.2671757,-15.7480917,-0.1915352,8.7579451,0.2298422,-36.8167953,-1.3435115,4.2595420
5830,1.6328372,11.2742386,-0.4668669,17.1068707,-14.2519083,-22.2061062,-0.0861908,8.9399033,0.6464311,-45.0152664,1.8320611,-2.0381680
5840,1.1109039,10.9701757,-0.6727672,20.0381680,-12.7862597,-24.4809170,-0.1939293,9.0931320,1.4460905,-51.7404594,4.5190840,-7.5114503
5850,0.3878587,11.1018562,-1.0606259,21.0763359,-9.6870232,-23.4351139,-0.3543400,9.5719690,2.0039365,-55.6564903,4.3435116,-14.1908398
5860,0.9840119,11.3149395,-0.8164186,23.5267181,-11.0152674,-26.3587780,0.5291159,12.7969427,1.8435259,-56.3435097,-51.0916023,-90.1374054
5870,0.8092360,11.4777441,-0.8858501,22.4427490,-9.7633591,-28.0152664,-0.1412572,13.5606890,1.4963684,-59.8396950,-37.8931313,-95.1374054
5880,0.7445929,11.5304165,-0.9361281,20.1755733,-7.9389315,-28.5190830,-0.5243275,14.2765512,1.7956421,-66.4656525,-12.6717558,-89.0076370
5890,1.0199248,11.2431135,-1.0414724,15.9770994,-6.4961834,-29.9160309,-1.1563935,15.0426922,2.0422437,-71.5038147,24.8320618,-71.0839691
5900,1.0941446,10.9486284,-0.8068419,11.3587790,-5.2595420,-32.6564903,-2.2170193,14.7482071,3.2441268,-71.4045792,64.4809189,-48.6183205
5910,0.9121862,10.4530315,-0.6895266,7.8244276,-5.5190840,-35.9771004,-2.5857246,14.1065645,5.0110383,-55.2366409,96.6717529,-30.0000000
5920,0.4788379,9.9191265,-0.4716553,6.4122138,-7.4732823,-38.1297722,-2.8275378,13.1584654,6.8497758,-19.9694653,107.8167953,-16.9236641
5930,-0.0167593,9.4019823,-0.1580165,7.3740458,-11.7557249,-37.1068687,-2.2170193,12.5982246,7.3142486,27.6335869,106.2748108,-8.9236641
5940,-0.1556223,8.9375095,0.4525018,14.3358774,-19.3129768,-33.7328262,-1.1587877,12.4162664,6.8162575,73.4427490,96.4274826,-6.9312978
5950,-0.2609667,8.4083929,1.1132981,28.0916023,-29.3053436,-30.0458012,0.1795642,12.6197729,5.4731169,109.0152664,93.0534363,-9.7251911
5960,-0.0885850,7.9271612,1.3335636,46.8396950,-36.2366409,-26.3053436,1.8435259,12.8831339,3.4093258,131.6335907,102.4427490,-15.9083967
5970,0.1388630,7.5871863,0.4908088,61.9312973,-39.8167953,-21.7786255,2.9664006,12.9908724,1.5011568,143.6335907,111.6564865,-25.2671757
5980,-0.2633608,7.5823979,-0.3758878,69.7022934,-40.2671738,-16.3511448,3.6176202,13.1632538,0.2178712,148.0915985,117.5419846,-39.1908379
5990,-0.2896969,7.6374645,-1.0534433,71.9847336,-40.6412201,-12.1526718,3.6463506,13.5391417,-0.0766141,147.9770966,117.8625946,-55.9007645
6000,-0.1173153,7.8026633,-1.9273225,67.4274826,-39.7404594,-12.6106873,3.2225790,13.7905312,-0.4357425,147.3816833,110.1145020,-72.2519073
6010,-0.1244979,7.7021074,-2.7054341,54.9847336,-35.1450386,-17.0916023,3.0597742,13.6923695,-1.2521610,146.8854980,96.8778610,-85.9236679
6020,-0.3974355,7.6949248,-2.9903426,37.3206100,-26.1603050,-21.7022896,2.8323262,14.0802279,-2.5162930,143.9160309,80.2137375,-97.8473282
6030,-0.8236012,7.6422529,-2.8203552,18.8702297,-14.9923668,-24.5114498,2.5258698,13.9748840,-3.3398943,134.1984711,72.8931274,-103.2824402
6040,-1.2665262,7.6278877,-2.2744799,2.6717558,-1.5038168,-24.4351139,2.7078283,14.2813396,-3.6798692,123.5343475,82.4427490,-102.8244247
6050,-1.7429699,7.6326761,-1.2832855,-5.4656487,9.7786255,-21.5267181,2.0997043,14.0155849,-3.6798692,112.9923630,105.3816757,-92.1603088
6060,-1.9249283,7.4028339,-0.7685348,-5.0534353,16.8473282,-16.4351139,1.9560528,13.2446556,-3.4141142,106.5725174,125.8931274,-75.8091583
6070,-2.0925217,7.4028339,-0.9864060,-2.1908398,19.6793900,-8.8015270,2.8203552,12.8352499,-2.4420733,107.2977066,144.2213745,-62.4732819
6080,-2.1068866,7.5704269,-1.1994889,0.8167939,17.5725193,0.3358779,3.6080434,12.2271252,-1.9225341,110.9770966,163.4885559,-59.8320618
6090,-1.7764885,7.3908629,-1.2354017,3.6488550,8.1832066,8.8778629,4.1611013,11.4992924,-2.4564383,112.2366409,177.1221313,-65.9770966
6100,-1.1635761,7.3429790,-1.0821736,8.5496187,-5.1832061,15.0076332,4.7045822,10.5559816,-3.2345500,109.3129807,185.5343475,-79.2061081
6110,-0.4812321,7.3022780,-0.6751614,15.1603050,-17.7251911,19.0152664,4.9344244,9.1721401,-4.1778607,100.9236679,193.3893127,-97.2900772
6120,0.0023942,7.3477674,-0.8044477,21.6870232,-27.5114498,19.5419846,5.1929970,6.9431496,-5.6550756,90.5954208,196.6488495,-118.7862625
6130,0.1292862,7.1466556,-1.1109039,24.1603050,-35.0534363,20.4656487,5.0804701,4.9894910,-6.2631998,76.7709961,193.8244324,-140.2824402
6140,0.3351865,6.8521700,-1.3431402,21.0687027,-35.5572510,23.0381680,4.3526363,3.2106080,-6.4595232,67.7862625,187.9160309,-156.0381622
6150,0.7613522,6.8473821,-1.3455344,15.2213745,-36.7404594,24.9312973,4.0725164,1.5418580,-6.8066807,63.0000000,178.6946564,-163.4656525
6160,1.1085097,6.6486640,-1.2258250,8.7022905,-35.6946564,25.0610695,4.0222383,-0.4046180,-7.3525558,62.2366409,167.0458069,-170.7786255
6170,1.1037214,6.4667058,-1.0893562,3.5877862,-33.3435097,24.6564884,2.2002602,-3.1076579,-9.3038206,61.5801544,157.1908417,-179.3435059
6180,1.1851238,6.3158717,-1.1013272,-1.1297710,-32.3129768,23.6717548,-1.5825592,-7.1370788,-10.9605989,54.2213745,151.3969421,-186.9313049
6190,1.1061156,6.0692701,-1.1707586,-6.4045801,-31.4732819,23.1832066,-6.4403696,-11.8488436,-11.8009596,44.5877876,157.0000000,-189.9847260
6200,0.9433106,5.7891502,-1.2449785,-12.2748089,-31.0000000,22.9312973,-11.3963413,-16.0769825,-12.9908724,35.7557259,182.2137451,-194.4961853
6210,0.6224893,5.9950504,-0.9193687,-16.1374054,-26.6793900,23.9236641,-15.8303804,-19.2325230,-13.6349087,25.4122143,230.7022858,-209.3511505
6220,0.2011119,6.4643116,-0.9504932,-17.7862587,-15.4503813,27.2442741,-19.5748920,-19.6131992,-12.4952745,19.7633591,250.1297760,-232.0686951
6230,-0.1651991,6.6606350,-2.4037662,-26.3664131,-5.9694657,32.7786255,-19.6131992,-15.3132353,-8.9710283,21.3893127,250.1297760,-250.1374054
6240,-0.3663110,7.0101867,-3.6750808,-48.0076332,-0.4122137,38.6870232,-19.6131992,-7.4459291,-3.4596038,22.0534344,250.1297760,-250.1374054
6250,0.1101327,7.3884687,-3.3039815,-72.1908417,-0.3587786,42.3587799,-19.6131992,1.5394639,1.3766589,8.1145039,194.7709961,-248.8473358
6260,1.0318956,7.7116842,-1.7286048,-84.4351120,-4.5038166,39.8396950,-19.6131992,6.9862447,4.6351509,-31.5419846,111.4427490,-203.4351196
6270,1.6328372,8.1809454,-0.6919208,-84.1297684,-8.8702288,32.2290077,-19.6131992,9.7371683,7.0868006,-86.7175598,21.7328243,-129.9694672
6280,1.3239868,8.9542685,-0.5267217,-80.0000000,-9.3587790,23.4351139,-19.6131992,9.9957409,8.9806042,-124.3282471,-87.4732819,-38.8244286
6290,0.5554519,9.7898407,-1.3455344,-81.2671738,-7.0152674,19.6793900,-19.6131992,7.5177550,8.2623482,-119.9465637,-194.3969421,39.5877876
6300,-0.3782819,10.7283630,-2.4995339,-90.8015289,-5.9236641,18.4961834,-19.5246143,3.6631098,3.5386121,-87.8931274,-250.1374054,83.5038147
6310,-0.9744351,11.3316984,-2.7461352,-105.8167953,-8.7251911,17.0687027,-14.1807842,0.3782819,-2.0685797,-50.2519073,-250.1374054,93.7633591
6320,-0.9935886,11.4705620,-1.7573351,-117.1984711,-12.3435116,15.6259546,-12.4114780,-0.8738791,-7.1107426,-18.2824421,-247.8091583,91.7099228
6330,-0.8068419,11.2838144,-0.3423691,-116.8625946,-12.8854961,15.2061071,-13.7881374,-0.9313397,-10.1609402,1.1221374,-211.0000000,101.0534363
6340,-0.8619082,11.4657736,0.6105183,-107.2748108,-10.1526718,16.9770985,-14.9565020,-1.0007712,-12.2127600,0.7557252,-180.8854980,131.0229034
6350,-1.1683644,11.7578640,0.6584021,-93.3816757,-9.9694653,20.7404575,-14.7649660,-1.7094513,-13.0914278,-13.0839691,-159.1221313,174.6488495
6360,-1.0821736,11.8560257,0.5482694,-82.0763321,-14.5267172,26.3816795,-12.5120344,-3.0478032,-13.0674858,-33.5648842,-145.9847260,214.3435059
6370,-0.7206510,11.8392668,0.4955972,-73.1297684,-20.4045811,33.3053436,-9.1098909,-3.7708483,-11.6788559,-50.6335869,-143.8702240,231.5419922
6380,-0.2896969,12.0068598,0.7206510,-67.1679382,-24.7557259,39.3282433,-6.5002246,-3.4476328,-9.8999729,-60.3816795,-147.3129730,223.9313049
6390,0.2322364,11.8823624,1.6328372,-58.0610695,-29.1374054,43.3816795,-4.4891052,-2.8682389,-8.2982607,-63.3358765,-164.7786255,192.9541931
6400,0.8116302,11.6070309,2.1092808,-45.8015251,-31.9694653,45.6259537,-3.0094962,-1.6041069,-7.3214312,-61.9923668,-192.4580078,146.4045868
6410,1.2713146,11.5352049,2.2050486,-34.7022896,-32.1221390,46.7709923,-2.0637913,0.1580165,-6.4355812,-59.4580154,-214.5190887,97.8549652
6420,1.6400198,11.3484583,2.1835008,-26.7862587,-28.1984730,47.5496178,-2.3247581,2.5282640,-5.9040713,-59.0763359,-233.0458069,56.4427490
6430,1.9871773,11.3700056,2.2936335,-19.8167934,-22.6030540,49.0458031,-2.4109488,4.4220681,-5.8154860,-65.3893127,-244.3053436,22.0916023
6440,2.2577207,11.4921093,2.0973101,-14.1984730,-15.3511448,49.2290077,-2.7461352,6.3900914,-4.8578105,-72.5038147,-233.1068726,-2.5038168
6450,2.6048782,11.7602587,1.8243724,-12.3129768,-8.0229006,46.2748108,-4.4268565,7.3597383,-3.3063757,-68.2748108,-199.4809113,-12.1755724
6460,2.9855542,11.7458935,1.6304430,-12.5343513,-2.7480917,39.0763359,-7.0197635,7.7906923,-2.0111191,-50.4732819,-177.6412201,-4.7557254
6470,3.1842721,11.6094246,1.6208663,-13.5877867,0.5877863,29.4427490,-8.2479830,8.8393478,-1.3407460,-24.9618320,-167.5572510,13.9083967
6480,2.9424589,11.5088692,1.7764885,-14.1526718,1.5648855,18.6106873,-7.8864598,9.5791521,-1.6065011,1.3893130,-156.7633514,36.0763359
6490,2.5929072,11.2526903,1.7669119,-15.1908398,1.2137405,8.7786255,-6.6127515,9.7706871,-3.0717452,20.7175579,-139.2977142,53.8778610
6500,2.1523764,10.8480721,1.9560528,-15.2442751,1.1145039,3.8854961,-4.4867110,10.5009146,-4.2855992,27.3969460,-119.6641235,64.2748108
6510,1.8315549,10.3285332,2.0494261,-12.5954199,0.4656489,3.0229008,-3.1459649,11.3580351,-4.7333126,21.3816795,-101.9007645,63.4274826
6520,1.6136837,10.0915089,2.1427996,-7.9618320,-0.7099237,3.7709923,-2.7030399,11.8153248,-4.8482337,5.1374044,-86.0000000,59.7786255
6530,1.6376256,10.0220766,1.7860653,-2.9541984,-2.3511450,5.1145039,-2.9472473,11.6094246,-4.5034704,-15.6412210,-73.0534363,60.5419846
6540,1.6998745,10.2040358,1.4484847,0.8549618,-2.8702290,5.3816795,-3.0789278,11.0443964,-3.9623835,-34.8320618,-64.2748108,65.5114517
6550,1.8291607,10.5176744,1.0797794,3.7862597,-1.9923664,2.9236641,-2.4636209,10.4626083,-3.1842721,-49.1068687,-57.8549614,69.0992355
6560,1.9033806,10.9127159,0.6703730,3.5954199,-1.5496184,-3.4045801,-2.4348907,9.7108326,-2.2050486,-57.3664131,-52.8015251,69.4274826
6570,1.7309990,10.9222927,0.3447633,0.4351145,-1.4885496,-12.0763359,-1.9249283,9.5384512,-1.2808913,-60.8625946,-53.0458031,66.8549652
6580,1.4580613,10.8839855,0.5243275,-3.0305343,-1.5419847,-20.0687027,-0.9026094,9.9095497,-0.3687052,-59.8015251,-51.5419846,61.3893127
6590,1.1061156,10.6421719,0.7948709,-4.3282442,-2.1450381,-26.1679382,-0.4620786,9.9646168,0.3064562,-55.6183205,-42.2671738,54.9236641
6600,0.7230452,10.4027529,1.1851238,-2.9770992,-3.5038168,-29.0610695,-0.8858501,9.7539282,0.8978211,-48.3587799,-33.5038185,50.9160309
6610,0.3663110,10.0268650,1.3742647,0.9007633,-5.9541984,-27.9160309,-1.4173602,9.9478569,0.7398046,-38.5496178,-28.9541988,53.1832047
6620,0.2154770,9.8736372,1.3838415,6.2061067,-7.9694657,-24.7862587,-1.4053892,10.2160063,-0.0766141,-33.6412201,-24.0381680,51.2137413
6630,0.1532281,9.6485834,1.2856797,10.7480917,-11.0916033,-20.2977104,-1.8770446,10.0172882,-0.6584021,-34.3129768,-23.8091602,48.9847336
6640,0.4333483,9.3373384,1.2018831,13.9312973,-15.3969469,-14.2213745,-2.2481439,10.2112179,-1.1324517,-41.7633591,-30.2519093,47.8931313
6650,1.1994889,8.9111729,1.3431402,17.2213745,-21.4885502,-8.2442751,-2.0901275,10.6158361,-0.9433106,-55.0458031,-38.2366409,47.3969460
6660,2.0470319,8.4682484,1.5993185,23.9160309,-27.3816795,-4.9389315,-1.6831152,10.6732969,-0.2489957,-70.6259537,-40.7557259,44.8702278
6670,2.7844424,8.0181408,1.1994889,31.4503822,-32.6488533,-2.9923663,-1.5610116,10.6900558,1.0630201,-85.3358765,-37.2366409,43.1297722
6680,3.2201848,7.5297260,0.5123565,36.8854980,-31.0610695,0.7938932,-1.5873476,10.5080976,2.5450234,-92.5725174,-33.1908379,45.5343513
6690,3.3566537,7.4411407,-0.6153067,36.2290077,-25.4809170,5.3282442,-1.5538290,9.9789820,3.5218527,-89.2595444,-28.9007626,50.0610695
6700,3.2321558,7.6326761,-1.5634058,27.8625946,-20.1297703,8.1908398,-1.3598996,9.6054878,4.1563129,-78.7709961,-21.6412220,54.0610695
6710,2.9783716,7.9941988,-1.8339491,15.8473282,-16.6793900,7.2977099,-0.8666966,9.3636751,4.0581512,-64.4656525,-9.1221371,55.1984749
6720,1.9440818,8.3676920,-0.9600700,-1.4122137,-12.8473282,-0.1374046,-1.1635761,9.4355011,3.3063757,-42.9847336,13.1984730,54.7633591
6730,1.1300575,8.4467001,-0.5243275,-5.2366414,-10.7633591,-3.3511450,-1.2042773,9.6868906,2.9592183,-42.5190849,15.0152674,54.2748108
6740,0.3375807,8.5281029,-0.2561783,-7.3969464,-7.1755724,-2.9465649,-1.3622938,9.9885588,2.8586621,-47.4580154,9.8244276,52.3664131
6750,-0.3758878,8.7794924,-0.3280039,-8.9923668,-2.0992367,0.4809160,-1.7740943,10.0747490,3.1890604,-56.9618340,-1.2213740,51.1832047
6760,-0.6248835,9.1817169,-0.4908088,-11.8473282,3.6793892,5.8167939,-1.6376256,10.1585455,4.2664456,-66.1603088,-10.8702288,51.1679382
6770,-0.3375807,9.4881725,-0.4429250,-14.5572519,7.8167939,9.8396950,-1.1707586,10.2399483,5.5449429,-66.6717529,-15.8320608,49.2748108
6780,0.0909792,9.7826586,-0.2705434,-16.0610695,9.9160309,9.8778629,-0.5339043,9.8951855,6.4451580,-55.2290077,-17.0534344,46.1832047
6790,0.5267217,10.1082678,-0.0191535,-15.3282442,8.7404585,5.4961834,0.0694315,9.9023676,6.7971039,-33.9618340,-17.9160309,40.2290077
6800,0.1556223,10.1896706,-0.0837966,-12.7404585,2.2977099,-6.5954199,-0.3064562,11.0683374,4.7907729,12.1221371,-24.1145039,22.5801525
6810,-0.3687052,10.3381100,-0.0047884,-13.5190840,0.3969466,-7.5190840,-0.7829000,11.7123747,3.2034254,24.5801525,-25.9618320,16.3740463
6820,-0.5889706,10.4985209,0.2394189,-14.6717558,1.0381680,-6.2290077,-1.0342898,12.2271252,1.9392935,30.0076332,-23.9007626,16.3587780
6830,-0.4501076,10.6685085,0.5530578,-15.6946564,3.5267177,-4.4580154,-1.3527170,12.4976692,1.1994889,29.6946564,-16.1755733,19.3358784
6840,-0.2825144,10.6493549,0.9576758,-15.7938929,8.4045801,-3.7633588,-1.6184721,12.5886478,0.9911944,25.6335869,-9.8702288,23.2366409
6850,-0.2011119,10.8049774,1.2569494,-15.1526718,13.4885492,-3.8778627,-1.6783268,12.5623121,1.2761030,21.0534344,-6.6641221,26.1145039
6860,-0.1508339,10.9773588,1.5298871,-13.7557249,17.6564884,-4.4122138,-1.7740943,12.3348637,1.3862357,19.9541988,-8.1297712,28.3435116
6870,0.1197095,11.1234045,1.8698620,-11.6412210,20.2900772,-6.4122138,-1.7309990,11.9230633,1.4245427,19.6793900,-10.2290077,27.5648861
6880,0.2466015,11.1545286,2.1595588,-8.5114508,22.8091602,-8.9083967,-1.6041069,11.6333666,1.4484847,20.1679382,-11.0916033,25.4885502
6890,0.3088504,11.0324249,2.3103929,-4.5267177,25.1832066,-10.3206110,-1.4149660,11.3987360,1.5945302,20.9236641,-10.3969469,22.0610695
6900,0.3519458,10.9653873,2.3463056,-0.7175573,28.4351139,-10.1679392,-1.5897418,11.1449518,1.7381816,21.4351139,-9.2824430,18.3664131
6910,0.3495516,11.0635490,2.3079987,2.3435113,33.0839691,-7.6259542,-1.6280488,10.6541433,1.7908537,22.7862587,-6.8931298,17.3206100
6920,0.5171449,11.3556404,2.3917952,4.7557254,38.6564903,-4.9465647,-1.5514348,10.2303715,2.0422437,25.0076332,-1.1984733,17.4580154
6930,0.6631905,11.7267399,2.4899571,7.9312978,42.6870232,-3.4274809,-1.8650736,9.7635050,2.3415172,30.0687027,5.1832061,19.1450386
6940,0.5602403,12.8711624,2.5282640,13.3358774,45.0458031,-2.9465649,-2.3391230,9.2248116,2.7748656,41.6335869,10.6564884,26.4656487
6950,2.0446377,13.7426472,3.4308734,38.4732819,44.2213745,-10.0763359,-1.9704180,9.0428534,2.4133430,40.9389305,0.0229008,32.4656487
6960,2.6527619,13.6492739,2.7030399,48.1297722,47.7251892,-19.3053436,-1.4748207,8.7603388,1.9368993,37.0000000,-3.0687022,31.0000000
6970,2.8682389,13.3476067,1.8794388,51.2671738,54.0228996,-29.8244267,-1.2425843,8.5783806,1.6735384,32.5419846,-4.5267177,26.8167934
6980,2.7628946,12.9573536,1.2425843,50.3969460,62.0381660,-39.6412201,-1.1396341,8.3198080,1.6472024,28.6793900,-5.1526718,23.4122143
6990,2.5593886,12.3228931,0.8188128,48.4580154,66.2442780,-48.9541969,-1.1396341,8.0061693,1.6998745,26.7404575,-2.9541984,21.5496178
7000,2.0087249,11.3508520,0.6177009,48.0687027,63.9236641,-56.7709923,-1.2042773,7.7691450,1.6041069,27.2595425,2.1908398,21.4656487
7010,1.3503228,10.4482431,0.5578461,49.2366409,53.9771004,-60.3511467,-1.1324517,7.4028339,1.5011568,29.5419846,8.0839691,23.7633591
7020,0.6129125,9.5576038,0.4596844,52.0076332,38.5648842,-59.6946564,-0.8643024,7.0149751,1.2473727,31.3740463,13.9694653,27.0229015
7030,0.3663110,8.7363977,0.5554519,56.3435097,23.7404575,-56.4274826,-0.5027798,6.6678176,0.8690908,31.8854961,19.4732819,27.9541988
7040,0.2130829,8.1019373,0.3663110,60.7251892,11.3206110,-52.1679382,-0.1292862,6.3972740,0.5578461,30.5190830,24.0152664,26.4503822
7050,0.0814024,7.5345144,0.0837966,62.9312973,2.8015268,-47.4274826,0.1915352,6.0453281,0.3040621,27.2595425,26.7404575,24.0534344
7060,0.0119709,7.0628591,-0.4261657,61.6183205,-2.0458016,-42.0687027,0.6129125,5.6694407,0.0047884,23.0610695,27.1374054,20.2366409
7070,-0.1412572,6.5002246,-0.9337339,57.5267181,-5.2442746,-36.8320618,1.1132981,5.3605900,-0.2920911,18.2824421,26.1984730,14.1374044
7080,-0.1532281,5.9806852,-1.4365137,50.1526718,-7.3129773,-31.8778629,1.6424140,5.2504573,-0.4955972,13.7786255,26.0458012,4.2824426
7090,0.0000000,5.6814117,-1.5849534,40.4809151,-8.0763359,-26.4580154,1.6304430,5.5066357,-0.7350162,9.2671757,24.2061062,-8.0305347
7100,0.2442073,5.4084740,-1.5107336,30.2748089,-6.0992365,-21.7709923,1.5466464,5.9375896,-1.2761030,3.8167939,19.6717548,-19.7175579
7110,0.5506636,5.1642666,-1.1994889,20.3664131,-3.4503818,-18.5648861,1.5227045,6.3230543,-1.7573351,-3.7786260,15.3511448,-29.5954189
7120,0.8690908,4.9583664,-0.8523315,11.0992365,-0.3282443,-15.8320608,1.3551112,6.9814563,-2.0733681,-13.5496187,10.9236641,-37.1832047
7130,0.7374104,4.4579806,-0.4213773,3.0534351,0.0839695,-12.2900763,1.1563935,7.7092900,-2.1858950,-23.7251911,6.9923663,-41.0305328
7140,0.4381367,4.2832050,0.0167593,-2.2290077,-2.8625953,-6.5496182,1.6184721,8.3126259,-2.2074428,-32.0839691,3.9007633,-44.1526718
7150,-0.0383070,4.2855992,0.8044477,-2.1679389,-12.2977095,9.1450386,3.1986370,9.8305416,-1.8554969,-32.8015251,18.4198475,-61.0610695
7160,-0.0239419,4.4507980,0.7062859,-0.0152672,-13.7786255,14.1068707,3.4284792,10.8887739,-1.7046629,-23.6717548,35.2213745,-78.1297684
7170,0.1149211,4.9727316,0.1723816,-0.8854962,-13.1679392,18.4122143,2.5761478,12.1265697,-1.5083394,-11.2671757,53.4045792,-94.5877838
7180,0.1628049,5.4012914,-0.6416427,-6.2595420,-10.8702288,18.8931293,0.9672526,13.1848011,-1.2784972,2.7404580,67.8091583,-103.9312973
7190,-0.0407012,5.9280128,-1.1037214,-17.6335869,-3.0687022,21.2824421,-0.8068419,14.5327301,-1.4125718,15.9541988,74.9618301,-101.9770966
7200,0.0861908,6.3637557,-1.3814473,-32.1755714,7.1374044,23.0076332,-1.6424140,15.4209747,-1.9033806,25.1526718,78.8854980,-91.8549652
7210,0.1747758,6.9551206,-1.2976507,-46.0305328,16.0458012,22.8396950,-1.6160779,16.1248665,-2.3319404,27.8473282,87.6106873,-77.4045792
7220,0.2226596,7.4818420,-1.2928623,-57.8320618,21.7938938,23.3587780,-1.0869620,16.3834381,-1.8291607,28.8854961,101.8320618,-63.6564903
7230,0.1532281,7.6446471,-1.0127422,-65.3358765,23.6030540,24.9618320,0.1364688,17.0538120,-0.2585725,39.0763359,118.3206100,-56.1603050
7240,0.2489957,7.9463148,-0.7230452,-69.9694672,21.0000000,27.0152664,0.5793939,16.8550930,0.4548960,59.9160309,138.5877838,-51.2290077
7250,0.4357425,8.3772688,-0.4812321,-70.9618301,16.3053436,28.9694653,1.2066715,16.8957958,-0.0119709,84.1603088,147.2671814,-45.5572510
7260,0.7876883,8.8632889,-0.1915352,-69.9770966,10.8778629,29.1832066,2.5210814,16.5318775,-1.2976507,101.8320618,145.6335907,-46.2595406
7270,0.9959828,9.2319946,-0.0359128,-68.1374054,6.4885497,27.6641216,3.9959023,16.5390606,-3.1028695,107.9007645,132.7022858,-54.6488533
7280,1.1156923,9.7611103,0.0191535,-66.7175598,3.7099237,24.9465656,5.7819676,16.0027618,-4.9032998,102.5648880,110.6564865,-76.6106873
7290,1.0582317,9.9167328,0.1292862,-66.1221390,2.0152671,22.1450386,7.5632443,15.8016500,-6.4714942,87.4961853,86.1755753,-109.3511429
7300,1.0295014,9.9191265,0.1987177,-66.6946564,1.0305344,20.1679382,9.3421268,16.1296539,-7.4195933,62.0610695,68.0457993,-148.2519073
7310,0.9840119,10.0723553,0.4141948,-68.7251892,2.2977099,21.2595425,10.6828737,16.0913467,-7.7835097,32.1832047,66.6183243,-186.8167877
7320,1.0247130,10.0053177,0.6847382,-70.0152664,4.5877862,24.6106873,11.1066446,15.2749290,-7.8840661,4.7709923,84.1221390,-217.6488495
7330,1.1516051,10.1824875,0.9959828,-70.6488571,7.3206105,27.1450386,9.9095497,13.4146433,-7.4650826,-12.0992365,114.0763321,-239.1679382
7340,1.1468167,10.0723553,1.3311694,-68.7862625,9.1374044,28.7786255,8.8872309,11.3939476,-7.3190370,-15.2519083,157.3740387,-250.1374054
7350,1.1132981,10.2160063,1.5298871,-66.1297684,9.7022905,30.7099228,7.8433647,8.9039907,-8.1689749,-8.3511448,205.5954132,-250.1374054
7360,0.9648584,10.2830439,1.5418580,-64.5267181,10.4503813,32.8931313,5.5832496,5.8753409,-10.0747490,-1.6946565,250.1297760,-250.1374054
7370,0.7254394,10.4219065,1.7764885,-63.6641235,8.9007635,35.0305328,3.7900019,2.2625091,-12.3588057,-2.4427481,250.1297760,-250.1374054
7380,0.4716553,10.6373835,2.1954718,-61.3282433,4.6106873,38.4961815,0.3710994,-1.4987626,-14.7266598,-15.2900763,250.1297760,-250.1374054
7390,0.2873027,10.8217363,2.8993635,-56.3587799,-0.4732825,43.5725174,-6.2416520,-4.3023586,-17.2980194,-41.2595406,250.1297760,-250.1374054
7400,0.5386927,11.2407198,3.2465210,-49.1374054,-4.7480917,49.5496178,-14.2382450,-5.9088597,-19.6131992,-82.5190811,250.1297760,-250.1374054
7410,1.0821736,11.6118193,3.3494711,-41.9160309,-8.9312973,49.7862587,-19.6131992,-8.7579451,-19.6131992,-147.1145020,219.3740387,-250.1374054
7420,1.4580613,11.9685535,3.4739690,-37.0992355,-9.9160309,48.5038185,-19.6131992,-13.8934813,-19.6131992,-235.1832123,188.3053436,-250.1374054
7430,2.0901275,12.1840305,3.7301471,-33.2442741,-8.8091602,41.8167953,-19.6131992,-19.6131992,-19.6131992,-250.1374054,194.0000000,-191.8091583
7440,2.2122312,12.3013458,3.6702924,-30.3435116,-7.1526718,31.1145039,-18.9308567,-19.6131992,-14.8750992,-250.1374054,235.9313049,-155.9313049
7450,1.9680238,12.7777891,3.7397239,-30.0763359,-3.4045801,21.5038166,-18.2556953,-19.6131992,-2.8730273,-250.1374054,250.1297760,-150.0992432
7460,1.8219782,12.8113079,3.8833754,-29.4274807,0.5877863,11.7786255,-19.6131992,-19.6131992,11.4107065,-250.1374054,250.1297760,-166.3969421
7470,1.3742647,12.9669304,4.0389977,-27.8015270,4.2977099,4.2977099,-19.6131992,-19.6131992,19.6126022,-205.0000000,250.1297760,-194.1984711
7480,1.1348459,12.8639803,4.1443419,-25.3282452,5.0458016,-3.0916030,-19.6131992,-18.3825874,19.6126022,-69.8702316,177.6717529,-215.2671814
7490,1.0342898,12.6125898,4.1275826,-22.9389305,2.1297710,-10.0763359,-19.6131992,-9.2918491,19.6126022,50.9847336,94.1221390,-214.8473358
7500,1.0103480,12.3468351,4.4627690,-19.9694653,-1.4809160,-16.5267181,-19.6131992,-2.4277081,19.6126022,134.3282471,4.2900763,-192.0610657
7510,0.8499373,11.8799677,4.7548604,-15.1984730,-4.5648856,-20.6946564,-19.6131992,6.7779503,12.6915979,175.2519073,-101.3435135,-152.5114441
7520,0.7757174,11.3676119,5.1163831,-8.9312973,-5.1526718,-21.9694653,-19.6131992,10.6206245,3.5601597,169.5343475,-199.3435059,-81.1984711
7530,0.7421987,10.8384953,5.1187773,-1.9312977,-3.8549619,-21.5267181,-19.6131992,9.3229742,-4.3071470,125.8931274,-246.1221313,23.9847336
7540,0.4979914,10.2878323,4.8099265,2.7022901,0.4198473,-18.6335869,-19.6131992,6.7540083,-9.6653433,71.1450348,-233.8091583,112.0839691
7550,0.2896969,9.8568783,4.4100971,6.0610685,5.3358779,-14.0000000,-14.3340120,3.1746953,-11.0803089,28.4732819,-189.1755676,155.0381622
7560,0.1316804,9.3110027,3.9480183,8.6946564,10.5496187,-8.5877867,-11.1353750,-0.0215477,-8.4371233,10.7328243,-132.7099304,168.8473358
7570,-0.2442073,8.7986460,3.0669568,9.3358774,13.4961834,-1.4503816,-11.3101511,-1.2258250,-4.3885493,22.1221371,-84.9847336,183.4045868
7580,-0.5195391,8.6142941,2.3319404,7.3206105,12.9541988,9.0992365,-12.5527353,-2.4971397,-1.9512644,51.9312973,-64.4198456,207.4503784
7590,-0.5362985,8.4323349,1.8578910,3.9770992,9.6717558,19.0763359,-12.8065195,-3.6631098,-2.4277081,79.1526718,-79.0763321,228.2366486
7600,0.0239419,8.5568333,2.0613971,2.6946564,3.5801528,24.8778629,-11.4609852,-4.4100971,-4.1754665,90.5648880,-109.7175598,234.5267181
7610,0.5817881,8.5328913,2.6790979,7.4656487,-3.9083970,25.3282452,-9.4809904,-4.7572546,-6.0501165,82.5038147,-146.9847260,223.4351196
7620,1.1970947,8.4395180,2.9448531,16.1450386,-11.2519083,23.0687027,-7.5919747,-3.7923961,-7.2543941,59.3206100,-191.3053436,190.0992432
7630,1.8746504,8.3341732,2.5617826,22.1755733,-16.6183205,19.5877857,-6.3398137,-2.7628946,-6.9311786,33.5648842,-238.8244324,145.1526642
7640,2.5450234,8.1282730,2.0709739,22.4503822,-17.8778629,15.2824430,-5.6095858,-1.9416877,-6.2248926,11.7480917,-250.1374054,94.9694672
7650,2.8802099,8.0301113,1.5442522,18.1984730,-15.5572519,11.1297712,-5.6766233,-0.6991033,-5.0038562,-1.2977099,-250.1374054,48.0076332
7660,3.2249732,7.7499914,1.4508789,12.4274807,-10.3206110,7.5190840,-6.2991123,0.9744351,-2.3678534,-2.4045801,-250.1374054,11.7709923
7670,3.2130022,7.6590118,1.4604555,8.0992365,-4.2824426,5.1374044,-8.1498213,2.2744799,-0.0407012,15.4885492,-250.1374054,-5.2137403
7680,3.2608860,7.5512733,1.4317253,6.0458016,2.3740458,3.9007633,-10.7116032,3.0621684,0.5889706,51.6717567,-221.0076294,0.2824427
7690,3.6343796,7.4387465,1.1851238,5.3053436,14.6259546,0.6106870,-12.8472204,5.2648225,-0.7661406,117.7099228,-183.4045868,50.4427490
7700,3.3590479,7.5105724,0.7254394,3.0229008,20.3435116,-1.1221374,-12.0308018,6.2967181,-2.4947455,126.2748108,-168.3511505,71.3511429
7710,2.8155668,7.5560617,0.3184272,-2.4503818,23.5343513,-2.7022901,-11.0156660,7.2496057,-3.9025288,119.1145020,-159.7709961,85.5801544
7720,2.1380112,7.6757712,0.2154770,-8.3282442,23.1908398,-3.4656489,-9.7347746,8.1067257,-4.2712340,101.5877838,-155.6946564,91.8320618
7730,1.1899122,7.8242111,0.3782819,-12.2977095,20.0763359,-1.6412214,-8.3892403,8.8537130,-4.0581512,78.7633591,-158.2900696,90.9160309
7740,0.4381367,8.0420828,0.5722113,-13.0534353,17.4427490,4.4961834,-7.5847921,9.0476418,-3.3901722,53.4274826,-163.1145020,87.0381699
7750,-0.2226596,8.5400734,0.4979914,-13.3664122,15.2824430,13.5496187,-6.9599090,8.7723103,-1.9273225,30.1526718,-167.9007568,81.2366409
7760,-0.2466015,9.0811605,0.5362985,-14.3511448,12.0839691,21.9541988,-6.1339135,8.7794924,-0.4237715,16.1755733,-173.7251892,72.2442780
7770,0.1340746,9.5504217,0.6296718,-15.2595415,7.3893127,25.9770985,-5.6550756,8.3509331,0.5937590,14.2213745,-177.7633514,66.2977066
7780,0.6272776,9.8736372,0.9193687,-16.1450386,1.6412214,25.2595425,-5.2265158,7.7811155,0.9457048,18.5801525,-179.6183167,61.2824440
7790,0.6847382,10.1824875,1.1276633,-16.6870232,-3.9312978,23.1984730,-3.9097114,8.2838955,1.8124014,27.8625946,-168.5114441,55.0687027
7800,0.8355721,10.3668404,1.2808913,-17.5343513,-7.9236641,21.7404575,-3.4380560,8.7244263,2.1212518,45.3206100,-141.7786255,49.8625946
7810,0.9959828,10.4673967,1.5634058,-18.6488552,-11.2213745,19.1679382,-4.3286943,8.6238708,1.5777708,66.9618301,-115.7480927,53.0152664
7820,1.0725969,10.6254129,1.8578910,-19.4503822,-12.2595415,16.1068707,-4.7907729,8.9063845,0.9552816,80.8396912,-98.9007645,62.1832047
7830,1.1444225,10.5823174,2.1451938,-19.3664131,-11.8854961,13.1450386,-4.6997938,9.1529865,0.2992737,85.3358765,-85.3893127,70.6641235
7840,1.1635761,10.3955708,2.4253139,-18.7862587,-10.5114508,10.2519083,-4.6183915,9.3229742,-0.5315101,84.5343475,-76.0763321,76.8549652
7850,1.1731528,10.3189564,2.5474176,-18.4961834,-7.5343513,8.5954199,-4.6327567,8.8082228,-1.5059452,78.0000000,-75.1297684,83.3664093
7860,1.1731528,10.4530315,2.7628946,-18.4580154,-3.5496182,8.0687027,-3.8163381,8.5975342,-1.7693061,65.4122162,-77.8091583,85.4580154
7870,1.2282192,10.5823174,2.8969693,-17.8396950,-0.0763359,7.6259542,-2.7724714,8.3772688,-1.6017127,53.8091621,-77.6106873,80.7175598
7880,1.1803354,10.6158361,3.2345500,-16.4427490,1.1603054,7.1221375,-2.0326669,8.0325060,-1.4341195,46.9541969,-76.0305328,73.1526718
7890,1.3598996,10.5607700,3.3973548,-14.7557249,0.7938932,6.1526718,-1.5945302,8.1809454,-0.5889706,43.4580154,-72.4198456,64.7022934
7900,1.4006008,10.6230183,3.7564833,-12.8625956,-1.1526718,4.7022901,-1.5250987,8.2815018,0.1532281,46.5725174,-65.2366409,60.0763359
7910,1.6184721,10.5487986,4.1443419,-9.0534353,-3.0763359,2.5419848,-1.8387375,8.1234846,0.1197095,54.3129768,-61.0763359,58.5801544
7920,1.5777708,10.4075413,4.2353210,-4.9541984,-3.1450381,0.8320611,-2.0374553,7.9774394,-0.5339043,57.8549614,-63.3740463,60.5725174
7930,1.5155219,10.3716288,4.2233500,-2.3206108,-1.3816794,-0.3511450,-1.3622938,8.4658537,-1.2976507,53.7099228,-65.0992355,57.1908379
7940,1.3742647,10.3500814,4.3670015,-0.2519084,1.7404580,0.3206107,-1.5921360,8.9782104,-1.9512644,47.3587799,-67.4580154,49.5343513
7950,1.2952565,10.1609402,4.6375451,7.8015265,8.7404585,3.3435113,-2.2337787,10.4602137,-2.3846128,14.0534353,-93.6564865,30.5572510
7960,1.3144100,9.9478569,4.7141590,10.9541988,10.1832066,3.6793892,-2.1451938,10.5942879,-2.0278785,7.8778625,-86.6030502,30.8091602
7970,1.1923064,9.6342182,4.8386569,15.3969469,10.8778629,4.5038166,-2.1475880,10.6661139,-1.1013272,7.7709923,-72.5496216,36.9465637
7980,1.2976507,9.4091644,4.7093706,20.3969460,10.8702288,5.7328243,-2.1451938,10.8672256,-0.0311245,13.7862597,-53.4198456,44.4809151
7990,1.3934183,9.2391768,4.6997938,25.8702297,11.1832066,6.6946564,-2.1092808,11.1114330,0.3280039,27.4809170,-32.4122124,50.2290077
8000,1.4580613,9.0452480,4.2855992,30.8778629,11.2061071,7.4045801,-2.1068866,11.1593170,0.0957676,42.4885483,-18.2900772,53.8778610
8010,1.5442522,8.8800488,3.9360476,33.9847336,11.1068707,7.5419846,-2.0542145,11.4753504,-0.3878587,52.0228996,-11.0076332,54.0916023
8020,2.0183017,7.8218169,2.9711890,43.7404594,7.8473282,1.4580153,-1.9129574,12.2750092,-1.8554969,41.5954208,-14.8854961,37.6564903
8030,1.8698620,7.6805596,2.2337787,41.7862587,12.0000000,0.7175573,-1.7740943,11.9829178,-1.9776005,34.3969460,-16.6717548,33.7099228
8040,1.7669119,7.9104018,1.8291607,35.1526718,18.1984730,1.3053435,-1.6711442,11.4585905,-2.0302727,27.2442741,-16.6946564,31.0152664
8050,1.8315549,8.2384062,1.8147956,28.5877857,24.8778629,0.8091603,-1.4413021,10.9414454,-1.6376256,21.4274807,-13.9770994,29.6870232
8060,1.7740943,8.4969788,1.8722562,25.1068707,30.7862587,-0.9618320,-1.2234308,10.2614956,-1.3622938,18.2442741,-7.4656487,29.7938938
8070,1.5035510,11.3747940,0.7565638,14.1984730,54.2442741,14.4351149,-0.2561783,6.9407554,0.6943150,21.8702297,33.9312973,30.5419846
8080,1.2928623,12.3803539,1.4604555,15.3893127,44.4427490,17.6335869,-0.1460456,6.4044566,1.0582317,23.9236641,35.8778610,25.0229015
8090,1.7118455,12.9046812,2.5905130,24.6030540,27.8167934,21.0687027,-0.0574605,6.0189924,1.2282192,25.8473282,33.7328262,18.6946564
8100,2.4923513,12.8735571,3.1675127,40.3893127,9.3511448,21.8015270,0.1316804,5.5904322,1.0989330,27.1145039,30.5114498,8.9236641
8110,3.6152260,13.2685976,2.3989778,65.3587799,-6.6335878,24.3282452,0.5051740,5.2743993,0.8666966,30.2595425,32.5343513,-16.1068707
8120,4.4340386,13.5511122,1.7405758,69.2671738,-8.9389315,23.6641216,-0.1939293,5.3151007,0.7062859,34.2748108,33.4503822,-29.9541988
8130,5.4755111,13.4050665,1.3886299,68.7709961,-9.9389315,15.5954199,-1.5777708,5.9136481,-0.2011119,37.9083977,26.3435116,-40.5190849
8140,6.1195483,13.0100250,1.1994889,65.6030502,-9.3435116,1.3511450,-2.5929072,6.5888095,-1.2521610,35.9465637,12.9923668,-45.4427490
8150,6.0429344,12.5024576,1.1803354,61.5801544,-4.4122138,-14.7633591,-3.1124463,7.1155310,-2.5402350,26.7633591,7.2824426,-47.8549614
8160,5.4779053,11.8440552,1.3455344,58.6946564,1.2061069,-28.3053436,-3.4907281,7.7619624,-3.4548154,14.1526718,18.2366409,-47.3435097
8170,4.5752959,11.0850973,1.3742647,57.7862587,4.7709923,-38.8396950,-3.2920105,7.5201492,-3.5410061,8.2748089,67.9465637,-39.8015251
8180,3.7804251,10.3452930,1.4269369,57.8320618,6.2900763,-45.8015251,-3.1866663,7.2711535,-2.6048782,14.4580154,123.9923630,-30.8625946
8190,3.0669568,9.4881725,1.1013272,57.4809151,6.9541984,-48.9923668,-4.3023586,7.7523856,-1.2808913,25.5190830,152.5954132,-12.2137403
8200,2.3750360,8.6909075,0.8738791,56.7557259,5.0687022,-49.8854980,-4.6327567,7.4866304,-0.9744351,25.9007626,149.1297760,9.4122133
8210,1.7860653,8.2431946,0.6105183,55.4274826,1.3282443,-48.0916023,-3.5242469,7.1586266,-1.1779412,12.5190840,118.9618301,15.7709923
8220,1.3024391,7.9032192,0.5817881,54.0534363,-3.5038168,-44.5725174,-1.6232605,6.7994981,-1.4006008,-9.7022905,71.9694672,-0.5954198
8230,1.0941446,7.5249376,0.4979914,52.3587799,-8.2519083,-40.2213745,0.0430954,6.6510582,-1.4724265,-37.7328262,23.6641216,-33.7404594
8240,1.0199248,7.1682034,0.3830703,50.3206100,-10.2213745,-35.8320618,0.3639168,6.6366930,-0.4836263,-66.5877838,-19.6641216,-72.1679382
8250,1.0079538,6.8689294,0.2442073,47.5038185,-8.0687027,-30.9236641,-0.3495516,6.8042865,1.2066715,-88.4732819,-54.6564903,-104.6641235
8260,1.0725969,6.5959921,0.0981618,42.9923668,-3.2748091,-26.1221371,-2.4444675,7.6877422,3.0908985,-101.1221390,-92.1984711,-124.3129807
8270,1.0989330,6.3613615,-0.2633608,37.8931313,1.6870229,-22.7328243,-3.5649481,8.2647419,4.1395535,-106.1984711,-135.7862549,-129.4503784
8280,1.1252691,6.2009506,-0.3375807,32.6488533,5.3893127,-19.6030540,-3.6439564,8.7723103,4.4460096,-104.2977066,-162.8625946,-128.6106873
8290,1.1061156,5.9974446,-0.3974355,26.8015270,7.4045801,-16.3740463,-3.0621684,9.3110027,4.3430595,-96.4503784,-167.4427490,-124.0152664
8300,1.0247130,5.7077475,-0.5913648,21.1755733,8.5496187,-13.6793890,-2.3391230,9.7754755,3.9025288,-86.7099228,-153.5877838,-118.9465637
8310,0.8738791,5.5952206,-0.4165890,16.4274807,7.0458016,-10.8396950,-1.9009864,10.2614956,3.3375001,-78.1374054,-133.4732819,-117.6641235
8320,1.0510491,5.4707227,-0.1101327,13.4656487,5.8320613,-8.5954199,-2.2672975,10.5631638,3.2417326,-69.4809189,-113.1526718,-119.4503784
8330,1.3263810,5.4874821,0.2537841,13.1679392,6.1297708,-8.4198475,-2.8155668,11.1952295,3.6200144,-59.1068687,-95.4122162,-121.8396912
8340,1.6280488,5.4324160,0.5291159,13.4809160,8.7633591,-10.1221371,-3.9528067,11.9470053,4.1658897,-45.8854980,-77.8854980,-121.7099228
8350,1.5514348,5.3414369,0.1628049,12.9770994,13.2137403,-12.5419846,-5.1475072,12.8927097,4.8027439,-27.8854961,-63.6335869,-112.9770966
8360,0.9480990,5.1882086,-0.4165890,9.1984730,16.2290077,-12.5496187,-5.4443870,13.5630836,4.2065907,-10.7709923,-55.7786255,-104.5877838
8370,0.2418131,5.1283536,-1.0654143,0.3206107,16.6335869,-7.6335878,-5.3558016,13.8096848,3.0262554,0.4885496,-59.6259537,-99.3664093
8380,-0.1843526,5.4204450,-1.2330076,-11.4961834,16.1145039,0.9389313,-4.7955613,13.8599625,1.9704180,3.1450381,-67.2671738,-98.6717529
8390,-0.1939293,6.1123657,-0.8858501,-20.3053436,15.8778629,10.5954199,-4.5705075,13.7929258,1.7477583,4.0992365,-74.8778610,-100.3740463
8400,-0.0478838,6.8282285,-0.4261657,-23.7633591,15.6488552,19.2977104,-4.7740140,13.5559006,2.5665710,8.9389315,-83.2442780,-104.3969498
8410,0.4381367,7.4698710,-0.1460456,-23.9465656,16.9465656,23.7709923,-5.5664907,13.4314032,3.2608860,15.5419846,-106.9542007,-112.3587799
8420,1.2306134,8.4730368,-0.0023942,-23.1068707,21.4961834,21.7862587,-6.1147599,13.2231083,3.2752512,16.0610695,-155.5038147,-124.9618301
8430,1.6855093,9.4714136,-0.0383070,-24.5343513,27.0839691,11.4580154,-5.7101417,13.0626974,2.8251436,3.9847329,-212.0000000,-142.4045868
8440,1.7860653,10.1082678,-0.5746055,-30.6717548,29.6106873,-6.2824426,-4.2688398,12.9693241,2.9520357,-19.9312973,-250.1374054,-163.9541931
8450,1.0007712,10.2255831,-1.5227045,-44.7633591,27.0916023,-22.4045811,-2.4851687,12.3683825,3.6511390,-44.3664131,-250.1374054,-183.9618378
8460,0.1268920,10.4123297,-1.8028246,-65.9923630,23.4885502,-26.0534344,-0.0407012,11.3149395,4.5322008,-57.7022896,-250.1374054,-204.0152740
8470,-0.2442073,10.1633339,-1.1731528,-86.6030502,22.3435116,-13.9083967,1.1683644,11.2239599,5.2504573,-47.5190849,-216.7404633,-219.5038147
8480,0.5051740,10.3165627,0.4022238,-94.7328262,25.1755733,5.2442746,-0.2729376,11.8464499,5.2169390,-18.4961834,-129.5190887,-217.5496216
8490,1.4604555,10.9821472,1.3335636,-89.1908417,24.9541988,16.9541988,-1.8411317,12.7155399,4.6806402,8.4427481,-52.0000000,-196.6335907
8500,2.7102225,11.9422169,2.0709739,-76.0076370,20.3435116,18.3206100,-2.0422437,14.1352949,3.7660601,24.7557259,15.7786255,-170.3282471
8510,3.6415622,12.4617558,2.3486998,-58.4198456,13.1297712,9.7480917,-1.9368993,15.1839495,3.1675127,31.4122143,72.3740463,-146.0000000
8520,4.0222383,12.8998928,1.7908537,-41.8702278,2.3664122,-6.3587785,-2.7365584,16.1871147,2.7102225,28.0458012,109.3587799,-122.5648880
8530,3.4141142,12.9812956,0.9959828,-32.7862587,-10.0381680,-23.3206100,-3.7469065,16.2541523,2.8012016,13.2442751,123.4732819,-100.1603088
8540,2.2122312,12.5192165,0.5817881,-32.3664131,-18.9389305,-33.2519073,-3.7756367,15.7872849,2.1020982,-9.0687027,112.2671738,-79.7709961
8550,1.3096216,11.8536320,0.7637464,-35.8473282,-22.5801525,-33.1297722,-2.1475880,14.2573986,1.7333932,-33.3816795,94.1603088,-71.9694672
8560,0.5841822,11.3412752,1.5705882,-35.9923668,-22.3129768,-26.5877857,-0.3399749,12.9286232,0.8212070,-53.3893127,82.1908417,-82.8015289
8570,-0.0023942,10.9965124,2.3175755,-30.9083977,-21.8702297,-16.2977104,0.3351865,11.4226780,-0.5626345,-70.6106873,90.2137375,-104.5725174
8580,-0.1460456,10.9605989,2.9664006,-20.5725193,-21.8931293,-3.8625953,-0.4046180,10.1274214,-2.1643472,-87.7175598,112.4809189,-125.1068726
8590,-0.2202654,10.8720140,3.4189026,-5.4351144,-24.1679382,7.8167939,-2.2672975,8.0444765,-3.3063757,-102.4809189,137.7786255,-138.0458069
8600,0.0143651,10.9270811,3.4284792,11.0076332,-28.2213745,16.9847336,-3.9432299,5.4683285,-4.3334827,-114.4427490,159.2366486,-140.4961853
8610,0.4357425,10.9342632,2.7317703,23.8244267,-31.1221371,22.7786255,-4.2137733,2.5737536,-5.6718349,-124.6412201,180.4351196,-145.0305328
8620,0.8762733,11.1066446,1.9249283,28.7099228,-33.3587799,23.9007626,-4.9679432,-0.1173153,-8.1019373,-129.9084015,191.5343475,-154.5190887
8630,1.0821736,11.0228481,1.4077834,27.7175579,-34.3893127,21.5648861,-7.3980455,-3.7876077,-11.1162214,-142.9465637,185.3893127,-166.6335907
8640,1.2689204,10.9725704,1.2784972,24.0610695,-34.8931313,15.8015270,-12.3085279,-9.0356712,-13.6277266,-174.1374054,175.3206177,-173.1755676
8650,1.2761030,10.8528605,1.2162483,20.1145039,-32.2977104,8.8015270,-18.2940025,-16.7569313,-15.0881815,-215.8167877,177.1145020,-166.0763397
8660,1.1061156,10.6469603,1.0989330,15.5725193,-28.2671757,2.6259542,-19.6131992,-19.6131992,-14.7817259,-250.1374054,192.4198456,-134.8244324
8670,0.8475431,10.3117743,1.0103480,10.9465647,-24.6030540,-2.8854961,-19.6131992,-19.6131992,-10.0747490,-250.1374054,218.9084015,-76.2366409
8680,0.6200951,10.0508070,0.8619082,6.4427481,-22.3969460,-7.8854961,-19.6131992,-19.6131992,-0.7062859,-250.1374054,242.6793823,5.3893127
8690,0.3567342,9.7036495,1.0797794,3.4580152,-20.0610695,-12.8396950,-19.6131992,-19.6131992,10.7546988,-250.1374054,188.1221313,102.6870193
8700,-0.0047884,9.3804340,1.1587877,2.1145039,-16.9694653,-16.9389305,-19.6131992,-15.2390156,19.5940456,-250.1374054,43.6106873,188.5954132
8710,-0.6584021,9.2679071,1.0678085,2.1603053,-12.6335878,-19.2061062,-10.9270811,-14.9253769,19.6126022,-249.9923706,-45.3435097,224.3893127
8720,-1.0917504,9.2415714,0.8283895,2.3053436,-6.5954199,-18.4351139,-1.2904681,-16.1919041,19.6126022,-159.9389343,-36.1755714,194.3587799
8730,-1.2282192,9.4019823,0.4692611,1.7557251,0.6183206,-16.0381680,1.6400198,-15.2701406,19.6126022,-39.9389305,-22.6488552,113.7786255
8740,-1.0773853,9.3828287,0.3351865,1.0000000,5.6488547,-15.1068707,-1.7046629,-13.4002781,19.6126022,98.8549652,-57.9083977,24.4809170
8750,-0.9337339,9.3277617,0.1436514,-0.0381679,7.5725193,-15.3969469,-8.8513184,-11.6956158,13.5535069,215.0381622,-128.3282471,-35.3893127
