timestamp,rxacclX,rxacclY,rxacclZ,rxgyroX,rxgyroY,rxgyroZ,txacclX,txacclY,txacclZ,txgyroX,txgyroY,txgyroZ
0,2.4037662,7.5680327,2.4899571,55.8625946,14.7480917,-58.0763359,-2.4995339,3.8618276,9.5695753,-0.9541985,-4.0534353,-2.3969467
10,1.8267666,8.6023226,3.4284792,14.9847326,24.7022896,-17.8244267,-2.4851687,3.9144998,9.5647869,-0.1068702,-4.0687022,-1.7938931
20,3.1579359,8.2551651,3.6104376,6.0458016,1.9389313,2.7175572,-2.4061604,3.7564833,9.6030941,-0.2061069,-3.2748091,-3.2137403
30,3.5457945,7.9606800,3.8618276,7.1526718,-6.2213740,5.0763359,-2.4253139,3.8642218,9.5288744,0.1145038,-3.0076337,-2.8473282
40,4.2281384,7.9175844,4.2616572,10.6183205,-12.4122133,7.3511453,-2.5306582,3.7684543,9.5671806,0.0916031,-3.4274809,-3.1984732
50,5.7125359,7.9534974,2.4444675,31.7328243,-9.7022905,3.7557251,-2.4684093,3.8594334,9.6581602,-0.8396947,-4.2977099,-3.1984732
60,4.1036406,8.3317795,0.0957676,12.0916033,6.2213740,-15.0305347,-2.5593886,3.8283088,9.7108326,0.4961832,-3.9083970,-3.0000000
70,1.9057748,8.1139078,-0.0574605,-8.8244276,17.7709923,-14.8778629,-2.4947455,3.8642218,9.5695753,0.8015267,-3.6030533,-3.4274809
80,0.1628049,8.2312231,1.3862357,-12.0381680,5.7709923,8.5267172,-2.5162930,3.8091555,9.5192976,0.4427481,-3.8702290,-3.1755726
90,0.4501076,8.8177996,1.5203103,-7.8015265,-8.2671757,15.7404585,-2.3989778,3.9192882,9.5192976,0.1984733,-4.0916033,-2.8625953
100,0.8331779,9.3947992,1.7142396,-4.5190840,-21.2519093,20.7251911,-2.5737536,3.8761928,9.4498653,-0.2213740,-3.9694657,-3.0458016
110,2.4085546,10.2926207,1.9249283,-3.4274809,-38.2748108,21.7938938,-2.5498118,3.8785870,9.6246414,0.0992366,-3.8015268,-2.6106870
120,3.1220231,10.5511932,2.2696917,-6.2442746,-40.4809151,16.7099228,-2.4779861,3.9121056,9.5121145,0.1679389,-3.7480917,-3.2519083
130,3.5386121,10.6828737,2.7844424,-10.0000000,-36.9694672,9.8625956,-2.4971397,3.8043671,9.5959110,0.1984733,-3.5877862,-2.9923663
140,3.8043671,10.5775290,3.3638363,-12.5496187,-31.2213745,3.0992367,-2.5115047,3.8307030,9.3852224,0.1603053,-3.4351146,-3.2290077
150,3.6607156,10.4626083,3.9360476,-13.8167934,-23.9083977,-2.6412213,-2.5833304,3.9073172,9.3852224,-0.4961832,-3.4732823,-3.1068702
160,3.5146701,10.2591019,4.3263001,-13.4580154,-17.7862587,-6.7938933,-2.5617826,3.8642218,9.4283180,-0.9923664,-3.7022901,-3.2519083
170,3.3566537,10.0532017,4.6686692,-11.2061071,-14.1679392,-10.3893127,-2.5019281,3.8091555,9.3876171,-1.6106870,-3.9923663,-2.6106870
180,3.1507533,9.7658987,4.9583664,-6.6641221,-12.4274807,-13.7404585,-2.4133430,3.8067613,9.4426832,-2.0076337,-4.1984735,-3.4198472
190,2.9017577,9.6246414,5.0062504,-0.7862595,-11.0152674,-16.3053436,-2.4420733,3.8570392,9.5145092,-2.3358779,-4.0763359,-3.1679389
200,2.5905130,9.4283180,4.8410511,4.0992365,-11.1145039,-17.6030540,-2.5737536,3.8139439,9.5887289,-2.2595420,-4.0458016,-3.5267177
210,2.4061604,9.2463598,4.4460096,6.8778625,-13.4656487,-18.7404575,-2.5929072,3.8450682,9.6749191,-2.0000000,-4.3511453,-3.4809160
220,2.3917952,9.0021524,4.4914994,8.8396950,-15.0839691,-20.1603050,-2.5330524,3.8785870,9.6581602,-1.2519084,-4.2977099,-2.5343511
230,2.2337787,8.7842808,4.7596488,13.4427481,-15.2748089,-21.4274807,-2.4444675,3.7947903,9.7132263,-0.1679389,-4.1374044,-2.9770992
240,2.2170193,8.5352850,4.7764082,19.2213745,-13.2595415,-22.5801525,-2.3989778,3.8881636,9.6677370,0.1984733,-3.1908398,-3.2290077
250,1.9057748,8.4419117,4.1347651,23.1221371,-10.6335878,-22.6488552,-2.4779861,3.7708483,9.5983057,0.6488550,-3.2137403,-3.4885497
260,1.6687500,8.8872309,2.0925217,23.7938938,1.1450381,-5.8015265,-2.6024840,3.8426740,9.4762020,0.1297710,-3.6183207,-2.9160306
270,1.5586174,8.8465300,0.5219333,12.2061071,1.1297710,-4.8167939,-2.6096666,3.8833754,9.4809904,-0.3587786,-4.1374044,-3.1603053
280,1.3024391,8.8441362,0.9361281,3.8396947,9.1297712,-0.9236641,-2.5953014,3.8187323,9.5145092,-0.3664122,-4.2366414,-2.9160306
290,1.3838415,9.2008705,1.3479286,-1.9389313,18.8854961,3.9007633,-2.5761478,3.8091555,9.5073261,-0.5190840,-4.5419846,-3.2290077
300,1.6663558,9.4402885,1.1252691,-6.9694657,26.7099228,7.8549619,-2.6455793,3.8666160,9.5839405,-0.3816794,-4.3511453,-2.5801528
310,2.0494261,9.6174593,1.0199248,-12.3435116,25.2366409,10.5267172,-2.7174051,3.8666160,9.5911226,-0.4961832,-4.0534353,-2.2824428
320,2.4971397,9.6294298,1.1683644,-17.0076332,19.7404575,11.6259546,-2.7054341,3.9432299,9.4977493,-0.2213740,-3.8549619,-1.7175573
330,2.7700772,9.4977493,1.5993185,-20.4274807,14.8015270,11.9847326,-2.6790979,3.8905578,9.5312681,-0.3511450,-4.0687022,-1.3664122
340,3.6607156,9.2343884,3.3686244,-15.3816795,-7.8931298,18.3206100,-2.5138988,3.7828193,9.5240860,-0.7022901,-4.7557254,-0.7709923
350,4.2496862,9.3540983,3.9982965,-8.8702288,-12.2900763,17.1374054,-2.4277081,3.8618276,9.5911226,-0.5496183,-4.8473282,-1.6183206
360,4.1060348,9.3971939,3.9552009,-1.3511450,-15.4045801,14.8473282,-2.4899571,3.7876077,9.5192976,-0.2290076,-4.6641221,-1.3358779
370,4.1754665,9.3971939,3.5841017,6.1984735,-12.5114508,9.0992365,-2.3894010,3.7109938,9.4642305,-0.8625954,-5.3358779,-2.4732823
380,4.0892754,9.3229742,3.2201848,7.1908398,-8.4580154,5.6641221,-2.4684093,3.7756367,9.5001440,-0.7480916,-4.8778625,-2.7022901
390,3.8737986,9.3301563,3.0023136,6.1068702,-3.2519083,2.8244274,-2.5138988,3.7229645,9.5360565,-0.8931298,-4.8244276,-2.5572519
400,3.6319854,9.2918491,2.8849983,4.0534353,0.9541985,-0.0458015,-2.4612267,3.7636659,9.6246414,-1.0152671,-4.6641221,-2.8778627
410,3.1699069,9.2128410,2.7341642,2.2748091,2.8549619,-1.7709924,-2.5546002,3.8259149,9.6006994,-0.9389313,-4.6412215,-2.7022901
420,2.9400647,9.1266499,2.9233053,1.6488550,2.1068702,-3.4198472,-2.4803803,3.8019729,9.6390066,-0.9160305,-4.7328243,-2.7862597
430,2.5881188,9.1027079,2.9280937,2.0000000,0.7022901,-4.1297708,-2.4899571,3.7876077,9.6270361,-0.6870229,-5.0381680,-2.6717558
440,2.3510940,9.2200232,2.7940190,1.5954199,-0.8320611,-5.0381680,-2.4827745,3.8091555,9.6557665,-0.4274809,-5.7480917,-2.4503818
450,2.2361729,9.2463598,2.7245877,0.1908397,-1.2290076,-5.0381680,-2.4396791,3.8019729,9.6222477,-0.4274809,-6.0763359,-3.0229008
460,2.0446377,9.2463598,2.6024840,-6.3206105,0.9923664,-4.2671757,-2.4731977,3.7540891,9.7108326,-0.1526718,-8.0534353,-4.9923663
470,1.9632354,9.1649570,2.8155668,-9.8778629,2.2977099,-2.9312978,-2.4875629,3.8450682,9.7108326,-0.1526718,-9.4885492,-6.1450381
480,2.0829449,9.1410151,2.7820482,-12.4961834,3.0763359,-2.1221373,-2.6431851,3.6655040,9.6701307,-0.6106870,-12.8549614,-6.6335878
490,2.1356170,9.0045462,2.9807658,-14.4045801,3.8320611,-1.6488550,-2.6527619,3.8737986,9.7443514,-0.7786260,-11.0687027,-6.7862597
500,2.0805507,8.9638453,3.0525916,-14.9923668,4.5114503,-1.5267175,-2.7413468,3.8953462,9.8927908,0.0458015,-7.9312978,-5.1145039
510,1.9560528,8.8632889,3.1507533,-15.2595415,9.5801525,-1.5038168,-2.5665710,3.7469065,9.9789820,4.3206105,-5.3511453,-3.3816793
520,1.8578910,8.9087791,3.1172347,-14.8473282,13.6793890,-1.3053435,-2.4085546,3.9025288,10.0484133,6.4503818,-4.4503818,-3.3816793
530,1.5155219,8.9279327,3.0549858,-14.1145039,17.9160309,-0.6259542,-2.3008161,3.7732425,10.0244713,9.0763359,-1.6488550,-3.8167939
540,1.2808913,9.0308828,2.8993635,-13.7938929,20.5267181,0.6488550,-2.3822186,3.8163381,9.9957409,11.7480917,1.9160305,-4.0458016
550,1.1707586,9.0476418,2.8586621,-13.9694653,21.0687027,3.0687022,-2.2553265,3.9408360,9.7491398,13.7633591,5.4580154,-3.4809160
560,1.1061156,9.0165176,2.8849983,-13.6259546,18.6641216,6.4656487,-2.4085546,3.7181761,9.9287033,15.5267172,8.7251911,-3.3358779
570,1.3934183,9.0284882,3.0501974,-12.2748089,13.4122133,9.9083967,-2.5976956,3.8450682,9.8544836,17.5038166,9.2671757,-3.5725191
580,1.7908537,9.1146793,3.2130022,-9.4122133,6.2671757,12.0000000,-3.5457945,3.2010312,9.4355011,17.6641216,4.9389315,-0.3587786
590,2.2313845,8.9686337,3.3135581,-6.0305343,-0.7099237,13.5190840,-2.3127871,4.3478479,9.5647869,17.2290077,3.1908398,0.0916031
600,2.7581062,8.9399033,3.4548154,-2.3893130,-6.6259542,13.6793890,-2.4684093,4.0102673,9.3995876,14.8778629,6.0152674,-0.1374046
610,3.2944047,8.8992023,3.5146701,1.3587786,-12.0687027,12.9618320,-2.5713594,3.9097114,9.5432396,13.9923668,5.6641221,-0.1221374
620,3.6990228,8.7028790,3.3710186,4.6106873,-16.3129768,12.5038166,-2.6599445,4.1012464,9.7611103,13.5343513,5.1679387,-0.6564885
630,4.4412212,8.2982607,3.1818779,12.3587790,-22.0305347,10.7328243,-2.7940190,4.0509686,9.8736372,15.4503813,5.4732823,0.3969466
640,4.7764082,7.9918046,2.1236460,16.3435116,-25.7175579,13.3969469,-2.5450234,4.0653338,9.9646168,19.4503822,7.5419846,0.2900763
650,5.2935529,8.2551651,1.4580613,13.7786255,-22.5038166,13.1832066,-2.7293761,4.1515245,9.8808203,22.0305347,10.7099237,-0.5038168
660,5.3198891,8.5879574,0.8092360,8.1908398,-16.6335869,8.9847326,-2.7964132,4.0318151,9.7850523,22.9160309,12.5725193,0.2824427
670,4.9344244,8.6310530,0.5051740,0.8091603,-10.4885492,4.2061067,-2.9065459,4.1850433,9.6246414,22.5725193,12.5267172,0.6488550
680,4.2975702,8.6142941,0.3136388,-7.9694657,-3.7480917,-0.4656489,-2.9256995,4.2401094,9.5791521,21.2137413,11.7404585,1.1297710
690,3.4212968,8.4730368,0.5171449,-16.1221371,0.7938932,-3.6412213,-2.8897867,4.2736282,9.6366129,19.0534344,9.9847326,1.9389313
700,2.3606708,8.3868456,0.9193687,-20.9007626,1.6259542,-3.4580152,-2.7916248,4.2137733,9.5073261,16.4503822,7.5419846,2.6488550
710,1.5298871,8.1905222,1.5849534,-21.2595425,-1.9160305,0.5038168,-2.5498118,4.2760224,9.5576038,13.5496187,5.8931298,3.0458016
720,3.4667864,8.4802189,2.1451938,-16.9236641,-11.0152674,1.0076336,-2.3175755,4.2209558,9.7994175,11.8244276,5.1145039,2.2137403
730,1.1061156,8.8297710,2.2146254,-10.1603050,-18.9618320,4.2824426,-2.4037662,4.0868812,9.9095497,12.5725193,7.1221375,0.5343512
740,0.4070122,8.4155760,2.0015423,-5.1603055,-27.6641216,13.4809160,-2.5091105,4.0629396,10.0244713,14.9923668,12.5190840,0.7633588
750,1.6136837,9.4091644,1.9584470,-0.5877863,-37.9007645,27.0916023,-2.5976956,4.0964580,10.0125008,21.1221371,25.6488552,1.9847329
760,2.3439114,9.6414013,1.9943599,-0.8931298,-39.5648842,28.6641216,-2.6192431,4.1826491,10.0388365,23.3893127,32.2824440,2.4961832
770,3.2417326,9.9717989,2.0183017,-11.2137403,-33.2595406,24.2442741,-2.7868366,4.3717899,10.1441803,22.7480907,37.2290077,2.3969467
780,3.6463506,9.9622221,2.4947455,-17.4732819,-29.2366409,20.7251911,-2.9185169,4.2855992,10.1633339,21.8091602,32.0000000,2.9236641
790,4.0150557,9.8568783,2.8826041,-22.7480907,-25.3664131,16.4122143,-3.0358322,4.0940638,10.3213511,22.2977104,25.7633591,2.4580152
800,4.3334827,9.6437950,3.6655040,-25.2748089,-21.3129768,11.0763359,-3.1866663,3.3877780,9.9382801,25.4122143,19.9389305,2.4427481
810,3.6894460,9.0380650,4.8530221,-22.7862587,-14.9083967,7.3816795,-2.5785420,3.7349355,9.7132263,29.9160309,18.4732819,-0.1755725
820,5.0062504,8.9135675,4.4986820,-18.5725193,-13.7709923,3.7175572,-2.5713594,3.8211265,9.2128410,33.6946564,22.3282452,-2.5877862
830,4.2736282,9.1290445,4.9296360,-15.3282442,-9.9465647,-2.7786260,-2.7174051,3.6080434,8.5999289,36.2442741,27.4427490,-3.0610688
840,3.3805954,8.5113440,3.4141142,1.1145039,0.7404580,-9.4427481,-3.7062054,4.6566987,7.8170285,11.0229006,25.7938938,-6.2595420
850,3.2058196,8.6310530,3.2058196,0.6259542,1.7633588,-10.6641226,-3.5697365,4.5537481,8.0253229,9.6335878,12.9007635,-7.2137403
860,2.9496415,8.6190825,2.8826041,-1.0305344,2.3129771,-10.9389315,-3.3494711,4.5034704,8.1163025,11.2213745,2.2824428,-8.6564884
870,3.0214672,8.8130112,2.9735832,-9.6870232,-3.5725191,-1.5801526,-4.5992379,5.8250628,6.7516141,7.1603055,9.8625956,-10.8778629
880,3.2513094,9.0859489,3.1675127,-13.5038166,0.6335878,-4.7251906,-4.2784166,5.9328012,7.8074517,-4.3358779,2.9236641,-7.9923663
890,2.9544299,8.7962523,4.3526363,-11.3893127,5.1908398,-1.2061069,-4.8051381,5.8633699,7.9127960,2.9770992,2.9160306,-2.8854961
900,3.1938488,8.7818871,4.5417776,-7.8396945,5.0229006,-0.8931298,-4.9799142,5.7987270,7.8649125,1.3664122,5.7099237,0.5267175
910,3.2991931,8.7747040,4.5178356,-4.2671757,5.7938933,-1.0458015,-4.8769641,5.6838059,7.9774394,-0.6412213,6.4961834,3.4809160
920,3.2944047,8.7938576,4.3382711,-2.0076337,7.4961834,-1.3740458,-4.7237358,5.6383162,8.2240410,-1.7175573,6.5190840,6.1221375
930,3.3566537,8.8489246,4.2161674,-0.4503817,8.0000000,-1.3282443,-4.2616572,5.5712790,8.3820572,-1.5725191,5.5801525,7.7251906
940,3.2704628,8.8177996,4.0725164,0.4198473,7.8473282,-0.9770992,-4.0437860,5.4874821,8.4467001,-0.3053435,5.0458016,8.8167934
950,3.3686244,8.8130112,4.1060348,1.7480916,8.0992365,-0.8473282,-3.8522508,5.4060798,8.3964224,0.3816794,6.4122138,7.9312978
960,3.4955165,8.9566631,4.1802549,3.9465649,8.4580154,-0.9923664,-3.8043671,5.3988972,8.3916340,1.2519084,9.0229006,8.2213745
970,3.5841017,8.9327211,4.1467361,6.7557254,9.4274807,-1.5419847,-3.9288650,5.3127065,8.4802189,2.6030533,12.8320608,7.9541984
980,3.6343796,8.9566631,4.1060348,9.5877867,9.8244276,-2.0687022,-3.9097114,5.3246775,8.4012108,4.1603055,16.3816795,8.7175570
990,3.6966286,8.9877872,4.1706781,12.9389315,10.7633591,-3.1374047,-4.0174499,5.3486195,8.2886839,5.7175574,21.3587780,10.6259546
1000,3.5793133,9.0404596,3.9049230,16.1526718,12.2137403,-4.1679387,-3.9767487,5.3749552,8.0468712,6.2748094,28.8167934,12.6259546
1010,3.4787574,9.0955257,3.5434003,18.0381680,12.0229006,-4.2977099,-3.9049230,5.3917146,7.9654684,6.4961834,37.8473282,14.7938929
1020,3.5122759,9.2032642,3.3039815,18.5496178,9.7328243,-4.6793895,-3.8091555,5.3653784,8.0061693,6.9389315,44.8854980,16.7175579
1030,3.5793133,9.2535419,2.9520357,17.1984730,8.9847326,-5.5877862,-3.7708483,5.3270717,7.9606800,6.6183205,49.2824440,16.4656487
1040,3.4572096,9.4785957,2.6048782,13.8167934,10.4427481,-6.6641221,-3.6152260,5.2504573,7.9558916,5.8244276,50.1145020,15.3282442
1050,3.2321558,9.5791521,2.4468615,8.2290077,14.0687027,-7.6335878,-3.7062054,5.2241216,8.0061693,4.3358779,48.6641235,13.3129768
1060,2.9424589,9.4762020,2.3750360,1.9923664,19.8702297,-7.3129773,-3.7636659,5.2624283,8.0085640,2.5648854,47.8931313,11.7022905
1070,2.7964132,9.4067707,2.6934631,-3.6641221,24.6641216,-7.1450381,-4.1347651,5.2169390,8.0564480,1.4351145,46.2061081,11.1908398
1080,2.4181314,9.2439651,3.1435707,-5.4961834,25.7938938,-6.6870227,-4.2496862,5.1092005,8.1570034,1.9236641,44.9694672,11.1832066
1090,2.0446377,9.1027079,3.3925664,-4.4045801,23.4961834,-4.9770994,-4.2281384,5.2025738,8.0660238,2.9465649,45.4885483,11.5572519
1100,1.9105632,8.9446917,3.6056492,-2.1374047,19.6488552,-2.8778627,-4.1299767,5.2097564,7.7739329,3.9618320,49.1145020,11.7786255
1110,1.8794388,8.8537130,3.7421181,0.5419847,15.6946564,-0.2900763,-4.1611013,5.1810260,7.9271612,4.9312978,52.9541969,12.3511448
1120,1.8578910,8.8513184,3.6990228,3.4045801,12.4122133,1.6106870,-4.1227942,5.1594782,7.8601241,6.3358779,55.1679382,11.3664122
1130,2.0039365,8.8728657,3.6224086,6.0839696,10.1145039,3.1832061,-4.2520804,5.2289100,7.8720951,8.2900763,56.0152664,9.5954199
1140,2.0350611,8.8632889,3.6128318,8.1068707,8.8854961,3.5038168,-4.4077029,5.3270717,7.8840661,10.0763359,54.2290077,8.5954199
1150,2.0590029,8.9279327,3.3255291,8.7557249,8.9236641,2.7938931,-4.5393834,5.3677726,7.6518297,11.7862597,51.1221390,7.7022901
1160,1.9321109,8.9542685,3.2920105,8.0381680,9.3740454,3.0687022,-4.5848727,5.4228392,7.6015515,13.6564884,49.7557259,7.3740458
1170,1.9560528,9.0165176,3.2537034,6.1908398,11.7022905,3.5954199,-4.5681133,5.3893204,7.5776095,14.9007635,45.9771004,6.4045801
1180,2.1451938,8.9925756,3.6032550,3.9083970,11.6564884,5.6793895,-4.5681133,5.5880380,7.2184811,14.7786255,26.9389305,-2.1297710
1190,2.4995339,9.0069408,3.8570392,4.6030536,9.2290077,6.7328243,-4.7596488,5.5593081,7.1418672,13.8091602,16.7022896,-4.6335878
1200,2.8658447,9.0667953,3.9982965,6.5267177,5.1908398,6.7404580,-4.9416070,5.6359220,7.0149751,11.8091602,8.3435116,-7.2061067
1210,3.3638363,9.0165176,3.9264708,8.6183205,1.4732825,6.3740458,-5.1810260,5.7604198,6.9048424,9.7709923,1.7022901,-7.9312978
1220,3.9049230,8.8513184,4.0078731,10.3740454,0.6106870,5.5877862,-5.2863703,5.7867560,6.7157016,7.7938933,-1.4961832,-5.9694657
1230,4.3191175,8.7579451,3.9336534,11.8167934,1.9618320,5.6335878,-5.3198891,5.8681583,6.7300668,5.7022901,-1.6717557,-3.1374047
1240,4.5824785,8.3198080,3.5793133,12.5648851,4.6259542,6.0839696,-5.3174949,5.8346395,6.8809004,4.0229006,-3.4885497,-1.6030535
1250,4.8386569,8.1019373,3.1603301,12.1908398,7.6870227,7.3358779,-5.2935529,5.6909885,6.8665352,3.0534351,-6.7022901,-0.7175573
1260,5.1882086,7.7284436,2.9400647,11.9389315,9.6106873,9.3129768,-5.1618724,5.5808558,6.9072366,2.3587787,-8.1832066,-1.0381680
1270,5.4802995,7.6015515,2.7748656,13.3053436,7.7099237,11.3511448,-4.8123207,5.3174949,6.6175399,3.1984732,-3.3435113,-2.6259542
1280,5.8298512,7.7930865,2.5162930,16.9389305,4.0839696,11.0534353,-3.9887197,4.7979555,6.4858594,3.9007633,14.0229006,-6.9007635
1290,5.9375896,8.0325060,1.7621235,18.9236641,-0.3435115,8.2213745,-3.5003049,5.5856438,6.6845770,7.6564884,41.9694672,-20.7862587
1300,5.4372044,8.4562769,0.5027798,13.4885492,-3.5725191,-5.6183205,-6.0716643,5.6598639,7.2831244,17.4503822,53.0228996,-12.2442751
1310,4.5824785,8.4969788,-0.0047884,6.0076337,-1.6870229,-13.3435116,-6.0285692,5.6718349,7.1442614,18.5572510,44.5648842,-6.5496182
1320,3.4356618,8.3174143,-0.0047884,-2.9236641,3.0000000,-18.5801525,-5.5377603,5.4731169,6.7923155,17.4503822,28.3282452,-4.7633586
1330,1.1468167,7.8553357,0.8834559,-12.7022905,3.9770992,-14.8473282,-4.8697815,5.4491754,6.2272868,14.1832066,19.4885502,-6.3816795
1340,0.4237715,7.9606800,1.2952565,-12.3129768,-2.5343511,-6.8625956,-4.7524662,5.4970589,5.6862001,12.0229006,29.5648861,-8.0152674
1350,0.2681492,7.9654684,1.6112895,-9.4351149,-11.5419846,2.1984732,-4.7069764,5.5257893,5.3749552,6.9770994,42.6946564,-9.2671757
1360,0.3830703,8.4323349,1.8195840,-5.9694657,-21.0610695,10.4885492,-5.0613165,5.4060798,5.6957769,0.5496183,49.6259537,-13.4198475
1370,0.9768293,8.9399033,1.8650736,-3.4580152,-28.8473282,16.7175579,-5.6694407,5.4395986,6.2991123,-5.2290077,43.4351158,-15.8320608
1380,1.6472024,9.4043760,1.6879035,-4.4732823,-32.9160309,19.3282452,-5.8681583,5.6119800,6.6390872,-7.9160304,37.0458031,-16.7404575
1390,2.4157372,9.7084379,1.8147956,-8.4656487,-32.3664131,19.1221371,-5.8106980,5.4683285,6.8138633,-7.8702292,34.3587799,-15.6335878
1400,3.1675127,9.8425131,2.1906834,-14.3129768,-28.7175579,15.5954199,-5.6215568,5.3629842,6.9742737,-6.1603055,33.5267181,-16.3893127
1410,3.5410061,9.8305416,2.7150109,-19.2213745,-24.2137413,10.2290077,-5.8322453,5.1786318,6.9000540,-3.5419848,32.8473282,-18.1145039
1420,3.6295912,9.6294298,3.3494711,-22.7328243,-18.3740463,4.9160304,-5.9806852,5.1690550,6.9120250,-1.1145039,34.4274826,-19.2671757
1430,3.5386121,9.5312681,3.7469065,-24.1679382,-12.3435116,0.9389313,-5.9711084,5.2073622,6.7324610,0.6870229,39.7557259,-18.7404575
1440,3.4404502,9.3540983,4.0389977,-24.9160309,-6.6641221,-1.6030535,-5.8537931,5.1810260,6.6702118,2.8244274,51.2137413,-18.5038166
1450,3.2776453,9.2463598,4.3837609,-24.7404575,-1.4732825,-3.1832061,-6.0309634,5.2121506,6.7923155,5.5801525,60.7175560,-20.1221371
1460,3.0525916,8.9829988,4.9152708,-17.5877857,3.2671757,-5.6793895,-7.3836803,5.6478930,6.8976598,11.4503813,74.9389343,-17.9618320
1470,3.0118904,8.8058290,4.9392128,-11.8091602,3.4198472,-6.6183205,-7.8936424,5.7628140,7.0221577,15.7404585,75.2213745,-12.6793890
1480,2.9807658,8.8058290,4.9440012,-5.8702292,3.8702290,-7.0458016,-8.0372944,5.8394279,6.7276726,18.7786255,73.7099228,-8.2290077
1490,2.7174051,8.7028790,4.5800843,-1.5801526,4.2137403,-6.2977099,-8.1905222,5.8633699,6.4236102,19.7633591,74.3435135,-4.1145039
1500,2.6312141,8.7292147,4.0773048,0.3358779,5.1984735,-5.2137403,-8.2671366,6.0309634,6.3158717,20.2748089,74.8549652,0.1603053
1510,2.5474176,8.7555504,3.7971845,0.8320611,6.6259542,-4.0610685,-8.5328913,5.9040713,6.3829093,20.8015270,81.2137375,5.1679387
1520,2.5138988,8.7890692,3.8091555,0.8473282,7.4427481,-2.8473282,-8.4610653,5.8849177,6.9168134,24.2595425,87.2366409,8.0534353
1530,2.4995339,8.8417416,3.6104376,1.2977099,7.5725193,-1.7709924,-8.6789370,5.9040713,7.0844064,29.9541988,83.8702316,9.1374044
1540,2.4636209,8.8656836,3.5410061,1.8320611,7.0992365,-0.2137405,-8.8704720,5.9375896,7.0508881,33.4885483,70.8091583,6.8244276
1550,2.5186872,8.8896255,3.5769191,1.8473282,6.5954199,1.2900764,-9.1051025,6.2009506,6.5265603,33.0228996,57.8778610,6.3587785
1560,2.6168492,8.9231443,3.5505829,2.0839694,5.5801525,3.0839694,-9.4857788,6.2895355,6.3230543,31.3282452,42.8320618,8.8396950
1570,2.7197993,8.9662399,3.5266411,2.7938931,5.0152674,3.8549619,-9.2343884,6.2129216,6.2967181,30.0305347,29.6488552,13.2061071
1580,2.8395088,8.8345594,3.5793133,2.9541984,5.3816795,4.8167939,-8.8920193,6.3158717,6.2727766,31.3435116,22.5038166,18.6106873
1590,2.9975252,8.9399033,3.5242469,3.6183207,5.6030536,5.5496182,-8.3485384,6.2033448,6.3541789,35.7480927,24.6946564,24.5801525
1600,3.1387823,8.8920193,3.4332676,4.1755724,5.8625956,5.6335878,-7.7188668,6.2009506,6.1387019,44.1755714,39.0610695,29.6946564
1610,3.1938488,8.9327211,3.3183465,4.0610685,7.0992365,4.8091602,-7.4076223,6.2823529,6.0884237,54.6030540,57.0687027,33.5648842
1620,3.0908985,8.8992023,3.1794837,3.2442749,9.0916033,3.8778627,-7.3334022,6.6510582,5.6957769,62.6259537,66.8854980,35.8396950
1630,3.0908985,8.8776541,3.1746953,2.1450381,10.8167934,3.6564887,-7.1490498,7.1370788,5.1068063,66.5114517,64.7404556,37.5267181
1640,3.0190730,8.9207497,3.1244173,0.9236641,11.5343513,3.8015268,-6.6989422,7.5895805,4.5226240,67.3511429,54.0687027,38.6412201
1650,2.9544299,8.7962523,3.2321558,0.3816794,11.2137403,4.2213740,-5.8705525,7.9223728,3.9121056,67.6870193,44.3664131,38.4045792
1660,3.0454090,8.7340031,3.1794837,1.4427481,9.5801525,5.0916033,-4.8673873,8.4275465,3.2177906,68.8396912,44.3129768,35.9160309
1670,3.1818779,8.7411861,3.3375001,2.9465649,7.0305343,5.6030536,-4.3909435,9.1888990,2.6814921,70.3129807,51.8473282,32.6106873
1680,3.3327117,8.9351149,3.3327117,4.1984735,4.6412215,5.1450381,-4.2927818,9.8353300,2.3079987,70.1297684,53.8244286,28.2595425
1690,3.4308734,8.9949694,3.1627243,5.0839696,2.5572519,3.9618320,-3.9719603,10.3668404,1.8387375,68.2824402,48.7633591,22.6335869
1700,3.5338237,8.9686337,3.0621684,4.8091602,1.5343511,2.5877862,-3.5410061,11.0539722,1.3120158,65.8473282,44.2900772,16.7786255
1710,3.5410061,8.9925756,3.0980811,3.5343511,1.7862595,0.5648855,-3.4763632,11.6046362,1.1276633,63.7557259,44.4961815,11.1145039
1720,3.4189026,8.9782104,3.1292057,2.1984732,2.6183207,-1.3129771,-3.4189026,12.0427732,0.7302278,63.0992355,44.3511467,7.0992365
1730,3.2201848,8.8944139,3.2130022,0.1068702,4.2519083,-3.3816793,-2.6431851,12.4689388,-0.1221037,60.9771004,38.8473282,3.1068702
1740,3.0190730,8.8321648,3.0573800,-1.3664122,6.4732823,-4.2442746,-1.3694763,12.8017311,-1.2377959,54.3282433,34.3893127,-6.2977099
1750,2.6862805,8.7459745,3.2321558,-2.9541984,9.0458012,-4.2137403,-0.6775556,13.1824074,-1.8890154,44.3816795,32.4732819,-18.1068707
1760,2.5210814,8.8010406,3.2345500,-4.2824426,12.2595415,-3.8167939,-0.2968795,13.4290085,-2.1380112,32.6564903,28.4656487,-29.5954189
1770,2.3630650,9.0069408,3.2608860,-5.8015265,16.3587780,-4.1450381,-0.2849085,13.8839045,-1.8818330,23.7938938,24.0992374,-38.3664131
1780,1.9488702,9.2176294,3.1746953,-7.4198475,21.7099228,-4.4503818,-0.3160330,14.1281118,-1.6567791,18.7786255,23.9389305,-41.4809151
1790,1.5562232,9.3493099,3.1723011,-9.9083967,23.5267181,-3.8091602,0.3303981,14.0898046,-1.5418580,16.6870232,32.4427490,-41.3206100
1800,1.6711442,9.2583303,3.2656744,-12.3740454,22.5343513,-2.2213740,1.2377959,13.5894194,-1.8195840,15.9923668,46.1603050,-43.4809151
1810,1.9057748,9.1865053,3.5673423,-12.0992365,19.0916023,-0.7404580,1.9177457,12.9046812,-2.0757623,15.8931293,72.1908417,-47.8854980
1820,2.1547706,9.0955257,3.9001346,-9.9007635,12.4274807,0.4198473,2.4755919,12.3755655,-2.8323262,12.0610685,92.7938919,-56.2061081
1830,3.1268115,8.7004843,4.1084290,-4.3893127,-1.7480916,2.0305343,3.0765336,11.8871508,-3.0262554,-1.4732825,127.5267181,-77.2900772
1840,3.6080434,8.4299412,4.2448978,-1.9847329,-5.4885497,3.3893130,3.4212968,11.4083128,-2.4899571,-8.6183205,145.0992432,-88.8473282
1850,4.0749106,8.1115141,4.2209558,-0.2366412,-5.8396945,5.2900763,2.6982515,10.2351599,-1.5490406,-11.2519083,164.3282471,-104.0534363
1860,4.4460096,7.7715387,4.1802549,0.7786260,-2.9770992,7.4351144,2.0398495,8.7028790,-0.4764437,-6.4427481,166.8625946,-117.0839691
1870,4.6662750,7.3477674,3.9863255,2.3664122,1.0229008,9.9389315,0.5003856,6.4547348,-0.7493813,6.2366414,157.6259613,-133.7251892
1880,4.7237358,7.2519999,3.6535332,3.7786260,4.1832061,12.5572519,-1.3000449,4.6878228,-3.7900019,13.3664122,128.6641235,-146.6488495
1890,4.7740140,7.3812861,3.2153964,5.4198475,5.3206105,15.2290077,-2.8754215,2.8442972,-6.8880830,-1.7175573,87.0229034,-157.4427490
1900,4.8290801,7.5560617,2.6671271,5.9389315,3.6335878,16.6793900,-4.7165532,0.2633608,-8.9399033,-38.0458031,36.0228996,-163.0152740
1910,5.0086441,7.8218169,2.4803803,6.6412215,0.6412213,14.8396950,-6.1267309,-2.8371146,-9.0907373,-83.5648880,-12.5190840,-164.3664093
1920,4.8362627,8.3078375,1.8028246,6.8167939,-1.1526718,9.6106873,-7.3286138,-6.1410961,-7.6877422,-122.0457993,-42.7938919,-163.6946564
1930,4.2544746,8.5951405,1.0678085,4.0381680,-2.2442749,3.0839694,-8.3509331,-10.3668404,-5.2073622,-149.2900696,-57.5190849,-166.0763397
1940,3.4452386,8.7603388,0.5913648,-1.5343511,-1.4809160,-2.6564887,-9.0548248,-14.5518837,-2.4731977,-160.9923706,-49.6641235,-174.3893127
1950,2.4803803,8.7579451,0.3519458,-9.3893127,-1.1679389,-5.3740458,-10.1513634,-16.8431225,0.2418131,-158.0915985,-7.8015265,-187.4503784
1960,1.4293311,8.7507620,0.7038917,-16.8091602,-2.6793892,-3.6335878,-13.2733860,-17.7672806,3.1052637,-141.8320618,51.4274826,-196.9007568
1970,0.8810617,8.7411861,1.3120158,-20.4198475,-6.8778625,2.3435113,-18.2580891,-18.1216202,5.5090299,-123.6183243,76.3053436,-198.3587799
1980,0.7421987,8.8944139,2.0542145,-18.9236641,-14.2671757,9.4427481,-19.6131992,-17.1471844,7.9151902,-111.5648880,81.8625946,-185.3587799
1990,1.1635761,9.2774839,2.5498118,-16.0229015,-23.1603050,15.8396950,-19.6131992,-14.2430334,11.0755205,-100.6564865,83.5572510,-148.0381622
2000,1.9321109,9.6797075,2.9304879,-12.9541988,-30.1297703,19.0916023,-19.6131992,-10.5368280,14.9660778,-79.2900772,52.0305328,-84.7862625
2010,2.7605004,9.9406748,3.1220231,-11.6488552,-34.4122124,18.6870232,-19.6131992,-8.8848372,18.2748489,-41.8244286,-19.4961834,5.8396945
2020,3.6367738,10.2926207,3.3542595,-12.2595415,-34.0000000,14.0763359,-19.6131992,-8.7986460,18.4807491,7.7328243,-92.0457993,87.0152664
2030,4.2281384,10.2734671,3.7756367,-14.2519083,-30.5572510,6.5496182,-19.6131992,-10.0723553,15.6484222,65.0763321,-137.6183167,133.4122162
2040,4.3717899,10.2231894,4.1371593,-16.8625946,-23.6793900,-0.6641222,-13.4409800,-10.6972389,10.2064295,124.6030502,-145.0839691,143.6641235
2050,4.2233500,10.0843258,4.4172797,-19.9618320,-15.5954199,-6.1145039,-8.3413563,-10.0484133,3.7995787,166.9694672,-124.8702316,129.4045868
2060,4.1371593,9.9095497,4.9392128,-22.3969460,-9.0076332,-9.1526718,-6.8473821,-8.2312231,-1.5801650,175.7175598,-95.0763321,107.2213745
2070,4.0006905,9.8329363,5.4970589,-23.1450386,-3.5038168,-10.5343513,-7.8577299,-5.7269011,-4.2951760,153.2442780,-84.8091583,91.1679382
2080,4.2041965,9.6964674,5.9782910,-20.7328243,-0.2061069,-12.4503813,-9.4115591,-3.5912843,-4.9056940,115.5343475,-111.5954208,84.3206100
2090,4.5106530,9.4019823,6.5002246,-15.5648851,0.8854962,-15.8015270,-9.7539282,-2.2960277,-4.1299767,79.8625946,-160.2519073,81.8473282
2100,4.6112089,9.2870607,6.7180958,-7.1908398,-0.2519084,-20.4885502,-9.3110027,-1.8961980,-2.9687948,57.4274826,-198.3053436,81.0610657
2110,4.5513539,9.0572186,6.6366930,1.7557251,-2.5343511,-26.0610695,-7.9199786,-1.0103480,-2.3032103,48.3435097,-213.8778687,79.5496216
2120,4.4172797,8.9015961,6.4331870,9.8702288,-3.9847329,-32.0992355,-6.6031747,0.1268920,-1.7142396,43.0992355,-199.4809113,79.8778610
2130,3.9528067,8.7411861,6.0261750,18.1679382,-4.7251906,-35.5114517,-5.4779053,1.0989330,-0.6200951,42.0534363,-160.5114441,81.0229034
2140,3.6224086,8.5496502,5.5928264,23.2900772,-4.3358779,-39.2671738,-4.8410511,2.1978660,0.8930327,47.0610695,-112.5038147,81.7786255
2150,0.7709290,7.9463148,5.6287394,28.8091602,5.6488547,-27.0458012,-5.0397687,2.9161227,2.2912393,56.2824440,-69.3740463,81.3740463
2160,2.5593886,7.8146343,5.2839761,32.9007645,9.7175570,-24.3206100,-5.4659348,3.3159523,3.3351059,69.6259537,-46.0152664,77.8625946
2170,2.4157372,8.3485384,4.7237358,39.2824440,7.0305343,-20.6412220,-5.9184365,3.6463506,2.8586621,82.1755753,-45.9389305,70.0076370
2180,2.8107784,7.7619624,4.1898317,43.5190849,0.4656489,-21.4503822,-6.3757267,4.8123207,1.0438666,86.2442780,-64.6946564,59.0000000
2190,2.4516499,7.7236552,4.1706781,45.7099228,-1.3969465,-25.2290077,-6.4499464,5.8418221,-0.9361281,75.2290039,-87.6412201,50.9007645
2200,2.0039365,7.8984308,4.1634955,49.5190849,3.2595420,-25.6946564,-6.3278427,6.6797886,-2.4301023,55.5648842,-108.2519073,42.5648842
2210,2.2457497,8.0995426,3.3231349,51.3129768,4.0763359,-27.2061062,-6.4307928,7.5464849,-2.8419030,33.2061081,-111.6564865,37.5114517
2220,2.3199697,8.2599535,2.0973101,46.3435097,11.5114508,-29.8778629,-7.3980455,8.0109577,-1.7788827,11.6488552,-98.6488571,42.5648842
2230,1.9201399,8.2695303,1.2856797,35.0152664,21.5267181,-32.1221390,-7.7475972,8.2455883,-0.0814024,0.8854962,-75.8244247,55.7099228
2240,1.5777708,8.1809454,1.0366840,22.4732819,27.3969460,-31.7557259,-7.4818420,7.8098459,1.5322813,1.2977099,-51.6488533,70.1908417
2250,1.3263810,8.2886839,1.2114599,12.7175570,26.8778629,-30.8931293,-6.6223278,7.3525558,2.2146254,7.9083967,-29.6106873,80.3740463
2260,1.1228749,8.1809454,1.5298871,7.9923663,20.2824421,-28.3053436,-5.6071916,7.2519999,1.8722562,14.8167934,-13.6488552,82.6870193
2270,0.7517755,8.2192526,1.6519908,6.0534353,10.2748089,-24.6030540,-4.8985114,7.4291697,1.0438666,15.5038166,-11.2748089,78.2824402
2280,1.8004304,7.6542239,1.3527170,5.6335878,-11.1984730,-22.8473282,-4.3023586,8.8225880,0.6129125,-5.3893127,-27.3511448,60.6412201
2290,1.9464760,7.8361821,1.0941446,3.3816793,-18.8015270,-24.3358784,-4.8266859,9.3397331,1.7669119,-19.3435116,-29.7480907,59.9541969
2300,1.9225341,8.6573887,1.1947005,0.4427481,-19.5114498,-24.5496178,-5.0804701,9.4426832,3.3542595,-24.7862587,-27.7251911,64.2519073
2310,1.6280488,9.2511482,1.4341195,-2.0381680,-18.5954189,-21.2442741,-5.3797436,8.9925756,4.1563129,-20.8702297,-22.3282452,70.0076370
2320,1.7453641,9.1553802,1.6328372,-3.8320611,-17.2595425,-17.9083977,-5.3486195,8.9973640,4.4723458,-12.8320608,-16.5877857,75.9542007
2330,1.5227045,9.6725254,1.9416877,-5.3587785,-16.0000000,-11.4656487,-4.6734576,9.0596132,4.4316444,-5.2977099,-10.7175570,80.9083939
2340,0.9888002,11.1569233,2.3223639,-7.0152674,-12.7404585,-2.8549619,-3.9743545,8.9303265,4.4220681,2.8549619,-5.8549619,81.2213745
2350,1.0797794,11.9182749,3.0262554,-7.8167939,-12.1755724,4.6793895,-3.2010312,8.7220325,4.1922259,13.4885492,-5.6183205,74.9923630
2360,1.1180865,13.2350798,3.9671719,-6.4274807,-10.5801525,11.0992365,-2.3151813,8.7507620,3.0118904,24.0763359,-3.9923663,63.9694672
2370,2.6575503,14.4034433,6.3158717,14.6335878,-20.4198475,21.4580154,-2.8323262,9.4426832,0.7541697,26.1908398,13.3893127,40.1603050
2380,4.4124913,13.0411501,7.1490498,35.2977104,-34.5038185,16.7862587,-3.7253587,9.8880024,0.0023942,15.6641226,17.5954189,32.7938919
2390,5.3342543,11.9972830,7.2879128,59.0687027,-44.7557259,6.3053436,-4.8961172,10.1441803,-0.0718257,1.3206106,14.2595415,31.1374054
2400,4.9272418,11.3125448,7.1969333,84.1450348,-45.5801544,-2.2519083,-5.8274570,10.2638903,0.4165890,-11.7862597,7.3587785,33.5496178
2410,5.4252334,10.5990763,5.2121506,98.2137375,-44.5954208,-12.0076332,-6.2775645,10.1250277,0.9097920,-19.8473282,0.9160305,39.4580154
2420,5.0397687,10.1226330,4.1371593,106.9236679,-40.8931313,-20.5877857,-6.0668759,9.9287033,1.3215926,-22.8549614,-1.4045801,46.3664131
2430,4.4220681,9.3756456,2.5282640,106.9542007,-33.1450386,-26.3129768,-5.4802995,9.6581602,1.6256547,-23.0839691,0.5038168,51.9618340
2440,3.7588775,8.7340031,1.4197544,98.8015289,-22.3893127,-30.2061062,-4.7357068,9.3277617,1.8961980,-20.9541988,7.5267177,54.2977104
2450,3.1220231,8.1761570,0.8571198,87.9236679,-10.4503813,-31.9618320,-4.1347651,8.9877872,2.0781565,-18.1755733,16.9389305,51.7099228
2460,2.5881188,7.5800037,0.3064562,76.5114517,1.4732825,-32.1603050,-3.8953462,8.9662399,2.2122312,-17.1832066,25.6946564,46.8702278
2470,2.0733681,7.0245519,-0.0383070,64.6870193,13.2290077,-31.3435116,-3.7588775,9.2966375,2.6647329,-17.4961834,32.0839691,41.4045792
2480,1.4484847,6.5696559,-0.2777260,54.9541969,20.5343513,-29.3664131,-3.9336534,9.4546537,2.9568241,-16.6946564,33.6564903,37.3282433
2490,0.9409165,6.2703824,-0.3854645,47.7022896,22.1068707,-26.0534344,-3.9480183,9.6246414,3.0932927,-15.5877867,29.9541988,33.4885483
2500,0.5674229,6.0189924,-0.5099624,41.9236641,20.6183205,-22.0458012,-3.8570392,9.7874460,2.9664006,-15.0687027,20.9236641,28.4045811
2510,0.2633608,5.7771792,-0.7972651,37.1908379,15.5343513,-16.4656487,-3.4907281,10.0484133,2.4037662,-17.0152664,9.3129768,21.5267181
2520,0.2705434,5.8202744,-0.9337339,32.2671738,7.6564884,-10.3358774,-3.0837159,10.3237448,2.0494261,-21.6106873,0.9312977,15.3587790
2530,0.9145803,6.2847471,-1.3790531,17.7480907,-3.5648854,-4.4656487,-2.1451938,10.5607700,1.9129574,-32.9541969,2.9465649,0.9389313
2540,1.1539993,6.4188218,-1.5777708,7.9083967,-5.7480917,-3.7938931,-2.1547706,10.5679522,2.4396791,-34.4427490,4.4351144,-6.7022901
2550,1.3311694,6.5337429,-1.8794388,-5.7099237,-4.8625956,-3.2900763,-1.7740943,10.6996326,3.1603301,-31.0916023,5.9389315,-13.5572519
2560,1.4053892,6.6965480,-1.7286048,-20.6717548,-1.3969465,-2.6412213,-1.3024391,11.0635490,3.3351059,-24.1603050,7.3816795,-20.7938938
2570,1.3527170,7.0868006,-1.2617378,-34.6717567,3.2213740,-2.0992367,-1.0630201,11.2742386,3.1723011,-18.0839691,9.8778629,-29.4580154
2580,1.3575054,7.3238254,-0.6679789,-45.4961815,8.2061071,-1.5801526,-0.6727672,11.5208397,2.2625091,-12.7022905,15.9923668,-37.8244286
2590,2.0111191,7.9056134,0.0885850,-52.9389305,13.7938929,-6.9312978,-0.5051740,11.8368731,0.9385223,-11.0458012,23.9694653,-47.6793900
2600,0.4764437,8.0229292,0.9241571,-54.2900772,19.3358784,-2.5343511,-0.7852941,12.3827477,-0.8906385,-16.6870232,31.3511448,-56.0305328
2610,0.2250538,8.5113440,0.9528874,-56.2519073,24.9236641,2.8473282,-1.0534433,12.7059631,-2.3726418,-29.6030540,36.0000000,-59.7099228
2620,0.0454896,9.3780403,1.5203103,-55.5648842,27.8167934,8.7633591,-0.8259954,13.0172081,-2.5067163,-48.3740463,43.7938919,-63.1221390
2630,0.6129125,10.0292597,1.9512644,-51.9312973,27.2748089,12.6870232,-2.4181314,13.4864693,-1.9512644,-63.8931313,54.0381660,-61.3511467
2640,0.9672526,10.6254129,2.6982515,-44.8396950,23.7175579,13.2442751,-2.0183017,12.5455532,-0.4740495,-73.6488571,54.2900772,-57.1145020
2650,1.0582317,10.8193426,3.2201848,-34.2290077,20.1755733,12.3282442,-1.9967541,11.9781294,1.0103480,-81.6412201,42.0916023,-59.8015251
2660,1.4963684,10.6828737,3.3422885,-24.0534344,19.1145039,10.6946564,-1.2545552,11.6668854,2.3079987,-86.7633591,26.7786255,-67.4427490
2670,1.7477583,11.0372133,3.2656744,-14.4580154,19.8854961,7.5419846,-0.6847382,11.2670555,3.4452386,-86.2595444,18.7633591,-78.3206100
2680,1.7884595,10.9845409,3.0094962,-7.3893127,18.4045811,2.1603053,-0.4429250,10.9797525,4.6543045,-78.6106873,30.4427490,-91.5877838
2690,1.7477583,11.4968977,2.9592183,-4.2595420,16.3816795,0.0916031,-1.0151364,11.4921093,5.8130918,-64.7404556,55.6641235,-101.2671738
2700,1.7908537,11.4250717,3.1675127,-2.0534351,16.8778629,-0.3206107,-2.2888451,12.1313581,6.7204900,-47.4961815,89.0763321,-103.6564865
2710,1.9177457,10.8528605,3.3327117,1.6641221,19.9770985,-0.3816794,-3.2082138,12.3276815,6.8976598,-27.9618320,119.7862625,-99.7938919
2720,1.7573351,10.1585455,3.3398943,5.2671757,26.8702297,2.6488550,-3.6678982,11.5902710,6.1602492,-7.8015265,140.8396912,-98.6641235
2730,1.4341195,9.2128410,3.3710186,10.5954199,43.7404594,13.7633591,-2.8538737,10.2543135,2.2265961,13.9236641,159.7175598,-102.4656525
2740,0.8834559,9.6892843,3.1603301,14.8931293,47.4351158,19.6870232,-1.4580613,8.7794924,0.7996593,14.1603050,161.9389343,-113.1755753
2750,0.9504932,9.7347746,2.7221935,20.8854961,45.3053436,25.8091602,0.0023942,6.5337429,-0.1005560,11.2824430,154.9847260,-135.6259613
2760,1.6902977,9.6557665,2.1523764,25.8625946,34.7938919,28.7404575,0.9217629,3.6152260,-0.1819584,11.2748089,153.0076294,-163.0839691
2770,2.1188576,9.6844959,1.5131277,29.3740463,22.5572510,29.1145039,0.8643024,0.3399749,0.0191535,20.5038166,152.0915985,-193.2137451
2780,3.0837159,9.2631187,0.8834559,29.3740463,12.8167934,27.2824421,-0.3375807,-3.0214672,-0.9792235,37.4885483,150.5114441,-222.1221313
2790,3.8809812,8.9949694,0.6224893,27.5877857,5.7328243,22.7709923,-3.0406206,-6.4619174,-2.7724714,51.6564903,144.0152740,-245.7709961
2800,4.1395535,8.8465300,0.4237715,25.6641216,-1.7709924,17.6870232,-9.1098909,-9.8065996,-5.5880380,54.1679382,104.0839691,-250.1374054
2810,4.4148855,8.7842808,0.0359128,21.3206100,-4.8091602,12.0305347,-16.2397861,-11.9254580,-10.0986910,20.5877857,13.0305347,-249.5648804
2820,4.7788019,8.6095057,-0.2777260,14.6946564,-1.1526718,5.4809160,-18.8350887,-14.6524391,-12.7418766,-52.0992355,-46.2213745,-213.7022858
2830,4.6758518,8.5376797,-0.4668669,7.5038166,9.7404585,-0.9160305,-19.5413742,-17.9444504,-11.2838144,-123.9389343,-24.7328243,-172.6030579
2840,4.0437860,8.5257082,-0.8834559,-0.9770992,26.0534344,-6.8015265,-19.6131992,-19.6131992,-5.6239510,-167.7786255,62.4885483,-141.3435059
2850,3.4356618,8.5185261,-1.6256547,-11.4656487,41.5038185,-11.1221371,-19.6131992,-19.6131992,0.6272776,-182.5572510,191.7786255,-128.2519073
2860,2.3798244,8.5089493,-2.0518203,-23.6412220,50.9923668,-15.3358774,-19.6131992,-17.5661678,9.4283180,-170.2595367,250.1297760,-120.0992355
2870,1.3622938,8.3892403,-1.6136837,-33.0152664,50.3969460,-16.3511448,-19.6131992,-12.3779593,17.6403885,-125.2137375,250.1297760,-92.7328262
2880,0.1675933,8.1019373,-1.1444225,-36.9083977,40.8625946,-12.2061071,-19.6131992,-8.2838955,19.6126022,-52.5496178,250.1297760,-27.6412220
2890,-0.8116302,7.8816719,-0.2896969,-33.8625946,24.1526718,-2.3511450,-19.6131992,-5.1044121,19.6126022,28.0839691,250.1297760,55.3053436
2900,-1.0773853,7.8170285,0.4261657,-24.5190830,3.3740458,10.3587790,-19.6131992,-4.1515245,19.6126022,91.5954208,128.5267181,148.2213745
2910,-0.8236012,7.9846220,0.6320660,-13.1832066,-18.5496178,22.2366409,-19.6131992,-7.2855186,15.7178535,129.1145020,-28.7175579,221.9236603
2920,-0.2274480,8.5257082,0.8882443,-2.3587787,-34.0381660,30.5190830,-15.2222567,-11.8320847,7.2615767,158.9770966,-127.3129807,249.0381622
2930,-0.0766141,9.1673517,0.4333483,3.2290077,-40.1145020,38.4580154,-4.9487896,-13.7594070,-0.7110743,175.5114441,-153.2061005,229.4732819
2940,0.7350162,9.7323799,0.4788379,2.6335878,-37.8091621,44.9618340,-0.3519458,-12.1648769,-6.4212160,171.7251892,-114.5801544,183.9694672
2950,1.9368993,10.3405046,0.9073978,1.3129771,-32.2290077,45.8625946,-0.9983770,-8.9327211,-8.7770987,150.9694672,-51.0839691,146.2519073
2960,2.3247581,10.8361015,1.1132981,0.8702290,-29.9923668,43.1374054,-4.7716198,-5.9328012,-8.3605099,124.3816757,-11.0458012,131.5496216
2970,3.0861101,11.2335367,0.8643024,-2.0152671,-33.3511467,37.1145020,-8.4299412,-3.3710186,-6.2177100,103.1908417,-9.0076332,138.5954132
2980,3.2967989,11.6956158,0.7637464,-8.8091602,-37.8320618,29.0687027,-9.2894554,-1.7381816,-4.4747400,88.7175598,-19.7099228,154.7251892
2990,4.0749106,11.9517937,1.5562232,-15.1755724,-42.6412201,19.7175579,-8.5137377,-1.4484847,-3.1962428,84.2824402,-30.3816795,168.6641235
3000,4.4484038,12.0858688,2.7605004,-16.8396950,-41.9618340,8.8091602,-6.6295104,-1.1947005,-2.4708035,87.9923630,-31.8091602,176.3969421
3010,4.2520804,12.2965574,3.5146701,-14.9083967,-36.7480927,0.4885496,-4.1275826,-0.0383070,-2.5569944,92.8015289,-25.2977104,173.1450348
3020,4.5082588,12.0715036,3.9791429,-11.6793890,-25.5267181,-6.6870227,-2.2026544,1.0127422,-2.7485294,96.9312973,-14.0458012,160.7480927
3030,4.4077029,11.8129311,4.3215117,-7.2748094,-13.7557249,-13.9007635,-1.1803354,2.4612267,-2.9400647,101.4351120,3.6412213,143.2442780
3040,3.6056492,11.5806942,4.5250182,0.4580153,-5.4732823,-16.7633591,-1.3886299,3.4763632,-3.3183465,105.6030502,17.6335869,124.1068726
3050,3.0789278,11.2119894,4.4819226,8.9312973,-1.4122137,-16.0000000,-2.3510940,4.2736282,-4.1730723,106.2519073,19.4732819,106.2061081
3060,2.9065459,10.9390516,4.1036406,16.7709923,1.7099236,-13.9923668,-3.3614421,5.3845320,-4.9535780,101.0763321,20.5877857,92.8702316
3070,2.7485294,10.5583754,3.4763632,22.7480907,2.8854961,-13.0992365,-4.8673873,6.3972740,-5.5090299,90.4503784,18.6946564,84.9160309
3080,2.6216373,10.3548698,2.8826041,25.7480907,0.8931298,-13.6488552,-6.0716643,6.6223278,-5.4635406,75.4198456,4.5877862,83.8931274
3090,2.5665710,10.2614956,2.4109488,26.8931293,-0.3511450,-14.0076332,-5.9806852,7.0532823,-4.8985114,61.0992355,-13.2137403,81.8320618
3100,2.4420733,9.9981356,1.8195840,26.0152664,1.6335878,-15.1145039,-5.2696109,7.2807302,-4.5992379,52.0458031,-25.5190830,77.6183243
3110,1.8100072,9.4881725,1.4652439,22.3206100,6.6259542,-14.8015270,-4.6519103,6.9862447,-4.5345950,46.9312973,-27.8091602,74.8778610
3120,1.5418580,9.1434097,1.5035510,18.6564884,10.7175570,-11.6641226,-4.3933377,6.7587967,-4.1994085,45.3587799,-15.9389315,71.9694672
3130,1.6304430,8.4036045,1.9249283,18.2290077,12.2137403,-8.6488552,-5.7292953,7.0269461,-4.2903876,48.5801544,19.4198475,76.4732819
3140,1.7309990,8.1617918,1.8842272,22.3969460,11.9923668,-9.0610685,-5.6047974,7.1538382,-4.4795284,46.1145020,27.7862587,84.4809189
3150,1.4436963,7.9630742,1.5993185,25.5190830,11.5267172,-8.6641226,-5.1475072,7.2112985,-4.5657191,39.0000000,23.3053436,86.5954208
3160,0.7086801,7.2759418,0.9457048,26.9618320,1.1297710,-4.0076337,-4.7213416,7.1179252,-4.3191175,28.4198475,9.1603050,84.4274826
3170,1.3263810,7.3621325,1.1013272,16.2137413,9.8854961,-2.5572519,-3.9025288,7.4004397,-3.0286496,11.4885492,-17.0229015,73.5725174
3180,1.5442522,7.3932571,0.8355721,13.3893127,11.0000000,-0.9465649,-3.7445123,7.6207051,-2.1116750,8.8854961,-20.5267181,71.3435135
3190,1.6495966,7.2567883,0.8499373,8.7251911,14.6259546,-1.1832061,-4.1251884,7.4842362,-1.0749911,15.3893127,-18.7404575,71.9312973
3200,1.6783268,7.2304521,0.9409165,5.4122138,17.2366409,-1.5725191,-3.3542595,7.2759418,-0.7326220,29.0916023,-10.5877867,72.5572510
3210,1.5370697,7.2831244,0.7829000,1.5343511,20.5267181,-0.4580153,-2.2050486,6.7683735,-1.1013272,47.0839691,4.8625956,68.7633591
3220,2.3415172,9.3301563,0.3303981,-12.1297712,24.5038166,12.5419846,-3.2225790,8.6526003,-7.5249376,42.4885483,39.6793900,13.4961834
3230,2.6575503,9.7611103,-0.0454896,-18.5496178,17.6717548,14.3816795,-4.3191175,8.6166878,-7.3693151,22.3282452,20.5801525,9.5648851
3240,3.7900019,10.2112179,0.6105183,-22.7480907,10.0687027,13.0152674,-4.6686692,8.5568333,-6.7683735,5.3969464,-2.2977099,8.5725193
3250,4.4316444,10.7283630,1.6376256,-19.8625946,3.0763359,8.1068707,-4.1395535,8.1881275,-6.2177100,-6.2290077,-18.0458012,7.3358779
3260,4.5824785,11.0922794,1.9129574,-13.9770994,-4.5114503,3.1145039,-3.6128318,7.8050575,-5.9567432,-13.5801525,-27.0610695,3.2595420
3270,4.3334827,11.0443964,1.8602852,-8.8015270,-10.8015270,0.3129771,-3.3853838,7.7619624,-5.8394279,-20.5572510,-35.2213745,-3.3206108
3280,3.7277529,11.4633789,1.6136837,-4.8625956,-15.7633591,2.5267177,-3.2321558,7.8697009,-5.4802995,-26.7328243,-35.4122124,-9.8931293
3290,3.4619980,11.6980095,1.4436963,-3.9160306,-18.9083977,6.7404580,-3.4212968,7.9104018,-4.8242917,-31.4351139,-25.8625946,-13.7633591
3300,3.6008608,11.7554703,1.5179161,-3.4732823,-19.0839691,9.8931293,-3.9719603,7.8673067,-3.9192882,-31.2900772,-11.2137403,-15.4351149
3310,3.6032550,11.7171631,1.4149660,-3.2824428,-20.2595425,11.8244276,-4.5824785,7.9319496,-2.9520357,-26.4274807,3.5343511,-13.5954199
3320,3.8139439,11.5663290,1.3718705,-3.1526718,-22.2824421,11.6259546,-5.2911587,8.0372944,-2.7102225,-18.8244267,14.4503813,-9.6946564
3330,4.2233500,11.4154949,1.5873476,-2.8931298,-26.0458012,7.4045801,-5.3749552,7.8481531,-2.8490853,-11.5496187,21.3053436,-5.7251906
3340,4.3861551,11.2814207,1.8076130,-1.1679389,-29.1679382,0.0763359,-4.9032998,7.5584559,-3.3446827,-7.7480917,25.8091602,-5.4122138
3350,4.2855992,10.9031391,1.8626794,-0.7175573,-28.0381680,-8.4351149,-4.3933377,7.4770536,-3.9049230,-8.6717558,25.6183205,-9.0305347
3360,3.9264708,10.4865494,1.7956421,-1.6564885,-22.8702297,-15.8702288,-4.4077029,7.6997132,-4.0916696,-14.0916033,19.4274807,-15.8473282
3370,3.4524212,10.0771437,1.8052188,-3.4503818,-14.9541988,-21.9618320,-4.8482337,7.8194227,-3.3734128,-19.8473282,10.1145039,-21.3893127
3380,2.7844424,9.7275915,1.7956421,-5.6183205,-4.9007635,-24.6641216,-5.3725610,7.8194227,-2.6479735,-21.6488552,-5.7938933,-25.7480907
3390,1.4748207,9.1314383,1.8387375,-6.1145039,2.7251909,-19.6946564,-5.7053533,7.9104018,-2.2888451,-18.6412220,-21.0458012,-26.2748089
3400,1.4963684,9.1146793,2.0829449,-5.1755724,10.4045801,-15.2519083,-5.5952206,8.0157461,-2.5138988,-13.2977095,-28.5343513,-27.1374054
3410,1.5107336,8.8608952,1.9847831,-2.6641221,12.2137403,-12.1984730,-5.2935529,8.1641865,-3.0406206,-8.4580154,-25.7557259,-26.4580154
3420,1.4460905,8.6573887,1.9440818,0.8244275,9.9541988,-9.8931293,-5.2528515,8.2815018,-3.5481887,-6.0916033,-19.1145039,-26.9083977
3430,1.3790531,8.5759869,1.6304430,4.3587785,7.7633586,-7.9694657,-5.3845320,8.6454182,-3.7085996,-5.8167939,-13.0381680,-26.8778629
3440,1.5849534,8.8513184,1.1875180,6.5419846,8.8015270,-6.3969464,-4.9751258,9.2056589,-3.9097114,-8.3511448,-10.6564884,-28.6793900
3450,1.5897418,8.7100611,0.7230452,3.5572519,7.8244276,-7.2671757,-4.6279683,9.6797075,-3.9528067,-9.3816795,-14.6488552,-33.2061081
3460,1.5562232,8.6118994,0.5003856,-1.5267175,3.5038168,-8.1603050,-4.5226240,10.3931761,-4.0006905,-8.4885492,-13.8931293,-38.0228996
3470,1.5969244,8.6837254,0.5315101,-6.9923663,-4.1679387,-10.4961834,-5.1666608,11.0946741,-4.7452836,-7.3206105,-4.5725193,-40.8702278
3480,1.9488702,8.7794924,0.3064562,-14.5267172,-23.0229015,-14.9923668,-5.8490047,11.7961712,-5.1163831,-8.2290077,0.7786260,-39.0992355
3490,2.2146254,8.3030491,2.0470319,-16.2977104,-12.1145039,-19.3740463,-6.1458845,12.6963863,-5.2049680,-9.3129768,4.8091602,-31.4580154
3500,1.5897418,8.2934723,2.1643472,-12.8625956,6.2824426,-22.2748089,-6.0620875,13.1895895,-5.0517397,-6.3206105,12.0839691,-20.0381680
3510,1.5203103,8.4826136,0.9744351,-13.6641226,13.4961834,-24.8778629,-4.9631548,13.4840746,-5.5090299,-1.0000000,17.3740463,-8.7099237
3520,1.0558375,8.4730368,0.8331779,-17.8167934,18.2061062,-26.8625946,-2.7868366,14.5542774,-6.9096308,0.2519084,19.1221371,1.8931298
3530,0.2992737,8.5640154,1.1204807,-20.1221371,28.3053436,-24.8702297,0.4141948,15.0043850,-8.2503767,-7.1679387,16.5877857,9.5038166
3540,-0.1077385,8.6334467,1.1444225,-19.7862587,31.6564884,-19.3511448,3.8714044,15.3730907,-9.1984758,-19.9312973,24.4122143,6.5801525
3550,-0.0814024,8.8177996,1.0582317,-16.8931293,26.4427490,-12.9694653,7.1514440,15.6867294,-9.2870607,-30.5419846,47.6717567,-2.2748091
3560,-0.2873027,8.8824425,0.8307837,-13.8625956,16.3587780,-4.4656487,9.3636751,15.4568872,-8.4443064,-32.5343513,91.4122162,-17.9389305
3570,0.2489957,8.5855637,0.6655847,-13.2595415,2.5038168,5.9847326,10.8576488,15.1576138,-7.4387465,-23.8015270,141.2137451,-38.2824440
3580,1.2162483,8.4682484,0.9385223,-13.3664122,-9.8396950,15.0916033,11.5495701,14.3603487,-6.9120250,-9.0534353,183.9770966,-62.1832047
3590,2.2050486,8.4036045,1.4365137,-11.7328243,-19.1068707,21.7557259,12.8591919,13.7139168,-7.0580707,4.6030536,211.7938995,-91.5572510
3600,3.2249732,8.3054428,1.7190280,-9.2748089,-21.3358784,25.5954189,13.4457684,12.0547438,-7.3908629,14.4045801,236.1832123,-126.4198456
3610,3.8426740,8.5424681,1.9081690,-6.8396945,-15.8931293,26.8396950,12.9429884,8.9877872,-7.5488791,20.8015270,245.0686951,-167.3206177
3620,4.1946201,8.7770987,1.7238164,-5.0381680,-5.7404580,26.5190830,10.4841557,5.3893204,-7.4698710,23.4732819,223.1832123,-212.8854980
3630,4.3143296,9.0835552,1.4053892,-4.9312978,4.8549619,24.1221371,6.0357518,2.0637913,-7.9367380,17.8244267,167.8396912,-250.1374054
3640,4.1682839,9.2272062,1.1659702,-5.7709923,12.8778629,19.9083977,1.0773853,-1.3718705,-8.8872309,0.3816794,91.9160309,-250.1374054
3650,3.7301471,9.3397331,0.8547257,-6.0916033,14.0152674,15.8625956,-4.7668314,-5.0254035,-9.6749191,-28.6183205,10.0763359,-250.1374054
3660,3.1555417,9.3804340,0.7302278,-5.4656487,9.5114508,13.1145039,-9.4905672,-9.4378948,-9.3540983,-64.7175598,-52.6259537,-250.1374054
3670,2.3223639,9.4402885,0.7924767,-3.1297710,1.3358779,11.6946564,-10.3764172,-14.1544485,-6.8952656,-93.4809189,-86.1297684,-250.1374054
3680,1.8339491,9.4402885,0.8140244,0.5877863,-8.1603050,13.3969469,-10.5799236,-19.3689919,-4.2520804,-99.6564865,-85.4961853,-243.6870270
3690,1.5203103,9.4953556,0.7589580,6.0839696,-17.2061062,16.6564884,-12.7586355,-19.6131992,-2.5809362,-89.2137375,-58.8702278,-248.0000000
3700,1.3407460,9.7874460,0.8523315,11.2748089,-25.4961834,20.7328243,-13.4625273,-19.6131992,-2.0661855,-73.0763321,0.7633588,-250.1374054
3710,1.3886299,9.9310980,0.7206510,15.3206110,-32.0534363,25.2748089,-15.6747580,-19.6131992,-0.9073978,-53.7709923,91.8854980,-250.1374054
3720,1.7429699,10.1034794,0.6560079,17.7251911,-36.8015251,28.7175579,-19.6131992,-19.6131992,2.1356170,-29.1297703,166.3358765,-250.1374054
3730,2.2696917,10.2447367,0.7254394,17.8778629,-39.8778610,29.1221371,-19.6131992,-13.1848011,4.7189474,3.4274809,156.2748108,-250.1374054
3740,2.9041519,10.4626083,0.6177009,15.6946564,-40.7480927,26.0916023,-19.6131992,-6.6678176,4.3191175,22.4045811,70.2061081,-183.0610657
3750,3.1723011,10.5918941,0.5841822,10.6335878,-39.6870232,20.1450386,-19.6131992,-1.7621235,2.4277081,15.0916033,-24.9389305,-69.8244247
3760,3.4428444,10.4051476,0.8403605,3.1679389,-36.3587799,13.5343513,-19.6131992,-2.2122312,1.0175306,-5.0381680,-95.2595444,43.5267181
3770,3.4236910,10.2878323,1.0917504,-4.1450381,-30.7862587,6.5343513,-19.6131992,-5.3174949,0.9145803,-10.6488552,-128.1679382,133.7786255
3780,3.1746953,10.2567072,1.5969244,-9.2824430,-24.5496178,1.5801526,-19.2397060,-8.7268209,0.5171449,3.0076337,-118.4580154,186.9236603
3790,2.8778157,10.0962973,2.0206959,-11.0992365,-17.7786255,-2.1526718,-10.2112179,-10.6493549,-0.7757174,28.6870232,-83.8167953,197.4885559
3800,2.5354466,9.9167328,2.2433555,-10.2824430,-12.7251911,-3.9770992,-6.0165982,-10.6732969,-2.6671271,52.8549614,-45.9771004,181.9465637
3810,2.2170193,9.8257532,2.3774302,-8.5419846,-9.8167934,-3.5496182,-5.5353661,-9.2607250,-4.6064205,65.9083939,-21.6183205,165.3282471
3820,2.0997043,9.7491398,2.1954718,-6.3129773,-8.1068707,-3.0000000,-6.3709383,-7.3597383,-6.1171541,63.5190849,-28.0305347,157.6259613
3830,2.0039365,9.8065996,2.0494261,-5.3511453,-6.2366414,-2.2290077,-6.8090749,-5.5305777,-6.0620875,49.4656487,-53.1832047,153.1526642
3840,1.7190280,9.8975792,2.2672975,-2.9770992,-5.6259542,-0.6946565,-7.1801744,-4.7333126,-4.5010762,38.8931313,-82.9236679,154.2366486
3850,1.6304430,9.9598284,2.2433555,0.3511450,-6.7862597,1.6946565,-6.4331870,-4.1012464,-2.8035958,40.6106873,-115.5801544,155.9694672
3860,1.6088953,10.1106625,2.2242019,4.7480917,-10.1068707,3.6106870,-5.0780759,-4.0725164,-2.1619530,53.0381660,-131.7557220,156.5572510
3870,1.7956421,10.2136126,2.0637913,8.9312973,-13.2595415,4.3435116,-3.3063757,-3.1100521,-2.5665710,69.9389343,-127.7099228,149.5725250
3880,1.9919657,10.1585455,1.9967541,12.2977095,-15.6564884,4.8396945,-2.6479735,-1.7501525,-3.5098817,83.7175598,-110.5190811,140.6488495
3890,2.2122312,10.1441803,1.9464760,15.0229006,-15.3206110,3.7022901,-1.9177457,-0.8451489,-4.6519103,94.9007645,-97.1068726,131.2748108
3900,2.4037662,10.2016411,1.7836711,16.5343513,-12.7099237,1.5725191,-0.3064562,0.7685348,-6.5552907,99.7633591,-78.0763321,115.6946564
3910,2.6240315,9.9813757,1.5107336,16.2519093,-9.1145039,-1.8091604,0.3040621,2.6575503,-7.9870162,92.2595444,-57.6106873,93.5496216
3920,2.6551561,9.8520899,1.5394639,14.5648851,-4.7633586,-5.9847326,-0.3782819,4.4938936,-8.0372944,76.7938919,-48.0228996,70.4427490
3930,2.4684093,9.6749191,1.4724265,12.4198475,-0.5725191,-9.3816795,-1.7597293,5.9351954,-7.2160869,60.9083977,-50.7557259,50.5114517
3940,2.2625091,9.3708572,1.6017127,11.2061071,2.7099237,-11.7633591,-3.5960727,6.9718795,-6.2344694,49.6793900,-58.6030540,38.4885483
3950,2.1547706,9.0883436,1.5442522,9.7557249,5.0381680,-13.0152674,-4.9799142,7.4938130,-5.9519548,44.5954208,-63.6793900,35.1145020
3960,2.0135133,8.7723103,1.5298871,8.8015270,5.7022901,-13.1832066,-5.5401545,7.5512733,-6.2081332,40.3511467,-65.3435135,36.7557259
3970,1.8219782,8.4155760,1.6543850,7.9847326,4.9236641,-12.6259546,-5.4156566,7.1945391,-6.9048424,33.5572510,-61.6870232,38.5877876
3980,1.7788827,8.0516596,1.6567791,7.9694657,3.2442749,-11.5801525,-4.9655490,6.6845770,-7.4626884,23.8473282,-49.9160309,36.3893127
3990,1.9273225,7.6877422,1.6136837,7.3511453,1.0305344,-10.9389315,-4.9320302,7.0532823,-7.5440907,11.2442751,-36.7938919,29.0610695
4000,2.1140692,7.4028339,1.4820032,5.5572519,0.0305344,-10.8931293,-5.6119800,7.8577299,-6.9862447,-5.1984735,-30.1374054,22.4656487
4010,2.1882892,7.1705976,1.3407460,2.0381680,-1.0763359,-11.3969469,-6.3781209,8.8010406,-5.4180508,-21.7022896,-24.7786255,19.4885502
4020,2.0925217,6.9982157,1.1851238,-2.5419848,0.6030535,-10.0458012,-7.3549500,9.4259243,-3.2393384,-29.3893127,-14.1297712,22.7938938
4030,2.1787124,7.0365229,1.1923064,-7.8167939,3.6183207,-6.4503818,-8.5017672,9.1888990,-1.4221486,-23.4274807,-0.8778626,32.8702278
4040,2.2816625,8.3078375,0.7230452,-27.4427490,23.8854961,5.8015265,-6.4619174,8.3485384,-3.3255291,19.0610695,13.1221371,51.8244286
4050,2.2170193,9.0739784,0.9768293,-30.4580154,28.7709923,8.6641226,-5.0517397,8.5520449,-4.7907729,19.2061062,11.3511448,47.6793900
4060,2.0709739,9.7754755,1.2808913,-29.9541988,30.2824421,10.7557249,-4.0725164,8.9039907,-5.5162125,14.1297712,14.8244276,40.1526718
4070,1.9871773,10.4985209,1.3239868,-26.6412220,27.2748089,12.9770994,-3.9240766,9.2367830,-5.6263452,9.0534353,21.3358784,33.8549614
4080,2.0206959,10.9749641,1.2713146,-22.1374054,19.7862587,16.4427490,-4.2185616,9.6653433,-5.4252334,6.1297708,27.9236641,29.9618320
4090,2.2577207,11.2718439,1.4532729,-16.1450386,9.2137403,19.8854961,-4.6207857,9.9981356,-5.3558016,4.6793895,32.5267181,30.6259537
4100,2.8131726,11.4226780,1.7070571,-7.7557254,-2.6564887,21.3816795,-4.3670015,10.2112179,-5.4108682,3.5496182,36.7251892,33.7480927
4110,3.3758070,11.8536320,2.0159075,1.6564885,-12.0000000,21.5496178,-3.8809812,10.1154509,-5.8442163,1.4580153,37.0916023,35.2442741
4120,3.9982965,11.6525202,2.1787124,11.5954199,-19.7175579,19.0610695,-2.8730273,10.2662840,-6.0740585,-2.9312978,37.3664131,33.7786255
4130,4.3550305,11.4011297,1.8890154,19.6106873,-25.5343513,14.7099237,-1.9297167,10.3716288,-5.7819676,-6.1755724,41.4198456,29.9160309
4140,4.6399393,11.1497402,1.6615674,25.0000000,-28.3893127,9.5725193,-1.1180865,10.3859940,-5.2528515,-4.6564884,49.1908379,23.6259537
4150,4.7716198,10.8384953,1.4029950,26.9465656,-28.5496178,4.8931298,-0.9840119,10.8720140,-4.7692256,1.7099236,58.9923668,15.4045801
4160,4.7596488,10.4219065,1.0965388,25.7633591,-26.2366409,-0.5572519,-1.1516051,11.2981796,-4.4316444,10.3969469,64.5954208,9.8015270
4170,4.6040263,9.9478569,1.0989330,22.9312973,-21.7633591,-5.6183205,-0.9816177,11.5854826,-4.5154414,19.2290077,59.3435097,5.8854961
4180,4.2496862,9.4618368,1.1899122,19.8015270,-16.0458012,-10.5725193,0.1436514,11.5663290,-5.5497313,24.8931293,47.2977104,-0.8015267
4190,3.7109938,9.1027079,1.0199248,16.5954189,-10.7938929,-14.2977095,0.8499373,11.4298601,-6.7803445,24.5572510,37.2290077,-12.4961834
4200,3.1627243,8.5999289,0.9888002,12.8320608,-5.8396945,-16.7557259,0.7134684,11.7387114,-7.4698710,18.9847336,29.1832066,-24.8549614
4210,2.5593886,8.2072811,0.8666966,9.5496187,-1.6412214,-17.2137413,0.2035061,12.4162664,-7.6278877,10.0229006,23.2900772,-33.1221390
4220,2.0685797,7.9534974,0.6943150,5.6793895,2.3358779,-16.4351139,-0.3519458,12.8184900,-7.0532823,3.1374047,21.1221371,-35.6717567
4230,1.5658000,7.7021074,0.6799498,1.7786260,3.7328243,-14.6946564,-0.0407012,13.3978844,-6.4427638,2.1526718,26.6412220,-37.4351158
4240,1.2569494,7.5704269,0.5698171,-2.3740458,2.6106870,-11.6641226,0.7062859,14.2717638,-6.2584114,7.4885497,33.6030540,-38.8778610
4250,0.8810617,7.4100165,0.6057299,-5.6870227,1.3587786,-7.9618320,2.1715298,15.4185801,-7.4555058,11.7328243,34.7938919,-44.2595406
4260,0.7278336,7.4387465,0.5985473,-8.8015270,-0.1221374,-3.4580152,3.0501974,16.2948532,-9.0811605,6.9923663,27.0458012,-54.2900772
4270,0.7278336,7.6135225,0.9145803,-10.9923668,-1.0381680,1.0992366,3.6511390,16.8239689,-10.1513634,-9.3358774,1.9007634,-67.2824402
4280,0.7278336,7.7571740,1.0079538,-12.1526718,-0.9312977,6.1145039,4.6782460,17.1040897,-10.4147243,-31.6030540,-29.6183205,-82.2061081
4290,0.8499373,8.1186962,0.9816177,-13.8167934,0.4809160,11.8091602,5.3055239,16.9149494,-10.1369982,-53.3511467,-53.9694672,-100.8167953
4300,1.2282192,8.4921904,0.9097920,-16.1755733,2.1679389,17.2366409,5.3414369,15.3994265,-10.0268650,-70.7404556,-64.9694672,-117.2290039
4310,1.6735384,8.7651272,1.0318956,-18.1374054,2.3435113,21.0916023,4.2664456,13.2829628,-9.7706871,-84.2824402,-58.4351158,-130.1526642
4320,2.1978660,9.2248116,1.2784972,-17.8702297,0.9923664,23.2824421,2.1404054,10.7977943,-10.0268650,-97.1908417,-43.7557259,-136.2137451
4330,2.7174051,9.5384512,1.3527170,-16.6870232,-1.6030535,23.0076332,-0.4979914,7.7140784,-10.6445665,-114.0076370,-26.3893127,-132.5343475
4340,3.1387823,9.7539282,1.3862357,-15.0305347,-2.8778627,21.4656487,-2.4564383,3.6798692,-10.3788109,-135.2671814,-10.7251911,-119.9389343
4350,3.4093258,10.0316534,1.4269369,-13.4122133,-4.0992365,19.8625946,-4.6758518,-1.0438666,-8.7914639,-149.7404633,-2.0839694,-106.2290039
4360,3.6008608,10.2662840,1.4006008,-12.7480917,-5.0076337,18.1068707,-6.7540083,-6.3733325,-7.4076223,-152.9236603,1.5725191,-90.0687027
4370,3.8953462,10.4243011,1.4053892,-13.8015270,-6.2137403,16.0000000,-7.0460997,-12.2199430,-6.3302369,-147.7328186,14.5267172,-79.8778610
4380,4.2592630,10.5535870,1.7118455,-13.9618320,-8.3664122,12.1755724,-7.1418672,-18.7943878,-5.0708933,-134.6335907,23.8091602,-94.1603088
4390,4.6590929,10.5655584,2.0805507,-12.6106873,-12.0458012,5.6564884,-7.0676475,-19.6131992,-4.8793583,-121.7099228,4.2519083,-145.6259613
4400,4.8937230,10.5440102,2.5689652,-9.1374044,-14.7175570,-3.5343511,-6.8809004,-19.6131992,-6.4355812,-129.6488495,-19.0839691,-218.2137451
4410,4.7141590,10.2638903,2.4013720,-6.2290077,-11.5190840,-12.8931293,-10.9127159,-19.6131992,-5.3605900,-161.5038147,3.6183207,-250.1374054
4420,4.1371593,10.2327662,1.7645177,-8.0229006,-1.5877863,-20.9007626,-19.6131992,-19.6131992,1.7693061,-179.7328186,41.9160309,-250.1374054
4430,3.3183465,10.1896706,1.1204807,-13.9160309,12.1374044,-27.1450386,-19.6131992,-17.3004131,9.1122847,-167.9236603,45.0458031,-250.1374054
4440,2.6934631,10.0771437,0.6655847,-22.1984730,27.8396950,-31.8091602,-19.6131992,-10.6732969,14.9158001,-130.9541931,21.4045811,-230.6564941
4450,1.6448082,9.8329363,0.5362985,-31.1984730,39.1679382,-33.7175560,-19.6131992,-6.2129216,19.5078564,-68.7557220,-11.9694653,-108.8702316
4460,0.8283895,9.7156210,0.6943150,-39.3129768,39.9541969,-32.5114517,-19.6131992,-4.1922259,19.6126022,9.5114508,-62.3816795,29.1297703
4470,0.5171449,9.6437950,1.2689204,-42.4045792,33.1221390,-29.6106873,-19.6131992,-5.8873119,15.4018211,88.6488571,-121.5114517,154.4580078
4480,0.4884146,9.5743637,1.9560528,-39.8015251,20.0992374,-25.9236641,-19.6131992,-8.5735922,8.1929159,145.8473358,-145.4580078,223.9541931
4490,0.6368544,9.5264797,2.5857246,-33.8931313,5.2824426,-20.9007626,-10.2998028,-10.7331514,1.8267666,179.6183167,-140.1679382,238.9084015
4500,1.1970947,9.4211359,3.0190730,-27.2748089,-5.0381680,-16.1908398,-3.1196289,-10.4817610,-3.8235207,191.3129730,-117.6183243,216.4045868
4510,1.7357874,9.4498653,3.3111639,-20.5801525,-9.8320608,-11.9541988,0.0095768,-8.9279327,-8.3078375,180.0229034,-88.2824402,172.7633514
4520,2.1380112,9.2966375,3.3686244,-14.3435116,-8.8854961,-8.6870232,-0.1771700,-6.5696559,-11.0420017,148.0000000,-85.1984711,127.0992355
4530,2.5402350,9.2224178,3.3758070,-8.7175570,-5.2671757,-4.8091602,-2.4803803,-3.4979107,-11.7027979,99.9465637,-115.5190811,88.8854980
4540,2.8347204,9.2200232,3.2273674,-3.2671757,-1.4122137,-1.9923664,-5.0589223,-1.3168042,-9.8592720,50.5267181,-169.5877838,66.3358765
4550,0.9026094,8.6023226,1.3982066,-4.6030536,-10.1221371,-5.9160304,-7.3645267,6.1841912,-2.5976956,6.3893127,-69.7633591,42.0000000
4560,1.3455344,9.6414013,1.2186425,8.8625956,-31.1908398,16.2900772,-5.5832496,9.0572186,-3.0765336,-24.6183205,-43.3282433,38.1679382
4570,1.8650736,9.8089943,1.3168042,6.6793895,-29.8854961,15.8931293,-5.4922705,9.3947992,-2.2122312,-32.2061081,-27.8396950,40.6412201
4580,2.4492557,10.1010857,1.6783268,3.6335878,-26.1450386,12.9694653,-5.4922705,9.1074963,-1.1300575,-33.5343513,-13.2977095,43.3587799
4590,2.8035958,10.1992474,1.8147956,0.5419847,-20.4198475,7.8091602,-5.5233951,8.7723103,-0.6607963,-30.9160309,-2.2977099,45.2061081
4600,2.8754215,10.2279778,2.1308286,-3.0763359,-14.4351149,2.0610688,-5.5473371,8.4155760,-0.4237715,-28.0076332,6.2442746,45.4961815
4610,2.8323262,10.0555954,2.2146254,-6.0458016,-8.8854961,-3.1908398,-5.2600341,7.9630742,-0.5817881,-26.6335869,4.5190840,43.4961815
4620,2.4923513,9.7491398,2.4755919,-9.0381680,-4.4274807,-7.1832061,-4.4555864,8.1043310,-0.2466015,-27.1832066,-1.0305344,34.3282433
4630,2.2265961,9.5025377,2.6647329,-9.6412210,-0.6106870,-8.5725193,-4.2736282,8.4658537,0.1149211,-25.3969460,-1.9770992,21.5877857
4640,1.7357874,9.2679071,2.9927368,-6.9389315,2.4656489,-6.4274807,-5.2001796,8.9949694,0.3280039,-12.7404585,-9.1679392,2.0305343
4650,1.8387375,9.1577749,2.9664006,-4.0305343,2.7862597,-4.3893127,-5.9687142,9.3828287,-0.0574605,-10.2290077,-8.4427481,-3.0534351
4660,1.8076130,9.0811605,2.9496415,-1.0534351,2.9541984,-2.5954199,-6.8904772,9.2583303,-0.4165890,-10.6793890,-3.9007633,-2.7251909
4670,1.9368993,9.0859489,2.6695213,0.7557252,3.4809160,-1.0534351,-7.3334022,9.0117292,-0.7086801,-12.2213745,4.3969464,0.8473282
4680,1.9249283,9.1458035,2.5593886,1.5572519,4.9541984,0.0305344,-7.6877422,8.8154058,-0.7374104,-14.9389315,9.7251911,4.7709923
4690,2.0685797,9.2607250,2.5067163,1.8396946,6.2900763,0.6564885,-7.6230993,8.5831690,-0.3854645,-18.0534344,13.5343513,9.2061071
4700,2.1236460,9.3038206,2.4612267,2.6793892,8.0687027,1.1526718,-7.3118544,8.1785507,-0.0095768,-18.4961834,17.6183205,11.1908398
4710,2.1978660,9.2990322,2.3750360,3.1526718,9.2977095,1.4274809,-7.2519999,7.8098459,0.3303981,-18.4580154,19.0534344,10.9923668
4720,2.3032103,9.3373384,2.3079987,4.2290077,9.4503813,1.3511450,-7.3453732,7.3166428,0.6224893,-19.8320618,19.4045811,9.0839691
4730,2.5019281,9.3636751,2.1020982,4.1908398,9.2442751,0.8244275,-7.7763271,6.9766679,1.0749911,-21.1755733,16.3587780,7.6106873
4740,2.5354466,9.3564920,1.9129574,3.9007633,8.6870232,-0.1145038,-7.9104018,6.7923155,1.7190280,-22.1908398,8.2442751,8.9389315
4750,2.5617826,9.3732519,1.8315549,2.4427481,8.5343513,-1.0916030,-7.5321202,6.5864153,2.2912393,-23.1068707,-1.8931298,9.3206110
4760,2.5593886,9.3469152,1.7956421,0.8854962,8.3664122,-1.7175573,-6.9024482,6.3637557,2.9328821,-21.3206100,-9.1297712,8.7786255
4770,2.7221935,9.2415714,1.8339491,-1.1297710,8.3664122,-2.0381680,-6.5385313,6.0764527,3.2680686,-8.3893127,-10.0076332,4.1832061
4780,2.8107784,9.1673517,1.9321109,-1.6106870,8.5343513,-2.3664122,-6.8617468,6.0357518,3.0047078,-2.4580152,-3.7862597,4.6870227
4790,2.9041519,9.2846670,1.9776005,-1.4274809,8.2824430,-2.9007633,-7.0317345,6.1075773,2.8059900,1.6488550,2.5954199,5.1603055
4800,2.9711890,9.2224178,1.9799947,-1.5877863,9.1679392,-3.7633588,-7.7763271,6.1051831,2.7413468,4.3511453,6.3511453,3.0458016
4810,2.9759774,9.3660688,1.8890154,-1.5343511,10.7175570,-4.3740458,-8.6933022,6.7180958,2.6168492,5.1679387,2.6564887,3.0152671
4820,2.9328821,9.2870607,1.7597293,-2.2748091,11.3587790,-4.7633586,-9.3445215,7.4938130,2.9448531,5.9312978,-7.0839696,4.5877862
4830,2.8706331,9.3373384,1.8124014,-3.5343511,12.3511448,-5.0839696,-9.8880024,8.1737623,3.1651185,9.8625956,-20.3129768,8.7557249
4840,2.5976956,9.2056589,1.9249283,-3.6106870,12.7938929,-4.3740458,-10.2231894,8.8537130,2.5067163,15.3816795,-34.8931313,15.9465647
4850,2.5474176,9.1098909,1.9991482,-3.0305343,11.8625956,-3.0381680,-9.4402885,9.4474716,1.6639616,19.0305347,-36.9923668,24.4122143
4860,2.4253139,9.2008705,2.1044924,0.1221374,6.7099237,1.5572519,-8.1953106,9.5360565,0.6105183,30.3893127,-0.5114504,36.6412201
4870,2.5569944,9.1817169,1.9847831,1.9389313,3.8931298,3.5038168,-8.5017672,9.7658987,-0.2753318,35.3740463,22.2213745,41.3511467
4880,2.6048782,9.3325500,1.9823889,3.2824428,1.8702290,5.4732823,-9.0715837,9.8688488,-0.7829000,36.3129768,38.0534363,47.2519073
4890,2.6647329,9.2367830,2.0685797,4.3206105,0.3664122,7.0839696,-9.1098909,9.6629486,-1.0773853,33.6030540,46.3129768,53.6106873
4900,2.9448531,9.3349447,2.0278785,5.4122138,0.2519084,7.6564884,-9.2966375,9.2008705,-1.3096216,29.0076332,48.0610695,58.2595406
4910,3.1004753,9.3133974,1.9919657,6.4656487,0.7480916,7.8244276,-9.7467451,8.8513184,-1.3479286,22.7480907,43.1221390,62.0916023
4920,3.3183465,9.3086090,1.9464760,7.0305343,2.5877862,6.9312978,-9.8233595,8.4850073,-1.5849534,14.6335878,34.9771004,66.8473282
4930,3.2225790,9.4474716,1.8578910,6.7709923,4.6564884,5.0152674,-9.5049324,7.9391322,-1.4077834,6.4732823,25.5954189,72.7786255
4940,3.0861101,9.6150646,1.6184721,5.3282442,7.8396945,2.2290077,-8.8058290,7.2927012,-1.0438666,-0.1603053,18.5725193,77.1221390
4950,2.3008161,9.9167328,1.5586174,-1.8091604,20.1374054,-5.5496182,-7.6326761,6.0453281,-0.2346306,-6.8320613,18.0458012,82.0152664
4960,1.6495966,10.0699606,1.7477583,-5.4503818,25.4274807,-8.2595415,-7.0724359,5.7604198,0.1699875,-6.4885497,23.2748089,83.9160309
4970,1.1970947,10.0986910,1.7932479,-8.4198475,31.0610695,-8.9694653,-6.4379754,5.4108682,0.4812321,-3.5114503,29.6564884,85.4045792
4980,0.9073978,10.0747490,1.8028246,-11.1679392,32.1221390,-8.8320608,-5.4180508,5.2313042,0.6799498,0.3893130,38.3206100,86.4656525
4990,0.8379663,10.0364418,2.1044924,-13.0000000,29.3740463,-7.8320613,-4.3598189,5.1331420,0.4213773,4.0534353,46.8625946,85.2137375
5000,1.1396341,9.7443514,2.9711890,-9.2900763,19.7709923,-6.2213740,-2.0039365,5.1379304,0.3447633,6.9618320,52.2671738,73.6030502
5010,1.5274929,9.6605549,3.2130022,-5.5343513,16.2519093,-5.3969464,-1.1516051,5.5066357,0.6248835,9.5496187,51.5801544,62.0992355
5020,2.0302727,9.3564920,3.1435707,1.0458015,16.0839691,-3.0687022,1.6495966,7.2927012,1.0702027,24.2290077,43.5954208,35.3664131
5030,2.1523764,9.2870607,2.9831600,3.0229008,16.3129768,-0.1679389,3.6248028,8.2671366,0.6153067,38.1374054,43.3816795,19.4198475
5040,2.2984219,9.1745338,2.8993635,5.3129773,15.8931293,3.7557251,5.4659348,8.9135675,-0.5171449,52.0381660,48.9236641,-1.3587786
5050,3.1268115,8.7603388,2.5354466,11.4961834,10.8931293,10.8091602,6.3422079,11.8751793,-3.3638363,63.7251892,58.5496178,-54.0305328
5060,3.4093258,8.4036045,2.1739240,14.8244276,6.8167939,13.6564884,5.4611464,13.3547888,-4.3191175,61.5954208,54.9465637,-71.2748108
5070,3.6822634,7.8026633,1.9249283,18.7633591,3.4274809,17.7175579,5.1642666,14.3771076,-5.1331420,58.2061081,45.9465637,-80.7175598
5080,3.9144998,7.6973190,1.6567791,23.0916023,2.3129771,23.2595425,5.1594782,14.7625723,-6.3110833,54.5419846,41.2977104,-86.9770966
5090,3.9935081,7.8098459,1.0366840,28.0152664,1.8244275,29.0076332,5.4252334,15.3730907,-8.4059992,47.2442741,36.6793900,-94.3206100
5100,4.3670015,8.0444765,0.3447633,31.7633591,1.4809160,32.9618340,5.4156566,15.9668493,-10.5176744,29.6183205,39.7404594,-100.6564865
5110,4.4771342,8.4131813,-0.3591284,30.7328243,2.0076337,32.1450386,5.2073622,15.6867294,-11.8249016,3.2137403,47.1221390,-105.1603088
5120,4.4316444,9.0189114,-0.7661406,26.9923668,5.4274807,28.0992374,5.0637107,15.3276005,-11.2862091,-25.4122143,58.6793900,-115.8625946
5130,4.3430595,9.0380650,-1.3814473,19.9083977,6.0381680,19.7099228,3.7540891,15.0953646,-9.6030941,-48.4580154,73.9694672,-125.9465637
5140,3.5266411,9.2583303,-1.7980363,8.7404585,5.6106873,11.2900763,2.5282640,14.6835642,-7.5369086,-63.0305328,99.3129807,-129.4885559
5150,2.7557120,9.3756456,-1.7118455,-2.7938931,5.9236641,5.2442746,2.6216373,13.5559006,-4.5657191,-62.1297722,140.1221313,-129.3282471
5160,1.9416877,9.1386213,-0.9696468,-11.5114508,2.7862597,2.4885497,3.5553713,11.9877062,-2.5569944,-46.4198456,197.9313049,-131.9923706
5170,1.3934183,8.9997578,0.0000000,-13.6106873,-5.8854961,3.5877862,4.6088147,9.4331064,-1.5250987,-22.2137413,250.1297760,-138.3816833
5180,1.0702027,9.0428534,0.6799498,-11.8702288,-16.0839691,6.6412215,3.5888901,6.4451580,-2.4851687,0.0763359,250.1297760,-150.0915985
5190,1.1109039,9.0213060,1.3646880,-6.0610685,-24.6030540,12.4274807,-0.7230452,4.8673873,-4.9894910,-1.6183206,250.1297760,-164.6488495
5200,1.3694763,9.4019823,1.4987626,-0.5190840,-33.2977104,18.0687027,-3.6535332,3.5026991,-6.7564025,-48.2824440,215.0076294,-164.0839691
5210,1.7357874,10.0029240,1.1707586,2.0916030,-36.6259537,21.9770985,-6.5026188,0.0526722,-4.4962878,-98.7633591,113.8625946,-154.4809113
5220,2.3965836,10.3500814,1.0366840,0.0763359,-34.3893127,23.1679382,-8.0660238,-3.3566537,-0.9576758,-111.5801544,21.1297703,-135.7328186
5230,2.9185169,10.7499104,1.0366840,-4.8167939,-30.2137413,20.3816795,-6.6414814,-8.0492649,0.1005560,-92.0229034,-33.4045792,-117.1374054
5240,3.2944047,10.9534168,1.3168042,-10.5572519,-25.8015270,15.4122133,-5.0301919,-12.6269550,-0.5746055,-47.5801544,-35.8396950,-117.1908417
5250,3.7109938,10.8600435,1.5634058,-16.4809170,-22.6717548,8.4045801,-4.9368186,-16.5366669,-2.8155668,14.9160309,13.0839691,-138.8320618
5260,3.8594334,10.6182299,2.2313845,-19.7404575,-19.9160309,0.8396947,-6.2416520,-18.8231182,-6.8521700,76.1603088,86.4885483,-175.2137451
5270,3.8761928,10.4123297,2.7581062,-20.2519093,-16.2977104,-6.5038166,-8.6358414,-19.6131992,-12.5120344,110.8549652,142.3053436,-230.5343475
5280,3.7397239,10.2734671,2.8658447,-20.5114498,-10.9847326,-12.4732828,-13.7641954,-19.0266228,-18.8063583,99.7328262,132.7175598,-250.1374054
5290,3.6822634,9.9382801,2.9975252,-22.3435116,-3.1068702,-17.3053436,-19.6131992,-15.1576138,-19.6131992,34.7709923,87.1755753,-250.1374054
5300,3.3351059,9.6821022,3.4189026,-21.0076332,5.6564884,-20.3740463,-19.6131992,-9.7156210,-19.6131992,-64.7480927,35.0381660,-250.1374054
5310,3.0597742,9.3852224,3.7085996,-16.0076332,12.1526718,-22.0152664,-19.6131992,-5.4755111,-16.5414543,-186.3969421,-45.9160309,-250.1374054
5320,2.6695213,9.2798786,3.7253587,-7.4427481,15.7099237,-21.3511448,-19.6131992,-2.8107784,-4.1754665,-250.1374054,-136.0610657,-191.2213745
5330,2.3941894,9.0811605,3.4691806,2.4427481,16.3893127,-18.6030540,-19.6131992,-1.3958124,11.2933912,-250.1374054,-196.6870270,-54.0687027
5340,1.9823889,9.8496952,1.1372399,18.4656487,11.2595415,-8.9389315,-3.4931223,-14.3076763,1.6543850,250.1297760,-42.1526718,216.9923706
5350,1.9392935,9.8137827,1.0247130,16.4885502,8.5496187,-9.3129768,-3.8259149,-12.3803539,-8.3461447,250.1297760,14.3893127,191.2442780
5360,1.8411317,9.6509781,1.1851238,14.5801525,5.8778625,-8.2366409,-5.2672167,-9.8544836,-14.0491037,250.1297760,28.6488552,169.9541931
5370,1.9368993,9.5528164,1.4077834,12.8244276,2.7786260,-6.2824426,-6.5361371,-7.3453732,-16.2445755,182.0992432,-15.8854961,151.8015289
5380,2.1643472,9.4474716,1.7549409,11.4427481,0.5343512,-3.3587787,-7.4483232,-5.0014620,-15.3132353,95.4656525,-101.8015289,134.9770966
5390,2.4899571,9.3947992,2.1260402,10.9770994,-1.9007634,-1.5267175,-6.9192076,-2.9328821,-12.0547438,30.1984730,-188.2213745,124.8549652
5400,3.0166788,9.4187412,2.3558824,11.6412210,-3.9923663,-0.9083970,-5.5138183,-1.5466464,-7.7571740,-2.0458016,-232.8091583,115.4427490
5410,3.4524212,9.3564920,2.4779861,12.0763359,-4.4961834,-2.2519083,-4.2377152,-0.3567342,-4.1371593,-2.0229008,-235.2290039,103.6412201
5420,3.7684543,9.2463598,2.6862805,12.4961834,-3.2824428,-4.8396945,-4.2018023,0.7685348,-2.3726418,17.1450386,-214.5496216,92.3893127
5430,4.0246325,9.0404596,2.7748656,13.1526718,1.1526718,-8.2366409,-5.3031297,1.4293311,-1.8866212,44.5877876,-181.3587799,84.7022934
5440,3.9240766,8.9063845,2.6431851,14.2061071,6.1908398,-12.1297712,-6.7923155,2.3822186,-2.7413468,70.7709961,-147.9770966,83.9236679
5450,3.6248028,8.7411861,2.3654592,14.3816795,10.8702288,-14.8549614,-7.4555058,4.0653338,-4.6590929,84.8778610,-117.0610657,89.8549652
5460,3.3422885,8.6454182,1.9201399,13.9618320,13.1908398,-16.4274807,-7.3525558,5.6694407,-6.5624733,83.5801544,-89.4580154,98.4580154
5470,3.1459649,8.5089493,1.6998745,12.1832066,14.1221371,-17.9083977,-6.4379754,6.8306227,-7.6638002,70.4198456,-74.2061081,104.7862625
5480,2.8754215,8.3389616,1.3551112,10.7404585,13.2061071,-18.8473282,-5.1906028,7.8529415,-7.8002691,49.0916023,-69.8625946,104.4885483
5490,2.6120608,8.1617918,1.0989330,9.1374044,10.3969469,-19.5801525,-4.4005203,8.8513184,-7.0149751,25.2977104,-68.3511429,101.1984711
5500,2.1188576,7.5847921,0.6727672,3.6030533,4.5725193,-16.1984730,-4.8195033,9.9789820,-4.3646073,-1.8931298,-60.0000000,93.4351120
5510,1.9967541,7.4267755,0.5865764,0.7099237,5.8778625,-15.6412210,-4.3119354,10.3428984,-4.7692256,-6.7251906,-68.2671738,92.2442780
5520,1.8578910,7.5584559,0.2657550,-3.0534351,8.8167934,-15.2671757,-3.6080434,10.6445665,-5.1115947,-15.6030531,-74.7022934,89.0076370
5530,1.5250987,7.6350703,0.1005560,-8.4885492,13.3129768,-14.2748089,-2.8802099,10.7690639,-5.0206151,-26.6259537,-78.2671738,80.7786255
5540,1.1994889,7.7978749,-0.1364688,-15.0916033,16.2442741,-12.3969469,-2.6431851,10.7259684,-4.5369892,-39.1832047,-79.4961853,71.0687027
5550,1.2210367,7.8409705,-0.1843526,-21.9770985,16.5419846,-10.4580154,-2.8562679,11.2024126,-3.4260850,-53.5343513,-80.6412201,62.0458031
5560,1.1923064,8.0109577,0.2082945,-27.1679382,15.3893127,-9.1679392,-3.4931223,11.5328102,-1.5825592,-63.6183205,-77.0839691,57.7099228
5570,1.3024391,8.2168579,0.6727672,-29.3206100,13.0610685,-8.3511448,-3.9192882,11.0898857,0.2513899,-63.9083977,-68.9312973,60.5801544
5580,1.2952565,8.3485384,1.0989330,-29.9465656,11.4732828,-6.8396945,-4.0796990,10.4961262,1.8291607,-54.6717567,-53.8320618,64.5648880
5590,1.2689204,8.6909075,1.3383518,-30.0152664,11.8702288,-3.8625953,-3.9743545,9.9430685,2.8035958,-37.4274826,-37.3893127,69.0534363
5600,1.3527170,8.9901810,1.6639616,-29.6717548,13.6259546,0.1908397,-3.6271970,9.5504217,2.9352763,-16.5725193,-20.6946564,71.2519073
5610,1.3503228,9.4426832,1.8794388,-29.0916023,15.0839691,5.3969464,-2.7628946,9.0093346,2.0039365,3.3664122,-2.6412213,69.9542007
5620,1.6687500,9.8449068,2.2242019,-27.5496178,16.9160309,10.2671757,-1.9680238,8.6142941,0.8978211,15.4427481,10.4809160,63.3206100
5630,1.8602852,10.1561518,2.4612267,-24.7022896,18.6183205,14.3740454,-1.2641320,8.6142941,-0.0454896,19.0916023,13.7633591,50.1908379
5640,2.0613971,10.4386663,2.6910689,-20.5648861,18.2519093,18.0534344,-1.3479286,8.7747040,-0.6464311,16.6793900,8.4580154,35.9541969
5650,2.3103929,10.7331514,2.7461352,-15.6106873,16.5496178,21.8473282,-1.9440818,8.8393478,-1.1037214,11.2671757,0.5877863,23.3740463
5660,2.5115047,10.8791971,2.7341642,-10.6946564,11.7480917,24.9312973,-2.4277081,8.6669655,-1.0199248,7.0839696,-5.6106873,12.5572519
5670,3.1076579,11.0156660,2.4612267,-4.9770994,2.2061069,26.3206100,-3.7373297,8.8417416,-1.4820032,-8.3664122,-22.8625946,6.7862597
5680,3.3111639,10.9510221,2.5210814,-2.6946564,-5.3358779,24.8244267,-3.7445123,8.3964224,-1.1970947,-17.0916023,-32.0458031,11.6335878
5690,3.6822634,10.7594872,2.7796540,-0.2213740,-12.1755724,22.0381680,-3.1100521,8.0875721,-0.9720409,-22.7099228,-34.1145020,14.6259546
5700,3.8402798,10.5224628,2.9424589,2.8778627,-16.3053436,18.7557259,-2.6503677,8.1474266,-0.4118006,-25.6488552,-27.0305347,14.8396950
5710,3.9097114,10.1824875,3.1220231,6.1908398,-17.5419846,15.3587790,-2.7054341,8.2671366,0.1771700,-25.3358784,-18.3435116,15.0916033
5720,3.7493007,9.9382801,3.0693510,9.2061071,-17.1755733,13.1374044,-2.8083842,8.4371233,0.2777260,-23.0305347,-12.0687027,15.2366409
5730,3.7301471,9.6797075,2.8682389,10.8625956,-14.6183205,11.5114508,-2.7317703,8.3868456,0.1915352,-22.0381680,-8.8549614,14.5267172
5740,3.5769191,9.5049324,2.6743097,11.3206110,-10.8015270,9.8854961,-2.8251436,8.5496502,0.3806761,-22.2442741,-5.3893127,12.0992365
5750,3.3805954,9.3062143,2.5186872,9.9770994,-7.8931298,7.4427481,-3.0454090,8.6549950,0.3998296,-22.3206100,-3.1984732,9.9465647
5760,3.1842721,9.1314383,2.2433555,8.7251911,-7.1908398,5.5267177,-3.5290353,8.6669655,0.5362985,-21.6870232,-3.4198472,7.2595420
5770,3.0908985,8.9973640,2.2361729,7.7633586,-8.1984730,3.6106870,-4.3286943,8.9901810,0.4453192,-21.3435116,-11.0000000,4.9389315
5780,2.9520357,8.9470863,2.1787124,7.3893127,-9.7862597,1.7709924,-5.1283536,9.2559366,0.0000000,-24.5114498,-27.2213745,4.6717558
5790,2.8778157,8.8345594,1.9680238,6.6793895,-11.2137403,-0.2748092,-5.3773494,9.6629486,-0.6416427,-31.9312973,-40.2900772,7.4045801
5800,2.7221935,8.8704720,1.5490406,4.4503818,-11.3053436,-1.8244275,-5.5449429,9.7060442,-0.6847382,-39.6793900,-41.5877876,11.7862597
5810,2.7341642,8.8369532,1.3048333,0.1221374,-8.7633591,-3.8473282,-5.1594782,9.9550400,-0.0694315,-44.6183205,-36.7557259,16.2748089
5820,2.5522060,8.9255381,1.2330076,-4.3129773,-4.9389315,-6.0763359,-4.4914994,10.0939026,1.1300575,-42.7557259,-25.2061062,20.0076332
5830,2.3510940,8.9806042,1.2090657,-8.3893127,-1.0534351,-8.1068707,-3.7947903,10.1824875,1.6974803,-33.0763359,-15.4732828,19.1068707
5840,2.1475880,8.9997578,1.2713146,-12.3206110,2.8473282,-9.9923668,-3.3303175,10.4458485,2.0183017,-21.3664131,-7.3893127,14.7099237
5850,1.7070571,9.0500364,1.1372399,-15.7328243,6.8702292,-10.8473282,-3.0334380,10.8768024,1.5705882,-10.3358774,5.1221375,8.9923668
5860,1.3598996,9.1410151,1.1109039,-18.6259537,9.8244276,-10.2366409,-2.6575503,11.1736822,1.0462608,-2.6183207,15.2595415,3.6870229
5870,1.1420283,9.3181858,1.1994889,-20.5801525,10.5038166,-9.1145039,-2.5426292,11.5352049,0.0000000,0.4274809,23.6793900,-3.6183207
5880,0.9409165,9.5432396,1.2497669,-20.9618320,9.6259546,-6.9160304,-2.8826041,11.7099810,-0.3854645,-1.7404580,25.8473282,-10.2519083
5890,0.8906385,9.6701307,1.3072275,-21.3129768,6.3740458,-4.6488547,-2.9831600,12.1888189,-0.4884146,-5.4045801,21.6564884,-15.5572519
5900,1.0031654,9.6581602,1.5059452,-21.0076332,1.2595420,-2.0229008,-2.9568241,12.2127600,-0.1221037,-7.4503818,12.0610685,-18.9007626
5910,1.3431402,9.5719690,1.6567791,-20.8778629,-4.3969464,1.4351145,-2.4540441,12.3659887,0.2082945,-5.7938933,1.5725191,-24.1755733
5920,1.7262106,9.4738073,2.0015423,-18.9770985,-9.9694653,3.4656489,-2.1140692,12.4306316,0.3639168,-3.1145039,-4.3053436,-29.8015270
5930,2.2912393,9.4163475,2.3630650,-15.1984730,-13.5877867,4.0534353,-1.2497669,12.7777891,0.1173153,-3.3587787,-9.3206110,-35.0381660
5940,2.6814921,8.9901810,2.3894010,-11.2519083,-16.3664131,4.5419846,-0.4309541,12.7562418,0.1532281,-9.5572519,-19.2290077,-39.5190849
5950,3.0765336,8.4802189,2.4324965,-7.1526718,-18.6488552,7.3664122,0.7757174,12.5168228,0.5626345,-18.7328243,-32.7480927,-47.3587799
5960,3.4500270,8.5592270,2.3989778,-2.6488550,-21.0687027,11.7175570,2.0446377,12.0308018,1.2258250,-24.0000000,-40.9007645,-57.3358765
5970,3.9121056,8.7387915,2.3941894,2.8167939,-23.6564884,15.5877867,2.9352763,11.7171631,1.6759326,-23.1526718,-37.7786255,-70.2748108
5980,4.3358769,9.1338329,2.2601149,7.6946564,-21.9541988,16.2824421,2.9113343,11.8823624,2.1236460,-17.7404575,-28.3816795,-83.7709961
5990,4.7548604,9.4570484,1.6328372,9.3740454,-16.3129768,13.2595415,2.8251436,11.9996777,1.9823889,-9.6183205,-15.8320608,-96.2061081
6000,4.2041965,9.8305416,0.3088504,-1.4961832,3.2137403,0.1526718,2.3558824,11.6190014,1.0438666,1.2137405,3.5572519,-127.2213745
6010,2.4779861,9.5576038,0.3974355,-15.6335878,11.4503813,-9.4198475,0.2370248,11.4298601,0.2681492,6.4045801,15.2442751,-156.4503784
6020,1.6998745,9.2846670,0.9193687,-16.9847336,8.5801525,-9.5114508,-1.3048333,11.5926657,-0.9504932,6.6106873,16.1984730,-163.6564941
6030,0.8834559,9.0500364,1.2114599,-14.0763359,2.5114503,-5.1679387,-2.4516499,12.1936073,-2.7341642,-1.1908396,15.2137403,-164.3740387
6040,0.5913648,8.9207497,1.5634058,-9.1755724,-6.2748094,2.6717558,-3.1962428,12.6461086,-4.2089849,-18.3816795,25.3587780,-157.0076294
6050,0.6440369,9.0763721,1.8243724,-2.2137403,-17.0534344,10.4427481,-3.4859397,12.4665442,-5.0684991,-35.4656487,44.5801544,-146.9694672
6060,1.1300575,9.4953556,1.7286048,3.1068702,-27.5419846,15.9236641,-2.9927368,12.4114780,-5.4970589,-51.1145020,67.7022934,-138.0381622
6070,1.6304430,9.8281479,1.5442522,4.7633586,-31.7938938,17.8549614,-1.9608412,11.6166077,-5.7580256,-65.3893127,88.9694672,-133.6259613
6080,2.1547706,10.0915089,1.5466464,3.2366412,-29.9923668,16.6183205,-0.5626345,10.7738523,-5.5162125,-74.3816757,111.5038147,-131.8778687
6090,2.4540441,10.3117743,1.7022687,-0.9618320,-24.8244267,13.0992365,0.8068419,8.3724804,-5.3677726,-78.3816757,140.4656525,-137.7404633
6100,2.6910689,10.3907824,2.0015423,-6.0992365,-16.7862587,8.8091602,0.9145803,5.3366485,-5.9304070,-79.3053436,158.5954132,-150.5267181
6110,2.6431851,10.3381100,2.4492557,-9.1450386,-8.4045801,4.4122138,-1.1803354,0.9816177,-8.4538832,-85.2290039,133.4961853,-169.4122162
6120,2.6719155,10.1489687,2.8610563,-10.7022905,-1.5801526,0.8091603,-2.2720859,-3.7876077,-11.6836443,-118.6870193,70.4885483,-189.6564941
6130,2.5474176,10.0771437,3.2728570,-9.4732828,2.5496182,-1.8473282,-3.3805954,-10.1010857,-10.8097658,-166.7251892,35.8854980,-212.4045868
6140,2.3654592,10.0292597,3.4739690,-7.4045801,4.4961834,-3.9770992,-6.6055689,-15.6053267,-5.8777351,-183.1374054,45.8778610,-229.3587799
6150,2.2984219,9.9670105,3.4356618,-4.8778625,6.1374044,-6.0916033,-10.1537571,-19.6131992,-1.3886299,-155.6335907,81.5267181,-234.6183167
6160,2.2720859,9.8784256,3.6678982,-1.9465649,9.0839691,-7.6106873,-10.6780853,-19.6131992,-0.1221037,-104.6335907,160.7862549,-236.5572510
6170,2.1427996,9.8113880,3.7253587,2.0076337,12.6793890,-8.5877867,-12.6078014,-19.6131992,-0.1101327,-52.0228996,232.8854980,-250.1374054
6180,1.9704180,9.7850523,3.7995787,6.9389315,16.7480907,-7.9007635,-16.0338860,-19.6131992,-3.3422885,-22.9847336,243.1526642,-250.1374054
6190,1.7477583,9.8951855,3.3925664,11.9541988,19.3969460,-4.9541984,-19.6131992,-19.6131992,-5.9375896,-47.2824440,240.6641235,-250.1374054
6200,1.7740943,9.9741936,3.2034254,16.2137413,21.1221371,-1.8778626,-19.6131992,-14.4130201,-0.9528874,-103.2442780,211.2290039,-250.1374054
6210,1.8961980,10.1274214,3.1914546,21.2366409,20.9007626,0.5114504,-19.6131992,-8.3676920,8.6669655,-142.2671814,124.6564865,-225.8549652
6220,1.9321109,10.2184010,3.1507533,27.3435116,18.7480907,1.9312977,-19.6131992,-2.6144550,18.1718979,-134.8473358,10.1374044,-120.8549652
6230,1.9991482,10.2375546,3.0454090,33.6793900,15.0305347,3.2442749,-19.6131992,-0.5793939,19.6126022,-70.9923630,-66.6183243,7.0992365
6240,2.0206959,10.3285332,2.8562679,39.5114517,11.4122133,5.0458016,-19.6131992,-3.5457945,19.6126022,25.4274807,-90.1603088,116.4503784
6250,2.0997043,10.3381100,2.7509236,45.9694672,7.1679387,7.4885497,-19.6131992,-8.2168579,17.1208496,123.2595444,-85.5725174,181.2213745
6260,2.3008161,10.3309278,2.3870070,51.3740463,2.3893130,10.5038166,-11.9781294,-11.3724003,7.8026633,187.5725250,-64.6488571,194.6488495
6270,2.5737536,10.3045912,1.7573351,54.0534363,-1.2519084,11.7099237,-7.9295554,-11.8656025,-0.0526722,211.5572510,-44.3358765,180.4427490
6280,3.2153964,10.1848822,1.5490406,53.9160309,-0.8854962,12.5419846,-7.8194227,-10.6876621,-5.6167684,199.1374054,-43.7480927,162.5572510
6290,3.6439564,10.0053177,1.6376256,54.1755714,-1.5725191,10.6717558,-9.2439651,-8.6382351,-8.4490948,161.4885559,-68.6488571,154.9847260
6300,4.0629396,9.8018112,1.5370697,54.6412201,-2.1374047,6.5419846,-9.7395630,-7.5129666,-8.1737623,121.9083939,-106.1068726,155.0000000
6310,4.2448978,9.5623922,1.3144100,53.1526718,-1.4198474,0.9465649,-8.4514885,-6.8210459,-7.0724359,95.6564865,-142.1526642,154.1145020
6320,4.1156116,9.2128410,0.9169745,48.1908379,-0.1603053,-4.1679387,-6.7994981,-6.5792327,-6.0118098,83.3816757,-153.6946564,147.8702240
6330,3.9767487,8.7675219,0.7038917,40.1297722,-1.2366412,-7.7175574,-6.2057390,-6.1434903,-4.7524662,80.9312973,-146.1068726,137.9084015
6340,3.9982965,8.4682484,0.6536137,30.9847336,-4.1068702,-10.8091602,-6.2823529,-5.1690550,-3.7995787,84.9770966,-133.3816833,130.0152740
6350,4.0892754,7.9391322,0.9696468,23.2900772,-5.3664122,-14.4427481,-6.4930420,-4.2377152,-3.1339941,91.3511429,-128.1374054,121.0457993
6360,3.8833754,7.4004397,1.1252691,17.0534344,-3.8931298,-17.9770985,-6.0932121,-2.9783716,-2.9041519,95.5343475,-132.6946564,109.8244247
6370,3.6008608,6.9982157,1.0199248,10.7938929,0.1755725,-20.5038166,-5.4635406,-0.8619082,-3.1004753,96.7022934,-134.9160309,94.2213745
6380,3.2465210,6.7061248,1.0127422,4.5267177,6.6106873,-22.1145039,-5.7077475,0.4501076,-3.5960727,93.1526718,-131.6946564,78.0839691
6390,2.8419030,6.2823529,0.7637464,-2.4885497,14.3358774,-22.5343513,-6.4667058,1.9368993,-3.7876077,86.2442780,-129.9770966,64.6259537
6400,2.2984219,6.0620875,0.6991033,-9.6564884,22.3587780,-21.6641216,-7.8433647,3.8163381,-3.6295912,75.7633591,-123.9389343,58.0152664
6410,1.8004304,6.0022330,0.7182568,-16.0916023,28.4198475,-18.6946564,-9.0500364,4.5848727,-3.3231349,65.7099228,-117.8473282,58.7175560
6420,1.4748207,5.9711084,0.6823440,-21.0458012,31.6717548,-14.4732828,-9.7395630,5.3294659,-2.8131726,58.8549614,-113.5343475,64.9160309
6430,1.0893562,6.1626434,0.5315101,-25.4427490,34.1755714,-8.9541988,-9.2511482,6.1626434,-2.5426292,55.3893127,-98.6641235,73.9618301
6440,0.9935886,6.3853035,0.5817881,-27.6335869,35.2213745,-2.3816793,-8.4179697,6.3685441,-2.2265961,54.1984749,-74.7251892,82.7175598
6450,1.0103480,6.9024482,0.4740495,-29.3358784,33.2977104,4.8244276,-7.4866304,6.4451580,-2.4420733,52.7709923,-57.0381660,83.8931274
6460,1.1635761,7.4076223,0.4070122,-30.6946564,31.4961834,11.3511448,-6.6223278,7.6781654,-2.7078283,45.1603050,-52.0763359,79.7099228
6470,1.4796091,8.0660238,0.1915352,-33.0305328,28.3816795,16.9465656,-6.3039007,8.9135675,-2.4444675,28.7328243,-51.4732819,75.0381699
6480,1.8578910,8.7794924,0.1723816,-35.6641235,24.9312973,21.1221371,-6.0022330,9.5097208,-1.2665262,11.1755724,-54.3358765,74.6259537
6490,2.1595588,9.3732519,0.5554519,-36.7633591,21.4274807,24.1450386,-6.0596933,9.1481981,-0.1891410,-0.1450382,-52.8320618,74.1450348
6500,2.5426292,9.8425131,0.8906385,-36.0305328,15.1679392,26.3969460,-5.9471664,7.5416965,-1.0199248,-13.5572519,-46.1832047,71.0916061
6510,2.9711890,10.2303715,1.2425843,-34.0458031,7.6412215,27.5038166,-6.8832946,9.9095497,0.8355721,-17.5038166,-56.2290077,65.2442780
6520,3.4093258,10.5751352,1.5993185,-30.4427490,0.5954198,27.2595425,-7.3836803,9.3900108,0.4812321,-25.1374054,-75.9694672,55.4656487
6530,3.9360476,10.7427282,1.8387375,-27.3740463,-4.9007635,25.2519093,-7.7547798,10.2303715,0.5650287,-33.5496178,-98.7709961,52.4656487
6540,4.2855992,10.7116032,2.0350611,-24.3664131,-7.8091602,22.3206100,-7.0676475,11.0994625,1.0630201,-39.8091621,-104.5725174,53.0687027
6550,4.6973996,10.6661139,2.2601149,-22.3740463,-7.0458016,18.2671757,-6.7372489,11.4729557,2.1643472,-38.7175560,-89.5801544,54.9160309
6560,4.7548604,10.6469603,2.4085546,-19.9465656,-4.9160304,13.7938929,-6.4260044,10.9749641,3.2656744,-28.3664131,-64.1450348,59.5496178
6570,4.7428894,10.5128860,2.6479735,-17.3893127,-2.9618320,9.3206110,-5.8394279,10.7451220,3.5457945,-12.3053436,-34.6946564,63.3664131
6580,4.5633249,10.3620520,2.6575503,-13.9618320,-1.4122137,5.3053436,-5.3965030,10.0986910,2.9352763,1.6183206,-3.5801528,64.3816757
6590,4.2401094,10.3381100,2.7269819,-9.4503813,-1.3664122,2.5725191,-5.0589223,10.1585455,2.1188576,11.8091602,21.1908398,63.8778610
6600,4.0054789,10.1058741,2.5474176,-6.0381680,-2.5114503,0.8549618,-5.3174949,10.1130562,1.0654143,17.2824421,40.1679382,61.6870232
6610,3.6655040,9.9933472,2.3391230,-4.2748094,-3.6717558,-0.0916031,-5.5832496,9.9406748,-0.0814024,16.0381680,53.8473282,61.9465637
6620,3.1914546,9.8520899,2.1667414,-2.9083970,-8.0992365,-0.4274809,-5.6550756,8.2384062,-1.1994889,-4.8396945,43.6870232,58.4809151
6630,3.0861101,9.8185711,2.1116750,-2.3129771,-10.1755724,-1.2824427,-5.4587522,7.6853480,-1.2569494,-20.7938938,34.0916023,58.7862587
6640,2.9640064,9.6677370,2.0518203,-1.3129771,-11.0610685,-2.3129771,-4.9847026,8.9949694,-0.7493813,-30.2137413,18.9618320,57.5419846
6650,2.7461352,9.6390066,2.1212518,-0.0534351,-10.3358774,-2.8091602,-4.5920553,9.6725254,0.0263361,-32.5267181,0.6488550,51.4961815
6660,2.4708035,9.4833841,2.0685797,0.7251908,-8.6412210,-3.0534351,-4.2855992,7.6494355,0.3663110,-36.1374054,-11.2519083,45.7404594
6670,2.2242019,9.4594421,2.0039365,0.8473282,-7.3358779,-2.0458016,-4.1299767,6.1003947,0.9480990,-39.4656487,-15.9389315,41.7557259
6680,2.1739240,9.3445215,1.8985922,0.8167939,-6.1984735,-0.9465649,-4.1443419,5.6502872,2.1978660,-35.5190849,-14.1832066,41.4961815
6690,2.0470319,9.4091644,1.9776005,1.3282443,-4.7328243,0.1908397,-3.9288650,5.6526814,3.0238612,-28.1450386,-2.3511450,39.3129768
6700,1.8985922,9.4211359,1.9656296,2.0916030,-3.3206108,1.0992366,-3.8905578,5.2432747,3.2967989,-21.0916023,9.0534353,34.5572510
6710,1.9177457,9.5121145,1.9416877,2.4427481,-2.6488550,1.1526718,-3.8402798,5.4060798,3.6319854,-16.9465656,10.5419846,29.2442741
6720,1.9153515,9.4498653,1.8435259,2.0381680,-0.4427481,0.6946565,-4.1012464,5.4779053,3.7157819,-15.4274807,3.8244274,22.2519093
6730,1.6663558,9.4570484,1.8076130,-0.2442748,5.2748094,-1.0916030,-4.3813667,5.9711084,3.6631098,-15.5725193,-31.9312973,11.7480917
6740,1.4149660,9.4666252,1.8866212,-2.9694657,13.1221371,-1.4961832,-4.6088147,6.9886389,3.1507533,-16.2824421,-61.2442741,-2.0916030
6750,1.3862357,9.4881725,1.8746504,-4.7404580,18.3435116,-1.0992366,-4.4747400,7.4986014,2.9304879,-18.1832066,-62.6488533,-7.4656487
6760,1.3790531,9.5743637,1.8961980,-5.7175574,22.0992374,-0.8396947,-4.8195033,7.9080076,2.9520357,-18.3358784,-54.4274826,-10.3206110
6770,1.4460905,9.4809904,2.0326669,-5.9618320,22.4274807,-0.3053435,-5.4563580,7.9918046,2.9879484,-18.0152664,-40.2366409,-12.0763359
6780,1.6160779,9.2990322,2.2218077,-5.0916033,18.7480907,0.3053435,-6.2655940,8.1043310,3.3782012,-17.4885502,-25.0610695,-10.2824430
6790,1.8004304,9.1027079,2.3247581,-3.1908398,12.4427481,2.1603053,-7.2472115,8.4083929,3.8618276,-15.3511448,-20.2290077,-4.7557254
6800,2.2170193,9.1266499,2.6120608,-0.8015267,5.4503818,4.1603055,-7.6542239,8.5472565,4.1323709,-13.1984730,-22.9847336,1.6488550
6810,2.8203552,9.1098909,2.7628946,2.0458016,-0.5267175,5.5496182,-7.6973190,8.6190825,4.3909435,-11.0992365,-29.6488552,9.0687027
6820,3.4619980,9.0979195,2.8035958,3.7633588,-4.5038166,5.3358779,-7.2400289,8.5209198,4.4484038,-7.4885497,-30.6793900,12.7175570
6830,3.9192882,8.9422979,2.7317703,4.4427481,-7.1755724,4.0076337,-6.7851329,7.9774394,4.3310885,-2.2519083,-24.1374054,14.0839691
6840,4.4124913,8.7699156,2.5522060,4.6641221,-8.8396950,2.8702290,-6.5816269,7.6422529,4.2927818,3.8625953,-14.8702288,14.0839691
6850,4.5968437,8.5448618,2.5091105,4.1221375,-9.6870232,1.4732825,-6.3517847,7.2232695,3.9168940,9.5572519,-11.2671757,13.7938929
6860,4.5681133,8.1617918,2.4995339,3.5343511,-9.5190840,0.9541985,-6.0022330,7.0245519,3.5984666,12.9312973,-11.1832066,12.7022905
6870,4.8578105,8.0013809,2.2289903,3.2824428,-8.3129768,1.4503816,-5.7292953,6.9096308,2.9735832,12.5267172,-14.3282442,12.7480917
6880,4.8602047,7.8457589,2.3319404,4.7862597,-6.3053436,2.5877862,-5.0565281,6.8928714,2.6599445,10.1068707,-15.4274807,15.2671757
6890,4.8458395,8.0516596,1.9153515,6.8931298,-2.8931298,3.5954199,-4.3741841,6.8832946,2.3989778,6.9541984,-13.6946564,14.3435116
6900,4.8386569,8.4012108,1.1180865,7.3206105,1.8778626,2.8244274,-3.8737986,6.8234401,2.1188576,3.5038168,-10.2748089,9.9083967
6910,4.5106530,8.5688038,0.3806761,4.3664122,8.9923668,0.4732825,-3.6726866,6.9096308,2.1906834,0.5954198,-10.3587790,4.5954199
6920,4.0868812,8.7723103,-0.3447633,-1.7862595,15.8854961,-2.8015268,-3.7780309,7.0389171,2.0661855,-3.1908398,-13.4045801,-0.3893130
6930,3.3997490,8.9327211,-0.6560079,-9.6488552,21.0305347,-6.3893127,-3.4979107,7.1394730,2.0398495,-7.8625956,-19.5572510,-5.0076337
6940,2.5067163,9.0332766,-0.7829000,-17.0687027,23.6030540,-8.5114508,-3.3327117,7.2160869,1.8890154,-12.5877867,-26.0916023,-10.4732828
6950,1.7740943,9.1170731,-0.6392486,-23.7099228,21.1832066,-8.0305347,-3.4189026,7.3645267,1.8267666,-15.7099237,-23.2137413,-14.6946564
6960,1.0582317,9.0332766,-0.0646431,-26.9618320,14.6564884,-4.2671757,-3.7349355,7.6685886,1.9704180,-17.1145039,-13.9083967,-18.1984730
6970,0.5746055,9.1051025,0.4716553,-25.5877857,4.5648856,1.9618320,-4.0509686,8.0971489,2.2936335,-16.8244267,-8.2061071,-20.5496178
6980,0.5674229,9.2080526,1.0247130,-21.8778629,-8.2213745,8.6870232,-3.9743545,8.4251528,2.3870070,-17.8320618,-9.0610685,-27.1221371
6990,0.9672526,9.4019823,1.5155219,-16.5954189,-19.8778629,14.3816795,-4.2257442,8.4658537,2.6575503,-21.5419846,-10.1832066,-33.6641235
7000,1.5227045,9.6821022,1.8746504,-11.6030531,-29.5190830,18.3740463,-4.3909435,8.4969788,2.9424589,-24.1984730,-8.0229006,-39.5648842
7010,1.9847831,9.9215212,2.0326669,-9.2290077,-33.7251892,19.6183205,-4.3574247,8.8177996,3.0382264,-22.1450386,-3.9770992,-45.0305328
7020,2.5498118,10.0699606,1.9321109,-10.1755724,-30.6793900,18.8015270,-4.8171091,9.2942438,3.2632802,-16.4503822,-4.3129773,-51.9694672
7030,2.9400647,10.0508070,2.1906834,-13.9007635,-23.0076332,16.3587780,-5.4012914,10.1896706,3.5338237,-8.2290077,-7.7175574,-52.6106873
7040,3.1842721,10.0819321,2.5522060,-17.8625946,-13.5877867,12.9847326,-5.2313042,11.1641054,3.5122759,-1.3893130,-11.0763359,-52.7862587
7050,3.3207407,9.7587166,3.0262554,-20.0152664,-6.3358779,9.5114508,-4.8745699,11.9757357,3.4667864,8.6106873,-19.1450386,-56.1297722
7060,3.3207407,9.4809904,3.5170643,-19.7938938,-1.8167939,6.6641221,-4.7165532,12.9310169,2.7940190,20.7709923,-20.6259537,-57.9923668
7070,3.3398943,9.4139528,3.8283088,-17.5114498,0.6717557,4.9236641,-3.8857694,14.2166967,1.6879035,30.8549614,-25.7786255,-60.0534363
7080,3.3135581,9.2990322,4.0126615,-14.6641226,3.5190840,3.3053436,-2.4444675,14.5949793,-1.2808913,30.0458012,-50.4809151,-66.5648880
7090,3.2153964,9.1697454,4.1874375,-10.7022905,6.8396945,2.1603053,-0.7062859,14.3124647,-4.0461802,11.7175570,-75.5572510,-81.6870193
7100,3.0861101,9.1098909,4.2520804,-6.7709923,10.8625956,1.7175573,0.0574605,14.2190914,-5.5856438,-19.0687027,-88.8702316,-101.8549652
7110,2.9616125,8.9710283,4.0366035,-2.4732823,15.3053436,1.8167939,-0.1795642,14.1807842,-4.9751258,-52.9694672,-85.3969498,-122.6106873
7120,2.8323262,8.8848372,3.8450682,1.7251909,19.0610695,2.6717558,-1.2880739,14.2358503,-2.7078283,-78.7709961,-67.1603088,-132.8473358
7130,2.7820482,8.9159613,3.5529771,4.0992365,20.9618320,3.6946564,-2.6455793,14.4393568,0.4836263,-88.8091583,-41.8931313,-132.9465637
7140,2.7605004,8.9782104,3.2991931,6.0381680,22.0381680,4.3435116,-3.6295912,14.8703108,3.2728570,-84.9465637,-5.3435116,-124.9770966
7150,2.7365584,9.0907373,2.9783716,8.2213745,22.3969460,4.5648856,-4.8027439,15.3371773,5.1331420,-71.3816757,36.6335869,-110.8244247
7160,2.7748656,9.1242561,2.7197993,9.7557249,22.9007626,4.4580154,-3.6439564,15.7082767,5.4276276,-46.9847336,72.6412201,-95.8396912
7170,2.8035958,9.2487535,2.5498118,9.9160309,24.6259537,3.4580152,-1.9464760,15.6029329,3.8235207,-26.6946564,114.1908417,-88.6641235
7180,2.8012016,9.3110027,2.3175755,8.5725193,29.2213745,1.7557251,-0.5817881,14.1879663,2.3175755,-15.2213745,157.8625946,-92.6259537
7190,2.7054341,9.2846670,2.0422437,6.4427481,33.5725174,-0.4809160,0.4932030,12.1337519,1.2832855,-5.5267177,197.2748108,-106.4122162
7200,2.5737536,9.2631187,2.0063307,3.6335878,38.3206100,-2.4656489,-0.4596844,9.8856087,-0.0766141,3.7328243,213.0992432,-127.8473282
7210,2.4636209,9.2272062,1.9895715,1.3206106,41.6946564,-4.3053436,-0.4668669,7.6805596,-2.1260402,0.1450382,191.6259613,-154.0000000
7220,2.2433555,9.1721401,1.9464760,0.0687023,42.3969460,-5.6259542,-0.9265513,4.2281384,-4.0270267,-16.8244267,147.7480927,-185.4656525
7230,2.1451938,8.9925756,1.9847831,-0.8854962,43.5954208,-6.0916033,-1.6519908,0.8451489,-5.3294659,-40.4961815,101.1603088,-214.5114441
7240,1.9823889,8.8225880,1.9632354,-1.8091604,43.1297722,-5.4656487,-4.5657191,-2.6240315,-6.3398137,-64.5877838,62.0610695,-234.0763397
7250,4.9416070,7.7571740,2.0422437,-0.5801527,-1.2824427,-4.3816795,-4.5657191,8.7938576,2.3654592,-25.8320618,34.0992355,55.5954208
7260,3.0861101,7.9989872,1.2138541,-17.5954189,28.2671757,-8.8702288,-3.1124463,8.5831690,-1.4077834,-3.9541984,-28.7480907,-1.9618320
7270,2.4013720,8.0756006,1.0318956,-21.6183205,33.1832047,-7.7938933,-4.0940638,9.0811605,-2.5522060,-12.0076332,-39.6564903,-15.1603050
7280,1.9321109,8.1929159,1.1611819,-24.3969460,34.0610695,-5.3206105,-5.4563580,9.6342182,-2.7988074,-24.8702297,-42.9465637,-21.2748089
7290,1.4101776,8.2862902,1.3455344,-24.9465656,28.8931293,-1.8396946,-6.7540083,10.2926207,-1.7142396,-38.6030540,-42.3816795,-18.6870232
7300,1.1779412,8.4227581,1.6448082,-23.5343513,18.3511448,2.2061069,-7.7906923,10.6206245,-0.2657550,-45.0839691,-44.3358765,-10.1908398
7310,1.1683644,8.6071110,1.9368993,-19.9389305,5.4274807,6.2290077,-7.6542239,10.2447367,0.5051740,-41.5572510,-47.9083977,-0.1374046
7320,1.3096216,8.7962523,2.1667414,-15.6641226,-8.5343513,9.9847326,-6.6893654,9.6844959,0.6488253,-33.5648842,-45.1832047,3.8778627
7330,1.4484847,9.0644016,2.3367288,-11.8015270,-20.3664131,13.4885492,-5.9663200,9.3133974,0.2729376,-26.2748089,-36.5725174,3.3129771
7340,1.9129574,9.1817169,2.4540441,-9.9083967,-26.7099228,16.4045811,-5.9016771,9.2176294,0.1221037,-20.2748089,-24.4732819,1.2366412
7350,2.4181314,9.3756456,2.5282640,-10.5572519,-25.9083977,18.1603050,-6.3805151,9.6414013,-0.0023942,-14.4732828,-13.7557249,1.2519084
7360,2.7245877,9.4498653,2.5785420,-13.2595415,-21.6793900,18.7022896,-6.7180958,9.9574337,0.0287303,-9.7633591,-8.2442751,4.3587785
7370,3.0430148,9.4666252,2.8538737,-17.1908398,-16.0076332,18.9847336,-6.4379754,9.8664551,-0.3136388,-6.4122138,-5.0916033,5.4427481
7380,3.2249732,9.3876171,3.1315999,-20.8625946,-11.3664122,18.4580154,-6.0692701,9.8329363,-0.2274480,-5.3969464,-2.1526718,4.1145039
7390,3.4907281,9.1745338,3.5960727,-22.1450386,-8.2977095,17.8702297,-5.9806852,9.8903971,0.0047884,-5.6335878,0.4809160,1.7786260
7400,3.5242469,9.0165176,4.0581512,-21.6335869,-7.4809160,16.9541988,-6.2464404,9.9574337,0.6847382,-4.2595420,-1.5267175,-1.1832061
7410,3.7277529,8.8225880,4.3478479,-19.9236641,-7.2519083,16.5725193,-6.3972740,10.1106625,0.9265513,1.1221374,-8.4961834,-2.5954199
7420,3.7469065,8.7603388,4.5058646,-17.1221371,-7.6259542,15.9007635,-6.2608056,10.0627785,0.5746055,7.1755724,-14.3664122,-3.2366412
7430,3.7588775,8.7579451,4.5920553,-14.0992365,-6.0076337,15.4503813,-5.7245069,10.0771437,-0.1628049,9.6946564,-16.3969460,-4.4961834
7440,3.6607156,8.7292147,4.5034704,-10.7633591,-3.4656489,14.9465647,-5.4994531,10.0891142,-0.4788379,9.5648851,-11.7404585,-4.3206105
7450,3.4835455,8.7627335,4.3909435,-8.6793890,-0.3053435,14.8854961,-4.9535780,10.5559816,-0.5937590,9.0916033,-2.0076337,-2.2900763
7460,3.3829896,8.8345594,4.2688398,-7.0839696,3.4427481,14.5572519,-4.4555864,10.8791971,-0.2705434,11.8244276,12.2213745,-1.1679389
7470,3.3087699,8.8632889,4.1036406,-6.4732823,6.0992365,14.0152674,-3.6439564,11.4226780,-0.4189832,19.0152664,23.7557259,-0.1145038
7480,3.2201848,8.9039907,4.0653338,-5.3969464,6.9847326,13.4503813,-2.7652888,12.1193867,-0.9528874,26.7786255,26.8015270,-2.9083970
7490,3.0908985,8.8369532,4.1539187,-3.8778627,6.6030536,13.4427481,-1.6041069,12.9310169,-2.0087249,33.0076332,20.8396950,-10.6946564
7500,3.0837159,8.8441362,4.1994085,-1.6412214,5.0992365,13.0839691,-0.5410868,13.3763361,-3.5625539,34.3893127,5.9770994,-25.8396950
7510,3.1435707,8.8968077,4.0892754,1.0534351,3.1221373,13.1603050,-0.3615226,13.7809544,-4.4388270,28.6870232,-18.5648861,-48.5343513
7520,3.0454090,8.8800488,4.0844874,2.7328243,1.4961832,12.8702288,-1.1923064,14.3100700,-5.0254035,16.2977104,-40.5419846,-68.5419846
7530,3.2417326,8.8537130,4.0533628,3.6335878,1.4809160,12.6412210,-2.7892308,15.6915178,-4.2281384,2.0610688,-34.9541969,-77.6412201
7540,3.2920105,8.8489246,4.1060348,4.2900763,2.4427481,12.1297712,-4.8434453,16.9101601,-2.3534882,-4.9465647,-8.2519083,-69.7709961
7550,3.4572096,8.8177996,4.0533628,4.7099237,4.2137403,12.1297712,-5.2169390,17.6212349,-0.9504932,-1.4580153,29.1679382,-52.0687027
7560,3.5817075,8.7914639,4.0581512,5.2595420,7.0839696,11.0992365,-1.3862357,16.8359394,-1.2234308,7.2366414,107.9618301,-28.9541988
7570,3.8163381,8.8561068,3.9911139,5.8091602,9.8625956,8.9541988,1.6759326,15.0786057,-1.5418580,6.7938933,141.4503784,-54.2519073
7580,3.8522508,8.7890692,4.0078731,5.2442746,12.2213745,6.3511453,3.6774750,11.1641054,-2.1739240,6.9847326,121.9923630,-103.6183243
7590,4.0054789,8.8321648,4.0318151,5.9618320,13.0305347,3.9847329,1.7645177,5.5856438,-3.1459649,0.1679389,74.3664093,-161.8244324
7600,4.0126615,8.6909075,3.9432299,6.2671757,12.8396950,2.8549619,-2.2218077,2.9496415,-3.7660601,-5.7557254,32.9007645,-170.8167877
7610,4.0246325,8.6885138,4.0126615,7.8396945,12.4045801,2.0610688,-5.4563580,-0.2370248,-4.4891052,-14.4274807,-8.3893127,-161.2366486
7620,4.0270267,8.6502066,3.8402798,8.9923668,10.3816795,1.4503816,-8.6980906,-4.9392128,-4.9487896,-22.2977104,-44.7557259,-140.7786255
7630,4.1251884,8.7340031,3.7636659,8.8702288,10.5954199,1.3206106,-11.5639353,-10.7092094,-6.1841912,-30.5572510,-91.6183243,-118.6488571
7640,4.2161674,8.7435799,3.8618276,10.0992365,10.4656487,1.1679389,-12.1672707,-16.7689037,-7.5919747,-48.2748108,-151.2442780,-105.5572510
7650,4.1874375,8.7651272,3.5960727,10.2137403,10.8244276,0.7099237,-11.5423870,-19.6131992,-8.0396881,-74.0687027,-188.8931274,-109.8931274
7660,4.1802549,8.7603388,3.3662305,9.6335878,12.1221371,-0.0229008,-9.9382801,-19.6131992,-7.5081782,-98.3435135,-187.6183167,-134.8015289
7670,4.1491303,8.8010406,3.3231349,9.7709923,11.6412210,-0.6793893,-5.9328012,-19.6131992,-7.1969333,-119.5572510,-98.2900772,-187.9084015
7680,4.0485744,8.7172441,3.2010312,10.2213745,9.9770994,-1.3893130,-6.2943239,-19.6131992,-4.8769641,-139.4809113,76.1679382,-249.2519073
7690,4.0413918,8.7435799,3.0118904,10.1755724,8.8244276,-1.4198474,-15.0570574,-17.1663380,0.6033357,-149.9160309,250.1297760,-250.1374054
7700,4.0749106,8.6909075,2.9233053,10.1145039,7.7633586,-2.1679389,-19.6131992,-12.5958309,6.8282285,-141.1984711,250.1297760,-250.1374054
7710,3.9671719,8.7196379,2.8131726,10.0839691,6.0687022,-2.4580152,-19.6131992,-7.9127960,12.6413202,-119.2748108,250.1297760,-214.6564941
7720,4.0509686,8.5927458,2.8012016,9.9160309,4.6717558,-3.1221373,-19.6131992,-2.6934631,16.3547077,-85.1679382,164.8396912,-117.6259537
7730,3.9719603,8.8321648,2.6288199,9.2977095,4.2442746,-3.9541984,-19.6131992,-1.2641320,17.1519737,7.8320613,-118.7557220,121.4198456
7740,3.8163381,8.7555504,2.6407909,8.5725193,4.3053436,-3.8244274,-19.6131992,-5.8968887,12.5407648,70.2748108,-197.5725250,209.1374054
7750,3.7876077,8.8154058,2.7293761,7.7862597,3.1679389,-3.2671757,-13.1824074,-10.5918941,5.5186067,126.7633591,-214.4427490,245.3053436
7760,3.8211265,8.7651272,2.7748656,7.6641221,1.4198474,-2.8244274,-3.7469065,-12.4473906,-1.5107336,158.6641235,-180.9770966,230.3358765
7770,3.9767487,8.7555504,2.9256995,8.0763359,-1.1908396,-2.2671757,0.6081241,-11.7387114,-6.5361371,158.1374054,-118.0534363,187.2137451
7780,3.9049230,8.7483683,2.9041519,9.4351149,-4.1450381,-2.0305343,-0.1364688,-9.7036495,-8.5520449,134.1221313,-56.5572510,143.7862549
7790,4.1251884,8.7148495,2.9472473,10.4732828,-6.7099237,-2.0763359,-2.9400647,-7.2304521,-7.9008250,101.2671738,-34.0152664,115.5725174
7800,4.1275826,8.7340031,3.0071020,10.7938929,-7.8778625,-2.5801528,-5.5688848,-5.0708933,-6.1554613,71.3358765,-56.0152664,100.7328262
7810,4.1539187,8.7555504,2.8012016,9.8396950,-7.9389315,-3.4656489,-7.5440907,-4.0509686,-3.8953462,50.9389305,-92.9923630,96.2519073
7820,4.1395535,8.6693602,2.8849983,8.5725193,-8.0534353,-4.2137403,-7.7547798,-2.9664006,-2.1356170,42.2366409,-131.7328186,93.5038147
7830,4.1515245,8.5448618,2.9424589,7.3740458,-7.8473282,-5.1755724,-7.2735476,-2.2505381,-1.5873476,40.4580154,-154.6335907,89.3435135
7840,4.0916696,8.4897957,3.0885043,7.0916033,-8.0534353,-5.9923663,-6.5074067,-1.8531027,-1.1324517,44.7480927,-152.0305328,79.5190811
7850,3.9432299,8.3269911,3.1459649,7.3206105,-7.7175574,-6.4732823,-6.8354111,-0.6799498,-1.1444225,55.3587799,-131.2137451,67.1984711
7860,3.8642218,8.2431946,3.1770895,7.3664122,-7.8015265,-6.6335878,-8.3509331,0.8786675,-1.5059452,65.7404556,-101.0916061,60.6946564
7870,3.7181761,8.0756006,3.0118904,7.4427481,-7.1984735,-6.4274807,-9.5695753,2.4157372,-1.8171898,69.9236679,-64.1145020,67.1450348
7880,3.5673423,8.0564480,3.0645626,6.7480917,-6.2442746,-6.0305343,-10.3692341,3.1531475,-1.8004304,71.8396912,-39.0305328,78.5648880
7890,3.4979107,7.8960366,2.9352763,5.7022901,-5.7709923,-5.6335878,-9.7802639,4.3885493,-2.1882892,71.2671738,-46.0458031,86.8396912
7900,3.3470769,7.8074517,2.7772598,4.7480917,-5.0992365,-4.8625956,-8.2743187,5.7245069,-3.3949606,61.9923668,-73.2366409,88.1526718
7910,3.2991931,7.7380204,2.8442972,3.8778627,-5.5114503,-4.1068702,-7.1011658,6.4236102,-4.5609307,41.3435097,-88.9770966,87.5419846
7920,3.2225790,7.7260494,2.7006457,3.1068702,-5.7862597,-4.0152674,-5.7556314,7.1298962,-4.3334827,16.8167934,-93.5877838,86.0000000
7930,2.8059900,7.7906923,2.2672975,0.4274809,-9.4274807,2.9007633,-6.7803445,7.6590118,0.6607963,5.9083967,-33.0992355,71.7633591
7940,3.8570392,8.0899658,2.4037662,-3.6106870,-25.9770985,13.5954199,-7.0772243,12.7418766,0.7134684,-6.5496182,-119.5801544,37.1297722
7950,4.1802549,8.2168579,2.2960277,-5.3358779,-31.2671757,14.1603050,-7.1179252,12.6317434,1.3287752,-4.9541984,-111.8473282,35.4198456
7960,4.4029145,8.2886839,2.5186872,-6.8778625,-35.7786255,13.4656487,-7.5105724,11.8656025,1.9752063,4.8854961,-76.8549652,34.5725174
7970,4.7907729,8.2886839,2.1308286,-10.0076332,-38.1755714,12.1221371,-8.5400734,12.0906563,2.4085546,21.3435116,-32.4885483,37.2519073
7980,4.8458395,8.3652983,2.1978660,-14.6717558,-38.5496178,10.0534353,-9.3924055,12.0930510,2.2218077,39.1297722,1.1755725,46.2748108
7990,5.0325861,8.3413563,2.5857246,-18.6793900,-38.4198456,7.8778625,-9.8161764,11.6620970,1.3048333,50.8625946,20.8778629,56.2977104
8000,5.1259594,8.3676920,2.7341642,-21.8702297,-36.4427490,5.3816795,-9.4929609,11.3580351,0.3016679,55.1297722,26.8549614,67.8778610
8010,5.1211715,8.3964224,2.8155668,-23.3664131,-32.6335869,4.0381680,-7.2831244,10.5224628,-0.1843526,55.5419846,27.6717548,71.9007645
8020,4.9823084,8.6023226,2.7652888,-24.8015270,-27.6870232,3.1145039,-4.2305326,10.0316534,0.5075682,63.1450386,26.5343513,58.6412201
8030,4.8913293,8.7100611,2.6934631,-26.5190830,-22.3511448,3.1832061,-6.1817970,9.5288744,-1.2497669,61.8473282,35.4503822,48.7404594
8040,4.7428894,8.8585014,2.6383967,-28.4503822,-19.5267181,3.1526718,-5.4515696,8.7651272,-1.2258250,57.2442741,38.3969460,38.6030540
8050,4.6471219,8.9638453,2.7892308,-29.3358784,-21.9236641,3.1984732,-6.2823529,8.3988171,-1.3503228,50.9465637,34.4045792,26.1679382
8060,4.7644372,8.9542685,2.9975252,-29.1068707,-27.7633591,2.6564887,-7.4890246,8.4730368,-1.1755470,43.1603050,21.2213745,19.6793900
8070,4.9320302,9.0141230,3.2824337,-27.5801525,-33.6564903,1.8167939,-8.1282730,8.1450329,-0.7829000,36.6335869,7.1908398,18.6793900
8080,4.9870968,9.0739784,3.3758070,-26.0458012,-37.6412201,-0.1068702,-8.5400734,7.7882981,-0.5410868,33.6259537,-6.5877862,22.9083977
8090,5.0301919,9.2224178,3.4763632,-24.8320618,-37.4274826,-1.9312977,-8.3293848,7.4028339,-0.5267217,32.1679382,-15.6183205,29.4122143
8100,4.9009056,9.2463598,3.3710186,-24.8396950,-33.6335869,-3.8244274,-7.6685886,6.8186517,-0.7493813,29.7480907,-17.0305347,36.1374054
8110,4.6950054,9.3325500,3.3614421,-25.5954189,-29.0229015,-5.5114503,-6.8880830,6.4738884,-0.9145803,26.9847336,-12.9847326,41.7251892
8120,4.4388270,9.3133974,3.4572096,-26.0839691,-25.9236641,-7.2748094,-6.1195483,5.8011212,-0.8810617,22.9770985,-4.4656487,43.9312973
8130,4.1036406,9.3301563,3.7708483,-24.4885502,-25.2290077,-8.6564884,-5.7987270,5.4372044,-0.8451489,17.2595425,5.2748094,43.8702278
8140,3.7947903,9.2415714,3.9767487,-21.2366409,-27.4503822,-9.0000000,-5.6239510,5.3055239,-0.5315101,11.6183205,15.5496187,45.0228996
8150,3.5505829,9.1481981,3.9743545,-16.9312973,-30.0381680,-8.4351149,-5.4395986,5.2169390,-0.1484398,7.6946564,21.6412220,47.2213745
8160,3.3805954,9.1601686,3.8187323,-12.4274807,-32.6259537,-7.1221375,-5.2887645,4.9224534,0.4237715,4.1755724,24.5725193,49.1068687
8170,3.0837159,9.3253679,3.0765336,-3.7022901,-33.7938919,-4.4122138,-3.6918402,4.3622131,1.7429699,5.4809160,7.4503818,47.4503822
8180,2.9783716,9.5528164,2.5641768,-4.3206105,-33.4198456,-8.1450386,-2.7964132,4.3502421,1.6926919,10.6488552,-13.2900763,32.7251892
8190,3.0118904,9.6366129,2.4085546,-6.8702292,-34.2366409,-10.6412210,-2.4755919,4.5130472,1.3048333,13.3816795,-21.8549614,24.1679382
8200,3.0334380,9.6916790,2.7365584,-9.7709923,-35.2137413,-14.1221371,-2.3103929,4.8985114,0.6943150,13.7099237,-27.3282452,15.7328243
8210,2.8514795,9.5264797,3.1363883,-10.4809160,-35.3129768,-16.8396950,-2.4444675,5.2528515,0.2418131,12.9312973,-30.5267181,9.4885492
8220,2.8419030,9.4618368,3.4284792,-10.2748089,-35.3969460,-18.6030540,-2.8921809,5.5736732,-0.3447633,11.2061071,-30.3435116,5.1832061
8230,2.7820482,9.3062143,3.6008608,-9.3511448,-35.3511467,-18.9770985,-3.4428444,5.9040713,-0.8283895,7.9847326,-28.2366409,4.2824426
8240,2.8107784,9.0835552,3.7062054,-9.0839691,-35.8091621,-18.0992374,-3.8881636,6.1099715,-1.1468167,2.5496182,-24.1679382,5.6030536
8250,2.9304879,8.7818871,4.0820932,-8.0763359,-35.7022896,-16.3893127,-4.1227942,6.2608056,-1.3263810,-4.8473282,-20.5038166,5.9618320
8260,3.0693510,8.3605099,4.3454537,-4.1450381,-36.3664131,-14.0000000,-4.2999644,6.3015065,-1.0869620,-12.2061071,-18.5954189,5.3893127
8270,3.3375001,7.8553357,4.5513539,1.7099236,-40.6717567,-9.9618320,-4.5561423,6.4044566,-0.8259954,-16.8473282,-18.6717548,4.5190840
8280,3.7636659,7.3525558,4.6686692,10.3206110,-47.9160309,-5.6183205,-4.9032998,6.5576849,-0.4501076,-19.5190830,-19.0839691,2.5038168
8290,4.3670015,7.0676475,4.6830344,20.4961834,-55.9083977,-1.5877863,-5.1977854,6.6031747,-0.2513899,-21.3511448,-20.0610695,1.2671756
8300,4.8937230,6.9527264,4.1132174,30.1908398,-59.8931313,0.6030535,-5.2528515,6.9599090,-0.0981618,-22.4427490,-19.9465656,-1.1145039
8310,5.1906028,6.9766679,3.2704628,36.5954208,-55.9465637,2.5725191,-5.2456689,7.3980455,-0.1125269,-22.9694653,-17.9694653,-1.9847329
8320,5.4300218,7.1993275,2.4684093,36.8854980,-43.3816795,3.4351146,-5.3581958,7.6470413,-0.0239419,-23.5877857,-10.9160309,-3.9694657
8330,5.2289100,7.4866304,1.6663558,33.8167953,-24.6946564,2.0839694,-6.0165982,7.9343438,0.0311245,-23.3511448,-1.1221374,-3.7862597
8340,4.9463954,7.6614060,0.2178712,24.9541988,2.1145039,-0.3358779,-6.7444315,8.3078375,0.0478838,-22.8320618,3.2442749,-0.7557252
8350,3.3853838,8.2000990,-1.0486550,-5.3358779,41.7786255,-4.0000000,-5.8657641,8.8800488,0.2825144,-21.3053436,-1.5114504,5.5801525
8360,2.7844424,8.3748751,-0.8331779,-20.0763359,49.8549614,-5.0763359,-4.2784166,9.3708572,0.3663110,-18.7557259,-1.1068702,0.1755725
8370,2.1284344,8.3581152,-0.6584021,-32.5190849,48.2824440,-5.1526718,-3.2417326,10.0508070,0.6464311,-14.5725193,0.8702290,-9.5267172
8380,1.6208663,8.2479830,0.0119709,-39.6488533,38.7709923,-3.2977099,-2.6240315,10.8265247,1.2162483,-6.0763359,-1.3587786,-20.1145039
8390,1.2162483,8.2024927,0.7398046,-40.6870232,21.9160309,2.2671757,-2.0901275,11.6597023,1.2976507,7.6259542,-4.6564884,-31.5267181
8400,1.2593436,8.2192526,1.6424140,-36.3435097,1.4656489,10.4274807,-1.6735384,12.0667152,0.9073978,23.3129768,-1.7328244,-43.2290077
8410,1.4891858,8.3772688,2.3056045,-28.5038166,-16.3893127,19.5267181,-1.6543850,12.6820211,-0.0742199,36.8778610,4.8549619,-55.9847336
8420,1.9752063,8.8872309,2.5306582,-19.8702297,-30.6488552,27.4809170,-2.2337787,13.0579090,-1.0295014,46.4961815,8.9007635,-66.6641235
8430,2.8155668,9.4283180,2.6144550,-14.7938929,-36.9771004,32.9312973,-2.2888451,13.6181498,-2.4061604,52.0381660,11.3129768,-75.7633591
8440,3.5553713,10.0125008,2.5091105,-13.9465647,-35.7099228,35.0610695,-2.2289903,13.9054527,-3.7445123,52.0076332,14.5343513,-82.6641235
8450,4.1850433,10.3237448,2.7676830,-16.2977104,-29.6335869,34.6183205,-1.8291607,14.4010496,-5.2001796,47.0916023,17.8244267,-88.9770966
8460,4.9559722,10.5727406,3.2848279,-19.0534344,-23.1526718,30.8549614,-1.6136837,14.1783895,-6.4762826,36.3053436,24.5496178,-94.7480927
8470,5.4874821,10.6637201,3.9384418,-19.6030540,-16.0076332,23.2213745,-1.0654143,14.1281118,-6.5313487,24.7175579,40.8549614,-100.1984711
8480,5.8442163,10.6732969,4.6734576,-16.7786255,-9.5954199,14.0305347,-0.1436514,13.6923695,-6.0453281,17.7099228,67.0534363,-105.3969498
8490,5.8753409,10.4865494,5.0948353,-11.8473282,-4.3969464,5.0000000,1.1420283,13.0267849,-4.8865409,18.6183205,102.0916061,-115.0916061
8500,5.7364779,10.3644457,5.1953912,-6.5725193,-1.8625954,-2.6641221,2.2960277,12.4258432,-4.1970143,28.1221371,142.7938995,-132.9465637
8510,5.5497313,10.1250277,5.2959471,-1.7404580,0.4809160,-8.7709923,2.0757623,11.7506819,-3.8929520,43.4809151,183.0839691,-152.0229034
8520,5.2073622,9.7132263,5.2121506,3.2824428,1.4427481,-12.9923668,1.5370697,11.2862091,-4.6327567,56.9236641,204.8091583,-170.2442780
8530,5.1068063,9.3756456,5.2432747,8.9160309,1.7404580,-16.0000000,1.0797794,10.5942879,-5.3174949,58.6717567,211.8625946,-187.0229034
8540,4.8099265,9.1434097,5.2959471,15.7175570,2.0916030,-18.0534344,-0.7613522,9.7994175,-5.9112539,54.5801544,204.9694672,-202.9160309
8550,4.6231799,8.9997578,4.9751258,22.2290077,3.4580152,-19.0381680,-4.1204000,9.5312681,-7.5201492,43.7557259,167.8778687,-211.9694672
8560,4.4819226,8.8010406,4.6207857,26.8625946,6.2671757,-19.2900772,-6.8449879,8.8824425,-9.8185711,11.1450386,105.7022934,-208.5648804
8570,4.4484038,8.7316093,4.3334827,30.0839691,10.6335878,-19.7862587,-7.5895805,6.5313487,-10.9749641,-43.4045792,27.8931293,-199.8778687
8580,4.1994085,8.6549950,3.8115497,32.0839691,14.8854961,-20.3664131,-7.0413113,3.1411765,-10.2591019,-99.6106873,-41.4656487,-195.6030579
8590,4.1347651,8.5999289,3.3877780,32.0763359,17.7022896,-21.3282452,-6.7276726,-0.4620786,-8.4371233,-134.1221313,-73.1679382,-191.4503784
8600,4.0389977,8.5520449,3.1244173,30.4885502,20.0458012,-23.1679382,-6.9359670,-4.3263001,-7.2687593,-146.4656525,-57.0610695,-182.4274750
8610,3.9432299,8.4682484,3.0382264,28.6412220,22.1221371,-25.6641216,-8.4778252,-8.2144642,-5.4611464,-138.3435059,7.5496182,-168.6488495
8620,3.8690102,8.3605099,2.9256995,27.6030540,24.3664131,-29.1297703,-11.0755205,-11.5735121,-3.4643922,-111.5114517,86.7709961,-152.4274750
8630,3.6080434,8.1785507,2.7269819,26.2213745,27.3435116,-32.1450386,-13.7115231,-14.8727045,-2.4755919,-85.7251892,139.6030579,-140.9084015
8640,3.2848279,8.0636301,2.5713594,23.9007626,32.0152664,-34.3587799,-15.1001530,-17.6116581,-3.0190730,-88.1374054,123.3816757,-144.4503784
8650,2.9640064,7.8026633,2.3151813,21.0458012,37.3893127,-36.0687027,-16.4552650,-19.2061882,-3.6200144,-126.3129807,68.7099228,-156.3511505
8660,2.6862805,7.5728211,2.2242019,17.0610695,41.3969460,-36.5954208,-16.1535969,-19.6131992,-3.3590479,-187.3206177,-2.6564887,-176.7099304
8670,2.3486998,7.3381906,2.0159075,13.2519083,43.0381660,-36.8091621,-17.3722382,-18.8853664,0.6272776,-240.8473358,5.4351144,-187.7099304
8680,2.2289903,7.1586266,2.0877333,9.5954199,41.3511467,-36.4732819,-19.6131992,-14.3747139,10.1369982,-237.0229034,107.9312973,-161.6946564
8690,1.9440818,7.0460997,2.0566087,6.7709923,38.3053436,-34.8396950,-19.6131992,-9.5384512,18.0354290,-164.2290039,225.1145020,-99.7251892
8700,1.8866212,7.0293403,2.0997043,4.2671757,34.4274826,-31.7786255,-19.6131992,-6.6486640,19.6126022,-61.5572510,250.1297760,-20.0152664
8710,1.7956421,7.0652533,2.2433555,2.3206108,31.2061062,-26.2748089,-19.6131992,-4.4148855,19.6126022,23.0152664,202.0076294,70.3435135
8720,1.9440818,7.2280579,2.2218077,0.1374046,30.1450386,-19.0839691,-19.6131992,-4.0366035,16.3906212,81.4427490,71.6717529,154.2290039
8730,2.2098370,7.6111283,1.9871773,-2.2366412,30.1297703,-11.3740454,-19.6131992,-7.1753860,9.2032642,106.9923630,-49.3129768,208.4961853
8740,2.5067163,8.0372944,1.8818330,-5.4503818,29.0305347,-3.6335878,-14.7577839,-10.8959560,2.5617826,122.8244247,-139.1068726,228.7251892
8750,3.0454090,8.5448618,1.7453641,-9.5419846,26.4580154,2.0305343,-7.6278877,-12.5575237,-3.0430148,134.7251892,-163.1068726,216.2366486
8760,3.4380560,8.9710283,1.8124014,-13.6564884,23.6870232,5.7557254,-4.6495161,-11.8201132,-7.1993275,135.9236603,-142.2366486,191.2061005
8770,3.8737986,9.3756456,1.9297167,-17.0152664,19.9694653,7.8320613,-4.9847026,-9.5983057,-9.7108326,121.8702316,-100.1984711,174.6335907
8780,4.2448978,9.5432396,2.1787124,-18.4198475,16.0152664,8.5267172,-6.4140334,-7.5776095,-10.7594872,96.2671738,-68.3969498,172.9236603
8790,4.5992379,9.6342182,2.7796540,-17.5648861,12.1603050,7.8244276,-6.9455438,-6.1961622,-9.6222477,68.5190811,-63.5648842,177.6793823
8800,4.8218975,9.7347746,3.0573800,-13.7480917,8.2671757,6.5267177,-5.8849177,-4.6016321,-8.5496502,46.7099228,-85.0763321,176.5725250
8810,4.8410511,9.6150646,3.2345500,-8.6793890,3.6335878,5.7251906,-4.1299767,-2.8323262,-7.6374645,31.9694653,-105.6335907,168.7022858
8820,4.8123207,9.6749191,3.2417326,-4.0305343,0.3511450,5.3206105,-2.1260402,-1.2665262,-6.8138633,23.3969460,-117.9847336,153.6564941
8830,4.7859845,9.6868906,3.2273674,0.5801527,-2.1755726,4.8091602,-0.9576758,0.2082945,-5.9782910,18.9389305,-124.6488571,128.5954132
8840,4.8218975,9.7084379,3.0501974,4.3587785,-3.4427481,4.0916033,-1.2521610,1.9632354,-5.6095858,17.9236641,-134.3587799,102.0839691
8850,4.7883787,9.6557665,2.9687948,6.9389315,-4.6335878,2.7862597,-2.1475880,3.6463506,-5.7029591,16.6641216,-149.0229034,79.2900772
8860,4.6471219,9.6677370,2.8466914,8.8854961,-5.5496182,1.0076336,-3.2201848,4.5345950,-5.8035154,12.1145039,-167.0000000,60.2671738
8870,4.5010762,9.5073261,2.8059900,10.0152674,-7.0458016,-0.8702290,-4.4124913,5.0613165,-6.2081332,4.1374044,-185.4809113,46.2366409
8880,4.2329268,9.3828287,2.8490853,11.3129768,-8.5725193,-2.5877862,-5.4132624,5.8226686,-6.6103573,-6.6641221,-201.3129730,36.8931313
8890,3.8761928,9.2319946,2.8514795,12.0916033,-10.0992365,-3.8549619,-6.5959921,6.7827387,-6.7420373,-21.8015270,-206.6488495,32.7862587
8900,3.6248028,8.9997578,2.8251436,12.1755724,-11.2824430,-4.5267177,-8.0899658,7.4291697,-6.0740585,-37.0839691,-197.0152740,37.1603050
