timestamp,rxacclX,rxacclY,rxacclZ,rxgyroX,rxgyroY,rxgyroZ,txacclX,txacclY,txacclZ,txgyroX,txgyroY,txgyroZ
0,-3.3087699,8.4993725,-18.2556953,145.0839691,-119.3969498,-123.5954208,-1.9871773,-0.4525018,10.4410601,0.9770992,-2.0152671,-0.2366412
10,-4.2161674,10.5104914,-19.6131992,-53.7862587,219.2824402,-70.5038147,-1.9249283,-0.5195391,10.4578199,1.6183206,-1.6335878,-1.2290076
20,-7.4555058,9.0308828,-19.6131992,-250.1374054,250.1297760,-29.2748089,-2.0590029,-0.5362985,10.4626083,1.5877863,-0.7099237,-2.1526718
30,-10.3237448,5.7460546,-19.6131992,-250.1374054,250.1297760,18.7480907,-2.0637913,-0.5674229,10.4530315,1.6488550,-0.5343512,-3.4503818
40,-11.8225079,1.6567791,-16.3930149,-250.1374054,250.1297760,59.9694672,-2.1451938,-0.6081241,10.3189564,1.9618320,-0.2824427,-3.8396947
50,-14.4513273,-1.5131277,-2.8083842,-250.1374054,250.1297760,99.8625946,-2.2744799,-0.6392486,10.3812056,1.9312977,-0.3969466,-4.7633586
60,-9.9502516,-2.5593886,1.8339491,-250.1374054,250.1297760,128.5648804,-2.4468615,-0.6512195,10.2854376,1.7938931,-0.7404580,-4.2442746
70,-7.5943689,-1.6831152,9.2080526,-250.1374054,250.1297760,142.2366486,-2.5234756,-0.6679789,10.3357162,1.7633588,-0.8091603,-4.6335878
80,-5.6359220,-2.0230901,12.9908724,-250.1374054,250.1297760,135.9313049,-2.5929072,-0.6488253,10.1322098,1.3587786,-1.8091604,-4.0152674
90,-6.1147599,-0.4572902,15.3970327,-250.1374054,250.1297760,134.0152740,-2.5617826,-0.6607963,10.1944590,1.1145039,-2.7328243,-4.0763359
100,-4.7644372,0.6009415,17.0059280,-250.1374054,250.1297760,136.0000000,-2.5929072,-0.5554519,10.1753054,1.0076336,-3.7022901,-3.7862597
110,-3.8378856,1.7166338,16.7928448,-250.1374054,250.1297760,118.9236679,-2.5761478,-0.5650287,10.2710724,0.6259542,-4.8549619,-3.1679389
120,-4.9104824,2.5426292,15.9931860,-201.2595367,250.1297760,93.1068726,-2.4899571,-0.5722113,10.2351599,-0.1908397,-5.2213740,-2.7480917
130,-6.7994981,3.1531475,16.2517586,-104.8854980,153.3969421,85.5419846,-2.4995339,-0.4764437,10.2447367,-0.6564885,-5.5419846,-1.9007634
140,-5.7652082,3.1531475,14.5542774,0.5801527,-106.3282471,89.8931274,-2.3798244,-0.4429250,10.3452930,-1.2595420,-5.1374044,-1.5343511
150,-5.3462253,3.3829896,11.7937775,92.9618301,-250.1374054,96.4045792,-2.3726418,-0.4644727,10.3835993,-1.3816794,-5.3129773,-1.2595420
160,-4.7452836,4.2018023,8.0444765,155.6412201,-250.1374054,107.5190811,-2.1787124,-0.4525018,10.4506369,-1.3206106,-5.0152674,-0.6106870
170,-2.9568241,4.4986820,5.2384863,190.2824402,-250.1374054,124.6335907,-2.0877333,-0.4884146,10.3979645,-1.0610687,-5.2290077,-0.8778626
180,1.0965388,5.2313042,3.0932927,202.4656525,-250.1374054,139.3129730,-2.0685797,-0.4501076,10.5033092,-0.7328244,-4.6793895,-1.2900764
190,8.9231443,6.9479380,2.2984219,194.7557220,-250.1374054,136.4809113,-2.0183017,-0.5075682,10.4099360,-0.2213740,-3.8625953,-1.2213740
200,16.1057129,9.9909525,0.6368544,158.1755676,-250.1374054,100.9160309,-2.0326669,-0.4525018,10.5080976,0.2442748,-3.4885497,-1.5877863
210,19.6126022,11.9086981,-3.4452386,72.5496216,-105.9770966,34.5954208,-2.1451938,-0.4548960,10.4386663,0.4503817,-2.8702290,-2.9312978
220,19.0984497,10.3237448,-6.4834652,-47.3358765,172.1755676,-39.1526718,-2.2098370,-0.5769997,10.4171181,0.5114504,-2.8931298,-3.0305343
230,12.9262285,7.3142486,-7.4387465,-166.7557220,250.1297760,-88.8549652,-2.2505381,-0.5746055,10.3357162,0.3358779,-2.8320611,-3.5496182
240,5.7819676,5.4874821,-5.9926562,-250.1374054,250.1297760,-102.8549652,-2.3391230,-0.5913648,10.2638903,0.6335878,-2.6488550,-3.3129771
250,0.7014975,3.7349355,-4.3382711,-250.1374054,250.1297760,-96.5419846,-2.4947455,-0.6153067,10.2974091,0.6641222,-2.4961832,-3.2977099
260,-2.6048782,2.5282640,-1.9105632,-250.1374054,250.1297760,-87.4503784,-2.5474176,-0.6679789,10.3524752,0.7709923,-2.1374047,-2.6946564
270,-4.9487896,1.5418580,0.9145803,-250.1374054,250.1297760,-87.6412201,-2.5881188,-0.7086801,10.4075413,0.8778626,-2.8778627,-2.6412213
280,-7.5321202,0.7398046,3.9815371,-250.1374054,250.1297760,-95.8396912,-2.5689652,-0.6991033,10.3189564,1.1221374,-3.4732823,-2.1526718
290,-12.8735571,1.0989330,10.9845409,-250.1374054,250.1297760,-99.1908417,-2.5809362,-0.6751614,10.2279778,1.2977099,-4.3435116,-1.5954199
300,-11.5399933,0.1388630,19.6126022,-216.2748108,-129.3816833,-92.1832047,-2.5426292,-0.7086801,10.2303715,1.1145039,-5.1908398,-1.0152671
310,-9.3852224,-1.7118455,19.6126022,-19.2595425,-250.1374054,-83.2595444,-2.5091105,-0.6775556,10.3213511,0.9083970,-6.0381680,-0.8854962
320,-7.1011658,-1.4101776,19.6126022,178.9541931,-250.1374054,-70.9389343,-2.4205256,-0.5746055,10.2806492,0.6183206,-6.1603055,-1.0152671
330,-6.8354111,0.6607963,17.0490227,250.1297760,-250.1374054,-51.5343513,-2.3917952,-0.5674229,10.3309278,0.2748092,-6.3816795,-1.1984733
340,-1.9201399,1.7381816,14.4800577,250.1297760,-250.1374054,-38.7862587,-2.3271523,-0.5147507,10.3859940,0.1374046,-5.5648856,-0.0763359
350,2.6192431,1.5250987,11.7865944,250.1297760,-250.1374054,-15.9160309,-2.2385671,-0.5315101,10.3620520,0.4427481,-4.8549619,0.2213740
360,5.9184365,2.5019281,8.2240410,250.1297760,-250.1374054,24.8015270,-2.1667414,-0.4237715,10.4913378,0.7099237,-3.9770992,-0.0534351
370,5.2289100,9.8257532,-3.4619980,250.1297760,-250.1374054,49.8244286,-2.0374553,-0.4046180,10.3548698,1.0229008,-3.3893130,0.1374046
380,12.2151546,9.4762020,-5.5114241,92.0763321,-131.6641235,57.3816795,-2.0087249,-0.4022238,10.3931761,0.7862595,-3.1908398,-0.7938932
390,15.5454721,5.6000090,-0.7757174,-18.0000000,122.2595444,14.5648851,-2.0206959,-0.3519458,10.3237448,0.6641222,-3.0076337,-0.9389313
400,11.9517937,6.1865854,2.7150109,-83.1603088,250.1297760,-43.0000000,-1.9967541,-0.4189832,10.4003592,0.3587786,-2.5877862,-1.4656489
410,7.5273318,7.3669209,3.2680686,-123.5496216,250.1297760,-66.8015289,-1.9608412,-0.4788379,10.3381100,-0.0687023,-2.1679389,-2.3664122
420,5.2456689,6.7587967,2.0781565,-164.7328186,250.1297760,-80.1679382,-2.1044924,-0.5315101,10.3859940,-0.1526718,-2.3664122,-3.3358779
430,4.0054789,5.7747850,0.1412572,-212.2366486,250.1297760,-94.8091583,-2.2625091,-0.5746055,10.3333216,-0.1374046,-2.6793892,-4.4885497
440,1.5298871,4.8530221,-1.5370697,-250.1374054,250.1297760,-106.8091583,-2.3702476,-0.5889706,10.3572636,0.0763359,-2.9465649,-4.3893127
450,-0.9050036,3.4643922,-1.7214222,-250.1374054,250.1297760,-115.1526718,-2.4803803,-0.6775556,10.3883877,0.6717557,-2.5725191,-4.5038166
460,-4.4867110,1.8507085,0.3399749,-250.1374054,250.1297760,-119.6641235,-2.6216373,-0.6679789,10.4290895,1.5267175,-2.0610688,-4.0763359
470,-9.8568783,0.5937590,5.2336984,-250.1374054,250.1297760,-118.5572510,-2.6503677,-0.7254394,10.4195127,2.2442749,-1.8244275,-3.8931298
480,-15.2533808,-0.6991033,11.3316984,-250.1374054,250.1297760,-100.8473282,-2.6623387,-0.6679789,10.4051476,2.6946564,-1.6641221,-2.3969467
490,-18.8997307,-1.9392935,17.0873299,-250.1374054,39.2442741,-53.4732819,-2.6000898,-0.6751614,10.2399483,3.1297710,-2.1145039,-1.6793894
500,-14.4561157,-4.5776901,19.6126022,-96.3129807,-250.1374054,-16.0229015,-2.5881188,-0.6224893,10.2806492,2.8473282,-2.1297710,-1.6183206
510,-10.5775290,-5.4060798,19.6126022,184.4045868,-250.1374054,-30.4732819,-2.4755919,-0.5698171,10.2327662,2.4122138,-2.8396947,-1.0763359
520,-12.0212250,-2.1787124,19.6126022,250.1297760,-250.1374054,-34.8931313,-2.4588325,-0.5195391,10.1298151,2.0916030,-3.0992367,-1.0076336
530,-10.0316534,-1.0773853,10.8337069,250.1297760,-250.1374054,-35.0992355,-2.3391230,-0.4620786,10.2543135,1.4122137,-3.8320611,-0.3511450
540,-5.2959471,-1.0031654,6.4906478,250.1297760,-250.1374054,-45.8244286,-2.3199697,-0.4189832,10.3500814,0.9083970,-4.2442746,-0.1450382
550,-0.2609667,0.9313397,4.4196739,250.1297760,-250.1374054,-31.4732819,-2.1882892,-0.3687052,10.3716288,0.8015267,-4.7786260,-0.1450382
560,-1.3910241,8.0013809,-5.3007355,250.1297760,-250.1374054,8.6030531,-2.1427996,-0.3399749,10.3548698,0.7633588,-4.5801525,-0.0458015
570,4.3478479,11.5184450,-9.5288744,171.4274750,-250.1374054,59.4961815,-2.0853391,-0.3567342,10.4410601,0.7557252,-4.5419846,-0.7938932
580,13.9629126,6.2871413,-4.9080882,22.1374054,-58.2442741,79.2977066,-2.0015423,-0.4261657,10.3788109,0.5954198,-4.4351144,-1.6335878
590,14.1544485,2.9496415,-2.9999194,-92.6717529,250.1297760,47.2519073,-2.0326669,-0.4070122,10.3261395,0.2900763,-3.9923663,-2.4885497
600,8.1905222,4.3478479,-2.6192431,-193.8625946,250.1297760,-7.0916033,-2.1092808,-0.4429250,10.3285332,0.1526718,-3.5572519,-3.2671757
610,2.3079987,5.3127065,-1.5945302,-250.1374054,250.1297760,-26.1145039,-2.2002602,-0.4668669,10.3620520,-0.3740458,-3.2748091,-3.4580152
620,-2.6814921,4.7093706,0.9840119,-250.1374054,250.1297760,-22.1526718,-2.2194135,-0.5554519,10.2447367,-0.3435115,-3.4656489,-4.5572519
630,-4.9248476,3.7373297,3.3279233,-250.1374054,250.1297760,-13.7175570,-2.3726418,-0.5602403,10.3333216,-0.6870229,-3.4809160,-4.9312978
640,-6.3733325,3.5170643,6.3805151,-250.1374054,250.1297760,-2.0916030,-2.3654592,-0.5722113,10.3931761,-0.3206107,-3.6183207,-4.5038166
650,-6.7994981,3.9480183,10.5895004,-250.1374054,250.1297760,15.1679392,-2.4923513,-0.5985473,10.4410601,0.4351145,-3.5419848,-4.4503818
660,-5.5377603,2.8778157,13.0411501,-201.5725250,250.1297760,24.6717548,-2.4851687,-0.5913648,10.4434547,1.3282443,-3.2061069,-3.9236641
670,-4.1850433,2.1475880,14.3603487,-107.5954208,119.7938919,20.1374054,-2.5378408,-0.6344602,10.4482431,2.0305343,-3.0305343,-3.0610688
680,-3.8354914,2.6623387,13.9533358,-20.8167934,-43.5496178,13.5572519,-2.5306582,-0.5362985,10.3476868,2.7633588,-3.4503818,-3.1374047
690,-3.0525916,3.2608860,12.5407648,44.7175560,-166.0152740,8.7633591,-2.5019281,-0.5147507,10.2614956,2.7251909,-3.6793892,-2.8473282
700,-2.1140692,3.3159523,10.8911676,87.2137375,-238.7557220,3.8702290,-2.4708035,-0.4118006,10.0771437,2.1832061,-4.2213740,-2.4122138
710,-1.3359578,3.5625539,9.1362267,107.3587799,-250.1374054,-0.7709923,-2.5043221,-0.5219333,10.1106625,1.5038168,-4.4732823,-2.3435113
720,-0.8212070,3.8163381,7.7811155,104.0687027,-250.1374054,-3.6641221,-2.4779861,-0.4788379,10.1824875,0.8473282,-5.1832061,-2.4427481
730,-0.1628049,3.8761928,7.0987716,87.8702316,-250.1374054,-4.6030536,-2.3917952,-0.4596844,10.1776991,0.1679389,-5.7938933,-2.1145039
740,0.2609667,3.9959023,7.0317345,61.9847336,-248.0152740,-2.0076337,-2.3917952,-0.4836263,10.2184010,-0.8091603,-6.1832061,-1.1908396
750,0.6081241,3.9025288,7.3669209,34.6259537,-208.1068726,1.1374046,-2.2960277,-0.4740495,10.3524752,-1.1603054,-6.3129773,-1.2137405
760,0.9959828,3.9073172,8.1546097,11.2748089,-156.0610657,5.0152674,-2.2050486,-0.5027798,10.4530315,-1.2595420,-6.6259542,-0.6183206
770,1.1827296,3.7923961,8.8537130,-6.0458016,-102.2900772,9.3282442,-2.2146254,-0.4405309,10.4410601,-0.9694657,-6.9236641,-2.2519083
780,1.3958124,4.0629396,9.4187412,-19.0229015,-59.3893127,10.5190840,-2.1882892,-0.4165890,10.5559816,-0.5954198,-6.9541984,-2.7175572
790,2.0446377,4.2616572,9.9957409,-31.6030540,-17.4656487,6.2442746,-2.1811066,-0.4309541,10.4554253,0.2442748,-6.5343513,-2.5572519
800,1.5801650,3.7181761,10.2854376,-38.2824440,17.9465656,0.3969466,-2.2289903,-0.5003856,10.2806492,0.6946565,-6.3511453,-3.3129771
810,1.0486550,3.2513094,10.4673967,-37.9083977,34.7175560,-0.4732825,-2.2912393,-0.4955972,10.3788109,0.5725191,-5.4885497,-3.3740458
820,0.6129125,3.0956869,10.5176744,-32.9312973,32.0916023,1.5877863,-2.3008161,-0.4668669,10.3835993,0.4809160,-5.1450381,-3.0763359
830,0.6512195,3.1699069,10.3644457,-25.8091602,19.0992374,3.5954199,-2.4013720,-0.5219333,10.2638903,0.4351145,-4.9694657,-2.3893130
840,0.8643024,3.2991931,10.4673967,-17.2442741,-0.3664122,2.1374047,-2.3175755,-0.5386927,10.3979645,0.5725191,-5.1297708,-2.7404580
850,1.0007712,3.4667864,10.7092094,-6.9770994,-17.8625946,-3.4045801,-2.3391230,-0.5865764,10.2447367,0.5877863,-6.0839696,-2.4580152
860,1.0247130,3.5649481,10.7020273,4.1603055,-31.0839691,-10.2671757,-2.3822186,-0.7182568,10.2950144,0.5038168,-7.0458016,-3.3053436
870,0.9026094,3.4859397,10.3285332,13.9923668,-38.0381660,-16.7557259,-2.5019281,-0.5841822,10.4051476,0.1679389,-8.4885492,-3.8549619
880,0.6440369,3.5050933,9.9478569,19.5114498,-40.5343513,-20.2671757,-2.4636209,-0.6607963,10.3907824,0.1221374,-9.0610685,-3.5877862
890,0.4788379,3.4667864,9.5935173,21.2366409,-38.8396950,-20.4809170,-2.4971397,-0.5386927,10.2710724,0.5114504,-9.0992365,-2.1526718
900,0.4333483,3.4189026,9.1314383,19.2824421,-31.9160309,-17.8702297,-2.4324965,-0.4788379,10.4195127,0.7709923,-8.6564884,-1.4198474
910,0.6584021,3.3877780,8.9399033,11.3740454,-10.9236641,-13.7328243,-2.3846128,-0.4213773,10.3405046,0.8702290,-8.0458012,-0.6183206
920,0.6871324,3.3159523,9.0931320,2.9770992,10.2671757,-9.2519083,-2.2146254,-0.3519458,10.4290895,0.6412213,-7.4351144,0.3511450
930,0.6392486,3.3159523,9.1458035,-4.8167939,28.2900772,-1.1603054,-1.9081690,-0.2418131,10.2878323,0.0687023,-6.4732823,-0.2595420
940,0.8236012,3.4548154,9.1290445,-5.0839696,29.3435116,1.8625954,-1.7980363,-0.3399749,10.3141680,-0.1984733,-5.6793895,-1.1297710
950,1.0534433,3.4596038,9.1793222,-4.7786260,26.5725193,3.2671757,-1.6950861,-0.3016679,10.4051476,-0.4198473,-4.3435116,-1.9312977
960,1.3503228,3.6295912,9.2176294,-4.4656487,21.8396950,2.3358779,-1.7046629,-0.3399749,10.3955708,-0.7022901,-3.5190840,-3.5038168
970,1.4748207,3.7947903,9.5576038,-2.2442749,17.4885502,-0.9312977,-1.8076130,-0.3926471,10.4338779,-0.7251908,-2.6183207,-4.7099237
980,1.5753766,3.7325413,9.6222477,2.2061069,15.5648851,-5.2748094,-1.9728121,-0.4812321,10.4290895,-0.3511450,-2.1221373,-5.8549619
990,1.3024391,3.5601597,9.5336628,7.2061067,13.0839691,-10.3587790,-2.1140692,-0.6057299,10.5607700,0.8244275,-1.2671756,-6.6412215
1000,1.1468167,3.5457945,9.2822723,7.5725193,11.0381680,-10.6183205,-2.2218077,-0.5841822,10.5009146,1.7404580,-0.6183206,-7.0458016
1010,1.1396341,3.8905578,8.7914639,-0.3282443,12.9312973,-8.0229006,-2.5593886,-0.6512195,10.3309278,2.6488550,-0.6412213,-6.7480917
1020,1.4245427,3.7038112,8.5688038,-3.8473282,14.1145039,-11.1374044,-2.6599445,-0.6823440,10.2136126,2.5343511,-1.7633588,-5.9083967
1030,1.6472024,3.7325413,8.3557215,-8.3435116,17.0992374,-16.0152664,-2.7030399,-0.6057299,10.2327662,1.9694656,-2.5725191,-5.3969464
1040,1.5801650,3.6367738,8.3533268,-13.3664122,25.0229015,-20.0534344,-2.6934631,-0.5793939,10.2327662,1.1374046,-4.3053436,-3.7175572
1050,1.4700323,3.8019729,8.3892403,-19.0687027,23.3969460,-24.0152664,-2.5857246,-0.5243275,10.1417866,0.2595420,-4.8854961,-3.5496182
1060,1.1563935,3.4356618,8.4251528,-25.0916023,19.8778629,-29.5572510,-2.6144550,-0.4788379,10.2614956,-0.4656489,-5.3816795,-2.1984732
1070,0.7685348,3.4332676,8.7340031,-28.8854961,10.4198475,-33.2061081,-2.5091105,-0.3878587,10.3117743,-0.7022901,-5.6259542,-3.0076337
1080,0.1101327,3.2513094,9.0931320,-30.3282452,-2.6564887,-35.1679382,-2.3415172,-0.4070122,10.2926207,-0.5496183,-4.6946564,-1.3358779
1090,0.0335187,3.1100521,9.3971939,-28.5038166,-18.9160309,-36.7175560,-2.1954718,-0.3591284,10.2758608,-0.2061069,-4.1297708,-0.7786260
1100,-0.1268920,2.9616125,9.7658987,-24.2213745,-32.4198456,-37.5954208,-2.1284344,-0.3399749,10.3428984,-0.6183206,-3.9541984,-0.7022901
1110,-0.2370248,2.9424589,9.8880024,-19.5801525,-43.6106873,-38.3969460,-2.1404054,-0.3543400,10.2974091,-1.3893130,-4.7938933,-1.6564885
1120,-0.1963235,2.8634505,9.7180147,-15.7404585,-51.6030540,-38.7175560,-1.9991482,-0.3854645,10.4003592,-2.0763359,-6.2442746,-2.1679389
1130,-0.2489957,3.0525916,9.2679071,-14.2366409,-53.0381660,-37.9083977,-1.9943599,-0.3375807,10.4338779,-1.9618320,-6.1908398,-2.6106870
1140,-0.4022238,3.2345500,8.5304966,-18.3587780,-54.9007645,-34.2824440,-2.0183017,-0.3878587,10.3907824,-1.9312977,-5.4580154,-2.4198472
1150,-0.1987177,3.3518653,8.2312231,-27.1297703,-52.5725174,-28.0458012,-2.1284344,-0.4309541,10.5176744,-1.6641221,-4.8396945,-2.1984732
1160,-0.0550664,3.1842721,8.3509331,-40.4580154,-43.6183205,-21.2977104,-2.1571648,-0.4860204,10.5009146,-1.2977099,-3.9770992,-2.2061069
1170,0.1316804,3.3159523,9.0189114,-49.6106873,-58.7938919,-15.4656487,-2.1619530,-0.5003856,10.5535870,-0.4274809,-3.7786260,-1.9618320
1180,0.4381367,3.6774750,9.4785957,-55.2519073,-79.6717529,-9.4274807,-2.1906834,-0.5458752,10.4147243,0.6183206,-3.1984732,-1.5648855
1190,0.5817881,4.3789725,8.1474266,-60.7022896,-36.6412201,-2.7633588,-2.2218077,-0.5554519,10.5296450,1.1526718,-2.2290077,-1.6793894
1200,0.1675933,3.2728570,8.9279327,-72.6106873,-71.0457993,0.0000000,-2.3391230,-0.6344602,10.4123297,1.7022901,-0.7862595,-1.9160305
1210,1.1228749,2.4037662,9.1314383,-83.0229034,-99.9542007,-3.6412213,-2.4731977,-0.7996593,10.2399483,2.2290077,1.3664122,-1.3587786
1220,2.3391230,2.1092808,9.5001440,-84.5190811,-79.1297684,-8.0305347,-2.6647329,-0.7541697,10.1920643,1.8854961,3.1526718,0.2748092
1230,2.0326669,1.7405758,9.8975792,-80.3435135,-38.6106873,-10.8167934,-2.8059900,-0.7374104,10.1968527,1.2366412,5.4122138,2.7099237
1240,0.9552816,1.4748207,9.9550400,-76.3969498,-11.4961834,-9.8091602,-2.7293761,-0.6560079,10.2184010,1.2061069,6.9007635,4.7709923
1250,-0.0526722,1.5394639,10.1274214,-74.2900772,5.2213740,-5.5801525,-2.7317703,-0.5458752,10.3165627,1.4045801,8.2442751,6.4045801
1260,-0.7182568,1.5801650,9.9717989,-72.5496216,15.7862597,3.3664122,-2.5929072,-0.2753318,10.3261395,2.0305343,10.3129768,6.9160304
1270,-1.1707586,1.1492109,9.9334917,-72.1526718,17.4351139,15.1221371,-2.5569944,-0.3351865,10.3117743,2.7404580,11.7709923,8.4732828
1280,-1.3479286,0.7972651,9.8233595,-72.8091583,9.0534353,26.3282452,-2.6575503,-0.4405309,10.3237448,3.8167939,13.4427481,10.0687027
1290,-1.1994889,0.5769997,9.7970228,-73.5648880,-2.8854961,35.6488533,-2.5186872,-0.4405309,10.2710724,4.2900763,16.4732819,10.4274807
1300,-1.0199248,0.2537841,10.0843258,-74.2442780,-20.4885502,44.3435097,-2.7652888,-0.6105183,10.2471304,4.7328243,20.7480907,12.9007635
1310,-0.6560079,0.0191535,10.2662840,-73.4503784,-34.9618340,52.0763359,-3.0908985,-0.7230452,10.6924505,6.0152674,28.2213745,17.3511448
1320,-0.1460456,-0.2418131,10.4171181,-69.5343475,-49.5572510,59.4351158,-3.3877780,-0.7110743,11.5352049,9.2137403,34.6030540,24.5267181
1330,0.5003856,-0.2274480,11.0683374,-62.4961815,-67.0839691,63.1526718,-3.1699069,-0.6967092,11.8416615,16.3816795,42.8931313,29.2137413
1340,1.6974803,0.1340746,11.0874910,-49.8625946,-72.0687027,63.7862587,-3.0190730,-0.8930327,12.0236197,27.6030540,51.4427490,34.1984749
1350,2.5761478,0.2274480,10.7930059,-35.4885483,-64.4809189,63.1145020,-2.6743097,-1.1563935,11.7004042,39.0381660,56.2595406,39.7557259
1360,3.1603301,0.2729376,10.5057030,-24.0763359,-59.6335869,58.4961815,-2.5067163,-0.8762733,11.6788559,45.8549614,61.9465637,39.8473282
1370,3.6032550,0.4333483,9.9933472,-16.4809170,-57.6717567,50.8473282,-2.4971397,-0.5506636,11.7267399,53.2137413,65.8549652,38.5114517
1380,3.5242469,0.5937590,9.1577749,-14.9007635,-54.3893127,43.4274826,-2.6503677,-0.2705434,11.4609852,61.4885483,67.8473282,37.0000000
1390,3.2896163,0.4668669,8.7172441,-19.8320618,-55.8167953,38.0916023,-2.7868366,-0.0885850,10.9438400,69.1908417,70.0687027,35.4274826
1400,3.0669568,0.3471575,8.5113440,-28.4580154,-61.1984749,34.2900772,-2.8754215,-0.0359128,10.3381100,73.4045792,72.3587799,31.5877857
1410,2.9017577,0.1484398,9.1434097,-35.8778610,-65.9465637,33.1679382,-3.0023136,0.1819584,9.7347746,73.0992355,71.1297684,26.9312973
1420,2.8562679,0.0885850,10.0651722,-37.7557259,-67.2442780,33.0839691,-3.3782012,0.4860204,9.5743637,70.9465637,66.6412201,21.7938938
1430,3.1363883,0.2202654,10.8552551,-31.7022896,-55.7862587,36.2137413,-3.7708483,0.6009415,9.1003141,69.6412201,65.0687027,18.5343513
1440,3.3997490,0.0933734,11.0467901,-20.7557259,-38.9771004,41.8473282,-4.1060348,0.6727672,8.7866755,66.3511429,62.3206100,16.4274807
1450,3.3183465,-0.1939293,10.9103212,-10.8854961,-28.3816795,50.0534363,-4.3358769,0.9480990,8.8345594,60.5801544,56.9618340,15.2061071
1460,3.5098817,-0.3615226,10.6062593,-1.5419847,-23.4045811,55.7480927,-4.4364328,1.0510491,8.9375095,53.2366409,58.1526718,11.6564884
1470,1.6615674,-0.7398046,9.1912937,4.4580154,-22.3740463,68.8625946,-4.8649931,1.1516051,9.5671806,55.0534363,73.8549652,14.9770994
1480,3.4548154,-0.1244979,9.1122847,1.5801526,-14.4809160,87.4809189,-4.6471219,1.0414724,8.6334467,55.8625946,73.0992355,24.1755733
1490,4.0533628,-0.6081241,9.3349447,-0.2671756,-12.1221371,85.1984711,-4.7357068,1.2473727,8.4658537,53.5648842,82.3129807,27.7022896
1500,4.4555864,-0.2202654,9.6821022,-0.8091603,-6.7404580,73.4885483,-5.9711084,1.4532729,8.7292147,52.9847336,72.5648880,35.2748108
1510,4.9918852,-0.4668669,10.4697905,14.4427481,7.4885497,39.2977104,-4.6590929,1.9416877,8.6071110,60.7480927,39.9389305,66.7938919
1520,5.0373745,-0.7014975,10.6421719,22.8625946,7.2137403,32.3053436,-4.0461802,2.2122312,8.5807753,47.7099228,19.6564884,53.7175560
1530,4.5681133,-0.6177009,10.5799236,30.5648861,9.1068707,27.8854961,-3.4045374,2.2720859,8.2000990,39.0610695,12.0076332,37.5801544
1540,4.4843168,-0.6009415,10.0627785,36.2213745,11.2519083,25.5877857,-3.0142846,2.5162930,7.7619624,33.2977104,18.7022896,23.0000000
1550,4.4340386,-0.6440369,9.4522600,37.1679382,13.5496187,23.9541988,-3.3351059,2.5474176,7.6207051,28.5572510,15.1755724,14.8473282
1560,4.2089849,-0.4908088,8.8154058,32.9236641,14.0992365,21.6488552,-3.8785870,2.6790979,7.6781654,21.9618320,4.2900763,9.1908398
1570,4.3263001,-0.3854645,9.7467451,20.8396950,13.6259546,-2.8167939,-3.0382264,2.8083842,6.6797886,-15.2900763,-46.4961815,-21.5801525
1580,4.3143296,-0.5769997,10.2998028,24.3664131,15.4732828,-10.4198475,-2.8754215,2.8538737,6.4427638,-31.5114498,-50.7251892,-32.1832047
1590,4.0653338,-0.9816177,10.8744087,31.3435116,18.0534344,-16.6335869,-2.9544299,2.7102225,6.3876977,-49.6335869,-53.0381660,-44.7557259
1600,3.8737986,-1.1468167,11.2718439,42.0839691,23.2977104,-18.4351139,-3.0238612,2.4755919,6.3661499,-66.4274826,-61.8396950,-56.6183205
1610,3.5912843,-0.9864060,11.1234045,52.8167953,29.3969460,-15.6564884,-3.1483591,2.2529323,6.4403696,-84.0687027,-72.1603088,-68.9465637
1620,3.4165084,-0.5769997,10.4099360,58.6259537,36.3358765,-9.2137403,-3.2177906,2.1380112,6.7947097,-102.7099228,-83.3435135,-78.3053436
1630,3.2776453,-0.0694315,9.6126709,58.7633591,41.5725174,-3.4885497,-3.4667864,1.7405758,7.4986014,-120.5038147,-94.7786255,-86.9160309
1640,3.2560976,0.4692611,8.9638453,55.0000000,38.1450386,-3.0229008,-3.9240766,1.5011568,8.5759869,-133.4656525,-106.1145020,-89.8549652
1650,3.3925664,0.8834559,8.4443064,48.9007645,30.4198475,-9.3053436,-4.0844874,1.1516051,9.5025377,-140.2061005,-114.5725174,-92.6106873
1660,3.4596038,1.2306134,8.3102312,41.9694672,18.9236641,-20.5190830,-4.4627690,0.9050036,10.5727406,-139.4809113,-120.4961853,-89.5114517
1670,3.4572096,1.4029950,8.3174143,35.8473282,7.2519083,-33.9007645,-4.6830344,0.8116302,11.6620970,-132.3358765,-122.9007645,-83.9694672
1680,3.1411765,1.5322813,8.7100611,31.6717548,-1.9007634,-47.1297722,-4.4340386,0.8188128,12.4545736,-118.9847336,-117.4351120,-76.8854980
1690,2.7700772,1.5107336,8.8752604,28.6717548,-11.7480917,-57.0610695,-4.4484038,0.5698171,12.9573536,-97.5572510,-100.3587799,-66.7328262
1700,2.2864509,1.3000449,8.9327211,26.1221371,-29.4274807,-63.7862587,-3.8546450,-0.0143651,13.1417055,-76.6106873,-85.1832047,-57.2519073
1710,1.6711442,1.1899122,8.9686337,23.8549614,-45.2977104,-65.0916061,-3.4308734,-0.1364688,13.1177645,-57.6488533,-72.6870193,-53.5496178
1720,1.4029950,1.3646880,9.1170731,22.5190830,-53.9771004,-63.0458031,-3.4404502,0.1436514,13.2733860,-40.2519073,-48.1145020,-55.4122124
1730,1.4867916,1.4053892,9.2750902,21.0610695,-53.6641235,-57.4885483,-4.2568688,0.7326220,13.5343533,-21.9465656,-9.6641226,-52.8167953
1740,1.6232605,1.2234308,9.3421268,17.8320618,-47.3969460,-50.1450386,-5.1762376,0.7469871,13.5559006,-4.9312978,32.6030540,-41.8549614
1750,1.8100072,1.3383518,9.5599985,14.5572519,-40.4656487,-41.5801544,-5.9806852,1.0486550,13.6349087,9.0458012,62.5038185,-29.3129768
1760,1.8076130,1.4101776,9.8042059,12.9618320,-34.1908379,-33.1679382,-6.5816269,1.0486550,13.1776190,12.5954199,75.9465637,-18.9694653
1770,2.1140692,1.5131277,9.9119444,14.2061071,-31.2366409,-25.5496178,-7.5057840,0.2274480,12.7897596,7.1221375,80.7404556,-16.3282452
1780,2.3223639,1.4867916,9.8999729,17.5114498,-29.2671757,-18.9541988,-11.0467901,-0.4644727,13.8575687,-0.1526718,76.2213745,-13.5572519
1790,2.6264257,1.5921360,9.6437950,20.9083977,-28.9770985,-13.7938929,-15.3802729,-1.0773853,15.2940826,-6.3664122,71.8396912,2.3282442
1800,2.8754215,1.6831152,9.4618368,22.7328243,-28.7786255,-9.8854961,-19.6131992,-1.5442522,17.7385502,-13.3511448,68.7557220,43.4045792
1810,3.0980811,1.8315549,9.1458035,22.3816795,-26.5877857,-7.4122138,-19.6131992,-1.5442522,19.6126022,-9.6564884,62.2595406,109.9007645
1820,3.2177906,1.7860653,9.0117292,20.7557259,-23.7251911,-4.4656487,-19.6131992,-2.3486998,19.6126022,11.0229006,90.9694672,192.1832123
1830,3.4141142,1.9560528,8.7675219,18.0076332,-18.7175579,-2.0076337,-19.6131992,-4.8123207,19.6126022,64.1603088,146.0000000,250.1297760
1840,3.4428444,2.0446377,8.5807753,13.6030531,-12.5572519,0.7099237,-19.6131992,-7.4100165,19.6126022,146.9465637,214.9541931,250.1297760
1850,3.5841017,2.0613971,8.4514885,8.7709923,-7.8854961,2.9236641,-17.6906662,-8.6980906,19.6126022,237.8931274,250.1297760,250.1297760
1860,3.7062054,2.1547706,8.5089493,3.5954199,-3.5877862,3.9160306,-16.1512012,-9.4929609,19.6126022,250.1297760,250.1297760,250.1297760
1870,3.8546450,2.2146254,8.8201942,-0.3129771,-1.5343511,3.7938931,-14.5231533,-9.7012558,19.6126022,250.1297760,250.1297760,250.1297760
1880,4.0725164,2.2481439,9.1027079,-2.4809160,0.4732825,2.8320611,-12.0643206,-9.7443514,16.6420116,250.1297760,242.1297760,250.1297760
1890,4.2712340,2.2457497,9.1745338,-3.2290077,4.2671757,0.3816794,-9.3780403,-9.6797075,11.3125448,250.1297760,193.1603088,250.1297760
1900,4.0222383,1.9799947,9.3588867,-1.9923664,3.7022901,-2.3969467,-7.3501616,-9.4666252,6.8761120,250.1297760,159.4045868,250.1297760
1910,3.8235207,1.9009864,9.3469152,-0.1908397,0.7862595,-3.9770992,-5.8609757,-8.6190825,3.6224086,250.1297760,155.6488495,250.1297760
1920,3.6200144,1.9009864,9.2319946,0.2061069,1.4809160,-3.8702290,-4.7021880,-8.1139078,1.9297167,250.1297760,170.4656525,250.1297760
1930,3.5218527,1.8100072,9.1625633,0.0381679,2.0305343,-3.8625953,-3.4715748,-7.9080076,1.9345051,229.6564941,191.0915985,250.1297760
1940,3.4643922,1.7597293,9.1027079,-0.3511450,1.1984733,-3.7557251,-2.3870070,-7.9104018,2.7197993,194.6641235,198.3587799,250.1297760
1950,3.4045374,1.6926919,9.1936874,-1.0152671,1.0839695,-2.9618320,-0.6368544,-8.4706421,3.3901722,167.0992432,194.0686951,250.1297760
1960,3.2728570,1.7812769,9.1505919,-1.4122137,2.7328243,-1.2519084,1.3215926,-8.8752604,3.6200144,145.1450348,195.1221313,250.1297760
1970,3.2824337,1.7980363,9.0548248,-2.7251909,4.1908398,0.5038168,3.1507533,-8.8249826,3.7062054,125.2366409,198.2595367,250.1297760
1980,3.4332676,1.9249283,9.1673517,-3.9160306,3.8549619,1.3129771,5.1786318,-9.6198530,4.4747400,106.9618301,194.1832123,250.1297760
1990,3.4572096,1.9919657,9.4809904,-3.7022901,4.2519083,-0.2213740,11.1617117,-8.9231443,4.1371593,74.1832047,80.5114517,250.1297760
2000,3.3111639,2.0374553,9.3971939,-1.9618320,3.4122138,1.2213740,16.1703548,-7.8409705,1.4652439,51.4045792,-16.3893127,250.1297760
2010,3.4428444,1.9321109,9.2224178,-2.0305343,4.1679387,1.4122137,17.8510761,-6.9216018,0.8188128,38.9236641,-10.2137403,246.4503784
2020,3.3422885,1.8100072,9.0404596,-3.3664122,2.5572519,-0.1526718,19.5150375,-4.8673873,1.8124014,27.7099228,81.5725174,152.0763397
2030,3.5984666,1.7046629,8.9638453,-4.5801525,1.5954199,0.1145038,19.6126022,-4.0485744,1.8722562,27.7022896,94.0916061,94.3969498
2040,3.4117200,1.7070571,9.7539282,-3.1450381,-1.5496184,-3.9847329,19.6126022,-4.1467361,0.5482694,5.3969464,54.6717567,-53.6335869
2050,3.4189026,1.7501525,9.7802639,1.2748091,-3.0763359,-4.6106873,19.6126022,-3.5242469,0.6727672,-9.8854961,21.1374054,-135.2595367
2060,3.3901722,1.7645177,9.7228031,3.4122138,-4.1755724,-5.5648856,19.6126022,-3.5098817,0.6655847,-19.5419846,-7.2137403,-211.3816833
2070,3.2824337,1.8602852,9.5025377,4.8473282,-2.3893130,-6.1374044,19.6126022,-4.0868812,0.6272776,-27.5801525,-14.8091602,-250.1374054
2080,2.9759774,1.9799947,9.1841106,4.9083967,-3.7404580,-5.8549619,19.6126022,-5.9184365,0.5458752,-35.7175560,-1.9389313,-250.1374054
2090,2.8802099,2.0542145,9.0284882,3.2977099,-5.8091602,-3.4656489,19.6126022,-8.0564480,1.7836711,-41.6259537,17.3969460,-250.1374054
2100,3.0238612,2.0135133,8.9518747,1.3053435,-5.0076337,-1.0000000,19.6126022,-11.1760759,4.3286943,-39.8625946,34.2824440,-250.1374054
2110,3.0645626,2.0757623,8.8848372,-1.2595420,-2.9312978,0.2442748,19.6126022,-15.4233685,7.7547798,-25.0458012,24.1679382,-250.1374054
2120,3.1723011,2.1308286,9.0620070,-3.3969467,-2.6946564,1.4274809,19.6126022,-19.6131992,11.3364868,1.0687023,-26.3358784,-250.1374054
2130,3.3015873,1.9799947,9.3205795,-4.4580154,-3.2748091,2.3969467,19.6126022,-19.6131992,13.8743277,28.2977104,-130.6870270,-250.1374054
2140,3.4212968,1.7884595,9.3660688,-4.0763359,-1.7862595,3.5801528,9.1888990,-19.6131992,14.7553892,53.9007645,-250.1374054,-250.1374054
2150,3.4907281,1.7717001,9.3828287,-3.0916030,0.5801527,4.8396945,-9.4666252,-19.6131992,12.3588057,62.6106873,-250.1374054,-250.1374054
2160,3.5673423,1.7046629,9.3469152,-2.4656489,1.6412214,5.8244276,-19.6131992,-19.6131992,8.8585014,17.7022896,-250.1374054,-250.1374054
2170,3.6631098,1.6950861,9.3947992,-1.8931298,1.4961832,5.9847326,-19.6131992,-19.6131992,9.6150646,-63.1603050,-250.1374054,-250.1374054
2180,3.7900019,1.5969244,9.3277617,-0.7328244,0.9389313,5.6030536,-19.6131992,-16.9987450,17.9851513,-93.2366409,-250.1374054,-250.1374054
2190,3.8857694,1.7142396,9.3564920,0.2748092,1.1297710,4.5190840,-19.6131992,-5.7723908,19.6126022,-15.2595415,-99.7251892,-250.1374054
2200,3.9504125,1.6472024,9.3397331,1.5267175,0.6793893,2.4122138,-19.6131992,-1.4987626,19.6126022,125.3129807,250.1297760,-199.7404633
2210,3.8426740,1.8339491,9.2942438,2.0839694,-1.0000000,-0.2519084,-19.6131992,1.2425843,10.4817610,223.7633514,250.1297760,2.3282442
2220,3.8115497,1.7621235,9.1745338,2.1679389,-2.1374047,-1.2519084,-19.6131992,2.9831600,2.0829449,227.8778687,250.1297760,112.4580154
2230,3.8283088,1.8195840,9.3373384,2.3282442,-2.3053436,-4.9007635,-19.6131992,3.0573800,-2.5929072,150.4198456,250.1297760,160.2137451
2240,3.5338237,1.7908537,9.5121145,4.3358779,-6.1068702,-7.3893127,-19.6131992,2.5785420,-2.8897867,47.8167953,250.1297760,117.5725174
2250,3.4141142,1.9081690,9.4881725,6.4045801,-7.4656487,-7.4045801,-19.6131992,2.6862805,-3.9719603,-94.1603088,-60.0076332,9.9694653
2260,3.3734128,1.8507085,9.4307127,6.0839696,-6.3740458,-7.1068702,-19.6131992,1.6807210,4.6327567,-110.2061081,-160.0915985,75.0305328
2270,3.2321558,1.9488702,9.3852224,6.0534353,-5.8167939,-7.3969464,-10.7307568,6.3493905,6.3781209,-73.3740463,-123.6030502,96.0457993
2280,3.0549858,2.0183017,9.3325500,6.2748094,-7.0076337,-5.8091602,-4.4436154,5.0804701,5.1762376,-39.0305328,-112.7938919,50.6335869
2290,3.0406206,2.0278785,9.2439651,7.0610685,-8.1374044,-1.0229008,-11.2239599,5.9782910,3.7493007,20.8931293,-113.5801544,7.1450381
2300,3.1292057,2.1811066,9.2008705,6.4198475,-8.5801525,-0.2671756,-10.3093796,6.2655940,2.0613971,33.2900772,-133.4045868,24.6641216
2310,3.6080434,2.0829449,9.0835552,4.3511453,-5.8015265,2.7709923,-2.4827745,4.6207857,-0.0478838,-11.4351149,-145.9923706,15.3587790
2320,3.8522508,2.0135133,9.2176294,1.5648855,-1.2290076,2.3358779,-2.4540441,2.8993635,2.2720859,-48.9389305,-32.1755714,-30.2748089
2330,3.7636659,1.9943599,9.1218615,1.6717557,-0.5114504,1.9312977,-3.1986370,2.6072724,3.0908985,-53.7862587,-12.9389315,-40.9618340
2340,3.7660601,1.9776005,9.1817169,1.3893130,0.5496183,2.0916030,-4.5202298,2.4851687,3.9528067,-56.1145020,-5.0687022,-50.4045792
2350,3.6367738,2.0853391,9.2870607,-0.1221374,1.3053435,2.8015268,-6.8114691,1.2880739,6.7109132,-48.6793900,-26.7251911,-42.1297722
2360,3.6846576,2.0470319,9.1912937,0.9312977,1.2519084,2.5877862,-6.9335728,1.2784972,7.1179252,-43.8549614,-3.6641221,-37.0458031
2370,3.6870518,2.0877333,9.0739784,0.2061069,1.3053435,1.7786260,-6.9766679,1.3191984,7.5153608,-38.1603050,14.0229006,-33.7633591
2380,3.6655040,1.9991482,9.3828287,0.0534351,-0.6641222,-1.6946565,-7.6422529,1.0654143,7.1825686,-5.6488547,6.6030536,-56.8015251
2390,3.6319854,1.9895715,9.4355011,2.1297710,-0.9465649,-1.5801526,-10.6828737,2.0374553,6.7779503,-16.8549614,-42.1297722,-79.7633591
2400,3.5314295,2.0781565,9.2343884,2.9160306,-1.7099236,-1.4732825,-13.2278967,1.7429699,6.4283986,-33.4885483,-103.4656525,-89.6412201
2410,3.5386121,1.9608412,9.2607250,2.4656489,-1.5725191,-1.3358779,-13.4266148,1.3335636,7.0197635,-36.8091621,-126.9770966,-79.7786255
2420,3.5386121,2.0470319,9.1242561,2.7022901,-2.0534351,-0.8931298,-12.8041248,1.4508789,7.1825686,-29.5343513,-129.2061005,-57.2290077
2430,3.4907281,2.0925217,9.1074963,2.3740458,-2.2595420,-1.0152671,-10.6086531,1.8004304,7.3262196,-21.7251911,-113.5267181,-37.1450386
2440,3.5314295,2.2218077,9.1817169,1.7328244,-3.2290077,-1.3358779,-8.5951405,1.8100072,7.2759418,-10.8702288,-80.4351120,-27.0534344
2450,3.5266411,2.1930776,9.1074963,2.0458016,-3.9465649,-1.6793894,-7.8912482,1.6376256,6.9192076,-0.4809160,-44.9389305,-21.5419846
2460,3.6511390,2.1427996,9.2176294,2.6259542,-5.5114503,-2.7328243,-8.8513184,1.6902977,5.8322453,8.9160309,12.2900763,-6.3206105
2470,3.6415622,2.1739240,9.2535419,3.7099237,-6.1755724,-3.2442749,-9.1865053,1.7836711,5.5712790,3.9389312,29.6412220,3.3816793
2480,3.6271970,2.2026544,9.1170731,4.0534353,-6.5190840,-3.6717558,-9.2272062,1.7142396,5.6359220,-3.9083970,38.8091621,11.5877867
2490,3.7325413,2.1236460,9.0165176,3.6259542,-9.0305347,-5.4427481,-9.0380650,1.1156923,6.8641410,-5.5496182,27.2595425,3.9770992
2500,3.7062054,2.1044924,9.0404596,3.1297710,-8.2748089,-5.4885497,-9.4331064,1.0749911,7.0891948,-3.5419848,20.1221371,-2.1755726
2510,3.7493007,2.1523764,9.0572186,2.5648854,-7.8244276,-4.9770994,-9.3971939,0.8810617,7.4986014,1.3740458,20.3816795,-9.3664122
2520,3.8618276,2.3415172,9.0596132,3.1221373,-4.0305343,-4.6259542,-11.2766323,0.3303981,7.5105724,70.7862625,54.8396950,-25.1450386
2530,3.8330972,2.2098370,8.9710283,2.8854961,-3.6335878,-3.9541984,-12.8184900,1.0558375,6.9479380,86.4885483,57.9389305,-27.8091602
2540,3.8953462,2.3965836,8.9973640,2.5954199,-2.5801528,-3.2748091,-15.5023766,2.6910689,5.9471664,91.1755753,37.4351158,-18.1297703
2550,3.7828193,2.3582766,8.8585014,1.4580153,-0.1755725,-2.3816793,-17.2453461,2.9616125,5.0756817,88.1679382,2.6946564,2.8625953
2560,3.7756367,2.3415172,8.7435799,0.2595420,-0.0229008,-1.5572519,-17.6044750,2.3367288,4.1587071,74.8320618,-16.7175579,31.7328243
2570,3.8690102,2.3846128,8.8321648,-1.0992366,2.5419848,-0.5190840,-17.0993004,1.6041069,3.8977404,54.7862587,-17.1374054,63.2900772
2580,3.9432299,2.3726418,8.9231443,-4.1908398,4.3740458,-0.1374046,-15.6819410,0.9624642,4.2377152,24.9389305,19.9770985,109.5648880
2590,3.9144998,2.3630650,8.9135675,-4.7022901,5.1221375,-0.4503817,-16.5175133,0.6991033,4.5992379,10.7709923,41.0534363,134.2595367
2600,3.8737986,2.2505381,9.0859489,-4.7404580,4.9083967,-1.0305344,-17.5470142,1.1348459,5.2432747,-3.5572519,57.2137413,168.4809113
2610,3.7732425,2.2050486,9.1146793,-4.1526718,4.4351144,-1.2442749,-17.4919491,1.3359578,6.1817970,-15.9770994,70.4122162,208.3587799
2620,3.7229645,2.1643472,9.0763721,-3.2442749,4.5801525,-0.7251908,-17.1280308,1.2856797,7.6374645,-21.8091602,88.7709961,247.6793823
2630,3.6295912,2.2170193,9.2080526,-2.7786260,3.6183207,-0.8015267,-16.4265347,0.4788379,8.9255381,-17.1984730,97.5267181,250.1297760
2640,3.5793133,2.2505381,9.2415714,-2.2977099,2.7557251,-0.4961832,-14.9158001,-0.5554519,9.4211359,-0.4122137,93.0839691,250.1297760
2650,3.4907281,2.2385671,9.2008705,-1.3740458,2.8778627,-0.4351145,-12.2223368,-1.0007712,9.2918491,20.4351139,86.8091583,250.1297760
2660,3.3877780,2.3079987,9.2008705,-1.2671756,2.2213740,-0.0152672,-9.6437950,-1.0869620,8.4275465,38.3816795,82.9694672,250.1297760
2670,3.8785870,2.2409613,9.1338329,2.5725191,-3.2748091,-2.1984732,-2.1906834,0.3710994,2.0374553,12.5114508,151.8931274,250.1297760
2680,3.7157819,2.4301023,9.0284882,2.5877862,-2.2824428,-2.8091602,-0.0071826,-0.2633608,2.5210814,-9.4961834,175.4885559,250.1297760
2690,3.5697365,2.4827745,8.8776541,2.1374047,-2.0381680,-2.6793892,1.8650736,-0.9193687,3.1459649,-17.3129768,180.8320618,250.1297760
2700,3.4811516,2.5330524,8.8800488,1.3511450,-2.3969467,-1.7022901,3.5026991,-1.5298871,3.7349355,-20.9847336,182.3053436,250.1297760
2710,3.4500270,2.5330524,8.8800488,-0.2213740,-1.5343511,-0.8015267,5.4994531,-1.4891858,4.7596488,-18.8091602,176.3358765,250.1297760
2720,3.4380560,2.5019281,8.8417416,-1.5419847,-1.2671756,-0.2061069,6.9287844,-1.3191984,5.6598639,-11.7862597,166.3358765,250.1297760
2730,3.5864959,2.3678534,9.0356712,-3.4809160,-2.0076337,0.9389313,9.5911226,-0.9864060,5.6215568,16.7480907,100.3664093,250.1297760
2740,3.7708483,2.2481439,9.0883436,-3.5572519,-1.3893130,1.4809160,11.1234045,-0.5841822,4.6279683,24.6641216,61.1297722,228.3435059
2750,3.7947903,2.1643472,9.1721401,-2.9160306,-1.6335878,1.6564885,12.5862541,-0.0646431,3.5338237,22.7709923,21.9083977,180.3740387
2760,3.9312592,2.0254843,9.2056589,-1.9541985,-2.2290077,1.4885496,14.4513273,0.8307837,2.6192431,11.7480917,-15.8549614,129.9923706
2770,4.2233500,1.9943599,9.0907373,-0.1603053,-0.2671756,1.5725191,19.6126022,1.7932479,1.3886299,-37.4961815,-98.9542007,11.2213745
2780,4.2448978,2.0566087,9.0811605,-0.0229008,0.9160305,0.6030535,19.6126022,1.8938038,1.7309990,-62.0992355,-119.6335907,-72.6946564
2790,4.2089849,2.1308286,9.0572186,0.3053435,0.8625954,-0.8015267,19.6126022,1.2569494,3.0214672,-74.2824402,-116.4503784,-173.6030579
2800,4.1850433,2.2720859,9.0931320,1.1908396,0.9694657,-2.5343511,19.6126022,0.2920911,4.0342093,-72.0534363,-100.1603088,-250.1374054
2810,3.9144998,2.3223639,9.0500364,1.5877863,1.1374046,-3.7251909,19.6126022,-0.6703730,4.8242917,-63.6793900,-90.6717529,-250.1374054
2820,3.6966286,2.3941894,9.0332766,1.2748091,1.3358779,-3.9465649,19.6126022,-2.9592183,4.9918852,-59.0381660,-99.6106873,-250.1374054
2830,3.6343796,2.3774302,8.9566631,0.4961832,3.0687022,-3.8473282,19.6126022,-6.8354111,5.1139889,-62.7175560,-126.7251892,-250.1374054
2840,3.3925664,2.3654592,9.0620070,-0.3740458,2.3740458,-2.9541984,15.9524841,-12.8567972,5.3941088,-73.0992355,-163.5725250,-250.1374054
2850,3.3159523,2.4564383,9.0236998,-0.0839695,-0.4122137,-1.6106870,9.4067707,-18.4735661,5.2073622,-88.4885483,-198.9770966,-250.1374054
2860,3.2321558,2.4636209,9.0620070,0.3282443,0.5725191,-0.3969466,0.8044477,-19.6131992,5.2480631,-105.3893127,-227.9541931,-250.1374054
2870,3.2321558,2.5282640,9.0787668,0.0839695,0.4656489,1.2824427,-7.1370788,-19.6131992,5.0110383,-127.4122162,-243.9236603,-250.1374054
2880,3.2872221,2.3989778,9.0859489,-0.7786260,0.0152672,2.6488550,-16.7545376,-19.6131992,5.1929970,-157.1450348,-250.1374054,-250.1374054
2890,3.4332676,2.4277081,9.0667953,-1.0229008,-0.7022901,3.7175572,-19.6131992,-19.6131992,7.0341287,-192.6030579,-250.1374054,-250.1374054
2900,3.6176202,2.4037662,8.9901810,-1.0000000,-1.2900764,4.4274807,-19.6131992,-19.6131992,12.4545736,-232.0534363,-250.1374054,-250.1374054
2910,3.7923961,2.3079987,9.0644016,-1.1068702,-1.4580153,4.3053436,-19.6131992,-8.7100611,19.6126022,-250.1374054,-250.1374054,-250.1374054
2920,3.8307030,2.3367288,9.0236998,-0.8702290,-1.9083970,3.4351146,-19.6131992,-1.8578910,19.6126022,-250.1374054,-250.1374054,-250.1374054
2930,4.0126615,2.2074428,9.0476418,-0.5343512,-1.8702290,2.3206108,-19.6131992,-1.9368993,19.6126022,-165.6564941,-250.1374054,-76.8625946
2940,4.1012464,2.1763182,9.0356712,-0.2595420,-1.5725191,1.6717557,-19.6131992,-4.7668314,19.6126022,8.6106873,1.7480916,138.7099304
2950,4.0557570,2.1954718,9.0548248,0.2213740,-1.2671756,0.5954198,-19.6131992,-5.0445571,19.6126022,157.4198456,250.1297760,250.1297760
2960,4.0581512,2.1284344,8.9303265,0.5648855,-1.4732825,-0.5038168,-12.8974981,-3.6535332,16.2613354,228.4809113,250.1297760,250.1297760
2970,4.0916696,2.1763182,9.1003141,1.0763359,-1.9083970,-1.9541985,-8.5400734,-0.6823440,10.0795374,228.3740387,250.1297760,250.1297760
2980,3.9695661,2.2409613,9.0811605,1.7709924,-2.1984732,-3.5725191,-7.1729918,1.5825592,6.0477223,183.7251892,250.1297760,250.1297760
2990,3.7923961,2.2720859,9.0260944,2.3740458,-2.7938931,-4.0381680,-5.6550756,1.9943599,4.5417776,137.2442780,247.1832123,188.2748108
3000,3.5817075,2.4061604,8.9518747,2.3816793,-3.2900763,-2.5725191,-2.2050486,3.9815371,1.7046629,-13.4122133,-159.6641235,-50.8549614
3010,3.5601597,2.4348907,8.9422979,1.6717557,-3.5267177,-1.4961832,-2.6982515,3.4955165,3.0837159,-28.4198475,-163.4961853,-67.8244247
3020,3.7181761,2.4492557,8.9231443,0.5038168,-2.3053436,-0.9236641,-2.7868366,2.7461352,4.0342093,-31.5267181,-147.4427490,-77.8473282
3030,3.7181761,2.4133430,9.0165176,-0.3053435,-2.5190840,-0.6335878,-3.2537034,2.3917952,4.7620430,-26.2671757,-105.3053436,-82.6793900
3040,3.7636659,2.4348907,9.0045462,0.0305344,-3.3206108,-0.5877863,-4.8673873,2.6144550,5.3390427,-13.9923668,-46.3053436,-77.5114517
3050,3.8139439,2.3870070,8.9710283,0.4351145,-2.4198472,-0.3893130,-6.6702118,2.7820482,5.6143742,2.4809160,7.8015265,-58.7862587
3060,3.8618276,2.3654592,9.1458035,0.3206107,-2.3511450,0.0534351,-8.4275465,2.7030399,5.3246775,30.0534344,71.6564865,-13.1221371
3070,3.8043671,2.3750360,9.1721401,0.4885496,-1.8931298,0.2137405,-8.4658537,2.7964132,4.7357068,38.4503822,77.7022934,4.4045801
3080,3.7995787,2.3534882,9.0500364,1.2671756,-1.8549619,0.4122137,-8.2144642,2.6336083,4.3310885,42.4503822,70.5038147,14.9541988
3090,3.7636659,2.3439114,9.0763721,1.6870229,-2.2213740,0.1679389,-7.7380204,2.3534882,3.6104376,41.3740463,56.5190849,18.8625946
3100,3.7947903,2.4229198,8.9542685,1.9465649,-2.5190840,0.2290076,-7.0389171,2.1667414,3.0813217,34.5419846,40.3435097,17.6564884
3110,3.8761928,2.3343346,9.0236998,1.8625954,-2.4580152,0.3816794,-6.4619174,2.0135133,2.7700772,23.1603050,26.5877857,10.9770994
3120,3.9049230,2.4301023,8.9207497,1.8625954,-1.7404580,0.2900763,-6.0525107,1.8746504,2.9831600,9.6488552,13.9312973,2.4122138
3130,3.8714044,2.4492557,8.8585014,1.4351145,-1.2519084,0.4198473,-5.9040713,1.8554969,3.2417326,-1.7099236,1.1450381,-8.4885492
3140,4.0653338,2.4277081,8.7004843,-0.2824427,-0.0381679,0.5419847,-6.0596933,1.8938038,4.5130472,-11.8473282,-22.1526718,-31.4580154
3150,4.1395535,2.4540441,8.8034344,-1.1068702,1.7404580,0.1145038,-6.1913738,2.1284344,4.8290801,-11.4045801,-30.4885502,-41.3282433
3160,4.1443419,2.3247581,8.8082228,-1.9923664,2.3664122,-1.1297710,-6.7803445,2.1978660,4.6878228,-13.1755724,-47.4809151,-56.8091621
3170,4.1251884,2.3151813,8.9518747,-2.7099237,1.6106870,-2.1221373,-9.8664551,3.1675127,4.4077029,-25.9770985,-83.8549652,-79.5877838
3180,4.0940638,2.2672975,8.8728657,-2.8473282,1.8778626,-2.3969467,-13.6444855,2.7676830,3.9121056,-50.9541969,-138.8167877,-87.4122162
3190,4.0102673,2.2601149,9.0213060,-2.9312978,2.6564887,-2.6106870,-16.9628315,2.3486998,4.6040263,-77.5038147,-188.2290039,-68.3358765
3200,3.8330972,2.3846128,9.1481981,-2.8931298,2.1145039,-3.2366412,-15.6077213,2.2337787,6.5744443,-85.2595444,-180.6641235,-31.3282452
3210,3.8235207,2.4444675,9.1769285,-1.8549619,3.2824428,-3.2748091,-11.8320847,2.6743097,8.0229292,-71.2671738,-141.4961853,-1.8549619
3220,3.4452386,2.2888451,9.3995876,0.0381679,0.0534351,-3.1221373,-8.7387915,2.5426292,8.3533268,-45.1145020,-103.4580154,11.9007635
3230,3.3590479,2.5809362,9.2750902,2.8549619,-1.2213740,-2.4961832,-6.9144192,2.0877333,7.9032192,-20.4198475,-66.5725174,13.9618320
3240,3.2130022,2.5402350,9.2152348,4.3129773,1.0992366,-0.8473282,-6.5050125,2.0039365,6.8569584,-5.9694657,-41.6106873,12.3664122
3250,3.1555417,2.5234756,8.9901810,4.0229006,0.2824427,1.5038168,-6.8258343,2.1116750,5.9663200,-4.7709923,-39.0687027,11.3816795
3260,3.2896163,2.5498118,8.7938576,3.0534351,0.0000000,3.9007633,-6.5552907,2.0159075,5.4898763,-13.2519083,-50.8320618,8.6564884
3270,3.4931223,2.5474176,8.7363977,1.5038168,-0.6335878,4.7862597,-6.1530671,1.7669119,5.4276276,-23.0534344,-59.7786255,2.0839694
3280,3.6726866,2.5713594,8.7028790,-0.0839695,-2.4580152,4.1526718,-6.0070214,1.4077834,5.7460546,-31.3511448,-57.8854980,-5.7480917
3290,3.8977404,2.4612267,8.8585014,-1.3511450,-3.6793892,3.2290077,-6.2105274,1.2952565,6.3278427,-36.3664131,-51.3282433,-12.2442751
3300,3.9935081,2.3702476,9.0236998,-1.8396946,-4.4274807,1.9312977,-6.5505023,1.3263810,6.8234401,-38.8091621,-43.1068687,-17.0916023
3310,4.1060348,2.2840567,9.1697454,-0.7328244,-5.1679387,0.6946565,-6.7372489,1.3670821,7.4890246,-37.5954208,-34.2061081,-19.6488552
3320,4.0389977,2.2960277,9.2607250,0.8396947,-4.4961834,0.1526718,-6.9096308,1.4077834,8.0037756,-32.9465637,-26.4961834,-20.3358784
3330,4.0701222,2.4253139,9.2391768,2.4656489,-3.9541984,0.1068702,-7.0700417,1.3790531,8.3054428,-26.1221371,-21.4503822,-20.4274807
3340,3.9839313,2.4109488,9.0260944,3.1145039,-2.6717558,0.2595420,-7.2400289,1.3982066,8.4347296,-18.6488552,-17.6106873,-18.9312973
3350,3.8618276,2.5186872,8.9518747,3.0000000,-1.7480916,0.1145038,-7.1011658,1.3814473,8.3269911,-12.6564884,-14.8473282,-19.2213745
3360,3.8474624,2.3822186,8.9782104,-1.3206106,-2.9236641,-0.4580153,-6.3086891,1.4987626,7.4794478,5.2290077,3.4580152,-30.7175579
3370,3.8977404,2.2912393,9.1194677,-1.2900764,-3.4503818,0.1832061,-6.3853035,1.5466464,7.1993275,6.0992365,6.8702292,-34.8091621
3380,3.9815371,2.1930776,9.0955257,0.1755725,-3.6335878,0.2137405,-6.5241661,1.5346755,7.2112985,6.7175574,10.6183205,-38.1679382
3390,4.0701222,2.2194135,9.1386213,1.8091604,-3.3969467,0.2748092,-6.7492199,1.1923064,7.1370788,7.7938933,15.2137403,-41.8931313
3400,4.1467361,2.2265961,9.0428534,2.5190840,-3.2519083,-0.0381679,-7.4100165,1.1085097,7.1179252,9.0534353,18.4045811,-47.1984749
3410,4.2664456,2.3846128,8.9039907,2.9312978,-1.1068702,-1.5038168,-9.7036495,0.8259954,6.9934273,8.2290077,14.0916033,-52.5572510
3420,4.2329268,2.4372849,8.8201942,2.5648854,-0.9541985,-2.8244274,-11.0922794,0.4141948,6.8090749,-0.6335878,-0.4427481,-53.4580154
3430,4.0725164,2.5617826,8.8417416,2.1908398,-1.0534351,-3.8778627,-12.3875360,0.3830703,7.2998838,-12.8091602,-6.7022901,-51.1679382
3440,3.9240766,2.4708035,8.8273764,1.6030535,-0.2290076,-4.1145039,-14.5758257,0.3782819,8.3652983,-22.2595425,-4.6564884,-40.3129768
3450,3.6774750,2.6838863,8.8273764,-0.6412213,0.9160305,-3.2748091,-17.4225159,0.0622489,11.4226780,-19.8473282,26.2900772,14.0458012
3460,3.4308734,2.5905130,8.8992023,-1.2366412,0.6183206,-1.0839695,-18.4568062,-0.4189832,12.6580801,-4.6335878,44.0992355,49.4351158
3470,3.5290353,2.6048782,8.9111729,-1.9083970,0.8931298,0.2442748,-18.8207226,-0.6536137,13.5774488,17.8244267,51.5648842,81.2824402
3480,3.5386121,2.6336083,9.0165176,-2.0381680,0.2824427,-0.3511450,-18.6531296,-0.8451489,13.7737722,40.2595406,50.3129768,109.1984711
3490,3.3829896,2.6072724,9.1362267,-0.5801527,-0.9160305,1.8549619,-18.3227310,-1.2066715,13.2590208,60.7099228,43.4809151,131.5419922
3500,3.4787574,2.5258698,9.0500364,0.5877863,-1.0305344,4.4427481,-18.2580891,-1.1899122,12.5766773,76.6183243,30.0000000,150.3129730
3510,3.5697365,2.5258698,8.9614515,0.2137405,-0.8320611,5.7404580,-17.9444504,-1.0007712,11.9302464,89.5572510,11.8931293,169.7633514
3520,3.7397239,2.5617826,8.9207497,-1.2442749,-1.0610687,6.1755724,-17.6810894,-0.7134684,10.9222927,100.0992355,5.2748094,192.2671814
3530,3.9216824,2.4899571,8.8321648,-1.2519084,-1.1297710,6.0076337,-17.3985748,-0.5051740,9.7730818,108.8549652,10.6030531,220.5572510
3540,4.0222383,2.5426292,8.9063845,-1.3053435,-1.1832061,5.3816795,-16.8790359,-0.3854645,8.8225880,114.3435135,24.3664131,250.1297760
3550,4.2018023,2.5713594,8.8058290,-1.9465649,-0.8473282,4.1984735,-16.7377777,-0.1484398,8.4682484,118.1374054,46.5343513,250.1297760
3560,4.1826491,2.4803803,8.8154058,-2.6564887,-0.5725191,3.1908398,-15.9500904,-0.5147507,7.8816719,121.6259537,70.6335907,250.1297760
3570,4.1754665,2.4516499,8.9351149,-2.8549619,-0.6335878,1.9618320,-14.1400833,-1.1779412,6.9910331,123.6641235,97.1297684,250.1297760
3580,4.1108232,2.4684093,8.9590569,-2.0305343,-0.1832061,1.4122137,-11.2694502,-1.8483143,6.5744443,122.5419846,119.7557220,250.1297760
3590,3.9791429,2.4564383,8.9949694,-1.9847329,0.1145038,1.6946565,-8.6597834,-2.4516499,6.0070214,120.3587799,137.0076294,250.1297760
3600,3.9767487,2.4468615,9.0045462,-1.3740458,1.0916030,2.1832061,-6.7228842,-2.9855542,5.4659348,116.5496216,145.8702240,250.1297760
3610,3.8235207,2.3223639,8.9877872,-1.1908396,1.6488550,2.8396947,-4.7237358,-3.2201848,4.6973996,112.4732819,144.8320618,250.1297760
3620,3.8642218,2.3989778,8.9422979,-1.5954199,2.0839694,4.2366414,-2.5043221,-3.5386121,3.7995787,105.8396912,141.2442780,250.1297760
3630,3.8402798,2.3486998,9.0332766,-2.0534351,2.0534351,6.1679387,-0.0047884,-3.6894460,3.1507533,95.5038147,145.6259613,250.1297760
3640,3.9049230,2.3630650,9.0284882,-0.8702290,0.9847328,10.9923668,4.1204000,-3.1723011,3.4907281,63.2213745,190.5725250,250.1297760
3650,3.9767487,2.4181314,9.0045462,-0.1068702,0.9618320,12.1526718,4.8147149,-2.9975252,3.8115497,57.2748108,197.9770966,250.1297760
3660,4.0964580,2.5067163,8.8776541,0.5725191,0.9541985,8.7175570,7.0748301,-3.3015873,3.0573800,25.9236641,154.5572510,250.1297760
3670,4.0940638,2.5067163,8.9111729,1.4198474,0.3740458,6.0534353,7.8888540,-3.4189026,2.8849983,7.0839696,132.3740387,250.1297760
3680,4.0629396,2.5737536,8.8034344,0.2748092,0.1145038,3.6946564,9.1481981,-2.6695213,3.1962428,-10.3969469,94.0076370,250.1297760
3690,4.1060348,2.3870070,8.8944139,-0.4961832,-0.3053435,1.4045801,10.8720140,-3.5170643,3.7133877,-23.4274807,33.9923668,250.1297760
3700,3.9911139,2.4708035,8.8106174,-1.3816794,-1.3587786,-0.7480916,14.4393568,-2.6312141,3.6128318,-31.3969460,-43.5267181,216.1984711
3710,3.9982965,2.4229198,8.8896255,-2.3816793,-1.9923664,-2.1145039,18.8039646,-2.1451938,2.3917952,-42.3129768,-112.0381699,143.3816833
3720,3.9671719,2.3415172,9.0452480,-1.9541985,-1.8473282,-2.8931298,19.6126022,-1.3479286,1.4269369,-59.5190849,-142.7862549,61.6335869
3730,3.9887197,2.2864509,9.0548248,-0.8854962,-2.3816793,-3.4580152,19.6126022,-0.2777260,1.4891858,-77.2137375,-124.4656525,-28.9694653
3740,3.9935081,2.3558824,9.0404596,-0.0839695,-2.2290077,-3.7022901,19.6126022,0.6416427,2.7054341,-84.6183243,-76.8244247,-124.1755753
3750,3.9575951,2.3199697,9.0284882,0.5801527,-1.4885496,-3.6488550,19.6126022,0.3974355,3.7062054,-79.4122162,-24.4122143,-224.2290039
3760,3.8594334,2.4324965,9.0428534,1.0076336,-1.7404580,-3.4580152,19.6126022,-0.7972651,3.8785870,-68.8320618,13.1450386,-250.1374054
3770,3.8642218,2.4109488,8.9590569,0.6793893,-1.7328244,-3.0229008,19.6126022,-2.8730273,3.4404502,-61.1603050,26.9465656,-250.1374054
3780,3.8809812,2.3534882,8.8321648,0.3129771,-1.3969465,-2.6641221,19.6126022,-5.6622581,3.4404502,-56.7175560,25.2137413,-250.1374054
3790,3.8833754,2.4899571,8.9183559,0.3435115,-1.7709924,-2.6106870,17.1830978,-9.0524302,3.6200144,-53.9236641,17.0076332,-250.1374054
3800,3.8905578,2.4516499,8.8896255,0.1526718,-2.3816793,-2.7404580,12.4426022,-12.4545736,4.0629396,-50.3435097,4.1603055,-250.1374054
3810,3.8905578,2.4468615,9.0069408,-0.0534351,-2.3969467,-2.7480917,8.3509331,-16.4576588,4.9703374,-45.8549614,-14.2748089,-250.1374054
3820,3.9599893,2.4372849,9.0452480,0.0534351,-2.5267177,-2.7938931,2.0566087,-19.6131992,6.6390872,-39.2442741,-38.5114517,-250.1374054
3830,3.9480183,2.4851687,8.8968077,0.0381679,-2.6183207,-2.4351146,-8.0564480,-19.6131992,8.3629036,-29.1526718,-136.7709961,-250.1374054
3840,3.9887197,2.3319404,8.9135675,0.4122137,-2.1374047,-1.9694656,-19.6131992,-19.6131992,8.7555504,-35.5114517,-250.1374054,-250.1374054
3850,3.9456241,2.3798244,8.9015961,0.4656489,-1.6717557,-1.4045801,-19.6131992,-19.6131992,8.8728657,-61.9007645,-250.1374054,-250.1374054
3860,3.8881636,2.3989778,8.9111729,0.3206107,-1.7557251,-0.8854962,-19.6131992,-13.9844608,11.4681673,-77.3740463,-250.1374054,-250.1374054
3870,3.9144998,2.4253139,8.9446917,0.0992366,-1.7022901,-0.6488550,-19.6131992,-5.2049680,14.8679161,-56.5114517,-214.4656525,-250.1374054
3880,3.9791429,2.4612267,8.9782104,0.8625954,-1.8854961,-0.0763359,-19.6131992,0.6177009,16.5199070,-17.0916023,-29.7022896,-250.1374054
3890,3.9623835,2.3678534,9.0189114,1.2290076,-1.4809160,0.1068702,-19.6131992,2.8730273,15.2988710,18.5572510,75.9923630,-134.6793823
3900,3.9743545,2.4660151,8.8968077,2.0152671,-2.2366412,-0.0687023,-19.6131992,2.8969693,9.4019823,64.2900772,200.1221313,82.5572510
3910,3.8929520,2.4875629,8.9207497,2.0687022,-2.5190840,-0.1221374,-19.6131992,2.7293761,6.7348547,57.0916023,220.0915985,112.5267181
3920,3.9312592,2.5210814,8.9327211,2.1755726,-3.1374047,-0.1297710,-14.5063934,2.8754215,5.8585815,36.8167953,193.2137451,105.7175598
3930,3.9528067,2.4277081,8.9710283,1.8778626,-2.8625953,0.4656489,-9.2511482,3.5912843,6.4762826,8.0992365,54.6106873,38.7709923
3940,3.9504125,2.4277081,8.9949694,2.2824428,-2.7557251,0.8167939,-8.1617918,4.0174499,6.5050125,8.7938929,-4.1755724,4.6488547
3950,4.0054789,2.5737536,8.8728657,4.3587785,-3.8702290,0.3129771,-6.1434903,3.7636659,4.1994085,36.0458031,6.4732823,-10.0381680
3960,4.0246325,2.5450234,8.8106174,3.8244274,-3.0839694,0.7404580,-5.5832496,3.2920105,3.7301471,40.3282433,19.0458012,-12.2595415
3970,4.0820932,2.6431851,8.6741486,3.2748091,-3.0229008,0.6641222,-5.6215568,3.0861101,3.1531475,41.2290077,22.6030540,-17.0458012
3980,4.1826491,2.5929072,8.6286592,2.3358779,-1.9694656,0.7099237,-6.1626434,2.9711890,2.6192431,38.2595406,15.6183205,-24.0839691
3990,4.2329268,2.5929072,8.6286592,0.8473282,-1.0992366,0.3282443,-6.7755561,2.7461352,2.3774302,31.2061062,2.0992367,-32.5419846
4000,4.2712340,2.5210814,8.5951405,-0.4809160,-0.3129771,-0.0152672,-7.4626884,2.8107784,2.3989778,21.6106873,-14.5725193,-39.5343513
4010,4.2640514,2.5976956,8.7699156,-1.6259542,0.6259542,-0.8702290,-8.0612354,2.9448531,2.6599445,12.7022905,-30.0992374,-43.0381660
4020,3.7469065,2.6551561,9.0045462,0.2671756,0.4427481,1.4198474,-10.3931761,2.8347204,4.8961172,10.7633591,0.3206107,-18.5267181
4030,3.7277529,2.6575503,8.9806042,0.8854962,-0.4961832,1.4198474,-10.6709023,2.7317703,5.1355362,8.7709923,-2.3129771,-17.6335869
4040,4.0389977,2.5929072,8.8010406,1.2213740,-0.2137405,4.9694657,-12.9573536,2.6671271,6.0956063,12.4198475,-30.2061062,-14.6183205
4050,4.1156116,2.5498118,8.7100611,0.3587786,0.7022901,5.0992365,-13.9653072,2.5929072,6.1889796,16.0076332,-19.0076332,-6.7786260
4060,4.3933377,2.4923513,8.6669655,-0.6641222,0.0916031,4.1832061,-15.0809994,2.6695213,6.5912037,21.1374054,-5.3664122,5.4198475
4070,4.4938936,2.4420733,8.7076674,-1.0381680,-1.3053435,1.8549619,-16.0841656,2.8490853,6.5864153,26.8091602,4.9770994,22.1832066
4080,4.5872669,2.4468615,8.9015961,-1.0763359,-3.0916030,-0.7328244,-17.0897236,3.1914546,6.3709383,31.9541988,12.9389315,43.4198456
4090,4.6207857,2.3415172,9.0931320,-0.5954198,-3.5038168,-3.4885497,-17.6355991,3.2225790,6.0429344,35.4274826,17.2061062,67.3740463
4100,4.2879934,2.4803803,9.1817169,3.1984732,-3.9618320,-7.6946564,-18.2173882,3.2560976,5.1618724,35.0534363,18.0229015,120.3511429
4110,4.0868812,2.6623387,9.0835552,5.3511453,-4.2671757,-8.5343513,-18.1838684,3.1699069,4.6255741,30.0763359,16.8167934,149.1450348
4120,3.7852135,2.7102225,8.9686337,6.6564884,-3.9923663,-8.1068707,-17.6858768,2.8395088,4.2975702,22.6564884,17.8167934,178.0915985
4130,3.5170643,2.9065459,8.6765423,6.2748094,-3.7404580,-6.7862597,-17.0633888,2.6958573,4.1970143,15.6030531,24.8091602,209.0534363
4140,3.4165084,2.9855542,8.5304966,4.5190840,-3.5572519,-4.5114503,-16.4768124,2.5115047,4.0916696,10.4580154,42.1679382,241.0152740
4150,3.4931223,2.9616125,8.4826136,-1.1145039,-5.0763359,-0.8320611,-16.3283730,2.1212518,4.0413918,3.2977099,77.7862625,250.1297760
4160,3.5553713,2.8371146,8.6645718,-2.7480917,-6.8473282,0.2366412,-14.4441452,1.2473727,3.8618276,-1.0534351,87.0839691,250.1297760
4170,3.8785870,2.8251436,8.7962523,-3.5496182,-7.1679387,0.6717557,-11.8679972,0.4572902,3.9552009,-6.9618320,96.9923630,250.1297760
4180,4.0126615,2.4803803,8.8920193,-3.9236641,-5.9847326,1.3511450,-9.3540983,-0.1915352,4.1251884,-11.6870232,103.4961853,250.1297760
4190,4.1563129,2.3774302,9.0356712,-3.1679389,-6.2061067,2.3816793,-7.2328463,-0.6081241,4.4436154,-12.1450386,105.9618301,250.1297760
4200,4.4460096,2.2912393,9.1505919,-0.8167939,-4.8778625,2.9389312,-5.4276276,-1.0151364,4.5776901,-8.4274807,100.3206100,250.1297760
4210,4.7285242,2.3774302,8.7004843,2.9465649,-1.6412214,0.4274809,0.2346306,-0.9792235,4.2281384,2.8854961,90.7709961,250.1297760
4220,4.7524662,2.3870070,8.6142941,2.2213740,-0.1374046,-0.4351145,1.1372399,-0.7781116,4.2832050,4.6183205,87.3358765,250.1297760
4230,4.7045822,2.5019281,8.6190825,1.3053435,1.0763359,-1.8473282,1.4772149,-0.5123565,4.0773048,7.5496182,75.4122162,250.1297760
4240,4.6566987,2.5641768,8.6909075,0.4122137,1.0763359,-3.5725191,1.6448082,-0.6799498,3.7133877,8.6259546,51.8931313,250.1297760
4250,4.4795284,2.6048782,8.7675219,0.4427481,1.4809160,-4.9541984,2.0063307,-0.8810617,2.4109488,5.3053436,25.9541988,250.1297760
4260,4.2568688,2.6479735,8.7866755,0.6259542,1.3740458,-5.9312978,2.8299320,-1.3096216,1.0295014,-4.8244276,5.9923663,250.1297760
4270,3.9312592,2.7317703,8.8800488,0.9770992,3.9694657,-4.1374044,6.0668759,-2.6312141,-0.0622489,-39.3587799,-10.0076332,250.1297760
4280,3.5529771,2.9664006,8.8177996,1.6717557,1.7633588,-0.7022901,13.7618008,-2.7269819,2.9256995,-64.9618301,61.5801544,250.1297760
4290,3.6535332,2.9304879,8.6717539,-0.6793893,-3.1908398,2.1221373,19.6126022,-0.6392486,6.8952656,-34.4580154,134.1221313,68.3969498
4300,3.7205703,2.7150109,8.7675219,-0.9694657,-3.7633588,3.6259542,19.6126022,-0.9313397,7.6470413,-24.4198475,126.1603088,-42.9083977
4310,3.9384418,2.6743097,8.8680773,-0.9847328,-4.1832061,4.8625956,19.6126022,-0.0215477,8.5688038,-9.2900763,118.1679382,-171.8473358
4320,4.0437860,2.7365584,8.9231443,-0.5267175,-3.8091602,5.0152674,19.6126022,-0.5099624,8.8489246,14.5419846,108.9312973,-250.1374054
4330,4.2496862,2.6455793,8.9183559,-0.0229008,-3.4732823,4.7022901,19.6126022,-2.8012016,8.6382351,42.3816795,84.1603088,-250.1374054
4340,4.3837609,2.6264257,8.7986460,0.2595420,-2.4045801,4.8473282,19.6126022,-7.2496057,7.4291697,64.1679382,40.8778610,-250.1374054
4350,4.4747400,2.5617826,8.6549950,0.2213740,-1.2366412,4.2977099,19.4575768,-13.4122496,6.0716643,73.4274826,-25.9236641,-250.1374054
4360,4.5968437,2.6024840,8.6095057,-0.8854962,0.1984733,3.2290077,10.9103212,-19.6131992,4.0844874,66.4351120,-99.1832047,-250.1374054
4370,4.6207857,2.5474176,8.6023226,-1.3053435,0.8015267,1.5267175,0.2992737,-19.6131992,2.3343346,50.8702278,-149.9007568,-250.1374054
4380,4.5369892,2.5953014,8.5759869,-2.5114503,2.0534351,1.3435115,-11.8033543,-19.6131992,0.5674229,27.2595425,-224.6641235,-250.1374054
4390,4.3933377,2.5665710,8.7028790,-4.1526718,4.0458016,2.3740458,-19.6131992,-19.6131992,-1.6807210,-23.2671757,-250.1374054,-250.1374054
4400,4.3670015,2.5976956,8.7531567,-4.8473282,5.2900763,1.8244275,-19.6131992,-19.6131992,-0.5602403,-110.4809189,-250.1374054,-250.1374054
4410,4.3167233,2.5953014,8.8920193,-4.0534353,4.2061067,0.5877863,-19.6131992,-16.9197369,6.3206601,-196.4885559,-250.1374054,-250.1374054
4420,4.1467361,2.5785420,8.9901810,-2.4885497,3.4045801,-0.1984733,-19.6131992,-5.6454988,17.5877151,-237.3053436,-250.1374054,-250.1374054
4430,4.0820932,2.6168492,8.9853926,-1.3206106,2.2442749,-0.6717557,-19.6131992,0.7972651,19.6126022,-187.7633514,-250.1374054,-250.1374054
4440,3.9599893,2.6503677,9.0763721,-0.1221374,1.2977099,-0.7633588,-19.6131992,0.3567342,19.6126022,-40.8167953,-163.5114441,-125.9618301
4450,3.7516949,2.6240315,8.9255381,0.7328244,0.1832061,-0.3893130,-19.6131992,-0.3016679,19.6126022,125.9923630,126.5648880,86.4045792
4460,3.5793133,2.6719155,8.7866755,0.3053435,0.7557252,1.8244275,-19.6131992,-0.4932030,14.7051115,212.8702240,250.1297760,230.6488495
4470,3.3901722,2.7054341,8.5807753,-0.7328244,1.3969465,5.6793895,-18.7417145,-0.2657550,8.0348997,214.8549652,250.1297760,250.1297760
4480,3.2824337,2.7676830,8.6310530,-2.6412213,1.7633588,10.0534353,-12.0044661,0.9241571,4.5513539,168.0000000,250.1297760,250.1297760
4490,3.5649481,2.8012016,8.6789370,-4.5648856,2.7557251,13.9389315,-6.6438756,1.6472024,3.2656744,108.4351120,250.1297760,222.1145020
4500,4.2520804,2.7628946,8.9518747,-5.3816795,1.8702290,15.4580154,-1.8602852,3.6678982,2.9209111,-4.5725193,-145.6030579,-45.3282433
4510,4.3957319,2.5929072,9.1601686,-4.4351144,-1.2290076,12.8549614,-3.6391680,4.0605454,3.8546450,-19.4351139,-188.5648804,-83.5801544
4520,4.3095412,2.4851687,9.6629486,-1.5343511,-7.1526718,10.1908398,-4.7764082,4.3406653,4.6543045,-21.4885502,-201.6641235,-98.0610657
4530,4.1778607,2.2409613,10.6589317,6.1374044,-24.0000000,7.7251906,-5.0684991,3.8929520,4.7788019,-15.7404585,-196.9541931,-103.4045792
4540,2.8466914,1.7070571,13.5295649,23.0305347,-64.4809189,4.9923663,-5.4515696,3.3734128,4.5369892,-7.4274807,-173.7786255,-103.9618301
4550,2.6647329,1.0510491,15.3180237,60.5343513,-137.0763397,0.5572519,-6.4260044,3.1315999,4.1299767,0.1603053,-131.2671814,-95.0839691
4560,2.7796540,0.1197095,15.5598373,114.8396912,-161.0534363,-4.7328243,-7.6853480,3.2321558,3.9719603,8.3206110,-79.0305328,-75.2290039
4570,2.8754215,-0.6991033,14.2358503,164.5190887,-158.5954132,-8.4580154,-8.8728657,3.5218527,3.9288650,16.5572510,-30.9236641,-46.1374054
4580,2.6216373,0.0598547,11.0850973,194.9923706,-134.9465637,-0.5190840,-9.0213060,3.4667864,3.6559272,22.4122143,3.8091602,-17.9312973
4590,2.8419030,1.3215926,7.9822278,196.1755676,-117.7175598,14.8015270,-8.6621771,3.2896163,3.5649481,23.1374054,23.2595425,4.2290077
4600,2.7269819,2.9927368,6.0932121,180.9007568,-116.0534363,34.2213745,-8.0301113,3.0118904,3.3566537,20.4274807,30.2595425,17.7862587
4610,4.9224534,2.9807658,4.2616572,160.6259613,-119.4198456,45.1755714,-7.2903070,2.8706331,3.2297616,14.8473282,27.9083977,24.7786255
4620,8.2527714,5.8609757,1.5322813,38.9465637,-17.3282452,9.6259546,-5.0996237,2.0422437,4.3478479,-21.4503822,-16.4045811,-24.8778629
4630,8.1115141,5.8897061,1.6495966,16.2290077,-2.1526718,3.9083970,-5.5784616,1.9009864,4.8362627,-25.9007626,-26.6259537,-41.0839691
4640,7.8768835,6.0046272,2.0518203,-3.3435113,12.2824430,-2.1450381,-6.3876977,1.8602852,5.1738434,-29.1221371,-30.7786255,-53.0381660
4650,7.7571740,5.8609757,2.6048782,-21.5725193,25.8549614,-6.7938933,-7.3094602,1.8243724,5.7556314,-30.2213745,-32.1145020,-59.5877876
4660,7.6446471,5.8322453,3.1004753,-38.4656487,40.2671738,-9.8091602,-8.1881275,1.9512644,6.0740585,-29.1221371,-35.5572510,-59.5572510
4670,7.5129666,5.5569139,3.5721307,-55.3740463,55.4503822,-12.6793890,-8.7435799,1.8100072,6.1937680,-27.7862587,-40.4351158,-56.1679382
4680,7.2448173,5.4467812,4.2544746,-71.6641235,70.0763321,-15.3358774,-9.1410151,1.7333932,6.4236102,-25.8931293,-44.8091621,-52.7633591
4690,6.8976598,5.0206151,5.0469513,-84.0305328,83.3740463,-17.4198475,-10.1130562,1.8890154,6.7276726,-25.0305347,-51.2824440,-48.1374054
4700,6.5361371,4.5441718,5.9040713,-91.4045792,92.7251892,-19.2213745,-11.2550850,2.0206959,6.8641410,-28.1755733,-73.4198456,-42.7786255
4710,5.9830794,4.0796990,6.6797886,-94.2595444,93.3282471,-22.8854961,-11.8177195,1.9752063,7.1514440,-32.4656487,-91.5038147,-31.1984730
4720,5.3174949,3.8330972,7.6015515,-92.7480927,81.1908417,-25.1297703,-11.2790270,1.6855093,7.1682034,-32.5343513,-93.2366409,-18.7938938
4730,4.8817525,3.7038112,8.5544386,-88.0763321,61.8854980,-25.3435116,-10.9510221,1.5059452,7.4291697,-27.0381680,-80.6412201,-6.7099237
4740,4.8027439,3.4548154,9.2894554,-79.2977066,49.0458031,-24.5648861,-10.8528605,1.7597293,7.5823979,-22.2748089,-69.9542007,-0.1755725
4750,4.6566987,3.0166788,9.7802639,-67.5190811,42.4503822,-23.6183205,-10.5871058,1.6376256,7.6254935,-17.6335869,-51.0610695,8.2748089
4760,4.3358769,2.8562679,10.1298151,-54.7557259,35.7709923,-22.3511448,-9.4426832,1.8028246,7.5943689,-10.2519083,-32.5877876,15.8396950
4770,3.9647777,2.8131726,10.1944590,-41.0228996,26.6488552,-20.1221371,-8.1234846,1.9943599,7.3693151,-3.7862597,-18.7480907,19.9389305
4780,3.5984666,2.7509236,10.0867205,-27.0305347,16.3740463,-16.6335869,-6.9551206,1.9488702,6.8809004,-0.0305344,-7.8244276,18.6030540
4790,3.5338237,2.7078283,9.7587166,-4.1755724,0.3206107,-5.5190840,-6.0932121,1.8578910,6.5169835,-0.7022901,-7.3435116,5.0687022
4800,3.7181761,2.8538737,9.3086090,3.5496182,-3.4351146,0.7862595,-6.1363077,1.7764885,6.3685441,-1.6946565,-5.6030536,-2.6564887
4810,3.9599893,2.9855542,8.9638453,8.6946564,-5.8702292,6.0000000,-6.5241661,1.7788827,6.3134775,-3.7022901,-7.6335878,-10.8320608
4820,4.2855992,3.2201848,8.6358414,12.1145039,-7.8396945,9.8015270,-7.1083484,1.8483143,6.5840211,-6.7251906,-10.3511448,-14.0381680
4830,4.8027439,3.5170643,8.2719250,13.7328243,-8.5190840,11.4809160,-7.4195933,1.7046629,6.7180958,-7.4198475,-10.0763359,-16.0534344
4840,5.0661049,3.6631098,8.0157461,14.9007635,-9.2290077,11.6412210,-7.5249376,1.8243724,7.1179252,-5.1603055,-4.1526718,-16.8854961
4850,5.4348102,3.9384418,7.5608501,13.8549614,-9.2671757,8.3664122,-7.8577299,1.8267666,7.0868006,2.8091602,5.4274807,-16.0687027
4860,5.5856438,4.0246325,7.3262196,12.2977095,-8.2900763,6.3358779,-7.7595682,1.8267666,6.9886389,6.0916033,11.0000000,-15.5038166
4870,5.5832496,4.0030847,7.1801744,9.4656487,-6.4809160,4.8702292,-7.7236552,1.8052188,6.9120250,8.3740454,16.0229015,-17.0076332
4880,5.6407104,4.0270267,7.1418672,5.9770994,-4.1068702,3.7022901,-7.8266053,1.8004304,6.8473821,9.4351149,18.6335869,-19.2366409
4890,5.5760674,4.0294209,7.0700417,1.3664122,-0.6106870,2.7251909,-7.9175844,1.7717001,6.8425937,9.8778629,19.6488552,-22.6259537
4900,5.5880380,3.8354914,7.2759418,-2.9694657,2.4656489,1.5877863,-8.2192526,1.7286048,6.8114691,9.2824430,19.4885502,-26.3206100
4910,5.5305777,3.7900019,7.4602942,-5.5038166,3.5648854,-0.0458015,-8.7483683,1.7836711,6.8234401,8.7557249,14.7099237,-30.7938938
4920,5.5090299,3.7253587,7.8074517,-6.6412215,3.9694657,-1.4427481,-9.3469152,1.7621235,6.9359670,7.5877862,7.0458016,-34.5801544
4930,5.3677726,3.6583214,8.0205345,-6.0610685,4.0763359,-2.3740458,-10.0747490,1.6974803,6.9670911,5.7633586,0.1068702,-35.4809151
4940,5.0038562,3.6607156,8.1210909,-3.4351146,2.6183207,-3.3053436,-12.2774038,1.5705882,7.6685886,3.1221373,-13.3282442,-28.1450386
4950,4.8434453,3.6631098,8.1115141,-1.4274809,1.4427481,-2.7480917,-13.6684275,1.7142396,8.2024927,5.2519083,-16.6412220,-16.9770985
4960,4.7644372,3.7421181,8.1570034,0.3053435,0.0076336,-2.3435113,-14.5973730,1.7070571,8.6047173,9.0687027,-13.2061071,-1.0687023
4970,4.7452836,3.7852135,7.6925306,0.4427481,-4.3053436,0.4885496,-14.7913027,1.5370697,9.1649570,31.2671757,-4.1374044,65.7938919
4980,4.8865409,3.7876077,7.7140784,-0.4580153,-5.3969464,1.2824427,-14.0634689,1.4652439,8.9063845,39.0534363,0.5496183,83.2213745
4990,5.1044121,3.8115497,7.8146343,-1.4198474,-5.2519083,1.5267175,-13.3404236,1.5179161,8.5257082,46.0000000,5.1984735,99.4809189
5000,5.3390427,3.7325413,7.8122401,-1.7175573,-4.3129773,1.1145039,-12.6772327,1.4413021,8.1785507,52.0839691,12.6106873,112.9618301
5010,5.3581958,3.7085996,7.8744893,-1.7480916,-4.2366414,0.1374046,-12.0020714,1.3862357,7.7045016,56.1297722,22.4045811,125.6335907
5020,5.4443870,3.7708483,7.9056134,-1.3358779,-4.5801525,-1.1145039,-11.3484583,1.5227045,7.5991573,58.7099228,32.2671738,136.4122162
5030,5.5497313,3.7181761,7.8984308,-1.3206106,-3.6717558,-1.7709924,-10.9965124,1.6639616,7.3477674,59.8091621,38.8778610,144.5801544
5040,5.5162125,3.5769191,7.9175844,-1.0076336,-3.2061069,-2.9083970,-10.7092094,1.7908537,7.1490498,60.5801544,38.7709923,151.6183167
5050,5.4180508,3.5529771,7.7787213,-1.1526718,-3.4274809,-4.2366414,-10.4530315,1.6783268,6.7683735,60.8625946,35.9618340,157.5419922
5060,5.3246775,3.6702924,7.7045016,-0.9923664,-3.7251909,-4.7480917,-10.3141680,1.8315549,6.5193777,60.1526718,35.0000000,162.4732819
5070,5.2767935,3.5841017,7.6877422,-1.5954199,-3.3893130,-4.7862597,-10.6541433,1.9632354,6.4236102,58.8702278,35.0992355,169.1221313
5080,5.1762376,3.6271970,7.7643566,-2.3816793,-2.4122138,-4.5648856,-10.8480721,2.3295465,6.2584114,56.5419846,33.6870232,178.6335907
5090,5.1738434,3.6319854,7.8553357,-2.8091602,-1.2137405,-3.8320611,-10.7714586,2.2170193,6.2727766,54.1374054,27.7175579,191.4427490
5100,5.1139889,3.6439564,7.9846220,-2.5114503,-0.3053435,-2.6946564,-10.0579901,2.0661855,6.2440462,53.0228996,22.2671757,204.2137451
5110,5.0230093,3.8402798,7.8337879,-0.6106870,1.3664122,1.8320611,-6.9407554,1.8507085,4.8673873,62.1755714,29.3740463,250.1297760
5120,5.0541339,3.7397239,7.7212610,-1.0000000,3.0305343,2.2900763,-6.2655940,1.9392935,4.5345950,60.6412201,51.2213745,250.1297760
5130,5.0517397,3.7469065,7.7739329,-1.9770992,2.8778627,2.5114503,-5.2576399,1.8554969,4.4220681,58.9160309,73.8854980,250.1297760
5140,4.9368186,3.7157819,7.8673067,-0.9160305,-1.9847329,0.3511450,3.7301471,0.2513899,2.2505381,8.4198475,70.3587799,250.1297760
5150,4.9703374,3.6248028,7.9534974,0.1374046,-2.3816793,1.6030535,4.6471219,-0.0670373,2.0877333,1.6488550,78.1679382,250.1297760
5160,4.9751258,3.6295912,7.9104018,0.8320611,-2.5343511,2.4351146,5.5473371,-0.3112446,2.3343346,-5.2213740,83.0229034,250.1297760
5170,5.0972295,3.6319854,7.9487090,0.6488550,-1.6488550,3.5954199,6.7109132,-0.3878587,2.9592183,-9.4580154,79.9083939,250.1297760
5180,5.0972295,3.7085996,7.8553357,0.5343512,-1.3206106,3.6564887,8.0133524,-0.4213773,3.8953462,-8.1297712,65.3893127,242.2290039
5190,5.1738434,3.7349355,7.7787213,0.0381679,-1.0229008,3.6259542,9.8018112,-0.2250538,4.6878228,-1.8778626,38.9236641,204.9313049
5200,5.2384863,3.7109938,7.8337879,-0.8778626,-0.7709923,4.1526718,11.1904411,0.2059003,5.1020179,8.6641226,9.5190840,161.2977142
5210,5.3965030,3.6942344,7.7739329,-1.1755725,-0.0458015,3.9847329,12.4090843,1.1994889,5.3653784,22.7786255,-21.0839691,114.9312973
5220,5.4922705,3.6463506,7.6757712,-1.6946565,0.0152672,1.2595420,14.5279417,3.2920105,3.9384418,41.8167953,-60.5725174,25.7709923
5230,5.4898763,3.6248028,7.7140784,-2.2748091,-0.3358779,-0.3969466,17.3171730,5.2648225,2.6503677,42.8473282,-51.8702278,-29.0000000
5240,5.4395986,3.6894460,7.8385763,-2.3053436,0.0381679,-1.4045801,18.4113178,6.1458845,1.5322813,37.3664131,-35.1603050,-91.3587799
5250,5.2336984,3.5457945,7.8577299,-2.2977099,-0.3664122,-2.3435113,19.6126022,7.5728211,0.4572902,27.2977104,-21.9694653,-165.9313049
5260,5.1139889,3.6750808,7.8601241,-2.2061069,-1.2671756,-2.3969467,19.6126022,7.7930865,-0.6153067,10.9083967,-19.4351139,-250.1374054
5270,5.0948353,3.6415622,7.9558916,-2.2977099,-1.3358779,-2.2061069,19.6126022,5.9854736,-1.7597293,-15.1984730,-29.3664131,-250.1374054
5280,5.0421629,3.6439564,7.9558916,-1.9694656,-1.0000000,-1.6106870,19.6126022,3.4236910,-1.8219782,-48.3893127,-45.1221390,-250.1374054
5290,4.9607606,3.6750808,8.0301113,-1.0534351,-1.4045801,-1.0916030,19.2277355,-0.2825144,-1.0318956,-84.7709961,-57.7175560,-250.1374054
5300,4.9535780,3.6774750,7.8912482,-0.1908397,-2.2519083,-0.1984733,16.3714676,-5.8753409,0.6416427,-117.9847336,-68.7938919,-250.1374054
5310,4.9056940,3.7205703,7.8481531,0.0687023,-2.2366412,0.9541985,12.3228931,-12.0068598,2.5210814,-143.0686951,-73.7633591,-250.1374054
5320,5.0613165,3.7109938,7.8960366,-0.3664122,-1.5572519,1.9847329,6.8928714,-18.4089222,4.1658897,-159.5190887,-72.1374054,-250.1374054
5330,5.0876527,3.7301471,7.8313937,-0.9923664,-1.3206106,2.2824428,0.4189832,-19.6131992,5.5449429,-168.1450348,-72.9465637,-250.1374054
5340,5.1139889,3.7301471,7.8337879,-1.1374046,-1.8702290,2.2442749,-9.7299862,-19.6131992,7.2927012,-165.7251892,-104.2900772,-250.1374054
5350,5.2720051,3.6990228,7.8936424,-1.0687023,-2.1679389,2.0839694,-19.6131992,-19.6131992,9.4785957,-158.8778687,-225.9007568,-250.1374054
5360,5.3294659,3.6391680,7.8744893,-0.9923664,-1.9618320,1.7480916,-19.6131992,-19.6131992,12.4354200,-171.1603088,-250.1374054,-250.1374054
5370,5.3390427,3.6511390,7.8481531,-1.1145039,-1.0992366,0.2366412,-19.6131992,-4.8721757,19.6126022,14.5725193,-74.0839691,141.5801544
5380,5.3917146,3.6056492,7.8816719,-1.3206106,-0.9083970,-0.4885496,-19.6131992,-4.1850433,19.6126022,157.9923706,250.1297760,250.1297760
5390,5.4395986,3.5410061,7.9151902,-1.4503816,-1.1221374,-1.2442749,-14.5111818,-3.1603301,16.9053726,221.5038147,250.1297760,250.1297760
5400,5.4204450,3.6367738,7.8768835,-1.2671756,-1.1603054,-2.3893130,-8.7148495,-0.5195391,10.8408899,208.8549652,250.1297760,250.1297760
5410,5.4252334,3.6511390,7.8816719,-0.5877863,-1.6641221,-3.3435113,-5.4707227,0.6991033,8.1210909,163.4732819,250.1297760,250.1297760
5420,5.3246775,3.6104376,7.9175844,0.2213740,-2.0839694,-4.3664122,-3.3111639,1.5059452,6.1171541,119.3587799,250.1297760,250.1297760
5430,5.1666608,3.6128318,7.8601241,0.8015267,-2.6412213,-4.3358779,-1.3670821,2.6072724,4.2018023,82.1297684,116.2213745,159.0763397
5440,5.1115947,3.6655040,7.8649125,1.2290076,-2.7404580,-4.0000000,0.5746055,4.2209558,2.0613971,39.9007645,-59.9541969,75.9847336
5450,5.0134325,3.7109938,7.7667508,1.0763359,-1.8778626,-2.3129771,1.2952565,4.9296360,2.6216373,-27.3664131,-190.3206177,-30.1450386
5460,5.1427188,3.8091555,7.7643566,0.4580153,-1.2595420,-1.7022901,0.7852941,4.6782460,3.7445123,-33.7786255,-178.4427490,-60.4351158
5470,5.1834202,3.8307030,7.7045016,0.0534351,-0.4045801,-1.0076336,0.3830703,3.8570392,4.4675574,-27.9923668,-143.6183167,-80.1374054
5480,5.3031297,3.7708483,7.6733770,-0.9083970,1.0305344,-0.6412213,-0.3375807,3.2608860,4.8937230,-19.1145039,-85.6412201,-90.3816757
5490,5.3653784,3.7349355,7.5871863,-2.3053436,2.5648854,-0.4045801,-1.9129574,3.0501974,5.4898763,-7.2366414,-13.8625956,-94.8244247
5500,5.4587522,3.7277529,7.6230993,-3.4274809,4.1450381,-0.5190840,-4.7404952,2.9113343,6.0716643,8.9618320,39.2748108,-87.1221390
5510,5.3773494,3.6439564,7.7619624,-6.6870227,7.4198475,-1.6412214,-10.3405046,3.2800395,4.3717899,55.7251892,21.9541988,-40.3435097
5520,5.2217274,3.5745249,7.8601241,-7.4809160,7.6335878,-2.3740458,-8.6142941,3.0813217,1.8195840,42.1832047,-22.0381680,-18.3587780
5530,5.2241216,3.5505829,7.9511032,-6.9465647,6.7022901,-2.3358779,-7.1753860,2.9304879,1.2114599,22.4274807,-24.4274807,-14.7404585
5540,4.8099265,3.5673423,8.2719250,-2.5572519,3.1526718,-2.1755726,-7.1873569,2.6575503,3.4476328,-23.8778629,10.9770994,-25.7022896
5550,4.6710634,3.5769191,8.2958660,-0.3053435,1.6793894,-1.5419847,-7.6661944,2.8395088,4.4723458,-27.6641216,11.7786255,-27.9007626
5560,4.5681133,3.7062054,8.2958660,1.6717557,0.2061069,-0.6564885,-8.1258793,2.8347204,5.4419928,-27.9007626,6.6183205,-30.1603050
5570,4.4316444,3.7995787,8.2647419,3.6030533,-1.3129771,0.8320611,-8.2791071,2.6910689,5.8633699,-24.5038166,0.5419847,-32.0610695
5580,4.9894910,3.8546450,7.4555058,2.0839694,-0.7480916,7.3816795,-7.7523856,2.5761478,6.1387019,-1.3435115,-9.9618320,-40.9541969
5590,5.8250628,3.3973548,8.1378498,-3.9083970,-0.5954198,-3.2977099,-10.9007444,2.9903426,5.2408805,5.7404580,-7.0381680,-44.0305328
5600,5.5545197,3.4308734,8.2192526,-1.5877863,-0.5419847,-4.5648856,-12.0786858,2.8035958,4.9535780,1.1068702,-14.2900763,-37.1526718
5610,5.3629842,3.6032550,8.2551651,0.3282443,-0.4503817,-5.7480917,-12.7251167,2.7485294,5.0062504,-3.5419848,-15.2900763,-25.9389305
5620,5.0661049,3.7253587,8.1282730,1.9541985,-0.9007633,-6.9618320,-12.6389265,2.8802099,5.2983413,-3.5725191,-11.3435116,-11.0610685
5630,4.7931671,3.8354914,7.9870162,2.7328243,-2.5190840,-7.1450381,-11.6166077,2.8706331,5.5257893,-0.1908397,-4.7709923,1.8854961
5640,4.5106530,3.7995787,7.7571740,2.8320611,-4.1755724,-6.1068702,-10.4243011,2.7892308,5.4898763,4.6335878,6.8702292,8.8625956
5650,4.4723458,3.8785870,7.6997132,2.0763359,-5.2290077,-4.1984735,-9.4857788,2.6934631,5.4850879,9.4122133,18.2213745,11.0152674
5660,4.4771342,3.8618276,7.5680327,0.1221374,-5.2213740,-1.7709924,-8.9327211,2.7389526,5.3821378,13.3129768,22.9160309,7.7557254
5670,4.7069764,3.8450682,7.7236552,-1.3893130,-5.5343513,0.6030535,-8.5137377,2.6623387,5.2169390,15.6488552,24.2671757,1.8473282
5680,4.8673873,3.7445123,7.7835097,-2.2900763,-5.2900763,1.7557251,-8.6095057,2.3079987,5.1307478,15.4427481,22.8549614,-7.3740458
5690,5.5162125,3.5290353,7.8864598,-0.7480916,-3.9923663,1.5648855,-13.0435438,1.4652439,5.4324160,1.6412214,4.2595420,-46.0458031
5700,5.6143742,3.4739690,7.8266053,0.0763359,-2.5267177,0.6259542,-15.7944679,1.7477583,6.3254485,-3.9694657,-14.5725193,-51.3282433
5710,5.5688848,3.5194585,7.8505473,-0.2977099,-0.8320611,0.0229008,-18.3394909,2.2816625,7.4052281,-8.7022905,-46.3816795,-44.9389305
5720,5.6071916,3.5769191,7.6949248,-0.8473282,0.6564885,-0.6946565,-19.0385952,2.4516499,8.2024927,-9.6564884,-88.5190811,-26.1832066
5730,5.4994531,3.5098817,7.7260494,-1.5114504,1.7709924,-1.4045801,-18.1072540,2.4396791,9.2104464,-4.6183205,-122.4274826,-3.6335878
5740,5.3869262,3.5529771,7.7523856,-2.0687022,2.5725191,-1.8167939,-16.0889530,2.0757623,9.8808203,9.1374044,-135.7022858,17.2137413
5750,5.2935529,3.5529771,7.8792777,-2.2977099,3.3282442,-1.5572519,-13.5846310,1.7070571,10.1130562,30.7175579,-126.3129807,31.9083977
5760,5.1762376,3.5697365,7.8744893,-2.5038168,3.6641221,-1.4809160,-11.6836443,1.4197544,9.8425131,56.0992355,-93.8244247,38.0228996
5770,4.9966736,3.6439564,8.1737623,-1.7480916,3.2519083,-1.4732825,-11.4346485,1.3215926,9.2128410,78.9007645,-52.1068687,41.7022896
5780,4.9056940,3.7516949,8.0612354,-0.1068702,2.5038168,-1.1908396,-12.3612003,1.3120158,8.6071110,95.5190811,-14.8396950,49.4656487
5790,4.6327567,3.7708483,7.9774394,2.4045801,1.8702290,1.1068702,-13.8336267,2.0518203,7.8146343,113.9923630,28.2366409,83.0687027
5800,4.7141590,3.8666160,7.6757712,1.1145039,-0.0992366,6.2824426,-12.4521790,1.9560528,6.3206601,131.8778687,46.1450386,129.0000000
5810,5.1834202,3.9144998,7.7045016,-0.6183206,-0.2137405,6.1755724,-12.2606440,2.2553265,4.0916696,135.6183167,31.7633591,152.1145020
5820,5.2360926,3.9336534,7.6518297,-2.3129771,1.2900764,6.1297708,-11.9613705,2.5138988,3.2991931,127.5038147,27.9236641,170.1755676
5830,5.3629842,3.8139439,7.6278877,-4.2137403,1.9770992,5.6793895,-11.5759058,2.9161227,2.6479735,118.2061081,31.4274807,192.9007568
5840,5.3797436,3.7301471,7.7739329,-4.6412215,2.6106870,4.4122138,-10.9845409,3.0406206,2.1356170,108.2900772,48.3816795,219.6335907
5850,5.3988972,3.4979107,7.9032192,-6.3969464,2.6259542,-2.4122138,-6.0740585,2.7317703,1.3263810,59.8473282,131.0458069,250.1297760
5860,5.3414369,3.3542595,8.0037756,-6.0076337,2.3664122,-3.1450381,-4.9918852,2.5593886,1.1827296,44.0534363,134.3893127,250.1297760
5870,5.1690550,3.3446827,8.0492649,-5.2977099,1.2900764,-4.2061067,-3.8737986,2.1212518,1.1396341,28.3511448,126.1450348,250.1297760
5880,4.9511838,3.3973548,8.1019373,-3.9847329,-0.0534351,-4.1068702,-2.6599445,1.8554969,1.3527170,14.2366409,113.2595444,250.1297760
5890,4.9511838,3.4284792,8.1737623,-2.1679389,-0.8473282,-3.4809160,-1.0869620,1.5873476,1.7238164,3.0152671,101.6717529,250.1297760
5900,4.8482337,3.5410061,8.1091194,1.6183206,-2.7175572,-1.6564885,1.5586174,1.8698620,2.2649033,-8.2595415,96.2748108,250.1297760
5910,4.8985114,3.6391680,7.8960366,2.7099237,-4.1145039,1.3435115,3.9192882,2.6767037,2.0063307,-18.4656487,67.6335907,250.1297760
5920,5.1618724,3.7157819,7.7164726,2.0839694,-2.8015268,2.1908398,4.4364328,2.9376705,1.4867916,-23.2595425,53.2595406,245.6870270
5930,5.2073622,3.7301471,7.6398587,0.8931298,-1.5038168,2.4732823,4.7883787,3.1052637,0.9792235,-29.0076332,43.6030540,228.0763397
5940,5.4036856,3.6056492,7.9391322,-2.6259542,0.3129771,-3.0687022,7.2663651,3.7756367,-0.2130829,-89.2366409,75.6183243,135.4427490
5950,5.2576399,3.6152260,7.8744893,-2.1450381,-0.2213740,-4.0610685,6.9646969,3.6750808,0.7493813,-96.4961853,92.4045792,118.7709961
5960,5.1618724,3.6224086,8.1067257,-1.6259542,-1.1145039,-4.3053436,6.7157016,3.6008608,2.2696917,-96.9007645,101.5038147,101.8625946
5970,4.8362627,3.5841017,8.1258793,0.6717557,-3.1068702,-4.1221375,6.5265603,3.9216824,5.3462253,-75.9770966,82.8854980,71.3435135
5980,4.6854286,3.5984666,8.1593981,2.4351146,-5.0381680,-3.9312978,7.1514440,3.8283088,6.1554613,-59.1832047,59.6183205,55.5343513
5990,4.7045822,3.6607156,8.0301113,3.4122138,-6.3511453,-2.9083970,8.5568333,3.6463506,6.2560172,-41.6335869,33.3358765,33.6488533
6000,4.7716198,3.6966286,7.9558916,3.5877862,-6.7099237,-1.4503816,10.0532017,3.2944047,5.6694407,-26.2290077,10.7328243,4.8473282
6010,4.8386569,3.7038112,7.7643566,2.8473282,-6.1603055,-0.3053435,11.7961712,3.1842721,4.6973996,-14.4656487,-0.6717557,-31.9770985
6020,4.9918852,3.7301471,7.7380204,2.0152671,-5.7404580,1.1908396,13.1249466,3.2201848,3.6918402,-8.2061071,-7.4656487,-77.8549652
6030,5.2097564,3.7085996,7.7404146,1.4274809,-4.9236641,1.8091604,15.2868996,3.1220231,2.4301023,-10.8854961,-18.2213745,-134.2442780
6040,5.3845320,3.7684543,7.8170285,0.8854962,-3.7862597,1.6488550,17.3770275,2.6192431,1.4987626,-22.9923668,-23.6335869,-208.7557220
6050,5.4419928,3.7421181,7.7021074,0.7251908,-3.1221373,0.8931298,17.9372673,1.3503228,1.0438666,-42.0839691,-29.2671757,-250.1374054
6060,5.4132624,3.7014170,7.7499914,-0.0687023,-2.3435113,0.4351145,17.9348736,-0.5291159,0.7637464,-68.8931274,-42.7404594,-250.1374054
6070,5.5042415,3.6367738,7.7547798,-0.5038168,-0.8625954,0.1297710,16.9317074,-4.0054789,1.2138541,-100.5725174,-60.1526718,-250.1374054
6080,5.3581958,3.6200144,7.7859039,-1.1068702,1.0305344,0.1526718,14.8080616,-8.0660238,3.0023136,-129.3206177,-77.5190811,-250.1374054
6090,5.2743993,3.6128318,7.8146343,-0.9083970,2.4274809,0.4122137,11.5854826,-12.3875360,5.3629842,-149.6412201,-100.0763321,-250.1374054
6100,5.2672167,3.5793133,7.8146343,-1.1984733,3.3206108,1.3511450,7.9846220,-16.2445755,8.1019373,-160.4198456,-117.7633591,-250.1374054
6110,5.3294659,3.6511390,7.7787213,-1.4198474,4.7862597,1.6488550,3.7923961,-19.6131992,11.0324249,-159.2977142,-114.5343475,-250.1374054
6120,5.2863703,3.6224086,7.8481531,-1.8244275,5.7175574,1.6030535,-2.9831600,-19.6131992,13.8791161,-140.3129730,-99.3435135,-250.1374054
6130,5.3031297,3.6918402,7.8529415,-1.8778626,5.9541984,1.4198474,-13.3356352,-19.6131992,17.0250816,-103.9542007,-119.7709961,-250.1374054
6140,5.2743993,3.6583214,7.8433647,-2.1297710,5.9083967,1.1068702,-19.6131992,-19.6131992,19.4264526,-61.4045792,-201.3740387,-250.1374054
6150,5.2456689,3.6726866,7.9774394,-1.9160305,5.9541984,0.6488550,-19.6131992,-16.9173431,19.6126022,-25.1832066,-250.1374054,-250.1374054
6160,5.1714492,3.6559272,7.9606800,-1.2671756,5.8702292,0.2290076,-19.6131992,-11.3604288,19.6126022,20.4961834,-250.1374054,-250.1374054
6170,5.0206151,3.6942344,7.9367380,-0.8091603,5.4503818,0.1374046,-19.6131992,-4.9799142,19.6126022,90.2977066,-190.4122162,-250.1374054
6180,4.9511838,3.6798692,7.9127960,-0.9083970,5.1984735,0.1679389,-19.6131992,-0.8307837,14.6787758,144.2213745,-18.0839691,-168.3358765
6190,4.9392128,3.7109938,7.8313937,-1.1221374,3.9694657,0.5648855,-19.6131992,0.5817881,8.1546097,150.9236603,193.8396912,-1.2213740
6200,4.9344244,3.7349355,7.9151902,-1.6946565,3.5190840,1.0992366,-19.6131992,1.1659702,3.0118904,111.9618301,250.1297760,108.2824402
6210,4.9631548,3.7373297,7.9104018,-2.2671757,3.5038168,1.7022901,-19.6131992,1.3934183,0.9816177,42.8396950,250.1297760,153.2595367
6220,4.8578105,3.8594334,7.9439206,-2.4122138,3.8167939,1.5725191,-16.7593269,0.9169745,2.2768741,-23.9312973,250.1297760,145.3893127
6230,4.8386569,3.8283088,8.0133524,-2.1984732,2.9770992,1.3435115,-15.7872849,0.8116302,5.0349803,-67.4809189,250.1297760,113.6793900
6240,4.7740140,3.7756367,7.9271612,-1.3511450,1.7022901,1.4580153,-14.6045561,1.5298871,7.6925306,-84.8931274,156.6106873,74.9236679
6250,4.8769641,3.8426740,7.7811155,-1.3053435,-1.0992366,1.6030535,-10.7068148,2.4133430,10.9175043,-61.0000000,-77.9312973,8.0458012
6260,5.0397687,3.7923961,7.7571740,-2.5114503,-1.6641221,1.5877863,-9.0835552,2.1930776,11.4059181,-28.1297703,-137.4732819,-19.5954189
6270,5.1906028,3.7109938,7.7428088,-2.9923663,-1.3511450,1.7175573,-8.2838955,1.8626794,11.0994625,10.0992365,-164.6793823,-42.5648842
6280,5.3246775,3.5218527,7.7547798,-3.5877862,-0.7022901,1.2213740,-8.0253229,1.5897418,9.7156210,46.5190849,-172.3129730,-59.9389305
6290,5.4946647,3.4356618,7.9080076,-3.6870229,0.4198473,0.7709923,-8.2671366,1.3503228,7.5943689,72.6870193,-152.3053436,-66.3664093
6300,5.6478930,3.3758070,7.8649125,-4.5496182,1.6183206,0.1145038,-9.2056589,2.1020982,5.7340837,90.4885483,-101.9465637,-58.0152664
6310,5.6957769,3.4835455,8.0612354,-4.3053436,1.7786260,-1.9236641,-9.8951855,2.7844424,4.2999644,97.7709961,-37.9694672,-34.3969460
6320,5.1379304,3.7349355,8.0636301,-1.0458015,2.6106870,-5.6030536,-9.7850523,3.3015873,2.0230901,86.4427490,52.9694672,17.7251911
6330,4.7907729,3.8019729,7.9223728,-0.4198473,1.8244275,-5.8549619,-9.0931320,3.3063757,1.5945302,68.8015289,63.8167953,35.4732819
6340,4.6255741,3.7732425,7.6757712,-1.5801526,0.9618320,-4.6488547,-7.8768835,3.3925664,1.3527170,48.4503822,56.2977104,44.1450386
6350,4.4388270,3.7540891,7.5967631,-4.0534353,0.4885496,-2.1145039,-6.6965480,3.3087699,1.6902977,28.1603050,41.7099228,44.0534363
6360,4.4747400,3.7181761,7.6685886,-6.5496182,-0.0916031,0.3129771,-5.5952206,3.1579359,2.1140692,10.7938929,25.8473282,38.5877876
6370,4.6686692,3.6846576,7.7906923,-7.8091602,0.2290076,2.1908398,-4.9272418,2.8538737,2.7557120,-1.9694656,10.5725193,28.6259537
6380,4.8745699,3.7301471,8.1186962,-7.9312978,0.3816794,3.4809160,-4.3717899,2.5426292,3.3446827,-9.2671757,-1.2900764,16.6412220
6390,5.0517397,3.5984666,8.3509331,-6.1450381,0.2595420,3.7480917,-4.1132174,2.2481439,3.9216824,-11.7862597,-7.6488547,4.1145039
6400,5.0756817,3.4284792,8.2000990,-1.8778626,-0.0229008,3.4580152,-4.4914994,1.8554969,4.5417776,-9.8854961,-15.1526718,-22.0152664
6410,5.1858144,3.3901722,8.0588417,-0.3129771,-1.0152671,3.2900763,-5.1044121,1.5394639,4.5154414,-9.1603050,-14.7175570,-32.6793900
6420,5.2743993,3.3877780,7.9127960,-0.1526718,-2.5572519,2.1832061,-7.6111283,1.2042773,4.7788019,-13.5114508,-0.1297710,-47.0534363
6430,5.3366485,3.4548154,8.0564480,0.1832061,-3.3435113,1.4122137,-8.6526003,1.1970947,4.9870968,-16.1908398,1.2671756,-44.7862587
6440,5.2576399,3.4835455,8.0301113,1.6259542,-4.0458016,-0.8778626,-9.4881725,1.6136837,5.2959471,-21.7099228,-12.2977095,-31.7786255
6450,5.1690550,3.4979107,7.9439206,2.5038168,-4.6259542,-1.2671756,-9.2248116,1.7190280,5.7077475,-25.5419846,-9.7862597,-25.4045811
6460,5.0900469,3.5314295,7.9487090,2.8473282,-4.2137403,-0.9465649,-9.0380650,1.5514348,5.8897061,-23.8320618,-11.8244276,-19.0763359
6470,5.0206151,3.5769191,7.8673067,2.2824428,-3.4503818,0.0381679,-8.3868456,1.3838415,6.1339135,-18.6641216,-11.9465647,-15.0687027
6480,5.1475072,3.6631098,7.8649125,1.3587786,-0.7099237,2.0687022,-7.4890246,1.6400198,5.8897061,-7.9389315,2.7786260,-18.8549614
6490,5.1594782,3.6176202,7.7547798,0.8167939,0.3740458,2.5419848,-7.6829538,1.5490406,5.6526814,-4.7099237,9.2442751,-22.9160309
6500,5.1929970,3.7828193,7.8002691,0.3206107,1.2595420,2.5648854,-7.9870162,1.4077834,5.4587522,-3.8549619,11.9541988,-26.7022896
6510,5.1929970,3.6774750,7.7787213,-0.2671756,1.4732825,2.2748091,-8.4251528,1.4221486,5.2289100,-5.3053436,10.9923668,-31.0916023
6520,5.2169390,3.7636659,7.7930865,-1.0916030,2.0076337,1.9083970,-9.1146793,1.5538290,5.3055239,-8.1450386,6.1374044,-34.2900772
6530,5.1307478,3.7133877,7.8720951,-1.3511450,1.7022901,1.5190840,-9.7730818,1.4748207,5.2097564,-11.8320608,1.3511450,-35.7022896
6540,5.1810260,3.5625539,8.0827837,-1.0992366,0.4580153,0.5419847,-10.5847120,1.4628497,5.4779053,-15.6641226,-3.8396947,-35.2061081
6550,5.3055239,3.5697365,8.2719250,0.2977099,-1.5419847,-1.4351145,-11.6525202,1.6041069,5.6885943,-18.5419846,-9.0763359,-34.6030540
6560,5.2480631,3.5146701,8.3700867,2.8931298,-2.4503818,-2.8625953,-12.3731709,1.5370697,5.9543490,-19.8549614,-11.9007635,-28.8320618
6570,5.0421629,3.4859397,8.2431946,5.1297708,-4.7557254,-3.6183207,-12.6628675,1.2880739,6.0980005,-19.5877857,-8.1145039,-20.9236641
6580,5.1068063,3.4069316,8.1067257,6.3969464,-6.9465647,-3.8625953,-12.5766773,1.1204807,6.4475522,-17.3969460,-1.9465649,-11.4045801
6590,4.9631548,3.5457945,7.9702568,6.4961834,-7.6412215,-2.8854961,-12.5934362,1.0702027,6.8210459,-7.2824426,8.4961834,0.1832061
6600,4.9272418,3.6487448,7.8385763,6.2213740,-7.6793895,-1.9007634,-13.3571825,1.2473727,7.0053983,-0.4274809,13.8702288,4.4885497
6610,5.0062504,3.7516949,7.8170285,6.1526718,-8.0610685,-1.1221374,-14.1879663,1.4125718,6.9862447,7.2137403,15.7328243,13.4122133
6620,4.9942794,3.9216824,7.6230993,4.4503818,-5.6564884,0.8167939,-14.6428623,1.3958124,6.6630292,26.1374054,22.9770985,54.9923668
6630,5.0876527,3.9312592,7.6063399,2.7175572,-3.2213740,2.1450381,-14.3866844,1.4772149,6.5552907,31.6870232,30.5648861,68.1984711
6640,5.0996237,3.9599893,7.5081782,0.9160305,-1.7328244,3.1297710,-14.2933111,1.6543850,6.2416520,35.9160309,40.5572510,77.6183243
6650,5.1834202,3.8857694,7.4195933,-0.7633588,0.4656489,4.0152674,-14.6500454,1.6256547,5.9136481,37.7404594,49.8931313,87.0839691
6660,5.2959471,3.8785870,7.5871863,-2.8015268,1.9923664,4.7022901,-15.1432486,1.4077834,5.5521255,37.1297722,61.1679382,98.1374054
6670,5.2624283,3.4404502,8.1019373,-5.2061067,4.2900763,0.3358779,-18.4639893,0.7206510,5.7173243,4.9389315,82.3740463,219.8625946
6680,4.9559722,3.5338237,8.1522150,-0.5801527,0.1221374,-0.7938932,-14.7649660,0.8666966,5.3965030,14.0992365,17.5114498,250.1297760
6690,4.9751258,3.7014170,7.7188668,0.0305344,-0.1984733,1.0534351,-10.4769726,0.4548960,3.2441268,22.8015270,-12.9847326,250.1297760
6700,5.0086441,3.7493007,7.5776095,-2.9541984,0.5419847,2.2824428,-5.5760674,-0.2561783,0.7661406,9.3969469,2.1068702,250.1297760
6710,5.0277977,3.7708483,7.7595682,-4.2900763,1.5038168,3.2290077,-3.5864959,-0.1101327,-0.1628049,-7.9465647,29.1526718,250.1297760
6720,5.1451130,3.6966286,7.8146343,-5.2213740,2.9694657,3.6564887,-2.5234756,0.0574605,-0.4333483,-27.8854961,55.7786255,250.1297760
6730,5.2504573,3.5936785,7.9367380,-5.8778625,5.6870227,5.2519083,-1.8171898,-0.1149211,0.0167593,-45.6793900,80.1068726,250.1297760
6740,5.3031297,3.5529771,7.9199786,-6.4809160,9.8167934,7.0610685,-0.9193687,-0.4141948,0.8068419,-58.4503822,109.7099228,250.1297760
6750,5.5329719,3.5386121,8.0013809,-6.3969464,12.2824430,7.9618320,-0.1221037,-0.6967092,2.0063307,-65.6335907,140.3969421,250.1297760
6760,5.7747850,3.4165084,8.2743187,-5.6717558,14.4809160,7.3511453,0.6033357,-1.2880739,3.7181761,-67.2366409,166.5038147,250.1297760
6770,6.0501165,3.5649481,8.4395180,-3.5954199,15.0839691,5.0229006,1.1779412,-1.6136837,5.0996237,-62.6335869,185.1984711,250.1297760
6780,6.6438756,3.5841017,8.6621771,0.0610687,8.9389315,-2.3511450,1.5514348,-1.6783268,6.2368636,-52.5267181,190.5572510,250.1297760
6790,7.2543941,3.6798692,9.4738073,7.3893127,-2.5190840,-15.2671757,2.1643472,-2.2744799,6.6031747,-42.1221390,179.2748108,250.1297760
6800,8.0827837,3.5793133,10.9007444,21.3053436,-19.4427490,-32.9007645,3.4404502,-3.0885043,6.4116392,-34.5496178,161.6564941,250.1297760
6810,8.8704720,3.3446827,12.9190464,45.2900772,-41.3435097,-57.1679382,4.9248476,-3.7900019,5.7628140,-32.2442741,146.3511505,250.1297760
6820,8.4419117,3.1100521,14.8607340,86.2442780,-100.5801544,-81.8702316,6.2296810,-4.2832050,5.4348102,-32.2442741,127.5114517,250.1297760
6830,10.1489687,3.5936785,14.3076763,136.5648804,-141.8931274,-118.7022934,7.4100165,-4.2281384,4.7524662,-30.0381680,111.3435135,250.1297760
6840,8.4203644,3.8857694,11.8296900,167.0305328,-169.4732819,-155.4427490,8.0756006,-4.1874375,3.6822634,-26.7862587,100.5954208,250.1297760
6850,6.3876977,3.2417326,9.6366129,171.2977142,-177.1908417,-170.1679382,9.0859489,-3.9647777,3.0358322,-26.5572510,82.0534363,250.1297760
6860,5.7388721,2.9711890,8.1593981,162.1984711,-168.8473358,-168.3053436,10.9677820,-3.3949606,2.5019281,-31.5954189,44.2748108,241.2290039
6870,5.6766233,3.5218527,7.4124107,151.9618378,-130.6488495,-160.6412201,13.1129761,-2.7150109,2.0398495,-43.3664131,-16.0610695,179.3816833
6880,5.5138183,3.6990228,5.9519548,143.4351196,-89.9160309,-150.5267181,15.3323889,-1.7549409,1.5394639,-64.3129807,-90.0763321,105.4351120
6890,5.0756817,3.9073172,4.4100971,133.2442780,-53.1526718,-143.0381622,17.0705700,-0.9121862,0.6200951,-96.4656525,-161.0305328,30.0992374
6900,3.7014170,4.3071470,2.9041519,123.2366409,-22.7862587,-137.1679382,18.4615955,0.5602403,1.2473727,-129.6183167,-198.1526642,-33.9465637
6910,2.6096666,4.9463954,1.9632354,114.2290039,0.1755725,-127.9083939,19.6126022,1.4963684,2.9137285,-150.4732819,-179.0381622,-97.2977066
6920,1.4580613,5.9615316,0.9361281,104.1755753,8.6259546,-113.8167953,19.6126022,1.6783268,5.1499014,-153.5267181,-119.8396912,-162.3358765
6930,0.2082945,7.7140784,-0.1197095,89.8320618,32.2442741,-93.6870193,19.6126022,1.8722562,7.6446471,-136.9313049,-46.7099228,-236.9694672
6940,0.4548960,7.5728211,-0.5698171,64.0000000,36.1679382,-68.3893127,19.6126022,1.4053892,9.3636751,-104.8625946,17.8702297,-250.1374054
6950,0.7900825,7.5033898,-1.0318956,34.5954208,43.3816795,-50.3358765,19.6126022,0.2561783,9.9502516,-68.9770966,55.1068687,-250.1374054
6960,1.0031654,7.6661944,-0.5171449,2.8320611,51.8396950,-30.5877857,19.2732258,-1.4580613,10.2519188,-36.1908379,65.8778610,-250.1374054
6970,0.8116302,7.7547798,0.3782819,-28.1450386,60.9541969,-6.7786260,17.3243542,-4.3167233,10.5655584,-5.5496182,60.3740463,-250.1374054
6980,0.9672526,7.8242111,1.2066715,-55.7633591,74.3435135,15.9236641,15.7585554,-7.5895805,11.2838144,28.0076332,56.1755714,-250.1374054
6990,1.5490406,7.7284436,2.1954718,-78.7404556,96.9389343,32.7328262,12.7849712,-12.1337519,11.7746239,68.3893127,56.7709923,-250.1374054
7000,2.1906834,7.5273318,3.2465210,-94.6412201,117.4122162,43.6106873,8.0756006,-18.3418846,11.3508520,116.4198456,47.6259537,-250.1374054
7010,2.5450234,7.3597383,4.1467361,-105.4045792,133.0915985,48.3282433,0.2250538,-19.6131992,9.2679071,166.3435059,1.6259542,-250.1374054
7020,2.2625091,6.8713236,4.7883787,-113.5801544,142.3358765,52.1679382,-8.4921904,-19.6131992,6.1075773,202.7404633,-89.0229034,-250.1374054
7030,1.6591733,6.3924856,5.2289100,-119.6412201,145.5877838,58.5419846,-15.4305506,-19.6131992,1.7118455,203.6488495,-166.0458069,-250.1374054
7040,1.1037214,5.8849177,5.6909885,-124.2519073,142.8854980,67.8015289,-19.6131992,-19.6131992,-0.7230452,169.8702240,-191.5496216,-250.1374054
7050,0.3399749,5.2528515,5.9495606,-129.4809113,136.0534363,80.7022934,-19.6131992,-19.6131992,1.8507085,118.6335907,-250.1374054,-250.1374054
7060,-0.5027798,4.5944495,6.0980005,-135.7175598,119.3358765,97.5343475,-19.6131992,-11.4346485,8.4347296,40.4809151,-250.1374054,-250.1374054
7070,-0.9409165,4.0342093,6.4379754,-142.6030579,94.8549652,118.0687027,-19.6131992,-0.3806761,14.5159702,-32.3511467,-250.1374054,-250.1374054
7080,-0.7182568,3.7493007,6.8665352,-147.3358765,68.8091583,136.2519073,-19.6131992,2.2649033,18.6315823,-24.4503822,-250.1374054,-194.7709961
7090,-0.0933734,3.3853838,7.5488791,-148.3129730,47.6183205,149.3511505,-19.6131992,1.0223188,16.9221306,68.6564865,-141.4580078,8.7404585
7100,0.5123565,3.1507533,8.2431946,-144.6335907,33.3053436,157.5038147,-19.6131992,0.1939293,9.3708572,141.4427490,168.7099304,136.2213745
7110,1.1324517,2.7868366,9.1745338,-135.4503784,17.4427490,160.1145020,-18.2078114,0.8762733,2.1691356,126.2900772,250.1297760,209.5190887
7120,2.2481439,2.9304879,9.7395630,-121.4656525,2.8320611,159.4427490,-12.6221666,1.5634058,0.5027798,53.2595406,250.1297760,218.6870270
7130,3.8139439,3.3734128,9.8568783,-111.3435135,9.3740454,159.4503784,-9.9502516,1.2377959,2.3079987,-20.9541988,250.1297760,169.9465637
7140,7.2831244,3.5122759,11.2622671,-106.0305328,27.9465656,145.9313049,-8.1522150,1.0199248,4.6519103,-59.8396950,83.5725174,93.8167953
7150,9.5025377,2.8490853,14.1783895,-95.1526718,37.2824440,115.1374054,-6.9455438,1.9129574,6.0980005,-70.3969498,-105.8091583,16.8549614
7160,9.3397331,3.1387823,16.0195217,-69.2900772,14.4656487,81.3511429,-6.8856888,2.9640064,6.7683735,-66.7404556,-216.1297760,-36.4122124
7170,8.7531567,3.2321558,16.0626163,-23.8167934,8.8625956,63.6183205,-7.8625183,3.2632802,6.6271162,-59.5343513,-245.5038147,-55.5801544
7180,8.0181408,2.7557120,13.8791161,21.7251911,4.7099237,53.4503822,-8.9542685,3.2872221,6.5265603,-48.9236641,-224.7862549,-50.0763359
7190,7.5201492,2.9783716,11.2526903,51.3435097,-8.5877867,40.1526718,-9.6366129,3.3183465,6.4858594,-36.1908379,-178.2519073,-30.5648861
7200,7.4794478,3.2680686,8.7196379,60.4351158,-20.8473282,24.6106873,-9.4618368,2.7964132,6.2488346,-22.7938938,-132.7480927,-7.0305343
7210,7.4315639,3.2608860,6.9934273,55.1068687,-27.1984730,9.7709923,-8.6454182,2.1835008,5.6287394,-11.9007635,-84.1603088,14.7022905
7220,7.4698710,3.3590479,6.1841912,43.2748108,-23.6030540,-1.8320611,-7.6183109,2.0613971,5.2360926,-5.6030536,-38.4503822,33.9160309
7230,7.2831244,3.3231349,5.7699966,30.5572510,-13.4656487,-12.7633591,-6.4954362,1.8746504,4.8075323,-3.8473282,1.0305344,49.0305328
7240,6.7228842,3.3973548,5.4970589,15.2061071,-4.7709923,-22.3129768,-5.4563580,1.5993185,4.8027439,-4.6106873,30.9389305,58.1679382
7250,5.8825235,3.5529771,5.9806852,-0.7938932,-2.1755726,-28.6946564,-4.5417776,1.4987626,4.7381010,-8.2595415,51.6870232,59.1145020
7260,5.1858144,3.5003049,6.5385313,-13.9083967,-1.7251909,-32.9389305,-3.9144998,1.3886299,4.7692256,-13.3969469,61.8625946,53.4580154
7270,4.5752959,3.2465210,7.3741035,-21.5648861,-0.0076336,-34.5648842,-3.7564833,1.2928623,4.8602047,-18.9312973,66.5648880,44.0916023
7280,4.0413918,3.0813217,7.9319496,-25.1984730,0.5419847,-34.5877876,-3.9982965,1.2138541,5.1139889,-23.6870232,67.3053436,34.2977104
7290,3.7325413,3.1076579,8.5352850,-25.9083977,-1.6870229,-34.1450386,-4.4627690,1.3168042,5.3869262,-27.9541988,62.9541969,24.9160309
7300,3.6846576,3.1603301,8.9853926,-24.5190830,-2.7786260,-33.0228996,-4.8362627,1.2904681,5.9016771,-30.9389305,52.4351158,15.7328243
7310,3.4572096,3.1507533,9.3062143,-21.6564884,-4.3358779,-30.6030540,-5.0900469,1.1970947,6.5385313,-31.0458012,37.4198456,6.3206105
7320,3.7062054,3.2417326,9.2056589,-16.5496178,-1.5038168,-28.0305347,-5.1977854,0.9744351,7.0006099,-28.6183205,21.1374054,-3.4961832
7330,3.1459649,3.0956869,9.2200232,-12.5343513,-5.1832061,-24.1679382,-5.1953912,0.8212070,7.2256637,-23.9160309,6.4885497,-13.6183205
7340,3.0645626,3.2177906,8.9973640,-9.6030531,-10.0381680,-20.3893127,-5.2672167,0.7230452,7.4962072,-18.4351139,-5.5114503,-23.4122143
7350,3.1387823,3.3135581,8.8776541,-6.9007635,-12.0839691,-14.7251911,-5.3893204,0.5674229,7.3764977,-12.6106873,-14.4274807,-32.6412201
7360,3.2776453,3.3997490,8.6933022,-5.6259542,-13.8396950,-9.5267172,-5.6359220,0.4740495,7.3573442,-7.2366414,-17.9618320,-39.9847336
7370,3.2106080,3.5194585,8.5879574,-6.0229006,-15.9083967,-4.4580154,-5.9328012,0.4381367,7.3501616,-3.4351146,-15.4656487,-46.7328262
7380,3.7253587,3.5505829,8.5065556,-6.6717558,-16.0916023,-0.0381679,-6.5265603,0.5865764,7.1251078,-1.3587786,-12.0381680,-50.4198456
7390,4.2784166,3.5122759,8.3988171,-7.6030536,-9.8091602,3.3206108,-7.3597383,0.8930327,6.8832946,1.9465649,-4.9770994,-51.7175560
7400,4.4388270,3.5003049,8.3389616,-6.6946564,-8.4809160,2.9694657,-8.0085640,0.9696468,6.6462698,3.8931298,-4.3893127,-51.6641235
7410,4.5752959,3.6008608,8.4347296,-5.6641221,-7.2137403,2.5114503,-8.5783806,1.1204807,6.4475522,5.8091602,-8.4427481,-51.2977104
7420,4.6734576,3.3686244,8.4897957,-6.7938933,0.2671756,0.3587786,-12.6413202,1.2904681,6.5672617,-12.0000000,-51.5725174,-49.6946564
7430,4.6543045,3.2441268,8.3892403,-6.3969464,2.5190840,0.8244275,-12.6676559,1.3886299,7.0197635,-12.5419846,-51.4961815,-40.2366409
7440,4.5393834,3.2465210,8.4634600,-6.2977099,4.1374044,1.6717557,-12.1265697,1.3934183,7.3334022,-8.0229006,-38.9541969,-31.1297703
7450,4.4819226,3.2800395,8.3820572,-6.5954199,4.2213740,1.9083970,-11.4514084,1.4221486,7.5273318,-1.9694656,-26.4809170,-24.0229015
7460,4.3837609,3.2393384,8.4802189,-1.5648855,-1.2213740,1.0000000,-11.2574787,0.8619082,7.7332320,4.5496182,-25.1374054,-17.0381680
7470,4.3263001,3.2872221,8.4969788,-1.6030535,-1.0000000,1.4503816,-11.9829178,0.6823440,8.2360115,4.3740458,-24.3511448,-12.8244276
7480,4.5345950,3.3231349,8.3150196,-0.6259542,0.7099237,3.1984732,-14.0275564,0.2873027,9.7970228,39.5038185,-1.1603054,29.6259537
7490,4.6590929,3.3183465,8.2527714,-1.1984733,1.3816794,3.2748091,-14.3292236,0.4189832,9.7730818,49.3358765,2.5496182,45.4961815
7500,4.6183915,3.2728570,8.3054428,-2.0839694,1.6030535,2.4045801,-14.4944229,0.2178712,9.6318245,58.6641235,4.4274807,63.1374054
7510,4.6303625,3.2417326,8.3102312,-2.8625953,1.7709924,1.1526718,-14.5830078,0.1891410,9.3133974,66.4045792,4.1068702,79.5648880
7520,4.5705075,3.3279233,8.3652983,-3.1984732,1.0763359,0.1984733,-14.9181948,0.3591284,8.7890692,72.0916061,-3.0687022,94.7099228
7530,4.4627690,3.2776453,8.4131813,-3.3740458,0.2824427,-0.3358779,-15.0498753,0.2633608,8.1785507,74.8473282,-11.2290077,110.5877838
7540,4.4172797,3.2489152,8.5735922,-2.8244274,-0.5801527,-1.1145039,-15.1145182,0.0861908,7.8146343,75.0610657,-9.5572519,131.0763397
7550,4.4555864,3.2345500,8.5951405,-2.3969467,-1.8702290,-2.3053436,-15.3299952,0.0526722,7.6015515,74.6641235,1.9160305,157.4274750
7560,4.3741841,3.2058196,8.5951405,-1.3358779,-3.2824428,-2.4427481,-15.5694141,0.3639168,7.6015515,74.2366409,16.5114498,188.3206177
7570,4.3406653,3.1603301,8.4969788,0.1221374,-4.3969464,-2.0305343,-15.5263186,0.6081241,7.5608501,74.7709961,33.4503822,225.7099304
7580,4.3263001,3.2608860,8.5041609,0.9770992,-5.6488547,-1.9541985,-15.2629576,0.3543400,7.3477674,75.2977066,55.8778610,250.1297760
7590,4.3909435,3.2944047,8.5448618,1.7786260,-6.9541984,-2.2061069,-14.6069498,0.1077385,7.2496057,73.4656525,80.8473282,250.1297760
7600,4.4364328,3.2106080,8.4945841,2.4732823,-7.1832061,-2.1221373,-13.5367470,-0.2346306,7.1538382,69.6564865,94.7404556,250.1297760
7610,4.5585365,3.3279233,8.4227581,2.8167939,-7.9083967,-2.1068702,-11.4585905,-1.0175306,6.8234401,67.5038147,94.5954208,250.1297760
7620,4.6183915,3.3135581,8.2982607,2.9007633,-8.1374044,-2.6488550,-9.1721401,-1.5298871,6.3206601,66.3587799,91.9542007,250.1297760
7630,4.6902170,3.2944047,8.3365679,2.9389312,-7.7175574,-3.4961832,-7.3836803,-1.7214222,5.8729467,64.8931274,85.0992355,250.1297760
7640,4.6710634,3.3518653,8.2671366,2.5267177,-6.9389315,-4.1068702,-5.6694407,-1.7429699,5.0804701,62.5419846,74.6259537,250.1297760
7650,4.7189474,3.3063757,8.2431946,1.5725191,-6.5801525,-4.5114503,-3.7947903,-1.7740943,4.4244623,59.2290077,71.0152664,250.1297760
7660,4.7740140,3.3159523,8.1785507,0.6793893,-5.8931298,-4.7404580,-2.4037662,-1.6088953,3.8546450,54.0305328,75.6488571,250.1297760
7670,4.7189474,3.2920105,8.2695303,-0.2671756,-4.7480917,-5.7633586,-1.0773853,-1.5825592,3.5769191,48.2213745,81.4885483,250.1297760
7680,4.6830344,3.3398943,8.3030491,-0.7175573,-4.7022901,-6.8244276,0.4429250,-1.4652439,3.5481887,44.1908379,91.3206100,250.1297760
7690,4.6590929,3.3542595,8.3437500,-0.7633588,-5.5419846,-7.5725193,1.6591733,-1.3120158,3.4931223,41.7709923,110.9618301,250.1297760
7700,4.6566987,3.3470769,8.4778252,-0.7022901,-6.3358779,-8.3053436,2.2720859,-1.0127422,3.6750808,41.0610695,133.1526642,250.1297760
7710,4.5345950,3.3614421,8.4227581,-0.0763359,-7.2213740,-9.5267172,2.3103929,-1.1659702,3.7828193,42.6335869,144.4732819,250.1297760
7720,4.3574247,3.3279233,8.4083929,0.6106870,-9.2748089,-10.2519083,2.0183017,-1.3263810,4.1611013,45.6412201,135.1603088,250.1297760
7730,4.2975702,3.3015873,8.3174143,1.4809160,-10.8091602,-10.0305347,1.3144100,-1.4365137,3.3111639,46.2900772,111.6717529,250.1297760
7740,4.1778607,3.3255291,8.3940287,1.9083970,-11.9541988,-9.4732828,0.7493813,-1.7884595,2.3750360,41.1526718,74.3664093,250.1297760
7750,4.2161674,3.4691806,8.3461447,2.4885497,-12.2748089,-8.0534353,1.8914096,-2.7221935,1.7070571,30.6030540,33.1755714,250.1297760
7760,4.6447277,3.5457945,7.5943689,-0.5343512,1.6641221,11.5114508,14.5686426,1.3790531,5.5233951,21.2061062,137.0915985,224.0229034
7770,5.1307478,3.8666160,7.3381906,-6.3511453,11.2137403,22.3206100,15.6220865,2.5186872,5.8202744,32.2824440,148.0152740,176.3587799
7780,5.8801293,4.0174499,7.1753860,-14.9847326,22.7633591,26.5496178,17.2644997,3.9336534,5.6550756,37.7175560,127.4198456,115.4427490
7790,6.3015065,3.8881636,7.2256637,-23.3129768,33.1221390,22.4961834,19.6126022,3.7900019,5.8106980,40.4045792,93.1526718,42.1908379
7800,6.2703824,3.7014170,7.4722652,-27.1908398,40.4580154,15.0305347,19.6126022,4.9440012,5.6790175,44.0916023,63.4351158,-52.4885483
7810,5.9758968,3.5577655,7.7859039,-27.6793900,44.9541969,7.0152674,19.6126022,5.2887645,4.7835903,44.9236641,32.5877876,-148.7099304
7820,5.6574697,3.3518653,8.1617918,-27.2900772,47.6564903,-0.0152672,19.6126022,5.0493455,4.0294209,41.8549614,11.1908398,-245.0839691
7830,5.3318601,3.2848279,8.3844519,-26.7175579,48.8625946,-5.7480917,19.6126022,3.4284792,3.2393384,36.6717567,-5.9618320,-250.1374054
7840,5.0517397,3.1579359,8.5496502,-27.1221371,50.6488533,-11.2900763,19.6126022,0.7350162,2.5881188,29.9541988,-21.6564884,-250.1374054
7850,4.3741841,2.9640064,8.6262646,-27.5877857,50.6335869,-15.3587790,17.6882725,-2.3079987,2.5258698,20.8473282,-38.3053436,-250.1374054
7860,3.7085996,2.8323262,8.6980906,-27.2519093,45.9007645,-17.7022896,14.3100700,-5.7819676,2.6695213,10.7404585,-61.5877876,-250.1374054
7870,3.1004753,2.6767037,8.7244263,-26.1374054,37.7480927,-18.6259537,10.2782555,-9.6844959,3.0573800,1.8396946,-88.5648880,-250.1374054
7880,2.6264257,2.5019281,8.8608952,-24.7022896,28.4503822,-18.6793900,5.7053533,-13.3356352,3.3710186,-3.9083970,-122.2748108,-250.1374054
7890,2.3247581,2.5186872,9.0763721,-22.6259537,18.4961834,-17.5877857,-0.9935886,-16.3307667,3.1675127,-9.0687027,-164.4961853,-250.1374054
7900,2.0613971,2.5019281,9.3588867,-19.4732819,8.5877867,-14.8167934,-6.5840211,-17.2453461,2.4827745,-23.1832066,-221.0763397,-250.1374054
7910,1.9105632,2.5378408,9.5504217,-15.0534353,-0.9007633,-10.8854961,-9.7491398,-18.2509060,1.6639616,-55.2824440,-250.1374054,-250.1374054
7920,2.0566087,2.4731977,9.7323799,-10.5343513,-6.2671757,-5.0381680,-14.8056679,-19.6131992,2.5905130,-98.7404556,-250.1374054,-250.1374054
7930,2.4372849,2.5091105,9.8640604,-6.2290077,-7.7938933,0.6412213,-19.6131992,-19.6131992,5.3653784,-144.3206177,-250.1374054,-250.1374054
7940,2.8826041,2.4396791,9.7443514,-1.7480916,-8.2595415,5.8778625,-19.6131992,-14.0682573,10.7427282,-188.6106873,-250.1374054,-250.1374054
7950,3.4524212,2.5474176,9.5983057,2.5954199,-8.1603050,9.6641226,-19.6131992,-6.5121951,17.5541973,-203.2061005,-250.1374054,-250.1374054
7960,3.9312592,2.6072724,9.3924055,5.4809160,-6.8854961,11.4580154,-19.6131992,-1.2018831,19.6126022,-146.1145020,-133.5343475,-250.1374054
7970,4.2137733,2.6719155,9.1194677,7.5648856,-5.2366414,11.2671757,-19.6131992,0.8954269,19.6126022,-31.6488552,159.4961853,29.4885502
7980,4.5058646,2.7628946,8.8010406,8.1526718,-3.5954199,10.4122133,-19.6131992,1.3958124,15.3347836,45.6259537,250.1297760,248.2595367
7990,4.5609307,2.8562679,8.5831690,7.5267177,-2.2442749,8.7709923,-19.6131992,-0.9409165,7.8936424,46.5725174,250.1297760,250.1297760
8000,4.5872669,2.9711890,8.4658537,5.9160304,-1.5725191,6.8015265,-16.7425671,-1.8770446,5.4348102,1.2977099,250.1297760,250.1297760
8010,4.6854286,3.0382264,8.5209198,4.3511453,-0.6870229,4.3587785,-7.8912482,-1.4389079,7.3046722,-30.4274807,250.1297760,250.1297760
8020,4.5465660,2.9903426,8.4921904,2.3358779,-1.0076336,1.7328244,-3.2369442,0.0311245,8.8704720,-25.8778629,179.9465637,193.5725250
8030,4.4340386,3.1124463,8.6118994,1.1450381,-2.3893130,-1.5114504,-1.4604555,1.5298871,8.5257082,-4.3969464,31.5038166,91.9923630
8040,3.7421181,2.9975252,8.7340031,0.7099237,-10.3969469,-7.5496182,-7.4004397,5.3965030,2.5905130,41.2977104,-44.9389305,-18.9160309
8050,3.6607156,2.9256995,8.8369532,1.0000000,-11.8320608,-6.8473282,-7.0844064,5.0756817,1.8938038,39.8167953,-13.0687027,-4.2595420
8060,3.6008608,2.9352763,8.8465300,1.5954199,-12.8167934,-4.8549619,-6.2799587,4.3885493,1.3144100,36.5648842,11.9312973,3.1374047
8070,3.6655040,2.9185169,8.7842808,1.9923664,-12.5954199,-3.7862597,-6.0429344,4.0820932,0.9768293,31.4503822,27.0763359,5.5954199
8080,3.7828193,2.8562679,8.7148495,1.8625954,-11.8167934,-2.1755726,-6.1482787,4.0820932,0.9169745,24.6870232,33.3282433,5.0076337
8090,3.9575951,2.8131726,8.7316093,1.4656489,-9.9465647,-0.4045801,-6.4547348,4.1778607,0.8714849,15.5572519,33.0763359,5.0610685
8100,4.1227942,2.9041519,8.7076674,1.0305344,-7.1832061,1.4885496,-6.2703824,4.3047528,0.9840119,4.0763359,31.0229015,6.3053436
8110,4.2951760,2.8778157,8.6885138,0.5572519,-4.0916033,2.6106870,-5.9998388,4.1946201,1.2473727,-9.0534353,26.0152664,6.2824426
8120,4.3478479,2.7988074,8.7507620,0.1297710,-1.2748091,3.0076337,-5.7915444,3.9791429,1.7357874,-21.4961834,15.4427481,1.7557251
8130,4.3885493,2.8179610,8.7842808,0.3435115,0.9160305,3.5954199,-5.5521255,3.7038112,2.3798244,-30.9160309,1.3740458,-5.3587785
8140,4.4364328,2.9568241,8.6597834,-0.0534351,3.4580152,2.7938931,-5.4060798,2.8706331,3.6774750,-37.5267181,-18.3282452,-27.3511448
8150,4.4077029,3.1555417,8.6310530,-1.0229008,3.1221373,1.1450381,-6.0070214,2.4731977,4.4460096,-36.3129768,-23.5801525,-40.4656487
8160,4.2808108,3.1196289,8.6214762,-1.2137405,1.9160305,-0.9083970,-6.8856888,2.2960277,4.8386569,-33.1679382,-31.8778629,-52.7557259
8170,4.1419477,3.1675127,8.6526003,-1.1832061,1.2137405,-2.3282442,-7.8792777,2.1092808,5.0062504,-29.5190830,-40.2977104,-61.0000000
8180,3.8642218,3.0142846,8.6573887,-1.2748091,0.5725191,-2.8931298,-8.7555504,1.9776005,5.1642666,-26.4961834,-43.3282433,-63.3587799
8190,3.6248028,3.0525916,8.7699156,-1.4198474,-0.4045801,-1.9389313,-9.6006994,1.8243724,5.1882086,-23.5572510,-42.8396950,-62.6564903
8200,3.5170643,2.9783716,8.7890692,-1.0458015,-0.5725191,0.2977099,-10.2255831,1.7740943,5.2791877,-20.5190830,-44.0458031,-58.5877876
8210,3.6224086,2.9759774,8.8920193,-1.2290076,2.0458016,3.0076337,-10.6278067,1.7333932,5.3174949,-17.2977104,-47.5648842,-53.9847336
8220,3.6774750,2.9640064,9.0931320,-1.0305344,7.3053436,6.1679387,-10.7235746,1.6065011,5.1882086,-14.8625956,-52.1908379,-49.1450386
8230,3.7660601,2.9352763,9.1769285,-1.5267175,16.2213745,10.3587790,-10.4961262,1.6735384,5.1235652,-13.1908398,-56.7328262,-45.3206100
8240,3.8785870,2.7461352,9.0380650,-2.2442749,24.7251911,15.3740454,-10.2447367,1.8626794,5.2480631,-12.0152674,-61.8931313,-41.2824440
8250,3.9528067,2.7844424,8.8489246,-2.3435113,29.7251911,19.2442741,-9.6653433,1.9105632,5.3294659,-10.4351149,-63.4885483,-38.5190849
8260,4.1108232,2.8993635,8.6454182,-2.4885497,31.8854961,21.4274807,-9.4522600,1.8626794,5.2600341,-8.8931293,-59.1374054,-37.1755714
8270,4.2496862,2.9855542,8.4419117,-3.5648854,32.3740463,21.3816795,-9.6581602,1.8626794,5.4084740,-7.2366414,-55.5419846,-36.0763359
8280,4.3981261,2.8849983,8.3892403,-5.1603055,30.8854961,19.6946564,-10.1417866,1.8626794,5.4348102,-5.2595420,-58.0305328,-36.3053436
8290,4.4579806,2.9424589,8.2360115,-7.2061067,29.7404575,16.8625946,-10.7451220,1.8483143,5.4300218,-4.4198475,-68.9236679,-36.4351158
8300,4.3861551,3.0071020,8.0995426,-9.9847326,27.9083977,13.0381680,-11.4777441,2.2170193,5.4012914,-4.4580154,-86.4351120,-35.2442741
8310,4.3263001,2.9568241,8.4107876,-12.8931293,25.6412220,9.0152674,-11.6597023,2.5210814,5.1427188,-5.7328243,-103.7709961,-30.0763359
8320,4.1227942,2.9544299,8.5113440,-15.0687027,24.6717548,4.9923663,-11.0683374,2.5881188,4.9559722,-7.8702292,-108.1603088,-20.7633591
8330,3.9839313,2.8251436,8.8656836,-16.1374054,24.4045811,1.7938931,-10.3213511,2.5593886,4.9200592,-9.2748089,-96.9083939,-10.8931293
8340,3.8019729,2.6862805,9.0667953,-16.0992374,24.5877857,0.0381679,-9.6868906,2.5474176,5.1475072,-7.9312978,-74.6106873,-0.9312977
8350,3.5721307,2.5857246,9.1553802,-14.8549614,23.9007626,-0.9923664,-8.8992023,2.5019281,5.2600341,-4.1450381,-47.1221390,7.3358779
8360,3.2896163,2.5474176,9.2846670,-12.7251911,21.0305347,-0.9389313,-8.2815018,2.5546002,5.1929970,1.0534351,-19.6870232,12.8931293
8370,3.2153964,2.5881188,9.3756456,-10.2366409,17.8625946,-0.3816794,-7.7260494,2.6072724,5.3677726,6.4503818,1.2595420,15.8320608
8380,3.0956869,2.4684093,9.1888990,-8.5114508,15.0687027,0.3587786,-7.1801744,2.6886747,5.1451130,11.4427481,13.5877867,14.0152674
8390,3.1148405,2.5330524,9.1362267,-7.2061067,12.7709923,1.6488550,-6.7755561,2.7581062,5.2384863,15.0534353,22.6564884,9.4351149
8400,3.0765336,2.4971397,9.1553802,-6.4198475,10.8244276,2.4122138,-6.6342988,2.7820482,5.0589223,18.3587780,29.9160309,2.2519083
8410,3.1268115,2.5258698,9.1817169,-5.7938933,7.8244276,2.9465649,-6.8976598,2.8945751,5.0804701,21.7328243,33.7938919,-6.4885497
8420,3.1962428,2.4995339,9.2056589,-4.4809160,4.3053436,2.7022901,-7.6566176,2.8586621,4.8961172,25.1679382,32.0228996,-15.5496187
8430,3.2848279,2.5474176,9.1529865,-3.2442749,1.0763359,2.0687022,-8.8800488,2.8730273,4.8171091,28.0458012,21.9160309,-25.1374054
8440,3.5529771,2.5091105,9.1841106,-1.7175573,-2.6259542,-0.6564885,-11.9493999,3.0334380,4.6543045,26.0687027,-23.7404575,-37.3664131
8450,3.5553713,2.4947455,9.2248116,-1.6946565,-3.0610688,-2.2442749,-12.8017311,3.0693510,4.8171091,19.7328243,-47.8549614,-35.9923668
8460,3.6319854,2.5785420,9.1841106,-1.4885496,-3.5496182,-3.3969467,-13.0124197,2.9783716,5.1379304,12.1679392,-61.4274826,-30.4580154
8470,3.5481887,2.5474176,9.1529865,-0.9694657,-4.3587785,-5.0152674,-13.0315733,3.0047078,5.7891502,6.3740458,-63.5267181,-21.9083977
8480,3.5122759,2.5929072,9.1146793,-0.4351145,-5.8625956,-6.5190840,-12.7227230,2.9017577,6.4068508,5.1984735,-57.4656487,-11.8167934
8490,3.3853838,2.5426292,9.2846670,2.0763359,-11.1297712,-10.2977095,-10.8169479,2.5976956,7.9319496,25.6870232,-13.6641226,15.9312973
8500,3.3063757,2.5785420,9.1601686,3.7175572,-13.6488552,-10.6335878,-9.3397331,2.3439114,7.5512733,46.7557259,31.9160309,26.2977104
8510,3.2560976,2.6886747,9.1649570,5.1679387,-15.2595415,-7.3129773,-10.6206245,2.4755919,6.4068508,71.7938919,31.7404575,24.6870232
8520,3.3111639,2.6790979,9.0667953,5.0916033,-14.3587790,-5.6335878,-10.9079275,2.4253139,5.9567432,73.9312973,11.4885492,25.2061062
8530,3.4284792,2.7389526,8.9853926,4.8015265,-12.7633591,-4.4351144,-10.9127159,2.4061604,5.8921003,74.8625946,-2.3435113,27.7633591
8540,3.4883339,2.7317703,8.8800488,4.3740458,-10.7938929,-2.8549619,-10.6709023,2.4492557,5.6526814,75.3816757,-7.6259542,32.3587799
8550,3.7445123,2.6503677,8.9710283,-1.5343511,-0.4885496,2.9312978,-12.7179346,3.0214672,4.8961172,86.6717529,-31.9389305,76.4503784
8560,3.8498566,2.6048782,8.8920193,-1.9465649,1.9007634,3.4198472,-13.3404236,3.3686244,4.0581512,80.0305328,-28.6259537,115.6335907
8570,3.8354914,2.5402350,8.9686337,-1.9618320,3.0000000,2.9847329,-13.2829628,3.4596038,3.7325413,73.7251892,-21.4122143,141.0839691
8580,3.9671719,2.5713594,8.9662399,-1.5954199,3.7328243,2.3893130,-12.8520088,3.7085996,3.6463506,67.7022934,-11.0305347,167.9236603
8590,3.9408360,2.4971397,8.9446917,-1.3816794,3.9389312,1.9770992,-11.8033543,3.8211265,3.3973548,63.5190849,4.7938933,195.7633514
8600,3.5386121,2.6144550,9.0955257,-1.5419847,5.0458016,-1.0687023,-8.1977043,2.2481439,2.0350611,30.4198475,131.0458069,250.1297760
8610,3.5721307,2.6360025,9.0308828,-1.7328244,5.9160304,-0.2671756,-7.1442614,1.8674678,1.7908537,14.8854961,137.4961853,250.1297760
8620,3.3997490,2.6814921,9.0165176,-0.9312977,5.4045801,-0.5038168,-6.4068508,0.9888002,1.9153515,-1.9541985,132.9160309,250.1297760
8630,3.4691806,2.7317703,8.9422979,-0.8473282,3.6335878,-0.3282443,-5.3079181,1.7645177,1.8961980,-21.6641216,125.5648880,250.1297760
8640,3.4907281,2.7676830,8.8106174,-2.1984732,3.8625953,0.0992366,-5.3845320,1.9201399,2.4420733,-34.5496178,116.6259537,250.1297760
8650,3.4021432,2.8227494,9.1721401,-2.5648854,5.0305343,-0.2900763,-1.3431402,1.3766589,3.5218527,-40.0916023,55.2442741,250.1297760
8660,3.3470769,2.5713594,8.9183559,-0.3206107,-4.3435116,-1.2977099,6.3230543,1.7836711,3.0908985,-38.4732819,76.0381699,249.5954132
8670,3.6511390,2.5378408,9.1362267,0.8244275,-6.4961834,-2.0076337,7.1131368,2.0973101,2.7365584,-37.8549614,100.0687027,209.9465637
8680,3.5434003,2.6958573,9.0787668,4.9007635,-8.7786255,-4.1221375,12.4641504,2.0446377,0.2633608,-82.9465637,-101.8778610,69.1068726
8690,3.4715748,2.8754215,8.9375095,4.7251906,-8.0992365,-3.7633588,16.6827126,1.7908537,-0.7038917,-113.6335907,-156.5496216,15.4885492
8700,3.3805954,3.0047078,8.8393478,4.0076337,-6.8396945,-2.9770992,19.6126022,1.8363433,-0.4189832,-146.9770966,-168.3358765,-51.7786255
8710,3.3231349,3.0071020,8.7435799,2.5114503,-5.8015265,-1.3816794,19.6126022,1.7956421,0.7733232,-169.7862549,-129.5190887,-134.6412201
8720,3.2608860,3.0837159,8.7172441,0.9236641,-4.7938933,0.3358779,19.6126022,1.2665262,2.3558824,-176.9923706,-67.5114517,-228.7328186
8730,3.3686244,2.9951310,8.7124557,-0.8931298,-4.0992365,1.2671756,19.6126022,0.1173153,4.0294209,-171.0686951,-2.2977099,-250.1374054
8740,3.4763632,2.9256995,8.7268209,-2.4885497,-4.3435116,2.0610688,19.6126022,-1.9464760,5.4348102,-158.8625946,43.1450386,-250.1374054
8750,3.5864959,2.8586621,8.8824425,-3.4045801,-4.3282442,2.1526718,17.9683914,-4.4938936,6.1554613,-144.3435059,59.6030540,-250.1374054
8760,3.7780309,2.6503677,8.9207497,-3.1526718,-5.4580154,1.4732825,14.1257181,-8.0851774,6.6558466,-131.5572510,51.2977104,-250.1374054
8770,3.8785870,2.5929072,9.0308828,-2.5572519,-7.0381680,0.4045801,10.8576488,-12.1936073,7.6398587,-120.3282471,27.0763359,-250.1374054
8780,3.9719603,2.4301023,9.1338329,-1.1526718,-7.2824426,-1.0687023,6.6869712,-16.1727505,8.9135675,-109.6488571,-6.9618320,-250.1374054
8790,4.0437860,2.4253139,9.1481981,-0.2900763,-7.5419846,-2.0687022,0.9911944,-19.6131992,10.1106625,-97.5877838,-42.7175560,-250.1374054
8800,3.9935081,2.3894010,9.1434097,0.9618320,-7.0458016,-2.7938931,-6.7420373,-19.6131992,11.0515785,-80.8015289,-82.2137375,-250.1374054
8810,4.1012464,2.4324965,9.1386213,2.0458016,-6.3358779,-3.7480917,-15.2174683,-19.6131992,11.6692791,-66.8244247,-143.6412201,-250.1374054
8820,4.0892754,2.5138988,9.0141230,2.9083970,-4.7862597,-4.1679387,-19.6131992,-19.6131992,12.6915979,-64.4427490,-211.7328186,-250.1374054
8830,4.0222383,2.6575503,8.9973640,3.0000000,-2.6412213,-4.2824426,-19.6131992,-19.6131992,15.2270451,-76.9694672,-250.1374054,-250.1374054
8840,3.9887197,2.8059900,8.9542685,2.4427481,-1.1755725,-4.7099237,-19.6131992,-12.4426022,19.5437679,-99.7633591,-250.1374054,-250.1374054
8850,3.8522508,2.8945751,8.7483683,1.6183206,-0.1908397,-4.4656487,-19.6131992,-6.6342988,19.6126022,-96.2595444,-250.1374054,-250.1374054
8860,3.7732425,2.8873925,8.7387915,0.4427481,1.7251909,-3.6106870,-19.6131992,-4.1323709,19.6126022,-31.1755733,-250.1374054,-249.3358765
8870,3.6511390,2.9783716,8.7076674,-0.8625954,2.5496182,-3.1603053,-19.6131992,-2.3774302,19.6126022,72.8320618,-38.1755714,-66.0076370
8880,3.6200144,2.9711890,8.7363977,-1.8625954,2.9160306,-3.0000000,-19.6131992,-1.1875180,16.3954086,149.7175598,222.9694672,73.8854980
8890,3.5146701,2.9161227,8.8848372,-2.2519083,2.5038168,-2.5114503,-19.3546276,-0.2825144,9.4690189,162.7862549,250.1297760,170.4503784
