timestamp,rxacclX,rxacclY,rxacclZ,rxgyroX,rxgyroY,rxgyroZ,txacclX,txacclY,txacclZ,txgyroX,txgyroY,txgyroZ
0,3.7014170,1.3575054,9.1817169,-0.6870229,3.3587787,0.0076336,-0.2777260,1.1539993,10.6828737,-1.3740458,-6.0839696,-3.5343511
10,3.6870518,1.3431402,9.3086090,0.6106870,-3.0610688,0.2213740,0.0670373,1.0869620,10.2495251,-2.3129771,-8.5190840,-7.9160304
20,3.5888901,1.4029950,9.2822723,0.7251908,-3.3816793,-0.3511450,-0.2130829,0.9792235,10.8169479,-3.1374047,-10.7175570,-8.7251911
30,3.6583214,1.4245427,9.3253679,1.5877863,-3.7557251,0.4198473,-0.2130829,1.1156923,11.1257982,3.3435113,-5.6106873,-8.4045801
40,3.6750808,1.4245427,9.2343884,1.6793894,-2.8320611,0.5877863,-0.2633608,1.1444225,10.9390516,5.6564884,-2.3740458,-7.1908398
50,3.7493007,1.4676381,9.2152348,1.4656489,-2.3969467,0.8854962,-0.4165890,1.1851238,10.7283630,6.8549619,-1.2061069,-5.6259542
60,3.8043671,1.5370697,9.0787668,0.5877863,-1.8854961,0.9618320,-0.2920911,1.1707586,10.4937325,6.9923663,-0.9160305,-3.9160306
70,3.8642218,1.3646880,9.2607250,0.8244275,-2.1068702,0.5343512,-0.2394189,1.2090657,10.4865494,6.4351144,-1.2748091,-2.7328243
80,3.7229645,1.5705882,9.1194677,0.1755725,-0.5343512,0.5190840,-0.2873027,1.1875180,10.4410601,5.1984735,-2.7862597,-2.0687022
90,3.6439564,1.3910241,9.3469152,-0.9694657,-1.5496184,-0.5496183,-0.3088504,1.3359578,10.6661139,0.9618320,-5.6183205,1.3664122
100,3.5003049,1.4724265,9.2655134,-0.5419847,-2.0381680,0.0000000,-0.3256098,1.3718705,10.9055328,1.8320611,-4.8015265,2.5038168
110,3.5912843,1.3958124,9.2894554,0.1755725,-2.8091602,0.7251908,-0.2346306,1.2258250,10.9031391,3.6564887,-2.6717558,3.7557251
120,3.6152260,1.4652439,9.3636751,0.9236641,-3.0381680,1.1450381,-0.1340746,1.1276633,10.8696203,4.9847326,-1.4809160,3.6106870
130,3.7804251,1.4843974,9.2894554,1.3129771,-3.4885497,1.2137405,-0.0359128,1.0438666,10.8049774,5.9541984,-0.7633588,2.6946564
140,3.8809812,1.5634058,9.2319946,1.1450381,-3.0000000,1.2366412,0.0478838,1.1300575,10.7546988,7.2442746,0.1374046,1.6335878
150,3.9192882,1.4987626,9.2296000,0.7251908,-2.4656489,0.5954198,-0.0239419,1.1803354,10.6804790,7.9618320,1.5190840,2.0992367
160,3.9192882,1.5418580,9.1386213,-0.3053435,-2.5114503,-0.2137405,-0.1771700,1.2641320,10.5607700,7.8625956,1.5648855,2.5114503
170,3.9671719,1.5155219,9.1338329,-1.1374046,-2.2442749,-1.2671756,-0.2106887,1.2449785,10.5464048,7.5877862,1.9312977,4.1526718
180,3.8330972,1.4820032,9.2511482,-1.7404580,-1.2977099,-1.7633588,-0.3495516,1.2473727,10.5895004,7.7557254,2.3053436,5.5877862
190,3.8330972,1.4628497,9.1673517,-1.9160305,-0.6335878,-1.9083970,-0.3567342,1.4293311,10.6086531,8.0305347,2.3664122,6.6564884
200,3.9408360,1.3958124,9.2128410,-1.7786260,-0.2595420,-2.1755726,-0.3112446,1.3886299,10.7044210,8.5496187,3.2366412,6.7251906
210,3.8211265,1.4293311,9.2870607,-1.9160305,1.6641221,-1.9770992,-0.2130829,1.4436963,10.6996326,8.7175570,4.3511453,6.6183205
220,3.9982965,1.4413021,9.2942438,-2.2671757,3.1145039,-1.7251909,-0.2753318,1.3359578,10.9318695,10.3435116,5.4045801,6.9847326
230,4.0844874,1.4556671,9.1769285,-2.7099237,6.3129773,-1.6717557,-0.4165890,1.3958124,11.2239599,13.4045801,6.3969464,8.0458012
240,4.0198441,1.5538290,8.8920193,-6.0229006,11.7709923,-1.6946565,-0.7733232,1.3551112,12.4330254,31.6564884,24.5496178,15.8625956
250,4.1180058,1.4053892,9.0117292,-8.0000000,12.4045801,-2.6335878,-1.5227045,1.7070571,13.0986109,45.4656487,43.3435097,23.4885502
260,4.1419477,1.6136837,9.1051025,-9.2748089,14.4885492,-5.1221375,-2.2625091,2.0374553,13.6277266,63.9312973,62.5877876,34.5725174
270,3.9887197,1.4628497,9.2248116,-9.9923668,16.3282452,-7.6412215,-1.8411317,1.7740943,13.3691540,80.9770966,93.8473282,45.8702278
280,3.8402798,1.6041069,9.3038206,-10.2366409,19.2977104,-8.3664122,-1.3910241,1.4748207,12.0499554,91.1984711,116.0000000,52.0076332
290,3.8594334,1.3527170,9.1242561,-12.5267172,24.1679382,-7.6946564,-0.4501076,1.2832855,10.0723553,92.4122162,126.9770966,50.9771004
300,3.8187323,1.5274929,9.1553802,-13.5648851,23.0534344,-9.0076332,0.4141948,1.9943599,8.8297710,80.5725174,145.2671814,35.2824440
310,3.8163381,1.3598996,9.0380650,-15.1221371,24.0305347,-11.4198475,-0.1125269,1.4006008,8.1091194,67.1755753,111.1145020,27.9770985
320,3.5553713,1.5059452,9.1505919,-14.6870232,22.6641216,-12.9847326,-0.0263361,1.8961980,7.1777802,52.4885483,85.2977066,24.6106873
330,3.5697365,1.3311694,9.1553802,-16.6488552,23.1450386,-12.8015270,-0.4716553,2.5929072,7.4243813,34.1297722,66.7099228,19.5648861
340,3.4236910,1.1061156,9.4355011,-17.8167934,24.4580154,-13.9618320,-1.2473727,2.7820482,8.1498213,18.2061062,44.0839691,15.0610685
350,3.1507533,1.3263810,9.5911226,-16.4122143,22.4045811,-15.3816795,-1.3407460,2.7461352,8.7627335,8.0839691,26.3740463,12.7404585
360,3.1411765,1.1468167,9.7802639,-14.7022905,21.9618320,-13.6717558,-1.7333932,2.8706331,9.0739784,2.3129771,22.8549614,13.0229006
370,3.1220231,1.0749911,9.8784256,-12.9312973,22.1526718,-13.4961834,-2.1571648,2.7341642,9.4762020,-0.8549618,21.7633591,14.1832066
380,3.1244173,1.0989330,9.6318245,-10.5801525,22.2290077,-14.3129768,-2.1356170,2.7054341,9.6198530,-3.0534351,19.0305347,16.9236641
390,2.7796540,1.2976507,9.4666252,-8.6717558,21.2137413,-12.2290077,-2.0422437,2.7413468,9.8401184,-4.0534353,18.5343513,18.3587780
400,2.9855542,0.9504932,9.3708572,-10.1908398,19.4045811,-11.2519083,-1.9225341,2.6192431,10.1058741,-3.7938931,18.9694653,17.6641216
410,2.8227494,1.2114599,9.3517036,-10.0000000,17.8015270,-11.5725193,-1.9153515,2.6120608,9.9047613,-4.4045801,17.6412220,16.3511448
420,2.7269819,1.1587877,9.4929609,-9.1679392,15.9465647,-11.5725193,-1.7381816,2.7700772,9.7874460,-5.6259542,12.7022905,14.7938929
430,2.2601149,1.0654143,9.4881725,-8.8320608,11.0381680,-6.3587785,-1.7812769,2.6743097,9.6342182,-8.5954199,0.0305344,10.4351149
440,2.3199697,0.8379663,9.7611103,-7.7938933,6.9389315,-5.0000000,-1.6663558,2.6192431,9.4905672,-11.6030531,-6.8778625,8.5114508
450,2.2218077,1.0414724,10.0723553,-4.3358779,2.9312978,-3.4122138,-1.5298871,2.7078283,9.3397331,-15.4961834,-14.0076332,6.2977099
460,2.1954718,0.8930327,9.9885588,-0.8396947,-1.8625954,-1.7175573,-1.4221486,2.6216373,9.3421268,-21.4732819,-20.4427490,3.2442749
470,2.1978660,1.0151364,9.8640604,1.4427481,-3.9847329,0.9847328,-1.4029950,2.6407909,9.2870607,-26.9007626,-27.4732819,1.1908396
480,3.3494711,1.2018831,9.3900108,-0.2213740,-3.4961832,0.4580153,-0.3136388,1.9177457,10.3524752,-55.3893127,-16.5419846,-19.6870232
490,3.2177906,1.1492109,9.4067707,0.0534351,-3.9923663,0.0381679,-0.7709290,1.8243724,10.2830439,-60.6946564,-18.4274807,-25.6641216
500,3.2058196,1.1803354,9.4690189,-0.3816794,-2.6488550,0.4427481,-1.3527170,1.4245427,11.0755205,-66.3664093,-1.0610687,-27.9541988
510,3.1675127,1.1061156,9.4594421,-0.0763359,-2.7786260,-0.2290076,-2.7557120,1.5322813,12.0906563,-62.0076332,5.6946564,-23.9389305
520,3.0693510,1.1252691,9.4642305,-0.0534351,-2.7022901,-0.2824427,-3.1651185,1.4125718,12.0691090,-52.4045792,12.3969469,-17.6335869
530,3.1651185,1.1563935,9.4953556,-0.7938932,-2.5801528,-0.5648855,-2.9376705,1.0893562,11.8991213,-42.3358765,20.9465656,-10.5038166
540,3.0454090,1.1755470,9.5121145,-1.2977099,-1.2671756,-0.6106870,-2.4420733,0.9289455,11.6261835,-32.6641235,30.1068707,-3.5954199
550,2.9687948,1.1755470,9.4785957,-0.8015267,-0.9541985,-0.6793893,-1.9153515,0.9433106,11.3508520,-25.2061062,41.7251892,0.6793893
560,2.9951310,1.2569494,9.4378948,-1.1450381,-0.1908397,-0.4351145,-1.3407460,0.8044477,11.0659437,-20.4427490,57.7251892,2.5877862
570,3.0262554,1.1228749,9.4091644,-1.4503816,-0.3969466,-0.3435115,-1.0917504,1.0773853,10.5990763,-18.0381680,95.5954208,0.6564885
580,2.9999194,1.1659702,9.5240860,-1.2366412,-0.3893130,-0.7938932,-1.7764885,0.8714849,11.0467901,-18.8702297,109.3282471,-0.9770992
590,2.9304879,1.2761030,9.5049324,-1.2900764,0.3740458,-0.3740458,-2.0709739,0.4501076,11.4322548,-20.3053436,110.9542007,-2.2213740
600,3.0956869,1.1252691,9.4307127,-1.7480916,0.4122137,-1.0381680,-2.1188576,0.4836263,11.6046362,-19.2595425,113.6259537,-6.4045801
610,2.9592183,1.3479286,9.4666252,-2.1374047,1.1297710,-0.8244275,-2.0925217,-0.0071826,11.6261835,-18.6870232,110.9465637,-17.8854961
620,3.0166788,1.1132981,9.5240860,-2.1297710,0.8244275,-1.4885496,-2.7437410,0.7589580,11.9326401,-18.0992374,87.9770966,-29.4732819
630,2.9089401,1.1563935,9.4809904,-2.1984732,1.6717557,-0.5725191,-3.4117200,0.5075682,11.5830889,-20.4961834,67.7251892,-31.6946564
640,2.9783716,1.0486550,9.5935173,-1.4503816,1.2900764,-0.2824427,-3.7421181,0.3878587,11.6908274,-23.4885502,57.3664131,-27.5343513
650,2.9376705,1.1037214,9.6653433,-1.4351145,1.0763359,0.5954198,-3.5960727,0.4572902,11.6525202,-24.5419846,49.8854980,-22.2290077
660,3.0118904,0.9624642,9.6342182,-0.5572519,0.3587786,0.6793893,-3.1770895,0.3232156,11.5998478,-24.9007626,42.5114517,-19.1908398
670,3.0071020,1.1779412,9.4977493,-0.7709923,0.4045801,0.8931298,-2.8730273,0.2154770,11.6908274,-24.0916023,37.0916023,-17.9541988
680,3.1794837,1.0989330,9.4139528,-1.1068702,0.7557252,1.0687023,-2.5522060,0.0383070,11.8536320,-21.7862587,33.3816795,-18.8549614
690,3.2082138,1.1827296,9.4881725,-1.2213740,1.3358779,0.0992366,-1.7453641,-0.0622489,11.5064745,-19.4732819,38.0763359,-20.6106873
700,3.1292057,1.1300575,9.5839405,-0.7938932,1.0305344,-1.1755725,-1.9009864,-0.4237715,11.4729557,-17.5190830,57.1679382,-21.4351139
710,3.1387823,1.2545552,9.5647869,-1.1297710,1.2977099,-1.1526718,-2.5067163,-0.4333483,11.9398232,-11.1908398,75.0152664,-20.9083977
720,3.1148405,1.0869620,9.5264797,-1.3893130,2.1603053,-1.6641221,-3.1842721,-0.2585725,12.4066896,-2.6259542,88.8549652,-15.9236641
730,3.0047078,1.2018831,9.4115591,-1.5114504,0.7557252,-1.4122137,-3.8450682,-0.5315101,13.0674858,21.2137413,89.9160309,-1.0839695
740,3.1244173,1.1396341,9.5887289,-2.8167939,-0.1603053,-3.1068702,-3.2824337,-0.4237715,12.2127600,54.2290077,55.6259537,1.9312977
750,3.0023136,1.0989330,9.6437950,-1.8778626,-1.6106870,-3.7557251,-3.3279233,-0.5434810,11.7434988,60.6183205,44.5954208,-0.2137405
760,2.7844424,1.0007712,9.6509781,-1.3129771,-1.8244275,-3.3435113,-3.4500270,-0.4261657,11.1497402,63.5648842,34.3664131,-2.6335878
770,2.7916248,1.0247130,9.6054878,-0.6870229,-1.9465649,-2.2977099,-3.2728570,-0.1867468,10.6349897,63.0763359,25.7633591,-3.9083970
780,2.7030399,1.0295014,9.6174593,0.0305344,-0.9618320,-0.6946565,-3.0214672,-0.0790083,10.3333216,60.5648842,22.0610695,-3.9618320
790,3.0669568,1.2234308,10.3524752,8.6870232,-3.2748091,1.6412214,-2.7916248,-0.3016679,10.1681223,57.9618340,20.2366409,-8.6641226
800,3.3566537,1.4604555,10.0819321,13.9083967,-2.1068702,1.1145039,-2.8347204,-0.4525018,10.3548698,58.1221390,23.6717548,-14.1755724
810,3.3279233,1.4436963,9.5408449,14.8396950,-3.5801528,-0.6106870,-2.9328821,-0.3088504,10.3883877,59.0610695,26.0458012,-19.1145039
820,3.4500270,1.3263810,9.0260944,13.0305347,-2.3282442,-2.2671757,-3.1962428,-0.3016679,10.6421719,61.0381660,25.9618320,-23.8167934
830,3.2608860,1.4221486,8.8632889,9.8091602,0.2977099,-3.9007633,-3.3949606,-0.1819584,10.3859940,63.2824440,22.2748089,-27.6183205
840,3.0525916,1.2976507,8.7363977,3.7862597,2.7251909,-5.1374044,-3.4117200,-0.1675933,10.0891142,65.5725174,19.1984730,-32.7404594
850,2.9233053,1.2018831,8.9159613,-1.1145039,4.2977099,-4.7938933,-3.2584918,-0.3615226,9.8257532,67.8244247,16.4503822,-40.5190849
860,2.6192431,1.1013272,9.4953556,-6.1221375,1.5267175,0.7709923,-7.8457589,2.3750360,6.9072366,96.0229034,44.0839691,-64.1755753
870,2.8562679,1.2808913,9.6246414,-5.5725193,1.7633588,3.0305343,-10.9629936,3.8091555,5.8921003,106.7557220,92.2748108,-27.2442741
880,3.1699069,1.3120158,9.6102762,-4.4198475,0.5648855,2.1297710,-12.1912127,4.4699516,5.0493455,112.5267181,116.0457993,-0.5954198
890,3.1339941,1.3168042,9.7299862,-2.9770992,0.3129771,0.9007633,-13.4385853,5.1451130,4.0126615,115.8244247,151.5725250,32.3358765
900,3.0262554,1.3168042,9.7467451,-1.8778626,0.1450382,0.5114504,-14.1999378,5.8274570,3.2058196,117.1450348,201.5114441,72.6335907
910,3.0454090,1.1947005,9.5815458,-1.4427481,0.5877863,0.5801527,-13.9916430,6.0860295,2.5569944,118.1832047,248.4198456,111.7328262
920,2.9424589,1.1635761,9.5312681,-1.0687023,1.1221374,0.7022901,-13.5008345,6.4092450,1.8578910,116.9770966,250.1297760,145.1221313
930,2.9233053,1.1539993,9.4355011,-0.8091603,0.7099237,1.2519084,-12.9549589,6.6797886,1.0582317,111.1145020,250.1297760,169.2290039
940,2.9304879,1.1396341,9.4666252,-0.9847328,0.3435115,1.5725191,-12.5048513,6.8856888,-0.2250538,98.8702316,250.1297760,188.3206177
950,3.0908985,1.2354017,9.4666252,-1.1068702,0.2290076,2.0152671,-12.2965574,7.3262196,-1.4556671,80.7328262,250.1297760,207.5343475
960,3.0861101,1.2761030,9.4738073,-1.0381680,0.3129771,1.7786260,-12.1169930,7.3836803,-2.4684093,58.7328262,250.1297760,226.2213745
970,3.0094962,1.2306134,9.6557665,-0.8320611,-0.2213740,1.1526718,-11.3604288,7.2639709,-3.1651185,33.7022896,250.1297760,243.8854980
980,2.9424589,1.2425843,9.5025377,-0.3893130,-0.5496183,1.0763359,-10.0986910,6.9575148,-3.5793133,6.0229006,250.1297760,250.1297760
990,2.8945751,1.1994889,9.4067707,-0.7175573,-0.8931298,0.3816794,-8.7962523,6.8042865,-3.9240766,-25.0687027,250.1297760,250.1297760
1000,2.8179610,1.0965388,9.4905672,-0.7786260,-1.2137405,0.5877863,-7.1753860,6.4044566,-3.7253587,-57.3893127,250.1297760,250.1297760
1010,2.8849983,1.0510491,9.5887289,-0.6717557,-0.8778626,1.0381680,-5.2241216,5.9160423,-3.3853838,-86.8091583,229.8625946,242.0076294
1020,2.8227494,1.1348459,9.4905672,-0.7938932,0.0458015,1.8015267,-3.4619980,5.5090299,-2.5258698,-111.7786255,202.9770966,222.5038147
1030,2.8778157,1.1396341,9.4881725,-1.0534351,-0.5801527,1.7404580,-2.0087249,5.1115947,-1.6232605,-129.6412201,173.3969421,196.6564941
1040,2.9472473,1.1587877,9.6150646,-0.7251908,-1.0763359,1.7709924,-0.8571198,4.9918852,-0.9289455,-142.3969421,141.0763397,164.0992432
1050,2.9448531,1.1539993,9.6725254,0.4198473,-2.2595420,0.6717557,0.0047884,4.9056940,-0.3902529,-154.5877838,104.1221390,125.4580154
1060,2.9472473,1.1492109,9.7060442,1.8015267,-3.0992367,1.2061069,0.1244979,4.8841467,0.0837966,-169.9847260,62.6564903,88.3282471
1070,2.9879484,1.2066715,9.5073261,2.4580152,-3.0152671,1.3740458,0.1053443,4.7883787,1.0654143,-187.1755676,14.0534353,51.2137413
1080,2.9664006,1.3191984,9.4307127,1.8396946,-2.2213740,1.3511450,-0.0718257,4.3286943,1.9416877,-204.4732819,-46.3587799,14.4885492
1090,2.9879484,1.3575054,9.4259243,1.4656489,-2.2824428,1.5114504,0.0071826,3.5721307,2.8514795,-219.6335907,-102.5419846,-19.1374054
1100,3.0334380,1.3646880,9.3421268,0.3129771,-1.4198474,1.8549619,-1.7262106,1.9416877,3.5098817,-232.7709961,-125.8549652,-40.4351158
1110,3.2369442,1.3934183,9.4283180,-0.4961832,-0.9236641,1.2824427,-4.7476778,1.3191984,5.3701668,-239.9236603,-97.4503784,-40.8473282
1120,3.1555417,1.3670821,9.5408449,-1.2824427,0.1603053,0.5725191,-8.1450329,0.8714849,8.3437500,-233.0992432,-55.4656487,-21.1221371
1130,3.0885043,1.3191984,9.4402885,-1.5496184,0.6030535,-0.7709923,-10.1609402,0.6368544,11.5208397,-213.8702240,-33.4580154,7.7938933
1140,2.9999194,1.2449785,9.4307127,-1.5343511,0.6183206,-1.0839695,-10.3524752,0.1364688,13.9437590,-185.2366486,-34.7938919,33.7404594
1150,2.9017577,1.1468167,9.4618368,-1.0763359,0.4656489,-0.6106870,-9.3349447,-0.2537841,15.2629576,-152.6488495,-44.4656487,53.0305328
1160,2.8682389,1.1587877,9.5121145,-1.2595420,0.9923664,0.2137405,-8.3222027,-0.4860204,15.8231983,-119.5267181,-45.8473282,68.0381699
1170,2.9568241,1.1827296,9.5408449,-0.9007633,1.5267175,1.1221374,-8.2144642,-0.4022238,16.4313221,-85.2595444,-20.8015270,84.8931274
1180,2.9999194,1.1611819,9.4450769,-0.9236641,1.0763359,1.2671756,-8.8369532,-0.0861908,17.7050304,-43.9007645,26.2977104,108.8473282
1190,3.0932927,1.2138541,9.4714136,-1.1374046,0.3358779,0.9083970,-10.1561518,0.2825144,18.4304695,58.8473282,120.7862625,172.0763397
1200,3.0238612,1.2377959,9.5336628,-1.1145039,-0.5954198,0.5496183,-10.8863792,-0.0215477,16.7904510,107.7480927,173.5496216,201.6946564
1210,3.0741394,1.2258250,9.6437950,-0.7251908,-1.3893130,0.2137405,-11.6237898,1.4341195,15.8279867,149.9313049,232.3740387,240.9160309
1220,3.0238612,1.1827296,9.6102762,-0.7480916,-1.7862595,0.0000000,-10.4913378,2.3606708,14.2621870,185.9541931,250.1297760,250.1297760
1230,2.9161227,1.1563935,9.5192976,-0.2137405,-1.3893130,0.5496183,-7.5584559,2.8897867,11.5423870,211.5954132,250.1297760,250.1297760
1240,2.9903426,1.1635761,9.4283180,-0.2748092,-0.4045801,0.4732825,-4.6997938,3.6343796,8.3700867,223.8931274,250.1297760,250.1297760
1250,2.9496415,1.1109039,9.5097208,-0.5877863,0.3435115,0.0076336,-2.5091105,4.7883787,5.1858144,221.9847260,230.7480927,250.1297760
1260,3.0047078,1.2449785,9.4785957,-0.9083970,1.5572519,0.5267175,-0.9073978,5.7245069,2.5091105,208.7557220,219.9313049,250.1297760
1270,3.0669568,1.3191984,9.5264797,-2.4656489,2.3969467,-0.7099237,0.6200951,7.5560617,-0.7182568,166.9084015,224.6717529,250.1297760
1280,2.9711890,1.3168042,9.4929609,-2.4198472,3.0229008,0.0992366,1.0725969,8.2240410,-1.5155219,149.9313049,228.4427490,249.0381622
1290,2.9879484,1.1587877,9.5121145,-2.8778627,3.0229008,0.6259542,1.8578910,8.4826136,-2.5881188,135.1984711,228.3282471,245.1832123
1300,2.9855542,1.2186425,9.5480280,-2.2213740,2.7557251,-0.2213740,3.1938488,8.4610653,-3.7995787,118.1145020,227.7633514,239.4122162
1310,2.9999194,1.1348459,9.6366129,-1.6488550,2.0458016,-0.1679389,4.7692256,8.9877872,-4.4723458,97.2137375,222.8091583,226.1450348
1320,2.9280937,1.0414724,9.6174593,-1.7099236,1.8015267,-0.0534351,6.2584114,9.2104464,-5.3151007,71.8625946,202.8854980,205.9923706
1330,2.9544299,1.0941446,9.6054878,-1.1145039,-0.0687023,-0.0992366,8.6837254,9.6461897,-5.5018473,14.3129768,148.3129730,147.5038147
1340,2.8945751,1.0773853,9.6677370,-1.1908396,-0.5877863,-0.0687023,10.3572636,9.5815458,-5.1714492,-12.9465647,108.5801544,107.2824402
1350,2.9376705,1.0773853,9.5767574,-0.8473282,-1.4351145,-0.2442748,12.1026278,9.5959110,-4.9440012,-37.3511467,73.5648880,56.8167953
1360,2.9424589,1.0989330,9.5671806,-1.0839695,-1.4732825,-0.3740458,12.7562418,9.5240860,-4.3454537,-58.2595406,49.7404594,2.3053436
1370,2.8993635,1.1109039,9.4714136,-0.6717557,-2.1603053,-0.3893130,12.4306316,9.3612804,-3.5074875,-75.2595444,28.7938938,-53.6717567
1380,2.8251436,1.1037214,9.6054878,-0.4961832,-2.3282442,0.6870229,11.1928358,9.2104464,-2.6814921,-88.9618301,10.2748089,-106.5343475
1390,2.8897867,1.1252691,9.6342182,-0.3740458,-2.5114503,0.9465649,9.2439651,8.5233145,-1.8100072,-102.1679382,-8.6106873,-151.4809113
1400,2.8706331,1.2617378,9.7251978,1.0916030,-3.0152671,0.4503817,6.7899213,7.6901364,-0.8547257,-115.0687027,-21.5038166,-187.6183167
1410,2.9280937,1.2066715,9.5456333,1.2900764,-3.0992367,0.8015267,2.1260402,6.7204900,0.6943150,-122.0839691,-6.5496182,-208.0458069
1420,2.9376705,1.1420283,9.4019823,1.0687023,-3.3587787,1.1679389,-3.9097114,6.5912037,3.1579359,-117.2595444,55.1984749,-201.8931274
1430,2.9592183,1.3168042,9.4618368,1.3587786,-3.5038168,0.7328244,-12.0978394,7.3573442,6.6582408,-93.2977066,149.2748108,-162.0458069
1440,2.9783716,1.1755470,9.5432396,0.8702290,-3.7251909,0.1755725,-19.6131992,8.9877872,10.4482431,-50.0381660,212.2748108,-88.2366409
1450,3.0118904,1.2330076,9.3588867,0.6946565,-2.4503818,0.6946565,-19.6131992,8.8537130,10.7906122,51.0152664,202.1145020,132.7480927
1460,2.9687948,1.3000449,9.4785957,0.2595420,-2.3740458,0.9083970,-19.6131992,8.0516596,8.2527714,82.8702316,224.2519073,232.7251892
1470,2.9711890,1.2018831,9.5145092,0.0992366,-2.4503818,1.3816794,-18.9093075,7.0508881,6.5409255,101.3969498,250.1297760,250.1297760
1480,2.9616125,1.2162483,9.5025377,-0.0687023,-2.0229008,2.0076337,-13.1536770,6.2751703,4.9032998,110.8167953,250.1297760,250.1297760
1490,3.1004753,1.2761030,9.4235296,0.1526718,-1.4274809,2.0534351,-7.0508881,5.5329719,3.2345500,114.3664093,239.1297760,250.1297760
1500,3.1220231,1.2282192,9.4211359,-0.0458015,-1.3358779,1.6793894,-1.2593436,6.1027889,0.5123565,100.0687027,198.9313049,250.1297760
1510,3.1890604,1.2330076,9.5073261,-0.0992366,-1.2824427,1.4885496,2.3606708,6.7803445,-1.6950861,68.9694672,150.2824402,250.1297760
1520,2.9664006,1.1947005,9.4929609,-0.2824427,-1.6335878,1.2061069,9.0308828,6.9934273,-4.6351509,-27.4274807,-13.3358774,195.3358765
1530,2.9424589,1.1755470,9.4546537,-0.1603053,-1.7862595,1.0916030,10.5392218,7.0844064,-4.8386569,-51.7175560,-36.8244286,164.2213745
1540,3.0549858,1.2425843,9.4977493,0.0076336,-1.8091604,1.4656489,11.9493999,6.9335728,-4.3454537,-67.3282471,-43.9389305,136.5572510
1550,3.0669568,1.2282192,9.5647869,0.3511450,-1.8320611,1.4122137,14.4249916,6.8713236,-3.5122759,-74.7404556,-50.3816795,106.5190811
1560,2.9759774,1.2234308,9.5049324,0.5648855,-1.8091604,1.1526718,17.7840385,6.9623032,-3.0837159,-79.7099228,-57.7633591,64.3282471
1570,3.0238612,1.1970947,9.4235296,0.5114504,-2.0152671,0.9923664,19.6126022,7.4890246,-2.6144550,-85.6335907,-59.7557259,11.0916033
1580,3.0238612,1.2162483,9.5169029,0.4198473,-2.1297710,1.2977099,19.6126022,7.6757712,-2.4229198,-95.0839691,-64.3511429,-42.7328262
1590,3.0837159,1.2593436,9.4833841,0.1984733,-1.8091604,1.5114504,19.6126022,6.6558466,-1.7812769,-110.3893127,-78.6946564,-105.9312973
1600,3.1363883,1.2545552,9.5767574,0.0763359,-1.3664122,1.3206106,19.6126022,6.9072366,-0.4141948,-124.6335907,-88.0839691,-178.9618378
1610,3.0789278,1.1755470,9.4594421,0.0381679,-1.2290076,0.8931298,17.8582592,6.5361371,0.9193687,-130.8244324,-95.6183243,-233.4274750
1620,3.1028695,1.1731528,9.4450769,-0.2061069,-1.4809160,1.2137405,15.1576138,5.4683285,2.0230901,-132.5725250,-97.7557220,-250.1374054
1630,3.0525916,1.2114599,9.4043760,-0.2977099,-1.4580153,1.3282443,12.2654324,4.1132174,3.2058196,-130.3511505,-84.8778610,-250.1374054
1640,3.0094962,1.2497669,9.5049324,0.1297710,-1.3664122,1.0534351,8.4036045,3.0286496,4.5968437,-122.7328262,-62.5648842,-250.1374054
1650,3.0908985,1.1731528,9.5528164,0.3129771,-1.3053435,1.3740458,3.7181761,2.2984219,6.1482787,-107.9542007,-33.4351158,-250.1374054
1660,3.1890604,1.2282192,9.4235296,0.5725191,-0.6412213,1.4732825,-1.6735384,2.4684093,7.8912482,-86.0687027,-5.9465647,-250.1374054
1670,3.1555417,1.3168042,9.4522600,0.0229008,0.0839695,1.6946565,-8.5927458,3.2896163,9.6749191,-57.5419846,9.5267172,-250.1374054
1680,3.1794837,1.2210367,9.4115591,-0.2595420,0.5267175,0.7099237,-14.3651371,4.8602047,10.6038647,-24.8320618,15.4656487,-250.1374054
1690,3.1220231,1.3718705,9.4067707,-0.6870229,0.5114504,0.2290076,-19.6131992,6.3733325,10.4650021,10.2366409,34.1145020,-209.8015289
1700,3.0980811,1.1755470,9.4474716,-1.0763359,0.6030535,0.1679389,-19.6131992,7.6398587,9.1553802,47.3664131,81.2595444,-112.3740463
1710,3.0071020,1.2784972,9.4546537,-1.8320611,0.9694657,1.1068702,-19.6131992,7.7332320,6.8713236,85.4961853,146.0992432,6.3435116
1720,3.0741394,1.2330076,9.4307127,-1.4809160,0.9083970,0.9465649,-19.6131992,7.7188668,3.4476328,110.8549652,203.6717529,125.5343475
1730,3.1315999,1.1587877,9.5049324,-1.2671756,0.9694657,0.7251908,-19.6131992,7.0508881,0.8762733,112.3740463,235.8702240,214.8549652
1740,3.0549858,1.2425843,9.4378948,-1.2213740,0.9083970,0.5419847,-17.7864342,7.0963774,-0.1651991,97.0152664,230.9847260,250.1297760
1750,3.0334380,1.1228749,9.5097208,-1.2671756,-0.0534351,1.0687023,-14.2430334,7.5297260,-0.3519458,76.3664093,189.3511505,250.1297760
1760,3.0932927,1.1851238,9.4618368,-1.5190840,-0.7404580,0.7633588,-10.8073711,7.6254935,-0.1101327,56.3740463,130.1221313,250.1297760
1770,2.9592183,1.2425843,9.5264797,-0.5877863,-2.1297710,0.7328244,6.0525107,7.0772243,-2.4253139,10.1984730,-44.2519073,247.6641235
1780,2.9592183,1.2449785,9.5887289,0.8167939,-3.0763359,0.8854962,10.0747490,6.4164276,-3.3710186,-13.6870232,-42.2366409,230.9465637
1790,2.9472473,1.2545552,9.5480280,1.4503816,-3.6335878,1.9694656,12.7849712,6.6917596,-3.6942344,-31.2824421,-64.1984711,207.4656525
1800,3.0573800,1.2689204,9.3924055,1.4198474,-3.9541984,2.3282442,16.3954086,7.4674768,-4.2472920,-55.1297722,-113.4885483,168.1374054
1810,3.0501974,1.2976507,9.5121145,1.6030535,-4.7251906,2.1145039,19.6126022,7.9127960,-4.9152708,-85.4198456,-175.2671814,104.5114517
1820,3.1363883,1.2330076,9.5145092,1.7938931,-4.7938933,2.1984732,19.6126022,10.3620520,-4.7404952,-114.6870193,-217.9313049,30.9083977
1830,3.2177906,1.3239868,9.4426832,1.9312977,-5.2061067,1.5801526,19.6126022,8.2072811,-5.2887645,-148.4045868,-227.2290039,-49.3435097
1840,3.2201848,1.2976507,9.5097208,1.7480916,-4.8167939,1.3129771,19.6126022,6.5074067,-4.7357068,-177.7480927,-198.5496216,-157.5877838
1850,3.1890604,1.2617378,9.4307127,1.5572519,-4.1603055,0.9389313,19.6126022,4.9535780,-3.3877780,-199.0000000,-158.0305328,-250.1374054
1860,3.1794837,1.2569494,9.4833841,1.3206106,-4.1145039,0.9847328,19.6126022,3.5026991,-1.1109039,-211.4427490,-130.5648804,-250.1374054
1870,3.2201848,1.3144100,9.3995876,0.5343512,-3.0152671,0.7786260,15.1719790,1.9704180,0.7517755,-216.3587799,-103.2977066,-250.1374054
1880,3.1890604,1.2545552,9.4307127,0.2977099,-2.0305343,1.0381680,10.6948442,0.7110743,2.7245877,-213.7938995,-65.8778610,-250.1374054
1890,3.2704628,1.2904681,9.3157911,0.0610687,-1.4045801,1.2061069,6.1961622,-0.5578461,5.0684991,-197.5419922,-8.2442751,-250.1374054
1900,3.3351059,1.2425843,9.4043760,-0.4198473,-1.0610687,0.9541985,0.7038917,-0.9145803,8.1450329,-159.8167877,72.3664093,-250.1374054
1910,3.2321558,1.2521610,9.4235296,-0.6106870,-0.4580153,0.3206107,-5.6000090,-0.3926471,10.8361015,-103.3740463,157.5801544,-250.1374054
1920,3.2584918,1.2449785,9.4522600,-0.8015267,-0.4122137,0.1068702,-13.6875811,1.3694763,13.0842457,-36.8320618,203.7480927,-250.1374054
1930,3.1962428,1.2976507,9.4307127,-1.0458015,-0.9618320,-0.0763359,-19.6131992,4.0246325,13.8120794,27.8015270,181.9847260,-250.1374054
1940,3.1244173,1.1707586,9.5001440,-0.5114504,-1.4656489,0.0458015,-19.6131992,6.9072366,12.2055779,71.2366409,121.4274826,-178.0152740
1950,3.1148405,1.1779412,9.5456333,-0.2290076,-1.7328244,0.1984733,-19.6131992,8.4874020,8.2431946,81.0229034,76.5572510,-51.5725174
1960,3.1244173,1.2641320,9.3995876,0.5954198,-1.9083970,0.2137405,-19.6131992,7.2615767,5.5018473,74.8473282,75.9618301,74.8854980
1970,3.0813217,1.1827296,9.4714136,0.5267175,-1.6488550,0.5801527,-19.6131992,5.8059096,4.9224534,77.8320618,102.7557220,173.2824402
1980,3.1100521,1.2880739,9.4043760,0.6488550,-2.0305343,0.8778626,-19.6131992,5.2289100,4.8386569,89.4809189,127.6946564,243.3816833
1990,3.1363883,1.2832855,9.3947992,0.1755725,-2.3358779,1.0687023,-15.5574427,4.9799142,4.6207857,98.1908417,126.8091583,250.1297760
2000,3.2417326,1.3048333,9.4115591,-0.1526718,-2.3969467,1.2213740,-12.0092545,5.6814117,3.8283088,102.4656525,102.3435135,250.1297760
2010,3.2417326,1.2689204,9.4690189,0.6793893,-2.9389312,0.8854962,-5.7771792,6.6175399,1.5705882,95.9160309,16.4885502,250.1297760
2020,3.2321558,1.4460905,9.3564920,-0.3816794,-1.1679389,0.6259542,11.1473465,6.1817970,-3.5745249,2.8244274,-104.6564865,184.1145020
2030,3.1890604,1.3982066,9.3708572,-0.2977099,-0.6946565,0.3969466,11.5280218,5.9974446,-3.3327117,-5.9847326,-99.5114517,160.9389343
2040,3.2345500,1.2162483,9.4690189,-0.3816794,-1.0458015,0.5801527,11.4753504,6.0261750,-2.4779861,-7.0229006,-82.0305328,145.2137451
2050,3.1675127,1.2880739,9.3852224,-0.4351145,-0.1374046,0.8244275,11.2502966,6.0285692,-1.8626794,-0.8396947,-64.9542007,135.8778687
2060,3.1100521,1.2665262,9.5025377,-0.1221374,-0.0687023,1.3206106,11.2742386,5.7316895,-1.9512644,7.2824426,-52.5877876,130.9236603
2070,3.2225790,1.2641320,9.3804340,-0.0152672,0.1832061,1.8625954,12.1433287,5.6407104,-2.3989778,13.9541988,-41.0305328,124.3816757
2080,3.2082138,1.3670821,9.4355011,-0.2061069,1.1755725,2.2290077,13.0579090,5.9256191,-2.6862805,18.0763359,-33.5114517,116.0610657
2090,3.3470769,1.3359578,9.2631187,-0.6259542,2.2442749,1.8702290,15.0426922,6.0333576,-3.2177906,16.4885502,-30.1832066,101.9694672
2100,3.3638363,1.3335636,9.2990322,-2.8091602,4.0305343,0.6793893,19.6126022,7.1801744,-4.7213416,-31.0305347,-43.6106873,-95.2977066
2110,3.3063757,1.4365137,9.4546537,-3.0000000,4.3587785,0.4885496,19.6126022,7.0652533,-4.4747400,-44.8320618,-35.9389305,-158.5114441
2120,3.3494711,1.2928623,9.3947992,-2.7328243,3.2748091,-0.4503817,19.6126022,6.7827387,-3.9288650,-60.3129768,-38.8702278,-215.6870270
2130,3.2273674,1.2497669,9.5839405,-2.6488550,3.3206108,-0.2061069,16.7425671,6.2631998,-3.2872221,-76.2290039,-48.5877876,-250.1374054
2140,3.1842721,1.2401901,9.5480280,-2.2442749,3.4427481,-0.2824427,14.5758257,5.2672167,-2.4109488,-91.0076370,-58.4961815,-250.1374054
2150,3.1483591,1.1683644,9.4666252,-1.8244275,2.4656489,-0.7175573,12.3516235,4.2041965,-1.2689204,-100.4809189,-62.0305328,-250.1374054
2160,3.0382264,1.1563935,9.4881725,-1.4122137,1.9389313,-0.7709923,10.5080976,3.2872221,-0.1628049,-104.9465637,-59.0305328,-250.1374054
2170,3.0501974,1.1659702,9.4762020,-1.2977099,1.5114504,0.1374046,8.4107876,2.1667414,0.6416427,-107.1832047,-52.9236641,-250.1374054
2180,2.9999194,1.2210367,9.5863342,-1.3129771,0.8625954,0.5572519,5.9375896,1.1228749,1.1396341,-108.4732819,-52.2137413,-250.1374054
2190,3.0741394,1.1516051,9.5049324,-1.0229008,-0.2366412,0.5572519,3.6798692,0.2992737,1.8411317,-111.6946564,-59.5267181,-250.1374054
2200,3.0525916,1.2282192,9.4019823,-0.9770992,-0.2748092,1.7480916,1.1228749,-0.4070122,2.5546002,-116.9618301,-74.4961853,-250.1374054
2210,3.2297616,1.1563935,9.5097208,-1.1068702,-1.2977099,1.3206106,-2.1451938,-0.4453192,3.7157819,-124.4351120,-103.1832047,-250.1374054
2220,3.2010312,1.3287752,9.5623922,-0.2137405,-1.4732825,1.0992366,-5.5449429,-0.4405309,4.9966736,-133.3511505,-143.2671814,-250.1374054
2230,3.2321558,1.1539993,9.5360565,-0.0763359,-1.0763359,1.3969465,-10.3596573,0.1388630,6.9144192,-137.8396912,-156.8015289,-250.1374054
2240,3.1148405,1.3239868,9.5240860,0.5038168,-0.9312977,1.3358779,-16.8311520,1.7884595,9.6461897,-127.3740463,-118.1984711,-250.1374054
2250,3.2273674,1.2306134,9.4402885,0.1908397,-1.5419847,1.3053435,-19.6131992,3.4165084,11.8368731,-95.2519073,-53.2519073,-250.1374054
2260,3.2225790,1.3024391,9.4331064,-0.0610687,-1.8015267,0.9541985,-19.6131992,5.2672167,12.7753954,-49.3816795,36.1145020,-195.8015289
2270,3.1914546,1.2761030,9.4139528,-0.5496183,-1.0763359,1.0229008,-19.6131992,7.9582858,12.6700506,9.9541988,119.4122162,-37.8015251
2280,3.2345500,1.2569494,9.4283180,-0.9083970,-0.9389313,0.8625954,-19.6131992,5.5617023,11.1066446,61.8854980,192.3129730,135.3435059
2290,3.2393384,1.2593436,9.4355011,-1.0000000,-0.7328244,0.6335878,-19.6131992,4.4172797,9.2104464,101.0610657,247.1450348,250.1297760
2300,3.0980811,1.2976507,9.4091644,-1.0534351,-0.5267175,0.0763359,-19.6131992,3.5697365,7.4483232,120.7633591,250.1297760,250.1297760
2310,3.0023136,1.2832855,9.5360565,-0.9465649,-0.4732825,0.0152672,-16.6467991,4.0126615,5.5593081,119.2671738,237.1679382,250.1297760
2320,3.0071020,1.2880739,9.5216913,-0.7175573,0.1297710,0.5954198,-12.9693241,4.7141590,4.0581512,100.6946564,173.6793823,250.1297760
2330,3.0549858,1.2354017,9.5025377,-0.0534351,-0.2442748,0.7938932,-9.2415714,5.0924411,3.4332676,80.0457993,110.5496216,250.1297760
2340,3.0669568,1.1516051,9.5743637,0.6793893,-1.1603054,1.7328244,-6.4020624,5.0565281,3.9504125,71.1755753,68.4274826,250.1297760
2350,3.0789278,1.2665262,9.4953556,0.9618320,-1.4656489,2.7404580,-3.8905578,5.4898763,4.1491303,74.4351120,40.6793900,250.1297760
2360,3.1962428,1.2497669,9.5049324,1.1603054,-1.9541985,2.9923663,-2.0183017,5.4491754,3.8259149,82.7328262,26.5648861,250.1297760
2370,3.3351059,1.3455344,9.4307127,1.1984733,-2.7099237,2.4656489,-1.3790531,6.2224984,2.7389526,87.4656525,17.8396950,250.1297760
2380,3.4332676,1.2114599,9.3732519,0.9618320,-2.8854961,1.6106870,-0.1508339,6.4068508,1.2545552,89.6030502,7.4885497,250.1297760
2390,3.3518653,1.2952565,9.3900108,0.6335878,-3.0992367,0.6946565,0.7996593,6.3757267,0.2130829,88.5114517,-7.1297708,250.1297760
2400,3.4883339,1.2856797,9.2870607,-0.6412213,-0.2519084,0.9312977,12.6700506,5.0421629,-5.7963328,37.1221390,-36.6564903,175.2137451
2410,3.4141142,1.2330076,9.3732519,-1.0076336,0.2519084,0.3511450,13.1632538,5.4826937,-6.0668759,24.7175579,-30.4580154,146.7938995
2420,3.3063757,1.3455344,9.4402885,-0.9847328,0.2519084,0.5343512,13.2207146,5.9040713,-6.3805151,11.4045801,-34.9923668,122.0534363
2430,3.2393384,1.3191984,9.4594421,-0.2900763,-0.0534351,0.5343512,14.1592360,6.1698260,-6.5026188,-20.5267181,-49.4427490,71.0381699
2440,3.1962428,1.2737088,9.5145092,-0.0152672,0.1755725,0.4656489,14.8152447,6.2799587,-6.3972740,-35.0000000,-62.7022896,45.2213745
2450,3.1770895,1.2808913,9.3421268,-0.3053435,0.9312977,1.2977099,15.3778791,6.2895355,-6.0477223,-50.0916023,-79.4274826,15.8854961
2460,3.2944047,1.3120158,9.1960821,-1.3282443,1.9236641,1.0839695,16.0889530,6.4499464,-5.1379304,-61.7175560,-78.5648880,-13.5038166
2470,3.3039815,1.3551112,9.2966375,-1.5877863,2.8015268,0.9236641,16.2876701,6.4260044,-4.8458395,-72.1984711,-75.8167953,-46.2213745
2480,3.3638363,1.3622938,9.3971939,-1.5496184,2.8778627,1.0229008,16.9508610,6.6223278,-4.1084290,-82.0687027,-76.2290039,-83.5725174
2490,3.3877780,1.4053892,9.4666252,-1.8931298,2.9541984,0.7022901,16.9652271,6.3086891,-3.4308734,-90.3969498,-73.2442780,-125.3587799
2500,3.3422885,1.3311694,9.4498653,-1.3664122,2.3511450,0.4351145,16.4097748,6.3493905,-2.7126167,-92.5648880,-58.3740463,-166.3969421
2510,3.1459649,1.1875180,9.4163475,-1.6946565,1.3740458,0.1984733,15.0977583,6.0357518,-2.5115047,-89.5190811,-31.7022896,-202.3740387
2520,3.1818779,1.2186425,9.3995876,-1.9694656,1.1450381,0.0305344,13.2231083,5.8178802,-2.4277081,-85.0916061,-7.7328243,-233.6106873
2530,3.1220231,1.2282192,9.4450769,-1.9312977,1.4045801,0.6717557,10.9582052,5.6287394,-2.5569944,-84.5038147,2.3740458,-250.1374054
2540,3.1579359,1.1803354,9.3852224,-1.3053435,0.7633588,0.8549618,8.8249826,5.3462253,-2.6958573,-87.7328262,-0.0076336,-250.1374054
2550,3.2058196,1.2330076,9.4618368,-1.5038168,0.3282443,0.8473282,7.2783360,4.9823084,-2.4827745,-91.9312973,-7.6946564,-250.1374054
2560,3.3327117,1.2066715,9.5456333,-1.2595420,-0.4503817,0.6183206,5.8992829,4.7476778,-2.3223639,-95.8473282,-12.6183205,-250.1374054
2570,3.2776453,1.2832855,9.3828287,-1.3511450,-0.7480916,0.3358779,4.3741841,4.3334827,-2.1858950,-101.6641235,-16.1374054,-250.1374054
2580,3.2153964,1.1037214,9.4977493,-1.5496184,-1.6030535,0.2442748,2.7341642,3.8139439,-1.5945302,-108.9847336,-21.4732819,-250.1374054
2590,3.1124463,1.1180865,9.5408449,-0.8549618,-2.2824428,-0.2061069,1.2282192,3.4524212,-0.7350162,-117.8396912,-34.4656487,-250.1374054
2600,3.0023136,1.1923064,9.4977493,-0.5190840,-2.6259542,0.2366412,-0.3160330,3.1459649,0.7254394,-126.4122162,-52.3129768,-250.1374054
2610,3.1483591,1.0534433,9.4714136,-0.5954198,-3.1603053,0.7404580,-2.0422437,2.9735832,2.2409613,-132.8091583,-72.3511429,-250.1374054
2620,3.1531475,1.1132981,9.5264797,0.0000000,-4.0229006,1.1908396,-3.7852135,3.0478032,3.6367738,-132.9770966,-91.5954208,-250.1374054
2630,3.1746953,1.3168042,9.5121145,1.1832061,-4.7251906,0.8778626,-4.8649931,3.1914546,4.7859845,-128.9770966,-112.0305328,-250.1374054
2640,3.1842721,1.2138541,9.4259243,1.5725191,-4.1374044,1.4122137,-4.7261300,3.1842721,5.2600341,-123.6641235,-135.4198456,-250.1374054
2650,3.1938488,1.3479286,9.4283180,1.5648855,-3.8320611,1.5954199,-4.4124913,3.0597742,5.5784616,-119.6641235,-154.9084015,-250.1374054
2660,3.2944047,1.4173602,9.3229742,1.6793894,-3.5954199,2.0229008,-5.1139889,2.8562679,6.1674318,-113.5877838,-160.1297760,-250.1374054
2670,3.3734128,1.4843974,9.3181858,1.0458015,-3.3893130,1.4351145,-5.9902620,2.7461352,6.4834652,-105.7480927,-155.6641235,-250.1374054
2680,3.3566537,1.4436963,9.3780403,1.4274809,-2.6946564,1.2213740,-7.8553357,2.7652888,6.3326311,-99.0534363,-137.5343475,-250.1374054
2690,3.3375001,1.3144100,9.3157911,0.7480916,-2.2900763,0.9312977,-12.4330254,3.0669568,7.3932571,-86.3282471,-73.3587799,-250.1374054
2700,3.3327117,1.2282192,9.5408449,0.6641222,-2.8702290,0.5572519,-17.3626614,3.8307030,9.0691900,-60.5648842,7.8854961,-225.7480927
2710,3.2608860,1.2114599,9.3780403,0.2137405,-1.7557251,1.1297710,-19.6131992,4.6040263,10.6804790,-23.8854961,65.2977066,-150.6030579
2720,3.2321558,1.1372399,9.4618368,0.4122137,-2.0763359,1.7862595,-19.6131992,5.5569139,11.2215662,16.5954189,96.1755753,-68.0763321
2730,3.2656744,1.2569494,9.4642305,0.1526718,-2.7938931,1.9618320,-19.6131992,5.7173243,10.7331514,53.1297722,110.9542007,13.4045801
2740,3.3446827,1.1875180,9.5623922,1.1603054,-3.6259542,1.7633588,-19.0601425,5.3198891,7.0676475,99.2061081,123.1374054,124.1374054
2750,3.2680686,1.1827296,9.4522600,1.5190840,-4.5496182,1.6641221,-16.5845509,5.5353661,5.6047974,106.7786255,125.5267181,157.1984711
2760,3.2848279,1.2425843,9.4067707,1.7099236,-5.0305343,1.5496184,-13.9485474,5.7077475,4.4938936,106.5877838,118.3206100,179.3511505
2770,3.2824337,1.2784972,9.4426832,2.1297710,-5.7404580,1.3053435,-11.5926657,6.0764527,3.7253587,102.1908417,100.6183243,190.0534363
2780,3.2010312,1.3120158,9.4642305,2.5114503,-6.8396945,1.5648855,-9.6102762,6.5050125,3.5888901,98.2595444,85.8778610,194.2366486
2790,3.2537034,1.2904681,9.4474716,2.6564887,-6.4809160,2.0458016,-8.0468712,6.7611909,3.3782012,96.7022934,79.9770966,195.6564941
2800,3.1914546,1.3622938,9.5001440,2.9618320,-7.5801525,2.6641221,-7.0508881,7.1131368,3.1723011,97.9083939,82.1450348,196.8473358
2810,3.6080434,1.3862357,9.2487535,-0.9160305,1.1908396,-0.0076336,-0.1460456,6.9431496,-1.6184721,84.2977066,56.1221390,183.5190887
2820,3.3662305,1.4197544,9.3014259,-2.0763359,3.5496182,0.0229008,0.7900825,7.4100165,-2.1619530,80.1068726,34.0992355,176.7786255
2830,3.5098817,1.3287752,9.2104464,-3.1145039,4.1832061,0.3511450,1.2856797,7.1418672,-2.3079987,77.8549652,28.3129768,173.9313049
2840,3.6271970,1.3072275,9.5001440,-4.8931298,10.5419846,-1.7786260,5.7508430,7.3669209,-5.3103123,26.7633591,-3.4122138,139.5877838
2850,3.0501974,1.1516051,9.1697454,-5.6564884,6.1832061,2.6717558,7.1897511,7.1921453,-6.0381460,20.3435116,43.8778610,141.2824402
2860,3.3327117,1.3168042,9.2367830,-3.9618320,7.3435116,2.6183207,8.6071110,7.0724359,-6.0477223,14.1145039,46.9694672,135.6946564
2870,3.4069316,1.2880739,9.3062143,-4.3129773,8.8931293,1.5038168,10.2830439,7.1322904,-5.8394279,6.3969464,38.3664131,122.6183243
2880,3.5864959,1.3790531,9.5528164,-2.0687022,3.3053436,0.0305344,14.1185350,6.8593526,-5.4443870,-7.1908398,7.1297708,71.6488571
2890,3.5074875,1.3551112,9.5145092,-1.3435115,2.4122138,-0.6488550,15.6579990,6.9527264,-5.3869262,-15.1755724,-5.8549619,34.7175560
2900,3.2153964,1.3359578,9.5671806,-0.0610687,0.6870229,-1.3969465,16.5534267,6.9814563,-5.3031297,-23.9618320,-17.2213745,-7.6641221
2910,3.2082138,1.2737088,9.4642305,0.5648855,-0.8015267,-0.8931298,16.3642845,7.0963774,-5.1331420,-31.7938938,-23.0152664,-50.9847336
2920,3.2010312,1.2210367,9.3445215,0.6106870,-0.9083970,-0.5648855,15.8279867,6.9718795,-4.8625989,-39.7175560,-31.2366409,-93.2137375
2930,3.1842721,1.1779412,9.3038206,-0.0458015,-1.1068702,0.5343512,14.7146883,6.9263902,-4.7309184,-44.8625946,-32.1450386,-131.2824402
2940,3.2082138,1.2617378,9.2774839,-0.8854962,-1.0763359,0.4580153,13.2374735,7.0149751,-4.8099265,-49.9083977,-28.2977104,-163.2671814
2950,3.2345500,1.2210367,9.4905672,-1.3282443,-1.1603054,0.8244275,11.7099810,6.8665352,-4.8578105,-55.4351158,-27.5877857,-190.3664093
2960,3.2967989,1.1276633,9.5887289,-0.3282443,-2.6412213,-0.1984733,10.2830439,6.6726060,-4.4723458,-60.9312973,-27.9236641,-213.9541931
2970,3.1986370,1.1611819,9.6557665,1.2290076,-3.5877862,-0.0992366,8.9782104,6.5121951,-4.1251884,-64.8702316,-24.4885502,-233.6793823
2980,3.1770895,1.1875180,9.4977493,1.8473282,-3.6793892,0.8320611,7.8385763,6.2464404,-3.8618276,-66.8549652,-18.9007626,-249.9923706
2990,3.1627243,1.2282192,9.4642305,2.6793892,-4.4732823,1.4961832,6.5672617,6.0572991,-3.4596038,-67.2442780,-14.8778629,-250.1374054
3000,3.1459649,1.2401901,9.3660688,2.3282442,-5.0534353,2.0076337,5.3007355,5.9687142,-3.0310438,-67.9618301,-13.9389315,-250.1374054
3010,3.2967989,1.3742647,9.3517036,2.2900763,-5.2213740,2.4351146,3.6080434,5.8011212,-3.1124463,-69.7022934,-16.1068707,-250.1374054
3020,3.4332676,1.4077834,9.2942438,1.9770992,-4.7709923,2.0458016,2.2529323,5.6407104,-3.5817075,-74.8702316,-26.0610695,-250.1374054
3030,3.5122759,1.3838415,9.3588867,1.9083970,-4.1603055,1.5419847,0.9050036,5.6862001,-3.9049230,-84.5648880,-46.5419846,-250.1374054
3040,3.4380560,1.4101776,9.3157911,1.3358779,-3.7251909,1.0534351,-0.2011119,5.7053533,-3.9097114,-97.0076370,-70.5725174,-250.1374054
3050,3.4452386,1.3598996,9.3253679,0.7328244,-3.8091602,1.0076336,-1.1252691,5.4898763,-3.7325413,-110.6488571,-91.7633591,-250.1374054
3060,3.3590479,1.3766589,9.2942438,0.4274809,-3.1679389,0.9770992,-1.8698620,5.1882086,-3.2800395,-124.9923630,-105.5419846,-250.1374054
3070,3.3470769,1.3024391,9.3062143,0.3282443,-2.3587787,1.4351145,-2.4181314,4.5872669,-2.4779861,-138.7480927,-114.9083939,-250.1374054
3080,3.4117200,1.3910241,9.3038206,0.1145038,-1.2671756,1.5954199,-3.3351059,3.9671719,-1.3814473,-149.7251892,-117.2061081,-250.1374054
3090,3.5290353,1.3239868,9.3253679,-0.2061069,-0.5114504,1.3358779,-5.3318601,3.2417326,-0.1005560,-155.5343475,-112.9847336,-250.1374054
3100,3.5960727,1.3742647,9.3205795,-0.5038168,0.9465649,1.0610687,-7.8864598,2.9137285,1.4413021,-157.3358765,-104.2671738,-250.1374054
3110,3.6152260,1.3239868,9.3421268,-0.8854962,1.6259542,0.6259542,-9.9622221,3.1723011,3.3662305,-157.8625946,-98.8473282,-250.1374054
3120,3.5912843,1.3790531,9.2798786,-1.0534351,2.2137403,-0.2900763,-11.4561968,2.8179610,5.1044121,-155.5190887,-104.1450348,-250.1374054
3130,3.4356618,1.3144100,9.3301563,-1.0305344,3.2366412,-0.7938932,-15.1456423,2.9472473,6.5552907,-142.3053436,-89.6793900,-239.1374054
3140,3.3279233,1.3503228,9.2918491,-1.9465649,4.3129773,-0.1145038,-19.1870346,3.3973548,8.7555504,-122.1068726,-35.1679382,-178.0915985
3150,3.3566537,1.2377959,9.2631187,-3.0076337,4.6793895,0.2519084,-19.6131992,3.5960727,10.8600435,-91.9236679,40.0458031,-102.7862625
3160,3.3758070,1.3144100,9.3205795,-3.0381680,4.4274807,0.3053435,-19.6131992,3.9815371,11.9063044,-51.7022896,103.2977066,-22.4885502
3170,3.3159523,1.3551112,9.4091644,-2.9083970,4.2824426,-0.3206107,-19.6131992,3.9121056,11.8392668,-12.7709923,129.1068726,57.6183205
3180,3.2800395,1.2928623,9.4594421,-2.4198472,3.7175572,-0.1221374,-19.6131992,3.4548154,11.1928358,20.3053436,133.7251892,118.6488571
3190,3.2752512,1.2521610,9.4857788,-2.2061069,2.8320611,0.2977099,-18.5932751,3.0334380,10.0747490,46.0992355,137.8625946,152.4427490
3200,3.3734128,1.2449785,9.4115591,-1.9389313,1.8702290,-0.2366412,-15.7513723,2.8538737,9.0572186,66.0076370,139.5267181,169.2671814
3210,3.3518653,1.2689204,9.3852224,-1.5343511,1.2900764,-0.2213740,-13.8719339,3.1459649,8.1067257,82.2595444,133.2824402,176.3969421
3220,3.3710186,1.1851238,9.4402885,-1.3282443,0.3740458,-0.0916031,-13.0842457,3.6391680,6.8473821,92.6488571,123.7099228,179.9007568
3230,3.3662305,1.2449785,9.4905672,-0.9389313,-0.0076336,-0.2595420,-12.7897596,3.9959023,5.7723908,99.7099228,122.0305328,187.7862549
3240,3.3997490,1.1611819,9.4067707,-0.3893130,-0.5419847,-0.7099237,-13.1033993,4.2472920,4.7835903,103.5343475,128.5801544,204.3358765
3250,3.4284792,1.1899122,9.4450769,-0.1374046,-0.7328244,-0.8854962,-12.5479469,4.5154414,3.8259149,105.6412201,127.1603088,224.4274750
3260,3.3734128,1.1851238,9.3564920,-1.0381680,-0.4732825,-1.0000000,-11.2119894,4.3981261,3.0573800,107.8091583,114.0916061,241.9236603
3270,3.2177906,1.2282192,9.3086090,-1.3740458,-0.5572519,-0.9847328,-9.7251978,4.3550305,2.4372849,109.7251892,98.2671738,250.1297760
3280,3.2489152,1.1827296,9.3924055,-1.7022901,-0.6717557,-0.2137405,-8.1713686,4.2065907,1.8985922,111.1984711,84.2061081,250.1297760
3290,3.2321558,1.2497669,9.5049324,-1.2595420,-0.7938932,-0.0229008,-6.7635851,4.2879934,1.1492109,112.9694672,64.3816757,250.1297760
3300,3.1962428,1.2497669,9.3636751,-1.2366412,-1.0687023,0.7557252,-5.0517397,4.4507980,0.0119709,112.4427490,40.0076332,250.1297760
3310,3.2321558,1.2880739,9.4331064,-0.2900763,-1.1603054,-0.3206107,-3.2991931,4.6973996,-1.2976507,109.1145020,20.3893127,250.1297760
3320,3.1148405,1.3407460,9.4498653,0.3664122,-0.8549618,0.8702290,-1.8387375,4.8147149,-2.5330524,103.7328262,15.4427481,250.1297760
3330,3.2297616,1.1899122,9.3876171,-0.1297710,-0.8549618,1.4351145,-0.4501076,4.9942794,-3.7253587,95.8778610,21.2748089,250.1297760
3340,3.2201848,1.3120158,9.2631187,0.0992366,-0.4198473,1.6335878,1.0031654,5.4228392,-4.9631548,86.7328262,24.4961834,250.1297760
3350,3.2776453,1.2330076,9.3828287,0.2061069,-1.5801526,2.0916030,3.1244173,5.7412663,-7.1705976,57.8091621,29.3664131,250.1297760
3360,3.3255291,1.2018831,9.4570484,0.5877863,-2.1145039,1.7633588,3.8330972,5.8226686,-8.1091194,40.1145020,30.9847336,250.1297760
3370,3.3303175,1.2090657,9.4929609,0.9465649,-3.7022901,1.9389313,4.7692256,5.7604198,-9.3684635,19.5801525,37.3053436,250.1297760
3380,3.2704628,1.2641320,9.4690189,2.4503818,-6.5190840,2.1526718,12.8544035,4.3454537,-5.7963328,-52.1755714,48.8091621,250.1297760
3390,3.3446827,1.3263810,9.4690189,2.5954199,-6.4427481,2.7175572,15.4497042,4.3239059,-4.2736282,-58.1145020,33.2442741,249.5648804
3400,3.5457945,1.4365137,9.2990322,2.2595420,-5.3893127,2.4656489,19.6126022,4.5082588,-2.7078283,-58.4885483,-11.3893127,148.3893127
3410,3.6295912,1.4006008,9.2583303,1.2442749,-4.7938933,2.2748091,19.6126022,4.7093706,-2.4372849,-54.9618340,-15.5267172,83.8320618
3420,3.5888901,1.4772149,9.2367830,-0.1374046,-3.1603053,1.0000000,19.6126022,4.9799142,-2.9520357,-54.0458031,-1.8625954,-46.1832047
3430,3.6152260,1.4580613,9.3157911,-0.0534351,-2.2671757,0.6793893,19.6126022,4.9176650,-2.8778157,-60.5648842,-9.3358774,-101.9160309
3440,3.5194585,1.4221486,9.3062143,-0.0687023,-1.8244275,0.4351145,18.9715576,4.6231799,-2.2888451,-63.7786255,-26.2900772,-150.1145020
3450,3.5266411,1.2784972,9.3157911,-0.1450382,-1.4580153,0.4045801,16.8742466,4.5226240,-1.7956421,-61.1679382,-32.5572510,-186.0839691
3460,3.3853838,1.2976507,9.3277617,-0.1297710,-0.5954198,0.4198473,14.9684725,4.5154414,-1.4508789,-56.7404594,-27.4961834,-213.1832123
3470,3.4979107,1.2641320,9.3564920,-0.0152672,-0.5190840,0.3740458,13.5175934,4.6662750,-1.2138541,-52.4274826,-14.6183205,-235.1068726
3480,3.4811516,1.3718705,9.3157911,-0.6106870,0.9923664,0.9923664,11.9517937,4.7237358,-0.9888002,-46.2671738,-1.3664122,-250.1374054
3490,3.4667864,1.4149660,9.2559366,-0.8778626,1.6335878,1.3053435,10.6972389,4.8051381,-1.3934183,-41.4351158,10.2442751,-250.1374054
3500,3.5817075,1.4460905,9.2415714,-1.2061069,2.3740458,0.4122137,9.3373384,4.6279683,-1.7381816,-39.3435097,14.2137403,-250.1374054
3510,3.5481887,1.4484847,9.2032642,-1.9236641,2.8931298,-0.0458015,8.2120695,4.4962878,-1.9895715,-39.1221390,13.5648851,-250.1374054
3520,3.4117200,1.2425843,9.4378948,-2.5038168,2.0305343,0.0305344,4.9535780,3.9216824,-3.2249732,-47.6106873,-3.8702290,-250.1374054
3530,3.3446827,1.2210367,9.5216913,-2.1908398,1.5496184,-0.3358779,3.4236910,3.4859397,-3.6200144,-59.8244286,-23.2442741,-250.1374054
3540,3.3997490,1.2713146,9.3756456,-1.5801526,1.5648855,-0.0305344,1.6759326,3.0166788,-3.5505829,-76.5038147,-53.9312973,-250.1374054
3550,3.3710186,1.2545552,9.3517036,-1.0229008,0.9160305,0.0458015,-0.1053443,2.4588325,-2.9256995,-95.0152664,-94.0610657,-250.1374054
3560,3.4572096,1.1827296,9.4450769,-1.3664122,-0.7251908,-0.1297710,-1.6998745,1.8722562,-1.6902977,-114.5419846,-138.2519073,-250.1374054
3570,3.4667864,1.2856797,9.4043760,-1.2900764,-1.4122137,0.5114504,-3.4907281,0.9720409,0.1723816,-131.4503784,-176.2824402,-250.1374054
3580,3.5290353,1.2018831,9.5169029,-0.7175573,-1.8167939,0.5496183,-5.8777351,0.3878587,1.9273225,-141.5801544,-191.7328186,-250.1374054
3590,3.4907281,1.2401901,9.3852224,-0.2442748,-1.6412214,-0.1145038,-9.6797075,-0.1173153,3.6966286,-143.4503784,-181.4732819,-250.1374054
3600,3.4787574,1.1492109,9.3469152,-0.4885496,-1.2595420,-0.7709923,-15.1025467,0.5075682,5.5521255,-135.2595367,-139.1526642,-250.1374054
3610,3.3398943,1.2856797,9.3157911,-0.8702290,-1.1984733,-0.4656489,-19.6131992,1.7717001,7.8744893,-119.3511429,-72.0763321,-250.1374054
3620,3.3159523,1.2497669,9.4307127,-0.7709923,-1.7633588,-0.4732825,-19.6131992,3.8067613,10.1920643,-95.6870193,-2.2671757,-209.2595367
3630,3.3351059,1.2832855,9.5073261,-0.3664122,-1.6335878,0.1679389,-19.6131992,5.2767935,12.3396521,-62.0458031,43.6641235,-85.7404556
3640,3.3470769,1.3383518,9.4522600,0.2519084,-2.0534351,0.7404580,-19.6131992,4.8410511,13.3021164,-17.3893127,64.6106873,42.1145020
3650,3.3470769,1.4293311,9.3660688,0.4122137,-1.9770992,0.8473282,-19.6131992,3.7253587,12.3516235,31.8167934,94.7099228,148.0076294
3660,3.3734128,1.3934183,9.3181858,0.0381679,-1.7099236,0.8320611,-19.6131992,2.8107784,11.1377697,70.8396912,144.1374054,217.2213745
3670,3.3686244,1.3407460,9.2703018,-0.0152672,-1.6946565,0.9541985,-19.4001179,2.5067163,9.7515335,96.5877838,184.3282471,250.1297760
3680,3.3925664,1.3742647,9.3397331,0.0000000,-2.1908398,1.3664122,-16.7784805,2.9304879,6.9551206,111.0076370,174.8931274,250.1297760
3690,3.4691806,1.3239868,9.4666252,0.3435115,-2.1908398,1.0458015,-14.0179796,3.4284792,4.6255741,109.9923630,131.1908417,250.1297760
3700,3.4811516,1.3000449,9.4259243,0.6412213,-2.6412213,0.7557252,-11.7818060,3.8115497,3.1339941,103.0152664,82.8702316,250.1297760
3710,3.4428444,1.3144100,9.3421268,0.7022901,-3.5343511,0.9160305,-9.6102762,3.9695661,2.1020982,95.7557220,42.6564903,250.1297760
3720,3.4117200,1.2569494,9.3277617,0.6870229,-3.8931298,1.2519084,-8.2144642,4.1036406,1.3934183,89.7328262,19.8931293,250.1297760
3730,3.3829896,1.3120158,9.2798786,0.7786260,-3.6335878,1.7786260,-7.0820122,4.5345950,1.0702027,87.1145020,16.2366409,250.1297760
3740,3.4117200,1.2617378,9.2415714,0.5190840,-3.4045801,2.0229008,-5.8322453,4.6231799,0.4261657,85.4656525,11.1221371,250.1297760
3750,3.5386121,1.3168042,9.3828287,0.6946565,-3.3206108,1.7022901,-4.9870968,4.9463954,-0.0287303,83.4503784,2.5496182,250.1297760
3760,3.5601597,1.4197544,9.2535419,0.7862595,-2.3816793,1.3053435,-3.0956869,5.6119800,-1.4748207,76.2442780,-15.3893127,250.1297760
3770,3.6080434,1.4748207,9.2583303,0.0458015,-1.4580153,1.7022901,-1.7932479,5.7101417,-2.2265961,72.9465637,-18.5038166,250.1297760
3780,3.6439564,1.4700323,9.1673517,-0.6259542,-0.6183206,1.0076336,-0.5003856,5.8490047,-3.2920105,68.6412201,-11.2519083,250.1297760
3790,3.6439564,1.4269369,9.2367830,-1.0687023,-0.4198473,-0.2671756,2.6599445,5.7388721,-6.0165982,53.2977104,16.2290077,250.1297760
3800,3.5266411,1.3191984,9.3660688,-0.6335878,-1.0152671,-0.0458015,4.4412212,5.5521255,-6.8497758,37.9694672,33.8396950,250.1297760
3810,3.4931223,1.2737088,9.4378948,0.2824427,-1.3282443,0.9618320,7.7404146,5.5760674,-7.1322904,-0.4885496,30.7709923,250.1297760
3820,3.4643922,1.2737088,9.3038206,0.0458015,-1.4274809,0.8702290,9.6126709,5.4635406,-6.5696559,-20.3511448,4.0458016,250.1297760
3830,3.5338237,1.3120158,9.2343884,-0.3740458,-1.4732825,1.3740458,11.8368731,5.3007355,-5.6478930,-37.0763359,-29.0763359,247.3511505
3840,3.4979107,1.3144100,9.1888990,-0.6259542,-1.7786260,1.2595420,14.1209297,5.0373745,-4.9200592,-45.8549614,-55.0763359,221.4351196
3850,3.4165084,1.2593436,9.3205795,-0.7633588,-2.1374047,0.3740458,16.6108856,4.7428894,-3.9408360,-47.0000000,-62.1603050,192.7404633
3860,3.4260850,1.3287752,9.4091644,-0.0610687,-2.6259542,0.2061069,19.5078564,4.6973996,-3.1699069,-41.1374054,-55.6717567,155.8854980
3870,3.4404502,1.3359578,9.5145092,0.7251908,-2.2900763,0.8931298,19.6126022,4.7883787,-2.5067163,-31.7251911,-40.4503822,108.3740463
3880,3.6008608,1.3383518,9.3517036,1.7099236,-2.2290077,1.2137405,19.6126022,5.1235652,-2.8227494,-28.2442741,-26.6717548,48.7480927
3890,3.5338237,1.3718705,9.2367830,1.2977099,-1.3206106,1.5572519,19.6126022,5.1738434,-3.6415622,-36.0992355,-25.7633591,-18.2671757
3900,3.7109938,1.4748207,9.0907373,0.2824427,-0.0610687,1.4503816,19.6126022,4.9248476,-3.4189026,-47.6335869,-26.5877857,-83.1755753
3910,3.7325413,1.5466464,9.1362267,-1.5572519,1.3587786,0.6641222,19.6126022,4.7141590,-2.6575503,-54.6412201,-23.7786255,-138.0229034
3920,3.6678982,1.6017127,9.2056589,-2.1679389,2.0763359,-0.4045801,19.2013988,4.4268565,-1.9823889,-54.8702278,-24.6641216,-185.0915985
3930,3.5864959,1.4963684,9.3062143,-2.1526718,2.1908398,-0.2671756,16.7569313,4.4484038,-1.8315549,-52.7480927,-22.6488552,-222.6488495
3940,3.5649481,1.4389079,9.3780403,-2.0687022,1.8091604,-0.0381679,14.2430334,4.4172797,-1.6208663,-51.5114517,-15.4809160,-250.1374054
3950,3.5960727,1.3455344,9.4594421,-1.5267175,2.1755726,0.3129771,12.1313581,4.2975702,-1.3862357,-49.7251892,-6.6870227,-250.1374054
3960,3.4763632,1.3503228,9.3445215,-1.0076336,2.4274809,0.2671756,10.0651722,4.3550305,-1.0725969,-45.4427490,-0.2137405,-250.1374054
3970,3.5984666,1.2713146,9.1841106,-2.4503818,2.9618320,0.1755725,6.8330169,4.1395535,-1.3622938,-37.5190849,11.5877867,-250.1374054
3980,3.5601597,1.3168042,9.2104464,-3.2061069,2.4503818,-0.5954198,5.3270717,3.8881636,-1.8626794,-35.4961815,20.2977104,-250.1374054
3990,3.5410061,1.1851238,9.3660688,-3.1145039,1.8091604,-0.8473282,3.6798692,3.8091555,-2.5546002,-37.1526718,19.0763359,-250.1374054
4000,3.5481887,1.1755470,9.5432396,-2.2824428,0.6564885,-0.8015267,1.6376256,3.5529771,-2.9304879,-43.6870232,-1.7786260,-250.1374054
4010,3.4739690,1.1611819,9.4187412,-1.4580153,-0.0381679,-0.7099237,-0.1005560,3.3303175,-3.0645626,-54.8549614,-38.6412201,-250.1374054
4020,3.5194585,1.1635761,9.3828287,-0.4580153,-0.4885496,-0.8091603,-1.8339491,3.0621684,-2.4324965,-70.4961853,-80.1832047,-250.1374054
4030,3.3566537,1.2569494,9.2870607,-0.5114504,-0.7480916,-0.7480916,-3.6894460,2.6623387,-1.4508789,-85.6793900,-114.7786255,-250.1374054
4040,3.3159523,1.2162483,9.2990322,-0.6564885,-1.1221374,0.2137405,-6.0932121,2.1978660,-0.2059003,-96.2366409,-135.2061005,-250.1374054
4050,3.3111639,1.3335636,9.3445215,-0.8625954,-1.3435115,1.1450381,-9.3852224,2.3199697,1.5059452,-100.0152664,-133.0534363,-250.1374054
4060,3.4165084,1.3168042,9.3876171,-0.6106870,-1.5725191,1.2366412,-14.5087881,2.8969693,3.4260850,-94.9312973,-98.3129807,-250.1374054
4070,3.3470769,1.3096216,9.3636751,0.1603053,-2.0992367,0.3435115,-19.6131992,4.1347651,5.0469513,-79.9236679,-34.0458031,-250.1374054
4080,3.3303175,1.3598996,9.4067707,0.9618320,-2.7328243,0.2671756,-19.6131992,5.9495606,6.7994981,-57.1450386,45.6335869,-177.3587799
4090,3.3829896,1.2976507,9.4809904,1.4198474,-3.5801528,1.4809160,-19.6131992,6.9766679,8.3700867,-29.4427490,107.6259537,-67.4274826
4100,3.3422885,1.3191984,9.3110027,1.1526718,-3.7175572,1.8931298,-19.6131992,6.7468257,9.0787668,3.8549619,135.6412201,38.4885483
4110,3.4021432,1.2976507,9.3205795,1.1679389,-5.0076337,1.8473282,-19.6131992,6.4523406,8.7818871,40.8473282,151.2519073,127.1450348
4120,3.5026991,1.3263810,9.3445215,1.5877863,-5.5114503,1.7938931,-19.6131992,6.4523406,7.3956513,67.1908417,170.1984711,191.0534363
4130,3.5146701,1.3407460,9.3517036,2.3893130,-6.0534353,2.3053436,-19.6131992,7.0173693,6.4236102,77.8396912,184.4656525,232.5267181
4140,3.7109938,1.3551112,9.3708572,1.9847329,-5.9007635,2.3893130,-17.7074261,7.4124107,5.5353661,78.9542007,171.8167877,250.1297760
4150,3.6559272,1.3934183,9.3445215,1.8244275,-4.9160304,1.5801526,-15.0163565,7.4722652,4.6854286,74.3358765,134.7786255,250.1297760
4160,3.7038112,1.4963684,9.2487535,1.1526718,-4.0687022,1.4351145,-8.4467001,6.2703824,1.4101776,69.1221390,39.1679382,250.1297760
4170,3.6750808,1.5155219,9.2439651,-0.6793893,-2.0152671,0.5801527,-4.5202298,6.1674318,-1.5969244,59.9541969,25.5038166,250.1297760
4180,3.7564833,1.4221486,9.2559366,-0.8320611,-1.2442749,0.5801527,-2.3846128,5.9328012,-3.0071020,51.7022896,12.4122133,250.1297760
4190,3.6726866,1.3838415,9.2176294,-0.7328244,-0.3435115,0.7175573,-0.4022238,5.6191626,-4.6782460,40.2137413,-6.4274807,250.1297760
4200,3.6870518,1.3886299,9.2607250,-1.0687023,-0.1145038,0.5343512,1.2354017,5.0373745,-5.7245069,24.2977104,-16.3664131,250.1297760
4210,3.6487448,1.4077834,9.1697454,-0.9083970,0.0381679,0.3969466,2.6599445,4.5178356,-5.9256191,8.2824430,-22.0992374,250.1297760
4220,3.6583214,1.3622938,9.2822723,-0.9618320,-0.0763359,0.4045801,4.1730723,4.1874375,-5.3055239,-4.8091602,-29.2748089,250.1297760
4230,3.6295912,1.2880739,9.3062143,-0.7862595,-0.3893130,0.1603053,5.7460546,3.7684543,-4.4244623,-11.9160309,-39.6183205,250.1297760
4240,3.6367738,1.3024391,9.3110027,-1.0076336,-0.6030535,-0.0763359,7.5560617,3.8163381,-3.3853838,-13.5114508,-43.2824440,250.1297760
4250,3.5960727,1.2425843,9.3349447,-1.1068702,-0.3969466,0.0992366,9.4857788,3.8929520,-2.9256995,-13.7709923,-41.1603050,250.1297760
4260,3.5745249,1.3024391,9.3421268,-0.8931298,-0.6717557,0.6030535,11.3316984,4.1180058,-2.9185169,-14.4809160,-35.1374054,250.1297760
4270,3.5601597,1.3144100,9.3732519,-0.9312977,-0.8854962,1.0305344,13.2590208,4.1443419,-2.9520357,-18.4580154,-32.7328262,244.7251892
4280,3.5481887,1.3670821,9.2487535,-0.0229008,-1.3282443,0.9312977,15.8495340,4.4244623,-2.7293761,-18.6717548,-29.6106873,211.6335907
4290,3.7277529,1.2737088,9.3756456,0.2366412,-1.4961832,1.0687023,17.7433376,4.7309184,-2.7605004,-16.8091602,-16.4732819,171.8549652
4300,3.5984666,1.4724265,9.3014259,-2.7938931,2.4732823,0.0458015,18.2413292,5.0780759,-4.1204000,-38.7404594,11.6870232,-115.0839691
4310,3.5984666,1.4413021,9.3469152,-2.1984732,2.1297710,-0.0839695,16.8718529,4.8434453,-3.3375001,-41.9465637,13.4274807,-152.1984711
4320,3.4715748,1.3479286,9.4163475,-1.2366412,1.6793894,-0.3129771,15.0163565,4.8003497,-2.6000898,-42.1374054,22.9312973,-183.3969421
4330,3.4643922,1.3670821,9.3301563,-0.5114504,1.4809160,0.3206107,13.4936514,4.7117648,-1.9847831,-39.2290077,27.7328243,-209.7862549
4340,3.5625539,1.3646880,9.2774839,-0.6870229,1.3664122,0.8778626,11.9637651,4.5274124,-1.4149660,-34.0458031,31.4198475,-233.6946564
4350,3.6080434,1.3072275,9.2008705,-1.1068702,1.0076336,1.0381680,10.5487986,4.3693957,-1.2090657,-28.0992374,40.4656487,-250.1374054
4360,3.5864959,1.2354017,9.3421268,-1.3053435,0.2748092,0.2213740,9.3540983,4.2736282,-1.1923064,-22.0229015,52.6641235,-250.1374054
4370,3.6128318,1.3048333,9.3229742,-1.0381680,-0.1374046,0.2900763,7.9343438,3.9935081,-1.5634058,-17.1374054,61.9694672,-250.1374054
4380,3.6774750,1.3862357,9.4187412,-0.9618320,-0.9389313,0.1374046,6.7037306,3.6726866,-2.2984219,-14.8473282,68.1603088,-250.1374054
4390,3.6535332,1.2856797,9.3038206,-0.8015267,-1.2824427,0.1984733,5.3510137,3.5649481,-2.6910689,-16.6870232,67.0076370,-250.1374054
4400,3.6511390,1.3479286,9.2750902,-0.7099237,-0.5114504,0.3206107,3.5577655,3.2034254,-3.1531475,-23.4656487,50.2061081,-250.1374054
4410,3.6008608,1.3694763,9.2655134,-1.0152671,-0.1908397,-0.0229008,1.4987626,3.2177906,-3.5793133,-35.2290077,18.0839691,-250.1374054
4420,3.5625539,1.4173602,9.2511482,-1.3206106,-0.0458015,-0.3740458,-0.9840119,3.0286496,-3.5242469,-52.5801544,-24.1603050,-250.1374054
4430,3.6607156,1.3144100,9.3229742,-1.3893130,0.0534351,-0.6106870,-3.4021432,2.7533178,-2.9999194,-71.4732819,-65.8015289,-250.1374054
4440,3.5601597,1.3239868,9.3014259,-0.8931298,0.1679389,-0.2137405,-7.3788919,2.6455793,-1.5801650,-86.0229034,-83.7862625,-250.1374054
4450,3.5721307,1.3359578,9.3133974,-0.7175573,-0.1374046,0.6946565,-12.5287933,3.3901722,0.5865764,-91.3587799,-70.5267181,-250.1374054
4460,3.5362179,1.3215926,9.3469152,-0.1374046,-1.0687023,0.0152672,-19.1199970,5.0062504,3.0310438,-86.7328262,-32.6946564,-250.1374054
4470,3.5218527,1.2904681,9.3397331,-0.1374046,-1.2213740,0.7557252,-19.6131992,6.5217719,5.2480631,-73.6488571,8.0152674,-229.8702240
4480,3.5841017,1.3215926,9.2559366,-0.2671756,-1.1984733,1.2519084,-19.6131992,7.6111283,7.1969333,-52.7251892,36.1068687,-139.2137451
4490,3.5841017,1.3958124,9.3229742,-0.3511450,-1.1526718,0.4503817,-19.6131992,8.0420828,8.5113440,-22.6793900,56.2748108,-43.7480927
4500,3.5912843,1.4101776,9.2439651,-0.2671756,-0.5954198,0.2748092,-19.6131992,7.0245519,6.8138633,40.1297722,94.3282471,116.7480927
4510,3.6583214,1.3718705,9.2439651,-0.7251908,-0.2748092,1.0381680,-19.6131992,6.6247220,5.8083038,58.6488533,117.7175598,165.4732819
4520,3.6535332,1.4029950,9.2918491,-0.9694657,-0.5267175,0.6946565,-17.4416695,6.1554613,4.5872669,67.0229034,113.3664093,192.9541931
4530,3.6343796,1.3958124,9.3540983,-0.9618320,-0.7862595,0.7633588,-14.9900198,6.1075773,3.6439564,66.8931274,85.9465637,205.5877838
4540,3.6487448,1.3575054,9.2774839,-0.8015267,-0.4961832,0.3893130,-12.7777891,6.2344694,3.4356618,63.9923668,49.9923668,209.9618378
4550,3.5888901,1.3024391,9.3133974,-0.0916031,-1.1145039,-0.1679389,-10.7882175,5.9088597,3.0430148,62.6564903,14.1221371,211.8396912
4560,3.4189026,1.3000449,9.4043760,-0.3206107,-0.9389313,0.6488550,-9.2152348,5.9567432,3.0525916,65.4580154,-13.1679392,212.9770966
4570,3.5601597,1.2330076,9.2272062,-0.0305344,-1.4732825,1.2595420,-7.8529415,5.7795734,2.8275378,70.2213745,-26.6564884,214.5114441
4580,3.6750808,1.3431402,9.3229742,0.5877863,-3.6870229,1.1908396,-1.7309990,6.1722202,-2.1930776,78.1297684,-43.2442741,243.3969421
4590,3.7469065,1.3694763,9.2487535,0.7938932,-3.9312978,0.9923664,-0.3543400,6.3086891,-3.6655040,75.4198456,-36.0839691,250.1297760
4600,3.7229645,1.3814473,9.2152348,-1.0152671,0.3511450,0.5877863,13.2422619,4.1371593,-6.7803445,-11.8167934,-45.8625946,250.1297760
4610,3.6798692,1.4197544,9.0644016,-1.6030535,1.2137405,0.3435115,16.3355541,4.0078731,-6.1051831,-23.7251911,-58.3129768,236.7862549
4620,3.7181761,1.4221486,9.3110027,-1.4427481,1.8473282,-0.0916031,19.6126022,3.7564833,-5.6071916,-29.7175579,-67.5572510,196.6946564
4630,3.7636659,1.4963684,9.1793222,-1.1221374,1.8702290,0.5114504,19.6126022,3.9480183,-5.0661049,-30.7175579,-62.3053436,141.9847260
4640,3.6343796,1.4149660,9.3660688,-1.3740458,1.1908396,0.5648855,19.6126022,4.4507980,-4.6543045,-32.2824440,-40.1832047,72.4427490
4650,3.7109938,1.4436963,9.1817169,-1.1603054,1.6488550,-0.0458015,19.6126022,5.0230093,-4.6543045,-52.2595406,-29.2213745,-67.4580154
4660,3.7397239,1.3718705,9.1338329,-1.4198474,1.4580153,-0.3740458,19.6126022,4.9296360,-3.5888901,-60.5572510,-41.8931313,-127.2137375
4670,3.7085996,1.2713146,9.1769285,-2.2671757,1.8625954,-0.3358779,19.6126022,4.6758518,-2.7413468,-61.5954208,-45.4198456,-174.4427490
4680,3.5817075,1.3431402,9.2511482,-2.5572519,2.0763359,-0.3664122,17.5158901,4.6662750,-2.6024840,-59.8854980,-37.5190849,-210.2977142
4690,3.5481887,1.2473727,9.3301563,-2.3587787,1.1526718,-0.3893130,15.1624022,4.4747400,-2.5737536,-58.3816795,-22.4961834,-240.1908417
4700,3.6056492,1.2641320,9.3708572,-1.7709924,0.5801527,-0.3435115,13.0698805,4.5729017,-2.5713594,-56.6870232,-10.5038166,-250.1374054
4710,3.5098817,1.3048333,9.4666252,-0.7633588,-0.2137405,0.0610687,11.2287483,4.3741841,-2.8227494,-56.0076332,-3.7480917,-250.1374054
4720,3.5841017,1.3072275,9.3373384,-0.4198473,-0.5496183,0.5038168,9.4809904,4.2832050,-2.8012016,-58.1603050,-2.6946564,-250.1374054
4730,3.5314295,1.3024391,9.3229742,-0.2442748,-0.8778626,1.3053435,7.7835097,4.0557570,-2.8610563,-62.7251892,-11.1603050,-250.1374054
4740,3.6271970,1.3263810,9.2080526,-0.2595420,-0.9541985,0.9847328,5.6526814,3.6032550,-2.7509236,-69.9007645,-29.1526718,-250.1374054
4750,3.7038112,1.3886299,9.3110027,-0.1984733,-1.3587786,0.3893130,3.9695661,3.2321558,-2.7245877,-79.8167953,-54.0305328,-250.1374054
4760,3.7852135,1.2856797,9.3517036,0.0000000,-1.3740458,-0.0229008,2.1619530,2.8849983,-2.7892308,-93.3511429,-80.6488571,-250.1374054
4770,3.6319854,1.4748207,9.2319946,-0.4427481,-0.8167939,0.4732825,0.1987177,2.4516499,-2.4755919,-110.5190811,-106.9694672,-250.1374054
4780,3.6678982,1.2354017,9.2726955,-0.4351145,-0.7557252,0.4656489,-1.7884595,2.0637913,-1.5538290,-129.1755676,-137.6106873,-250.1374054
4790,3.6176202,1.3982066,9.1769285,-0.7404580,-0.1221374,-0.0916031,-4.3885493,1.8100072,-0.1915352,-146.3587799,-169.0000000,-250.1374054
4800,3.6607156,1.2617378,9.2559366,-0.6870229,-0.1603053,0.3969466,-7.3549500,1.5801650,1.9536586,-156.5038147,-179.0152740,-250.1374054
4810,3.6415622,1.4389079,9.3397331,-1.0229008,0.3664122,0.6335878,-12.0523500,2.1811066,4.6950054,-152.9770966,-140.9618378,-250.1374054
4820,3.5553713,1.2330076,9.3062143,-0.2900763,-0.9694657,0.3664122,-17.4153347,3.6702924,7.4243813,-133.9389343,-70.6335907,-250.1374054
4830,3.5553713,1.2832855,9.3828287,-0.3435115,-1.4045801,0.1832061,-19.6131992,4.8649931,9.2966375,-101.0000000,1.1832061,-232.9465637
4840,3.5769191,1.2401901,9.3636751,0.4503817,-1.7862595,0.4351145,-19.6131992,6.5576849,11.0396080,-58.1068687,70.2213745,-129.0458069
4850,3.5338237,1.4053892,9.3229742,0.4198473,-1.4198474,1.2824427,-19.6131992,7.1658092,12.0523500,-12.3511448,126.8854980,-8.5648851
4860,3.6870518,1.3383518,9.2008705,0.1526718,-1.5801526,0.8931298,-19.6131992,6.6199336,11.7913828,36.1297722,167.7175598,113.1450348
4870,3.6894460,1.4221486,9.2703018,-0.3435115,-1.3969465,0.7862595,-19.6131992,5.7652082,10.6325951,79.9923630,203.2366486,216.4274750
4880,3.6846576,1.3958124,9.2870607,-0.3740458,-1.5267175,0.4732825,-19.6131992,4.9990678,8.7747040,111.4656525,240.3816833,250.1297760
4890,3.7085996,1.4029950,9.1936874,-0.5877863,-1.2213740,0.7099237,-19.6131992,4.5369892,6.7731619,127.4809189,250.1297760,250.1297760
4900,3.5864959,1.3551112,9.3301563,-0.4198473,-1.5114504,0.4045801,-17.6906662,4.0796990,4.9942794,129.2671814,250.1297760,250.1297760
4910,3.4955165,1.2880739,9.2990322,0.2824427,-1.9236641,0.5419847,-13.0914278,3.9336534,3.1507533,118.7557220,204.5343475,250.1297760
4920,3.5170643,1.3383518,9.3493099,0.3893130,-2.5038168,1.4656489,-8.8776541,4.0796990,1.9608412,103.7786255,140.3282471,250.1297760
4930,3.6559272,1.3120158,9.2200232,0.6106870,-2.8244274,1.8625954,-5.0589223,4.2209558,0.7445929,87.6412201,66.8473282,250.1297760
4940,3.8139439,1.4365137,9.1218615,-0.6259542,-0.4427481,0.9465649,4.2616572,4.2592630,-3.3782012,52.7633591,-63.4274826,250.1297760
4950,3.8283088,1.4077834,9.1529865,-0.9083970,0.8396947,-0.4351145,6.4643116,4.1347651,-4.6327567,44.1145020,-29.8473282,250.1297760
4960,3.6511390,1.3455344,9.3014259,-1.9389313,3.5190840,-0.0610687,14.0084028,3.7062054,-3.9552009,19.7557259,-18.7633591,234.3587799
4970,3.5841017,1.3838415,9.3445215,-1.9770992,3.8549619,0.6870229,15.7441902,3.6128318,-3.6487448,16.3816795,-17.9465656,201.9694672
4980,3.6248028,1.4197544,9.3828287,-1.7709924,2.6946564,1.1832061,17.8031921,3.8163381,-3.7301471,16.4656487,-20.4045811,161.8015289
4990,3.7325413,1.4029950,9.4139528,-1.2519084,1.5038168,0.2366412,19.6126022,4.3861551,-4.4436154,16.9541988,-24.4045811,114.3053436
5000,3.7445123,1.3862357,9.1769285,-0.9465649,0.6183206,0.6717557,19.6126022,5.2552457,-6.2296810,-7.0687022,-27.0687027,7.2671757
5010,3.6631098,1.3814473,9.2703018,-0.9770992,0.2213740,0.0458015,19.6126022,5.5353661,-6.0118098,-29.8854961,-22.1374054,-48.6564903
5020,3.5841017,1.4748207,9.3110027,-0.8396947,-0.0458015,-1.1068702,19.0816898,5.3581958,-5.5856438,-46.9160309,-33.9312973,-98.6335907
5030,3.6176202,1.1779412,9.2966375,-0.7404580,-0.6564885,-1.2595420,17.3506908,5.2241216,-5.0708933,-57.9694672,-54.4122124,-142.0000000
5040,3.4739690,1.2210367,9.3469152,-0.4198473,-0.8396947,-0.6259542,15.5837793,5.3079181,-4.6159973,-67.0610657,-69.1450348,-179.0610657
5050,3.4739690,1.2713146,9.2846670,-0.5267175,-1.2595420,0.2824427,14.0802279,5.3390427,-3.9623835,-74.8778610,-69.9465637,-209.1679382
5060,3.5625539,1.3191984,9.3253679,-0.5267175,-1.3740458,0.9083970,12.6461086,5.3677726,-3.4189026,-78.3282471,-57.8778610,-235.9389343
5070,3.6008608,1.3814473,9.3086090,-0.4427481,-1.0610687,0.9312977,11.2024126,5.3390427,-3.4093258,-79.0687027,-47.4503822,-250.1374054
5080,3.6295912,1.3862357,9.3469152,-0.4045801,-1.2900764,0.3206107,9.7180147,5.2935529,-3.1076579,-80.1450348,-41.5038185,-250.1374054
5090,3.6008608,1.2856797,9.3229742,-0.0305344,-1.3282443,0.2442748,7.8984308,4.8578105,-3.1459649,-81.7022934,-40.7786255,-250.1374054
5100,3.5481887,1.3383518,9.2679071,-0.3969466,-1.5038168,0.9465649,6.1602492,4.6710634,-3.4356618,-86.7404556,-45.1908379,-250.1374054
5110,3.6607156,1.2856797,9.2487535,-0.0610687,-1.3664122,1.3358779,4.3167233,4.4412212,-3.9073172,-97.3358765,-60.4427490,-250.1374054
5120,3.7588775,1.3551112,9.3349447,0.1068702,-2.1221373,1.1221374,2.4181314,3.8618276,-3.9264708,-112.9694672,-85.6335907,-250.1374054
5130,3.6870518,1.3431402,9.3253679,-0.4732825,-2.3358779,0.5038168,1.3048333,3.6128318,-2.9568241,-130.6030579,-112.2824402,-250.1374054
5140,3.6942344,1.3503228,9.2487535,-0.3969466,-2.0534351,1.1297710,0.2753318,3.0406206,-1.6065011,-145.8396912,-136.6488495,-250.1374054
5150,3.7157819,1.3000449,9.2607250,-0.7022901,-2.5572519,0.4351145,-0.7661406,2.7365584,-0.0047884,-157.1450348,-162.0992432,-250.1374054
5160,3.6535332,1.3910241,9.3612804,-0.2824427,-2.4961832,0.2137405,-1.7166338,2.4133430,1.6519908,-163.9084015,-185.3969421,-250.1374054
5170,3.6655040,1.2880739,9.2679071,0.1984733,-2.9541984,0.4427481,-2.5857246,1.8459201,3.1938488,-165.2595367,-204.5267181,-250.1374054
5180,3.6200144,1.3383518,9.2966375,0.7251908,-2.5877862,0.3358779,-3.1244173,1.4652439,4.5298066,-163.3129730,-220.5496216,-250.1374054
5190,3.6511390,1.3359578,9.2846670,0.8854962,-2.7328243,1.0458015,-3.4332676,1.0318956,5.3486195,-160.8167877,-232.5725250,-250.1374054
5200,3.6774750,1.3503228,9.2583303,1.1908396,-2.9236641,1.4885496,-3.8283088,0.6823440,6.4834652,-157.4122162,-235.0915985,-250.1374054
5210,3.7205703,1.3718705,9.3086090,1.5801526,-3.2671757,1.6030535,-4.4507980,0.1819584,7.9534974,-151.7633514,-227.0839691,-250.1374054
5220,3.7852135,1.3886299,9.2487535,1.2977099,-3.8702290,1.4122137,-5.9591374,-0.2442073,8.8968077,-139.9465637,-210.1068726,-250.1374054
5230,3.7923961,1.4365137,9.1960821,1.3740458,-3.8854961,1.0839695,-9.6964674,-0.0311245,9.7658987,-121.2977066,-166.6183167,-250.1374054
5240,3.6798692,1.4149660,9.2128410,0.4427481,-2.0229008,1.0839695,-15.1001530,0.8307837,10.8552551,-92.3053436,-87.4656525,-250.1374054
5250,3.5793133,1.4915800,9.2990322,0.6106870,-5.3893127,1.6870229,-19.6131992,2.3056045,12.0044661,-52.0839691,14.3587790,-216.4427490
5260,3.8019729,1.3383518,9.3229742,2.0229008,-5.2900763,1.0458015,-19.6131992,3.2991931,12.0595322,-6.5572519,99.7099228,-123.6488571
5270,3.7109938,1.4365137,9.3181858,2.1603053,-5.5343513,0.8625954,-19.6131992,4.0892754,10.9965124,36.1526718,149.3358765,-22.8320618
5280,3.7062054,1.3263810,9.3445215,2.3893130,-3.7709923,1.5190840,-19.6131992,3.6271970,8.1593981,94.2595444,185.1450348,135.2824402
5290,3.7205703,1.5035510,9.1577749,1.3740458,-5.4885497,2.9618320,-17.2022514,3.6942344,6.9431496,110.0992355,191.8778687,167.7175598
5300,3.9815371,1.5011568,9.0404596,-0.8931298,0.8473282,-0.4809160,-14.0610743,6.6965480,3.3901722,97.9389343,133.2977142,241.1908417
5310,3.9432299,1.4652439,9.1170731,-1.1603054,1.3740458,-1.1603054,-13.0076313,7.3669209,3.7588775,98.8854980,145.2442780,250.1297760
5320,3.8187323,1.4796091,9.1697454,-1.8320611,2.6946564,0.2137405,-11.5926657,8.4730368,3.7564833,99.6259537,147.6564941,250.1297760
5330,3.8690102,1.5490406,9.2200232,-2.2442749,2.8167939,-0.8473282,-7.9487090,9.0620070,2.7437410,91.1755753,123.3435135,250.1297760
5340,3.7133877,1.3886299,9.2176294,-1.6106870,2.1908398,-0.1908397,-6.3206601,7.5704269,2.0087249,90.1297684,109.4351120,250.1297760
5350,3.8115497,1.3527170,9.1577749,-0.8854962,2.2748091,1.0076336,-2.4731977,4.8386569,-0.0718257,106.3587799,137.2977142,250.1297760
5360,3.7684543,1.4053892,9.0811605,-1.2748091,1.9465649,0.4732825,-0.6320660,3.7421181,-1.8171898,111.9618301,182.4732819,250.1297760
5370,3.7804251,1.4460905,9.1817169,-1.0458015,2.0610688,0.3969466,1.1851238,2.6455793,-3.3566537,109.0000000,230.9389343,250.1297760
5380,3.8163381,1.3431402,9.2343884,-2.1221373,3.0763359,-0.4122137,18.0665531,1.8770446,-2.2936335,38.9160309,206.4732819,250.1297760
5390,3.7469065,1.3910241,9.1601686,-2.1832061,3.6106870,-0.3587786,19.6126022,2.6647329,-0.6679789,25.8473282,171.3358765,236.6335907
5400,3.7564833,1.3838415,9.1865053,-2.4809160,3.4274809,-0.6641222,19.6126022,4.2664456,1.1851238,34.8167953,170.1984711,151.7480927
5410,3.6391680,1.2952565,9.2822723,-2.0534351,1.8854961,-0.6870229,19.3618107,5.2528515,-0.9792235,10.6488552,28.5801525,-43.7557259
5420,3.6295912,1.3311694,9.3493099,-1.9160305,1.6412214,-0.1450382,14.7913027,4.3454537,-3.6439564,-7.0763359,-36.9694672,-84.3969498
5430,3.6224086,1.2569494,9.3253679,-1.0763359,1.0687023,-0.2366412,13.6061783,4.8386569,-5.1187773,-35.5190849,-116.8778610,-114.9083939
5440,3.4979107,1.2880739,9.3133974,-0.7938932,0.2137405,0.4961832,12.7969427,4.8290801,-4.9463954,-64.7786255,-162.7251892,-143.7251892
5450,3.5793133,1.3958124,9.3277617,-0.6259542,-0.2061069,0.2519084,12.2893744,5.1115947,-4.2712340,-85.2671738,-171.1450348,-170.3206177
5460,3.6128318,1.3934183,9.2104464,-0.7557252,-0.1603053,0.6870229,12.1529055,5.3893204,-3.4236910,-93.1908417,-158.1297760,-189.4351196
5470,3.6295912,1.4077834,9.3181858,-0.4427481,-0.5343512,1.0534351,10.9007444,5.6622581,-3.1196289,-98.2748108,-135.9923706,-192.6793823
5480,3.7445123,1.2952565,9.2080526,-0.6717557,-0.7099237,0.9694657,10.7163916,6.5241661,-2.2265961,-96.5801544,-100.5648880,-212.6870270
5490,3.7660601,1.4125718,9.2966375,-0.4427481,-0.1984733,0.6946565,10.3333216,5.9232249,-0.7876883,-87.3969498,-89.6412201,-248.2748108
5500,3.7804251,1.3886299,9.2296000,-0.2595420,-0.9160305,0.7404580,9.3493099,5.5401545,-0.6081241,-81.0076370,-109.5114517,-250.1374054
5510,3.7229645,1.4460905,9.2846670,-0.3664122,-0.6488550,0.5267175,7.9870162,5.7292953,-0.6847382,-82.6106873,-132.7099304,-250.1374054
5520,3.7804251,1.3431402,9.2008705,-0.2442748,-0.7404580,0.4732825,5.8274570,5.3462253,-1.0127422,-93.0839691,-157.4274750,-250.1374054
5530,3.6463506,1.3718705,9.3349447,-0.4198473,-0.5648855,-0.0763359,4.2018023,4.7548604,-1.1444225,-110.7328262,-191.2824402,-250.1374054
5540,3.6559272,1.3096216,9.3349447,-0.4351145,-0.8702290,-0.0305344,2.9687948,3.9456241,-0.7852941,-132.8320618,-235.6335907,-250.1374054
5550,3.7062054,1.2569494,9.2391768,-0.1221374,-0.9618320,-0.0076336,1.7070571,3.0478032,-0.1915352,-153.9694672,-250.1374054,-250.1374054
5560,3.6128318,1.2784972,9.3660688,0.1603053,-2.1755726,0.3664122,0.6105183,2.3103929,0.9600700,-172.3969421,-250.1374054,-250.1374054
5570,3.5912843,1.2449785,9.3612804,0.5038168,-3.8778627,0.9007633,-0.3519458,1.5035510,2.5713594,-187.1755676,-250.1374054,-250.1374054
5580,3.6032550,1.3215926,9.2367830,1.1450381,-4.1984735,1.1679389,-1.4173602,0.5410868,4.2137733,-197.8854980,-250.1374054,-250.1374054
5590,3.6176202,1.3766589,9.3205795,1.3893130,-4.2519083,1.1984733,-2.8131726,-0.5339043,5.9064655,-205.1755676,-250.1374054,-250.1374054
5600,3.6559272,1.4365137,9.2583303,1.4274809,-3.6793892,1.5190840,-5.2121506,-0.9816177,7.1969333,-209.3206177,-250.1374054,-250.1374054
5610,3.6128318,1.4293311,9.1505919,1.5572519,-2.9847329,2.3358779,-8.7196379,-0.3184272,9.5767574,-201.4809113,-246.7328186,-250.1374054
5620,3.7947903,1.4484847,9.1481981,1.1221374,-3.0839694,2.0839694,-13.2973280,0.3208214,11.5375986,-178.9694672,-183.3053436,-250.1374054
5630,3.9144998,1.5035510,9.2128410,0.8396947,-2.9694657,1.6412214,-19.6131992,2.3439114,13.3883076,-144.4122162,-90.7938919,-250.1374054
5640,3.8522508,1.5538290,9.2703018,0.7251908,-2.4732823,1.1297710,-19.6131992,5.5186067,14.8631277,-93.0305328,27.1374054,-167.2519073
5650,3.9216824,1.4748207,9.1434097,0.3053435,-2.1908398,0.7175573,-19.6131992,7.1586266,15.8519287,-31.7938938,120.8396912,-11.2824430
5660,3.8330972,1.4341195,9.1817169,-0.3587786,-1.5114504,0.8854962,-19.6131992,5.2863703,15.3252068,34.0076332,161.0839691,146.4351196
5670,3.7445123,1.4269369,9.2367830,-0.7480916,-1.4122137,0.6870229,-19.6131992,3.1148405,12.7107515,97.4351120,179.1679382,250.1297760
5680,3.7804251,1.3646880,9.2655134,-0.7022901,-1.1297710,-0.0992366,-19.1870346,2.3319404,10.8432837,148.6030579,197.0839691,250.1297760
5690,3.7564833,1.3694763,9.2726955,-0.2748092,-1.2442749,0.4885496,-14.3795023,2.4708035,9.3349447,181.6564941,226.9847260,250.1297760
5700,3.7397239,1.3670821,9.3421268,-0.4198473,-1.4580153,1.1068702,-10.9366570,3.4236910,7.4866304,199.5343475,250.1297760,250.1297760
5710,3.7876077,1.4772149,9.1601686,-0.2824427,-1.0916030,0.8931298,-8.5664101,4.3454537,5.3893204,207.5954132,246.1526642,250.1297760
5720,3.7804251,1.4867916,9.1146793,0.2442748,-1.7633588,0.7175573,-6.8354111,5.0182209,3.7277529,201.8473358,222.3969421,250.1297760
5730,3.8666160,1.4436963,9.1098909,-0.3435115,-1.6183206,0.5114504,-5.3438311,5.6335278,0.2896969,162.6335907,203.5877838,250.1297760
5740,3.7780309,1.4484847,9.2319946,-0.2977099,-0.9465649,0.9236641,-4.7716198,6.2919297,-0.5458752,121.5114517,196.3129730,250.1297760
5750,3.7995787,1.5705882,9.2008705,-0.2290076,-0.8702290,0.8320611,-3.4643922,5.8274570,0.1292862,95.0152664,176.3282471,250.1297760
5760,3.8953462,1.4843974,9.2343884,-0.0229008,-0.3816794,0.3893130,-1.2545552,5.4300218,0.7996593,84.5648880,154.3053436,250.1297760
5770,3.9456241,1.4556671,9.1505919,-0.3740458,-0.3587786,-0.2061069,0.5698171,5.4324160,0.4094064,82.1832047,138.6183167,250.1297760
5780,3.8043671,1.3982066,9.2008705,-1.7099236,0.9007633,-0.9312977,2.5546002,5.6191626,-0.7493813,75.3664093,121.7862625,250.1297760
5790,3.7564833,1.3742647,9.1960821,-1.5648855,1.6106870,-0.1908397,3.3734128,5.4443870,-1.7645177,65.9389343,108.2442780,250.1297760
5800,3.7756367,1.4580613,9.2128410,-1.4885496,2.1297710,0.5572519,4.3334827,5.2815819,-2.2122312,54.2977104,95.2671738,250.1297760
5810,3.7373297,1.3886299,9.1817169,-1.6488550,3.5877862,1.2824427,5.9950504,5.0804701,-2.8969693,40.3129768,85.0992355,250.1297760
5820,3.8283088,1.3766589,9.1841106,-2.3816793,4.1755724,0.6412213,7.5345144,4.7835903,-3.4787574,25.0534344,72.1297684,250.1297760
5830,3.9073172,1.4652439,9.2224178,-2.8778627,5.0381680,0.2824427,9.4163475,4.5776901,-3.7995787,10.8015270,48.9160309,250.1297760
5840,3.8785870,1.4125718,9.2152348,-3.4885497,5.2671757,-0.5267175,12.9956608,4.9511838,-3.5314295,-12.0458012,2.7022901,209.5114441
5850,3.8881636,1.4628497,9.2679071,-3.6488550,5.6030536,-1.2442749,14.8894644,5.5018473,-3.4021432,-18.4656487,-9.6870232,171.3893127
5860,3.7780309,1.3335636,9.3014259,-3.2366412,5.3511453,-1.8320611,16.7234135,5.3773494,-3.3494711,-24.2366409,-20.7557259,128.0686951
5870,3.7397239,1.2856797,9.2104464,-2.9236641,4.7709923,-2.0916030,17.9252968,5.5784616,-2.9855542,-30.9465656,-27.2900772,76.1755753
5880,3.7277529,1.2330076,9.3421268,-2.6793892,3.5954199,-1.8320611,17.8750191,5.9615316,-2.8371146,-37.5038185,-27.9465656,25.0458012
5890,3.6894460,1.2377959,9.3780403,-2.4809160,1.9847329,-1.9083970,17.5326500,6.1147599,-2.6934631,-43.5038185,-34.6641235,-24.2290077
5900,3.6128318,1.1420283,9.4211359,-1.8549619,0.3129771,-1.4656489,16.4265347,6.2847471,-2.2672975,-48.3740463,-50.1984749,-69.7480927
5910,3.5338237,1.1683644,9.3876171,-0.6259542,-0.9236641,-1.4122137,15.2366219,6.5552907,-2.1547706,-53.6259537,-64.8931274,-111.3893127
5920,3.7971845,1.3575054,9.1936874,-0.8473282,-0.6183206,0.1145038,0.9217629,3.4212968,2.7054341,-137.8015289,-234.0152740,-250.1374054
5930,3.7373297,1.3215926,9.3038206,-0.8931298,-0.6106870,-0.2061069,-0.1508339,2.7030399,4.1132174,-147.5877838,-250.1374054,-250.1374054
5940,3.6894460,1.3790531,9.2200232,-0.9312977,-0.9007633,-0.1526718,-1.6208663,2.0566087,5.4228392,-152.2671814,-250.1374054,-250.1374054
5950,3.6607156,1.2569494,9.3493099,-0.4580153,-1.7404580,-0.3587786,-3.6942344,1.2856797,6.6390872,-153.4656525,-250.1374054,-250.1374054
5960,3.5194585,1.3168042,9.3660688,-0.0458015,-1.7251909,-0.1145038,-7.2304521,0.5362985,7.8433647,-150.0610657,-250.1374054,-250.1374054
5970,3.5026991,1.3120158,9.2966375,0.3053435,-2.2671757,0.8854962,-12.1074162,1.6208663,10.0723553,-134.3587799,-250.1374054,-250.1374054
5980,3.5290353,1.3239868,9.2343884,1.0229008,-2.9694657,1.4427481,-16.6970768,2.6288199,12.5742826,-104.5496216,-250.1374054,-250.1374054
5990,3.6415622,1.3383518,9.3517036,0.8625954,-4.6793895,2.8396947,-18.2940025,4.4819226,14.7027178,-68.8396912,-171.1679382,-250.1374054
6000,3.7229645,1.4987626,9.4259243,1.7557251,-4.2671757,2.2671757,-19.6131992,6.8832946,14.2717638,-16.7938938,-34.0305328,-162.5572510
6010,3.7660601,1.4293311,9.3852224,1.9465649,-4.7404580,1.7251909,-19.6131992,5.9471664,12.7777891,39.2290077,58.6335869,-48.3206100
6020,3.8091555,1.4053892,9.3110027,2.4885497,-5.4961834,1.8320611,-19.6131992,5.5545197,11.2119894,93.5954208,105.1526718,55.9847336
6030,3.7636659,1.4125718,9.2343884,1.7480916,-4.8091602,2.3206108,-17.6547527,5.8035154,9.3804340,133.5801544,122.8473282,125.2977066
6040,3.8690102,1.4508789,9.0787668,0.5648855,-4.4122138,2.3816793,-13.4601336,5.8825235,7.3070664,159.7633514,132.7251892,162.0000000
6050,3.8283088,1.5658000,9.2056589,0.5114504,-3.6106870,2.0381680,-9.5911226,6.1123657,4.9344244,166.4885559,138.7022858,174.8473358
6060,3.8857694,1.5250987,9.1865053,0.4427481,-3.2213740,1.7480916,-8.4395180,6.6175399,2.8921809,153.6717529,139.9541931,178.2671814
6070,3.9743545,1.5681942,9.0500364,0.2442748,-2.7251909,1.1526718,-8.7268209,7.2424231,2.1020982,139.0763397,139.9923706,182.8702240
6080,3.9911139,1.6232605,9.1673517,0.3969466,-2.2900763,0.2900763,-9.7946291,7.3741035,1.9704180,132.1297760,137.4122162,194.8854980
6090,3.9312592,1.4508789,9.1434097,0.2213740,-2.4351146,0.2137405,-9.9430685,7.8912482,1.9991482,131.0458069,142.7480927,215.1526642
6100,3.9001346,1.3551112,9.0763721,0.1679389,-2.1526718,0.9007633,-9.3469152,8.1378498,1.9321109,130.5496216,148.6793823,238.1832123
6110,3.9456241,1.4604555,9.1625633,-0.0610687,-1.5496184,0.2671756,-7.8625183,8.0492649,1.9728121,130.1374054,148.8244324,250.1297760
6120,3.9144998,1.4556671,9.0907373,-0.6106870,-0.5038168,0.3435115,-6.0956063,7.7978749,1.8028246,131.4045868,145.6717529,250.1297760
6130,3.9480183,1.3766589,9.2080526,-0.7099237,-0.2442748,0.2366412,-4.2065907,7.5823979,1.1970947,134.3129730,140.5114441,250.1297760
6140,3.8857694,1.5562232,9.2415714,-0.7404580,0.5267175,-0.1832061,-1.8124014,7.2112985,0.7134684,136.3206177,142.0152740,250.1297760
6150,3.8019729,1.4796091,9.2679071,-0.7480916,0.8778626,-0.4580153,0.3208214,6.7276726,-0.4525018,136.3587799,142.3969421,250.1297760
6160,3.7493007,1.5538290,9.0308828,-1.4885496,2.1374047,0.3740458,1.8171898,6.2703824,-1.4939742,134.0152740,145.0992432,250.1297760
6170,3.7660601,1.4053892,9.1146793,-2.4045801,2.6641221,1.2213740,3.1651185,6.0764527,-2.6264257,127.0457993,157.6641235,250.1297760
6180,3.9097114,1.4460905,9.1481981,-2.4122138,3.0000000,0.6946565,4.3286943,5.6766233,-3.8235207,114.1068726,165.1832123,250.1297760
6190,3.8737986,1.4317253,9.2296000,-2.1374047,3.2900763,-0.1297710,5.3988972,5.3079181,-4.7979555,96.7786255,160.2519073,250.1297760
6200,3.7923961,1.4006008,9.2774839,-1.8091604,2.5648854,-0.3587786,6.6079631,5.2672167,-5.4060798,77.3282471,146.9694672,250.1297760
6210,3.7445123,1.3383518,9.3062143,-1.3816794,2.2900763,-0.3282443,7.9582858,5.0565281,-5.9974446,56.2595406,121.3740463,250.1297760
6220,3.8235207,1.3886299,9.1793222,-1.1145039,0.5801527,-0.3282443,17.6715126,5.6933827,-4.8482337,-25.4427490,-26.2519093,100.1526718
6230,3.8690102,1.3670821,9.2631187,-1.2977099,0.0305344,-0.3053435,19.5102501,6.0501165,-4.9679432,-36.3969460,-49.2442741,38.1832047
6240,3.8091555,1.4269369,9.2032642,-0.8549618,-0.3435115,-0.2442748,19.6126022,6.6917596,-5.1762376,-46.7404594,-65.5496216,-25.3358784
6250,3.8498566,1.2856797,9.2870607,-0.9694657,-0.3206107,-0.5725191,19.1846409,6.9359670,-6.0357518,-59.1145020,-74.3511429,-84.4961853
6260,3.7397239,1.4891858,9.2319946,-0.9465649,-0.0992366,-1.0076336,17.6906662,7.1394730,-6.4116392,-74.1221390,-82.5877838,-137.8015289
6270,3.7636659,1.3790531,9.1960821,-0.6412213,-0.1603053,-0.8320611,15.3802729,7.0341287,-6.6486640,-90.0839691,-95.0152664,-183.3969421
6280,3.6966286,1.3383518,9.2248116,-0.8854962,0.4885496,-1.1068702,13.0219965,6.7827387,-6.5912037,-107.4961853,-104.5190811,-219.8396912
6290,3.6990228,1.3598996,9.2224178,-0.7862595,0.8015267,-0.3816794,10.8073711,6.4379754,-6.2057390,-123.9312973,-113.6717529,-246.5496216
6300,3.7947903,1.5179161,9.2487535,-1.1679389,1.2824427,0.0687023,8.6693602,6.1458845,-5.6383162,-137.4045868,-120.7175598,-250.1374054
6310,3.7900019,1.4508789,9.2296000,-1.0229008,1.2824427,0.1068702,7.0460997,5.8897061,-4.9607606,-148.7633514,-123.6412201,-250.1374054
6320,3.7684543,1.4915800,9.1745338,-0.8167939,1.3969465,-0.3206107,5.8490047,5.7795734,-4.1994085,-159.7175598,-126.0687027,-250.1374054
6330,3.7756367,1.5179161,9.0380650,-1.3358779,1.8167939,-0.1297710,4.6207857,5.6502872,-3.6032550,-170.0534363,-126.1450348,-250.1374054
6340,3.8187323,1.4245427,9.1649570,-2.1984732,1.2366412,-0.1832061,3.4787574,5.2169390,-2.8490853,-179.7633514,-125.3358765,-250.1374054
6350,3.7253587,1.4628497,9.2726955,-2.2977099,0.8091603,-1.2900764,2.3367288,5.0254035,-2.0111191,-189.0763397,-127.8320618,-250.1374054
6360,3.6391680,1.2186425,9.4043760,-1.2671756,0.7099237,-0.9618320,1.4460905,4.3334827,-0.7661406,-196.9694672,-130.6412201,-250.1374054
6370,3.5769191,1.2641320,9.3014259,-0.3435115,0.9770992,0.0458015,0.3112446,4.0174499,0.6129125,-201.8091583,-127.9007645,-250.1374054
6380,3.5457945,1.3503228,9.2200232,-0.4427481,0.3129771,2.0381680,-1.1444225,3.7349355,2.1188576,-200.9923706,-117.2595444,-250.1374054
6390,3.7229645,1.3000449,9.2798786,-0.0458015,-1.2366412,1.3206106,-3.0310438,3.4260850,3.7660601,-194.1068726,-97.3206100,-250.1374054
6400,3.5505829,1.3718705,9.3612804,0.8167939,-1.8778626,0.7251908,-5.6407104,3.3207407,5.2863703,-179.5343475,-62.6717567,-250.1374054
6410,3.6056492,1.2976507,9.3229742,1.3053435,-2.9389312,1.8854961,-8.9375095,3.7085996,6.9670911,-157.0458069,-4.1374044,-233.2900696
6420,3.5960727,1.3503228,9.2655134,1.5725191,-3.3206108,2.4351146,-12.5527353,4.5058646,8.5281029,-126.5190811,66.0763321,-185.5954132
6430,3.6248028,1.4724265,9.2272062,1.2824427,-3.9160306,2.7709923,-16.1368370,5.3390427,9.7563219,-91.7633591,122.9923630,-128.8320618
6440,3.7014170,1.5083394,9.2176294,1.3893130,-4.0687022,2.8320611,-19.1152077,6.1147599,10.4123297,-57.7022896,149.7022858,-67.1450348
6450,3.8330972,1.6328372,9.1481981,0.7404580,-3.4503818,2.8167939,-19.6131992,6.5289545,10.4266949,-29.0916023,144.2595367,-2.5267177
6460,3.8690102,1.7908537,9.1601686,0.2366412,-2.2061069,2.9770992,-19.2899837,6.3278427,10.4937325,-6.3511453,121.5954208,57.1145020
6470,3.9863255,1.8554969,9.1625633,-0.3129771,-1.4274809,1.7862595,-16.9532547,5.8274570,10.8839855,17.4885502,103.3587799,104.8320618
6480,3.9552009,1.7980363,9.1242561,-0.7175573,-0.7404580,0.2442748,-13.6109667,5.3486195,11.0779142,43.2442741,96.0457993,136.1450348
6490,3.7900019,1.1994889,9.3014259,-3.0305343,0.4809160,-0.8091603,-5.6191626,6.5983863,6.5337429,115.4198456,48.0305328,117.1832047
6500,3.7277529,1.2114599,9.2559366,-1.9847329,-0.3358779,-0.9389313,-4.8362627,7.0437055,5.2145448,118.4809189,22.4198475,100.5572510
6510,3.7277529,1.1109039,9.1960821,-0.6030535,-0.9694657,-1.4198474,-4.4005203,7.3405848,4.1994085,119.0992355,-1.5038168,83.3664093
6520,3.7540891,0.9935886,9.1673517,0.0534351,-1.5877863,-0.5038168,-4.1802549,7.6877422,3.1196289,120.1832047,-27.1145039,67.9847336
6530,3.8307030,1.0031654,9.1697454,-0.4961832,-1.3282443,0.8473282,-4.2520804,7.9295554,2.1787124,121.3893127,-45.1832047,55.9465637
6540,3.8905578,1.1923064,9.2870607,-0.2213740,-1.3969465,1.8091604,-4.5250182,8.1953106,1.2425843,121.7480927,-49.3664131,51.2671738
6550,4.0294209,1.3575054,9.0931320,-0.7099237,1.1755725,0.9694657,-5.2001796,8.2360115,-0.9337339,115.9465637,-38.8473282,60.7328262
6560,3.9767487,1.4604555,8.9829988,-1.2519084,1.9160305,-0.1374046,-5.2935529,8.3844519,-1.9584470,109.5877838,-33.0152664,69.8931274
6570,3.8522508,1.4365137,9.1194677,-1.9847329,3.3511450,-0.1450382,-5.4635406,8.2455883,-2.0230901,102.6946564,-30.4580154,81.9542007
6580,3.7900019,1.5586174,9.2367830,-1.8549619,3.9618320,-0.3129771,-5.3318601,8.4227581,-1.8531027,96.8244247,-23.9694653,96.0076370
6590,3.8857694,1.3670821,9.2248116,-3.0458016,4.3358779,0.7709923,-5.3055239,8.5711985,-1.7549409,94.7251892,-20.3206100,111.3129807
6600,3.8450682,1.4197544,9.2176294,-2.8854961,4.0916033,-0.3664122,-4.8865409,8.5999289,-1.7645177,93.8167953,-21.8320618,128.4809113
6610,3.6966286,1.4293311,9.2248116,-2.1068702,3.4580152,-0.8015267,-4.2377152,8.6118994,-2.6527619,93.6412201,-28.4732819,146.8091583
6620,3.7349355,1.2449785,9.4115591,-1.9618320,2.8625953,-0.3816794,-3.3422885,8.7675219,-3.4955165,90.6259537,-33.8396950,168.0381622
6630,3.6607156,1.2952565,9.2966375,-1.7709924,2.6335878,0.0000000,-2.1882892,8.6262646,-4.2520804,89.4274826,-29.3587780,191.9007568
6640,3.7540891,1.2689204,9.3086090,-1.4885496,1.4885496,0.5267175,-0.3782819,8.2120695,-5.2145448,86.1145020,-18.2442741,216.5801544
6650,3.8354914,1.3239868,9.1936874,-0.6106870,-0.1450382,-0.0839695,5.7053533,6.5457139,-7.2903070,64.7557220,45.1145020,250.1297760
6660,3.7564833,1.2066715,9.1912937,-1.0687023,-0.6641222,-0.1526718,8.0492649,6.1698260,-7.7260494,53.5190849,56.1526718,250.1297760
6670,3.7253587,1.2641320,9.2439651,-0.5877863,-1.2671756,-1.3358779,11.1569233,5.7867560,-7.6877422,42.3511467,54.6259537,250.1297760
6680,3.7109938,1.2330076,9.3110027,-0.4885496,-0.8931298,-0.5954198,14.4321737,5.4180508,-7.6829538,32.6335869,51.2824440,228.6106873
6690,3.7923961,1.5322813,9.1481981,0.4732825,-0.5725191,0.5572519,19.3067436,6.4164276,-7.3860745,-2.2061069,61.0228996,86.9923630
6700,3.6248028,1.5969244,9.1769285,-0.6564885,-0.1755725,0.4427481,18.4903259,6.3422079,-6.3876977,-36.1374054,20.1221371,-15.8244276
6710,3.6631098,1.6400198,9.2176294,-1.1526718,-0.1908397,-0.2061069,17.1160603,6.1410961,-5.5377603,-45.5267181,5.7175574,-57.2900772
6720,3.6248028,1.4987626,9.3588867,-1.0152671,-0.3282443,-0.2442748,15.5574427,5.9806852,-4.8195033,-49.6412201,6.2824426,-90.6259537
6730,3.5386121,1.4197544,9.1936874,-0.4351145,-0.6412213,0.2137405,13.8479919,5.8178802,-4.4627690,-50.9771004,12.7480917,-116.2748108
6740,3.5170643,1.3598996,9.3493099,-0.4274809,-1.2595420,1.6870229,11.9661589,5.9088597,-3.8905578,-49.8244286,24.7175579,-135.1526642
6750,3.6894460,1.3024391,9.2583303,-0.1221374,-1.8091604,2.1068702,10.5847120,5.7029591,-3.7732425,-47.0076332,36.9236641,-150.3511505
6760,3.7516949,1.2976507,9.3780403,0.7786260,-2.4198472,2.1221373,9.5360565,5.6766233,-3.6176202,-44.4961815,44.0992355,-163.9618378
6770,3.8307030,1.4293311,9.2918491,1.4961832,-2.5725191,1.9312977,8.3269911,5.5952206,-3.5817075,-43.1908379,49.4503822,-177.4274750
6780,3.9097114,1.3575054,9.1625633,0.9083970,-2.2671757,2.0534351,7.6183109,5.6478930,-3.3973548,-43.1068687,56.2824440,-189.3740387
6790,3.9528067,1.4436963,9.1745338,0.0992366,-1.7633588,1.3816794,6.5959921,5.6095858,-3.0214672,-42.5267181,62.3511467,-200.3053436
6800,3.9743545,1.4365137,9.1888990,-0.2519084,-1.6412214,0.4122137,5.6694407,5.5425487,-2.8371146,-40.0228996,69.6717529,-210.6793823
6810,3.9623835,1.3862357,9.1841106,-0.6717557,-1.7862595,-0.5648855,4.4220681,5.5425487,-2.8658447,-37.3511467,71.0687027,-220.0305328
6820,3.7085996,1.3551112,9.2487535,-0.8702290,-1.6641221,-0.0687023,3.3566537,5.7771792,-2.9065459,-36.6259537,69.6106873,-226.9236603
6830,3.7038112,1.3718705,9.2774839,-0.5496183,-1.8549619,0.4656489,2.1356170,5.7412663,-2.9735832,-36.7480927,69.3511429,-233.7022858
6840,3.7373297,1.3239868,9.2990322,0.1450382,-1.9618320,1.0610687,0.7613522,5.8944945,-2.9424589,-37.1603050,72.9389343,-237.7251892
6850,3.7852135,1.3766589,9.2056589,0.0458015,-1.8015267,1.0152671,-0.8116302,6.0980005,-3.0693510,-38.1603050,74.4122162,-238.6183167
6860,3.8019729,1.5131277,9.0979195,0.2213740,-2.0458016,0.9923664,-2.3415172,6.3757267,-3.0190730,-40.6946564,73.0839691,-235.0763397
6870,3.8235207,1.4939742,9.1290445,-0.0229008,-1.4503816,0.8549618,-3.6343796,6.6678176,-2.8323262,-44.4961815,66.0992355,-230.1984711
6880,3.8163381,1.4508789,9.3421268,-0.0381679,-1.7709924,0.5190840,-5.3222833,6.9718795,-2.3079987,-47.4961815,60.0992355,-223.3435059
6890,3.8330972,1.3886299,9.2774839,0.1068702,-1.8396946,-0.0381679,-6.6558466,7.0987716,-1.6136837,-48.8473282,63.0152664,-212.1221313
6900,3.8307030,1.3790531,9.1793222,0.2290076,-2.0305343,0.0839695,-7.8529415,7.3070664,-0.8427547,-48.8015251,67.5572510,-198.8167877
6910,3.7181761,1.3072275,9.1841106,0.0152672,-1.4580153,0.5267175,-9.3062143,7.2543941,0.1939293,-45.6335869,73.5648880,-183.5954132
6920,3.7636659,1.4484847,9.1960821,-0.1450382,-1.4732825,0.8549618,-11.3652172,7.3956513,1.1635761,-39.2519073,82.5419846,-164.1832123
6930,3.7540891,1.4029950,9.1601686,-0.2900763,-1.6488550,0.5954198,-13.6085730,7.5512733,1.4915800,-33.3206100,85.9694672,-138.8473358
6940,3.7421181,1.3215926,9.2726955,-0.1297710,-2.4427481,0.8015267,-14.8224268,7.6111283,1.9464760,-30.5114498,76.0457993,-112.0839691
6950,3.7469065,1.3718705,9.3373384,0.3664122,-2.6641221,0.5877863,-15.6460285,7.6661944,2.7126167,-27.9541988,59.7557259,-86.0763321
6960,3.8019729,1.3598996,9.3469152,1.3282443,-2.2671757,0.7328244,-16.2493629,7.4148049,3.7469065,-21.7786255,43.3206100,-58.6259537
6970,3.8259149,1.3407460,9.1074963,1.0534351,-1.6030535,1.0152671,-16.1128960,7.3932571,4.7548604,-11.3816795,32.7786255,-31.4732819
6980,3.8474624,1.5227045,8.9973640,0.0916031,-0.7404580,1.3740458,-15.5382900,7.2927012,5.6215568,3.4503818,28.5496178,-7.3969464
6990,3.9647777,1.5538290,9.1242561,-1.8320611,0.4732825,0.5496183,-13.7785606,7.0149751,5.6407104,35.1908379,28.6335869,34.5877876
7000,4.0318151,1.4484847,9.2272062,-1.3435115,0.2061069,0.4503817,-12.6101961,6.9239960,5.3869262,49.0992355,25.7633591,48.5496178
7010,3.7684543,1.3503228,9.1194677,-0.2519084,1.0229008,0.2366412,-9.7635050,6.7587967,3.0645626,78.0381699,10.7480917,73.9389343
7020,3.7995787,1.4676381,8.9686337,-1.2213740,1.2137405,1.1145039,-8.9662399,6.8641410,2.3558824,83.2519073,4.5343513,80.2977066
7030,4.0006905,1.4700323,9.1051025,-2.0763359,0.7938932,0.8091603,-8.2815018,6.9192076,1.6328372,86.7633591,-4.9007635,86.2595444
7040,4.0749106,1.3646880,9.2367830,-1.9236641,0.8396947,-0.5496183,-7.1322904,7.0125809,-0.1077385,89.7404556,-26.3740463,96.8396912
7050,3.9360476,1.3311694,9.1218615,-1.3816794,0.9389313,-1.1526718,-6.5433197,6.9982157,-0.5793939,88.7404556,-32.8702278,102.5190811
7060,3.7995787,1.2593436,9.0883436,-1.2900764,0.8015267,-0.7938932,-5.9639258,6.9623032,-1.2186425,87.0839691,-40.4122124,106.6870193
7070,3.7445123,1.3000449,9.1673517,-1.2900764,0.4351145,-0.6564885,-5.3462253,7.0413113,-1.7166338,86.2061081,-54.8244286,108.1755753
7080,3.7038112,1.3168042,9.2511482,-1.1221374,0.1526718,-0.2519084,-4.7261300,7.0317345,-2.3103929,83.6641235,-73.1984711,107.6335907
7090,3.6702924,1.4341195,9.2726955,-0.8320611,-0.0458015,-0.8396947,-4.1491303,7.1658092,-2.5258698,80.4580154,-86.5190811,106.9770966
7100,3.6774750,1.4317253,9.2918491,-0.8396947,-0.3740458,0.5343512,-3.8498566,7.2615767,-2.7437410,78.2137375,-94.1374054,106.7099228
7110,3.7205703,1.4173602,9.1673517,-0.1297710,-1.1145039,0.2137405,-3.4045374,7.4148049,-3.0454090,77.0534363,-101.0152664,107.0916061
7120,3.8283088,1.3527170,9.3493099,0.2519084,-1.3358779,-0.3664122,-3.5481887,7.7116842,-3.5481887,74.6793900,-114.5496216,108.9694672
7130,3.8019729,1.4341195,9.2056589,0.3511450,-1.2137405,-0.3969466,-3.7038112,8.1617918,-4.5585365,69.9007645,-137.7251892,114.4351120
7140,3.8211265,1.3742647,9.1625633,-0.4732825,-1.8091604,0.6030535,-2.6838863,8.2096758,-5.4252334,63.4045792,-164.3129730,117.7480927
7150,3.7684543,1.3862357,9.2319946,-0.6335878,-1.7022901,0.1068702,-1.0893562,7.9798336,-5.5233951,61.1603050,-168.8931274,119.2213745
7160,3.7253587,1.4173602,9.2272062,-0.4580153,-1.5801526,0.7175573,0.4237715,7.9367380,-5.7484488,61.7862587,-151.0915985,119.5725174
7170,3.8330972,1.3694763,9.2774839,0.0610687,-1.6564885,0.9770992,1.1348459,7.8218169,-6.3637557,64.2748108,-125.0763321,118.1984711
7180,3.8714044,1.3814473,9.2200232,0.0839695,-1.4045801,0.7862595,1.6088953,8.4036045,-7.4459291,66.8167953,-103.9770966,118.8396912
7190,3.7995787,1.4580613,9.2248116,0.2671756,-2.4427481,0.5190840,4.7524662,8.9566631,-10.1896706,51.5877876,-41.9618340,139.1755676
7200,3.7277529,1.3527170,9.2679071,0.6259542,-3.2061069,0.5648855,6.4260044,8.9015961,-11.0132713,41.6335869,-24.2519093,146.8702240
7210,3.7756367,1.4029950,9.1793222,0.6870229,-3.9389312,0.7709923,8.4993725,8.6980906,-11.7506819,28.7786255,-10.7557249,149.4274750
7220,3.8785870,1.4724265,9.1697454,2.2824428,-5.1755724,2.3587787,15.4401274,7.4291697,-10.4626083,-21.6641216,30.2595425,70.3282471
7230,4.1730723,1.5322813,8.9662399,0.7480916,-2.6335878,0.6717557,13.1584654,6.4044566,-6.3589673,-55.4809151,14.3587790,-95.0229034
7240,4.1706781,1.5083394,9.1218615,-0.6717557,-1.9160305,0.5954198,11.6525202,6.2727766,-6.0716643,-57.1068687,17.8320618,-119.7938919
7250,4.1251884,1.4724265,9.0644016,-1.0534351,-1.2137405,-0.1145038,10.2806492,5.9974446,-5.8873119,-58.4580154,19.6183205,-140.9694672
7260,4.0796990,1.4580613,9.0596132,-0.8473282,0.2290076,-0.8702290,9.0069408,5.8346395,-5.9088597,-61.7175560,20.9389305,-158.8167877
7270,3.9216824,1.3646880,9.1266499,-1.1068702,0.4122137,-1.0229008,7.7906923,5.8609757,-5.6550756,-65.4503784,26.3893127,-175.0992432
7280,3.7876077,1.4413021,9.2343884,-1.0152671,0.4351145,-0.0916031,6.4451580,5.6359220,-5.3821378,-68.5419846,29.6641216,-189.6106873
7290,3.7923961,1.4628497,9.2200232,-0.7480916,0.0610687,0.5190840,5.2576399,5.7125359,-5.0756817,-70.2824402,33.7633591,-203.9847260
7300,3.8402798,1.4173602,9.1769285,-0.3129771,0.0763359,1.0000000,4.0485744,5.7149301,-5.3725610,-74.0763321,33.7404594,-216.5038147
7310,3.8857694,1.4604555,9.1362267,-0.4961832,0.0381679,1.3206106,2.7581062,5.5640965,-5.2193332,-80.7480927,31.2900772,-228.2290039
7320,3.8618276,1.4867916,9.1529865,-0.7099237,0.4198473,0.8244275,1.6160779,5.3558016,-4.9152708,-87.3129807,32.3587799,-239.6717529
7330,3.8857694,1.4125718,9.1673517,-0.7709923,0.2519084,-0.0763359,-0.0191535,5.0589223,-4.4100971,-93.1450348,34.9236641,-249.2595367
7340,3.9336534,1.4772149,9.1434097,-1.1145039,0.2061069,-0.2519084,-1.9991482,5.0517397,-3.7493007,-97.7862625,41.2900772,-250.1374054
7350,3.9216824,1.5131277,9.2128410,-1.2442749,0.2366412,-0.1984733,-4.4843168,5.3390427,-2.9065459,-100.0763321,47.0839691,-250.1374054
7360,3.7971845,1.4820032,9.2391768,-0.9312977,-0.0610687,0.5801527,-6.6127515,5.5688848,-1.8914096,-100.6412201,44.8854980,-246.1221313
7370,4.0342093,1.4317253,9.1865053,-0.4656489,-1.0305344,0.3053435,-8.1354561,5.5928264,-1.1252691,-101.4961853,36.0610695,-238.1679382
7380,3.9575951,1.4915800,9.2367830,-0.1526718,-0.9236641,0.4656489,-10.7044210,5.5018473,-0.2082945,-101.9007645,25.4809170,-229.0915985
7390,4.0701222,1.4269369,9.1170731,-0.2595420,-0.7099237,-0.2900763,-13.4792862,5.4779053,0.6320660,-100.0763321,19.5877857,-212.2900696
7400,4.0437860,1.4915800,9.0907373,-0.7557252,-0.4274809,-0.4503817,-16.8838234,5.4611464,1.4891858,-94.1755753,26.6641216,-183.4045868
7410,4.0198441,1.5059452,9.0069408,-1.5572519,-0.0534351,-0.4885496,-19.6131992,6.1482787,2.8706331,-83.8931274,57.6564903,-135.0229034
7420,4.0294209,1.5394639,9.0931320,-1.7175573,-0.1297710,-0.8778626,-19.6131992,6.8928714,4.7165532,-71.5648880,88.1450348,-67.3435135
7430,3.9647777,1.3766589,9.3229742,-1.2061069,-0.3511450,-0.9618320,-19.6131992,6.7851329,6.5385313,-56.3816795,98.7709961,2.8091602
7440,3.9839313,1.3670821,9.2224178,-0.8702290,-0.1832061,-0.9389313,-19.6131992,6.4978304,7.8409705,-35.9541969,97.0076370,66.2824402
7450,3.7876077,1.5179161,9.1936874,-0.4045801,-0.4732825,-1.0687023,-19.6131992,5.8322453,8.7268209,-10.9007635,94.1068726,119.9847336
7460,3.8378856,1.3934183,9.1553802,-0.4732825,-0.3816794,-0.2366412,-19.6131992,5.3534074,8.9662399,15.9236641,103.0076370,157.2290039
7470,3.8378856,1.5346755,9.1649570,-0.7251908,-0.4122137,0.3587786,-16.7928448,5.0661049,8.5496502,39.4351158,103.5419846,178.7786255
7480,3.9767487,1.4173602,9.1051025,-0.9236641,-0.7175573,0.2671756,-14.6476507,4.9344244,7.6518297,58.7938919,82.9465637,189.5725250
7490,3.9216824,1.5179161,9.2080526,-0.7404580,-0.3664122,0.1526718,-12.6676559,4.9152708,6.3541789,74.0229034,46.0152664,193.8625946
7500,3.9432299,1.4508789,9.1458035,-0.5572519,-0.4732825,-0.2519084,-10.7690639,4.9487896,4.9487896,83.8778610,12.9847326,195.2213745
7510,3.8905578,1.4963684,9.1841106,-0.5419847,-0.5267175,-0.0763359,-8.7794924,4.9032998,3.5218527,89.7404556,-1.5343511,195.0076294
7520,3.8354914,1.4365137,9.1912937,-0.0381679,-1.7862595,1.1832061,-3.8211265,5.2025738,-0.9528874,101.9236679,-3.0076337,204.5648804
7530,3.8307030,1.4436963,9.1122847,0.9541985,-2.6030533,0.9465649,-2.0446377,5.9471664,-2.6575503,95.3511429,-24.1755733,203.5954132
7540,3.8378856,1.4149660,9.2248116,1.0458015,-3.0610688,1.6641221,-0.5506636,6.0644817,-3.2704628,90.8549652,-37.6793900,200.3129730
7550,3.9264708,1.4341195,9.1481981,-0.4809160,-1.7175573,0.3206107,16.1990852,6.4523406,-9.9574337,-0.7862595,19.4503822,110.8931274
7560,3.9216824,1.4029950,9.1074963,-0.3587786,-1.9847329,1.3053435,17.4009686,6.3278427,-9.3612804,-13.5801525,13.4656487,81.6030502
7570,4.0174499,1.4077834,9.2032642,0.9847328,-3.2671757,0.9770992,19.1846409,5.9399838,-7.8433647,-33.3816795,-8.7404585,7.4427481
7580,4.0701222,1.4915800,9.1242561,0.9770992,-2.7786260,0.7786260,18.5980644,5.8729467,-7.2017217,-39.2366409,-12.0916033,-30.0992374
7590,4.1108232,1.5131277,9.0165176,1.1832061,-1.4274809,0.7938932,17.4512463,5.8274570,-6.3876977,-42.2671738,-9.6259546,-63.7786255
7600,4.1730723,1.6017127,8.9758167,0.1526718,-0.4885496,0.3129771,15.8279867,5.7604198,-5.8633699,-42.8473282,-6.5648856,-92.6488571
7610,4.0413918,1.4939742,8.8872309,-1.4656489,1.0305344,-0.0381679,14.0682573,5.6838059,-5.6167684,-42.4122124,-1.0000000,-118.4045792
7620,3.9959023,1.5753766,9.0931320,-1.8244275,0.9083970,-0.3129771,12.4258432,5.6957769,-5.3988972,-42.1832047,2.7938931,-140.3053436
7630,4.0557570,1.4939742,9.2080526,-1.7938931,0.9465649,0.1374046,10.8648319,5.6335278,-5.5569139,-43.0152664,2.5648854,-158.3053436
7640,3.9384418,1.5035510,9.1122847,0.0152672,0.9083970,0.6412213,8.2000990,5.5281835,-5.5617023,-47.9007645,8.2748089,-190.5648804
7650,4.1180058,1.3958124,9.2655134,-2.1832061,1.8015267,-0.9618320,1.1994889,5.3127065,-4.5752959,-71.6412201,5.4351144,-247.9541931
7660,4.0270267,1.3694763,9.2176294,-1.6564885,1.5190840,-0.8396947,-0.3926471,5.2001796,-4.3574247,-76.3740463,3.3511450,-250.1374054
7670,3.9408360,1.3910241,9.2056589,-1.3358779,1.2137405,-0.6412213,-2.0757623,5.2432747,-4.0437860,-83.4503784,-5.7022901,-250.1374054
7680,3.9025288,1.3982066,9.1314383,-1.1068702,0.8702290,-0.1221374,-3.8666160,5.3438311,-3.4476328,-90.9542007,-9.3893127,-250.1374054
7690,3.8666160,1.3766589,9.1458035,-0.9083970,0.0076336,-0.4656489,-6.5289545,5.5281835,-2.3415172,-96.4732819,-2.5801528,-243.1908417
7700,3.7995787,1.4820032,9.1841106,-1.0381680,0.1221374,0.6793893,-9.4785957,5.8585815,-1.1755470,-96.0687027,13.7404585,-225.1908417
7710,3.9480183,1.4915800,9.1170731,-0.8244275,-0.5648855,0.5725191,-12.8807392,6.3374195,0.4070122,-89.7175598,35.7557259,-197.5648804
7720,3.9719603,1.5442522,9.1912937,-0.3511450,-0.6412213,0.6488550,-16.9939575,7.2232695,2.1667414,-77.4274826,64.8778610,-158.6641235
7730,3.8953462,1.4939742,9.2032642,0.3206107,-1.2671756,0.5343512,-19.6131992,7.9271612,3.2920105,-60.6564903,77.3740463,-107.5343475
7740,3.9360476,1.5250987,9.0763721,0.4580153,-1.2519084,1.0916030,-19.6131992,8.1617918,4.1299767,-41.7099228,73.4274826,-50.5343513
7750,4.0485744,1.4939742,9.0979195,0.1450382,-1.0916030,1.4656489,-19.6131992,8.0444765,4.7835903,-22.7251911,68.7328262,4.9083967
7760,3.9791429,1.3766589,9.1146793,-0.6946565,-0.1526718,-0.4427481,-14.8631277,6.6893654,4.9344244,43.2977104,61.6641235,140.7404633
7770,3.8977404,1.4436963,9.0500364,-0.6870229,-0.5267175,0.0687023,-12.8544035,6.3829093,4.3334827,54.8549614,43.3206100,152.5190887
7780,3.9240766,1.3575054,9.2176294,-0.2824427,-1.0610687,1.0992366,-11.0180597,6.3326311,3.5864959,63.6717567,25.1908398,159.8015289
7790,3.9719603,1.4101776,9.0859489,-0.4427481,-1.3664122,0.0763359,-8.0468712,6.0333576,2.2768741,76.4656525,8.2671757,168.7328186
7800,3.8402798,1.5083394,9.1673517,-0.1068702,-2.0000000,0.0229008,-6.8569584,5.9639258,1.4796091,83.6564865,3.0839694,175.2824402
7810,3.7349355,1.3790531,9.3157911,0.5114504,-2.6946564,0.7633588,-5.9088597,5.8130918,0.4333483,89.8244247,-7.4427481,182.2519073
7820,3.8450682,1.3215926,9.1960821,0.9541985,-4.0000000,1.4274809,-4.7620430,5.9184365,-0.7996593,93.0152664,-17.0381680,189.4274750
7830,3.8690102,1.3910241,9.2655134,1.9694656,-5.0687022,1.6412214,-3.7085996,5.8681583,-2.0015423,92.9618301,-26.9618320,194.8931274
7840,3.9671719,1.4197544,9.2487535,1.8015267,-5.5801525,1.8320611,-2.2553265,5.9447722,-3.1028695,89.9770966,-32.6488533,197.0229034
7850,4.1251884,1.3934183,9.0356712,2.0534351,-5.8625956,1.5190840,-0.8379663,5.8370337,-4.0389977,84.9694672,-35.4961815,196.5725250
7860,3.9168940,1.4077834,9.0763721,3.0687022,-10.8091602,2.1221373,4.4675574,6.3661499,-8.3389616,35.1374054,-73.4809189,195.4961853
7870,4.2089849,1.4341195,8.9638453,-2.8244274,4.1603055,-0.9160305,17.6763000,4.7428894,-5.9280128,-86.8549652,-85.0152664,-208.9923706
7880,4.1084290,1.3742647,9.0476418,-2.7328243,3.8244274,-0.6259542,15.1312771,4.4124913,-4.3215117,-88.0457993,-93.6488571,-232.1297760
7890,4.0605454,1.4484847,9.0117292,-2.8396947,3.4122138,-0.5877863,12.5575237,4.5705075,-3.5146701,-81.5190811,-73.4503784,-241.1450348
7900,4.0677280,1.3982066,9.1170731,-2.6641221,2.5419848,0.2061069,10.0603838,4.6830344,-3.2369442,-71.5648880,-43.8931313,-243.5648804
7910,4.0366035,1.4939742,9.1362267,-2.0000000,1.4885496,0.1832061,8.2360115,4.6638808,-3.4141142,-62.1755714,-19.7251911,-243.8091583
7920,4.0102673,1.4341195,9.2798786,-0.5801527,0.1984733,0.3053435,6.5816269,4.8697815,-3.8067613,-57.2366409,-5.4045801,-244.8091583
7930,4.1060348,1.4484847,9.1003141,-0.3053435,-1.0458015,0.7862595,5.3605900,4.8649931,-4.2472920,-56.5801544,-2.3511450,-246.6183167
7940,4.0126615,1.4987626,9.0859489,-0.0305344,-1.4274809,0.0076336,4.2018023,4.7907729,-4.6686692,-59.0152664,-5.8167939,-250.1374054
7950,3.9456241,1.4796091,9.1194677,0.4580153,-2.5190840,0.0076336,3.0669568,4.8530221,-4.7668314,-64.0076370,-14.7251911,-250.1374054
7960,4.0102673,1.4963684,9.0380650,0.0152672,-3.3893130,1.0076336,2.3199697,4.7979555,-4.9942794,-69.5267181,-22.4885502,-250.1374054
7970,4.1419477,1.4748207,9.0931320,0.9465649,-4.1603055,1.2595420,1.1085097,4.6471219,-5.0158267,-76.3664093,-28.8396950,-250.1374054
7980,4.1634955,1.5370697,9.1122847,1.7328244,-5.2137403,1.0763359,-0.1580165,4.7021880,-4.7835903,-85.4122162,-37.3664131,-250.1374054
7990,4.2329268,1.5179161,9.0811605,1.9465649,-5.2595420,0.8244275,-1.5322813,4.7069764,-4.0222383,-95.1908417,-51.3664131,-250.1374054
8000,4.2185616,1.5250987,9.0428534,1.4274809,-4.8015265,0.8473282,-2.4061604,4.5298066,-3.0573800,-103.4351120,-68.2977066,-250.1374054
8010,4.2329268,1.5298871,9.0021524,1.3587786,-4.4122138,1.0916030,-3.6511390,4.3454537,-1.9943599,-108.0687027,-80.4198456,-250.1374054
8020,4.2832050,1.5490406,8.9422979,0.8854962,-3.7938931,0.9160305,-5.4036856,4.1922259,-1.0989330,-108.2977066,-83.0992355,-250.1374054
8030,4.2640514,1.5131277,8.9710283,0.2061069,-3.2824428,0.9083970,-7.8361821,4.2544746,-0.1699875,-106.6564865,-75.7938919,-250.1374054
8040,4.2712340,1.5753766,9.0165176,-0.3435115,-2.1068702,0.9160305,-10.4769726,4.3693957,0.7996593,-105.1068726,-75.8549652,-250.1374054
8050,4.2808108,1.5705882,8.9662399,-0.2900763,-1.8625954,0.4122137,-12.0738974,4.2951760,1.7405758,-102.7938919,-89.0076370,-242.0686951
8060,4.2089849,1.4939742,9.1338329,-0.0916031,-2.1221373,0.0839695,-14.2693691,3.9647777,2.1595588,-97.3435135,-96.5725174,-219.6412201
8070,4.0988522,1.5346755,9.0236998,-0.1603053,-1.7862595,0.1145038,-17.6571465,4.3646073,2.8730273,-88.8549652,-66.9083939,-180.6183167
8080,4.0509686,1.5011568,9.0572186,-0.0763359,-1.8091604,0.5572519,-19.6131992,4.6782460,4.0677280,-78.7022934,-9.5190840,-121.1603088
8090,4.0868812,1.5586174,9.0356712,-0.0305344,-2.5954199,1.0229008,-19.6131992,5.2336984,5.5976148,-63.4427490,49.3969460,-48.0534363
8100,4.2496862,1.6352314,9.0093346,1.5190840,-3.5725191,1.2061069,-19.6131992,4.6112089,8.4419117,3.0763359,98.0534363,134.8396912
8110,4.2688398,1.5466464,8.9566631,-0.1526718,-3.2519083,1.0381680,-11.9206696,5.4898763,5.7077475,84.5801544,47.0687027,218.8320618
8120,4.4292507,1.6328372,8.8992023,-1.9160305,0.9694657,-0.2137405,-2.0278785,5.0661049,-6.5648675,91.2519073,70.7862625,250.1297760
8130,4.3286943,1.6711442,9.0715837,-1.9236641,0.9236641,-0.5496183,-0.3806761,4.8075323,-8.5735922,65.1297684,89.3893127,250.1297760
8140,4.3095412,1.5562232,9.0308828,-1.2519084,0.0763359,0.1374046,2.9113343,4.3837609,-9.6437950,-5.1984735,46.3053436,250.1297760
8150,4.1156116,1.5849534,9.1721401,-0.1984733,-0.0152672,0.3893130,6.0070214,3.8139439,-7.9918046,-27.2061062,-5.6488547,250.1297760
8160,4.2209558,1.5155219,9.0332766,-0.0229008,-0.3740458,0.6641222,9.3421268,3.2417326,-6.7061248,-38.8702278,-44.9618340,250.1297760
8170,4.2329268,1.4748207,8.9662399,-0.6259542,-0.6335878,1.2519084,12.9310169,2.7892308,-5.5353661,-41.3511467,-57.1297722,250.1297760
8180,4.3741841,1.5586174,8.9829988,-0.9007633,-1.0381680,1.1832061,15.6149035,2.9783716,-4.6830344,-37.1145020,-44.4427490,250.1297760
8190,4.2975702,1.6352314,8.9758167,-0.9847328,-1.1832061,1.1984733,17.7624912,3.4811516,-3.7493007,-27.2671757,-19.7328243,223.7938995
8200,4.3933377,1.5777708,9.0404596,-0.5038168,-1.2748091,0.6183206,19.6126022,3.7923961,-3.4021432,-17.9618320,4.7404580,177.8015289
8210,4.3765783,1.5059452,8.9949694,-0.4122137,-1.1603054,0.7404580,19.6126022,4.1946201,-3.4739690,-8.9541988,21.6793900,122.1374054
8220,4.4148855,1.5346755,9.0572186,-0.2213740,-1.1450381,-0.0076336,19.6126022,4.6519103,-4.1754665,-5.9847326,27.0916023,57.9618340
8230,4.3909435,1.6160779,9.0236998,-0.7786260,0.0992366,-0.0687023,19.6126022,4.9104824,-5.2696109,-14.5038166,12.3816795,-13.4351149
8240,4.3598189,1.4867916,8.9327211,-1.1297710,0.4351145,-0.0839695,19.6126022,5.2648225,-5.6909885,-28.3511448,-10.8396950,-78.7557220
8250,4.2760224,1.5610116,8.9734221,-1.3893130,0.1145038,0.1374046,19.6126022,5.0708933,-5.8801293,-43.2061081,-35.0228996,-135.7633514
8260,4.4292507,1.4700323,9.0691900,-1.3511450,0.0229008,-0.6870229,18.1695042,4.8913293,-5.1929970,-55.4122124,-60.1068687,-185.1068726
8270,4.2832050,1.4556671,9.1122847,-0.8702290,0.1374046,-0.8396947,15.7896795,4.5729017,-4.8051381,-62.6412201,-70.0229034,-224.6870270
8280,4.1467361,1.5322813,8.9901810,-0.4045801,-0.1832061,-0.2061069,13.5942078,4.5824785,-4.4220681,-67.4122162,-67.2442780,-250.1374054
8290,4.2089849,1.5274929,9.0045462,-0.5419847,-0.4045801,0.3206107,11.3891592,4.3861551,-4.2209558,-70.7557220,-60.4732819,-250.1374054
8300,4.2113791,1.5634058,9.0476418,-0.4580153,-0.4351145,0.7175573,9.3205795,4.2999644,-4.0485744,-73.6641235,-55.7404594,-250.1374054
8310,4.2065907,1.6376256,9.0524302,-0.8091603,-0.9160305,0.6870229,7.6470413,4.2233500,-3.7804251,-77.6870193,-57.4351158,-250.1374054
8320,4.3071470,1.4963684,9.1290445,-0.2137405,-1.2977099,1.1450381,6.0309634,4.0581512,-3.6822634,-83.1832047,-61.7022896,-250.1374054
8330,4.3430595,1.5298871,8.9399033,0.3664122,-1.3511450,0.7328244,4.4196739,3.8977404,-3.3686244,-90.2290039,-69.2366409,-250.1374054
8340,4.2568688,1.5538290,9.0069408,0.3893130,-1.0763359,0.2137405,2.8658447,3.6128318,-3.0262554,-97.7633591,-79.7938919,-250.1374054
8350,4.2712340,1.5322813,8.9279327,-0.1755725,-1.7709924,0.8778626,1.6591733,3.1746953,-2.6575503,-105.0229034,-89.5496216,-250.1374054
8360,4.2927818,1.5705882,8.9710283,-0.4656489,-1.7938931,0.7175573,0.2561783,3.0669568,-1.9943599,-113.4045792,-97.5038147,-250.1374054
8370,4.2496862,1.4748207,9.0811605,0.2977099,-2.8244274,0.8854962,-1.7070571,3.1818779,-1.1851238,-123.6564865,-114.5725174,-250.1374054
8380,4.2113791,1.4987626,9.1218615,1.1297710,-3.5801528,1.2366412,-3.7684543,3.0956869,-0.0119709,-133.0458069,-138.5343475,-250.1374054
8390,4.2257442,1.4724265,9.1386213,1.8320611,-4.3587785,1.7633588,-5.9184365,3.3039815,1.6879035,-135.9389343,-152.5496216,-250.1374054
8400,4.2832050,1.5394639,8.9590569,2.2671757,-5.3587785,1.5954199,-7.2711535,3.5026991,2.9424589,-133.0763397,-153.9007568,-250.1374054
8410,4.2760224,1.5897418,8.9470863,2.0000000,-6.2977099,1.5725191,-7.4842362,3.5505829,3.7900019,-127.7480927,-160.7862549,-250.1374054
8420,4.2879934,1.4532729,9.1505919,1.8320611,-3.8244274,1.7251909,-7.5752153,3.2824337,4.4603748,-121.8396912,-175.0839691,-250.1374054
8430,4.0964580,1.5705882,9.0165176,1.7709924,-6.8396945,2.5801528,-8.0492649,3.1363883,4.8625989,-114.3206100,-177.9007568,-250.1374054
8440,4.3885493,1.5729824,9.0213060,3.1832061,-10.2290077,2.5725191,-8.7651272,2.6360025,4.9344244,-106.5496216,-166.0534363,-250.1374054
8450,4.2975702,1.6543850,9.0213060,4.1221375,-7.8473282,2.2442749,-13.2374735,2.5881188,4.7165532,-95.5496216,-104.6412201,-248.8778687
8460,4.3957319,1.7286048,8.8776541,4.1221375,-9.9694653,2.9236641,-19.6131992,3.9432299,6.0692701,-78.5877838,5.8091602,-179.6793823
8470,4.5274124,1.5897418,8.8704720,3.7022901,-5.8244276,2.0839694,-19.6131992,4.7189474,7.6470413,-54.5038185,107.0152664,-80.7480927
8480,4.4292507,1.7525467,8.8058290,2.6641221,-7.0076337,2.4503818,-19.6131992,5.3127065,8.5209198,-26.2366409,150.9389343,19.9618320
8490,4.7141590,1.7812769,8.7651272,1.4274809,-4.9694657,1.5725191,-19.6131992,3.6343796,8.8441362,29.9923668,138.5190887,153.2442780
8500,4.7309184,1.6639616,8.8058290,1.0458015,-3.4122138,1.0305344,-18.8111458,3.4907281,8.5544386,50.4427490,138.4122162,181.7404633
8510,4.6950054,1.6328372,8.7818871,0.2061069,-1.6793894,0.6641222,-16.8862190,3.7038112,8.2551651,67.1832047,132.6259613,201.1755676
8520,4.5513539,1.6950861,8.8489246,-0.6183206,-1.0839695,0.6259542,-15.6603928,3.8091555,8.0013809,81.8702316,113.4580154,215.2595367
8530,4.6782460,1.5825592,8.8800488,-0.6106870,-0.1221374,0.3969466,-13.9868546,3.9504125,7.1275020,94.9465637,91.0839691,226.2900696
8540,4.5776901,1.6519908,8.8704720,-0.6717557,0.8015267,0.2061069,-12.5886478,3.9935081,6.4331870,105.0457993,83.0534363,237.3435059
8550,4.5465660,1.6256547,8.8201942,-0.7862595,1.4809160,0.2519084,-11.5830889,3.9982965,5.5138183,113.6030502,85.1679382,247.4198456
8560,4.5369892,1.6711442,8.8297710,-0.9236641,2.4809160,0.4427481,-10.6302013,3.9264708,4.4100971,119.5572510,85.3435135,250.1297760
8570,4.4555864,1.6472024,8.9662399,-3.0687022,4.1832061,-0.6183206,-6.7300668,4.6064205,1.7717001,128.0229034,60.6488533,250.1297760
8580,4.3837609,1.5921360,9.1314383,-2.5190840,3.5496182,-0.2061069,-5.7125359,4.6495161,1.0725969,129.3053436,55.0228996,250.1297760
8590,4.2808108,1.5131277,9.1146793,-1.4503816,2.2366412,0.1679389,-4.3670015,4.6327567,-0.2106887,130.0610657,49.0992355,250.1297760
8600,4.2927818,1.4820032,9.0141230,-1.1984733,1.2748091,0.4503817,-2.8730273,4.6231799,-1.8124014,128.4732819,33.2900772,250.1297760
8610,4.3263001,1.5107336,9.0332766,-0.5648855,0.6641222,0.8625954,-1.4053892,4.6040263,-2.5809362,124.8549652,22.5343513,250.1297760
8620,4.4292507,1.5897418,8.9470863,-0.6335878,0.0610687,1.0000000,0.1795642,4.3478479,-3.9767487,119.2442780,3.4503818,250.1297760
8630,4.5322008,1.5945302,8.9063845,-0.7862595,-0.0839695,0.9007633,1.9823889,4.0437860,-4.5681133,114.1526718,-27.7938938,250.1297760
8640,4.5585365,1.5562232,8.9375095,-1.1450381,-0.2595420,0.4580153,4.2879934,3.8115497,-5.3773494,110.3893127,-49.0687027,250.1297760
8650,4.4723458,1.5394639,8.9063845,-0.9770992,-0.5190840,0.1755725,6.7276726,3.3087699,-6.5888095,104.6564865,-58.8244286,250.1297760
8660,4.4220681,1.4891858,8.9470863,-0.7633588,-0.7175573,0.0763359,8.9590569,3.2010312,-7.8481531,94.5343475,-59.5343513,250.1297760
8670,4.4196739,1.4963684,8.8968077,-0.6488550,-0.9847328,0.0687023,11.1473465,3.4428444,-8.6430235,82.5419846,-47.4885483,250.1297760
8680,4.2903876,1.4652439,8.9351149,-0.6106870,-1.3358779,0.7633588,13.4122496,3.3494711,-9.2750902,68.9542007,-23.4503822,250.1297760
8690,4.1778607,1.6687500,8.8393478,-0.9847328,-0.8167939,2.0687022,15.5789909,3.7493007,-9.4187412,54.5877876,-2.6946564,230.3740387
8700,4.6327567,1.6974803,8.8465300,0.0381679,0.2824427,0.2671756,19.6126022,5.1020179,-8.9303265,5.0152674,8.1679392,29.9618320
8710,4.4986820,1.6615674,8.7363977,-1.0992366,0.4580153,-0.5114504,19.6126022,5.3677726,-9.2870607,-12.5419846,-10.9312973,-29.7328243
8720,4.5561423,1.6232605,8.8417416,-1.7099236,0.9007633,-0.9236641,19.6126022,5.3988972,-9.2990322,-32.7099228,-32.7862587,-82.9847336
8730,4.4531922,1.5514348,8.9446917,-1.7557251,1.1908396,-0.4580153,18.0426121,5.3797436,-8.6214762,-51.9923668,-45.5648842,-126.4122162
8740,4.3837609,1.4915800,8.9997578,-1.6183206,0.4274809,-0.0305344,16.1224709,5.0804701,-7.5656385,-66.1145020,-53.9007645,-162.4274750
8750,4.3981261,1.5705882,9.0883436,-0.9541985,-0.1221374,0.5648855,14.5159702,4.8506279,-6.4810710,-73.7786255,-52.3893127,-191.4045868
8760,4.3837609,1.5873476,8.9590569,-0.4580153,-0.4580153,0.1297710,12.7155399,4.7740140,-6.0357518,-77.6793900,-42.6717567,-213.9389343
8770,4.3478479,1.5993185,8.9446917,-0.4885496,-0.4809160,0.3053435,10.8887739,4.6782460,-5.7245069,-80.8931274,-32.8396950,-232.9618378
8780,4.3382711,1.5538290,8.9375095,-0.5877863,-0.7099237,0.6946565,9.5695753,4.6614871,-5.4802995,-85.5190811,-26.2366409,-250.1374054
8790,4.3646073,1.6065011,8.8968077,-0.8778626,-0.3282443,0.7633588,8.3796635,4.4531922,-5.2600341,-90.9694672,-23.7709923,-250.1374054
8800,4.3382711,1.6519908,9.0691900,0.0152672,-0.9312977,0.0992366,7.4459291,4.3382711,-4.9463954,-96.8625946,-23.9007626,-250.1374054
8810,4.4029145,1.6136837,9.0859489,0.8778626,-2.0458016,0.7251908,6.4020624,3.9695661,-4.7716198,-104.0152664,-26.2748089,-250.1374054
8820,4.3741841,1.5562232,9.0548248,1.9389313,-2.3740458,1.4961832,5.2169390,3.4859397,-4.7931671,-114.2900772,-36.9923668,-250.1374054
8830,4.4124913,1.6136837,8.8417416,1.6488550,-3.5267177,1.5267175,4.1012464,2.9568241,-4.3478479,-126.5190811,-52.0228996,-250.1374054
8840,4.5250182,1.5897418,8.8896255,0.8702290,-4.7404580,1.2671756,2.4277081,2.2864509,-3.7014170,-138.9084015,-69.8167953,-250.1374054
8850,4.4747400,1.6208663,8.9279327,0.5725191,-3.8702290,1.0305344,0.5482694,2.0015423,-2.7030399,-152.6030579,-98.1755753,-250.1374054
8860,4.4100971,1.5586174,8.9303265,0.8396947,-3.9083970,0.8854962,-1.3982066,1.6831152,-1.5945302,-168.5648804,-138.8702240,-250.1374054
8870,4.5058646,1.5466464,8.9566631,1.2137405,-4.2213740,0.9770992,-3.2297616,1.3215926,0.3710994,-185.3435059,-181.0381622,-250.1374054
8880,4.5824785,1.6424140,8.9087791,1.0610687,-4.0458016,0.8015267,-4.6447277,0.6009415,2.6599445,-194.8625946,-209.4427490,-250.1374054
8890,4.4603748,1.6831152,8.9303265,1.1603054,-4.5572519,1.0687023,-6.0764527,-0.1316804,4.9344244,-193.3358765,-212.2824402,-250.1374054
8900,4.5274124,1.6376256,8.8968077,1.0687023,-4.7022901,1.1755725,-8.5783806,-0.7014975,6.8785062,-180.5801544,-185.9465637,-250.1374054
8910,4.5106530,1.6615674,8.8704720,0.7633588,-3.6030533,1.2061069,-12.9908724,-0.6631905,8.5352850,-159.3587799,-132.9465637,-250.1374054
8920,4.6088147,1.6591733,8.8992023,0.3587786,-2.9160306,1.1450381,-19.1726685,0.5937590,10.1346035,-130.9084015,-69.3206100,-250.1374054
8930,4.6207857,1.6376256,8.8369532,0.3358779,-2.0229008,0.7022901,-19.6131992,2.6910689,11.8201132,-100.6183243,-27.1679382,-229.4503784
