timestamp,rxacclX,rxacclY,rxacclZ,rxgyroX,rxgyroY,rxgyroZ,txacclX,txacclY,txacclZ,txgyroX,txgyroY,txgyroZ
0,4.3813667,7.4148049,5.8968887,8.3435116,-39.4122124,-5.9007635,-3.8091555,5.8921003,4.1826491,49.2748108,9.0534353,7.8778625
10,4.4747400,7.4602942,5.7316895,8.3129768,-37.8854980,-7.7251906,-3.3183465,5.8154860,4.4124913,34.0916023,-5.5648856,9.1526718
20,4.5274124,7.3334022,5.5808558,5.5725193,-34.0305328,-10.8091602,-2.3894010,5.4539638,4.9320302,12.9465647,-35.2595406,0.0610687
30,4.5393834,7.3477674,5.7628140,5.2671757,-33.0000000,-12.2213745,-2.2242019,5.5712790,5.4994531,10.0305347,-36.0305328,-3.3129771
40,4.4723458,7.2879128,5.9304070,5.8549619,-31.2977104,-13.7480917,-2.3391230,5.5593081,5.4850879,9.4351149,-35.3816795,-5.0381680
50,4.4100971,7.2687593,5.6311336,6.3664122,-27.4732819,-15.0381680,-2.4660151,5.6550756,5.2935529,8.7480917,-33.2137413,-6.2748094
60,4.1658897,7.2352405,5.6478930,6.4732823,-25.1603050,-15.7786255,-2.5833304,5.6502872,5.1834202,6.7786260,-31.5801525,-6.4656487
70,3.9863255,7.2136927,5.4802995,6.8015265,-22.6793900,-15.7709923,-2.7485294,5.5569139,5.1403246,4.0687022,-28.5496178,-7.0763359
80,3.8139439,7.2496057,5.3246775,7.1679387,-21.3435116,-14.9389315,-2.8897867,5.5928264,5.2121506,2.4198472,-22.2442741,-6.6335878
90,3.7253587,7.3501616,5.2289100,7.3740458,-21.2671757,-13.6793890,-2.9352763,5.5617023,5.4036856,1.9312977,-15.1450386,-4.8625956
100,3.7756367,7.4602942,5.0684991,7.6183205,-22.5267181,-13.0534353,-3.0669568,5.6670465,5.6766233,1.2748091,-10.0534353,-3.7862597
110,3.6774750,8.1761570,4.6758518,0.0152672,-19.5343513,-19.3816795,-3.6128318,6.2033448,5.9328012,-4.9770994,-6.9389315,-13.7480917
120,3.5170643,8.3652983,4.8625989,-5.4274807,-13.8854961,-21.1526718,-3.9216824,6.4523406,5.9878678,-12.0076332,-15.1603050,-18.9160309
130,3.7253587,7.1179252,6.7324610,9.6488552,-8.3664122,-21.9312973,-4.9009056,7.0173693,7.6661944,27.9694653,6.6412215,3.3969467
140,4.0150557,6.9838505,6.5816269,12.7175570,-7.7175574,-19.4732819,-4.7452836,7.0077925,7.8361821,29.6488552,6.9923663,4.5725193
150,4.1970143,6.7947097,6.2608056,15.5419846,-8.5267172,-16.9618320,-4.4603748,6.8761120,7.5632443,32.4122124,6.0152674,5.3969464
160,4.4436154,6.6055689,6.1099715,17.6793900,-8.7251911,-14.5496187,-4.2736282,6.6917596,7.5321202,34.2519073,5.8396945,6.4809160
170,4.7452836,6.6702118,5.9974446,20.0076332,-9.8396950,-13.0152674,-4.0174499,6.4499464,7.5393028,36.3816795,5.6641221,7.0381680
180,4.9559722,6.8425937,5.7891502,22.6259537,-9.1450386,-13.4732828,-3.7876077,6.3733325,7.6063399,40.3740463,7.9465647,7.2061067
190,4.8937230,7.0628591,5.3486195,25.1832066,-3.5877862,-14.9618320,-3.5146701,5.9735026,7.7332320,46.3358765,7.6870227,7.6793895
200,4.5585365,7.4315639,4.8218975,25.8625946,4.7862597,-16.3816795,-3.0837159,5.9375896,7.4962072,53.1374054,7.9083967,5.0000000
210,1.8985922,8.6573887,4.7093706,19.2442741,1.3740458,-18.5572510,-3.5912843,6.3446021,4.4196739,44.6946564,61.5267181,7.8091602
220,2.6479735,9.5695753,6.1123657,43.0228996,-14.1984730,-15.4961834,-3.4739690,6.6079631,5.0421629,37.0687027,52.5954208,9.3664122
230,3.4500270,10.1441803,6.1315193,54.7175560,-12.3587790,-19.7709923,-3.4428444,6.7013364,4.8458395,35.1374054,46.9847336,7.5572519
240,3.5242469,10.8720140,5.6167684,60.9847336,-5.1297708,-25.8091602,-3.6248028,6.9862447,4.4053087,30.6030540,37.5114517,5.1908398
250,3.4524212,11.5615406,4.7333126,53.5496178,14.5801525,-36.6717567,-3.7157819,7.2663651,3.9025288,12.8396950,13.5038166,-0.5190840
260,2.6288199,12.5814657,5.4204450,44.1603050,25.1603050,-41.3740463,-3.7612717,7.2950954,4.0342093,-6.2519083,1.4427481,-6.9083967
270,2.4708035,12.8017311,6.0213866,44.8549614,25.1603050,-41.5267181,-3.9001346,7.3094602,4.4771342,-14.1297712,-1.9618320,-9.5801525
280,2.7844424,12.7514534,6.4810710,50.3053436,20.7404575,-42.6335869,-4.0222383,7.3310080,5.0445571,-18.9618320,-2.9236641,-10.3206110
290,2.7437410,12.4713326,6.6845770,59.2290077,15.5496187,-44.0228996,-4.4244623,7.1849627,5.7460546,-20.0305347,0.4274809,-9.8702288
300,2.5043221,12.3540173,6.5193777,69.8167953,10.2519083,-43.9541969,-4.6399393,7.1993275,6.4283986,-16.5419846,5.4961834,-7.8625956
310,2.4277081,12.0715036,6.1027889,78.1908417,4.5343513,-44.1908379,-4.7931671,7.1370788,6.8689294,-10.7099237,9.9847326,-4.8396945
320,2.2696917,11.6764622,5.7532372,84.9236679,0.2595420,-44.2366409,-4.8817525,7.1514440,6.9886389,-5.2824426,11.9541988,-3.5343511
330,2.1715298,11.1305866,5.4012914,90.5725174,-4.0152674,-44.2366409,-5.0014620,7.1729918,7.2160869,-0.4045801,12.8244276,-2.5648854
340,2.1188576,10.6493549,5.0182209,95.0152664,-7.5496182,-43.6488533,-5.1044121,7.2184811,7.0724359,3.1603053,12.0687027,-2.5038168
350,2.1116750,10.1705170,4.5489597,98.1450348,-10.3282442,-43.0687027,-5.1331420,7.2472115,7.0149751,5.2595420,9.9007635,-2.5267177
360,2.3247581,9.5264797,4.1299767,100.1145020,-12.7099237,-44.1526718,-5.1211715,7.2687593,6.9742737,5.7404580,6.1450381,-3.3206108
370,2.4372849,8.1929159,3.2704628,97.0763321,-13.9618320,-51.0763359,-5.1283536,7.3405848,6.7755561,5.1450381,-4.1984735,-3.8244274
380,2.1427996,7.3717093,2.8227494,93.8625946,-15.3740454,-54.6717567,-5.0254035,7.2998838,6.7755561,5.3435116,-8.4274807,-4.3893127
390,1.5274929,6.4212160,2.7557120,91.3129807,-19.0458012,-56.2061081,-4.7668314,7.3621325,6.6055689,6.4198475,-11.3893127,-3.7022901
400,1.0007712,5.5688848,2.5713594,90.4122162,-24.4580154,-55.0687027,-4.7692256,7.2639709,6.4954362,7.4122138,-12.9312973,-3.7480917
410,0.5434810,4.9176650,2.2050486,89.6183243,-29.2671757,-52.0992355,-4.5537481,7.3381906,6.1363077,8.8320608,-13.2290077,-2.5648854
420,0.2418131,4.4891052,1.7621235,87.3435135,-32.9771004,-46.6793900,-4.3861551,7.2950954,5.8585815,9.7251911,-12.1679392,-2.4045801
430,0.0335187,3.9815371,1.2593436,83.3282471,-36.0000000,-39.5801544,-4.3526363,7.3836803,5.4467812,9.7938929,-9.4274807,-1.0763359
440,0.5482694,3.4859397,1.0630201,66.3435135,-36.0381660,-21.1908398,-4.1730723,7.2615767,5.1475072,9.9312973,2.3053436,4.8396945
450,0.4979914,3.2728570,0.2681492,57.7251892,-24.0381680,-16.4885502,-3.8235207,7.2855186,4.9511838,9.2748089,7.4427481,6.1450381
460,1.3239868,2.7820482,0.2873027,51.1450386,-19.1679382,-16.4503822,-3.7205703,7.1753860,4.8147149,6.7557254,7.2519083,5.1374044
470,-0.1460456,3.7540891,0.3208214,49.3511467,-7.9465647,-14.0992365,-3.7588775,7.0341287,4.8147149,3.4198472,7.4122138,3.3893130
480,1.0390782,3.5673423,-2.3630650,36.7251892,34.7404594,-11.3969469,-3.8714044,7.0365229,5.0182209,1.3740458,8.8854961,3.1832061
490,-0.0909792,4.3861551,-3.0358322,7.8854961,78.5801544,-2.7786260,-3.9719603,6.8569584,5.2049680,1.0152671,10.2519083,2.2748091
500,-0.3639168,6.5050125,-3.6128318,-46.1297722,125.6717529,19.7709923,-3.9384418,6.7085190,5.4874821,-0.0458015,7.3206105,-1.4885496
510,-0.3280039,8.1570034,-2.6192431,-67.1679382,140.6946564,24.1450386,-3.9695661,6.6678176,5.5617023,-0.8778626,5.0916033,-4.1145039
520,-0.5961532,8.7076674,-1.6663558,-73.4198456,132.3511505,32.0839691,-3.8929520,6.5481081,5.6383162,-1.0381680,4.3740458,-5.7022901
530,-0.0095768,9.4115591,-2.1427996,-73.4503784,91.7480927,33.8473282,-3.9911139,6.4619174,5.8202744,-0.3358779,4.6488547,-7.0992365
540,0.5099624,10.1753054,-1.9536586,-73.1068726,51.7862587,31.6946564,-4.1754665,6.5121951,5.9495606,1.2748091,7.3969464,-7.3053436
550,0.3734936,10.8361015,-1.0127422,-72.4503784,29.0610695,34.2290077,-4.3957319,6.5672617,5.9280128,3.3053436,8.8549614,-6.6793895
560,1.1037214,11.2909975,-0.2035061,-70.3282471,13.2519083,38.0992355,-4.4986820,6.5935979,5.6359220,3.8702290,8.3893127,-5.4122138
570,1.8315549,11.5136566,0.6943150,-65.8625946,4.4427481,39.0381660,-4.2089849,6.5505023,5.5928264,2.7862597,7.3740458,-5.2213740
580,3.4500270,11.9637651,2.0087249,-50.3282433,-16.1450386,29.7022896,-4.0701222,6.4738884,5.6526814,1.5877863,7.7328243,-7.6946564
590,4.2784166,11.7937775,1.9799947,-46.2519073,-22.2061062,21.2519093,-4.1754665,6.5983863,5.8609757,2.9541984,8.5648851,-9.6870232
600,4.4436154,11.6573086,2.0494261,-48.2595406,-21.2595425,12.7022905,-4.3382711,6.7779503,5.7604198,5.0839696,8.7251911,-10.2977095
610,4.1467361,11.1425581,2.7724714,-50.7328262,-17.9694653,8.1908398,-4.4819226,6.8904772,5.6694407,6.8702292,8.7633591,-11.1526718
620,3.9887197,10.6182299,3.6607156,-50.4656487,-18.5343513,7.2519083,-4.5609307,7.0365229,5.3151007,6.4809160,8.6793890,-11.0000000
630,3.9982965,10.3285332,4.4484038,-46.8625946,-21.9770985,7.4732823,-4.6471219,7.0891948,5.0852585,5.5801525,10.0687027,-10.7251911
640,3.9432299,10.0915089,5.1618724,-38.8625946,-26.7709923,7.3587785,-4.8051381,7.0915890,5.0852585,4.7328243,10.6183205,-11.4122133
650,4.0198441,9.8449068,5.3653784,-29.2595425,-29.8625946,5.5038166,-4.8195033,7.1490498,5.2672167,5.0381680,13.8015270,-11.1679392
660,3.7804251,9.8903971,5.0254035,-20.8396950,-30.3435116,1.2519084,-4.7764082,7.3381906,5.3869262,6.6564884,18.6946564,-10.2290077
670,3.3231349,9.8257532,4.5082588,-15.4198475,-28.7404575,-3.5648854,-4.9607606,7.5560617,5.6383162,8.8091602,22.7328243,-8.7786255
680,2.8849983,9.7898407,3.8067613,-13.1221371,-26.0381680,-8.6564884,-5.2935529,7.4722652,5.8083038,12.5801525,22.1603050,-7.4274807
690,2.2409613,9.6892843,3.2920105,-13.2290077,-22.3664131,-13.4503813,-5.3821378,7.6805596,5.3127065,15.3664122,23.0839691,-5.5801525
700,1.5705882,9.5192976,2.9113343,-14.2061071,-18.5725193,-16.7480907,-6.3613615,7.9941988,4.6806402,14.2671757,21.0076332,-2.0458016
710,0.7637464,9.5839405,2.3151813,-16.5648861,-17.6870232,-18.2061062,-7.9175844,8.0109577,4.0294209,3.9923663,2.7862597,10.0916033
720,0.0837966,9.5456333,1.7836711,-20.6641216,-18.9083977,-17.5419846,-8.6238708,7.6135225,4.7093706,-6.0534353,-20.6870232,29.2061062
730,-0.0622489,9.2918491,1.5035510,-26.2519093,-23.0687027,-16.6106873,-6.6151457,8.1761570,6.0429344,-3.3282442,-39.1145020,48.1679382
740,-0.2849085,8.9662399,1.3455344,-33.5267181,-25.4580154,-16.2900772,-4.3334827,8.4059992,5.9567432,8.2748089,-23.1374054,50.4580154
750,-0.1508339,8.6621771,1.8459201,-39.1297722,-25.8320618,-16.1908398,-4.1132174,7.6111283,6.3326311,21.5038166,11.7251911,50.2366409
760,-0.0335187,8.5568333,2.0494261,-41.7328262,-20.4885502,-17.8091602,-4.6758518,6.6534524,6.9359670,35.5954208,32.1145020,50.4732819
770,-0.1628049,8.4993725,2.2313845,-42.1450386,-11.5496187,-18.7099228,-3.5529771,8.4682484,7.3429790,48.2900772,39.3053436,44.3282433
780,-0.3734936,8.5616217,2.3510940,-39.9007645,-3.3969467,-18.4809170,-3.8737986,8.4419117,6.7372489,58.4809151,42.5038185,36.5877876
790,-0.5506636,8.8201942,2.3127871,-36.1374054,3.2366412,-17.8167934,-3.5769191,8.8920193,6.2368636,61.5190849,40.5419846,32.2061081
800,-0.8738791,8.9590569,2.2361729,-32.0228996,4.0992365,-15.7938929,-3.0525916,8.5951405,6.3398137,62.9541969,42.4885483,23.5725193
810,-1.1755470,9.4450769,1.7094513,-30.9770985,-0.6793893,-12.3129768,-2.4013720,8.3581152,7.1873569,71.3053436,48.4580154,13.1450386
820,-1.1563935,9.6222477,1.2521610,-35.9160309,-7.9465647,-7.4427481,-2.0542145,8.3796635,7.7356262,88.1450348,55.7633591,-0.8244275
830,-1.1156923,9.5480280,1.4197544,-44.1526718,-15.8778629,-0.9007633,-2.7006457,8.7459745,7.3238254,104.2748108,58.7786255,-11.3358774
840,-0.9265513,9.5599985,2.1571648,-51.6564903,-23.9770985,7.2900763,-2.9448531,9.2990322,6.0477223,116.1908417,60.6030540,-18.4809170
850,-0.2394189,9.2535419,3.1196289,-57.2061081,-32.7786255,17.5038166,-2.7245877,9.6940727,5.3031297,123.9770966,67.4427490,-25.1221371
860,0.6584021,8.9279327,4.2161674,-59.3511467,-44.7557259,29.0305347,-2.7221935,9.9430685,5.1307478,134.9160309,82.2977066,-33.4580154
870,2.2625091,8.6166878,5.9208307,-54.7557259,-57.0763359,37.4274826,-3.4835455,10.4099360,4.5681133,149.8244324,100.0916061,-39.5419846
880,3.8426740,8.3868456,7.1586266,-41.4885483,-66.1297684,38.9083977,-4.1251884,11.0491848,3.4524212,163.4885559,117.5038147,-39.3511467
890,5.0876527,8.4993725,7.6877422,-22.3740463,-69.4656525,33.7480927,-4.2089849,11.6070309,2.3846128,173.6641235,134.5496216,-35.2824440
900,5.5856438,8.6549950,7.5177550,-4.4656487,-61.5038185,24.8244267,-3.8737986,11.9350348,1.5131277,180.2671814,147.2137451,-30.5725193
910,5.4970589,8.8177996,6.5217719,8.1984730,-45.0610695,16.4809170,-3.0861101,12.1912127,1.0127422,184.2366486,157.3587799,-27.2824421
920,4.8817525,9.0117292,5.2743993,12.9236641,-27.7251911,9.4885492,-2.1978660,12.4785156,0.9002152,188.8854980,162.3664093,-29.3587780
930,4.0940638,9.1194677,4.0054789,12.1908398,-14.4809160,3.8778627,-1.6831152,12.8831339,0.6105183,197.2213745,163.4961853,-33.2671738
940,3.1770895,9.2511482,3.3614421,8.3587790,-6.6946564,-0.7251908,-1.0989330,13.4960461,-0.8212070,203.9770966,157.0992432,-35.3511467
950,2.1930776,9.2655134,3.0190730,6.4351144,-5.4045801,-4.3587785,-0.0598547,13.8719339,-3.0621684,200.2519073,154.0305328,-37.0992355
960,1.2138541,9.2152348,3.2297616,7.9694657,-9.3740454,-5.9541984,1.2018831,13.8815107,-4.3358769,189.2290039,157.2595367,-41.0228996
970,0.4309541,9.0165176,3.2752512,12.6946564,-17.0152664,-4.6106873,2.7365584,13.6516685,-4.7021880,177.5038147,158.5648804,-50.0228996
980,-0.1173153,8.9470863,3.2680686,18.0000000,-24.6335869,-1.1984733,4.2832050,13.2925396,-4.8195033,168.5267181,164.2061005,-65.8549652
990,-0.4644727,9.0308828,3.1339941,23.0839691,-29.7938938,4.9083967,5.3941088,12.8160963,-4.1587071,162.5648804,172.0305328,-87.1450348
1000,-0.4525018,9.3493099,3.0406206,27.1984730,-29.4503822,12.2442751,6.3469963,12.2869806,-2.6000898,164.5267181,180.5801544,-112.5496216
1010,-0.2082945,10.0316534,2.8993635,28.8702297,-25.1374054,18.2519093,6.0429344,11.5902710,-1.6831152,176.5038147,187.3740387,-137.9618378
1020,0.2753318,10.8193426,2.6144550,26.7938938,-16.1145039,21.5725193,5.7508430,10.8911676,-1.5346755,195.1679382,191.9923706,-160.9007568
1030,0.9002152,11.3819771,2.5881188,21.0305347,-1.9389313,21.2213745,5.7532372,9.8401184,-2.1092808,216.9923706,193.2366486,-179.4274750
1040,1.5011568,11.8153248,2.6192431,14.0763359,12.4122133,17.1603050,5.5473371,8.4203644,-3.2465210,238.9694672,188.2137451,-201.3816833
1050,1.8124014,12.2343082,2.8921809,6.1221375,26.2748089,12.3816795,5.0182209,6.7803445,-4.9894910,250.1297760,167.3969421,-228.4656525
1060,2.5234756,12.3181047,3.5912843,1.7099236,34.2824440,6.0916033,3.4356618,5.6862001,-7.2735476,250.1297760,140.3893127,-250.1374054
1070,2.7676830,12.3468351,4.4699516,3.9694657,34.9083977,-1.8320611,-1.0438666,5.5808558,-10.1130562,232.9160309,99.7328262,-250.1374054
1080,2.6767037,12.1960011,4.8530221,11.6335878,28.4198475,-9.2061071,-4.9799142,6.1865854,-14.4848461,175.4274750,60.5877876,-250.1374054
1090,2.5761478,11.9182749,5.0613165,20.8778629,19.2061062,-14.7938929,-7.8649125,5.5186067,-16.4241390,90.7328262,22.7099228,-238.0381622
1100,2.5546002,11.7458935,5.1786318,29.7404575,11.0305347,-18.4274807,-7.9199786,2.9280937,-14.4752693,11.0839691,-2.7022901,-205.0763397
1110,2.6479735,11.3939476,5.2121506,37.9465637,4.8778625,-20.7099228,-7.3908629,-0.7805058,-10.2614956,-40.0305328,1.0076336,-177.0992432
1120,2.4923513,11.2742386,5.1546898,44.9083977,1.3129771,-20.5114498,-7.0173693,-4.2832050,-6.5457139,-59.9465637,35.3053436,-152.5496216
1130,2.6264257,11.4035244,4.7261300,49.8702278,0.6488550,-18.4885502,-6.2201042,-7.5033898,-3.3183465,-54.0381660,74.9923630,-135.3969421
1140,2.6814921,11.7458935,4.3263001,50.9618340,0.6717557,-18.0152664,-6.4595232,-10.4793673,-1.5490406,-34.8854980,110.1984711,-131.8396912
1150,2.8778157,11.9063044,4.1922259,49.8702278,-0.3358779,-20.1679382,-7.3477674,-12.5335817,-0.8523315,-12.6335878,131.1603088,-136.3893127
1160,3.4356618,11.4705620,4.3981261,49.8931313,-1.1603054,-26.0534344,-10.3452930,-14.0395269,-1.3479286,0.8549618,115.9770966,-150.0915985
1170,4.0964580,10.5464048,4.5657191,50.3358765,-2.3969467,-36.0916023,-13.8479919,-15.8710823,-2.7006457,-7.5343513,52.7709923,-166.6183167
1180,4.3263001,9.8592720,4.6854286,53.1297722,1.7328244,-46.7633591,-17.5398312,-16.2589397,-3.4045374,-30.6259537,-35.6106873,-187.8244324
1190,3.9719603,9.0476418,4.1587071,55.9236641,7.6259542,-58.5877876,-19.6131992,-13.9844608,-4.1515245,-59.8778610,-116.8320618,-198.8167877
1200,2.7916248,7.9511032,3.2489152,54.7938919,13.9618320,-67.8702316,-19.6131992,-9.7970228,-3.5673423,-90.9694672,-169.6717529,-172.8396912
1210,1.4963684,6.8521700,2.5953014,52.7251892,19.4427490,-71.9923630,-19.6131992,-5.3079181,-1.7764885,-111.7709961,-186.9313049,-100.7022934
1220,0.3375807,5.6957769,1.8794388,51.9312973,25.2595425,-70.9465637,-19.6131992,-3.5410061,-0.2202654,-120.6488571,-181.4351196,-2.4580152
1230,-0.6488253,4.7333126,0.9169745,46.3511467,27.9160309,-65.1450348,-19.6131992,-4.1946201,1.1970947,-121.6946564,-168.7480927,95.9618301
1240,-1.3838415,3.9312592,0.2729376,40.7251892,28.1450386,-55.6488533,-19.6131992,-6.8617468,2.5953014,-111.8167953,-162.4961853,183.6793823
1250,-2.0374553,3.3590479,-0.5674229,32.2595406,27.2213745,-43.2442741,-19.6131992,-10.4889441,3.3590479,-85.0916061,-167.1068726,240.0152740
1260,-2.5498118,3.1411765,-0.9648584,21.5648861,25.2748089,-27.3740463,-13.7402534,-13.2757807,2.1427996,-46.8854980,-169.8931274,250.1297760
1270,-2.7245877,3.0430148,-1.0989330,9.7022905,21.8167934,-9.7862597,-9.6916790,-13.8288383,-0.0287303,-9.8778629,-166.2061005,250.1297760
1280,-2.4923513,3.2153964,-1.1492109,-1.2595420,17.3053436,7.9160304,-7.5632443,-12.7706070,-2.3941894,13.9160309,-153.7099304,235.8473358
1290,-1.9225341,3.6726866,-0.7541697,-9.6717558,13.8702288,23.6870232,-6.6390872,-10.7499104,-4.3382711,23.5114498,-144.8015289,219.3816833
1300,-1.2377959,4.3382711,-0.3064562,-13.9236641,12.3664122,37.4198456,-6.3637557,-7.7811155,-6.1865854,20.0305347,-122.8320618,210.0839691
1310,-0.5746055,5.2696109,-0.0430954,-14.5038166,11.9160309,49.6564903,-7.5105724,-6.0740585,-7.1203194,4.2290077,-124.2137375,209.8167877
1320,0.1915352,6.5576849,0.0335187,-14.1450386,13.1145039,58.1297722,-7.9223728,-3.8330972,-5.8609757,-20.1145039,-155.5496216,215.3587799
1330,1.0558375,7.9199786,0.1604107,-12.3893127,13.8244276,62.6488533,-6.5241661,-3.0190730,-5.7221127,-41.5648842,-200.7099304,213.4045868
1340,1.5849534,9.0165176,0.1436514,-10.3053436,11.3435116,63.8015251,-4.5776901,-1.1276633,-6.0189924,-56.9923668,-216.0839691,207.2671814
1350,1.7357874,9.9789820,0.0430954,-9.1832066,4.7633586,64.3664093,-3.5290353,0.6033357,-5.7508430,-68.7404556,-208.5801544,201.9847260
1360,2.0206959,10.9462337,0.0311245,-9.3206110,-3.2977099,65.5496216,-1.5298871,2.0613971,-4.5752959,-75.1679382,-185.5496216,192.5801544
1370,2.3870070,11.5735121,0.3519458,-9.6946564,-12.0229006,66.3282471,-0.7086801,3.7516949,-2.3678534,-73.1832047,-153.8549652,174.1526642
1380,2.8035958,11.9781294,0.7230452,-10.1679392,-22.1908398,66.2748108,-2.0733681,5.5688848,-0.5578461,-60.8473282,-125.9236679,158.9313049
1390,3.4045374,12.0738974,1.1276633,-11.9541988,-31.9465656,65.0916061,-3.2776453,8.0516596,-0.1891410,-40.5648842,-106.4580154,149.6870270
1400,4.0461802,11.8847561,1.9704180,-13.6412210,-38.1603050,62.3740463,-3.7708483,10.2902260,-0.8331779,-21.8015270,-93.0076370,145.6564941
1410,4.8482337,11.8057480,3.2130022,-11.7022905,-43.7480927,57.4503822,-3.1603301,12.0595322,-1.9871773,-10.3816795,-79.2442780,141.6412201
1420,5.4395986,11.8368731,4.0964580,-5.3053436,-46.1297722,51.0152664,-2.1787124,14.2813396,-2.8395088,-3.2442749,-57.4503822,132.9313049
1430,5.9950504,11.6549139,4.5992379,2.6870229,-45.2442741,42.0610695,-2.5689652,15.7465839,-3.1052637,2.2061069,-33.6641235,124.4351120
1440,6.3015065,11.4921093,4.7261300,9.3893127,-40.0228996,32.1755714,-3.3829896,16.7114429,-3.1052637,6.5877862,-14.6412210,121.6641235
1450,6.1291251,11.2431135,4.4316444,13.9618320,-31.7099228,21.4427490,-3.7301471,17.1232433,-2.9807658,10.8320608,-3.5267177,123.5954208
1460,5.8298512,11.0755205,3.6343796,14.3435116,-21.1755733,11.2671757,-3.5745249,17.1256371,-3.2967989,16.7557259,6.4274807,125.9847336
1470,5.1786318,10.8744087,3.0908985,10.8702288,-9.8854961,1.8167939,-3.2345500,16.8167858,-3.9887197,23.5801525,17.3358784,128.7175598
1480,4.2784166,10.5847120,2.5402350,5.9236641,-2.3587787,-6.0763359,-2.4923513,16.1703548,-4.7069764,27.1068707,30.9541988,131.2519073
1490,3.4811516,10.2399483,2.1427996,1.5725191,0.0839695,-11.8167934,-1.8698620,15.1815557,-5.2504573,28.1145039,44.6106873,132.2213745
1500,2.6527619,9.8353300,2.0542145,-0.8320611,-0.7099237,-13.9389315,-1.3383518,14.2119083,-5.6287394,26.6793900,53.9465637,131.2519073
1510,1.9105632,9.5360565,1.9776005,-1.9923664,-3.9618320,-13.0839691,-0.9313397,12.9669304,-5.7149301,21.7251911,55.4580154,130.6717529
1520,1.4652439,9.3804340,1.8674678,-1.9007634,-8.7633591,-10.7251911,-0.4620786,11.6597023,-5.5856438,16.7175579,57.0076332,127.8244247
1530,1.3407460,9.2631187,1.7956421,-0.8625954,-12.9770994,-7.8473282,0.0359128,10.1681223,-4.9823084,11.4961834,55.8015251,123.6564865
1540,1.1109039,9.2750902,1.5131277,1.8244275,-17.0610695,-6.2137403,2.1380112,6.1387019,-2.9017577,-1.9541985,42.0763359,100.9007645
1550,0.9121862,9.4690189,1.0893562,2.6030533,-11.2061071,-11.1374044,3.4260850,4.0078731,-1.5753766,-4.5801525,30.4198475,73.7709961
1560,0.6368544,9.2966375,0.7326220,0.9770992,-2.8931298,-16.8854961,3.6439564,2.7245877,-0.1268920,1.6641221,32.2671738,42.2061081
1570,0.6727672,9.2080526,0.5985473,-0.2519084,-0.2442748,-18.9541988,3.2130022,2.5665710,0.2585725,6.5343513,31.9007626,27.3893127
1580,0.7206510,9.1745338,0.5793939,-0.7786260,0.5801527,-20.2900772,3.0478032,2.3558824,0.3256098,9.1297712,28.7786255,15.5725193
1590,0.8451489,9.2152348,0.4381367,-1.8091604,-0.2671756,-21.6870232,2.8754215,2.1906834,0.0239419,8.4198475,25.3816795,4.6488547
1600,0.8666966,9.1386213,0.2489957,-4.1984735,-0.2137405,-23.1068707,2.1763182,2.2816625,0.2035061,2.8473282,13.5496187,-7.1297708
1610,0.7182568,9.2152348,0.2705434,-9.1374044,1.6641221,-23.5877857,1.2665262,2.9640064,-0.1292862,-5.7480917,-5.7022901,-16.5038166
1620,0.4285599,9.1098909,0.2968795,-15.4274807,3.0229008,-22.6259537,0.5578461,3.2800395,-0.2489957,-15.4809160,-32.5801544,-21.6183205
1630,0.0263361,8.8824425,0.6248835,-21.0992374,2.7251909,-17.1603050,1.1156923,3.5362179,-0.4620786,-26.9312973,-48.2290077,-25.7251911
1640,0.1436514,8.4299412,1.2832855,-24.9465656,-3.3282442,-6.1603055,1.4389079,3.6032550,-0.1173153,-35.0152664,-51.6870232,-32.1297722
1650,0.7062859,7.9558916,2.3870070,-24.0229015,-16.1450386,8.1068707,1.2713146,4.1060348,0.3758878,-36.3206100,-51.5572510,-38.4656487
1660,1.8890154,7.8218169,3.3327117,-17.1755733,-30.1679382,20.7862587,0.9983770,4.6255741,0.6033357,-32.6106873,-47.8702278,-43.4580154
1670,3.4643922,7.8050575,4.0533628,-6.5725193,-39.5114517,27.2748089,1.1827296,5.4467812,-0.0047884,-30.4045811,-40.5648842,-49.1908379
1680,4.6207857,7.7356262,4.0988522,2.1755726,-39.5114517,27.1068707,0.9720409,5.8849177,-0.5219333,-29.1679382,-34.8244286,-58.1526718
1690,5.1929970,7.8649125,3.7612717,6.6412215,-28.2824421,22.6259537,0.3303981,6.7468257,-0.7996593,-30.3053436,-31.5496178,-65.1450348
1700,4.9583664,8.0995426,2.9999194,5.7099237,-8.5190840,16.9160309,-0.4213773,7.9678626,-0.9888002,-32.3282433,-28.3282452,-67.8091583
1710,4.1419477,8.2072811,2.2457497,-0.1526718,12.6793890,14.7022905,-0.9696468,9.0213060,-1.2713146,-35.1908379,-25.8702297,-67.5038147
1720,3.2106080,8.2599535,1.9033806,-5.3740458,29.6641216,15.5190840,-0.8307837,9.8520899,-2.0350611,-39.9771004,-28.3664131,-66.0076370
1730,2.2840567,8.4490948,1.6783268,-5.4122138,36.0916023,19.6259537,-0.7805058,10.2543135,-2.8155668,-51.0610695,-36.9618340,-69.2900772
1740,1.7549409,8.7435799,1.4149660,-1.6641221,32.8625946,24.8396950,-0.9169745,10.6709023,-2.5378408,-62.8167953,-43.7328262,-76.3358765
1750,1.6280488,9.2032642,1.0989330,2.6793892,23.2519093,27.8931293,-1.2689204,11.2526903,-1.5538290,-67.2290039,-48.6793900,-81.6793900
1760,1.5801650,9.6677370,0.8834559,4.8396945,12.8931293,28.4656487,-1.3479286,11.5495701,-0.7852941,-64.6030502,-47.2900772,-85.7938919
1770,1.6280488,10.2854376,0.8738791,4.7099237,4.5267177,26.5954189,-1.2090657,11.6381550,-0.1747758,-55.7022896,-40.2366409,-89.6030502
1780,1.8339491,10.7403336,0.8786675,2.6946564,0.8625954,22.5114498,-0.9840119,11.5423870,0.0047884,-44.7938919,-31.3129768,-93.6870193
1790,1.8028246,11.3364868,1.2449785,0.2900763,1.3435115,17.5343513,-0.9169745,11.3316984,-0.1723816,-33.4961815,-20.6564884,-100.9389343
1800,1.9273225,11.5591469,1.8339491,-0.5572519,6.2595420,14.9389315,-1.1683644,10.8935623,0.0119709,-21.4503822,-10.5725193,-108.8320618
1810,2.3032103,12.1122046,2.1811066,0.0305344,13.7328243,14.0916033,-1.7788827,10.8959560,0.1580165,-7.7175574,-3.6793892,-119.6946564
1820,3.0118904,12.6508970,2.5402350,0.9236641,20.0916023,11.1526718,-2.6503677,10.9510221,-0.0383070,5.6488547,-2.8931298,-131.1221313
1830,4.0006905,13.2278967,3.0047078,3.7022901,26.5038166,3.6793892,-3.9432299,11.1449518,-0.5099624,15.3435116,-8.6259546,-139.7480927
1840,4.3454537,14.0299501,3.4260850,9.1984730,30.3129768,-7.1679387,-5.0613165,11.4705620,-0.8164186,20.3893127,-18.0916023,-145.2519073
1850,4.4723458,14.5710373,3.4476328,14.9694653,31.4045811,-19.7251911,-5.5042415,11.9637651,-0.5769997,22.9007626,-30.6946564,-148.0610657
1860,4.3406653,14.7697544,3.4452386,20.0076332,34.5877876,-31.7709923,-5.3797436,12.1600885,-0.1005560,25.4045811,-38.6717567,-147.1755676
1870,4.1156116,14.4920292,3.5457945,25.7251911,34.0839691,-43.0305328,-4.5465660,12.2343082,0.1771700,32.2061081,-35.3664131,-148.1984711
1880,3.6200144,13.9581242,3.6080434,33.8167953,29.0687027,-51.5648842,-3.8450682,12.3612003,0.0167593,44.9312973,-15.8625956,-148.4427490
1890,3.2752512,13.2997227,3.2201848,41.8854980,21.4732819,-57.5954208,-3.1435707,12.7945480,-0.1197095,63.7022896,18.9618320,-148.4351196
1900,3.0118904,12.5072460,3.1244173,49.3511467,13.0076332,-61.8702278,-2.1954718,13.4122496,-0.7062859,87.9694672,61.5114517,-149.4656525
1910,2.9233053,11.6620970,2.9233053,56.8320618,4.7404580,-64.1832047,-0.7805058,14.3172531,-1.4484847,112.2061081,103.8931274,-152.5877838
1920,2.6336083,10.6828737,2.7652888,64.8931274,-4.1526718,-65.3282471,0.8475431,15.2342272,-2.5522060,136.9084015,153.3893127,-161.0076294
1930,2.4899571,9.7228031,2.4253139,71.2442780,-10.2061071,-64.8244247,1.8961980,15.2533808,-3.8953462,158.6488495,205.3893127,-172.9847260
1940,2.3223639,8.8968077,2.0518203,75.0534363,-13.3664122,-63.2061081,2.9640064,14.7194767,-5.3318601,174.8625946,250.1297760,-189.4274750
1950,1.9416877,7.9989872,1.4317253,75.9770966,-13.7175570,-60.6335869,4.1204000,14.0299501,-6.0812411,190.2977142,250.1297760,-209.5954132
1960,1.5945302,7.4028339,1.0678085,74.8244247,-12.9007635,-57.1679382,3.7349355,13.4457684,-6.7492199,202.7786255,250.1297760,-235.2519073
1970,1.2473727,6.6869712,0.6368544,72.3587799,-10.6870232,-53.4732819,0.7685348,13.5367470,-7.8481531,214.4732819,250.1297760,-250.1374054
1980,0.8092360,5.9687142,0.1292862,68.1603088,-9.5572519,-47.5572510,-2.1212518,13.6827927,-10.4769726,210.7862549,247.6488495,-250.1374054
1990,0.5003856,5.4252334,-0.2370248,62.6335869,-7.2519083,-41.2137413,-4.0437860,13.3284531,-13.9341822,177.4351196,218.5343475,-250.1374054
2000,0.0861908,4.9104824,-0.6655847,54.9389305,-3.6946564,-34.0458031,-5.6024032,11.3508520,-15.7824965,114.0687027,202.9923706,-231.7786255
2010,-0.3663110,4.4364328,-0.7757174,46.4732819,-1.5496184,-25.5648861,-6.3158717,7.8840661,-15.6364517,45.6870232,181.1908417,-205.4351196
2020,-0.4955972,3.8714044,-1.0079538,37.4580154,1.0992366,-16.6106873,-6.6845770,3.0286496,-13.4697094,-12.7557249,164.0610657,-183.3969421
2030,-0.4740495,3.3207407,-0.9169745,28.8778629,5.1145039,-8.4351149,-6.7659793,-1.4724265,-11.1521349,-53.0305328,164.2900696,-165.4045868
2040,-0.7589580,2.9185169,-1.0965388,19.4809170,10.0305347,-0.0534351,-7.7284436,-5.9998388,-7.9606800,-74.4198456,184.1832123,-145.1297760
2050,-0.9648584,2.7892308,-1.2282192,9.2900763,15.8778629,10.1145039,-8.2551651,-10.2662840,-4.0844874,-71.3282471,196.2519073,-130.0610657
2060,-1.0247130,3.0358322,-1.5562232,-1.4885496,19.5038166,20.2900772,-7.4363523,-15.0546637,-2.0973101,-47.2519073,194.7938995,-132.2671814
2070,-0.9026094,3.4308734,-1.8004304,-13.8015270,25.4122143,29.8244267,-7.5847921,-19.0577488,-0.2513899,-12.2671757,193.8320618,-147.3893127
2080,-0.7637464,3.6894460,-1.9704180,-26.2442741,30.1603050,38.8320618,-9.8113880,-19.6131992,-0.0335187,33.0839691,171.4198456,-173.9923706
2090,-0.2489957,4.4962878,-2.2170193,-38.8244286,25.3435116,45.3816795,-10.5176744,-19.6131992,-3.1723011,71.9236679,124.0916061,-219.6717529
2100,0.6847382,4.8769641,-1.1013272,-45.7633591,28.5954189,50.5725174,-12.7658186,-19.6131992,-8.0588417,72.3893127,72.2900772,-250.1374054
2110,2.2792683,5.6718349,0.0526722,-42.6870232,31.9618320,50.4656487,-17.8319225,-17.5805340,-10.1250277,39.4732819,27.1908398,-250.1374054
2120,3.4500270,6.9479380,0.6536137,-33.3587799,27.7557259,43.0992355,-19.6131992,-12.1768475,-8.4706421,3.9389312,-3.1603053,-250.1374054
2130,3.8666160,8.1019373,-0.2250538,-25.6335869,11.0687027,32.4503822,-19.6131992,-7.0149751,-6.2296810,-21.8320618,-22.0152664,-199.4198456
2140,3.5194585,9.1745338,-1.9177457,-31.8778629,-11.2519083,23.1679382,-19.6131992,-2.9735832,-4.6830344,-45.1145020,-31.2290077,-97.7404556
2150,3.6511390,9.8951855,-1.7022687,-51.8244286,-18.1908398,19.2290077,-19.6131992,-1.2449785,-2.7772598,-64.6183243,-40.2137413,16.1984730
2160,3.2944047,10.7882175,-1.5107336,-74.0534363,-15.8625956,18.8549614,-19.6131992,-2.5354466,-1.4101776,-74.9083939,-52.3435097,126.3435135
2170,2.7748656,11.7913828,0.3615226,-86.6946564,-13.3053436,22.4809170,-19.6131992,-5.5305777,-0.6224893,-70.9312973,-62.9007645,211.1145020
2180,2.5761478,12.5718889,1.9488702,-86.6717529,-8.8320608,28.8167934,-17.6834831,-9.8137827,-0.7829000,-52.8702278,-70.6030502,250.1297760
2190,2.7078283,13.0626974,2.8012016,-81.3129807,-0.5267175,35.5419846,-10.4578199,-12.3109226,-2.1691356,-26.4809170,-73.0916061,250.1297760
2200,2.6503677,13.4098549,2.8969693,-75.3740463,9.3053436,42.3129768,-5.5042415,-13.3092995,-4.1946201,-4.9770994,-70.8931274,250.1297760
2210,2.4779861,13.6732159,2.8059900,-71.4656525,14.4427481,47.8244286,-3.9863255,-12.1026278,-5.9782910,3.7633588,-66.9694672,229.3969421
2220,2.0566087,13.7115231,2.9041519,-68.2519073,14.3664122,51.6412201,-5.7604198,-9.5408449,-6.4188218,4.6488547,-77.9007645,203.7480927
2230,1.6232605,13.4864693,2.9209111,-62.5572510,10.1603050,54.9847336,-7.7643566,-6.5217719,-7.2903070,-0.7404580,-110.6870193,194.2213745
2240,1.3910241,13.0914278,2.9352763,-54.0610695,-2.0229008,56.7175560,-8.3676920,-4.2065907,-8.1115141,-14.6870232,-155.7633514,196.1526642
2250,1.3311694,12.6915979,3.0478032,-41.3664131,-17.3740463,57.2977104,-7.4866304,-2.9280937,-8.6478119,-34.3969460,-208.5572510,197.2137451
2260,1.4269369,11.9565821,3.0430148,-25.9083977,-32.1603050,57.0534363,-5.7245069,-1.4748207,-9.2798786,-56.2977104,-250.1374054,190.4961853
2270,1.5346755,11.3963413,2.6790979,-9.8778629,-45.6946564,54.7938919,-4.6830344,-0.2298422,-9.1936874,-76.5496216,-250.1374054,179.9313049
2280,1.9536586,11.1234045,2.2505381,3.2519083,-55.2824440,50.1832047,-4.7716198,0.9217629,-7.7021074,-87.0839691,-250.1374054,172.9770966
2290,2.3247581,10.8935623,1.9345051,13.3358774,-58.4427490,42.8167953,-5.4012914,2.1619530,-6.5792327,-88.0076370,-250.1374054,168.0686951
2300,2.7269819,10.8720140,1.4652439,19.1068707,-54.3206100,31.6717548,-5.6191626,3.6655040,-6.0596933,-82.1374054,-250.1374054,167.0000000
2310,3.0166788,10.7307568,0.7493813,18.4351139,-45.9389305,17.9007626,-5.7580256,4.7596488,-5.9663200,-75.5267181,-250.1374054,169.5954132
2320,3.0382264,10.4673967,0.3184272,11.9770994,-34.9160309,4.3969464,-5.5640965,5.8777351,-6.1339135,-68.5267181,-227.3893127,170.2595367
2330,3.0454090,10.0029240,0.3974355,3.3664122,-24.3587780,-8.9236641,-5.4635406,6.8497758,-6.4810710,-64.0381699,-205.9313049,166.3969421
2340,3.2393384,9.4594421,1.0199248,-1.5877863,-16.3053436,-21.0992374,-5.1163831,7.8409705,-7.1729918,-67.6030502,-200.0152740,158.3969421
2350,2.9592183,9.2918491,1.9512644,0.0076336,-15.5343513,-31.4045811,-4.5992379,8.7866755,-7.2783360,-78.6870193,-201.7633514,148.3511505
2360,2.3894010,9.1984758,2.1356170,2.7022901,-19.6564884,-34.8854980,-4.4340386,9.4211359,-6.4834652,-91.6030502,-203.5496216,139.8015289
2370,2.5115047,8.6478119,2.4324965,3.1297710,-25.5419846,-30.4274807,-4.2616572,9.6916790,-5.4587522,-98.0763321,-200.1603088,135.4580078
2380,3.2369442,8.3700867,3.6104376,5.9312978,-31.2671757,-21.6335869,-3.3327117,9.7060442,-4.8745699,-98.5190811,-188.1297760,131.7251892
2390,4.2329268,8.2575598,4.2233500,12.8167934,-38.5801544,-13.0381680,-2.6168492,9.2391768,-3.9240766,-95.9389343,-162.7786255,127.0610657
2400,5.2911587,8.0756006,4.3574247,19.8549614,-42.3969460,-7.0610685,-2.2625091,9.4785957,-2.5809362,-88.0152664,-132.8015289,121.0916061
2410,5.7723908,7.9080076,3.7684543,21.7328243,-36.6870232,-2.9007633,-2.2481439,9.8233595,-1.8914096,-75.7175598,-100.5038147,116.1145020
2420,5.9208307,8.0181408,2.7006457,17.1068707,-23.8473282,-1.5190840,-2.7844424,9.8808203,-1.1755470,-63.9160309,-70.7175598,114.0534363
2430,5.6933827,8.0157461,1.7118455,7.7709923,-7.2366414,-3.9236641,-2.7844424,9.9310980,-0.6991033,-51.3969460,-45.3129768,116.2290039
2440,4.7428894,8.0157461,0.6703730,-2.8167939,8.1603050,-8.3282442,-2.5067163,9.6653433,-0.4932030,-39.2900772,-27.2824421,115.6106873
2450,3.5386121,7.8529415,0.2274480,-11.0381680,16.9694653,-11.7709923,-1.9919657,9.2176294,-0.4692611,-28.0458012,-12.2671757,112.8778610
2460,2.1715298,7.7595682,0.0670373,-15.3206110,19.2977104,-13.1450386,-1.4173602,8.6502066,-0.8116302,-18.5190830,0.3893130,106.9465637
2470,0.9864060,7.7811155,-0.2609667,-17.7175579,16.7709923,-10.3587790,-1.0414724,8.1953106,-0.8834559,-12.8015270,7.0229006,98.0457993
2480,0.1292862,7.9606800,-0.2681492,-17.9770985,10.2824430,-4.5267177,-0.6991033,7.7787213,-1.0462608,-11.4503813,11.5877867,88.5343475
2490,-0.4213773,8.4514885,-0.3136388,-17.2366409,3.1603053,3.4122138,-0.6775556,7.1155310,-1.0199248,-12.3358774,15.2366409,79.5954208
2500,-0.3447633,9.2248116,-0.2418131,-16.2748089,-0.9160305,10.8015270,-1.1420283,6.7085190,-0.4764437,-13.2213745,16.8320618,71.5343475
2510,-0.0071826,10.0292597,-0.1843526,-16.6106873,0.4274809,16.1832066,-1.6783268,6.5098009,-0.5003856,-13.4809160,14.0305347,66.4580154
2520,0.8259954,10.8720140,-0.0239419,-19.0839691,6.4732823,17.7786255,-1.8291607,6.3805151,-0.6440369,-14.9465647,9.9541988,68.0916061
2530,1.5250987,11.7243462,0.8403605,-20.0763359,12.6488552,16.2061062,-1.5107336,5.6071916,-1.4508789,-20.2290077,11.6793890,73.5572510
2540,2.1978660,12.4809093,1.6687500,-17.2748089,16.9618320,12.8778629,-0.3591284,4.4412212,-2.0877333,-28.4732819,19.9541988,79.0839691
2550,2.8275378,13.1895895,2.0254843,-13.7938929,19.6717548,9.3358774,1.0462608,2.5761478,-2.8586621,-41.5038185,29.9541988,80.1221390
2560,3.5170643,13.7809544,2.1547706,-12.3969469,21.4656487,5.0381680,1.6280488,2.1236460,-2.6360025,-58.4427490,45.4580154,77.7480927
2570,3.9504125,14.1065645,2.6048782,-11.4961834,23.1755733,-0.3053435,1.7980363,2.4133430,-1.4891858,-73.9923630,59.1755714,73.6335907
2580,4.2257442,14.1065645,3.6224086,-6.7251906,23.2061062,-4.9083967,2.3846128,3.0501974,-0.0311245,-80.8091583,65.6106873,63.5343513
2590,4.0820932,14.1065645,4.0557570,13.8702288,21.7251911,-8.7557249,2.4085546,4.6997938,1.8746504,-75.3969498,63.1832047,19.3053436
2600,3.8905578,14.0251617,3.5577655,20.8167934,18.6717548,-8.5572519,1.5442522,5.8968887,1.6639616,-72.8091583,49.6412201,-8.7175570
2610,3.7301471,14.1927547,3.3877780,26.4732819,16.0916023,-8.2366409,0.5841822,7.1179252,1.6448082,-72.4961853,36.5190849,-29.8625946
2620,3.8235207,13.9581242,3.4619980,32.9618340,12.6717558,-8.3435116,-1.3479286,8.6334467,2.0087249,-71.0305328,29.1755733,-42.2519073
2630,3.8163381,13.5678720,3.1962428,40.2519073,6.9236641,-9.6030531,-3.2560976,10.1513634,1.6160779,-68.4732819,19.7175579,-44.5496178
2640,3.6583214,13.0962162,2.5306582,46.6946564,-1.7251909,-11.4656487,-4.1754665,11.4561968,1.0869620,-68.2900772,19.5419846,-37.4045792
2650,3.2345500,12.5335817,1.9033806,50.5877876,-12.0839691,-12.5496187,-4.5417776,12.1960011,1.2641320,-67.8091583,40.4580154,-26.2442741
2660,2.8371146,11.9039097,1.6017127,52.2824440,-22.2977104,-12.8854961,-4.9559722,12.6317434,2.2553265,-61.1603050,65.3358765,-17.7633591
2670,3.0693510,11.1784706,1.6424140,54.2061081,-31.6870232,-14.0076332,-5.1810260,12.9789009,3.5697365,-46.9465637,84.0916061,-13.2748089
2680,3.6846576,10.5248566,2.4947455,61.5725174,-38.2213745,-19.5954189,-5.3366485,13.9198179,4.7069764,-27.0381680,93.7633591,-11.5114508
2690,3.9360476,9.7275915,2.5713594,71.6641235,-43.8320618,-29.4427490,-5.6047974,14.9373484,5.1187773,-2.9312978,89.6412201,-10.7480917
2700,3.7109938,8.8513184,1.9416877,78.3969498,-45.5496178,-40.6793900,-4.5010762,15.5885677,4.1275826,20.4580154,83.8473282,-11.8396950
2710,3.4835455,7.7954807,1.5801650,82.2671738,-43.4885483,-50.0534363,-3.4596038,15.7848911,3.2489152,39.0305328,80.5648880,-15.8778629
2720,3.2752512,6.6965480,0.7565638,82.2366409,-37.4351158,-57.5877876,-2.9903426,15.9309368,2.8562679,57.7099228,86.5190811,-17.8625946
2730,2.5785420,5.9399838,-0.3926471,74.3053436,-25.8702297,-62.7480927,-2.6288199,16.0075512,2.8586621,82.7251892,98.3511429,-15.6564884
2740,1.3479286,5.3127065,-0.8786675,59.7557259,-19.3587780,-63.7099228,-2.2744799,16.0243092,2.2649033,110.8167953,109.5190811,-8.8473282
2750,0.1651991,4.6327567,-0.6177009,44.6335869,-18.8396950,-58.8167953,-0.7829000,15.7633438,1.0654143,134.6641235,122.0839691,0.6946565
2760,-0.3399749,4.0485744,0.1268920,35.8854980,-21.0076332,-49.3816795,1.7166338,15.0019913,-0.3208214,152.1984711,144.8244324,6.1679387
2770,-0.4979914,3.3925664,1.0462608,33.0763359,-24.8854961,-36.9389305,4.1467361,14.3531656,-0.4692611,168.7633514,178.4198456,5.8167939
2780,-0.2466015,2.9831600,1.7860653,36.4274826,-26.5877857,-25.0152664,5.8825235,13.4577389,0.1532281,190.2977142,227.4809113,1.6412214
2790,0.2944853,2.7054341,1.6448082,39.5190849,-21.5725193,-15.1755724,7.3022780,12.6580801,1.3168042,222.2442780,250.1297760,-4.6870227
2800,0.8834559,2.4684093,0.9361281,36.3969460,-10.1908398,-8.9160309,8.2455883,11.4992924,1.2617378,250.1297760,250.1297760,-11.9083967
2810,1.0295014,2.4612267,0.6153067,28.0152664,4.4809160,-5.3816795,8.1210909,10.4985209,1.0366840,250.1297760,250.1297760,-19.1068707
2820,0.8140244,2.6168492,0.0359128,16.9618320,20.9236641,-0.1832061,6.4691000,10.1968527,0.0790083,250.1297760,250.1297760,-27.8167934
2830,0.9816177,3.1124463,-0.3615226,4.7633586,37.0152664,4.7633586,3.5098817,10.5368280,-2.8395088,250.1297760,250.1297760,-36.1145020
2840,1.2473727,3.5888901,-0.5554519,-4.8244276,54.1526718,8.4122133,1.3503228,11.4633789,-6.5050125,250.1297760,173.4732819,-38.7938919
2850,1.0223188,4.5250182,-1.1348459,-12.5114508,66.5572510,12.7709923,0.1532281,11.5495701,-10.3261395,250.1297760,85.2595444,-36.8473282
2860,1.0103480,5.3342543,-2.3247581,-22.2748089,71.3816757,18.1221371,0.3926471,11.0324249,-10.8720140,204.5190887,8.6030531,-33.6183205
2870,1.2354017,6.2608056,-3.1507533,-34.9007645,68.4122162,23.7022896,1.9752063,10.0316534,-7.9415264,160.6870270,-46.6793900,-37.5725174
2880,1.5634058,7.2879128,-3.6271970,-48.9541969,57.4961815,28.8320618,4.9320302,8.8920193,-5.3462253,151.0458069,-60.0534363,-51.7633591
2890,2.1236460,8.4347296,-3.5290353,-63.3206100,40.6641235,31.6946564,7.4602942,7.8313937,-4.1347651,164.7557220,-20.2213745,-74.8854980
2900,2.8993635,9.6174593,-2.8921809,-74.8396912,24.4656487,30.5572510,8.8800488,7.2807302,-3.0980811,193.2595367,35.9847336,-101.9160309
2910,3.3686244,10.5583754,-2.0709739,-83.3358765,10.6641226,26.0152664,8.8920193,6.4834652,-4.4891052,225.8320618,104.7709961,-128.1984711
2920,3.6798692,11.1162214,-1.0342898,-89.9465637,3.0916030,19.8091602,6.7827387,5.6215568,-6.8042865,246.1984711,142.1450348,-149.1450348
2930,3.6631098,11.3987360,0.0239419,-94.0534363,1.6183206,14.4198475,3.6152260,5.2720051,-9.9861641,241.8778687,141.7404633,-162.0610657
2940,3.2848279,11.7578640,1.3575054,-93.7328262,6.1221375,11.9541988,-0.0814024,4.8793583,-12.4210548,216.2671814,116.1603088,-157.6488495
2950,2.6216373,12.1313581,2.3151813,-87.9083939,14.1908398,13.4503813,-2.6144550,3.7445123,-14.1927547,175.1221313,81.2671738,-141.4427490
2960,2.1427996,12.4545736,2.8371146,-77.9007645,19.6946564,18.1679382,-5.3007355,1.1899122,-15.0043850,126.7633591,46.3969460,-120.6335907
2970,1.8243724,12.8376436,3.0621684,-64.1374054,16.5725193,24.1984730,-7.2974896,-1.7286048,-13.4505568,83.7480927,13.8625956,-93.3816757
2980,1.8219782,13.0148134,2.9041519,-49.3893127,6.8854961,30.4656487,-8.3102312,-5.2145448,-10.9773588,58.1984749,-0.2290076,-68.2519073
2990,1.9680238,13.3428183,2.9855542,-34.8473282,-5.1450381,35.7938919,-8.7723103,-8.2838955,-8.6358414,54.6793900,9.3893127,-48.8931313
3000,2.5091105,13.3739424,2.9759774,-19.6641216,-18.3511448,38.4885483,-8.0708122,-11.8057480,-8.1737623,63.3053436,23.3358784,-48.4961815
3010,3.1172347,13.4577389,2.7485294,-5.0687022,-29.1984730,37.3816795,-7.7068958,-14.6620159,-10.2160063,64.5877838,42.1068687,-74.5190811
3020,3.6319854,13.3547888,2.6000898,5.8015265,-34.4274826,32.2977104,-7.2017217,-16.5318775,-13.8886929,42.2137413,57.5648842,-128.7633514
3030,4.0054789,13.2614155,2.2672975,12.7786255,-33.3969460,22.9312973,-10.1250277,-15.1647959,-15.4353390,-11.0610685,71.9083939,-202.6870270
3040,3.9264708,12.8783455,1.8052188,15.3511448,-27.8015270,11.2519083,-18.9691639,-11.6860390,-13.2997227,-81.0763321,54.6870232,-250.1374054
3050,3.5290353,12.3588057,1.6065011,13.5572519,-21.4045811,-0.5648855,-19.6131992,-6.4260044,-7.6973190,-139.6793823,-2.2213740,-241.6793823
3060,3.0765336,11.7147694,1.7740943,11.9465647,-16.4427490,-11.4580154,-19.6131992,-1.6112895,-3.8474624,-179.7709961,-84.4503784,-179.9313049
3070,2.5785420,11.1521349,1.8626794,10.8015270,-11.5725193,-21.9389305,-19.6131992,0.1388630,-1.4939742,-215.3969421,-164.2061005,-76.3587799
3080,2.0853391,10.6254129,1.8794388,9.8549614,-7.7175574,-31.1603050,-19.6131992,-0.7158626,1.6112895,-226.7480927,-225.9770966,38.1297722
3090,1.8938038,10.0771437,2.0350611,9.0000000,-4.2213740,-39.4961815,-19.6131992,-3.7588775,2.6647329,-204.4656525,-250.1374054,144.9618378
3100,1.6711442,9.5480280,2.2409613,10.3511448,-1.2671756,-47.0916023,-19.6131992,-7.8218169,1.3934183,-161.0305328,-250.1374054,215.0992432
3110,1.2162483,8.9925756,2.0566087,11.9312973,1.2290076,-52.1145020,-12.2534618,-10.7834291,-0.9385223,-106.2137375,-238.0992432,233.1908417
3120,0.7350162,8.3126259,1.8219782,11.7099237,4.6259542,-52.9694672,-5.9591374,-10.9582052,-3.5290353,-55.0687027,-173.6870270,216.1832123
3130,0.3758878,7.9534974,1.6472024,10.9923668,8.0305347,-50.1603050,-4.3550305,-9.0141230,-5.5617023,-18.6717548,-106.6717529,190.9694672
3140,0.0790083,7.4435349,1.5681942,10.2900763,8.4885492,-43.9007645,-5.2696109,-6.5528965,-6.6342988,-2.2061069,-57.5954208,174.9618378
3150,0.1292862,6.9790621,1.3646880,9.3053436,6.9694657,-34.9694672,-7.0772243,-4.0940638,-7.1562324,-0.9770992,-45.6183205,171.5038147
3160,0.2633608,6.6103573,1.3024391,8.9465647,1.7633588,-23.1526718,-7.6614060,-2.1308286,-8.1593981,-10.8702288,-64.5190811,173.3816833
3170,0.9121862,6.3469963,1.3910241,9.7862597,-6.6717558,-9.5114508,-6.2344694,-0.0047884,-9.6318245,-34.6030540,-106.9847336,169.1526642
3180,1.7357874,6.2177100,1.4053892,11.7633591,-13.9236641,1.6030535,-4.5369892,1.1420283,-10.9558105,-76.7022934,-164.3206177,158.1374054
3190,2.5953014,6.2440462,1.4508789,13.9618320,-18.0152664,8.5954199,-2.5426292,1.9680238,-11.1976242,-125.6564865,-224.4274750,141.0686951
3200,3.2704628,6.4140334,1.1444225,14.8473282,-14.5038166,11.6106873,-0.5626345,3.2106080,-9.4331064,-162.4656525,-250.1374054,119.4809189
3210,3.4021432,6.7971039,0.4141948,12.4732828,-3.3816793,11.8396950,-0.7158626,3.7421181,-7.2903070,-178.9847260,-250.1374054,100.7328262
3220,3.0023136,7.0724359,-0.3471575,5.6946564,12.5954199,11.5190840,-1.8961980,4.0437860,-5.0852585,-175.6870270,-250.1374054,90.8015289
3230,2.4803803,7.4938130,-1.1085097,-2.8625953,29.4274807,11.9847326,-2.3606708,5.5257893,-3.2201848,-156.4885559,-235.2366486,85.8473282
3240,1.6424140,7.9750452,-1.2330076,-11.4427481,42.1145020,14.6564884,-2.0494261,6.9670911,-2.5474176,-127.1145020,-211.6488495,81.1221390
3250,0.9816177,8.6047173,-1.4029950,-17.5496178,47.0916023,19.2748089,-0.6919208,9.2511482,-2.6192431,-98.4045792,-192.3893127,70.1450348
3260,0.5506636,9.2798786,-1.4867916,-22.7175579,44.2290077,24.5801525,0.2968795,11.3724003,-3.4332676,-79.3969498,-172.2595367,57.5038185
3270,0.3902529,9.7467451,-1.3886299,-26.6564884,33.7328262,29.1374054,0.2082945,12.9286232,-3.9312592,-68.0076370,-144.8549652,50.9771004
3280,0.5889706,10.1465750,-0.8882443,-29.0763359,19.6183205,32.0228996,-1.1851238,14.5039997,-3.6056492,-55.2748108,-114.7786255,48.8778610
3290,0.9217629,10.2854376,-0.3016679,-30.7557259,4.9694657,32.9083977,-3.3686244,15.8184099,-3.9264708,-38.8931313,-93.9312973,49.4274826
3300,1.3527170,10.5416164,0.4908088,-31.1297703,-5.3358779,32.1755714,-5.2935529,16.4624462,-5.2432747,-27.3893127,-87.8473282,58.9694672
3310,1.7429699,10.5942879,1.2904681,-29.8854961,-9.9847326,30.2442741,-5.5377603,16.7545376,-6.9287844,-25.5877857,-86.6870193,73.5267181
3320,2.1667414,10.6972389,1.9273225,-27.0839691,-9.4503813,28.1068707,-4.8865409,16.3762550,-8.2336178,-33.0916023,-82.6412201,85.6183243
3330,2.3774302,10.7211800,2.1547706,-24.1908398,-4.1297708,25.8396950,-3.8881636,15.5311069,-8.5616217,-44.1221390,-74.0076370,92.5648880
3340,2.6096666,10.8839855,2.2816625,-21.3511448,3.3129771,22.6870232,-3.2632802,14.4872408,-8.0468712,-53.0152664,-61.0076332,98.2900772
3350,2.6336083,11.0659437,2.3079987,-19.8549614,9.3587790,18.9847336,-2.7940190,13.3212700,-6.9239960,-57.2824440,-45.1450386,103.5419846
3360,2.5929072,11.2455082,2.3606708,-18.0687027,12.6412210,16.1526718,-2.5186872,11.9972830,-5.3198891,-58.5267181,-30.0458012,105.0610657
3370,2.7964132,11.3843708,2.4253139,-16.6870232,15.4122133,12.3511448,-2.4899571,11.0827026,-3.7349355,-54.5725174,-20.6259537,106.3893127
3380,2.8107784,11.4418316,2.4324965,-15.7404585,17.7557259,7.5038166,-1.9560528,9.8592720,-2.5617826,-46.6412201,-14.5267172,108.7251892
3390,2.9664006,11.3508520,2.5761478,-15.4503813,19.7709923,1.3511450,-0.7948709,8.5304966,-1.5969244,-36.1068687,-8.8244276,107.0534363
3400,2.8706331,11.3388815,2.7317703,-13.8396950,21.7251911,-5.2442746,0.3256098,7.4315639,-1.0462608,-26.0076332,-3.9389312,100.7175598
3410,2.5641768,11.1234045,2.7652888,-10.9312973,22.5648861,-10.0152674,1.1396341,6.5385313,-0.6967092,-17.3282452,1.3511450,91.5038147
3420,2.3391230,10.9079275,2.6288199,-7.5572519,22.8778629,-12.5648851,1.9656296,5.8059096,-0.3088504,-9.1908398,10.0610685,81.6564865
3430,2.2433555,10.8145542,2.7533178,-3.8931298,21.7480907,-14.1145039,2.5426292,5.1068063,0.2561783,-0.2137405,20.3587780,71.7328262
3440,2.3678534,10.7355452,2.8131726,1.2061069,19.3282452,-16.4656487,3.0717452,4.4771342,0.7517755,9.1526718,30.9541988,56.9618340
3450,1.8339491,9.8832140,2.2625091,14.0305347,15.2137403,-26.1068707,1.0773853,3.9911139,0.5123565,32.4885483,12.6183205,-12.8244276
3460,1.6136837,9.7156210,2.3486998,16.4503822,15.3358774,-24.1221371,0.6679789,4.1898317,-0.0478838,26.4274807,-6.6564884,-17.9236641
3470,1.6017127,9.5647869,2.3750360,18.5343513,13.5496187,-20.5572510,0.6488253,4.2855992,-0.6895266,16.7557259,-21.4580154,-20.3282452
3480,1.7884595,9.4522600,2.6240315,22.6641216,9.8015270,-16.8702297,0.6248835,4.3909435,-0.9911944,4.7099237,-29.6259537,-22.1374054
3490,1.9632354,9.3301563,2.7509236,28.0839691,5.5419846,-13.8244276,0.8212070,4.1850433,-0.9457048,-7.7404580,-33.7480927,-23.5648861
3500,2.0566087,9.1817169,2.5091105,32.1374054,2.2366412,-10.5648851,0.9983770,4.1922259,-0.5985473,-19.2595425,-35.7099228,-26.5190830
3510,2.2098370,9.2008705,2.2768741,34.4045792,0.8091603,-7.5114503,1.2330076,4.2808108,0.1029501,-26.4809170,-35.5725174,-31.3053436
3520,2.3582766,9.1841106,2.1547706,34.1068687,1.3358779,-5.0610685,1.6065011,4.5250182,0.2489957,-27.5114498,-34.1832047,-40.6793900
3530,2.5282640,9.2008705,2.0901275,33.9923668,2.0763359,-4.1145039,1.9273225,4.9894910,0.0359128,-25.1526718,-31.7709923,-52.2290077
3540,2.5378408,9.0093346,2.0542145,33.4580154,1.4732825,-4.0152674,1.9009864,5.8011212,-0.5315101,-22.8625946,-22.3053436,-63.9007645
3550,2.6455793,8.8082228,1.8339491,32.9312973,0.5954198,-3.3587787,1.7573351,6.5337429,-1.3383518,-19.5419846,-8.1908398,-73.7328262
3560,2.6407909,8.7818871,1.5059452,31.0992374,-0.8015267,-2.9160306,1.8674678,7.2879128,-1.8842272,-15.8320608,14.9389315,-80.8625946
3570,2.8275378,8.7531567,1.4077834,28.8091602,-1.9160305,-3.3511450,2.3654592,7.9511032,-2.2840567,-12.3816795,44.0458031,-87.5419846
3580,2.9807658,8.8106174,1.1539993,26.7862587,-2.7633588,-5.3435116,3.7445123,8.2767134,-3.0430148,-6.0381680,81.1832047,-95.3511429
3590,2.8802099,8.8369532,0.9576758,24.3435116,-1.2748091,-8.1984730,4.9080882,8.2048874,-2.4803803,6.4503818,122.8625946,-112.5114517
3600,2.6934631,8.8034344,0.4333483,20.2213745,1.7404580,-10.7480917,5.3414369,9.2367830,-0.4572902,30.2442741,153.0839691,-134.7328186
3610,2.2337787,8.8968077,-0.1915352,14.1374044,5.1832061,-12.4580154,5.2073622,10.6900558,0.7541697,70.4198456,153.7862549,-153.9236603
3620,1.7286048,9.0117292,-0.4453192,7.7328243,7.5496182,-12.8015270,5.0613165,11.7985659,-0.3088504,115.8167953,147.1526642,-165.1450348
3630,1.2808913,9.0979195,-0.6392486,1.7633588,9.0229006,-11.6717558,5.3677726,12.5096397,-2.6623387,153.2137451,148.0076294,-175.2290039
3640,0.9193687,9.2056589,-0.7996593,-3.4580152,10.2824430,-10.2366409,5.3438311,12.7275114,-5.2696109,178.4732819,150.5190887,-184.9389343
3650,0.6033357,9.2726955,-0.8523315,-8.0000000,10.9541988,-9.2366409,4.7835903,13.1824074,-7.5177550,192.9313049,148.2671814,-198.7099304
3660,0.3854645,9.3038206,-0.8020535,-12.2213745,11.4274807,-9.3511448,3.9336534,13.7067347,-8.9518747,196.4580078,141.4274750,-209.6488495
3670,0.1556223,9.4642305,-0.7374104,-15.9083967,13.4198475,-10.2748089,3.0142846,14.3268299,-10.0077124,194.7022858,146.8091583,-214.9770966
3680,-0.1125269,9.5504217,-0.3806761,-18.3816795,15.2366409,-11.0000000,2.5210814,14.1592360,-10.5487986,194.0152740,159.2061005,-215.9465637
3690,-0.3806761,9.6677370,-0.0407012,-18.8091602,13.9007635,-9.8320608,2.8107784,13.6899757,-10.8600435,195.5190887,174.1297760,-218.1755676
3700,-0.3926471,9.7419567,0.2130829,-18.9923668,10.0458012,-7.1526718,2.8658447,13.2925396,-11.3221216,196.5190887,184.4503784,-224.3053436
3710,-0.3351865,9.5264797,0.5578461,-19.3358784,3.8167939,-3.3358779,3.4260850,12.7370882,-11.2479019,196.2442780,195.9313049,-231.7404633
3720,0.2537841,9.3157911,1.1539993,-18.4045811,-4.1603055,0.3893130,3.2201848,11.8919392,-11.1257982,196.6183167,194.5877838,-242.7022858
3730,0.8236012,9.0979195,1.6855093,-15.7557249,-11.3511448,3.6564887,1.7453641,11.4873209,-11.6884327,193.7709961,172.6717529,-250.1374054
3740,1.4389079,8.7220325,2.1188576,-12.9847326,-14.4656487,7.1908398,0.5027798,11.1210098,-13.2015610,180.5496216,143.1068726,-250.1374054
3750,2.0470319,8.1402445,2.5067163,-10.4580154,-14.1374044,12.2519083,-0.3160330,9.3133974,-13.9820662,149.0076294,119.1450348,-250.1374054
3760,2.8131726,7.7428088,2.8921809,-6.2824426,-14.8854961,18.9541988,-1.3790531,6.7971039,-14.8894644,103.1679382,90.6717529,-250.1374054
3770,3.7062054,7.6111283,2.8371146,0.3129771,-16.0076332,24.1221371,-4.4077029,4.2353210,-15.8279867,50.7328262,63.2213745,-250.1374054
3780,4.5250182,7.6422529,2.4205256,6.6412215,-15.5725193,26.6183205,-7.0053983,1.0702027,-16.4576588,-12.8015270,42.8244286,-235.3893127
3790,5.1403246,7.8625183,1.9823889,11.4809160,-13.7328243,24.8015270,-8.6621771,-3.4189026,-14.8679161,-74.3816757,39.3587799,-197.6641235
3800,5.4084740,8.2527714,1.1635761,13.7251911,-8.5114508,16.6564884,-9.7658987,-9.0284882,-11.3939476,-113.4351120,59.2748108,-159.1145020
3810,4.9272418,8.6454182,-0.1292862,9.3358774,-1.0152671,3.6412213,-9.1553802,-15.1193066,-7.1035600,-119.0839691,64.0839691,-139.1984711
3820,3.7085996,8.8297710,-1.2090657,-2.0839694,9.5343513,-8.2595415,-9.3205795,-19.6131992,-3.5841017,-95.6412201,66.4122162,-142.4503784
3830,2.1427996,8.7914639,-1.6352314,-16.3206100,20.9160309,-15.7022905,-10.6517487,-19.6131992,-2.8203552,-46.5648842,80.9465637,-173.2824402
3840,0.4333483,8.8130112,-1.3862357,-27.1603050,25.9465656,-16.0687027,-12.9765072,-19.6131992,-5.1953912,5.9541984,75.1908417,-236.2900696
3850,-0.7709290,8.8944139,-0.8523315,-31.2748089,24.7709923,-9.2748089,-19.6131992,-19.6131992,-8.1115141,24.4656487,34.4961815,-250.1374054
3860,-1.3742647,9.4235296,-0.5482694,-30.1450386,15.7251911,0.9465649,-19.6131992,-18.6172180,-9.4187412,4.0763359,-44.0228996,-250.1374054
3870,-1.1587877,10.0196829,-0.1795642,-26.1068707,1.7175573,10.1145039,-19.6131992,-10.3812056,-8.3796635,-42.2366409,-138.0839691,-242.9007568
3880,-0.4429250,10.9893293,0.1101327,-21.6106873,-12.5954199,14.8702288,-19.6131992,-3.9959023,-5.2791877,-102.9847336,-219.8473358,-129.7022858
3890,0.4094064,11.8727856,0.2322364,-20.4045811,-21.8015270,14.9923668,-19.6131992,-2.3103929,-0.9169745,-149.7251892,-250.1374054,13.9312973
3900,1.2354017,12.8089132,0.7948709,-20.8854961,-21.2900772,10.1755724,-19.6131992,-5.1187773,3.4596038,-151.3206177,-250.1374054,159.2671814
3910,1.7070571,13.2326851,1.5346755,-21.7633591,-15.9923668,2.3587787,-19.6131992,-10.7906122,4.1036406,-105.8473282,-250.1374054,250.1297760
3920,2.0685797,13.6181498,1.9799947,-22.1679382,-6.6412215,-5.8473282,-17.0083218,-15.9931860,1.0414724,-41.6641235,-250.1374054,250.1297760
3930,2.2505381,13.8455973,2.6862805,-21.0610695,2.6183207,-12.8778629,-8.8656836,-18.2604828,-3.6463506,11.0916033,-238.6106873,250.1297760
3940,2.2553265,13.8288383,3.1148405,-18.9847336,11.4198475,-18.6641216,-5.8681583,-16.8670654,-7.4291697,39.1526718,-181.3740387,250.1297760
3950,2.1212518,13.8312321,3.7493007,-13.9694653,18.0763359,-22.5114498,-5.1882086,-13.2398672,-8.7866755,47.7251892,-133.3816833,250.1297760
3960,1.8100072,13.9485474,4.2377152,-4.2519083,19.6106873,-23.1068707,-6.8354111,-9.4929609,-9.6054878,37.0610695,-115.0305328,242.4809113
3970,1.8626794,13.5391417,4.6638808,9.4274807,15.4427481,-22.6488552,-7.7236552,-6.0884237,-10.3333216,12.4198475,-123.5343475,240.9084015
3980,1.6831152,13.3978844,4.2927818,24.4809170,10.1832066,-18.1297703,-6.4643116,-3.6822634,-9.8544836,-20.0687027,-154.5343475,237.6335907
3990,1.8483143,13.1488886,4.3981261,39.1145020,3.2290077,-14.3893127,-4.4196739,-1.6352314,-9.4546537,-56.1297722,-201.4503784,221.4656525
4000,2.1787124,13.2207146,4.1299767,54.3206100,-5.9923663,-11.8778629,-3.2752512,-0.2729376,-8.1258793,-91.0000000,-250.1374054,198.5114441
4010,2.8419030,12.9262285,3.6104376,64.6946564,-11.6106873,-13.7709923,-1.3646880,0.8571198,-6.1410961,-112.4885483,-250.1374054,172.6030579
4020,3.2489152,12.4689388,2.9233053,69.7557220,-11.4885492,-19.5343513,0.2059003,1.4604555,-4.1922259,-115.2977066,-250.1374054,142.9923706
4030,3.4500270,11.8847561,2.2984219,69.0992355,-6.9770994,-27.1145039,0.9145803,2.5162930,-1.9033806,-96.9236679,-250.1374054,114.5343475
4040,3.1531475,11.0587606,1.4508789,63.4045792,-0.5190840,-35.2595406,-0.6560079,4.5010762,0.0311245,-60.5877876,-223.0686951,93.2977066
4050,2.5043221,10.3572636,0.8355721,54.4885483,4.2442746,-41.6412201,-2.7365584,7.2136927,0.4189832,-17.1755733,-161.5801544,82.3587799
4060,2.0206959,9.3612804,0.2920911,44.3511467,7.7557254,-46.8778610,-4.5992379,9.9191265,-0.2178712,19.2748089,-113.9923630,83.1908417
4070,1.3575054,8.3293848,0.0981618,35.2213745,9.7251911,-49.8473282,-5.2767935,11.8440552,-1.6591733,38.2519073,-87.8549652,88.1908417
4080,0.7996593,7.4100165,0.0359128,27.8396950,9.5496187,-50.2366409,-5.4419928,13.5511122,-3.2872221,41.8473282,-79.4045792,86.2595444
4090,0.2250538,6.4092450,0.0981618,22.9465656,6.0763359,-48.2900772,-6.1961622,14.3579540,-4.7309184,35.2671738,-77.1908417,80.9236679
4100,-0.3136388,5.4324160,0.1628049,20.3511448,-0.5343512,-43.1450386,-7.1298962,15.3371773,-5.0996237,25.0076332,-76.7251892,77.3358765
4110,-0.7541697,4.6782460,0.3280039,18.0229015,-9.9083967,-33.7862587,-7.8625183,16.1009235,-4.8961172,18.4580154,-74.6488571,80.1068726
4120,-0.7469871,4.2640514,0.5985473,16.6564884,-20.0687027,-22.7786255,-7.6901364,16.1703548,-4.7548604,18.3358784,-66.5114517,88.3435135
4130,-0.3878587,3.9480183,0.8619082,16.6259537,-24.3664131,-13.5419846,-6.9982157,16.0075512,-4.4412212,21.3129768,-51.4045792,93.8015289
4140,0.0047884,3.7684543,0.9935886,15.1145039,-21.4351139,-6.1984735,-6.1913738,15.7058830,-4.2544746,25.6870232,-34.2290077,97.9312973
4150,0.3351865,3.5984666,1.0702027,12.7938929,-14.3664122,-0.9770992,-5.7029591,15.0450869,-3.7804251,31.8320618,-14.3511448,102.3893127
4160,0.9289455,2.6743097,1.0103480,5.8549619,8.2824430,3.2442749,-5.4276276,13.4768925,-3.0023136,50.5572510,6.6412215,105.3053436
4170,0.6584021,2.7461352,0.5003856,2.4122138,24.9160309,6.3358779,-4.2185616,11.4202833,-4.1539187,56.4503822,-0.4122137,100.2290039
4180,0.4620786,3.1507533,-0.1556223,-2.4503818,30.3664131,9.6259546,-3.2632802,10.2279778,-4.4819226,49.0916023,-10.3511448,90.8396912
4190,0.5315101,3.7612717,-0.3806761,-7.9312978,32.5343513,12.9465647,-2.5354466,9.3517036,-3.8953462,40.9312973,-15.1068707,81.9007645
4200,0.3567342,4.5848727,-0.8355721,-12.2595415,32.7633591,17.8778629,-2.3630650,8.6047173,-2.5833304,39.2213745,-7.8244276,75.2213745
4210,0.4165890,5.4012914,-1.6112895,-19.0763359,31.8854961,23.8931293,-2.4588325,7.7811155,-1.5801650,44.3511467,5.0305343,72.2519073
4220,0.7781116,6.1913738,-2.1308286,-30.0992374,29.8931293,29.8015270,-2.7413468,7.2496057,-1.2114599,52.1221390,18.0992374,72.7022934
4230,1.0797794,7.2160869,-2.5569944,-44.6717567,28.2366409,34.7328262,-2.8778157,6.4930420,-1.5107336,57.8473282,30.6488552,74.2671738
4240,1.3359578,8.2336178,-2.5498118,-62.0763359,27.0305347,39.1679382,-2.7820482,5.8729467,-1.7836711,58.4198456,36.7786255,75.2061081
4250,1.7788827,9.4019823,-2.0781565,-80.0229034,25.9694653,40.5190849,-2.7269819,5.1044121,-2.2098370,53.8167953,39.0076332,75.1526718
4260,1.9512644,10.4362717,-1.2928623,-93.9542007,22.5114498,38.9160309,-2.8012016,4.5872669,-2.2864509,44.9083977,34.5190849,74.2137375
4270,1.9991482,11.2838144,-0.1819584,-102.4274826,17.0763359,35.0763359,-2.8251436,3.9552009,-2.0685797,32.8625946,24.7709923,73.7557220
4280,1.8459201,11.9996777,0.8834559,-103.9694672,10.5954199,31.4809170,-2.4660151,3.1770895,-1.5011568,21.5343513,13.0381680,71.7557220
4290,1.5825592,12.4569674,1.7238164,-100.2748108,5.6793895,29.6030540,-2.2792683,2.4085546,-0.8212070,13.0458012,4.1526718,68.8778610
4300,1.3144100,12.9334116,2.4755919,-92.3053436,1.0534351,30.8549614,-2.0661855,2.0230901,-0.2394189,7.7557254,-2.2748091,64.9312973
4310,1.4772149,13.2638092,3.0621684,-80.4809189,-3.7328243,33.6488533,-1.9345051,1.5418580,0.0957676,4.6183205,-5.8167939,63.1755714
4320,1.6950861,13.6803989,3.2489152,-67.5648880,-8.8015270,36.0534363,-1.8291607,1.2976507,0.2777260,2.5496182,-3.8473282,61.9541969
4330,2.0326669,13.9940376,3.3015873,-56.2900772,-14.1908398,36.4656487,-1.7309990,1.3048333,0.3950413,1.0534351,0.2366412,63.4198456
4340,2.5306582,14.2190914,3.4380560,-47.0076332,-19.5648861,32.8625946,-1.3168042,1.3527170,-0.2370248,-3.6641221,1.1526718,65.5496216
4350,3.1124463,14.3411951,3.5386121,-40.3053436,-23.9389305,24.4809170,-0.4548960,1.4101776,-0.5817881,-11.8702288,2.2824428,66.9083939
4360,3.6343796,13.9653072,4.0294209,-34.9465637,-24.1374054,11.6106873,0.3758878,1.5634058,-0.5482694,-20.5419846,4.0534353,65.2061081
4370,3.4596038,13.4721041,4.6447277,-27.9694653,-19.5190830,-3.4885497,1.1085097,1.6807210,-0.4572902,-28.2290077,4.4122138,62.2366409
4380,3.1172347,12.8280668,4.6327567,-20.9770985,-13.6412210,-16.9923668,1.6783268,2.0805507,-0.2729376,-33.4351158,2.0229008,55.5114517
4390,2.3032103,12.1361465,4.2903876,-15.9694653,-9.5190840,-27.8473282,1.9680238,2.8299320,-0.3327923,-36.1526718,-2.1374047,46.7480927
4400,1.5394639,11.2646618,4.3430595,-10.1145039,-8.3740454,-35.4809151,2.3774302,3.4548154,-0.9217629,-40.0534363,-4.3282442,35.0228996
4410,0.9217629,10.3644457,4.2448978,-3.4045801,-10.0381680,-39.4351158,3.0071020,4.0773048,-0.9050036,-43.8167953,0.4122137,21.0381680
4420,0.3639168,9.4211359,3.9360476,3.0229008,-12.9847326,-39.7404594,2.4516499,5.0804701,-0.9002152,-45.0763359,19.7786255,9.0534353
4430,-0.0837966,8.8632889,3.5457945,8.4580154,-16.7175579,-37.4351158,0.5434810,6.4260044,-1.7836711,-44.8931313,64.2290039,5.9236641
4440,-0.7038917,8.3245964,3.1938488,11.5954199,-18.6335869,-31.5572510,-2.2720859,8.6741486,-2.6048782,-45.2442741,123.2366409,15.6259546
4450,-0.8571198,8.0396881,3.0214672,13.8931293,-19.5343513,-22.0687027,-3.4835455,9.8784256,-2.6288199,-43.8473282,171.0763397,37.5114517
4460,-0.7709290,7.6709828,2.7748656,15.2824430,-19.6183205,-9.5954199,-2.6958573,10.0125008,-1.3263810,-44.8320618,192.8549652,58.1297722
4470,-0.2178712,7.4579000,2.6192431,16.3511448,-20.7328243,3.3740458,-0.8571198,9.9741936,1.3694763,-36.7251892,201.8244324,65.4961853
4480,0.7589580,7.4339581,2.5162930,16.2900772,-24.5572510,14.2824430,0.3854645,10.5296450,3.6367738,-7.8015265,213.3664093,68.2290039
4490,1.7453641,7.4315639,2.6862805,16.3282452,-28.3969460,20.9160309,0.6392486,11.3676119,4.9104824,44.1297722,222.1297760,76.2137375
4500,2.5354466,7.5871863,2.9209111,18.0305347,-30.2366409,24.3664131,2.6264257,12.4880924,3.1004753,106.7633591,222.9541931,80.7557220
4510,3.0861101,7.6470413,2.6383967,19.2213745,-27.6488552,24.1297703,5.5617023,13.2278967,-0.7757174,154.3129730,212.4427490,70.9007645
4520,3.4955165,7.7859039,2.2625091,18.2748089,-19.8625946,20.9770985,8.3030491,13.8264437,-4.8195033,170.8015289,186.0763397,49.5419846
4530,3.2872221,8.0061693,1.5849534,14.6793890,-6.2824426,16.8091602,10.8720140,14.5423069,-7.9582858,161.1145020,151.6793823,22.9007626
4540,2.7054341,8.3102312,0.7374104,7.7022901,8.7251911,13.1832066,12.4449968,14.4944229,-9.4762020,138.2900696,110.7251892,-5.1450381
4550,1.8746504,8.7890692,0.2130829,-0.9007633,20.4961834,11.1984730,13.7163115,14.1879663,-9.2296000,116.6870193,70.4580154,-33.2977104
4560,1.1803354,8.8752604,0.1292862,-8.6030531,23.3816795,11.0152674,14.4656925,13.5223818,-7.8050575,109.5877838,44.0076332,-60.1297722
4570,0.4620786,9.0739784,0.1987177,-12.8778629,18.9236641,13.8244276,14.7721491,12.7993364,-7.1610208,114.0839691,31.4122143,-86.5801544
4580,0.0933734,9.2726955,0.4429250,-14.0076332,9.1908398,18.9847336,14.6715927,12.1696653,-6.6319046,122.6717529,33.0152664,-107.0305328
4590,0.0790083,9.5959110,0.7972651,-13.2671757,-3.2137403,24.6488552,14.7266598,11.7195578,-6.2296810,131.6106873,45.3664131,-121.7862625
4600,0.4477134,9.7658987,1.1013272,-12.0839691,-12.6106873,28.3893127,15.3587255,11.4968977,-5.5090299,144.1068726,64.1526718,-136.4351196
4610,0.9050036,10.1298151,1.5442522,-10.1832066,-17.1374054,29.9389305,14.7506008,10.7690639,-5.7819676,158.7404633,85.1068726,-152.3435059
4620,1.2425843,10.2160063,1.8076130,-7.0000000,-16.1984730,29.6717548,12.8807392,10.5009146,-7.1011658,166.7328186,93.2213745,-166.2977142
4630,1.5394639,10.3500814,1.6831152,-6.0610685,-12.2061071,27.9923668,10.8193426,10.6038647,-8.8608952,158.6564941,88.9236679,-171.6793823
4640,1.8387375,10.5631638,1.7070571,-7.1450381,-8.7175570,24.9694653,8.7411861,10.1729107,-10.0460186,134.6030579,71.6335907,-171.1679382
4650,2.1475880,10.6876621,1.8674678,-8.8244276,-6.1679387,19.9236641,6.7851329,9.0500364,-10.0675669,105.9083939,46.9923668,-164.8854980
4660,2.3415172,10.5368280,1.9895715,-10.8396950,-5.2900763,14.4809160,5.4707227,7.0221577,-9.6390066,81.4351120,26.8931293,-156.3969421
4670,2.2409613,10.3596573,2.2170193,-12.3893127,-5.9923663,9.2290077,4.3406653,3.8283088,-8.7124557,67.9312973,21.9389305,-152.0000000
4680,2.3199697,10.0651722,2.6312141,-12.7251911,-7.1068702,5.1297708,1.8387375,0.3064562,-8.0612354,68.7709961,31.4503822,-152.6488495
4690,2.1427996,9.8640604,3.0717452,-11.2748089,-5.5648856,2.7786260,-1.8698620,-2.8562679,-8.9399033,83.1068726,53.7633591,-147.8854980
4700,1.9560528,9.8329363,3.3015873,-8.5419846,-2.8396947,1.9083970,-5.6718349,-5.6167684,-10.4338779,100.4656525,96.7862625,-139.8091583
4710,1.9680238,9.7156210,3.2824337,-6.8015265,1.3893130,1.7557251,-12.0212250,-8.9973640,-10.3189564,114.8778610,122.8931274,-138.1984711
4720,1.9560528,9.7778702,3.3422885,-6.3282442,5.5877862,1.9007634,-18.1144371,-11.6644907,-10.0388365,123.0152664,92.4580154,-160.6870270
4730,2.1427996,9.9047613,3.5050933,-5.4809160,8.6717558,0.8702290,-19.6131992,-10.0292597,-11.9326401,108.8320618,14.7251911,-199.0534363
4740,2.1547706,9.8185711,3.4835455,-3.7480917,10.5725193,-1.2366412,-19.6131992,-7.2017217,-14.0730457,53.9236641,-75.2442780,-200.9389343
4750,2.2242019,9.7228031,3.4955165,-1.6412214,10.8320608,-3.9160306,-19.6131992,-4.7021880,-12.0954447,-12.0381680,-85.6259537,-176.7938995
4760,2.0613971,9.6054878,3.5242469,0.7786260,10.4198475,-6.3664122,-19.6131992,-0.6153067,-4.8865409,-32.8931313,-47.8167953,-138.1603088
4770,1.7908537,9.4857788,3.3542595,4.3206105,12.2519083,-9.0992365,-19.6131992,3.6248028,0.2801202,23.2137413,14.9007635,-18.0305347
4780,1.7238164,9.5671806,3.1411765,4.3664122,14.7709923,-9.0839691,-19.6131992,3.5457945,-2.2074428,37.6335869,14.5343513,51.8015251
4790,1.5227045,9.5911226,3.1387823,3.5419848,17.7251911,-7.9007635,-19.6131992,2.6647329,-4.8554163,20.3129768,-15.6793890,119.0076370
4800,1.4484847,9.7323799,3.1627243,3.1832061,20.2137413,-5.9770994,-19.6131992,-0.0047884,-6.7803445,-9.1374044,-55.9771004,161.3816833
4810,1.6519908,9.9574337,2.9568241,7.4045801,18.4045811,-1.4732825,-5.2121506,-3.2273674,-5.9184365,-58.3358765,-90.3664093,150.9160309
4820,1.4580613,10.0292597,2.7437410,9.2519083,14.4580154,-0.8778626,-4.2784166,-2.9256995,-5.5521255,-46.2595406,-68.1908417,139.0381622
4830,1.4269369,10.0508070,2.5019281,10.0992365,11.1297712,-0.2442748,-3.5314295,-1.5322813,-6.1099715,-35.9923668,-56.0228996,128.0534363
4840,1.3096216,10.1034794,2.6934631,11.0916033,9.3129768,0.8396947,-3.2130022,-0.6560079,-6.5935979,-36.7328262,-51.1145020,120.8396912
4850,1.2737088,10.1705170,2.6336083,12.4427481,9.9160309,2.8396947,-2.7581062,0.0454896,-6.3493905,-47.4427490,-54.8854980,118.0381699
4860,1.1252691,10.3500814,2.6455793,12.0992365,10.9160309,3.2824428,-2.1882892,1.0175306,-5.4395986,-56.2671738,-67.9007645,113.0916061
4870,0.9265513,10.3405046,2.7317703,10.5114508,10.2748089,1.3435115,-1.7429699,1.5681942,-4.8673873,-58.1832047,-87.2213745,106.7022934
4880,0.7374104,10.4362717,2.7772598,7.6106873,8.7938929,-3.5190840,-0.6560079,2.2026544,-4.9056940,-55.1603050,-99.9312973,99.4045792
4890,0.4477134,10.2495251,3.1459649,5.7251906,6.6870227,-9.2137403,0.9600700,2.5378408,-5.1139889,-49.5725174,-100.3053436,88.7251892
4900,0.2346306,10.0460186,3.5625539,6.5725193,8.2519083,-14.6106873,1.5274929,3.1076579,-5.2767935,-42.6030540,-90.7786255,73.8778610
4910,-0.0670373,9.6437950,3.8570392,10.1679392,14.4503813,-18.7251911,1.7717001,4.1874375,-5.2169390,-33.9389305,-78.5190811,59.8931313
4920,-0.2178712,9.4139528,4.2448978,17.7404575,26.5114498,-20.7480907,1.5466464,5.0924411,-4.9703374,-24.0076332,-67.2595444,48.7022896
4930,-0.5506636,9.3636751,3.9575951,28.1145039,42.6412201,-19.6106873,1.2641320,6.0620875,-5.2193332,-12.9007635,-59.0458031,36.1908379
4940,-0.7589580,9.1888990,2.9328821,35.8091621,56.4961815,-15.3053436,0.4261657,7.0269461,-5.8513989,-3.7251909,-57.6870232,25.1832066
4950,-0.8571198,9.1410151,2.0422437,40.5801544,61.5419846,-8.1526718,-0.3830703,7.8361821,-6.8425937,0.0229008,-61.8091621,16.3587780
4960,-0.2442073,8.7842808,1.1444225,42.9160309,56.5954208,2.3587787,-0.4884146,8.7483683,-8.0540533,-3.1603053,-66.5267181,7.5954199
4970,0.4644727,8.7411861,0.7924767,40.8854980,43.8931313,12.0839691,-1.2066715,9.2391768,-8.9925756,-15.7251911,-72.9847336,0.5954198
4980,1.6974803,8.4945841,1.0845678,42.2671738,26.8702297,19.6946564,-2.0470319,9.4929609,-9.3828287,-33.7709923,-79.9389343,1.4351145
4990,2.8921809,8.2934723,0.7996593,43.4809151,8.8549614,24.5114498,-2.6671271,9.5959110,-9.1745338,-51.9771004,-82.5648880,8.7557249
5000,3.9408360,7.9989872,0.8068419,41.9389305,-8.4656487,28.4885502,-2.6096666,9.1984758,-8.4826136,-66.3740463,-83.9083939,16.0763359
5010,4.9870968,7.7571740,0.7637464,38.5114517,-20.2290077,31.5725193,-1.9704180,8.7148495,-7.7715387,-75.7862625,-82.2595444,21.2977104
5020,5.8490047,7.4938130,0.9361281,33.5419846,-26.8015270,34.6946564,-1.1204807,8.1067257,-7.0053983,-80.1068726,-77.1908417,20.7557259
5030,6.6295104,7.2687593,0.8140244,29.0992374,-28.0610695,36.9847336,-0.5913648,8.3102312,-6.2608056,-81.4885483,-70.8625946,14.8473282
5040,7.5895805,7.1658092,0.8786675,24.7633591,-26.9083977,36.2061081,-0.7398046,8.7028790,-5.4611464,-82.6412201,-66.6641235,11.7557249
5050,8.3126259,7.2711535,0.5602403,20.0458012,-22.3816795,29.9923668,-1.0127422,9.1936874,-4.6279683,-82.8473282,-66.2213745,12.3358774
5060,8.5879574,7.4770536,-0.0742199,12.3587790,-12.7709923,18.2137413,-0.8044477,9.5408449,-3.6463506,-80.6030502,-66.3511429,14.8015270
5070,8.1450329,7.6446471,-0.7206510,1.7862595,-1.3435115,3.8167939,-0.4309541,9.6629486,-2.8634505,-73.7938919,-63.0534363,16.9770985
5080,7.0772243,7.8218169,-1.4365137,-10.5419846,11.9770994,-10.5267172,-0.3016679,9.7706871,-2.6431851,-61.7480927,-56.2748108,18.1679382
5090,5.7747850,7.8912482,-1.9895715,-23.1679382,23.0000000,-23.9694653,-0.0167593,9.6102762,-2.7748656,-47.5648842,-49.1526718,16.7862587
5100,4.1036406,7.8098459,-2.3415172,-36.2671738,29.9007626,-34.3587799,0.4094064,9.7299862,-3.3997490,-33.6717567,-39.8396950,14.0916033
5110,2.3726418,7.8960366,-2.5785420,-48.1832047,30.5343513,-40.1221390,0.9313397,10.2471304,-4.0318151,-22.9847336,-25.5954189,11.9007635
5120,0.5123565,8.1833391,-2.4731977,-58.7328262,25.9160309,-40.4732819,1.2162483,10.5009146,-4.3095412,-14.6106873,-5.4198475,10.8015270
5130,-0.7829000,8.2982607,-1.9823889,-67.1145020,17.1832066,-35.1450386,1.0941446,10.6996326,-4.1611013,-4.8320613,15.1755724,10.3053436
5140,-1.9105632,9.1290445,-0.9792235,-71.1068726,5.8931298,-26.8320618,0.8188128,10.8456783,-3.7612717,7.9465647,30.8320618,10.5343513
5150,-2.4420733,9.8544836,0.0502780,-69.6335907,-11.2442751,-17.9083977,0.6751614,10.9151096,-3.4667864,23.6564884,45.6488533,12.6106873
5160,-2.4947455,10.5320396,0.9576758,-64.3740463,-26.7938938,-8.8473282,0.6679789,10.8097658,-3.9192882,39.2366409,62.8167953,15.2061071
5170,-2.1930776,11.5136566,1.9488702,-56.4274826,-38.0687027,-1.3435115,1.0486550,10.4410601,-4.8625989,50.1526718,82.8320618,18.0839691
5180,-1.4987626,12.3276815,2.7820482,-48.4961815,-42.5038185,4.6946564,1.7740943,10.2184010,-5.8370337,54.8320618,96.7862625,19.6030540
5190,-0.5578461,12.9932661,3.4021432,-41.8473282,-41.7557259,7.3587785,2.6862805,9.8496952,-6.9120250,46.9694672,93.0000000,20.5419846
5200,0.2082945,13.4888630,4.1108232,-36.2290077,-36.0228996,8.5038166,3.4452386,9.2870607,-7.2998838,25.9312973,81.9923630,20.2671757
5210,1.1875180,13.8455973,4.9200592,-29.5877857,-29.3358784,6.5801525,3.9168940,8.9446917,-5.9208307,7.2748094,75.7709961,14.6641226
5220,3.5625539,13.8934813,6.9551206,30.1450386,-9.0076332,-25.1450386,11.5639353,9.9598284,-3.3877780,12.7786255,-2.7328243,-21.5114498
5230,3.4380560,13.5008345,6.5648675,40.1832047,-6.1984735,-30.2824421,13.5535069,10.2543135,-3.0142846,21.7099228,4.9541984,-38.0534363
5240,3.2896163,13.0267849,6.1650376,47.3893127,-7.0534353,-35.6259537,14.9756546,10.7235746,-2.3798244,44.5343513,20.2442741,-59.8396950
5250,3.1866663,12.2726154,5.6335278,52.6259537,-9.0687027,-43.0687027,16.1416245,11.6429434,-2.8155668,76.8549652,38.9312973,-85.3893127
5260,2.7796540,11.5112629,5.3773494,58.5038185,-10.5801525,-50.1526718,15.3252068,12.6820211,-5.4156566,104.6030502,59.3282433,-111.4503784
5270,2.2936335,10.5847120,4.8841467,63.9618340,-12.2290077,-55.7175560,13.6181498,14.2621870,-9.5839405,111.5419846,70.0000000,-129.1297760
5280,1.6687500,9.6557665,4.3263001,68.1526718,-12.5801525,-59.0000000,11.9637651,15.2581692,-12.6293497,91.4274826,62.5877876,-136.7328186
5290,1.2162483,8.7747040,3.8809812,70.5877838,-9.1679392,-58.9618340,10.4243011,15.6172981,-14.2310619,56.9007645,48.9312973,-135.8396912
5300,0.4860204,7.8697009,3.3063757,72.6717529,-4.7251906,-55.7862587,9.5169029,14.6859579,-14.2119083,18.2900772,29.8091602,-121.4198456
5310,-0.0407012,7.0891948,2.8203552,73.7633591,-0.6870229,-49.1526718,7.9822278,11.0204544,-12.2486734,-7.2366414,25.7862587,-105.2061081
5320,-0.1316804,6.1387019,2.1140692,76.2824402,1.0916030,-40.6641235,6.7587967,6.5505023,-9.4211359,-8.5725193,40.6259537,-93.0229034
5330,-0.0885850,5.7269011,1.0821736,75.2213745,4.4580154,-33.4656487,5.0086441,0.4405309,-6.4619174,18.9160309,79.6717529,-92.9160309
5340,-0.1460456,5.5880380,0.0694315,69.3129807,6.3664122,-28.5801525,2.5234756,-5.1762376,-4.4723458,71.5496216,135.9923706,-107.3587799
5350,-0.4405309,5.3007355,-0.5458752,59.8320618,4.0839696,-26.0458012,-0.8236012,-10.6972389,-3.4428444,139.8549652,186.2595367,-134.8702240
5360,-0.6129125,4.9847026,-0.8858501,50.0228996,0.3358779,-23.0534344,-5.5832496,-15.3730907,-5.2097564,204.9313049,197.7480927,-180.5801544
5370,-1.0965388,4.5106530,-0.8595140,41.7328262,-3.5267177,-17.9312973,-11.2862091,-17.8750191,-11.0324249,223.3053436,166.3129730,-242.2137451
5380,-1.3886299,4.3095412,-0.6823440,36.4503822,-9.2671757,-8.2213745,-17.6284161,-18.7105904,-17.7600975,171.8854980,90.4274826,-250.1374054
5390,-1.6112895,4.0294209,-0.7038917,33.5038185,-12.6412210,3.8931298,-19.6131992,-17.2597122,-19.6131992,59.9007645,3.5496182,-250.1374054
5400,-1.6495966,3.8690102,-1.1156923,30.5190830,-12.3129768,16.6412220,-19.6131992,-13.4361916,-18.9547977,-75.4198456,-59.0916023,-250.1374054
5410,-1.5681942,3.8067613,-1.5394639,24.0305347,-13.4809160,30.0152664,-19.6131992,-5.5832496,-9.8999729,-176.7099304,-109.5572510,-250.1374054
5420,-0.9959828,4.0868812,-1.6017127,15.7480917,-16.9541988,42.6946564,-19.6131992,1.6950861,-1.1396341,-221.4656525,-150.9541931,-250.1374054
5430,0.1675933,4.5178356,-1.1635761,9.3435116,-16.6717548,50.1526718,-19.6131992,4.0796990,5.1259594,-219.3129730,-171.8244324,-104.1679382
5440,0.9289455,5.1235652,-1.0462608,4.1679387,-14.0687027,53.7709923,-19.6131992,2.1212518,7.8577299,-189.4732819,-189.9007568,56.4580154
5450,1.4867916,5.5760674,-1.0295014,-0.7251908,-13.0381680,54.8396950,-19.6131992,-2.7102225,8.1186962,-143.5190887,-214.3282471,185.9160309
5460,2.0877333,6.2608056,-0.8475431,-6.1908398,-9.8854961,55.0534363,-19.6131992,-7.8385763,5.5688848,-90.3816757,-225.1755676,250.1297760
5470,2.1978660,6.9455438,-0.7781116,-12.2824430,-5.0229006,55.4809151,-12.7107515,-11.1856527,1.7429699,-38.7633591,-197.5725250,250.1297760
5480,2.2577207,7.4698710,-0.6105183,-20.1603050,-1.3587786,57.0458031,-5.5760674,-11.0348196,-2.2361729,-6.2519083,-150.2213745,232.8091583
5490,2.1930776,7.9032192,-0.2753318,-28.2137413,0.1068702,59.3816795,-5.4443870,-9.1505919,-4.4316444,1.0992366,-109.1984711,195.7404633
5500,2.0973101,8.4921904,0.0718257,-34.9160309,-1.6946565,63.1297722,-7.5464849,-6.7372489,-5.4300218,-10.2137403,-107.2824402,173.6335907
5510,2.1715298,9.0644016,0.4716553,-40.4274826,-4.9847326,66.0305328,-9.0093346,-5.0062504,-6.0189924,-29.9770985,-142.9389343,162.9770966
5520,2.0422437,9.9287033,0.7781116,-43.7251892,-6.7938933,68.1603088,-7.6422529,-3.1339941,-6.8354111,-57.4732819,-200.9160309,154.4427490
5530,2.0087249,10.9629936,1.3527170,-44.8473282,-9.7786255,69.5954208,-4.8961172,-1.8100072,-7.2424231,-89.7557220,-250.1374054,140.0686951
5540,2.4253139,11.6453371,1.6998745,-42.5572510,-12.9083967,68.1068726,-1.5586174,0.0861908,-6.5648675,-113.8091583,-250.1374054,116.0305328
5550,3.2297616,12.4569674,1.7740943,-40.3587799,-13.9236641,59.8396950,-0.0478838,2.1020982,-5.1522956,-121.0305328,-250.1374054,87.3664093
5560,3.6104376,13.1632538,1.9560528,-38.5038185,-14.1908398,46.0839691,0.2633608,4.3071470,-4.4292507,-113.2671738,-250.1374054,63.4656487
5570,3.8211265,13.4721041,2.1404054,-37.0228996,-12.7557249,30.5343513,-0.7829000,6.1794028,-3.1579359,-96.5419846,-250.1374054,47.4427490
5580,3.8067613,13.6013899,2.3702476,-35.4961815,-7.9389315,14.1603050,-2.4971397,8.4179697,-2.5593886,-73.9923630,-241.5954132,38.8931313
5590,3.2608860,13.3092995,2.7174051,-32.7175560,1.4580153,1.0534351,-4.0916696,10.5655584,-2.9304879,-54.5877876,-220.2595367,34.5114517
5600,2.7102225,12.8184900,2.8969693,-27.0458012,11.4351149,-7.0305343,-4.7764082,12.1385403,-3.4021432,-45.9389305,-209.2671814,32.8473282
5610,2.1164634,12.2797976,2.4755919,-21.1450386,19.7709923,-10.5419846,-4.9894910,13.5487185,-3.2944047,-39.5343513,-203.2824402,33.0152664
5620,1.7573351,11.8081427,2.1499822,-14.9465647,25.7786255,-9.7786255,-4.8290801,14.9828377,-3.2130022,-29.6870232,-190.6564941,34.6106873
5630,1.5681942,11.5519638,1.8626794,-7.6030536,27.7480907,-6.7557254,-4.6926112,16.1009235,-3.2944047,-17.4122143,-169.3206177,36.3282433
5640,1.9081690,11.4418316,1.2449785,-1.5725191,22.7328243,-4.2290077,-4.5274124,16.8814297,-3.5649481,-5.2290077,-144.7709961,39.2519073
5650,2.2744799,11.2287483,0.9050036,2.2519083,15.1374044,-4.3435116,-4.8458395,17.7146072,-3.6152260,5.3816795,-120.1908417,46.6793900
5660,2.7365584,10.6972389,0.7493813,4.9618320,6.5801525,-5.5572519,-5.0637107,18.1982346,-3.6367738,16.2977104,-90.5190811,60.8549614
5670,3.0094962,10.0555954,0.5937590,6.1068702,-3.1526718,-6.6183205,-5.0445571,17.8367119,-3.7684543,24.3969460,-58.9541969,73.9236679
5680,3.2944047,9.2655134,0.7924767,7.8091602,-15.0229006,-4.9312978,-4.9679432,17.4727955,-3.6104376,30.0229015,-34.3816795,85.8549652
5690,3.6870518,8.6645718,1.1132981,12.3587790,-28.1297703,-0.9770992,-4.8266859,17.0322647,-3.1459649,35.3435097,-14.5496187,101.1374054
5700,4.1611013,8.1282730,1.2808913,20.0610695,-39.4885483,3.7633588,-3.9216824,15.9381189,-2.3822186,41.2290077,4.0610685,113.5038147
5710,4.5920553,7.9343438,1.0845678,28.3511448,-45.4656487,8.0152674,-3.0094962,14.7793312,-1.9656296,49.0687027,15.9923668,119.4732819
5720,5.0541339,8.1067257,-0.4453192,32.2671738,-35.5267181,8.4351149,-1.1276633,12.4042959,-1.9776005,61.9007645,25.7099228,116.8931274
5730,4.7931671,8.4610653,-1.4820032,22.3511448,-20.0000000,2.9083970,-0.2178712,11.1617117,-2.5138988,63.1984749,26.1526718,111.1603088
5740,4.1587071,8.6406298,-2.2122312,6.0229006,-1.4045801,-4.7633586,0.6224893,9.7802639,-2.7557120,60.0610695,22.5419846,103.0152664
5750,2.9807658,8.7866755,-2.3319404,-11.3587790,15.8702288,-11.5954199,1.2928623,8.6717539,-2.8993635,55.3664131,22.4656487,92.5648880
5760,1.6519908,8.8034344,-1.9273225,-24.7633591,25.4885502,-15.4809160,1.7333932,7.6997132,-2.5976956,51.4580154,26.6488552,80.3664093
5770,0.4405309,8.7890692,-1.3287752,-32.5648842,26.2519093,-14.7786255,1.8842272,6.7420373,-2.0494261,49.3511467,33.5648842,69.1603088
5780,-0.3830703,8.6573887,-0.6607963,-34.5267181,17.6488552,-10.2290077,1.9584470,5.8178802,-1.1324517,51.8396950,42.2977104,56.3053436
5790,-0.9528874,8.7387915,0.3878587,-30.2900772,0.7557252,-2.9465649,1.7333932,5.0397687,-0.4405309,58.1603050,53.1603050,43.1374054
5800,-0.9073978,8.8992023,0.9385223,-21.4122143,-17.3587780,6.0610685,0.9864060,4.5250182,-0.1436514,66.1068726,60.9771004,31.0763359
5810,-0.6416427,9.2200232,1.0845678,-13.3740454,-29.7251911,14.3282442,0.1221037,4.1395535,-0.2466015,72.1297684,62.7862587,23.4885502
5820,0.0670373,9.6916790,0.9289455,-9.7786255,-32.6870232,19.4656487,-0.7493813,3.8737986,-0.4022238,74.2366409,59.7328262,20.0610695
5830,0.7948709,10.2064295,0.5913648,-12.5038166,-27.9236641,21.3282452,-1.1539993,3.6367738,-0.7086801,73.4656525,54.4961815,19.3511448
5840,1.4053892,10.6182299,0.6224893,-19.1832066,-17.3664131,19.2595425,-1.4652439,3.3805954,-1.1899122,69.9389343,49.1297722,22.4809170
5850,1.8291607,11.0779142,0.8188128,-25.7099228,-4.8702292,14.0687027,-1.7764885,3.1411765,-2.0685797,61.5801544,43.4580154,28.1526718
5860,2.0206959,11.2550850,1.2976507,-30.6412220,5.0076337,7.2595420,-1.7190280,2.8251436,-2.6527619,48.2595406,38.0992355,32.3893127
5870,2.2984219,11.2287483,1.7477583,-31.5648861,10.7480917,-0.2977099,-1.6208663,2.3151813,-2.7389526,31.7557259,33.2061081,37.2748108
5880,2.2337787,11.3245163,2.0494261,-29.2824421,13.8473282,-7.0229006,-1.1611819,1.8698620,-2.5593886,15.1984730,27.3816795,37.9771004
5890,2.1044924,11.4370432,1.9297167,-26.4732819,14.9694653,-11.8854961,-0.7158626,1.3982066,-1.9991482,0.2213740,20.8167934,33.9541969
5900,1.9799947,11.5375986,1.8985922,-25.2442741,14.4809160,-15.4198475,-0.4836263,1.1468167,-1.3120158,-11.9847326,12.5725193,28.0152664
5910,2.0278785,11.7411051,2.3391230,-23.3740463,12.6488552,-18.0839691,-0.1651991,1.0965388,-0.6512195,-20.9312973,1.5725191,20.1221371
5920,1.9512644,11.9182749,2.8107784,-19.2595425,10.5496187,-20.5725193,0.3687052,1.3670821,-0.3184272,-26.7328243,-10.3511448,10.6793890
5930,2.0111191,11.8392668,3.2513094,-12.7404585,9.1755724,-22.8931293,1.1061156,1.4580613,-0.1292862,-29.4656487,-16.5267181,-0.1145038
5940,1.9728121,11.8392668,3.4380560,-5.7786260,9.2213745,-23.5419846,1.5418580,1.8578910,0.5171449,-28.0458012,-13.0839691,-11.4732828
5950,2.0661855,11.7818060,3.3782012,1.2977099,11.2977095,-23.3206100,1.8291607,2.7485294,1.0821736,-19.0610695,-1.9618320,-22.2366409
5960,2.0183017,12.0284081,3.5960727,8.2824430,13.9007635,-22.6641216,2.0805507,3.7660601,1.4149660,-4.6870227,12.2671757,-31.5267181
5970,1.9967541,12.1241751,3.4811516,15.5114508,14.6488552,-21.4732819,2.4827745,4.6710634,1.2210367,13.8091602,31.3358784,-39.8015251
5980,1.9201399,12.2271252,3.3901722,21.9236641,12.8167934,-20.4580154,3.1292057,5.7915444,0.9026094,34.8778610,53.7862587,-48.1832047
5990,1.9752063,12.1720591,3.1363883,27.6793900,7.6870227,-19.5114498,3.5003049,7.0676475,0.5985473,59.1374054,71.3969498,-58.6717567
6000,2.3151813,11.8823624,3.0310438,32.6183205,0.1145038,-19.8244267,4.5082588,8.6454182,-0.4165890,86.4656525,82.1374054,-69.8015289
6010,2.6623387,11.7578640,2.9927368,36.6183205,-6.6717558,-21.6106873,5.5784616,9.8544836,-2.3271523,112.3740463,86.6259537,-83.2290039
6020,3.0094962,11.5016861,2.8634505,41.4809151,-10.6793890,-24.6335869,7.0628591,10.7427282,-4.7333126,126.6259537,87.4122162,-100.3816757
6030,3.2680686,11.1976242,2.5713594,44.4656487,-10.9083967,-29.0076332,8.3605099,11.1521349,-6.7923155,130.0534363,87.3282471,-119.3358765
6040,3.2273674,10.6732969,2.1475880,44.5190849,-8.2442751,-34.2519073,9.9023676,11.7027979,-7.3453732,132.0076294,85.8702316,-137.6564941
6050,3.0430148,10.0651722,1.6831152,43.5954208,-4.4809160,-40.2137413,11.2838144,12.3564119,-7.4243813,132.2137451,86.3587799,-151.8625946
6060,2.7724714,9.4857788,1.2401901,41.1450386,-1.4045801,-46.1450386,12.1026278,11.5495701,-5.9160423,137.6717529,93.4122162,-161.0076294
6070,2.2529323,8.9039907,0.7900825,37.4809151,2.7709923,-50.5114517,13.2877512,10.5823174,-3.2752512,166.8091583,105.4809189,-174.6030579
6080,1.6184721,8.1426382,0.4285599,32.6488533,5.9007635,-52.1221390,14.5758257,9.4738073,-2.7628946,216.4809113,118.5114517,-201.4503784
6090,0.8666966,7.3094602,0.2466015,27.2900772,7.2519083,-48.7175560,13.7881374,8.4610653,-4.5298066,250.1297760,108.6488571,-236.8473358
6100,0.1843526,6.5959921,0.1412572,21.4122143,1.0381680,-39.4885483,10.6493549,8.4610653,-8.1689749,250.1297760,78.6946564,-250.1374054
6110,-0.0287303,5.9399838,0.4692611,17.7557259,-9.3893127,-25.2824421,6.4379754,8.8130112,-10.5248566,250.1297760,24.6564884,-250.1374054
6120,0.8116302,6.0118098,0.9073978,15.9618320,-8.1450386,-16.2671757,2.1882892,9.2774839,-12.7753954,250.1297760,-40.3282433,-250.1374054
6130,1.1970947,5.6311336,0.7829000,14.1526718,0.0076336,-8.3282442,-0.5434810,9.5767574,-15.2007084,230.3358765,-85.1374054,-250.1374054
6140,1.4460905,5.1786318,0.8786675,10.4809160,3.9236641,-2.7938931,-1.7621235,9.1817169,-18.0809193,184.6870270,-81.4122162,-250.1374054
6150,1.5729824,4.7764082,0.9433106,7.6030536,4.2213740,1.3129771,-2.7940190,7.7571740,-19.6131992,137.2595367,-16.3664131,-230.9236603
6160,1.9105632,4.2137733,1.1348459,5.7862597,5.2824426,2.3587787,-6.1267309,5.0349803,-19.5653172,100.6106873,91.7709961,-183.3053436
6170,2.5546002,3.8618276,1.5418580,9.4809160,4.1526718,-0.9618320,-10.0053177,1.6615674,-16.8742466,91.3587799,230.6870270,-116.6259537
6180,2.5761478,3.6415622,0.9983770,13.0152674,3.9160306,-4.3435116,-11.9182749,-3.2560976,-11.6668854,117.8702316,250.1297760,-47.6870232
6190,2.4229198,3.8187323,0.3519458,11.7709923,4.9770994,-7.3282442,-10.5942879,-9.1841106,-6.7348547,172.8091583,250.1297760,-8.1450386
6200,2.0446377,4.0485744,0.0335187,8.6793890,11.0381680,-7.8549619,-7.8720951,-15.1624022,-4.0533628,246.9847260,250.1297760,-24.6030540
6210,1.3598996,4.6806402,-0.7230452,2.2213740,17.8778629,-4.4656487,-7.6111283,-18.5022964,-5.7460546,250.1297760,250.1297760,-100.5190811
6220,0.6248835,5.4587522,-1.5490406,-9.5954199,23.4885502,3.0229008,-12.2079716,-18.3777981,-13.1800127,250.1297760,203.2137451,-199.6106873
6230,0.2489957,6.4116392,-1.9919657,-25.8396950,27.5877857,13.6030531,-18.8446655,-16.7258072,-19.6131992,246.2900696,45.6870232,-250.1374054
6240,0.0454896,7.8098459,-1.9081690,-41.1450386,28.3358784,23.8091602,-19.6131992,-14.2430334,-19.6131992,148.8015289,-59.9465637,-250.1374054
6250,0.2418131,9.2128410,-1.9776005,-54.8396950,25.0076332,30.7633591,-19.6131992,-8.8393478,-19.6131992,61.9389305,-100.6183243,-250.1374054
6260,0.2968795,10.5751352,-1.8818330,-69.2519073,19.4961834,34.9160309,-19.6131992,-2.2026544,-19.6131992,-11.4656487,-81.1832047,-250.1374054
6270,0.3591284,11.6453371,-1.2952565,-82.6106873,7.3511453,36.3435097,-19.6131992,2.6623387,-15.5765963,-76.1221390,-38.4503822,-175.3511505
6280,0.7038917,12.3013458,-0.3160330,-91.0381699,-7.2748094,35.9160309,-19.6131992,4.8578105,-10.4482431,-136.3206177,-16.6946564,-44.0534363
6290,1.0390782,12.7993364,1.0773853,-92.7557220,-20.7786255,33.8473282,-19.6131992,2.7868366,-6.1027889,-191.2442780,-51.2137413,81.6641235
6300,1.4053892,13.0124197,2.5450234,-87.2824402,-27.5419846,31.1832066,-19.6131992,-2.6120608,-3.0956869,-234.7938995,-109.0916061,186.3816833
6310,2.1020982,13.2877512,3.5410061,-76.1068726,-26.9465656,27.4427490,-19.6131992,-8.2886839,-0.3495516,-249.6412201,-169.5190887,250.1297760
6320,2.6240315,13.4577389,4.3047528,-62.8167953,-24.6717548,20.1984730,-15.1695843,-12.7873659,1.1947005,-229.0839691,-218.1984711,250.1297760
6330,3.0741394,13.4529505,4.7716198,-48.0228996,-23.1526718,12.4351149,-6.6534524,-13.3045111,0.9097920,-180.5801544,-227.4961853,250.1297760
6340,3.2058196,13.2039547,5.1379304,-32.6183205,-24.5038166,4.7328243,-2.2433555,-12.1361465,-0.6177009,-125.5725174,-203.9084015,221.4580078
6350,3.2177906,12.9429884,5.2887645,-16.4274807,-30.1145039,-2.7175572,-1.2042773,-9.7228031,-2.9592183,-85.4580154,-159.1145020,187.8549652
6360,3.1363883,12.3181047,5.0972295,-1.1374046,-37.1297722,-8.3969469,-2.4923513,-7.1251078,-4.5417776,-61.0152664,-107.5419846,165.6412201
6370,2.8538737,11.4226780,4.5585365,11.1068707,-43.4503822,-11.5954199,-4.2018023,-4.2808108,-5.7053533,-44.6946564,-61.2442741,159.5648804
6380,2.7916248,10.5775290,3.9480183,19.7404575,-47.2442741,-11.1984730,-4.8218975,-2.4229198,-6.5744443,-37.7251892,-27.0839691,161.4732819
6390,2.9472473,9.7132263,3.5410061,26.8778629,-47.6259537,-9.5114508,-3.7876077,-0.4094064,-7.4842362,-41.3358765,-20.0839691,159.2061005
6400,3.0142846,8.9255381,2.8251436,32.6412201,-46.0839691,-6.4656487,-2.5186872,0.9073978,-8.3652983,-55.7557259,-40.8473282,149.7709961
6410,3.1531475,8.3198080,2.0542145,35.4274826,-44.3511467,-2.7709923,-1.2808913,1.8459201,-8.3222027,-72.1908417,-69.0000000,135.0076294
6420,3.4643922,7.8984308,1.4867916,36.5954208,-39.5114517,-1.0381680,0.2466015,2.4636209,-7.6518297,-80.4427490,-90.2213745,114.0305328
6430,3.6128318,8.0229292,0.8092360,36.2671738,-31.2595425,-3.6412213,0.8379663,2.5737536,-7.1705976,-80.8396912,-100.1832047,91.6870193
6440,3.3805954,8.1713686,-0.1651991,31.7786255,-20.1526718,-11.0076332,1.0079538,3.1052637,-6.6127515,-71.5801544,-93.5572510,71.9923630
6450,2.7820482,8.4395180,-1.0797794,22.2290077,-6.7862597,-20.9389305,1.2377959,3.8737986,-6.3829093,-54.0228996,-67.1908417,58.2519073
6460,1.7238164,8.3988171,-1.7214222,8.1145039,6.9389315,-29.7328243,1.1396341,4.6136031,-6.3398137,-31.2519093,-27.1374054,47.6641235
6470,0.5674229,8.4299412,-2.0422437,-7.6259542,17.1374054,-35.8244286,0.5985473,5.7340837,-6.3278427,-7.7709923,12.5496187,42.0763359
6480,-0.9145803,8.4227581,-1.7573351,-21.3129768,20.1984730,-38.2595406,-0.3280039,6.8210459,-6.8665352,10.0000000,43.3206100,42.8473282
6490,-2.1332228,8.3030491,-1.2306134,-30.3282452,17.5725193,-35.2595406,-0.3854645,7.5081782,-7.5823979,19.1068707,60.7633591,46.9236641
6500,-2.7341642,8.3700867,-0.3232156,-34.0000000,11.0916033,-27.2671757,-0.0502780,8.1689749,-8.4706421,17.7709923,62.9694672,47.4580154
6510,-3.2632802,8.4874020,0.2873027,-33.7633591,1.3129771,-15.4656487,0.2011119,8.5065556,-9.5216913,5.1908398,51.2290077,44.5648842
6520,-3.0478032,8.6142941,0.8331779,-33.2442741,-9.3740454,-3.7251909,0.4189832,8.3796635,-9.8449068,-15.5267172,32.5877876,40.2748108
6530,-2.5976956,8.9111729,1.3814473,-32.2366409,-14.7786255,6.3740458,1.1659702,7.9630742,-9.6437950,-37.2137413,12.2748089,32.8473282
6540,-1.8076130,9.1769285,1.8914096,-32.2366409,-13.9312973,14.3893127,1.6232605,7.5536675,-8.5640154,-54.3358765,-2.2213740,23.2290077
6550,-1.1539993,9.5528164,2.2385671,-34.1374054,-6.3206105,19.6564884,1.8914096,7.3310080,-6.9000540,-61.6030540,-6.1908398,12.7862597
6560,-0.6584021,9.9143381,2.6072724,-37.0000000,3.6717558,22.4045811,1.5849534,7.5680327,-5.5257893,-57.4732819,-4.1450381,2.6641221
6570,-0.1819584,10.0340481,3.1220231,-38.6106873,12.5877867,22.8015270,0.9241571,7.5919747,-4.8673873,-47.5725174,-3.0000000,-5.1832061
6580,0.2082945,10.2519188,3.4715748,-37.9465637,19.9312973,22.1221371,0.3256098,7.7045016,-4.9535780,-36.8778610,-5.5725193,-11.4045801
6590,0.2753318,10.4314833,3.7780309,-35.5954208,26.3740463,21.1526718,-0.1628049,7.7452030,-5.1929970,-28.1450386,-12.7404585,-14.8549614
6600,0.4357425,10.5871058,4.2592630,-30.1526718,31.0992374,22.3740463,-0.3256098,7.7499914,-5.3797436,-21.9083977,-19.3816795,-16.1374054
6610,0.7278336,11.0587606,4.5824785,-21.1450386,32.8473282,23.1526718,-0.0790083,7.5273318,-5.8897061,-15.9694653,-24.7862587,-18.1145039
6620,0.9385223,11.7147694,4.5705075,-11.2824430,31.5038166,21.8702297,0.0957676,7.4938130,-6.4212160,-11.8625956,-26.1984730,-24.0152664
6630,0.9816177,12.2486734,4.4819226,-2.6946564,30.3511448,19.6412220,-0.4261657,7.4722652,-6.8090749,-9.4045801,-25.3358784,-29.4580154
6640,1.1851238,12.5000629,4.4172797,4.0916033,30.7404575,16.8473282,-1.2545552,7.7978749,-6.8090749,-7.7786260,-25.6488552,-30.7404575
6650,1.2856797,12.6293497,4.3933377,10.1755724,31.2748089,15.0687027,-1.5610116,8.0732069,-6.7707677,-5.6641221,-32.4198456,-29.2137413
6660,1.8267666,12.5240049,4.7357068,18.2595425,32.6335869,13.7328243,-1.2521610,8.1953106,-7.0389171,-3.1068702,-36.4351158,-27.0000000
6670,2.3367288,12.8208847,4.8937230,30.0534344,32.1374054,11.2671757,0.0359128,8.1306677,-7.6446471,-0.9160305,-34.0610695,-30.8549614
6680,2.7102225,12.9166517,4.7093706,42.6412201,30.0305347,7.4580154,1.1611819,8.2192526,-8.3222027,-1.7022901,-31.9770985,-40.7404594
6690,2.9568241,13.1033993,4.0006905,51.2519073,27.9923668,1.7480916,2.3870070,8.8273764,-9.1290445,-4.9312978,-37.4885483,-52.3969460
6700,3.2177906,12.9573536,3.5625539,55.6335869,26.8702297,-5.4427481,3.2225790,9.2391768,-9.6749191,-11.6030531,-48.3816795,-65.4809189
6710,3.3829896,12.6485033,3.3470769,58.2213745,26.3511448,-13.8473282,4.0916696,9.5360565,-9.6964674,-20.7328243,-59.5190849,-74.4427490
6720,3.2584918,12.2343082,3.2752512,61.0610695,24.9847336,-21.5954189,4.9918852,10.0603838,-8.6502066,-21.9389305,-52.6793900,-77.3587799
6730,3.1603301,11.5663290,3.0645626,65.2137375,22.9694653,-27.6793900,5.6191626,10.8911676,-7.2232695,-6.0839696,-21.3206100,-76.3358765
6740,2.9783716,10.9773588,2.7269819,68.5114517,19.6335869,-32.6488533,6.4044566,12.0810804,-6.2129216,25.9541988,22.6793900,-77.1221390
6750,2.8299320,10.4458485,2.3630650,70.7328262,16.5190830,-37.2137413,7.1466556,13.5559006,-7.1179252,62.8091621,57.2748108,-81.9312973
6760,2.5138988,9.7347746,1.9368993,71.1145020,15.2748089,-41.2977104,8.0229292,14.7960911,-10.2782555,90.0152664,69.4503784,-90.4122162
6770,2.1571648,9.1003141,1.4365137,68.4961853,15.5725193,-43.8320618,9.4977493,16.5486374,-14.6380739,88.0076370,57.2977104,-103.0305328
6780,1.8052188,8.4850073,0.9983770,63.3206100,19.9465656,-42.9771004,10.0053177,17.8367119,-18.7345333,58.5190849,38.4885483,-116.0305328
6790,1.4867916,8.1019373,0.6847382,58.7633591,21.3206100,-39.2290077,9.1577749,18.2389355,-19.6131992,14.7480917,25.6183205,-117.4198456
6800,1.4676381,7.0820122,0.6177009,54.7022896,16.4809170,-34.7633591,8.8776541,17.1352139,-19.0122585,-19.7633591,33.3435097,-109.9312973
6810,1.5035510,6.4978304,0.2657550,51.8396950,11.1603050,-28.8625946,7.2328463,14.2166967,-17.5925045,-40.2137413,69.7862625,-96.5038147
6820,1.8124014,5.9112539,0.0790083,49.4351158,2.9083970,-24.0534344,4.8482337,10.9629936,-14.8918581,-42.9389305,125.7480927,-75.3893127
6830,2.0973101,5.4755111,-0.2705434,46.8625946,-3.4961832,-21.0152664,2.5019281,6.4858594,-11.4825325,-26.5496178,178.9465637,-53.9312973
6840,2.1882892,4.9823084,-0.6129125,42.6335869,-9.7022905,-18.8396950,0.3998296,1.4173602,-9.3110027,0.7404580,230.6259613,-43.1908379
6850,2.0111191,4.7141590,-1.1348459,36.3206100,-14.6946564,-17.1679382,-1.9345051,-3.4476328,-7.8864598,31.4122143,250.1297760,-41.3587799
6860,1.7956421,4.2185616,-1.2808913,27.1832066,-19.5877857,-14.3969469,-5.2432747,-8.1282730,-5.7771792,65.4045792,250.1297760,-46.7862587
6870,1.5155219,4.0461802,-0.9744351,19.0000000,-21.3816795,-10.8473282,-8.3054428,-12.3109226,-3.7708483,103.4732819,250.1297760,-62.1603050
6880,1.0702027,3.8905578,-0.9528874,12.5419846,-21.9465656,-5.3358779,-10.7499104,-15.3060532,-3.7085996,123.1297684,208.3816833,-103.7251892
6890,0.5913648,3.9288650,-0.9169745,5.9312978,-22.8244267,2.0687022,-12.9358053,-17.1256371,-6.2751703,93.9694672,60.6183205,-176.3816833
6900,0.4165890,4.0605454,-0.6847382,0.2977099,-26.4122143,9.7557249,-14.2382450,-18.5789108,-9.3493099,7.2595420,-94.0534363,-250.1374054
6910,0.4764437,4.4029145,-0.2729376,-2.5114503,-30.6870232,17.3587780,-19.6131992,-16.6779232,-7.9941988,-102.4045792,-168.2442780,-250.1374054
6920,0.4788379,4.9248476,-0.3160330,-3.8854961,-33.7099228,24.6259537,-19.6131992,-12.7753954,-0.2394189,-174.4122162,-176.6870270,-250.1374054
6930,0.3758878,5.5497313,-0.6057299,-8.9694653,-32.9312973,32.3740463,-19.6131992,-8.0229292,9.3828287,-165.8702240,-151.9389343,-250.1374054
6940,0.5075682,6.1530671,-0.7254394,-17.4732819,-30.3893127,39.5496178,-19.6131992,-3.4955165,14.2143030,-82.8549652,-88.6183243,-149.8473358
6950,0.6775556,6.8138633,-0.7445929,-28.3129768,-25.9541988,46.8778610,-19.6131992,-1.2569494,11.1760759,11.8015270,-16.0458012,-6.0534353
6960,0.9672526,7.3645267,-0.6392486,-38.8625946,-21.2290077,53.5954208,-19.6131992,-1.7142396,3.8737986,57.9694672,15.9465647,121.2671738
6970,1.4173602,8.1641865,-0.2992737,-48.8854980,-16.7786255,58.6412201,-19.6131992,-3.5290353,-2.3271523,45.7480927,-12.3740454,206.2824402
6980,1.9895715,9.0691900,-0.0694315,-57.9465637,-12.5648851,60.4122124,-18.1264076,-6.9072366,-6.5959921,-0.2748092,-54.0305328,243.3053436
6990,2.2505381,9.8233595,-0.1819584,-67.8091583,-8.8091602,58.2824440,-10.5583754,-9.6078825,-7.6733770,-51.4198456,-99.1603088,232.5419922
7000,2.3295465,10.4673967,0.0191535,-78.3282471,-9.4961834,52.8244286,-6.4307928,-9.3205795,-6.4667058,-83.9694672,-136.4274750,205.4580078
7010,2.1763182,10.9558105,0.2873027,-88.8549652,-12.9465647,46.9618340,-5.0565281,-8.1115141,-4.9416070,-89.5419846,-154.5038147,181.9923706
7020,1.9967541,11.4035244,1.2808913,-95.9847336,-17.1832066,42.4045792,-4.4029145,-6.2368636,-4.2472920,-80.5877838,-166.1679382,164.5038147
7030,1.6160779,11.8320847,2.4995339,-94.9236679,-21.0305347,39.8167953,-3.9791429,-4.2784166,-4.8362627,-69.0000000,-175.5801544,150.9618378
7040,1.2473727,12.3635941,3.6511390,-85.4351120,-19.2824421,41.3206100,-3.5218527,-2.7413468,-6.1937680,-65.4045792,-187.4122162,137.8244324
7050,1.1779412,13.1345234,4.2496862,-70.7022934,-13.7786255,44.0763359,-3.1148405,-0.9672526,-7.4674768,-72.1145020,-205.4580078,123.2900772
7060,1.4556671,14.0347385,4.1898317,-53.5572510,-7.8320613,44.5648842,-2.8419030,0.6631905,-8.0325060,-83.5954208,-231.0992432,108.7938919
7070,1.9776005,14.7338419,3.9575951,-39.4122124,-3.2900763,40.1526718,-2.5593886,2.3917952,-8.6023226,-94.3053436,-250.1374054,92.6870193
7080,2.4420733,15.0762110,3.6176202,-28.5190830,-1.2824427,30.0152664,-3.1148405,3.9192882,-8.8632889,-102.1221390,-250.1374054,77.3969498
7090,2.6623387,15.1049414,3.4907281,-20.5343513,-1.8854961,17.1297703,-3.3805954,5.0421629,-8.7172441,-103.0687027,-250.1374054,69.4656525
7100,2.7461352,14.8152447,3.6104376,-13.5419846,-4.7862597,2.9770992,-3.1100521,6.3493905,-8.8848372,-97.0916061,-250.1374054,61.0839691
7110,2.3822186,13.4314032,4.1778607,2.4274809,-5.3969464,-24.0458012,-5.1618724,10.5128860,-8.8776541,-76.3664093,-225.7175598,50.1908379
7120,1.9177457,12.5096397,3.9911139,9.5648851,-1.3206106,-34.0228996,-6.1650376,12.5431585,-8.9303265,-70.0305328,-194.6793823,54.6106873
7130,1.4987626,11.5591469,3.7564833,14.3053436,0.3587786,-39.2595406,-7.1298962,14.1736012,-8.2623482,-67.6259537,-164.2137451,64.0610657
7140,1.0989330,10.6230183,3.5984666,18.2824421,1.5496184,-40.2748108,-7.8768835,14.9134064,-7.3022780,-63.1450386,-141.1374054,77.2824402
7150,0.7613522,9.7515335,3.3925664,22.1908398,0.3435115,-38.0992355,-7.6709828,14.9038296,-6.5792327,-55.0000000,-121.6412201,89.6259537
7160,0.8331779,8.7986460,3.2920105,27.6335869,-1.0534351,-33.6335869,-7.1753860,14.6835642,-6.5457139,-45.8091621,-99.3816757,96.6946564
7170,0.8355721,7.8888540,3.3255291,34.7480927,-4.9618320,-26.4580154,-6.9216018,14.4273853,-6.8330169,-41.1221390,-80.2519073,99.5648880
7180,1.0941446,7.1203194,3.0142846,43.2290077,-9.5114508,-16.1984730,-6.7180958,14.4297800,-6.3589673,-42.1526718,-63.5725174,102.8778610
7190,1.5610116,6.7635851,2.4444675,49.1221390,-13.6030531,-5.5801525,-6.4643116,14.2071199,-5.2313042,-41.7633591,-46.9160309,110.1297684
7200,2.1835008,6.5050125,1.6304430,50.7862587,-14.9465647,2.7862597,-5.6981707,13.4146433,-3.7780309,-34.9389305,-27.8320618,117.4274826
7210,2.4755919,6.4691000,1.0821736,49.2977104,-11.4961834,9.8320608,-5.0804701,12.5647058,-2.6503677,-21.9770985,-10.3587790,120.7709961
7220,2.9424589,6.4068508,0.3615226,45.0610695,-4.2290077,13.8473282,-4.3622131,11.7482872,-2.4061604,-7.9923663,0.1908397,123.1297684
7230,3.0166788,6.6726060,-0.5051740,37.7862587,5.4732823,14.5343513,-3.3662305,10.8001890,-2.6168492,0.9618320,5.5801525,125.6030502
7240,2.8012016,6.9718795,-1.2880739,27.7862587,15.8549614,12.4961834,-2.1380112,9.7251978,-2.8897867,3.2519083,8.8091602,122.4045792
7250,2.3223639,7.2735476,-2.0111191,15.9236641,24.2977104,9.0687027,-1.2784972,8.5855637,-2.6719155,3.4656489,12.1450386,116.0305328
7260,0.9289455,7.9702568,-2.5498118,-8.4274807,31.8625946,3.7404580,-0.8116302,6.9096308,-1.6352314,6.8320613,15.1908398,100.5267181
7270,0.1580165,8.0971489,-2.6096666,-21.1450386,31.0000000,3.8931298,-0.4692611,6.2033448,-1.2521610,9.8167934,15.1984730,94.7938919
7280,-0.5482694,8.2838955,-2.2146254,-33.3282433,26.0305347,6.6946564,-0.1747758,5.4779053,-1.2042773,11.9694653,14.5267172,84.9542007
7290,-1.1013272,8.7914639,-1.3790531,-42.1832047,20.2900772,12.5496187,-0.3040621,4.9727316,-1.0390782,11.5038166,8.8625956,74.2290039
7300,-1.3742647,9.4091644,-0.4429250,-45.4503822,15.7557249,20.5190830,-0.4955972,4.6734576,-0.9241571,9.8931293,-0.9083970,64.5114517
7310,-1.0773853,10.2974091,0.7110743,-44.1221390,11.7328243,29.0687027,-0.2274480,4.5010762,-0.9002152,8.6106873,-5.6335878,58.0228996
7320,-0.5602403,11.1641054,1.2282192,-39.1297722,10.1603050,35.2137413,-0.0119709,4.0677280,-1.0582317,8.8549614,-3.6717558,50.4580154
7330,0.2944853,12.0236197,1.4125718,-35.9923668,8.8320608,36.3816795,-0.1101327,3.6918402,-0.8786675,9.7938929,-0.1221374,43.3740463
7340,1.2880739,12.7993364,1.9776005,-33.4122124,6.7557254,32.7328262,-0.2513899,3.6750808,-1.1276633,10.1755724,3.0076337,37.3740463
7350,0.4620786,5.1259594,-0.0885850,19.6030540,-17.0839691,1.0610687,14.4058380,13.6013899,-5.3151007,158.5343475,228.6335907,-250.1374054
7360,0.5171449,4.9272418,-0.1077385,17.6717548,-17.0000000,5.0305343,14.2957048,11.6070309,-6.2631998,185.6946564,250.1297760,-250.1374054
7370,0.5243275,4.6782460,-0.0766141,15.3893127,-15.7938929,9.2290077,13.5415354,8.0540533,-6.8689294,203.1068726,250.1297760,-250.1374054
7380,0.5817881,4.3334827,-0.2513899,12.9847326,-12.5343513,13.3740454,11.1305866,3.4500270,-7.0437055,218.2213745,250.1297760,-250.1374054
7390,0.7517755,4.6016321,-0.3615226,10.2595415,-10.2366409,16.2366409,8.0013809,-0.7996593,-7.7356262,232.1603088,250.1297760,-250.1374054
7400,0.7972651,4.9631548,-0.4836263,7.0610685,-8.9083967,18.5419846,3.4572096,-5.5569139,-8.7723103,239.8854980,250.1297760,-250.1374054
7410,0.7302278,5.2121506,-0.7900825,2.7480917,-6.6870227,21.3435116,-2.8634505,-8.8585014,-9.5552101,241.8549652,250.1297760,-250.1374054
7420,0.7062859,5.4180508,-1.0271072,-3.5114503,-2.3587787,27.1755733,-8.5065556,-11.8512383,-11.3293047,226.9694672,205.6641235,-250.1374054
7430,1.0678085,5.8873119,-1.0725969,-10.3129768,1.9389313,33.9312973,-12.9382000,-15.4688578,-12.3420467,198.5419922,169.5190887,-250.1374054
7440,1.4413021,6.5505023,-1.2569494,-16.7480907,7.4274807,41.1679382,-17.4967365,-19.1343613,-12.1098099,171.4656525,146.7709961,-250.1374054
7450,1.7214222,7.3836803,-1.5083394,-23.4351139,11.0992365,49.3587799,-19.6131992,-19.6131992,-11.8895445,153.7480927,114.3282471,-250.1374054
7460,2.0398495,8.2695303,-1.7836711,-31.8396950,11.1755724,57.9847336,-19.6131992,-19.6131992,-9.8640604,151.5190887,104.4045792,-221.5496216
7470,2.6264257,9.0093346,-1.7286048,-41.2213745,8.5725193,64.6412201,-19.6131992,-19.6131992,-6.9790621,181.0305328,117.6259537,-204.0152740
7480,3.4189026,9.4833841,-1.2210367,-49.1450386,2.7099237,69.2671738,-19.6131992,-19.6131992,-6.1889796,243.3816833,146.3587799,-214.8244324
7490,4.3478479,10.0939026,-0.4596844,-53.4198456,-2.3664122,69.9847336,-19.6131992,-17.9348736,-10.9318695,250.1297760,161.9770966,-240.6106873
7500,5.1044121,10.7546988,0.4764437,-52.0458031,-6.8015265,65.7709961,-19.6131992,-10.6637201,-17.1759148,250.1297760,147.4198456,-239.9618378
7510,5.6119800,11.3819771,1.0702027,-48.1221390,-9.1145039,57.2748108,-19.6131992,-2.7413468,-19.6131992,215.7786255,116.3358765,-187.3893127
7520,5.7149301,11.9374285,1.4508789,-43.1450386,-6.9007635,46.0152664,-19.6131992,3.4165084,-19.6131992,74.2366409,86.2748108,-78.1984711
7530,5.3270717,12.4497852,1.6495966,-37.7022896,-2.2824428,36.1526718,-19.6131992,5.2313042,-19.6131992,-79.7709961,19.6793900,59.7862587
7540,4.8841467,12.9525652,1.3407460,-33.8702278,5.0381680,28.1068707,-19.6131992,0.3710994,-14.5782194,-201.6335907,-89.3969498,192.5496216
7550,4.4579806,13.0818510,1.1611819,-31.8167934,11.6793890,20.6335869,-19.6131992,-7.5632443,-10.7834291,-250.1374054,-210.3511505,250.1297760
7560,4.1587071,13.2590208,0.8786675,-30.6564884,14.5190840,11.9694653,-16.8622761,-14.7122946,-7.5129666,-250.1374054,-250.1374054,250.1297760
7570,3.9288650,13.0938225,1.0079538,-28.9465656,12.0229006,2.1450381,-6.2703824,-18.9643745,-4.5657191,-250.1374054,-250.1374054,250.1297760
7580,3.7516949,12.7801828,1.3503228,-26.1526718,5.4961834,-8.7175570,2.5402350,-18.7776279,-2.0997043,-221.6946564,-250.1374054,250.1297760
7590,3.5122759,12.5623121,1.7381816,-20.8854961,-4.1603055,-20.5190830,5.6742291,-15.7801027,-1.3048333,-139.0229034,-242.3206177,243.0076294
7600,3.0837159,11.8871508,1.9560528,-15.3435116,-11.9465647,-30.5038166,2.7006457,-11.6549139,-2.4995339,-65.4274826,-149.1450348,193.8320618
7610,2.5593886,11.1234045,1.8746504,-13.0839691,-19.3053436,-36.5877876,-0.9816177,-8.1593981,-4.5585365,-22.8244267,-82.5343475,171.9541931
7620,2.1571648,10.5440102,2.1404054,-11.6793890,-24.7175579,-38.1679382,-3.8905578,-5.0756817,-6.4547348,-8.8396950,-63.1450386,162.1450348
7630,1.9009864,9.7491398,2.5976956,-9.7328243,-28.1984730,-35.5725174,-5.3127065,-2.6862805,-8.1857338,-17.7404575,-78.1374054,154.7633514
7640,1.8243724,8.9351149,3.0765336,-4.6030536,-32.0763359,-28.4122143,-6.0118098,-1.2761030,-9.6437950,-45.0687027,-116.4198456,150.2824402
7650,2.0326669,8.1258793,3.4308734,5.4122138,-36.5343513,-17.6259537,-5.7340837,-0.2370248,-10.0316534,-76.8473282,-167.8015289,147.6412201
7660,2.6599445,7.7475972,3.3303175,16.6183205,-41.0916023,-5.6106873,-4.1156116,0.4189832,-9.7730818,-102.7099228,-211.8931274,145.6335907
7670,3.5601597,7.5536675,2.8035958,23.6106873,-41.9083977,2.4809160,-1.9943599,1.0917504,-8.9518747,-118.9847336,-233.1450348,136.3129730
7680,4.4651632,7.3932571,2.0901275,25.7328243,-38.3435097,5.1297708,-0.4788379,1.6112895,-8.0468712,-125.9694672,-231.1297760,120.6488571
7690,4.9009056,7.1705976,1.4580613,23.8702297,-29.0458012,3.9007633,-0.5075682,2.6216373,-7.0604649,-122.6183243,-209.0229034,102.4045792
7700,4.9056940,7.2974896,0.6368544,18.5419846,-14.3282442,-0.7328244,-1.6639616,4.5800843,-6.4714942,-113.1603088,-182.9847260,90.6335907
7710,4.5130472,7.4986014,-0.3950413,10.0916033,4.4351144,-6.7709923,-2.6982515,6.1363077,-6.1027889,-102.8015289,-157.4274750,87.2137375
7720,3.4428444,7.5871863,-1.4436963,-1.0610687,21.3358784,-12.0610685,-3.3351059,7.0868006,-6.2512288,-93.6946564,-130.6106873,86.9618301
7730,2.2625091,7.6901364,-2.0637913,-13.5801525,32.2442741,-14.4580154,-4.0701222,8.2623482,-6.5265603,-88.0839691,-110.4351120,89.2290039
7740,1.1899122,7.8313937,-2.3056045,-23.8320618,36.7022896,-13.8015270,-4.6614871,9.3564920,-7.0844064,-91.0992355,-95.7175598,90.7709961
7750,0.1053443,8.1115141,-2.0997043,-30.3969460,35.2290077,-10.8702288,-5.3581958,10.2830439,-7.0006099,-101.9694672,-93.3511429,96.0229034
7760,-0.6488253,8.5544386,-1.9129574,-34.4732819,28.9389305,-5.9618320,-5.4204450,10.6302013,-6.5337429,-114.7022934,-103.2366409,101.9236679
7770,-1.3215926,8.9973640,-1.8052188,-37.4732819,17.0687027,0.1603053,-5.0900469,10.6254129,-5.6622581,-125.3740463,-115.5343475,105.2824402
7780,-1.4436963,9.7036495,-1.2401901,-40.1068687,3.6259542,5.9847326,-4.4867110,10.7116032,-4.5705075,-130.2977142,-123.1603088,103.3511429
7790,-1.1300575,10.1537571,-0.3567342,-40.4732819,-5.5801525,10.2748089,-3.7828193,11.0874910,-3.4596038,-127.9618301,-125.8320618,94.9923630
7800,-0.4046180,10.9222927,0.5123565,-39.5114517,-10.0534353,12.3129768,-3.4643922,11.5208397,-2.6264257,-119.8778610,-120.0916061,84.8702316
7810,0.2705434,11.4968977,1.5370697,-36.7862587,-7.4656487,12.6335878,-3.8426740,11.8775740,-1.8100072,-108.0229034,-109.1450348,76.6564865
7820,0.9840119,12.2582502,2.3008161,-33.4122124,-1.6030535,11.1526718,-4.2760224,12.4066896,-1.6448082,-95.8244247,-94.8473282,72.7328262
7830,1.8770446,12.9310169,3.1411765,-28.1297703,5.0610685,6.9236641,-4.5824785,13.0196018,-1.0318956,-82.1984711,-70.1603088,75.0687027
7840,2.3343346,13.2781744,3.5769191,-21.9541988,10.9618320,2.2519083,-5.0756817,13.0076313,-0.4189832,-66.2213745,-40.5801544,82.4045792
7850,2.6288199,13.5295649,4.0437860,-16.3282452,13.8320608,0.4885496,-5.3917146,12.8759508,0.2585725,-46.8549614,-8.1755724,90.6335907
7860,2.9065459,13.8815107,4.7907729,-8.7557249,10.0229006,2.2442749,-5.6574697,12.7107515,0.3854645,-25.9007626,20.6335869,98.9694672
7870,4.5345950,14.1137466,5.8561873,14.0381680,-5.4656487,5.2061067,-4.4699516,11.9182749,-0.6344602,7.4580154,56.3129768,111.9923630
7880,5.5593081,14.0203733,6.0980005,26.1908398,-10.8396950,0.9465649,-3.6391680,11.3532467,-1.2234308,16.2366409,72.0305328,110.9694672
7890,6.4188218,13.7354650,6.5121951,40.3664131,-12.5114508,-8.4961834,-3.1651185,10.8384953,-1.6902977,21.5114498,86.0992355,108.2519073
7900,6.8306227,13.3907013,6.2368636,54.2977104,-9.6030531,-20.8015270,-3.1531475,10.0819321,-2.0829449,23.6412220,96.1908417,104.6946564
7910,6.7707677,12.6987810,5.4755111,65.2900772,-4.0152674,-34.1221390,-2.9520357,9.3804340,-2.1044924,21.8091602,97.4274826,99.4122162
7920,6.4499464,11.9589767,4.6495161,72.0610657,2.6335878,-47.0992355,-2.6479735,8.9877872,-1.6974803,17.7251911,89.1603088,93.6030502
7930,5.9088597,10.9749641,3.6750808,76.2213745,9.2977095,-58.9160309,-1.9057748,8.2264347,-1.3694763,14.2977095,75.0457993,86.2748108
7940,5.1953912,9.7754755,2.5354466,76.6259537,12.8473282,-67.8244247,-1.3694763,7.5847921,-0.9983770,11.3740454,60.9694672,76.2671738
7950,4.3717899,8.6166878,1.4365137,73.6412201,14.3206110,-73.2519073,-0.9840119,6.9048424,-0.5267217,9.1908398,50.9618340,66.1984711
7960,3.6128318,7.9846220,0.4812321,67.5419846,14.2824430,-77.4732819,-0.6129125,6.3086891,-0.0670373,8.9083967,43.0687027,56.5877876
7970,2.8131726,7.7380204,-0.2250538,57.4198456,14.3435116,-81.4885483,-0.4453192,5.6909885,0.2418131,10.8854961,37.2519073,47.6259537
7980,2.0637913,7.4076223,-0.6703730,45.1908379,17.4503822,-85.6946564,-0.3830703,5.1068063,0.6392486,14.0992365,36.1908379,40.3358765
7990,1.0486550,6.8785062,-0.4932030,34.0992355,21.9618320,-86.5725174,-0.6775556,4.7716198,0.9121862,19.4427490,38.0458031,35.8244286
8000,0.2370248,6.1147599,-0.2106887,26.9923668,21.5648861,-84.5114517,-1.1947005,4.2855992,1.0103480,25.1145039,35.6717567,34.7633591
8010,-0.7302278,5.1666608,-0.0694315,23.6641216,21.2595425,-76.6870193,-0.7733232,4.0461802,0.9768293,29.4503822,18.2595425,31.5496178
8020,-1.5418580,4.5010762,0.1651991,23.9923668,19.0381680,-63.0610695,-0.3303981,4.5202298,0.5315101,31.6183205,12.9465647,28.9236641
8030,-1.8171898,4.1060348,0.2873027,27.7404575,13.7633591,-44.8778610,-0.1819584,4.4914994,-0.1675933,33.9236641,12.2671757,30.6946564
8040,-1.9704180,3.9695661,-0.1149211,31.3587780,4.2977099,-27.0305347,0.0359128,4.3909435,-0.7829000,32.8931313,10.0534353,32.0763359
8050,-1.6974803,3.8642218,-0.4381367,33.6412201,-6.3664122,-10.5648851,0.8427547,4.6255741,-1.4173602,27.7938938,5.3206105,26.2824421
8060,-1.4173602,3.8809812,-0.6009415,34.6030540,-15.6030531,4.6335878,1.3551112,4.6614871,-1.7238164,20.4656487,-0.3206107,16.0458012
8070,-0.9480990,3.9982965,-1.1037214,32.0610695,-19.3969460,18.2213745,2.1236460,4.8458395,-1.6304430,13.0610685,-12.4122133,4.1374044
8080,-0.3806761,4.2089849,-1.5634058,24.6259537,-17.6870232,29.8931293,3.2130022,5.2456689,-1.7549409,6.9770994,-5.6335878,-10.0152674
8090,0.1628049,4.5633249,-1.9273225,13.2137403,-11.4274807,39.0534363,3.7732425,6.1363077,-1.1468167,6.8473282,7.5114503,-20.2061062
8100,0.8810617,5.0349803,-1.9799947,1.2061069,-2.1221373,46.1374054,4.5130472,7.6230993,-0.2825144,16.7557259,25.7175579,-23.9389305
8110,1.5897418,5.7412663,-1.8914096,-8.3587790,8.4809160,50.4427490,6.2679882,9.7108326,-0.7302278,38.7480927,35.7938919,-23.3282452
8120,2.1739240,6.8545642,-1.8507085,-14.1832066,17.5648861,51.0228996,9.4833841,11.4514084,-3.1339941,61.4427490,32.4961815,-27.4732819
8130,2.3463056,8.4897957,-1.7908537,-19.2442741,26.8854961,49.1374054,13.8455973,12.5479469,-7.3788919,68.1679382,26.6564884,-40.8167953
8140,2.2289903,10.3812056,-1.9632354,-23.9847336,36.1984749,46.7251892,17.6643295,13.7905312,-11.0084829,51.4045792,33.5496178,-59.0076332
8150,2.2194135,11.6908274,-2.1882892,-29.8854961,42.4198456,44.3206100,19.6126022,14.6955347,-12.2965574,33.1450386,81.8473282,-82.3511429
8160,2.0805507,12.5000629,-2.2625091,-34.9312973,43.4198456,43.4427490,19.6126022,15.7322187,-10.9869356,33.7175560,151.2977142,-98.0839691
8170,1.9345051,13.0794573,-1.7190280,-36.5190849,36.8015251,44.7633591,19.3450508,16.2421818,-9.7395630,48.5877876,214.1297760,-102.8931274
8180,2.1212518,13.5271702,-1.1611819,-31.9007626,22.0381680,46.8778610,19.3546276,16.6204624,-8.6142941,67.5801544,250.1297760,-109.2977066
8190,2.3989778,13.7139168,-0.6607963,-22.2900772,1.4427481,47.6106873,18.1790810,16.2709122,-8.3916340,84.9618301,250.1297760,-112.9847336
8200,3.0071020,13.7929258,0.0335187,-9.4885492,-22.3664131,46.2824440,17.0011387,15.4137917,-8.5352850,95.3587799,250.1297760,-108.4656525
8210,3.7397239,13.8048964,0.8954269,6.5801525,-44.7709923,40.8625946,16.2780933,12.5144281,-8.8369532,98.7557220,250.1297760,-103.0534363
8220,4.3191175,13.4577389,0.9600700,20.7022896,-58.3587799,32.9312973,14.6213150,8.0157461,-7.9487090,100.8320618,250.1297760,-102.2977066
8230,4.7764082,13.3523941,1.3838415,31.1755733,-62.7862587,23.3053436,12.1433287,2.1739240,-6.0237808,117.2442780,250.1068726,-106.8625946
8240,4.7285242,12.5814657,1.8578910,40.1374054,-61.1297722,14.5496187,8.4347296,-4.0988522,-4.9703374,156.1145020,250.1297760,-121.1603088
8250,5.8897061,11.7363167,1.5610116,43.6488533,-56.4732819,0.1450382,1.2545552,-10.1776991,-6.5624733,202.6183167,250.1297760,-146.6183167
8260,5.1235652,11.0013008,0.1867468,36.1603050,-34.6717567,-21.3435116,-8.6382351,-15.3754845,-9.7012558,226.1145020,222.5419922,-179.9084015
8270,3.8594334,10.5440102,-0.3112446,19.0458012,-4.5190840,-34.6335869,-19.6131992,-19.1247845,-13.4625273,215.6946564,114.0305328,-203.2442780
8280,3.4715748,9.1649570,-0.6344602,-0.9465649,22.8015270,-45.0152664,-19.6131992,-19.0433826,-15.9788208,176.8931274,-7.0839696,-211.5572510
8290,2.3056045,7.8936424,0.8140244,-16.7709923,36.9771004,-55.7480927,-19.6131992,-18.3107605,-16.5582142,124.9847336,-68.8015289,-216.6793823
8300,-1.0630201,7.1849627,2.7676830,-7.6946564,23.3893127,-53.2671738,-19.6131992,-15.8495340,-13.8958759,102.6793900,-45.8167953,-224.8167877
8310,-1.6495966,6.5385313,2.2218077,12.4274807,6.7175574,-34.9236641,-19.6131992,-9.9023676,-10.6900558,120.1221390,20.2748089,-216.8244324
8320,-1.1659702,5.8202744,0.3088504,18.1068707,-1.3511450,-18.7480907,-19.6131992,0.3687052,-11.1641054,151.2595367,100.4503784,-178.5648804
8330,-1.4939742,6.0692701,-0.5578461,13.9389315,-3.1145039,-2.0916030,-19.6131992,7.7092900,-14.2885227,149.9465637,138.4198456,-95.9542007
8340,-1.5873476,6.5720501,-0.7996593,8.3893127,-8.1603050,15.1755724,-19.6131992,11.1952295,-17.6332054,91.3129807,106.9236679,7.8702292
8350,-0.9528874,6.6989422,-1.2042773,1.2137405,-15.3587790,29.8702297,-19.6131992,10.4626083,-19.5724983,-21.3282452,23.4656487,101.0687027
8360,0.1556223,6.9862447,-1.1252691,-7.9465647,-18.6717548,39.8854980,-19.6131992,5.3797436,-17.6906662,-146.1908417,-73.3664093,168.1755676
8370,1.3910241,7.2567883,-0.7302278,-15.0305347,-18.8320618,43.3511467,-19.6131992,-0.8906385,-12.1576939,-227.7938995,-151.5038147,200.9236603
8380,2.3510940,7.8218169,-0.1651991,-19.4503822,-17.3282452,40.3511467,-11.0348196,-4.5178356,-6.9527264,-250.1374054,-188.6946564,207.5267181
8390,2.1427996,8.3461447,-0.2537841,-22.2977104,-9.2442751,37.2595406,-5.3414369,-5.5904322,-3.1411765,-223.5343475,-190.9465637,189.7022858
8400,2.3343346,8.7292147,-0.1604107,-27.0534344,-2.2137403,34.2977104,-2.4779861,-5.1187773,-2.3199697,-167.4122162,-164.7938995,170.0000000
8410,2.4875629,9.1458035,0.0526722,-28.9312973,3.6259542,31.7557259,-1.8554969,-4.1419477,-3.2177906,-117.1068726,-128.9541931,146.0229034
8420,2.6383967,9.5312681,0.0335187,-30.2977104,8.2061071,29.5954189,-2.5522060,-2.4995339,-4.8769641,-87.5114517,-104.9923630,130.6183167
8430,2.9185169,9.8760319,-0.1077385,-31.7786255,11.1832066,26.6946564,-2.6288199,-0.9457048,-6.3493905,-80.2061081,-95.4503784,119.7099228
8440,3.1651185,10.2998028,0.1508339,-30.5954189,11.4656487,22.5572510,-1.8674678,0.3375807,-6.7899213,-86.0305328,-106.1068726,106.5725174
8450,3.2632802,10.5104914,0.1532281,-27.5496178,9.4045801,17.8244267,-0.6967092,1.1300575,-6.7252784,-98.0992355,-126.1832047,90.7709961
8460,3.3446827,10.5775290,-0.0909792,-25.0916023,5.3740458,12.6183205,0.4620786,1.8459201,-6.0692701,-107.3664093,-146.2671814,71.1832047
8470,3.3997490,10.7020273,-0.4501076,-24.6259537,-0.4656489,7.0992365,1.4317253,2.6288199,-5.0828643,-109.0610657,-160.2137451,49.6793900
8480,3.7181761,10.6685085,-0.5075682,-27.2061062,-8.0381680,1.7175573,1.7022687,3.7971845,-3.8833754,-100.3358765,-163.9847260,26.4274807
8490,3.8211265,10.3405046,-0.2657550,-30.1068707,-12.7938929,-2.4122138,0.6943150,4.7668314,-3.1746953,-84.1832047,-164.1679382,5.8702292
8500,3.8809812,9.8999729,0.2178712,-30.4122143,-16.5190830,-5.2290077,-0.5674229,5.6215568,-3.1699069,-63.7251892,-163.7175598,-11.0916033
8510,3.7349355,9.4163475,0.5386927,-27.1068707,-21.3435116,-5.7786260,-1.0486550,6.9383612,-4.3670015,-43.5954208,-155.8854980,-23.4122143
8520,3.5074875,9.0284882,0.6775556,-22.1145039,-26.5114498,-2.3206108,-1.4820032,8.1091194,-5.3390427,-30.4656487,-135.2595367,-31.3511448
8530,3.7349355,8.5759869,0.6248835,-17.2977104,-30.2824421,3.3816793,-2.2337787,8.7986460,-5.8178802,-23.8473282,-113.5877838,-32.8015251
8540,4.1108232,8.5304966,0.5147507,-13.0916033,-30.4580154,9.5648851,-2.7245877,9.7395630,-5.7963328,-20.5648861,-99.8931274,-32.9083977
8550,4.6327567,8.7818871,0.2705434,-11.1526718,-25.5496178,12.6183205,-2.8730273,10.4817610,-5.9950504,-24.6564884,-97.5114517,-33.7175560
8560,4.8673873,9.0907373,0.0215477,-11.3969469,-16.8244267,11.6793890,-3.3015873,10.4434547,-5.5066357,-34.9694672,-102.7633591,-33.6946564
8570,5.0254035,9.4690189,-0.3040621,-13.7022905,-7.3282442,5.5648856,-4.5058646,10.8720140,-4.6255741,-41.7862587,-117.4122162,-32.7251892
8580,4.5202298,9.8065996,-0.4908088,-16.7251911,-0.5038168,-3.8702290,-4.9224534,11.6477318,-4.1802549,-43.6259537,-136.1068726,-30.6641216
8590,3.6248028,9.9047613,-0.4596844,-18.7557259,0.6641222,-12.8778629,-4.9009056,11.9039097,-4.2496862,-46.4045792,-152.1908417,-31.8702297
8600,2.8131726,9.6797075,-0.4189832,-19.2595425,-2.5114503,-18.3587780,-4.9344244,12.2414904,-4.4555864,-52.0458031,-169.3358765,-36.0381660
8610,1.9033806,9.6150646,-0.2968795,-18.5801525,-9.4122133,-21.5419846,-5.0230093,13.4505568,-4.1898317,-56.4885483,-175.2137451,-37.3282433
8620,1.0582317,9.4738073,-0.0167593,-17.1679382,-20.7328243,-21.4580154,-5.4826937,14.2454271,-3.7445123,-58.1984749,-160.7328186,-30.9083977
8630,0.4333483,9.2056589,0.3710994,-15.3053436,-33.2442741,-17.2290077,-6.3589673,14.6021614,-2.5474176,-53.3969460,-132.8396912,-19.5267181
8640,0.0837966,9.1601686,0.9888002,-12.6106873,-41.8396950,-9.5190840,-7.7140784,14.9517136,-1.4700323,-40.3282433,-100.3282471,-0.8549618
8650,0.1675933,9.2726955,1.4269369,-8.9007635,-45.4122124,-0.0076336,-8.3126259,14.9373484,-0.8643024,-21.9465656,-69.4351120,22.7328243
8660,0.5506636,9.3924055,1.7477583,-5.0992365,-43.0610695,9.3511448,-8.2024927,14.4632988,-0.9959828,-2.1908398,-40.6335869,46.5343513
8670,1.1731528,9.4570484,1.9895715,-3.4503818,-36.9847336,15.9160309,-7.4746594,13.8575687,-1.7046629,12.3358774,-18.8473282,63.6946564
8680,1.9632354,9.7587166,1.8818330,-3.0687022,-29.1603050,17.9618320,-6.8569584,13.2135315,-2.4492557,20.8778629,-5.7328243,74.7938919
8690,2.6096666,9.8640604,2.0470319,-3.6870229,-19.7709923,15.8167934,-6.0788469,12.6293497,-3.1004753,23.1908398,2.7480917,82.2977066
8700,3.0214672,9.9550400,2.0925217,-4.4580154,-10.8015270,10.1603050,-5.3893204,12.0691090,-3.5505829,21.4656487,5.9694657,87.5114517
8710,3.2465210,10.0795374,2.0518203,-5.1221375,-3.0152671,2.4732823,-4.6112089,11.2598734,-3.7205703,14.5954199,0.5572519,88.4656525
8720,3.2848279,10.1729107,2.0590029,-5.1526718,4.0305343,-6.3664122,-3.7900019,10.3237448,-3.3255291,4.8244276,-10.5496187,84.0076370
8730,3.1555417,10.1154509,1.6926919,-5.8167939,9.6870232,-14.6412210,-3.3303175,9.8042059,-3.1938488,-4.4656487,-17.8854961,79.9083939
8740,2.7724714,9.9550400,1.3622938,-7.0916033,13.2900763,-21.4198475,-2.7245877,9.1242561,-2.3463056,-8.1755724,-13.3282442,79.2137375
