timestamp,rxacclX,rxacclY,rxacclZ,rxgyroX,rxgyroY,rxgyroZ,txacclX,txacclY,txacclZ,txgyroX,txgyroY,txgyroZ
0,-0.0646431,3.0525916,9.4139528,0.4351145,-4.2137403,-2.3587787,-3.4021432,1.3335636,9.8425131,-5.2213740,-7.7099237,1.1984733
10,-0.1340746,3.1339941,9.5097208,0.5877863,-2.7557251,-3.1984732,-3.3470769,1.2162483,9.9574337,-6.1221375,-6.3129773,2.5572519
20,-0.0837966,3.0142846,9.4259243,0.3740458,-1.9236641,-3.6183207,-3.3255291,1.1827296,9.7084379,-7.1679387,-5.3511453,4.5725193
30,-0.1580165,3.0406206,9.4043760,0.4045801,-1.4809160,-4.0076337,-3.3398943,1.3670821,9.9215212,-8.4732828,-3.4427481,5.5267177
40,-0.4477134,3.2537034,9.1721401,0.3969466,-0.3969466,-3.2213740,-3.5481887,1.3479286,10.0268650,-23.4503822,3.5725191,-1.4809160
50,-0.5291159,3.2345500,9.1888990,-0.0534351,-1.0534351,-3.8549619,-3.1627243,1.1180865,10.0699606,-24.3893127,4.7557254,4.4732823
60,-0.5482694,3.1938488,9.3828287,-0.4198473,-2.6793892,-2.2977099,-2.8514795,0.7374104,10.2567072,-25.4809170,11.2595415,6.8854961
70,-0.5674229,3.1914546,9.3708572,-0.1603053,-1.4580153,-1.4351145,-2.2050486,0.5362985,10.6685085,-25.6870232,24.5801525,2.1679389
80,-0.6296718,3.1411765,9.4546537,-0.0763359,-0.6641222,-0.5801527,-2.4013720,0.1221037,10.5248566,-24.1526718,32.7328262,-9.0458012
90,-0.5985473,3.0932927,9.4833841,0.2366412,-0.7557252,0.6488550,-2.4181314,0.0742199,10.4410601,-23.8549614,42.4503822,-20.6641216
100,-0.5458752,3.1531475,9.4857788,1.2671756,-1.9923664,1.6030535,-2.8778157,0.1915352,10.0915089,-23.9770985,54.1603050,-31.1145039
110,-0.4740495,3.1603301,9.5145092,1.8625954,-3.8320611,2.1374047,-3.2967989,0.0407012,10.0699606,-25.4198475,58.9465637,-42.1374054
120,-0.2873027,3.1483591,9.3995876,2.1450381,-5.1984735,1.8244275,-3.3901722,0.2466015,10.2543135,-26.0610695,70.4809189,-53.9083977
130,-0.2418131,3.1770895,9.4163475,2.2824428,-6.7251906,1.5801526,-4.5896611,0.7014975,10.3476868,-23.0229015,83.3129807,-58.7480927
140,-0.3040621,3.2177906,9.3469152,2.4427481,-7.4122138,1.4045801,-5.8873119,0.6823440,10.5847120,-21.2671757,100.2366409,-53.5572510
150,-0.1915352,3.1148405,9.3995876,2.8244274,-7.8549619,1.1908396,-7.0484939,1.0797794,11.4154949,-20.3129768,120.7480927,-40.4427490
160,-0.1675933,3.1675127,9.3852224,2.9541984,-7.8778625,1.2061069,-8.2791071,1.2090657,11.4705620,-15.5725193,111.2213745,-29.6946564
170,-0.1436514,3.1172347,9.4474716,3.4045801,-6.7099237,1.7862595,-9.1027079,0.8140244,11.6333666,-18.5725193,96.4122162,-18.5496178
180,-0.1747758,3.1866663,9.4450769,3.6946564,-5.5648856,2.1526718,-10.1489687,0.3112446,12.4282379,-27.7557259,77.0457993,-5.4656487
190,-0.1173153,3.2058196,9.3684635,3.6793892,-4.0458016,2.5419848,-10.7163916,-0.1532281,13.4601336,-31.1526718,41.6717567,6.2748094
200,-0.1005560,3.2537034,9.3229742,3.6488550,-2.8473282,2.5877862,-11.0515785,-0.6679789,14.5590658,-28.1908398,8.0687027,17.0763359
210,-0.0766141,3.3327117,9.1721401,2.7786260,-2.1221373,2.1450381,-10.9701757,-1.3383518,15.5023766,-19.3282452,-11.7175570,30.3740463
220,-0.1484398,3.3758070,9.0931320,1.9083970,-2.0763359,1.8931298,-10.8384953,-1.7333932,16.3882275,-5.0458016,-15.3893127,43.9923668
230,-0.1340746,3.3303175,9.1434097,0.7175573,-2.0763359,1.1603054,-10.9222927,-1.8914096,16.9867744,15.5648851,-5.3969464,60.7480927
240,-0.1747758,3.2608860,9.1146793,-0.3282443,-1.1374046,0.9236641,-11.0946741,-2.0709739,17.3028069,39.3129768,19.0763359,80.3664093
250,-0.1819584,3.3279233,9.2511482,-1.3816794,-0.5877863,1.0458015,-11.2598734,-2.3367288,17.2237988,63.4122124,46.6335869,103.5419846
260,-0.2130829,3.2800395,9.3277617,-2.0610688,-0.2671756,0.8473282,-11.3293047,-2.4588325,16.9005833,85.2977066,74.4274826,126.0687027
270,-0.2059003,3.2489152,9.3517036,-2.1297710,-0.3816794,0.9083970,-11.0779142,-2.2984219,16.5199070,104.0076370,93.4885483,147.2519073
280,-0.2513899,3.2513094,9.4929609,-1.4198474,-0.4580153,0.9312977,-10.5847120,-1.8315549,16.0123386,120.5419846,103.0839691,165.5114441
290,-0.3040621,3.2920105,9.4570484,-0.5801527,-1.3816794,1.2748091,-10.1393919,-1.7166338,15.1456423,135.3206177,105.3816757,182.9770966
300,-0.2992737,3.2417326,9.4283180,0.3511450,-2.7557251,1.6259542,-9.4378948,-1.7046629,14.1305065,147.6488495,101.8396912,197.3511505
310,-0.2561783,3.2393384,9.4283180,1.0534351,-3.9312978,1.7099236,-8.5496502,-1.5562232,12.8591919,157.4656525,93.4427490,207.7862549
320,-0.2729376,3.2608860,9.2655134,1.0916030,-5.4809160,2.0381680,-7.8146343,-1.4724265,11.5735121,161.9007568,86.0152664,214.5114441
330,-0.1651991,3.2058196,9.3995876,1.2595420,-5.9389315,2.2519083,-7.2496057,-1.1061156,10.8552551,162.8778687,78.3206100,220.2213745
340,-0.1460456,3.2728570,9.4091644,2.2137403,-7.1145039,1.7099236,-6.8617468,-0.7900825,10.3788109,164.1068726,69.9847336,225.3358765
350,-0.1508339,3.2608860,9.4211359,2.2137403,-8.1374044,2.0687022,-6.4427638,-0.8930327,9.8975792,166.7786255,66.5954208,231.8625946
360,-0.0215477,3.2273674,9.3469152,2.2366412,-7.4198475,2.4656489,-6.1147599,-0.5769997,9.8161764,169.2900696,67.5419846,237.2671814
370,0.0000000,3.2441268,9.3924055,2.3129771,-6.6259542,2.5801528,-6.3685441,-0.4141948,10.4530315,174.9847260,61.8778610,243.7633514
380,-0.0071826,3.2417326,9.3780403,2.5648854,-6.5343513,2.3129771,-6.3876977,-0.5746055,10.5033092,185.9313049,46.3969460,250.1297760
390,0.0047884,3.2920105,9.3110027,3.3053436,-6.7862597,2.3358779,-6.1291251,-0.7014975,10.2998028,200.2519073,23.0152664,250.1297760
400,0.0574605,3.3542595,9.2535419,3.0305343,-6.7938933,2.6488550,-5.2265158,-0.9911944,9.2080526,215.2595367,-5.2290077,250.1297760
410,0.1221037,3.3327117,9.2822723,2.2442749,-5.9312978,2.1603053,-3.3805954,-1.5921360,7.3645267,226.0076294,-30.8244267,250.1297760
420,0.1268920,3.3446827,9.2200232,1.7480916,-5.2977099,1.3664122,-1.1420283,-1.6495966,5.6431046,230.5725250,-43.0839691,250.1297760
430,0.0287303,3.3063757,9.2104464,0.8473282,-4.6564884,1.2671756,0.9289455,-1.1372399,4.0844874,232.7633514,-38.7938919,250.1297760
440,0.1149211,3.2800395,9.1865053,-0.6946565,-1.2290076,0.7099237,3.8546450,0.9169745,-0.2537841,232.0152740,53.1679382,248.5190887
450,0.0694315,3.3494711,9.3181858,-1.1984733,-0.5419847,0.5572519,4.6088147,2.0063307,-2.1044924,217.8091583,116.3206100,240.9236603
460,0.0574605,3.3398943,9.2176294,-1.5419847,0.1908397,0.3129771,4.8625989,3.0262554,-3.0861101,191.0381622,168.0381622,234.3664093
470,0.0143651,3.2824337,9.3732519,-1.1908396,0.3282443,0.2977099,4.8721757,3.9025288,-2.8586621,158.7251892,201.9923706,227.9541931
480,-0.0335187,3.4141142,9.3133974,-1.3358779,-0.0534351,0.5725191,4.4627690,4.3358769,-1.6639616,127.9542007,214.3435059,220.6335907
490,-0.1029501,3.2991931,9.3540983,-1.1374046,-0.3587786,0.4580153,4.5752959,4.7261300,-0.3471575,103.3282471,198.7175598,208.8091583
500,-0.1029501,3.3207407,9.2966375,-0.7480916,-0.5801527,0.5725191,5.8035154,5.0062504,0.1651991,86.3587799,160.0000000,190.8473358
510,-0.0478838,3.2967989,9.2990322,-1.0229008,-1.2748091,0.8396947,7.3717093,5.5425487,0.2418131,68.2213745,120.9465637,162.5648804
520,-0.0263361,3.2920105,9.3421268,-0.5496183,-1.7480916,1.4274809,7.3884687,7.0389171,0.2944853,24.2366409,46.1374054,75.1679382
530,-0.0119709,3.3279233,9.3732519,-0.3969466,-2.0381680,1.5725191,6.2895355,7.2352405,0.0909792,15.8320608,47.4427490,58.8015251
540,0.0167593,3.3111639,9.3133974,-0.6412213,-1.7022901,1.4885496,5.1810260,7.2711535,0.2609667,9.0534353,53.4045792,49.2671738
550,0.0383070,3.3997490,9.3445215,-0.7557252,-1.4045801,1.6259542,4.0749106,7.2974896,0.5769997,3.5190840,53.4656487,46.9312973
560,0.0311245,3.3614421,9.4019823,-0.4809160,-1.3664122,1.5725191,3.6702924,7.1346846,0.8666966,0.0992366,49.6946564,49.5343513
570,0.0790083,3.2920105,9.3947992,-0.4122137,-1.5648855,1.6793894,3.6487448,6.8066807,1.0917504,-1.4961832,46.7480927,54.8167953
580,0.0335187,3.2704628,9.2535419,-0.4809160,-1.3587786,1.6717557,3.9647777,6.4571290,1.0941446,-0.6946565,51.0763359,62.9847336
590,-0.0071826,3.3111639,9.2176294,-0.9770992,-0.8396947,1.9694656,4.6902170,5.9782910,1.0917504,0.1145038,62.6488533,69.2671738
600,0.0095768,3.2680686,9.2870607,-1.4122137,-0.5954198,1.9007634,5.3055239,5.3486195,1.3168042,1.0534351,75.5496216,74.5877838
610,0.0574605,3.3255291,9.2559366,-1.7328244,-0.6335878,1.8015267,5.8226686,4.7716198,1.4724265,1.4045801,89.4045792,78.0992355
620,0.1029501,3.2944047,9.2774839,-1.9541985,-0.8778626,1.7786260,6.4667058,4.1778607,1.9680238,1.8396946,98.0076370,79.3282471
630,0.0502780,3.3231349,9.2750902,-2.0458016,-1.1221374,1.6488550,7.3860745,3.5721307,2.1619530,3.0381680,98.9847336,76.0381699
640,0.0694315,3.2656744,9.3277617,-2.0763359,-1.4503816,1.8473282,8.5281029,2.9017577,2.0278785,2.6564887,94.7328262,66.4198456
650,-0.0095768,3.3183465,9.4091644,-1.7175573,-1.4656489,2.0992367,9.8496952,2.4253139,1.8722562,-0.0610687,80.1221390,48.5954208
660,0.0790083,3.3111639,9.4331064,-1.4885496,-1.5954199,2.5801528,11.2287483,2.1260402,0.9959828,-6.1832061,48.2290077,20.2595425
670,0.0718257,3.2944047,9.4402885,-1.1679389,-1.2595420,2.8091602,12.8663740,1.7309990,-0.1173153,-22.9007626,4.4122138,-17.1603050
680,0.0335187,3.2800395,9.4235296,-0.9389313,-0.8015267,2.8473282,14.2645807,1.3742647,-1.3694763,-50.5267181,-47.7404594,-62.8473282
690,-0.0143651,3.3327117,9.2990322,-0.7557252,-0.7557252,3.3053436,16.5917320,0.6631905,-2.4348907,-87.1526718,-103.0076370,-112.3282471
700,0.0047884,3.3063757,9.2894554,-1.0152671,-1.2137405,3.3740458,19.6126022,-0.4764437,-2.3726418,-127.1297684,-125.1145020,-175.5190887
710,-0.0359128,3.3255291,9.3062143,-1.0610687,-1.5419847,3.7862597,19.6126022,-1.8147956,-1.5155219,-161.8549652,-115.0000000,-250.1374054
720,0.0502780,3.2920105,9.2080526,-1.4198474,-1.8549619,3.7099237,19.6126022,-3.2010312,1.1683644,-176.5114441,-88.4045792,-250.1374054
730,0.1197095,3.3255291,9.3014259,-1.6793894,-1.4809160,3.6564887,19.0649300,-4.7189474,2.5713594,-181.3358765,-55.4351158,-250.1374054
740,0.1340746,3.3398943,9.2966375,-1.6183206,-1.5496184,3.4885497,16.7473545,-6.3589673,3.7995787,-185.1679382,-33.0152664,-250.1374054
750,0.1963235,3.2752512,9.3229742,-1.9618320,-1.9389313,3.2977099,13.6277266,-9.8832140,5.1977854,-185.1908417,-14.2290077,-250.1374054
760,0.2394189,3.3039815,9.3205795,-1.8931298,-1.4122137,3.4580152,11.2119894,-15.8662939,6.4954362,-182.7786255,15.9541988,-250.1374054
770,0.2011119,3.3183465,9.3828287,-2.4732823,-0.8854962,3.3282442,5.9902620,-19.6131992,8.4251528,-165.6641235,60.9847336,-250.1374054
780,0.2106887,3.2991931,9.2463598,-3.0534351,-0.0076336,3.4045801,-4.8314743,-19.6131992,9.7563219,-121.0534363,95.1603088,-250.1374054
790,0.2801202,3.2465210,9.2966375,-3.8167939,1.0458015,2.8625953,-18.7560806,-19.6131992,11.2574787,-61.3206100,122.4580154,-250.1374054
800,0.2633608,3.2010312,9.3038206,-4.4809160,1.3129771,2.0152671,-19.6131992,-19.6131992,12.6437149,0.1755725,107.0687027,-250.1374054
810,0.2130829,3.2201848,9.4091644,-4.3969464,1.9160305,1.7404580,-19.6131992,-16.2996426,15.6963062,36.5419846,30.2061062,-250.1374054
820,0.2130829,3.1986370,9.5743637,-4.2137403,2.6030533,1.2366412,-19.6131992,-1.3287752,18.6698895,52.9312973,-73.5496216,-250.1374054
830,0.0718257,3.2273674,9.6605549,-2.8549619,2.6106870,1.6870229,-19.6131992,5.2743993,17.1016960,72.6335907,-225.6564941,-250.1374054
840,-0.0119709,3.3207407,9.6844959,-0.8854962,2.0152671,1.7938931,-19.6131992,4.9918852,10.3381100,80.2366409,-250.1374054,-90.9389343
850,-0.0766141,3.3997490,9.6533718,1.3282443,0.5038168,2.1145039,-19.6131992,0.8738791,3.7708483,63.1221390,-250.1374054,56.5038185
860,-0.1101327,3.4069316,9.3852224,2.4122138,-0.8320611,2.6564887,-19.6131992,-1.1923064,1.8602852,31.0229015,-57.2366409,131.5190887
870,-0.0383070,3.3662305,9.2535419,2.5877862,-1.5648855,2.7709923,-14.2023315,-0.5099624,2.5809362,-0.0381679,132.7099304,149.1908417
880,0.0766141,3.3087699,9.1362267,1.6335878,-2.2061069,2.7404580,-11.7482872,0.4812321,4.9679432,-22.9236641,223.4503784,130.2748108
890,0.2705434,3.2537034,9.1912937,0.5572519,-2.5343511,1.9770992,-12.2103662,1.8076130,7.4459291,-33.1068687,209.4351196,96.3816757
900,0.2777260,3.2058196,9.2750902,-0.3511450,-2.4274809,1.3435115,-13.5319586,3.5003049,8.9949694,-37.1297722,124.6488571,66.4122162
910,0.3782819,3.1842721,9.4019823,-0.5801527,-2.3816793,0.2519084,-13.8072910,4.4699516,9.5935173,-39.7404594,10.2290077,51.0839691
920,0.3280039,3.1842721,9.6006994,-0.0839695,-1.7557251,-0.5267175,-12.3875360,4.4460096,9.4762020,-37.8473282,-85.4274826,45.2061081
930,0.3806761,3.1818779,9.6509781,1.0839695,-1.2213740,-0.4809160,-10.3309278,3.9959023,8.9853926,-27.8854961,-137.8549652,43.0076332
940,0.2944853,3.2584918,9.6246414,2.5190840,-1.0381680,-0.5877863,-8.4874020,3.5577655,8.2719250,-13.8015270,-158.2290039,43.2137413
950,0.1604107,3.4404502,9.1960821,2.9847329,-0.0916031,-0.6870229,-4.8985114,2.6503677,5.9208307,15.1068707,-125.7328262,40.5648842
960,0.1053443,3.4811516,9.0548248,1.9847329,0.8625954,-1.2290076,-3.2225790,2.3750360,4.9751258,23.9083977,-92.4503784,33.8702278
970,0.0837966,3.5314295,8.9063845,0.4580153,0.7251908,-2.1374047,-2.0087249,2.0949159,4.3646073,28.0076332,-54.5267181,23.1832066
980,-0.0359128,3.3207407,9.1074963,-2.3282442,-0.8396947,-3.0916030,-1.4053892,2.0015423,4.1060348,22.5572510,13.8702288,-4.9389315
990,-0.0191535,3.2489152,9.3110027,-2.6946564,-1.3664122,-2.8931298,-2.0590029,2.0278785,4.6327567,20.1832066,33.3358765,-19.9465656
1000,-0.0766141,3.1986370,9.5049324,-2.4427481,-1.4503816,-1.9694656,-3.0454090,1.9584470,4.9631548,19.6106873,38.6564903,-33.0076332
1010,-0.0335187,3.1339941,9.7587166,-0.9083970,-1.5725191,-0.4503817,-3.9839313,1.9416877,5.1475072,20.6488552,33.8015251,-42.6870232
1020,0.0287303,2.9975252,9.6198530,0.8396947,-2.4656489,0.2671756,-5.1499014,1.9895715,5.1810260,21.4427490,22.8091602,-50.3206100
1030,0.0071826,3.0214672,9.7371683,2.4961832,-3.6564887,1.5190840,-6.6797886,2.0685797,4.8937230,21.0763359,8.5648851,-55.4732819
1040,0.4309541,3.3207407,9.2774839,4.7862597,-3.8549619,0.8778626,-7.8960366,2.2936335,4.0294209,-10.6030531,-23.7480907,-31.2442741
1050,0.4477134,3.4117200,9.1074963,3.6030533,-3.0000000,0.4732825,-7.4555058,2.0206959,4.5776901,-19.3969460,-12.6106873,-25.3816795
1060,0.3998296,3.4212968,9.0524302,2.0305343,-1.4885496,-0.2977099,-7.1442614,1.8195840,5.4539638,-24.0839691,-0.0229008,-23.0839691
1070,0.2633608,3.4572096,9.0620070,-0.7404580,1.5572519,-1.5419847,-7.0460997,1.6017127,6.6702118,-22.6259537,19.0534344,-25.8549614
1080,0.0646431,3.5074875,9.1074963,-1.4045801,3.1526718,-1.6717557,-7.0293403,1.6974803,7.1298962,-19.1450386,19.1832066,-29.3511448
1090,0.0143651,3.5553713,9.1745338,-2.2442749,3.7709923,-1.7786260,-7.0317345,1.6017127,7.6925306,-14.6717558,17.3053436,-34.7709923
1100,-0.0670373,3.5410061,9.1793222,-2.6641221,3.6717558,-1.6412214,-7.0077925,1.6424140,7.7404146,-9.0534353,13.5725193,-39.9694672
1110,-0.1244979,3.3782012,9.1984758,-3.0534351,2.7480917,-1.6870229,-6.9862447,1.5418580,7.8912482,-2.9389312,11.4885492,-46.2061081
1120,-0.1747758,3.2560976,9.3684635,-3.9770992,0.4732825,0.1068702,-8.0516596,1.2234308,7.7428088,10.8396950,8.3282442,-58.6412201
1130,-0.0981618,3.2082138,9.6126709,-2.8702290,-0.4427481,-0.2900763,-9.1434097,1.4269369,7.4076223,17.4961834,-2.9694657,-64.9160309
1140,-0.1460456,3.1770895,9.7730818,-0.1374046,-3.3664122,0.8625954,-10.4051476,1.7645177,6.7252784,16.4961834,-39.0458031,-72.6946564
1150,-0.0167593,3.2393384,9.6868906,1.4274809,-5.4961834,2.4198472,-12.0212250,2.3894010,6.5121951,8.0839691,-66.4198456,-75.2442780
1160,0.2944853,3.2417326,9.5887289,3.5343511,-3.7862597,4.5190840,-11.6692791,1.9608412,6.4738884,-0.5114504,-64.1603088,-41.3129768
1170,0.4429250,3.4428444,9.3014259,5.2061067,-6.0229006,2.1297710,-9.7539282,2.0111191,6.5768385,4.0839696,-14.3740454,-17.7022896
1180,0.3758878,3.5026991,9.1769285,4.7786260,-5.9618320,1.1755725,-9.7299862,1.9512644,6.7899213,6.5038166,11.0916033,-11.6870232
1190,0.3447633,3.5026991,9.1218615,3.0458016,-4.8396945,0.8854962,-10.0364418,1.9392935,6.9958215,9.8244276,28.6793900,-3.0000000
1200,0.4333483,3.4332676,9.0979195,1.1755725,-2.6183207,0.8244275,-10.4075413,2.0254843,7.1131368,13.6106873,33.8244286,5.1832061
1210,0.3327923,3.3638363,9.1649570,-1.2519084,-0.2290076,-1.2977099,-10.7618818,2.0613971,6.7085190,17.1603050,14.9083967,15.8015270
1220,0.3256098,3.2608860,9.1936874,-2.1679389,0.0839695,-0.5725191,-10.7379398,1.9776005,6.3182659,14.0687027,1.4198474,18.2213745
1230,0.3208214,3.2752512,9.4474716,-2.4122138,1.1297710,-0.2366412,-10.9127159,1.8315549,6.2177100,8.0763359,-8.8549614,19.7251911
1240,0.2226596,3.3853838,9.4067707,1.2977099,0.0534351,-0.6259542,-13.3667593,2.0422437,8.1546097,-9.4427481,6.5725193,54.1450386
1250,0.0909792,3.4955165,9.1984758,1.6106870,-0.4274809,-1.5648855,-12.5838594,1.1109039,9.4714136,5.8320613,25.3587780,93.1297684
1260,-0.0742199,3.4979107,9.1888990,1.3129771,-1.1755725,-1.8396946,-13.4074612,0.6871324,9.1721401,19.4198475,13.3816795,102.3664093
1270,0.1795642,3.2920105,9.3660688,1.7786260,-4.3206105,-0.4732825,-14.0778341,0.9409165,9.5743637,19.1603050,19.0839691,154.8778687
1280,0.1915352,3.3255291,9.3756456,2.4885497,-4.4351144,-0.0229008,-14.5135765,1.3048333,9.4809904,29.0839691,15.1145039,178.0534363
1290,0.4165890,3.4212968,9.2463598,2.6793892,-2.7633588,-0.8778626,-10.5272512,0.8451489,4.1347651,40.1832047,123.1603088,250.1297760
1300,0.3902529,3.4811516,9.1912937,2.1297710,-1.8244275,-1.4122137,-9.2487535,0.1532281,3.4284792,28.9770985,156.4198456,250.1297760
1310,0.4357425,3.5098817,9.0763721,1.8778626,-1.0916030,-1.5267175,-7.1418672,-0.6272776,3.2632802,14.1068707,181.8167877,250.1297760
1320,0.3184272,3.4667864,9.1266499,1.1145039,-0.7557252,-2.0076337,-5.0445571,-1.1587877,3.6726866,0.3893130,193.1374054,250.1297760
1330,0.1819584,3.5601597,9.0524302,0.1679389,-0.0305344,-1.7862595,-2.8562679,-1.6328372,4.4100971,-10.2442751,192.5038147,250.1297760
1340,0.2130829,3.5050933,9.1386213,-0.5648855,-1.4198474,-0.9847328,-0.9911944,-1.7764885,5.3246775,-15.5419846,179.1297760,250.1297760
1350,0.3280039,3.4931223,9.2152348,-1.0763359,-0.1679389,-1.8931298,0.5961532,-1.8004304,6.1626434,-15.3969469,158.1679382,250.1297760
1360,0.2298422,3.4380560,9.1242561,-1.9007634,1.8854961,-2.0305343,2.1356170,-1.6615674,6.7157016,-10.2137403,132.2442780,250.1297760
1370,0.0335187,3.4380560,9.2822723,-2.8473282,2.6030533,-1.5190840,3.3015873,-1.3910241,6.4212160,-1.9770992,108.2213745,250.1297760
1380,-0.0119709,3.4117200,9.3564920,-2.7709923,1.4580153,0.0152672,4.4795284,-1.1875180,5.7221127,4.4351144,87.7328262,250.1297760
1390,0.0670373,3.3734128,9.3564920,-2.4351146,0.7709923,0.4885496,5.9447722,-1.0127422,4.9009056,6.7557254,71.2519073,250.1297760
1400,0.1364688,3.3973548,9.3876171,-1.9465649,0.0992366,0.3435115,7.7308378,-0.9959828,4.2018023,5.1221375,49.2290077,250.1297760
1410,0.2130829,3.4428444,9.5025377,-0.8167939,-2.8244274,1.3206106,9.3517036,-0.8786675,3.3303175,1.0381680,24.4274807,250.1297760
1420,0.2513899,3.3303175,9.1721401,-1.1832061,2.1068702,-0.2824427,12.3133163,-0.4477134,1.9416877,-16.4351139,-5.8091602,206.5648804
1430,-0.0119709,3.5888901,9.2487535,-1.7022901,3.4122138,0.8244275,13.8815107,0.4429250,1.9728121,-23.8931293,-1.9083970,159.9541931
1440,0.0095768,3.5362179,9.1865053,-0.6335878,-0.9923664,1.7099236,15.9333305,2.3965836,4.2257442,-17.0992374,35.6412201,-32.1297722
1450,0.3926471,3.3159523,9.4307127,0.0992366,-2.0229008,4.2595420,19.6126022,2.3319404,3.9575951,-19.5801525,19.4732819,-250.1374054
1460,0.7038917,3.3207407,9.4953556,0.9923664,-2.2977099,1.4885496,17.4512463,-10.5200682,9.6533718,-12.6030531,-61.8473282,-250.1374054
1470,0.7469871,3.3758070,9.4833841,1.4045801,-1.3282443,0.2824427,10.6804790,-18.2221756,10.8025827,2.1984732,-110.7709961,-250.1374054
1480,0.5722113,3.4404502,9.5049324,1.7786260,-0.2137405,-0.2442748,0.6224893,-19.6131992,11.1712875,18.1068707,-175.1679382,-250.1374054
1490,0.4525018,3.5529771,9.3517036,2.3893130,0.4427481,-0.5725191,-12.3540173,-19.6131992,10.2998028,26.6641216,-250.1374054,-250.1374054
1500,0.3758878,3.6200144,9.1912937,2.5954199,1.2519084,-0.9007633,-19.6131992,-19.6131992,9.8760319,14.5877867,-250.1374054,-250.1374054
1510,0.2130829,3.6870518,9.0189114,1.6030535,1.8854961,-1.5648855,-19.6131992,-19.6131992,10.0316534,-22.0610695,-250.1374054,-250.1374054
1520,0.0694315,3.7205703,8.9806042,0.6030535,1.9923664,-2.0610688,-19.6131992,-10.5416164,15.4425220,-84.5648880,-250.1374054,-250.1374054
1530,-0.0191535,3.6726866,8.8441362,-0.6335878,1.1145039,-2.0687022,-19.6131992,1.6519908,19.6126022,-94.3969498,-250.1374054,-250.1374054
1540,-0.0742199,3.6128318,8.9470863,-1.9236641,-0.4580153,-1.9160305,-19.6131992,2.4731977,19.6126022,-12.7633591,-84.5801544,-24.5877857
1550,-0.0167593,3.4596038,9.1697454,-2.4885497,-1.4809160,-1.6030535,-19.6131992,-0.8427547,19.6126022,106.9236679,143.3206177,190.0686951
1560,0.0646431,3.3590479,9.3732519,-2.3435113,-2.5343511,-0.9541985,-19.6131992,-3.1004753,14.5973730,177.5725250,250.1297760,250.1297760
1570,0.1891410,3.2944047,9.6102762,-1.2900764,-2.9007633,-0.0305344,-11.0348196,-2.8203552,9.3373384,175.1832123,250.1297760,250.1297760
1580,0.3088504,3.2848279,9.5264797,0.1221374,-3.6564887,0.3969466,-3.1555417,-1.2425843,7.5560617,142.0305328,250.1297760,250.1297760
1590,0.3543400,3.2800395,9.5480280,1.6641221,-4.3816795,1.1755725,-0.9313397,0.9792235,7.4219875,111.7022934,250.1297760,155.5343475
1600,0.5027798,3.2704628,9.5097208,3.1297710,-5.2061067,1.6564885,-2.0039365,2.9927368,6.5648675,89.7404556,95.4656525,53.0076332
1610,0.8188128,3.4236910,9.2703018,3.8091602,-3.6946564,1.3129771,-4.8530221,5.1858144,2.8634505,46.6488533,-179.9847260,-62.0839691
1620,0.8044477,3.5003049,9.1218615,3.0610688,-2.1679389,0.1450382,-5.3510137,5.3581958,2.3415172,24.5267181,-221.4045868,-80.0229034
1630,0.7517755,3.5912843,8.9662399,1.0229008,0.0381679,-1.1374046,-5.0325861,4.7165532,2.2888451,10.2519083,-220.7404633,-87.6335907
1640,0.6871324,3.6056492,8.8944139,-0.9007633,1.6259542,-2.2366412,-4.8602047,3.7133877,2.5186872,3.3740458,-190.7175598,-86.7709961
1650,0.4692611,3.6870518,9.0045462,-2.7175572,3.8015268,-2.9847329,-5.4443870,3.1986370,3.0334380,3.2290077,-131.5038147,-81.6030502
1660,-0.3471575,3.5769191,9.2343884,-3.0381680,5.4198475,-0.5343512,-7.1370788,2.7437410,3.8737986,42.9771004,65.9236679,5.7633586
1670,-0.4237715,3.3805954,9.3564920,-2.0839694,1.5954199,1.4045801,-6.4762826,2.5785420,3.3015873,39.8015251,56.2213745,6.0687022
1680,-0.3040621,3.3135581,9.3612804,-0.7022901,-2.3893130,2.8778627,-5.8154860,2.3726418,2.8395088,32.2748108,47.2519073,1.4427481
1690,-0.1556223,3.3231349,9.4115591,0.8244275,-4.8396945,3.6641221,-5.6095858,2.2864509,2.7078283,23.0229015,40.4656487,-7.2900763
1700,0.0837966,3.3518653,9.5815458,2.1755726,-6.4656487,4.5496182,-5.9016771,2.3223639,2.7413468,14.2595415,28.6793900,-17.6030540
1710,0.2992737,3.3422885,9.5456333,3.4198472,-6.3969464,5.0992365,-6.3972740,2.3726418,2.9568241,5.5648856,10.8702288,-27.8244267
1720,0.4668669,3.4093258,9.4785957,4.2977099,-6.2290077,5.0916033,-6.7923155,2.3917952,3.2872221,-3.9083970,-6.3206105,-36.2824440
1730,0.6392486,3.4596038,9.3086090,4.5038166,-6.3206105,4.4580154,-7.2304521,2.4995339,3.5817075,-12.5114508,-19.5190830,-42.2519073
1740,0.8092360,3.5769191,9.1865053,4.4809160,-5.7328243,3.4503818,-7.5584559,2.5282640,3.9264708,-18.9160309,-28.4122143,-45.6412201
1750,0.8810617,3.6032550,9.1386213,3.1526718,-4.4580154,2.0381680,-7.7164726,2.5450234,4.3310885,-22.7633591,-32.6412201,-47.2366409
1760,0.8786675,3.6655040,9.0667953,1.5419847,-2.3206108,0.3129771,-7.8792777,2.3606708,4.6016321,-24.3129768,-31.7022896,-47.2137413
1770,0.8571198,3.6583214,9.0524302,0.3893130,0.1297710,-1.7786260,-7.9822278,2.1954718,4.9487896,-23.9694653,-26.0610695,-46.3740463
1780,0.7445929,3.5936785,9.1194677,-0.6793893,2.1374047,-3.1526718,-8.0564480,2.1188576,5.2648225,-21.8244267,-17.6793900,-44.9923668
1790,0.6033357,3.5769191,9.1769285,-1.2061069,3.7862597,-3.9694657,-8.1977043,2.1308286,5.4922705,-18.3664131,-7.4885497,-42.8167953
1800,-0.1149211,3.3949606,9.3971939,2.2213740,1.4045801,-1.1068702,-13.6803989,2.2744799,5.4707227,-30.7709923,-74.0381699,-72.7022934
1810,-0.1651991,3.5098817,9.4402885,3.2671757,-0.1603053,0.3282443,-14.7098999,2.1164634,6.3948798,-38.7862587,-99.2290039,-61.2900772
1820,-0.1053443,3.5122759,9.3612804,4.4198475,-2.2213740,1.7099236,-13.3452120,2.0613971,6.6773944,-29.5648861,-84.2442780,-39.8244286
1830,0.0383070,3.4979107,9.2535419,5.3129773,-3.9389312,2.8015268,-11.8703909,2.2672975,6.6702118,-17.0381680,-59.9541969,-24.1450386
1840,0.1197095,3.5721307,9.2272062,5.6870227,-5.3435116,3.5343511,-10.5607700,2.2577207,6.7779503,-6.5343513,-26.6030540,-13.9923668
1850,0.2226596,3.5841017,9.0596132,5.1221375,-5.8015265,3.7022901,-9.9885588,2.2720859,6.6366930,3.2213740,7.7709923,-7.7175574
1860,0.3423691,3.6583214,9.0452480,4.2442746,-5.8320613,3.4580152,-9.8975792,2.2505381,6.3446021,10.5038166,30.0763359,-2.6106870
1870,0.4884146,3.6319854,8.9566631,3.1526718,-5.0839696,2.8167939,-9.9071560,2.0590029,6.1961622,13.6412210,41.4809151,0.5114504
1880,0.5889706,3.6559272,9.0500364,1.5343511,-3.8854961,2.3740458,-10.5009146,1.7118455,5.9208307,14.7557249,49.0305328,-3.2519083
1890,0.6823440,3.7109938,9.0883436,-2.4656489,0.0534351,0.7938932,-19.0361996,1.6232605,6.1363077,7.9465647,-4.6106873,5.2137403
1900,0.6464311,3.6128318,9.1721401,-3.3282442,1.6183206,-0.1679389,-19.6131992,1.2497669,6.0477223,-2.0534351,-24.1984730,29.0916023
1910,0.5219333,3.5673423,9.2870607,-3.6030533,2.8396947,-0.6946565,-19.6131992,1.2330076,6.6414814,-16.3206100,-12.1908398,65.2213745
1920,0.4165890,3.5529771,9.3373384,-3.4885497,3.5038168,-0.4503817,-19.6131992,1.2401901,8.0851774,-26.9923668,26.9465656,114.7480927
1930,0.3184272,3.5457945,9.3684635,-2.7709923,3.7251909,-0.4274809,-19.6131992,0.9959828,9.4738073,-25.3740463,68.0152664,169.2748108
1940,0.1867468,3.5649481,9.4594421,-2.1068702,3.3053436,-0.0687023,-19.6131992,0.4477134,10.6661139,-11.5877867,104.3740463,219.5343475
1950,0.1101327,3.6463506,9.4426832,-0.8320611,2.2519083,0.4274809,-19.6131992,0.1963235,11.4059181,9.3511448,131.3816833,250.1297760
1960,0.0574605,3.6463506,9.3349447,0.1603053,0.7404580,1.0534351,-19.6131992,0.0000000,11.2814207,30.2977104,140.5725250,250.1297760
1970,0.0861908,3.6559272,9.2655134,1.1603054,-0.2748092,1.7328244,-19.6131992,-0.5267217,9.7419567,46.7480927,133.8854980,250.1297760
1980,0.1077385,3.5481887,9.2774839,1.3740458,-1.6030535,2.2366412,-17.7624912,-1.0007712,8.1378498,54.8778610,130.8931274,250.1297760
1990,0.2537841,3.4667864,9.1481981,1.3435115,-2.1221373,2.4045801,-15.4209747,-1.1492109,6.6773944,56.2977104,127.1984711,250.1297760
2000,0.3734936,3.5194585,9.2679071,0.9694657,-1.9694656,2.5572519,-13.5008345,-1.1587877,5.2456689,52.7633591,122.1984711,250.1297760
2010,0.5147507,3.5481887,9.3493099,0.8778626,-2.2366412,2.2595420,-11.4825325,-0.9840119,3.6224086,46.3816795,121.2061081,250.1297760
2020,0.5267217,3.5745249,9.2248116,0.8396947,-2.2824428,1.8244275,-8.9973640,-1.1707586,2.3463056,34.7022896,118.9312973,250.1297760
2030,0.5219333,3.6104376,9.2439651,0.8625954,-2.3282442,1.0992366,-6.3493905,-1.4436963,1.3910241,17.8549614,117.8244247,250.1297760
2040,0.5698171,3.6655040,9.1649570,1.1755725,-2.7862597,0.3435115,-4.1012464,-1.5035510,1.0462608,-2.5038168,121.0916061,250.1297760
2050,0.6823440,3.6056492,9.2391768,0.7480916,-2.9389312,0.0839695,-2.4181314,-1.4748207,1.5777708,-20.8931293,126.2290039,250.1297760
2060,0.6105183,3.7923961,9.1194677,0.3664122,1.0076336,-0.7938932,-0.8403605,-1.6017127,2.3582766,-34.0076332,131.4732819,250.1297760
2070,0.4572902,3.9073172,8.9015961,-1.5496184,4.2442746,-1.9236641,0.5698171,-1.6256547,3.5529771,-40.3358765,134.7633514,250.1297760
2080,0.2681492,3.7133877,9.0644016,-2.4198472,3.6641221,-2.1297710,1.8746504,-1.6974803,4.5513539,-40.3435097,131.7099304,250.1297760
2090,0.1005560,3.7947903,9.0117292,-2.3664122,3.0076337,-2.1984732,2.9807658,-1.6639616,5.1953912,-36.0916023,128.7709961,250.1297760
2100,-0.0023942,3.7277529,8.9039907,-3.2137403,1.4351145,-2.3358779,4.1587071,-1.2114599,5.3390427,-28.4656487,128.7404633,250.1297760
2110,-0.1173153,3.6607156,8.9734221,-4.2595420,-0.0839695,-2.0610688,5.0493455,-0.9217629,5.1068063,-20.8549614,132.1603088,250.1297760
2120,-0.0957676,3.5290353,9.0859489,-4.8473282,-0.8091603,-0.8702290,5.7819676,-0.6392486,4.8458395,-15.3816795,132.0686951,250.1297760
2130,-0.0814024,3.5434003,9.3732519,-4.7022901,-1.2977099,0.2137405,6.5457139,-0.4836263,4.5322008,-12.2824430,124.5572510,250.1297760
2140,0.0933734,3.4117200,9.5169029,-4.0000000,-2.1832061,1.2671756,7.5249376,-0.2489957,3.7373297,-13.2290077,109.4580154,250.1297760
2150,0.2250538,3.3398943,9.6030941,-2.4351146,-3.0534351,2.4351146,8.3317795,-0.6177009,3.3590479,-17.8244267,94.6335907,250.1297760
2160,0.3064562,3.3614421,9.5815458,-0.8320611,-4.1374044,3.4274809,10.0915089,-0.3543400,3.1651185,-21.9083977,85.5954208,225.0458069
2170,0.5458752,3.3327117,9.4570484,0.3206107,-4.7404580,4.0381680,10.8720140,-0.3112446,3.1076579,-28.9847336,70.0534363,189.8854980
2180,0.8403605,3.6918402,9.2200232,-0.1145038,1.0076336,1.1908396,13.0052376,0.7757174,2.0183017,-49.3206100,38.5648842,31.8473282
2190,0.5123565,3.7229645,9.1338329,-1.7099236,4.5038166,-0.4961832,13.8072910,1.5083394,3.4308734,-67.4198456,-7.8015265,-59.9847336
2200,0.3016679,3.7516949,9.1218615,-1.7251909,5.1755724,-1.0152671,14.4728756,1.6855093,4.4172797,-74.1145020,-43.6946564,-109.2748108
2210,0.1795642,3.7588775,9.1242561,-1.9465649,5.1984735,-0.9770992,15.7824965,1.5250987,5.5377603,-76.5496216,-75.3893127,-163.0534363
2220,-0.0598547,3.6990228,9.1218615,-2.2824428,4.4045801,-0.6870229,18.2173882,1.2545552,6.4810710,-73.3587799,-92.3740463,-225.5267181
2230,-0.2202654,3.5936785,9.0548248,-2.1603053,2.8854961,0.1984733,19.6126022,0.6536137,7.4555058,-64.8473282,-83.4274826,-250.1374054
2240,-0.2753318,3.5410061,9.1218615,-2.3587787,1.0305344,1.5877863,19.6126022,-0.9217629,8.7890692,-47.5954208,-56.9389305,-250.1374054
2250,-0.1891410,3.5218527,9.1769285,-2.6259542,-0.2595420,3.5725191,19.6126022,-3.1028695,10.0053177,-22.9923668,-40.5725174,-250.1374054
2260,0.0742199,3.5386121,9.2990322,-2.7022901,-1.0381680,4.6641221,19.5413742,-6.2775645,10.7523050,3.3206108,-48.5572510,-250.1374054
2270,0.2489957,3.5338237,9.4666252,-2.4885497,-0.7404580,5.1603055,14.7601776,-11.3580351,11.1449518,28.0381680,-78.0763321,-250.1374054
2280,0.2968795,3.4859397,9.6533718,0.5648855,-2.5496182,4.6717558,7.8505473,-16.4337158,11.2479019,46.4274826,-144.5801544,-250.1374054
2290,0.4141948,3.5841017,9.3277617,1.9083970,-5.5419846,5.4503818,-2.3295465,-19.6131992,9.3947992,58.6793900,-239.6717529,-250.1374054
2300,0.5746055,3.5864959,9.3493099,2.5648854,-5.4656487,4.9083967,-13.3691540,-19.6131992,5.8154860,45.5648842,-250.1374054,-250.1374054
2310,0.5434810,3.5960727,9.2774839,2.3511450,-4.3511453,4.8549619,-19.6131992,-19.6131992,2.4109488,-21.4503822,-250.1374054,-250.1374054
2320,0.6895266,3.5242469,9.1386213,0.8244275,-2.6641221,3.5801528,-19.6131992,-18.3825874,4.8649931,-125.6946564,-250.1374054,-250.1374054
2330,0.6775556,3.5984666,9.1027079,0.6030535,-0.7709923,2.1832061,-19.6131992,-11.0396080,14.5590658,-196.5648804,-250.1374054,-250.1374054
2340,0.5961532,3.5146701,9.2224178,-0.4503817,-0.4351145,2.1297710,-19.6131992,-6.2823529,19.6126022,-170.3511505,-180.5343475,-250.1374054
2350,0.5291159,3.5338237,9.2487535,-0.8854962,0.4809160,1.9236641,-19.6131992,-3.2321558,19.6126022,-49.0839691,36.5267181,-192.6870270
2360,0.4788379,3.5912843,9.3253679,0.0076336,0.5877863,1.5877863,-19.6131992,-0.3974355,19.6126022,117.2290039,250.1297760,7.3053436
2370,0.3710994,3.6295912,9.3038206,0.1755725,-0.4503817,1.0839695,-19.6131992,-0.2681492,17.2237988,232.2824402,250.1297760,130.6870270
2380,0.3064562,3.5481887,9.2152348,0.3969466,-0.5954198,1.3282443,-19.6131992,-0.5339043,8.3844519,250.1297760,250.1297760,178.0000000
2390,0.3064562,3.6056492,9.1410151,0.1603053,-0.5801527,1.4427481,-14.1185350,0.4165890,3.4380560,218.1297760,250.1297760,158.7022858
2400,0.2154770,3.5434003,9.1386213,-0.3435115,-0.8396947,1.7633588,-10.4195127,1.8315549,0.8834559,161.2900696,250.1297760,102.0687027
2410,0.3136388,3.6846576,9.1936874,-0.4961832,-1.5267175,2.0305343,-8.5568333,3.1866663,-0.2537841,102.4198456,82.9465637,37.2137413
2420,0.3280039,3.6990228,9.1410151,-0.4961832,-2.0992367,2.2290077,-8.0085640,4.6543045,-0.6967092,53.0228996,-40.5496178,-14.6793890
2430,0.4070122,3.6535332,9.2080526,-0.6946565,-2.0839694,1.9770992,-8.9710283,5.5640965,0.0909792,16.2213745,-100.3358765,-42.5114517
2440,0.4141948,3.6415622,9.1817169,-0.7251908,-2.3435113,1.8015267,-9.5767574,5.7747850,1.5897418,-4.0916033,-131.3511505,-48.1374054
2450,0.4764437,3.6104376,9.1865053,-0.3664122,-2.4580152,1.5190840,-8.9231443,5.4970589,3.0238612,-8.4732828,-144.6717529,-48.3206100
2460,0.5195391,3.6008608,9.2104464,-0.3893130,-2.5496182,1.0381680,-7.5847921,5.0613165,3.7421181,-2.2213740,-153.2137451,-47.7328262
2470,0.5315101,3.5553713,9.2750902,-0.5419847,-3.0305343,0.9618320,-5.8466105,4.3813667,3.8378856,8.7862597,-148.4351196,-49.4198456
2480,0.6177009,3.5218527,9.2583303,-0.5114504,-3.0992367,0.7404580,-5.1092005,3.7445123,3.4835455,21.1755733,-127.2366409,-53.3435097
2490,0.6272776,3.5481887,9.2080526,-0.5648855,-2.3358779,0.3893130,-5.2456689,3.6918402,2.8706331,31.4580154,-85.0610657,-51.6641235
2500,0.6919208,3.5888901,9.2703018,-0.6564885,-1.5038168,0.0916031,-5.6335278,3.7397239,2.3798244,38.8702278,-34.3129768,-44.8473282
2510,0.6871324,3.6224086,9.3086090,-0.9236641,-0.1832061,-0.4503817,-5.9280128,3.5505829,2.0374553,43.8244286,11.8091602,-35.4274826
2520,0.3878587,3.5912843,9.1912937,-0.8015267,-0.8625954,0.5572519,-16.3116131,2.2457497,4.6758518,5.3206105,-15.3511448,-37.6030540
2530,0.4477134,3.5912843,9.1817169,-1.1984733,-0.2977099,0.5190840,-17.5541973,2.4229198,4.7165532,6.2595420,-22.3893127,-22.2748089
2540,0.5171449,3.6295912,9.1458035,-1.9770992,0.4198473,0.5572519,-18.4927197,2.9065459,4.7931671,6.9847326,-31.8167934,-2.1984732
2550,0.4908088,3.5864959,9.1098909,-2.8015268,1.4580153,0.7251908,-18.4184990,2.8514795,4.5896611,6.6641221,-34.9618340,20.9007626
2560,0.4596844,3.6295912,9.1841106,-3.3435113,2.2900763,0.4351145,-17.8367119,2.6024840,4.3885493,6.9770994,-28.3893127,41.4885483
2570,0.3830703,3.5481887,9.1481981,-4.4198475,2.9236641,0.2366412,-17.4871597,2.8610563,4.1611013,7.0763359,-15.5343513,59.4885483
2580,0.2178712,3.5266411,9.2391768,-4.5572519,2.6106870,0.7022901,-17.6140518,3.1172347,3.6798692,6.0610685,-2.6870229,79.9618301
2590,0.1268920,3.5266411,9.4163475,-3.8778627,1.9770992,1.1984733,-17.6451759,3.1962428,3.2417326,3.5572519,10.3358774,101.1603088
2600,0.1963235,3.4093258,9.5528164,1.4427481,-1.0000000,4.7862597,-18.5765152,2.8730273,2.1954718,-17.9770985,45.5114517,176.1297760
2610,0.3088504,3.3925664,9.4091644,2.8854961,-2.2977099,5.5419846,-18.5406036,2.6288199,2.1523764,-29.2671757,63.0687027,205.7328186
2620,0.4955972,3.3782012,9.3588867,3.7328243,-3.7709923,5.5343513,-18.3801918,2.5450234,2.4755919,-39.6412201,80.8625946,237.7099304
2630,0.6416427,3.3590479,9.2774839,3.7175572,-4.4961834,5.2519083,-17.3937855,2.3486998,2.8371146,-47.3740463,86.9923630,250.1297760
2640,0.7661406,3.4739690,9.2822723,3.8778627,-4.2213740,4.2366414,-16.1057129,1.8363433,2.9448531,-51.7480927,83.5954208,250.1297760
2650,0.8140244,3.5266411,9.2056589,3.3129771,-3.2061069,3.2977099,-14.5183649,1.3670821,2.5115047,-56.3893127,80.6335907,250.1297760
2660,0.7158626,3.6966286,9.2176294,3.1908398,-2.5114503,2.4809160,-12.8352499,1.0773853,2.3056045,-62.5419846,79.2290039,250.1297760
2670,0.8954269,3.7732425,9.1362267,2.2900763,-0.5267175,2.1755726,-11.0659437,0.7541697,2.0781565,-69.2366409,81.6335907,250.1297760
2680,0.5458752,3.9791429,8.9351149,2.2442749,2.4351146,-1.9236641,-6.9072366,-0.3112446,1.8866212,-85.4580154,93.1908417,250.1297760
2690,0.3639168,3.9480183,8.7340031,0.3129771,3.2442749,-2.0076337,-4.9990678,-0.6033357,2.2002602,-92.7557220,99.1526718,250.1297760
2700,0.4046180,3.9384418,8.8201942,-1.1374046,3.9236641,-4.0916033,-3.1770895,-0.7014975,2.5450234,-97.6106873,108.6412201,250.1297760
2710,0.0287303,3.9073172,8.7962523,-2.2366412,2.1755726,-5.3740458,-1.7142396,-0.6536137,3.0023136,-100.3053436,119.2824402,250.1297760
2720,-0.0861908,3.7540891,8.9375095,-3.6412213,-0.2824427,-4.9389315,-0.2561783,-0.8571198,3.4811516,-100.8778610,132.3053436,250.1297760
2730,-0.0215477,3.5362179,9.2200232,-3.6183207,-1.4274809,-4.0152674,1.0079538,-1.0941446,4.2879934,-99.6564865,136.0000000,250.1297760
2740,-0.0167593,3.5481887,9.5647869,-2.3206108,-3.8015268,-2.4961832,2.1188576,-1.2354017,5.2552457,-97.5267181,119.6717529,250.1297760
2750,0.1029501,3.4189026,9.6342182,0.1450382,-6.5190840,-1.0000000,3.1962428,-1.2066715,6.0764527,-93.1450348,90.9083939,250.1297760
2760,0.1963235,3.3638363,9.5623922,5.0229006,-9.8167934,2.5496182,6.7611909,-1.3407460,6.6845770,-79.9923630,4.3206105,250.1297760
2770,0.5650287,3.3398943,9.5145092,6.2900763,-9.7633591,3.8549619,10.0268650,-1.4652439,6.3565731,-74.8396912,-44.2977104,250.1297760
2780,0.7733232,3.4093258,9.4402885,6.6641221,-8.7022905,4.1145039,13.7258883,-1.4508789,5.9806852,-71.6870193,-86.1450348,210.6641235
2790,0.9983770,3.4739690,9.4211359,6.7175574,-7.8549619,3.2900763,17.0562057,-1.3455344,5.4635406,-72.6641235,-114.0000000,152.8625946
2800,1.2186425,3.5888901,9.3588867,7.0458016,-6.9923663,1.6412214,19.6126022,-0.6153067,6.1578555,-68.7862625,-111.3587799,91.6717529
2810,1.2617378,3.6822634,9.3229742,7.6641221,-6.7480917,-0.4122137,19.6126022,-0.4812321,6.9192076,-57.5419846,-77.1221390,12.0152674
2820,1.0749911,3.7349355,9.1745338,7.2061067,-7.7404580,-1.0687023,19.6126022,-0.6200951,7.7595682,-37.0228996,-29.0839691,-80.9160309
2830,1.2330076,3.6559272,9.1984758,6.3664122,-4.1374044,-3.0152671,19.6126022,-1.1204807,7.9104018,-13.2900763,7.2824426,-180.0305328
2840,1.1132981,3.8402798,9.1841106,6.9160304,-1.4885496,-6.2061067,19.6126022,-2.4612267,7.4866304,5.5954199,18.4045811,-250.1374054
2850,0.6967092,3.8690102,8.8920193,5.1068702,-0.7480916,-5.6641221,19.6126022,-4.6614871,6.8593526,16.2748089,5.5038166,-250.1374054
2860,0.8523315,3.8163381,8.7052727,1.4809160,2.7786260,-5.2977099,19.6126022,-7.3717093,6.4714942,20.9312973,-30.9770985,-250.1374054
2870,0.7421987,3.8259149,8.8608952,-0.6412213,8.3664122,-6.3282442,15.8543224,-9.9789820,6.4595232,21.1450386,-75.9007645,-250.1374054
2880,0.4046180,3.7828193,9.0596132,-0.1755725,8.8702288,-6.8091602,11.7889891,-12.1481171,6.8904772,19.8931293,-112.7633591,-250.1374054
2890,0.1795642,3.9144998,9.1745338,-0.4656489,5.8854961,-6.6717558,8.4347296,-14.9612904,7.6326761,19.7251911,-135.3816833,-250.1374054
2900,0.1508339,3.7397239,9.1170731,-0.3358779,3.5267177,-6.4656487,4.5657191,-18.9811344,8.8010406,25.4656487,-140.6183167,-250.1374054
2910,0.2274480,3.7732425,9.3708572,1.4427481,1.6870229,-5.3664122,-2.2768741,-19.6131992,9.4594421,41.5725174,-155.1679382,-250.1374054
2920,0.0215477,3.7828193,9.3469152,2.8396947,0.7175573,-5.1145039,-13.7354650,-19.6131992,9.2631187,59.6412201,-212.7786255,-250.1374054
2930,0.0023942,3.8091555,9.2631187,4.5190840,0.3740458,-5.8167939,-19.6131992,-19.6131992,8.1761570,56.0381660,-250.1374054,-250.1374054
2940,-0.1915352,3.7516949,9.2032642,3.8854961,-1.2748091,-4.0076337,-19.6131992,-19.6131992,8.1713686,22.3435116,-250.1374054,-250.1374054
2950,-0.2011119,3.5434003,9.1960821,4.3206105,-2.3740458,-0.2900763,-19.6131992,-8.3772688,12.1122046,-24.8473282,-250.1374054,-250.1374054
2960,0.0071826,3.7325413,9.2870607,5.4580154,-5.1679387,1.8625954,-19.6131992,1.3144100,15.6603928,-51.2748108,-250.1374054,-250.1374054
2970,0.1867468,3.7708483,9.1673517,5.8549619,-8.6946564,2.3893130,-19.6131992,0.9097920,15.7394018,-35.8931313,-202.7633514,-70.6183243
2980,0.3806761,3.7612717,9.1769285,6.5954199,-10.1755724,3.0916030,-19.6131992,-2.2960277,13.8096848,5.5419846,-13.1068707,83.8167953
2990,0.5434810,3.7469065,9.1170731,6.5801525,-10.1068707,3.5343511,-19.6131992,-2.6120608,11.1760759,42.6183205,199.6335907,166.4885559
3000,0.6799498,3.8785870,9.1266499,6.3511453,-9.2213745,3.5267177,-13.8719339,-1.1276633,9.2104464,49.9465637,250.1297760,191.8244324
3010,0.7110743,3.9264708,9.1338329,6.4122138,-8.8091602,2.9694657,-11.0707321,0.2059003,8.7316093,38.5572510,250.1297760,169.8244324
3020,0.7469871,3.9144998,9.1888990,6.6335878,-8.7022905,2.2519083,-11.0204544,1.0127422,9.0069408,24.8702297,250.1297760,125.8931274
3030,0.7565638,3.9504125,9.0644016,6.4503818,-6.7633586,1.4961832,-8.7555504,2.9209111,7.8553357,16.5267181,-69.3664093,5.7938933
3040,0.7110743,3.9216824,9.0332766,5.9847326,-5.9770994,1.5648855,-8.1785507,3.0382264,6.8809004,17.9618320,-102.5954208,-11.6259546
3050,0.7062859,3.8953462,8.9734221,5.0916033,-5.2137403,1.4809160,-7.5800037,3.1148405,6.4283986,22.2595425,-106.0457993,-16.9236641
3060,0.6991033,3.9432299,8.8608952,0.6641222,-0.4961832,1.5496184,-7.0125809,1.8842272,2.9376705,27.0839691,12.1450386,-12.3282442
3070,0.8810617,4.0533628,8.8010406,-2.1068702,0.9770992,0.7175573,-7.3046722,1.6687500,3.2848279,7.9770994,15.8549614,-12.8167934
3080,0.8666966,3.9671719,8.8944139,-3.4198472,2.1297710,0.0381679,-7.5009956,1.3718705,3.7995787,-0.2900763,8.5038166,-15.2519083
3090,0.8140244,3.9743545,9.0859489,-3.9847329,2.6183207,-0.8549618,-7.9654684,1.3191984,4.6878228,-10.9465647,-22.8778629,-24.1984730
3100,0.6560079,3.9719603,9.1194677,-3.3511450,2.5954199,-0.9389313,-8.1761570,1.3551112,5.1762376,-12.9694653,-34.4045792,-26.0610695
3110,0.5889706,3.9408360,9.1218615,-2.6717558,2.0992367,-0.9847328,-8.2743187,1.3646880,5.4946647,-12.8015270,-39.4274826,-25.9389305
3120,0.4572902,3.9456241,9.1865053,-2.2061069,1.6717557,-0.4656489,-8.3006544,1.4556671,5.5928264,-11.1908398,-39.3893127,-25.1374054
3130,0.4094064,3.8570392,9.1553802,-1.8320611,1.9618320,-0.0610687,-8.2910776,1.5897418,5.4348102,-9.9694653,-37.1526718,-21.2748089
3140,0.3591284,3.8690102,9.0763721,-1.5648855,1.1984733,0.8549618,-8.1474266,1.5634058,5.1499014,-10.1374044,-31.5877857,-17.1755733
3150,0.3351865,3.8450682,9.1529865,-1.1068702,0.5038168,1.5114504,-7.9846220,1.5849534,5.2384863,-11.2213745,-24.8702297,-13.8549614
3160,0.3782819,3.8953462,9.1122847,-0.1679389,-0.8931298,2.0763359,-7.7045016,1.5514348,5.2887645,-13.3740454,-17.0534344,-11.1832066
3170,0.7230452,3.8690102,9.1841106,0.8778626,-2.4961832,2.7099237,-7.1155310,1.4796091,5.7221127,-18.0610695,3.0534351,-9.4656487
3180,0.8140244,3.9623835,9.1529865,1.2671756,-3.0992367,2.7786260,-7.0413113,1.3479286,5.9328012,-19.0534344,8.3358774,-13.3816795
3190,0.8906385,3.8785870,9.0739784,1.6793894,-2.4427481,1.9541985,-7.2735476,1.3742647,6.1674318,-19.8625946,9.9465647,-20.3893127
3200,0.9026094,3.9671719,9.0787668,1.9083970,-2.3511450,1.1450381,-8.0899658,1.3359578,6.5289545,-19.9694653,7.4885497,-29.7633591
3210,0.8906385,3.9240766,9.0021524,1.0534351,-1.3358779,0.3587786,-9.8927908,0.8140244,6.7348547,-19.8473282,1.7175573,-38.7480927
3220,0.9576758,3.9982965,8.8728657,-0.2290076,0.5343512,-0.2748092,-12.1337519,0.5003856,6.7827387,-20.4122143,-6.9312978,-46.4656487
3230,0.8762733,3.9432299,8.9949694,-1.1984733,1.6335878,-1.1984733,-14.8822813,0.5937590,6.7013364,-23.4809170,-15.0305347,-44.4809151
3240,0.7589580,4.0198441,8.9614515,-2.0381680,1.5877863,-1.8244275,-18.8805771,0.5985473,6.8330169,-29.2595425,-6.8167939,-26.7557259
3250,0.7350162,3.9863255,9.0021524,-2.7175572,1.5954199,-1.8549619,-19.6131992,0.6727672,7.0796180,-34.5572510,10.5725193,11.8549614
3260,0.6655847,4.0126615,9.1865053,-2.4122138,1.5267175,-2.0000000,-19.6131992,1.1803354,8.0013809,-41.9160309,33.4809151,74.3282471
3270,0.5985473,3.9121056,9.2463598,-1.7175573,1.3893130,-1.6641221,-19.6131992,1.6280488,9.1410151,-51.5496178,58.6870232,162.7709961
3280,0.5099624,3.9791429,9.2439651,-0.9847328,0.7175573,-1.6106870,-19.6131992,0.5722113,10.2447367,-54.3969460,69.2595444,250.1297760
3290,0.4046180,3.9504125,9.1577749,-0.3893130,0.1603053,-1.3816794,-19.6131992,-1.1420283,10.9629936,-46.2290077,77.0229034,250.1297760
3300,0.3471575,3.9240766,9.1290445,0.5114504,-0.8549618,-0.9083970,-19.6131992,-2.2529323,10.9031391,-29.7786255,86.2671738,250.1297760
3310,0.3280039,3.8307030,9.1769285,0.9770992,-2.0000000,0.3206107,-15.5191364,-2.6096666,10.4602137,-10.2977095,106.3358765,250.1297760
3320,0.3615226,3.9360476,9.1649570,1.5190840,-2.3587787,1.0458015,-13.5726604,-2.1212518,9.9263096,8.2748089,127.8320618,250.1297760
3330,0.4357425,3.9288650,9.1721401,2.1145039,-3.5343511,1.2213740,-12.6341381,-1.0199248,9.1601686,22.5801525,128.7557220,250.1297760
3340,0.5458752,3.9073172,9.1266499,2.6564887,-4.4656487,1.7557251,-11.9206696,-0.4357425,7.9726510,32.1221390,116.1145020,250.1297760
3350,0.6368544,3.9121056,9.0548248,3.0916030,-5.3282442,2.1526718,-10.3213511,-0.2370248,6.6055689,34.5496178,98.6259537,250.1297760
3360,0.7326220,3.9647777,8.9758167,3.0992367,-5.3893127,1.9312977,-8.2503767,0.1340746,5.3390427,32.1679382,80.1145020,250.1297760
3370,0.8379663,3.8905578,9.0093346,2.6870229,-5.0992365,1.5419847,-6.8114691,0.2178712,4.3071470,27.5648861,69.0687027,250.1297760
3380,0.8690908,3.9384418,8.9734221,1.7251909,-4.1145039,1.3587786,-5.5832496,0.5841822,3.5912843,21.8778629,64.5572510,250.1297760
3390,0.9720409,4.0437860,8.8968077,0.6793893,-2.4503818,0.8091603,-4.4651632,0.8858501,3.2824337,14.6183205,59.5801544,250.1297760
3400,1.0247130,3.9982965,8.9566631,-0.2137405,-1.4351145,0.0076336,-3.1555417,1.1492109,3.0334380,6.3740458,57.0763359,250.1297760
3410,0.5698171,4.0318151,9.1338329,-2.4732823,2.0229008,-2.6106870,1.3814473,1.8435259,4.3263001,0.8473282,84.3053436,250.1297760
3420,0.4668669,3.9911139,9.1458035,-2.2213740,1.6183206,-2.2977099,2.0757623,2.0709739,4.0342093,2.9770992,83.0152664,250.1297760
3430,0.4070122,3.8690102,9.2248116,-1.7862595,0.6183206,-1.7022901,2.5665710,2.2385671,3.5266411,1.9389313,81.3893127,250.1297760
3440,0.2944853,3.8354914,9.1721401,-1.1145039,0.0229008,-0.2213740,3.1890604,2.3678534,3.2944047,-2.8015268,80.7709961,250.0686951
3450,0.3902529,3.8474624,9.2750902,0.6641222,-1.7480916,2.3664122,4.4579806,2.1427996,3.3231349,-18.6488552,71.3282471,223.4809113
3460,0.3687052,3.8953462,9.2679071,1.7480916,-2.5572519,3.1374047,4.7572546,2.1068866,3.4787574,-25.0916023,60.4198456,208.5954132
3470,0.5434810,3.8857694,9.1817169,2.7251909,-3.5114503,3.9541984,4.9032998,2.0183017,3.7038112,-30.1603050,44.7251892,195.4732819
3480,0.6081241,4.0030847,9.0524302,3.1679389,-4.1068702,4.3358779,5.4084740,1.7836711,4.0270267,-34.1374054,28.2442741,184.1526642
3490,0.7398046,3.9887197,8.9614515,3.2213740,-4.2671757,4.0839696,6.0716643,1.5298871,4.1634955,-38.4580154,9.3282442,169.7328186
3500,0.8092360,4.0389977,8.8968077,2.6335878,-3.9083970,4.0610685,7.0149751,1.1324517,5.0565281,-39.1603050,-9.8702288,157.0686951
3510,1.1061156,4.0509686,8.8345594,-1.4351145,-0.5648855,2.3740458,10.1872759,0.6416427,5.9423780,-20.0839691,-73.5114517,87.3129807
3520,1.0462608,4.0629396,8.8968077,-3.9160306,2.3587787,0.1450382,13.9437590,0.5817881,4.6806402,-15.1068707,-126.1374054,16.8549614
3530,0.8978211,4.0054789,9.0644016,-4.2519083,3.6106870,-0.5572519,16.8766422,0.4285599,4.4603748,-20.1603050,-152.3206177,-33.1221390
3540,0.8547257,3.9863255,9.1673517,-4.1832061,3.7175572,-0.6641222,19.6126022,-0.2370248,4.6351509,-26.2977104,-165.0000000,-96.7709961
3550,0.7062859,3.9575951,9.1625633,-3.9389312,4.0687022,-0.6793893,19.6126022,-0.9696468,5.5545197,-24.9465656,-150.1603088,-175.2519073
3560,0.5554519,3.9552009,9.0979195,-3.5267177,3.9770992,-0.3969466,19.6126022,-1.6998745,6.4283986,-13.3664122,-106.7251892,-250.1374054
3570,0.4740495,3.9456241,9.0332766,-3.4732823,3.4503818,0.0381679,19.6126022,-3.3662305,6.7875271,7.6259542,-54.0916023,-250.1374054
3580,0.3710994,3.9432299,8.9422979,-3.6641221,2.5725191,0.8549618,19.6126022,-6.2775645,6.5050125,31.6183205,-12.8931293,-250.1374054
3590,0.3663110,3.9671719,9.0596132,-3.7862597,1.0839695,1.5648855,19.6126022,-10.2112179,6.0836353,53.0534363,10.4885492,-250.1374054
3600,0.4285599,3.8690102,9.1266499,-3.8702290,0.2061069,2.2748091,18.9787407,-15.1695843,5.5688848,70.3740463,0.1984733,-250.1374054
3610,0.4572902,3.9240766,9.1577749,-3.3282442,-0.5572519,2.9847329,12.1840305,-19.6131992,4.6207857,78.6564865,-31.5190830,-250.1374054
3620,0.5362985,3.8929520,9.3445215,-2.0381680,-1.6259542,3.7862597,2.9592183,-19.6131992,4.0270267,81.4503784,-61.8015251,-250.1374054
3630,0.6033357,3.8618276,9.3971939,-0.3053435,-2.6564887,4.1450381,-11.3939476,-19.6131992,3.6535332,86.3587799,-139.5114441,-250.1374054
3640,0.7182568,3.9384418,9.4163475,1.3740458,-3.3435113,4.3053436,-19.6131992,-19.6131992,2.1260402,80.0229034,-250.1374054,-250.1374054
3650,0.8619082,4.0318151,9.2559366,2.7099237,-3.5114503,4.2824426,-19.6131992,-19.6131992,0.3591284,16.6335869,-250.1374054,-250.1374054
3660,0.9840119,3.9456241,9.1003141,2.4809160,-2.4427481,3.6870229,-19.6131992,-10.8217363,4.3191175,-126.3587799,-250.1374054,-250.1374054
3670,0.9648584,3.9408360,8.8728657,1.5877863,-1.3969465,2.8931298,-19.6131992,1.4341195,13.7306767,-250.1374054,-250.1374054,-250.1374054
3680,1.0175306,3.9073172,8.9039907,0.4503817,-1.0458015,1.9236641,-19.6131992,0.5243275,19.6126022,-250.1374054,-250.1374054,-117.7022934
3690,1.1731528,3.9647777,8.8728657,-0.7251908,-0.9389313,-0.0534351,-19.6131992,-4.4507980,19.6126022,-140.3282471,-228.7175598,140.1984711
3700,1.1061156,3.9049230,8.8489246,-2.9770992,0.2061069,0.4809160,-19.6131992,-6.8785062,19.6126022,14.5343513,194.8396912,250.1297760
3710,1.2665262,3.8259149,8.9782104,-5.0229006,3.6183207,-1.4580153,-14.5303354,-5.3318601,19.5365868,98.2671738,250.1297760,250.1297760
3720,1.1923064,3.9168940,9.3804340,-3.3816793,5.8854961,-3.3587787,-7.9678626,-3.5146701,15.8543224,120.4580154,250.1297760,250.1297760
3730,0.9026094,3.9456241,9.2176294,-2.3511450,3.9770992,-4.2061067,-5.7532372,-1.0007712,13.7857428,115.8473282,250.1297760,231.2442780
3740,0.8427547,3.9528067,9.2296000,-1.8015267,4.6870227,-3.0458016,-5.6885943,1.2713146,11.3580351,102.3129807,211.3664093,129.1832123
3750,0.3782819,4.1587071,9.1074963,0.5648855,3.2290077,-4.8244276,-4.7069764,3.7373297,5.8801293,56.0992355,-178.9847260,-14.7022905
3760,0.1915352,4.1132174,8.8848372,0.3664122,1.7480916,-3.8854961,-4.6997938,4.3023586,4.6997938,33.3206100,-247.5648804,-54.3282433
3770,0.1149211,4.0342093,8.8992023,-0.0610687,0.6641222,-3.7251909,-5.1929970,4.1826491,4.2951760,22.2061062,-250.1374054,-75.4274826
3780,0.0622489,4.0844874,8.8537130,-0.6946565,-2.6183207,-2.3129771,-5.3055239,3.8522508,4.0437860,18.2290077,-248.3129730,-83.0152664
3790,0.0814024,3.9887197,8.9614515,-1.1984733,-3.6030533,-1.4045801,-5.0756817,3.6559272,3.8139439,17.6030540,-215.5954132,-84.9312973
3800,0.0885850,3.8019729,9.0667953,-1.1526718,-3.2366412,-0.2137405,-4.6112089,3.4643922,3.6271970,17.0229015,-174.7404633,-84.0229034
3810,0.0933734,3.8522508,9.3660688,0.1068702,-4.7251906,2.3664122,-4.5250182,3.2967989,3.6176202,16.0839691,-131.6030579,-81.2290039
3820,1.2018831,3.7756367,8.9710283,3.2290077,-6.3587785,5.9312978,-7.6111283,2.7940190,3.6750808,28.4122143,1.7557251,-40.9618340
3830,1.5155219,3.8354914,8.9063845,1.2977099,-3.6412213,3.7938931,-8.1306677,2.7557120,3.2848279,22.0534344,-0.8778626,-31.5572510
3840,1.3862357,4.1730723,8.9829988,-0.1908397,2.1984732,-0.4961832,-7.4555058,2.6407909,4.0006905,-11.7709923,-55.3664131,-5.6335878
3850,1.2665262,4.1874375,8.7555504,-1.5038168,4.0839696,-3.1221373,-6.3350253,2.3678534,4.4196739,-20.0839691,-79.0076370,-4.3129773
3860,0.9433106,4.1108232,8.8848372,-2.5877862,5.2671757,-4.7175574,-5.5210009,1.7166338,4.5465660,-25.2519093,-106.5496216,-9.4732828
3870,0.5769997,4.0389977,8.8345594,-3.5114503,6.1908398,-4.1374044,-5.7077475,0.6440369,3.9001346,-39.9618340,-166.0229034,-27.7480907
3880,0.4548960,4.1395535,8.9087791,-4.3282442,5.6870227,-3.7099237,-9.0093346,1.6974803,3.8235207,-76.3129807,-249.5801544,-50.0305328
3890,0.2705434,3.9767487,9.1170731,-4.0076337,4.5038166,-3.1526718,-11.5783005,1.6998745,5.3103123,-121.0610657,-250.1374054,-43.5267181
3900,0.1316804,3.9336534,9.2726955,-2.1374047,1.3740458,-2.0076337,-10.1705170,0.9433106,7.6949248,-151.3969421,-250.1374054,-29.5267181
3910,0.0023942,3.9288650,9.2655134,-0.6335878,-1.8778626,0.0916031,-7.7475972,0.0359128,10.4985209,-151.7175598,-250.1374054,-20.8473282
3920,0.1675933,3.8474624,9.3445215,0.6488550,-3.9389312,1.9847329,-6.0429344,-0.0263361,12.9812956,-129.1832123,-227.6488495,-14.6488552
3930,0.3256098,3.8498566,9.3445215,2.1755726,-5.9694657,3.2442749,-5.7628140,-0.1556223,14.1185350,-95.6335907,-168.1603088,-9.2900763
3940,0.4932030,3.8283088,9.2822723,3.5038168,-6.9465647,4.1679387,-6.2440462,-0.4525018,14.5854025,-62.0916023,-129.7862549,-0.8396947
3950,0.7374104,3.8690102,9.2559366,4.3206105,-6.8625956,4.9160304,-5.2408805,-0.3806761,13.8695393,-35.4045792,-114.8396912,9.6030531
3960,0.9935886,3.9264708,9.0931320,4.6412215,-6.5648856,5.0229006,-3.8642218,-0.2466015,12.8065195,-13.6259546,-103.8702316,14.4274807
3970,1.4843974,4.1682839,8.8154058,-0.0381679,0.3587786,-1.7099236,-1.9105632,0.1915352,9.8712435,5.5572519,-85.5725174,10.5419846
3980,1.3000449,4.1251884,8.7651272,-1.6717557,2.7099237,-3.7404580,-1.5777708,0.1005560,9.8137827,3.4427481,-84.4885483,2.1832061
3990,1.2210367,4.0749106,8.8106174,-2.6717558,4.1068702,-5.2061067,-1.4939742,0.1268920,9.6366129,1.4656489,-77.7938919,-6.3358779
4000,0.8954269,4.0868812,8.9662399,-3.2900763,4.8091602,-6.1297708,-1.7621235,0.0981618,9.6078825,-1.2442749,-69.1679382,-15.6412210
4010,0.7158626,3.9959023,9.0069408,-3.5038168,4.6564884,-5.9389315,-2.1116750,0.1675933,9.7563219,-4.7175574,-60.6412201,-21.1679382
4020,0.5147507,4.0270267,9.1027079,-3.5572519,4.9770994,-5.1984735,-2.5546002,0.2561783,9.8999729,-7.4274807,-54.2137413,-25.7480907
4030,0.3160330,3.9432299,9.2224178,-3.2519083,4.3816795,-4.2061067,-3.0669568,0.3663110,10.1848822,-9.1755724,-48.4809151,-25.9236641
4040,0.2178712,3.9312592,9.2463598,-2.3358779,3.2977099,-2.8625953,-3.4380560,0.4118006,10.3907824,-9.7862597,-43.6106873,-23.4045811
4050,0.0909792,3.9097114,9.2463598,-1.3053435,1.6183206,-1.0916030,-3.6224086,0.4429250,10.6397781,-8.8625956,-38.4274826,-18.5725193
4060,0.1939293,3.9216824,9.2176294,0.1603053,-0.7099237,0.6870229,-3.6726866,0.5027798,10.9079275,-5.5343513,-32.3282433,-12.5496187
4070,0.5386927,3.9264708,9.1817169,2.0763359,-3.9465649,3.1755726,-3.4955165,0.4094064,11.2167778,5.5801525,-19.6183205,-3.6717558
4080,0.8307837,4.0629396,8.9734221,2.2137403,-4.2290077,2.9847329,-3.2273674,0.5123565,10.8504667,15.7862597,-8.5496187,2.5419848
4090,0.9169745,4.0605454,8.9758167,1.4961832,-3.4885497,2.8091602,-2.9328821,0.5674229,10.5368280,18.8167934,-3.7938931,3.4580152
4100,1.0486550,4.0246325,8.7986460,0.1068702,-2.6259542,2.0534351,-2.6527619,0.6847382,10.1537571,19.8702297,0.4427481,2.9465649
4110,1.1923064,4.0701222,8.7531567,-1.3893130,-1.4274809,0.5343512,-2.5833304,0.6153067,9.7012558,18.6641216,1.3129771,0.2366412
4120,1.1635761,4.1419477,8.8872309,-2.8473282,0.8015267,-0.6259542,-2.6024840,0.6296718,9.4259243,14.9847326,-0.1755725,-3.2290077
4130,1.0606259,4.0988522,8.9231443,-4.6564884,3.1603053,-1.3511450,-2.7676830,0.7374104,9.1410151,8.9465647,0.1755725,-5.6717558
4140,0.9840119,4.0868812,9.0069408,-5.4427481,4.7862597,-2.3358779,-2.9424589,0.9073978,9.2631187,2.7557251,2.2137403,-5.0687022
4150,0.8331779,4.0653338,9.0476418,-5.2748094,4.8931298,-2.6488550,-3.1387823,1.0127422,9.4402885,-2.9007633,3.5877862,-2.8167939
4160,0.7445929,4.0222383,9.1003141,-5.4732823,5.1755724,-2.6259542,-3.1339941,0.9672526,9.8113880,-5.8091602,2.6183207,-0.7099237
4170,0.5841822,3.9049230,9.2463598,-4.1374044,5.0916033,-2.8625953,-3.1507533,0.9241571,10.0508070,-7.1526718,3.4198472,0.7404580
4180,0.4213773,3.8785870,9.1625633,-3.0458016,3.3893130,-2.1374047,-2.9472473,0.8379663,10.1034794,-7.6183205,5.5038166,0.4580153
4190,0.2082945,3.8594334,9.2056589,-2.3129771,1.5801526,-0.6870229,-2.8012016,0.7158626,10.1513634,-6.9923663,9.5267172,-0.8931298
4200,0.2657550,3.8714044,9.1697454,-0.6412213,-0.1068702,0.9618320,-2.6168492,0.6607963,9.8856087,-8.2900763,13.3129768,-3.9236641
4210,0.7062859,3.9815371,9.1027079,-2.3129771,0.7175573,-3.3358779,-6.2775645,-0.4812321,10.7618818,-19.0992374,160.6030579,-30.0534344
4220,0.5841822,3.8977404,9.2056589,-1.1526718,0.0992366,-2.9160306,-8.1139078,-0.2059003,11.3795824,-14.7099237,169.3511505,-24.0152664
4230,0.5123565,3.9312592,9.2750902,-0.0381679,-0.9465649,-2.2061069,-10.2447367,0.0359128,12.0882626,-13.4580154,159.3282471,-11.6030531
4240,0.5602403,3.9144998,9.2750902,1.2442749,-1.6488550,-1.4351145,-12.2726154,0.0837966,13.0842457,-14.6488552,128.6106873,6.4732823
4250,0.5506636,3.8498566,9.1338329,1.9847329,-2.2213740,-0.8015267,-13.0555153,-0.4046180,13.9437590,-13.8778629,87.6106873,28.1068707
4260,0.5937590,3.8857694,9.1386213,2.7022901,-2.2442749,-0.4198473,-12.5240049,-0.9864060,14.9038296,-6.6335878,43.2595406,46.5648842
4270,0.6512195,3.9121056,9.0332766,3.0076337,-2.7557251,0.1374046,-11.4250717,-1.5514348,15.3347836,8.8778629,4.3664122,56.2671738
4280,0.7110743,4.0078731,8.9758167,2.7251909,-3.3358779,0.9847328,-10.1298151,-1.9608412,15.0355101,30.5343513,-19.3435116,60.5648842
4290,0.7876883,3.9935081,9.0620070,2.4961832,-3.7557251,0.8320611,-9.1697454,-1.9871773,14.2669754,51.0992355,-20.8625946,62.7633591
4300,0.9768293,4.0318151,8.9446917,-1.0152671,0.8015267,0.0763359,-11.3173332,-1.3383518,12.0403786,90.7404556,84.7404556,119.0534363
4310,0.9073978,3.9887197,8.9207497,-1.8320611,1.9160305,-0.3740458,-11.7961712,-1.2928623,11.9565821,90.3358765,88.3511429,134.7786255
4320,0.9480990,4.0174499,8.9566631,-2.1374047,2.7709923,-0.8625954,-11.8392668,-0.7278336,11.8967276,92.9694672,85.7633591,151.0229034
4330,0.8619082,4.0605454,9.0739784,-2.5954199,3.1145039,-1.3206106,-11.6668854,-0.5410868,11.9110928,97.6259537,84.0305328,169.8167877
4340,0.8259954,4.0725164,9.1338329,-2.2900763,2.7786260,-1.4580153,-11.2526903,-0.7900825,11.4729557,104.7862625,82.6488571,187.6335907
4350,0.7158626,3.9480183,9.1984758,-1.6946565,2.3358779,-1.3969465,-10.6254129,-0.9289455,10.8049774,111.6564865,81.6793900,202.6259613
4360,0.5626345,4.0150557,9.1290445,-1.0000000,1.8473282,-1.4045801,-9.9765873,-0.6943150,10.3692341,116.4503784,82.0916061,215.2671814
4370,0.4453192,3.9695661,9.0476418,-0.3435115,0.1984733,-1.0076336,-9.8640604,-0.5099624,9.8592720,120.9618301,78.8244247,227.4427490
4380,0.5865764,4.0629396,9.2032642,0.7404580,-2.4198472,-0.1832061,-9.7730818,-0.0598547,9.5216913,124.9770966,72.4045792,241.6946564
4390,0.5769997,4.0126615,8.9566631,1.1221374,-0.6641222,-0.7175573,-8.9183559,0.0407012,8.9997578,130.3435059,62.7099228,250.1297760
4400,0.3280039,4.0605454,8.8800488,-0.0458015,0.1221374,-0.0381679,-7.5081782,-0.1675933,8.1905222,135.6641235,58.6106873,250.1297760
4410,0.3758878,3.9504125,8.9710283,-0.3206107,-1.0381680,1.4045801,-6.0022330,-0.1125269,7.2735476,139.8015289,64.7022934,250.1297760
4420,1.0582317,3.9312592,8.9351149,-5.1908398,3.5114503,-2.1603053,2.7317703,2.1475880,1.3646880,103.7099228,125.1221390,250.1297760
4430,0.3136388,3.8211265,8.9087791,-2.2442749,1.2595420,2.0152671,7.5369086,2.3510940,1.6472024,2.4045801,60.6183205,202.6488495
4440,0.4884146,3.8642218,9.2918491,-1.1984733,-3.1984732,3.1679389,9.8353300,2.0949159,0.5985473,-26.6946564,-20.3282452,147.0992432
4450,0.6105183,3.8354914,9.4498653,0.4885496,-4.4503818,3.8167939,10.7523050,2.0637913,0.4118006,-43.2977104,-45.5648842,115.8015289
4460,0.8092360,4.0964580,8.7794924,3.4198472,-1.0916030,4.4885497,12.5934362,1.9273225,1.2497669,-73.2442780,6.5496182,-6.1832061
4470,0.8283895,4.2281384,8.5520449,-0.0381679,-1.3664122,1.6183206,13.6013899,1.8818330,1.9033806,-76.0916061,56.7938919,-81.9618301
4480,0.8619082,4.2520804,8.5161324,-2.0763359,-2.1603053,0.5038168,13.9581242,1.8698620,2.3463056,-82.9389343,70.5572510,-129.4885559
4490,0.8403605,4.1347651,8.7986460,-3.4274809,-2.7099237,-0.6488550,14.9158001,1.4053892,3.7636659,-83.9389343,70.6106873,-178.6106873
4500,0.8882443,4.0796990,8.9877872,-4.1679387,-2.1603053,-1.3129771,16.5175133,0.5243275,4.6590929,-83.2977066,69.5648880,-250.1374054
4510,0.8236012,3.9432299,9.2415714,-4.0763359,-1.1832061,-1.7251909,18.1599274,-0.3471575,5.5545197,-77.9618301,58.6793900,-250.1374054
4520,0.9385223,3.9073172,9.4163475,-3.4961832,-0.5954198,-1.5114504,19.4839134,-1.5059452,6.3206601,-71.9236679,26.7175579,-250.1374054
4530,0.9528874,3.7756367,9.4977493,-1.7480916,-0.2748092,-1.4198474,19.4767303,-4.4914994,5.8274570,-70.7328262,-22.3129768,-250.1374054
4540,1.0199248,3.7062054,9.5169029,-0.3587786,-0.2824427,-1.1755725,16.6084919,-9.1362267,4.4364328,-78.6259537,-32.3053436,-250.1374054
4550,0.9768293,3.7780309,9.3732519,1.1526718,-0.2061069,-1.1297710,12.0475616,-14.8727045,4.5058646,-90.2824402,-11.2900763,-250.1374054
4560,1.1444225,3.8259149,9.2798786,1.9618320,0.5572519,-1.2137405,6.8809004,-19.6131992,6.6079631,-91.0000000,18.4274807,-250.1374054
4570,0.9959828,3.9480183,9.1458035,2.3206108,1.5343511,-1.5267175,-1.5227045,-19.6131992,9.4187412,-68.2900772,46.9923668,-250.1374054
4580,0.9289455,4.0749106,8.9518747,2.1526718,2.7862597,-1.6946565,-16.8910065,-19.6131992,12.5240049,-24.7480907,43.2900772,-250.1374054
4590,0.8259954,4.0222383,8.8106174,0.7175573,3.7862597,-1.7328244,-19.6131992,-19.6131992,15.7944679,36.4732819,-19.1603050,-250.1374054
4600,0.7206510,4.1491303,8.7148495,-0.5572519,4.4274807,-2.2748091,-19.6131992,-16.2996426,19.2923794,93.6793900,-170.3969421,-250.1374054
4610,0.5769997,4.1730723,8.7124557,-2.2061069,4.6259542,-2.2900763,-19.6131992,-0.8475431,19.4887028,107.3358765,-250.1374054,-250.1374054
4620,0.4477134,4.1658897,8.7196379,-3.6183207,4.1297708,-2.1679389,-19.6131992,2.9233053,15.0546637,105.8473282,-250.1374054,-197.2061005
4630,0.2873027,4.1180058,8.8896255,-3.9694657,1.1679389,-1.0610687,-19.6131992,0.7637464,9.4522600,121.4809189,-180.0305328,30.6259537
4640,0.4022238,4.0868812,9.0356712,-3.4274809,0.3129771,-0.7633588,-19.6131992,-1.7429699,4.3239059,127.9923630,66.9847336,178.2977142
4650,0.1843526,3.9863255,9.0189114,-3.4122138,0.7480916,-0.5496183,-16.5199070,-1.6472024,0.8068419,95.1603088,250.1297760,250.1297760
4660,0.1292862,3.8977404,9.2032642,-3.3816793,-0.2061069,1.3664122,-7.7882981,-0.4525018,0.0526722,38.0610695,250.1297760,248.0610657
4670,0.1891410,3.8163381,9.3277617,-1.7557251,-2.4580152,3.6259542,-9.4450769,0.6847382,0.8499373,-41.6183205,250.1297760,166.3206177
4680,0.4046180,3.8259149,9.3421268,0.1068702,-4.5114503,4.6412215,-17.9276905,1.9033806,6.5337429,-103.5648880,186.3587799,96.9312973
4690,0.5027798,3.9288650,9.4283180,1.7175573,-6.0916033,5.0687022,-16.2852764,3.0573800,10.5320396,-109.5343475,23.5725193,85.1297684
4700,0.7374104,3.9144998,9.3588867,3.3358779,-6.6870227,5.0687022,-9.2726955,3.6846576,11.0707321,-79.0839691,-70.3664093,65.5877838
4710,0.8690908,3.9575951,9.2343884,4.5267177,-6.8473282,5.3282442,-5.5281835,3.1387823,10.4889441,-41.4351158,-83.4122162,37.9160309
4720,1.0893562,3.9887197,9.0548248,4.7938933,-6.5190840,4.5725193,-5.5952206,3.2991931,9.1841106,-7.3664122,-68.0687027,16.2290077
4730,1.1468167,4.0150557,8.9710283,4.2519083,-5.7175574,3.7862597,-7.0030041,3.7588775,7.4866304,16.0687027,-61.1374054,9.5190840
4740,1.1755470,4.0222383,8.9351149,3.2671757,-4.3969464,2.6641221,-6.6223278,3.3710186,5.9351954,28.4198475,-70.4351120,7.5725193
4750,1.2521610,4.0964580,8.8417416,1.9312977,-2.7022901,1.6335878,-5.5664907,2.7605004,4.5058646,30.5572510,-80.1374054,1.9770992
4760,1.2665262,4.0773048,8.8632889,0.8167939,-0.9770992,0.4809160,-4.7165532,2.5785420,3.6200144,26.1145039,-76.9618301,-3.3893130
4770,1.1037214,4.1275826,9.0763721,-0.5877863,1.6564885,-1.7709924,-3.6008608,2.2816625,3.2632802,13.3893127,-24.7480907,-11.4885492
4780,1.0869620,4.0868812,9.0356712,-0.7557252,2.2595420,-2.6793892,-3.5098817,2.1380112,3.3782012,9.6259546,2.6412213,-17.9083977
4790,0.9696468,4.0366035,9.1074963,-0.9770992,2.6717558,-2.9618320,-4.1347651,1.9081690,3.6966286,7.2824426,17.7022896,-27.0458012
4800,0.9026094,4.0270267,8.9686337,-1.0229008,2.9923663,-3.2366412,-5.0469513,1.8938038,3.9097114,6.1068702,17.0916023,-36.8702278
4810,0.8188128,4.0820932,9.0021524,-1.3282443,3.4351146,-3.5877862,-5.7269011,1.7740943,3.9935081,3.6793892,5.5954199,-44.1374054
4820,0.6967092,3.9839313,8.8728657,-1.8320611,3.7328243,-3.6717558,-6.0549049,1.7788827,4.1299767,-0.4274809,-11.3282442,-50.4885483
4830,0.7350162,4.0366035,8.9375095,-2.5343511,3.1450381,-3.8091602,-6.1674318,1.6424140,4.4962878,-4.2366414,-30.0458012,-56.1526718
4840,0.7254394,4.0150557,8.8944139,-3.0076337,2.5343511,-4.0381680,-6.3446021,1.4269369,4.8027439,-5.5725193,-46.0000000,-60.7328262
4850,0.7948709,3.9695661,9.0021524,-3.5801528,2.3587787,-4.0229006,-6.5457139,1.2904681,5.1068063,-4.7099237,-54.4809151,-64.9542007
4860,0.7661406,3.9647777,9.0069408,-4.0610685,2.8931298,-3.9770992,-7.9750452,1.4173602,4.7021880,-13.2595415,-78.4656525,-75.8625946
4870,0.7350162,3.9432299,9.1146793,-4.3358779,3.4427481,-4.1679387,-11.9781294,2.0566087,5.0254035,-32.3511467,-117.7633591,-79.8320618
4880,0.7254394,3.9192882,9.1314383,-4.3816795,4.3816795,-3.6793892,-14.0371332,1.8147956,5.5712790,-53.9923668,-153.2213745,-62.3206100
4890,0.6033357,3.9073172,9.0907373,-4.3511453,4.4351144,-3.2519083,-14.1496601,1.6495966,6.6510582,-68.0457993,-171.6106873,-36.8091621
4900,0.4860204,3.9552009,9.0931320,-4.0458016,3.7862597,-2.5801528,-12.1002331,1.5203103,8.1115141,-68.0916061,-159.0763397,-14.8625956
4910,0.3208214,4.0150557,9.1817169,-3.3053436,3.2900763,-1.7251909,-9.7635050,1.4341195,9.1051025,-54.4351158,-124.4427490,-0.3435115
4920,0.1939293,4.0796990,9.3469152,-0.5267175,-1.7251909,1.3053435,-7.0197635,1.3718705,9.0715837,-14.7633591,-59.8473282,12.6564884
4930,0.0526722,4.0581512,9.0883436,0.7404580,0.0458015,2.1145039,-6.5409255,1.4245427,8.4706421,-5.4961834,-49.9083977,13.9389315
4940,-0.1412572,3.9839313,8.9853926,0.2137405,0.3511450,3.9312978,-6.1051831,1.5083394,7.9798336,-4.1068702,-51.1450386,13.2977095
4950,-0.1173153,3.9887197,9.0045462,0.1984733,-0.8244275,6.5343513,-5.5425487,1.5418580,7.6350703,-6.2671757,-58.2977104,9.9007635
4960,0.1101327,3.9049230,9.1218615,1.1984733,-3.8625953,8.3969469,-5.2432747,1.5346755,7.4890246,-9.6412210,-64.6870193,4.5343513
4970,1.0486550,3.8067613,9.1194677,4.0000000,-10.3282442,8.6793890,-6.5840211,1.5107336,8.1881275,-8.6717558,-67.6870193,-10.6259546
4980,1.7788827,4.0868812,8.9087791,1.9007634,-0.2900763,3.2824428,-6.4236102,1.3575054,7.9965930,-0.0458015,-39.6183205,-8.5190840
4990,1.7262106,4.1754665,8.8441362,0.4427481,2.5343511,0.5572519,-6.2057390,1.3335636,7.7643566,-1.3129771,-37.1908379,-8.0534353
5000,0.0191535,3.7397239,9.5001440,-3.3664122,0.5801527,-2.0458016,-6.0620875,1.1252691,8.7555504,-3.1984732,-15.8625956,6.0229006
5010,0.1005560,3.6702924,9.6366129,-0.8473282,-1.7175573,0.3969466,-5.9208307,1.1252691,8.6909075,-1.2900764,-12.1374044,6.5877862
5020,0.3208214,3.6343796,9.6126709,2.2213740,-4.0992365,2.5954199,-5.7412663,1.0534433,8.4921904,-1.0839695,-8.7175570,6.9694657
5030,0.6009415,3.6631098,9.5025377,4.5038166,-5.2748094,4.2519083,-5.5473371,1.0917504,8.4562769,-0.9694657,-6.7328243,6.0534353
5040,0.8044477,3.7828193,9.3062143,5.7786260,-4.9465647,5.0687022,-5.3988972,1.2234308,8.4945841,-1.0610687,-4.1603055,4.4351144
5050,1.0295014,3.9121056,9.0332766,6.2290077,-4.3969464,4.6793895,-5.4587522,1.2761030,8.5352850,-0.6488550,-2.1297710,2.9312978
5060,1.2210367,4.0749106,8.8369532,5.3282442,-3.3664122,3.5572519,-5.4156566,1.3407460,8.4347296,-0.5190840,-0.9847328,0.6717557
5070,1.2473727,4.2329268,8.6286592,3.2290077,-1.5190840,2.2213740,-5.3965030,1.4197544,8.3892403,-0.1297710,0.3511450,-0.9465649
5080,1.3096216,4.2472920,8.4874020,0.2748092,0.7328244,0.7633588,-5.1570840,1.3790531,8.2168579,-0.8549618,1.1297710,-3.0229008
5090,1.1587877,4.3215117,8.4658537,-2.3129771,3.0992367,-1.0076336,-5.0038562,1.5298871,8.3030491,-1.8854961,3.8320611,-8.1603050
5100,1.0031654,4.3406653,8.5807753,-4.8167939,4.8091602,-2.2061069,-4.9990678,1.6112895,8.3389616,-2.0458016,7.8931298,-13.4122133
5110,0.2298422,3.7277529,9.6030941,-1.4274809,-1.2213740,2.8091602,-7.6805596,0.7517755,7.9846220,-12.0381680,50.0152664,-33.9847336
5120,0.5937590,3.7612717,9.5576038,4.5190840,-5.3358779,5.5038166,-9.2415714,0.0311245,8.3006544,-15.5725193,119.9007645,-25.3664131
5130,0.7589580,3.8857694,9.3110027,6.5496182,-6.9923663,6.2137403,-11.0420017,-0.0359128,9.0548248,-16.8015270,171.2824402,-13.2824430
5140,0.9864060,3.9528067,9.0260944,7.1526718,-7.3511453,5.8396945,-13.4816809,0.2992737,10.2614956,-16.6106873,208.7251892,5.3282442
5150,1.1803354,4.1180058,8.8225880,6.3893127,-5.9694657,4.9541984,-16.5534267,1.0199248,11.9254580,-13.2442751,214.3206177,29.3893127
5160,1.3622938,4.1611013,8.6693602,4.8091602,-4.1297708,3.0916030,-19.3713875,1.3790531,13.2542324,-7.5419846,181.2290039,58.6259537
5170,1.4029950,4.3095412,8.5137377,-0.5419847,0.3511450,-1.6717557,-18.4975071,-0.2801202,14.3292236,18.7404575,44.6870232,111.2977066
5180,1.3311694,4.2305326,8.5951405,-2.9236641,2.5648854,-3.7938931,-15.5215302,-0.8930327,13.7019463,40.2366409,-5.6106873,118.7328262
5190,1.1180865,4.1778607,8.7842808,-4.4885497,3.9694657,-5.2671757,-13.3092995,-0.9744351,12.3755655,62.0076332,-25.5419846,116.1374054
5200,0.8403605,4.0940638,8.9949694,-5.2137403,4.0610685,-5.8702292,-12.4976692,-0.9073978,11.1162214,78.9694672,-22.3969460,113.1984711
5210,0.6200951,4.0413918,9.1338329,-4.9389315,4.1145039,-5.4809160,-13.1848011,-0.4955972,9.8568783,90.6259537,-9.2595415,114.9847336
5220,0.3232156,3.8714044,9.2559366,-3.2671757,3.0992367,-3.3816793,-15.9836092,0.9600700,8.4012108,93.7709961,23.4580154,150.7786255
5230,0.2537841,3.8929520,9.3373384,-1.8854961,1.6335878,-1.6488550,-16.8862190,1.2928623,8.2120695,89.2595444,45.9541969,186.2213745
5240,0.2466015,3.8546450,9.3086090,-0.3816794,-0.5572519,0.2366412,-17.5254669,1.3814473,8.0612354,86.1755753,59.8702278,227.3358765
5250,0.6679789,3.9456241,9.1458035,2.7175572,-3.8244274,4.0610685,-12.2199430,-0.4118006,7.1466556,89.3435135,49.5419846,250.1297760
5260,1.1061156,4.0701222,8.7507620,-1.7099236,0.2519084,0.6106870,-2.8562679,-0.5291159,4.4268565,100.7328262,55.0610695,250.1297760
5270,1.0055596,4.0892754,8.7914639,-2.9389312,1.3511450,-0.3129771,-1.4413021,-0.1268920,3.8977404,99.1068726,60.6259537,250.1297760
5280,0.8475431,4.0413918,8.9231443,-5.0000000,2.6641221,-1.0076336,1.2952565,0.4022238,3.3207407,92.9007645,83.5343475,250.1297760
5290,0.7302278,3.9552009,9.0859489,-5.6030536,3.5954199,-0.9618320,2.2194135,0.9600700,3.2321558,89.2671738,98.5648880,250.1297760
5300,0.4908088,3.9025288,9.1673517,-2.8549619,0.7938932,0.5343512,4.8051381,2.4444675,2.7126167,70.6564865,126.4809189,250.1297760
5310,0.8331779,4.0366035,9.1769285,0.5725191,-2.6488550,2.9389312,5.9663200,3.1603301,1.7046629,4.5496182,176.5343475,195.0305328
5320,1.0534433,4.0126615,9.0548248,0.1908397,-1.0000000,0.5267175,6.5624733,1.8914096,3.5242469,-46.7709923,42.4427490,131.6564941
5330,1.0749911,4.0868812,8.9877872,-1.1832061,0.9923664,-1.6870229,9.0165176,1.1516051,3.2896163,-52.8931313,0.7862595,100.2748108
5340,0.8882443,4.0605454,8.9710283,-1.5572519,1.2900764,-2.4809160,9.9191265,0.6895266,3.2249732,-56.4503822,-8.2442751,79.1755753
5350,0.5817881,3.9982965,9.1793222,-0.5038168,0.2977099,-2.9312978,19.6126022,-0.2178712,4.3286943,-90.4122162,-47.7251892,-94.4427490
5360,0.5362985,4.0198441,9.0548248,-0.1679389,-0.3664122,-2.4961832,19.6126022,-1.6926919,5.3079181,-102.5038147,-55.3053436,-188.6641235
5370,0.4740495,3.9336534,9.1266499,0.5877863,-1.2137405,-1.6793894,19.6126022,-3.8833754,7.2424231,-102.3053436,-55.3664131,-250.1374054
5380,0.4572902,3.9623835,9.0667953,1.0458015,-2.0610688,-1.1603054,19.6126022,-7.2041159,9.2296000,-82.6488571,-54.1374054,-250.1374054
5390,0.6416427,3.8977404,9.1434097,1.6030535,-3.0381680,0.0076336,19.6126022,-11.3221216,10.6852674,-53.5267181,-67.2366409,-250.1374054
5400,0.6655847,4.0126615,9.0021524,1.9083970,-3.7175572,0.3358779,19.6126022,-15.1025467,11.1521349,-31.8931293,-90.7938919,-250.1374054
5410,0.7134684,4.0413918,9.0260944,2.3282442,-3.3511450,0.6870229,14.7936964,-19.6131992,9.9885588,-19.1221371,-102.3053436,-250.1374054
5420,0.7445929,4.0461802,8.9806042,2.0076337,-3.3587787,0.5877863,6.1530671,-19.6131992,8.7507620,-8.1832066,-81.2137375,-250.1374054
5430,0.8786675,4.0222383,8.8585014,1.0916030,-2.9312978,0.5877863,-4.3406653,-19.6131992,8.2192526,12.2442751,-42.7709923,-250.1374054
5440,0.9696468,4.0150557,8.8106174,-0.1374046,-1.8854961,0.1068702,-19.6131992,-19.6131992,8.1833391,48.3053436,-50.8320618,-250.1374054
5450,1.0989330,3.9815371,8.7627335,-1.9847329,-0.0687023,-0.4809160,-19.6131992,-19.6131992,7.4650826,81.8778610,-93.9160309,-250.1374054
5460,1.1348459,3.9839313,8.7842808,-3.5725191,2.1526718,-1.3816794,-19.6131992,-19.6131992,9.4474716,102.6488571,-144.2213745,-250.1374054
5470,1.1228749,4.0437860,8.9614515,-4.9312978,3.9770992,-2.2290077,-19.6131992,2.6719155,10.2447367,82.5114517,-246.3206177,-250.1374054
5480,1.0414724,4.0461802,9.0500364,-5.5954199,5.1526718,-3.1526718,-19.6131992,8.5711985,7.9558916,31.9389305,-209.2900696,-204.2061005
5490,0.7278336,3.9743545,9.1577749,-4.6259542,5.3893127,-3.5954199,-19.6131992,0.2106887,4.5369892,12.4427481,142.3129730,242.2061005
5500,0.4213773,3.9408360,9.0644016,-4.0687022,5.2442746,-2.9312978,-18.7488976,-1.7932479,4.9152708,7.7099237,250.1297760,250.1297760
5510,0.2489957,3.9073172,9.1529865,-3.5648854,4.9083967,-2.0381680,-9.7874460,-1.0223188,6.9455438,1.0839695,250.1297760,250.1297760
5520,0.0287303,3.8953462,9.2798786,-1.3511450,1.4274809,1.2213740,-8.2671366,3.4356618,10.5895004,8.7862597,175.1068726,85.2442780
5530,0.0766141,3.8402798,9.2631187,0.0534351,-0.9083970,3.5877862,-8.9231443,4.5920553,10.0388365,15.2137403,-4.1526718,19.2442741
5540,0.2202654,3.8450682,9.2750902,1.6106870,-2.5725191,5.3282442,-8.3485384,5.1115947,8.3629036,18.5648861,-129.2748108,-23.5572510
5550,0.4213773,3.8235207,9.2200232,2.6183207,-3.7175572,6.8702292,-7.9558916,5.1427188,6.9144192,22.3511448,-190.0915985,-47.6412201
5560,0.6057299,3.8785870,9.1745338,3.1374047,-3.6030533,7.7786260,-7.5680327,5.0948353,5.8059096,29.1374054,-207.4580078,-57.7862587
5570,0.9097920,3.9192882,9.1745338,3.6793892,-3.8473282,7.4503818,-6.6821828,4.6543045,4.5585365,36.1221390,-195.4198456,-60.4961815
5580,1.1204807,3.9887197,9.1936874,3.6870229,-3.8091602,6.7251906,-6.1458845,4.3215117,3.1962428,39.9389305,-164.5877838,-60.5877876
5590,1.3311694,3.9671719,9.0308828,3.7480917,-2.3587787,5.8091602,-5.8083038,4.1922259,2.3870070,40.0152664,-118.2748108,-55.5190849
5600,1.3311694,4.0629396,8.8920193,1.7709924,1.0000000,2.3969467,-5.3845320,4.1227942,2.2361729,37.0458031,-3.0992367,-38.2595406
5610,1.3263810,4.1060348,8.8441362,0.6564885,2.7404580,0.5572519,-6.0501165,3.7708483,2.9209111,36.2290077,35.3358765,-35.6030540
5620,0.2370248,4.0557570,9.1003141,-0.4274809,1.3511450,-3.7099237,-16.1033192,3.8402798,2.2433555,5.4809160,-51.9389305,-36.9083977
5630,0.0981618,4.0078731,9.0739784,0.6870229,-1.6641221,-2.3969467,-18.7991753,4.3454537,2.3127871,-13.7709923,-62.1679382,-15.8854961
5640,0.0885850,3.9480183,9.1505919,1.7099236,-4.2671757,-1.1679389,-19.6131992,4.6734576,3.3422885,-31.8549614,-40.7022896,24.7557259
5650,0.2202654,3.8857694,9.1649570,2.8320611,-6.8015265,0.5419847,-19.6131992,4.6471219,4.9655490,-41.5343513,2.7328243,79.3893127
5660,0.3567342,3.9767487,9.1314383,3.2824428,-8.5801525,1.6412214,-19.6131992,4.3885493,6.9383612,-36.6870232,45.1068687,138.0381622
5670,0.6248835,3.9647777,9.0069408,3.9541984,-9.3206110,2.5496182,-19.6131992,3.5074875,8.3844519,-20.7786255,69.5801544,191.0152740
5680,1.1731528,4.1084290,8.8225880,-3.7786260,8.2595415,-5.9847326,-8.8992023,1.9297167,3.4045374,3.0381680,80.1832047,250.1297760
5690,0.5027798,4.2041965,8.9590569,-5.0534353,9.0763359,-6.6564884,-2.8371146,0.3399749,3.9743545,-11.7938929,89.9542007,250.1297760
5700,0.1340746,4.1611013,8.9518747,-4.7786260,7.9389315,-5.9694657,-0.9457048,-0.1149211,4.4914994,-14.5572519,91.6183243,250.1297760
5710,-0.1101327,4.0677280,8.9422979,-5.2977099,6.7099237,-3.6946564,0.7421987,-0.5243275,5.0661049,-13.7251911,91.4198456,250.1297760
5720,-0.1364688,3.9695661,8.9997578,-4.8167939,4.4351144,-2.7557251,2.2361729,-0.7661406,5.4036856,-9.3129768,85.0916061,250.1297760
5730,-0.3256098,3.9456241,9.2966375,-1.7099236,-0.8854962,-0.6259542,3.6798692,-0.6703730,5.4252334,-3.0152671,71.4198456,250.1297760
5740,0.1819584,3.7876077,9.4307127,0.4122137,-6.5954199,5.2442746,6.9024482,-0.7374104,3.6750808,1.6870229,3.8931298,250.1297760
5750,0.6895266,3.9360476,9.3493099,4.6030536,-8.4961834,6.5877862,8.9159613,-1.1563935,0.2466015,-22.0687027,-63.2137413,235.8320618
5760,0.9361281,3.8905578,9.2152348,5.5114503,-9.0839691,6.5648856,9.5097208,-1.2066715,-1.0295014,-38.2977104,-79.6106873,212.4198456
5770,1.2042773,4.0294209,9.0644016,5.4656487,-8.1603050,6.0610685,9.8496952,-1.8243724,-1.6615674,-58.1526718,-79.5038147,194.8244324
5780,1.4125718,4.1204000,8.9015961,4.4809160,-6.5572519,4.0916033,10.8313131,-1.8195840,-1.7717001,-77.4885483,-65.8167953,173.7557220
5790,1.5705882,4.1491303,8.6406298,2.6335878,-3.8320611,2.0534351,11.1377697,-2.2553265,-1.3431402,-95.6412201,-45.6183205,149.4045868
5800,1.5993185,4.1778607,8.6382351,-0.2519084,0.0610687,-0.2137405,11.9853125,-2.1116750,-0.2825144,-108.2519073,-16.9541988,126.6717529
5810,1.4939742,4.2496862,8.6885138,-2.7099237,3.8015268,-2.6183207,13.0483322,-1.1396341,1.2904681,-112.8244247,17.9389305,103.0687027
5820,1.2856797,4.2209558,8.8465300,-4.3282442,5.6641221,-4.5496182,14.9301653,-0.1843526,3.1962428,-108.7404556,44.6412201,69.9923630
5830,0.7062859,4.1275826,8.9231443,-4.8702292,3.4427481,-5.5572519,19.4456062,0.5841822,6.3876977,-77.4274826,42.4580154,-45.8778610
5840,0.5793939,4.0198441,9.1074963,-5.3129773,4.8396945,-5.4656487,19.6126022,0.7469871,6.5457139,-55.4122124,33.2977104,-129.2213745
5850,0.2537841,4.0461802,9.1290445,-4.3206105,5.0610685,-4.7938933,19.6126022,0.9600700,6.2799587,-35.2977104,34.9771004,-223.4427490
5860,-0.0119709,3.9671719,9.0093346,-4.5419846,3.0763359,-2.8625953,19.6126022,0.7062859,5.9854736,-20.4427490,41.8702278,-250.1374054
5870,0.0095768,3.9264708,9.1984758,-3.4351146,1.1755725,-0.5267175,19.6126022,-0.7038917,5.9495606,-8.9236641,43.6335869,-250.1374054
5880,0.1101327,3.9144998,9.2343884,-1.9618320,-1.6183206,1.7404580,19.5006733,-3.2489152,5.7029591,-0.1145038,32.2671738,-250.1374054
5890,0.5841822,3.9408360,9.3014259,0.2290076,-4.4198475,4.3435116,7.1729918,-12.8711624,4.1467361,-3.4809160,-33.3893127,-250.1374054
5900,0.7589580,3.9192882,9.2224178,1.4580153,-4.8091602,4.3969464,-1.1348459,-16.5582142,3.2082138,-16.2519093,-90.2290039,-250.1374054
5910,0.9313397,3.9528067,9.2176294,2.0534351,-4.5267177,4.4656487,-7.6302819,-18.5286331,2.3175755,-46.1526718,-138.4503784,-250.1374054
5920,1.1803354,3.9288650,9.0428534,2.3206108,-3.4809160,3.7099237,-11.9302464,-19.6131992,2.9137285,-95.3969498,-138.3587799,-250.1374054
5930,1.2761030,4.0509686,8.9877872,1.8778626,-2.5801528,2.2290077,-15.4042149,-19.6131992,6.8473821,-141.5801544,-64.1145020,-250.1374054
5940,1.2856797,4.0868812,8.8800488,1.2977099,-0.7099237,0.8549618,-19.6131992,-19.6131992,13.6684275,-139.8702240,64.9770966,-250.1374054
5950,1.2737088,4.1012464,8.8585014,0.8473282,0.5648855,-0.7480916,-19.6131992,-16.3427372,19.6126022,-58.0381660,81.1221390,-250.1374054
5960,1.0630201,4.1491303,8.9135675,-0.3206107,2.3511450,-2.0610688,-19.6131992,-3.7756367,19.6126022,56.3740463,-29.0687027,-250.1374054
5970,0.9959828,4.0964580,8.8728657,-1.6412214,3.3587787,-2.9312978,-19.6131992,1.1827296,19.6126022,134.0458069,-84.3587799,-250.1374054
5980,0.7445929,4.1467361,8.8944139,-2.3587787,4.1221375,-3.7099237,-19.6131992,2.0877333,12.3995075,170.2824402,-81.4122162,-89.9007645
5990,0.6105183,4.1251884,9.0165176,-2.7022901,3.6183207,-3.8167939,-19.6131992,1.4101776,6.1817970,173.5877838,-27.0916023,47.5801544
6000,0.4213773,4.0796990,8.9997578,-2.5419848,2.2137403,-3.4045801,-19.6131992,1.1300575,2.0685797,144.2671814,73.7328262,134.4274750
6010,0.3758878,4.0318151,9.0715837,-1.8702290,0.8702290,-2.4503818,-12.6293497,1.9440818,0.8978211,98.5572510,167.8854980,162.6793823
6020,0.2585725,4.0222383,9.0667953,-0.9618320,-0.4656489,-1.0992366,-7.7787213,2.6264257,1.4317253,55.7480927,211.9770966,140.4503784
6030,0.3567342,3.9360476,9.1362267,-0.2900763,-1.8015267,1.3206106,-7.8768835,4.0246325,4.2712340,3.8625953,93.8091583,46.4122124
6040,0.4668669,3.9839313,9.1888990,0.8549618,-2.8854961,2.0229008,-8.2479830,4.6950054,5.0876527,-10.5572519,-4.7938933,8.3511448
6050,0.5530578,3.9432299,9.1290445,2.2061069,-4.3740458,2.4885497,-8.2048874,4.9727316,5.4108682,-19.9694653,-75.0992355,-14.9923668
6060,0.7709290,3.9552009,9.0763721,2.8091602,-5.6717558,3.0763359,-7.5800037,4.7452836,5.7891502,-21.6717548,-106.6641235,-25.4961834
6070,0.8355721,3.9719603,9.0667953,3.4274809,-6.0229006,3.2366412,-6.6965480,4.3119354,6.0980005,-15.0381680,-105.9312973,-29.9389305
6080,0.9911944,4.0581512,8.9207497,2.1221373,-3.3664122,2.1221373,-8.3557215,2.6982515,4.2616572,38.7633591,104.9618301,-1.5877863
6090,0.9888002,4.0509686,8.8824425,1.3435115,-1.5114504,1.9923664,-9.4259243,2.7293761,3.6726866,44.6335869,138.7862549,13.1832066
6100,0.8786675,4.0605454,8.7148495,0.0000000,0.2748092,1.9847329,-9.9239149,2.8706331,3.2704628,44.1908379,147.4809113,26.4198475
6110,0.9409165,4.0916696,8.8632889,-1.1603054,1.1374046,1.8931298,-9.6821022,2.9975252,3.0597742,38.8778610,140.4274750,36.7099228
6120,0.9600700,4.1323709,8.9399033,-1.6030535,1.8320611,1.2595420,-9.0883436,2.9735832,2.9807658,30.9083977,125.2900772,41.4656487
6130,0.9457048,4.0605454,8.8944139,-2.2061069,1.9541985,0.5572519,-8.2815018,2.9328821,2.9927368,21.8549614,104.9083939,40.1374054
6140,0.8379663,4.1611013,8.9518747,-2.7557251,2.3129771,0.3282443,-7.3645267,2.7844424,3.0501974,14.1984730,83.4198456,33.5114517
6150,0.7326220,4.1323709,8.9590569,-3.0229008,2.1221373,0.3816794,-6.6821828,2.7509236,3.4667864,9.3129768,62.7099228,22.8549614
6160,0.7158626,4.0677280,9.0021524,-3.3511450,1.9083970,0.4198473,-6.4212160,2.8371146,3.8235207,8.5419846,42.0305328,8.5954199
6170,0.6919208,3.9982965,9.0524302,-3.5877862,2.3053436,0.6870229,-6.2440462,2.9640064,4.0964580,10.8931293,25.7480907,-5.6641221
6180,0.7206510,4.0389977,9.0284882,-3.6259542,2.4885497,0.9236641,-6.3278427,3.0166788,4.1060348,14.4961834,8.3664122,-19.6717548
6190,0.6967092,3.9815371,9.1338329,-3.4809160,2.3129771,1.2061069,-6.7707677,3.0382264,3.6966286,17.8320618,-9.3587790,-32.8167953
6200,0.7517755,4.0389977,9.0931320,-0.5648855,-0.9694657,2.6030533,-9.2056589,3.0789278,2.1260402,6.0916033,3.2595420,-34.8244286
6210,0.8619082,4.1443419,9.0476418,-0.4503817,-0.1221374,2.0458016,-10.1824875,2.9496415,2.8538737,-10.5038166,28.0000000,-22.2595425
6220,0.9050036,4.0629396,8.9758167,-0.2824427,0.1145038,1.5190840,-10.4051476,2.9137285,3.0932927,-12.4732828,28.9770985,-18.7786255
6230,0.9768293,4.0868812,8.9494801,-0.7022901,0.5725191,0.8015267,-10.4626083,2.9640064,3.2967989,-12.9389315,23.7175579,-16.2824421
6240,0.9911944,4.1180058,8.9806042,-1.3282443,0.8473282,0.0687023,-10.4075413,2.9113343,3.6463506,-11.1526718,13.8702288,-14.7328243
6250,0.8643024,4.0581512,9.1865053,-1.2824427,2.2137403,-1.4427481,-8.6095057,2.9520357,3.1315999,10.6641226,-27.2595425,-18.7404575
6260,0.4979914,4.1156116,9.0332766,0.2290076,2.7022901,-1.2900764,-8.4802189,2.9759774,2.7964132,2.8702290,-32.3816795,-28.2595425
6270,0.2011119,4.1802549,8.8082228,0.3664122,-0.5801527,-0.1145038,-9.0596132,2.9448531,2.8849983,-4.0763359,-31.1603050,-29.3816795
6280,0.2082945,4.1970143,8.8752604,-0.5877863,-4.6106873,1.9770992,-10.2423429,2.9256995,3.3231349,-7.6259542,-18.5267181,-20.2977104
6290,0.2849085,4.0318151,9.0308828,-0.7709923,-5.9465647,2.5496182,-10.7642756,3.0861101,3.6655040,-6.9007635,-14.7633591,-14.1221371
6300,0.9888002,3.7923961,9.2607250,3.3206108,-8.9236641,5.7862597,-12.6556854,2.7461352,4.2616572,0.1908397,-42.4885483,2.7709923
6310,1.3072275,3.8977404,9.2463598,3.3893130,-7.4732823,5.4885497,-13.6492739,2.7509236,4.5058646,1.0458015,-36.8244286,5.0229006
6320,1.4580613,3.9839313,9.1912937,3.3969467,-5.2977099,4.6870227,-15.2701406,3.0142846,4.6495161,2.4198472,-27.4580154,10.7328243
6330,1.6328372,3.9575951,9.1003141,3.3129771,-3.1221373,3.5725191,-16.8215752,3.2369442,4.8602047,4.7404580,-23.3435116,18.9847336
6340,1.7094513,4.0629396,8.9351149,2.8167939,-1.0992366,2.1755726,-18.4113178,3.3015873,4.9176650,6.7633586,-25.4580154,32.6488533
6350,1.6879035,4.2113791,8.7890692,1.5343511,1.9236641,-0.0076336,-19.6131992,3.4572096,5.2408805,7.4427481,-33.4122124,52.0228996
6360,1.3598996,4.2353210,8.5664101,-2.6641221,7.0152674,-3.8015268,-19.5868645,3.4356618,5.5186067,7.3893127,-44.4274826,100.7480927
6370,1.1970947,4.3119354,8.6142941,-4.8778625,8.7328243,-5.7022901,-18.3035774,3.1866663,5.4539638,8.7862597,-47.2137413,124.5343475
6380,0.9073978,4.2329268,8.7555504,-6.1068702,9.0916033,-7.0229006,-16.9724083,2.9687948,5.3462253,12.3206110,-46.4122124,141.9313049
6390,0.6296718,4.1778607,8.7818871,-6.5114503,8.7709923,-6.6717558,-15.9429073,3.0382264,5.2624283,16.8625946,-38.9771004,157.7022858
6400,0.4572902,4.1658897,9.0213060,-6.8396945,7.8702292,-5.9312978,-15.0977583,3.1172347,5.0756817,20.5114498,-30.2748089,172.7786255
6410,0.2992737,4.1132174,9.1697454,-5.5343513,6.1297708,-5.7709923,-14.3292236,2.7030399,4.4627690,23.3206100,-17.5190830,188.5190887
6420,0.0071826,3.9959023,9.3181858,-3.9541984,3.3282442,-4.3129773,-13.4601336,2.7389526,4.3430595,24.6946564,-6.3282442,203.2137451
6430,-0.0215477,3.7971845,9.2272062,-1.8473282,0.2366412,-2.7557251,-12.7011747,2.1978660,3.9192882,24.2671757,1.3893130,214.0915985
6440,-0.0119709,3.8857694,9.4690189,-0.1221374,-2.7862597,-0.0458015,-11.9853125,2.0877333,3.7756367,22.2977104,2.1297710,220.8625946
6450,0.5003856,3.8761928,9.2487535,3.2977099,-6.3740458,2.7557251,-10.1681223,2.2577207,3.7421181,15.8091602,-13.1603050,232.9923706
6460,0.9528874,4.0796990,9.0572186,4.1526718,-6.1297708,4.4351144,-7.7930865,1.1635761,3.3470769,9.9923668,-13.6564884,243.8015289
6470,1.1468167,4.1371593,8.7866755,2.9465649,-4.1374044,3.3282442,-6.6965480,0.8571198,3.3183465,7.0458016,-3.3129771,242.7480927
6480,1.2210367,4.1850433,8.8585014,2.6106870,-3.0610688,1.9007634,-6.0572991,1.3862357,3.4380560,4.0763359,4.3129773,238.5954132
6490,1.1372399,4.1898317,8.7747040,1.6259542,-3.0839694,0.8778626,-5.9591374,2.0206959,3.7277529,1.8091604,5.5648856,235.4580078
6500,1.1468167,4.3143296,8.5257082,-0.8473282,-1.2900764,-0.1221374,-5.9926562,2.2337787,3.8330972,0.1908397,2.0000000,238.5343475
6510,1.0007712,4.1587071,8.7890692,-4.2671757,3.5190840,-2.2595420,-4.4651632,2.1308286,3.6200144,0.6946565,-9.9312973,250.1297760
6520,0.7110743,4.0677280,8.9853926,-5.2824426,3.9465649,-2.3587787,-3.3470769,2.0015423,3.5218527,1.9465649,-7.0381680,250.1297760
6530,0.6895266,3.8714044,9.2152348,-5.0305343,3.7786260,-0.7709923,-2.0901275,2.0949159,3.2632802,2.5954199,2.3816793,250.1297760
6540,0.5698171,3.9815371,9.2104464,-3.9007633,2.3511450,0.1679389,-1.2210367,2.0733681,3.0142846,2.3053436,21.6946564,250.1297760
6550,0.5195391,3.9552009,9.4283180,-1.8549619,1.7404580,0.9083970,-0.5817881,2.1044924,2.9759774,0.0992366,46.8396950,250.1297760
6560,0.5913648,3.8690102,9.3517036,-0.6488550,0.5343512,1.9541985,0.1508339,2.1020982,3.1746953,-2.8167939,66.7786255,250.1297760
6570,0.5865764,3.9121056,9.3445215,0.6183206,-0.1603053,2.8320611,0.8236012,2.0757623,3.6271970,-4.9770994,82.7938919,250.1297760
6580,0.6991033,3.9719603,9.1984758,1.6717557,-1.0152671,3.4122138,1.5849534,1.9895715,4.4723458,-5.3969464,99.7557220,250.1297760
6590,0.7517755,4.0509686,8.9782104,2.0458016,-2.0000000,3.2977099,2.2720859,1.9297167,5.0756817,-1.8091604,113.8320618,250.1297760
6600,0.9409165,4.1299767,8.7699156,1.2671756,-1.6183206,2.8015268,2.9592183,2.0206959,5.7077475,4.7251906,126.4503784,250.1297760
6610,1.0366840,4.1898317,8.8010406,0.0534351,-0.9160305,1.5877863,3.5457945,2.1068866,5.9591374,13.5190840,134.6564941,250.1297760
6620,0.8068419,4.1156116,9.0021524,-2.0152671,0.7938932,-3.3053436,10.5583754,1.8243724,6.4403696,12.3358774,233.2213745,250.1297760
6630,0.5722113,4.0102673,9.2367830,-0.9465649,-0.5343512,-3.3969467,14.8008795,1.4700323,8.3892403,8.7404585,250.1297760,195.4885559
6640,0.4118006,3.9623835,9.1601686,-0.0458015,-1.0076336,-2.0305343,15.9644556,0.7517755,9.8257532,27.0992374,250.1297760,140.6488495
6650,0.5051740,4.0246325,9.1362267,0.4351145,-1.3129771,-0.9541985,16.6539822,0.3303981,10.1034794,57.5648842,233.5725250,66.9160309
6660,0.5817881,3.9911139,9.1649570,2.4351146,-3.2748091,0.7251908,14.5662489,0.8427547,6.9048424,98.5190811,79.6335907,-92.1603088
6670,0.6296718,3.9671719,9.1721401,3.4351146,-4.7175574,0.9847328,12.7466650,0.8451489,5.6335278,97.8320618,3.2137403,-150.3282471
6680,0.8427547,4.0725164,9.0955257,3.7557251,-5.3282442,1.1908396,10.6589317,0.8451489,5.2169390,87.7099228,-56.1984749,-198.7175598
6690,1.0821736,4.0605454,8.9422979,2.9007633,-3.5343511,0.3740458,8.4921904,0.3112446,6.2129216,75.6030502,-124.6412201,-250.1374054
6700,1.1683644,4.0940638,8.9686337,2.4198472,-1.9389313,-0.0305344,7.6302819,-0.2442073,6.8401995,87.5725174,-128.4885559,-250.1374054
6710,1.1707586,4.0988522,8.8920193,1.2213740,-0.3053435,-0.8549618,7.2567883,-0.6871324,6.5959921,108.4427490,-123.3664093,-250.1374054
6720,1.1803354,4.1323709,8.7770987,0.0610687,0.6641222,-1.9847329,7.6494355,-0.8307837,5.3462253,129.1068726,-117.5343475,-250.1374054
6730,1.0965388,4.1898317,8.7986460,-0.9541985,1.8625954,-3.1450381,7.7284436,-1.3766589,3.9863255,145.3282471,-123.5877838,-250.1374054
6740,1.0127422,4.1898317,8.8728657,-1.8320611,2.5038168,-3.9694657,7.5608501,-2.1140692,2.8227494,154.5419922,-141.8320618,-250.1374054
6750,0.8283895,4.1587071,8.8824425,-2.6335878,2.8931298,-4.2519083,6.3637557,-3.0501974,1.8100072,157.5419922,-184.0000000,-250.1374054
6760,0.6560079,4.0437860,8.9590569,-2.8473282,2.9007633,-3.7938931,4.0868812,-4.0318151,0.7469871,149.7251892,-247.5877838,-250.1374054
6770,0.5099624,4.1012464,8.9662399,-2.6717558,2.9847329,-3.2290077,0.7302278,-5.2313042,-0.3830703,127.6030502,-250.1374054,-250.1374054
6780,0.4309541,4.0581512,8.9949694,-2.2290077,2.2213740,-2.1374047,-3.4212968,-6.2871413,-1.1923064,86.0916061,-250.1374054,-250.1374054
6790,0.3208214,4.0437860,8.9806042,-2.0152671,1.4427481,-0.9236641,-8.2599535,-7.0772243,-1.7549409,28.3740463,-250.1374054,-250.1374054
6800,0.4022238,4.0366035,8.9638453,-1.9541985,0.1450382,0.0839695,-12.1337519,-8.4514885,-1.6567791,-45.8702278,-250.1374054,-250.1374054
6810,0.4453192,4.0246325,9.0069408,-1.7099236,-1.2137405,1.3664122,-14.9014349,-11.0946741,0.7876883,-119.1832047,-250.1374054,-250.1374054
6820,0.5650287,3.9863255,9.0165176,-1.1068702,-1.5648855,2.1221373,-19.6131992,-12.7203283,5.6191626,-167.3740387,-250.1374054,-250.1374054
6830,0.7326220,4.0342093,9.2176294,-0.2977099,-2.0992367,3.0000000,-19.6131992,-10.1393919,11.4035244,-163.6717529,-103.5954208,-250.1374054
6840,0.8331779,4.0150557,9.1841106,0.5572519,-2.1679389,3.2137403,-19.6131992,-6.0908179,17.1352139,-112.5801544,34.1145020,-250.1374054
6850,0.8954269,4.0725164,9.0691900,1.0916030,-1.6412214,3.3206108,-19.6131992,-2.7652888,19.6126022,-32.8396950,114.3664093,-233.3511505
6860,0.9121862,4.1323709,9.0165176,1.0916030,-1.0076336,3.0076337,-19.6131992,-0.2489957,18.2078114,45.0076332,135.9465637,-101.0229034
6870,0.9193687,4.1658897,9.0236998,0.3511450,-0.7862595,2.4809160,-19.6131992,0.5099624,12.8951044,95.9160309,129.2366486,-17.8931293
6880,0.9193687,4.1634955,8.8130112,-0.3587786,-0.4503817,1.7862595,-19.6131992,0.1484398,8.0085640,111.3664093,117.2137375,30.2137413
6890,0.9672526,4.1634955,8.7076674,-3.2137403,1.3816794,0.6259542,-13.1871958,0.8307837,2.4971397,72.1679382,79.4809189,45.7862587
6900,0.9816177,4.1467361,8.8585014,-4.4809160,1.9541985,0.2137405,-10.3476868,1.6591733,1.8554969,43.5877876,48.4503822,21.9923668
6910,0.9457048,4.0988522,8.9375095,-5.0381680,2.4656489,-0.5725191,-9.7299862,2.3822186,2.0015423,18.0458012,4.7404580,-5.4732823
6920,0.9648584,4.0725164,9.0380650,-4.8473282,2.5267177,-0.9923664,-10.1657286,2.8179610,2.5067163,-1.7938931,-42.7175560,-26.8320618
6930,0.8978211,3.9456241,9.1817169,-3.8244274,2.0076337,-1.2137405,-10.6780853,3.2225790,3.2249732,-13.9618320,-81.0305328,-37.9465637
6940,0.7924767,3.9288650,9.2846670,-2.9083970,2.4351146,-1.1526718,-10.8097658,3.3949606,4.1084290,-17.9465656,-106.1526718,-39.8702278
6950,0.7637464,3.9719603,9.2367830,-2.5190840,3.3511450,-0.5954198,-10.5535870,3.3446827,4.6303625,-14.0534353,-116.3816757,-35.7938919
6960,0.6775556,4.0054789,9.1314383,-1.8091604,3.5801528,-0.0534351,-9.8257532,3.0813217,4.6471219,-4.8167939,-108.8625946,-28.4274807
6970,0.7421987,3.9647777,9.1529865,-1.2061069,3.0992367,0.2061069,-9.3708572,2.8802099,4.1994085,5.5038166,-80.2137375,-18.0992374
6980,0.6871324,4.0677280,9.1529865,-0.2671756,1.8167939,0.4427481,-8.8680773,2.8466914,3.7852135,14.0839691,-40.1832047,-6.0534353
6990,0.6272776,4.0413918,9.0763721,0.4885496,0.9160305,0.5877863,-8.4874020,2.4995339,3.0478032,18.8091602,0.0992366,5.4427481
7000,0.5937590,4.0892754,9.1098909,0.9694657,0.3053435,0.7404580,-8.0636301,2.3079987,2.5330524,17.5267181,34.5725174,12.3816795
7010,0.5865764,4.0126615,9.0572186,1.4809160,-0.6335878,0.6793893,-7.9774394,2.2146254,2.2864509,11.9236641,54.0992355,14.9923668
7020,0.5147507,4.0605454,9.0476418,1.8167939,-0.9160305,1.2977099,-8.1833391,2.0877333,2.2984219,3.9770992,61.2061081,15.2748089
7030,0.4955972,4.0844874,8.9446917,1.9847329,-1.0610687,1.6641221,-8.2791071,2.0254843,2.5905130,-3.9465649,59.1526718,13.2900763
7040,0.5458752,4.0749106,8.9375095,1.7404580,-1.8396946,2.2290077,-8.3557215,1.9919657,3.0597742,-10.1297712,50.8931313,10.0229006
7050,0.5386927,4.1156116,8.8441362,1.4732825,-3.0076337,2.3740458,-8.3078375,1.9297167,3.3638363,-14.2213745,37.7175560,5.5496182
7060,0.7350162,4.0988522,8.9087791,1.2366412,-3.6870229,2.3664122,-8.3533268,1.7956421,3.9719603,-16.5190830,22.7786255,1.2213740
7070,0.7230452,4.1347651,8.9183559,0.9083970,-3.7862597,2.0763359,-8.3629036,1.7645177,4.2712340,-16.0534344,8.6335878,-3.8549619
7080,0.8786675,4.0916696,8.9087791,0.3587786,-3.6717558,2.0305343,-8.3652983,1.8267666,4.5561423,-14.0839691,-3.9312978,-9.1984730
7090,0.9672526,4.1227942,9.0763721,-0.2290076,-2.5114503,0.9847328,-8.3150196,1.7836711,4.5968437,-6.0152674,-25.4885502,-16.0229015
7100,1.1037214,4.0413918,9.1146793,-0.4122137,-1.8015267,0.4732825,-8.1067257,1.7309990,4.4484038,-3.5267177,-26.1832066,-17.3816795
7110,1.0893562,4.1132174,9.0596132,-0.3282443,-0.8015267,0.0763359,-8.0325060,1.5873476,4.2760224,-1.9770992,-23.9007626,-18.5419846
7120,1.0438666,4.0964580,9.0667953,-0.3893130,-0.0610687,-0.3587786,-8.2240410,1.6639616,4.2472920,-1.9389313,-21.0916023,-20.2595425
7130,0.9959828,4.0916696,9.1290445,-0.3740458,0.9694657,-0.5801527,-8.5137377,1.6591733,4.0773048,-2.0305343,-19.3816795,-20.4656487
7140,0.9097920,4.0318151,9.0548248,-0.0305344,1.3206106,-0.6259542,-8.8201942,1.6879035,3.9959023,-3.5877862,-18.3358784,-19.8625946
7150,0.8140244,4.0509686,8.9494801,0.0839695,1.5572519,-0.3587786,-10.0986910,1.7381816,4.3071470,-9.7099237,-28.7175579,-19.6564884
7160,0.7565638,4.1012464,8.9207497,-0.4732825,2.2366412,-0.2061069,-11.0515785,1.8626794,4.4196739,-13.4274807,-40.7175560,-23.5572510
7170,0.6991033,4.0677280,8.8968077,-1.1526718,2.5496182,0.0000000,-11.7099810,1.8794388,4.7285242,-14.2519083,-49.9312973,-19.9160309
7180,0.6991033,4.1084290,8.9279327,-1.6717557,2.3969467,-0.3129771,-11.6213961,1.7908537,4.9248476,-11.9160309,-56.6335869,-12.1755724
7190,0.6416427,4.0796990,8.8728657,-2.0916030,2.1145039,-0.1374046,-10.8432837,1.9584470,5.2193332,-6.5801525,-58.9007645,-2.8625953
7200,0.7182568,4.1180058,8.9662399,-1.9083970,1.3435115,-0.0152672,-9.5959110,1.8195840,5.0301919,0.1832061,-53.3053436,0.3435115
7210,0.7876883,4.0461802,8.9494801,-2.4274809,1.0687023,-0.1221374,-8.6382351,1.6543850,4.5800843,6.3206105,-39.6564903,-1.1526718
7220,0.7254394,4.1443419,8.8537130,-2.7480917,1.0076336,-0.3358779,-8.2288294,1.7764885,4.1539187,8.8778629,-23.3511448,-5.0610685
7230,0.7565638,4.1347651,9.0356712,-2.9083970,1.1984733,-0.3358779,-8.5568333,1.9704180,3.9168940,8.4427481,-8.8473282,-8.2366409
7240,0.6488253,4.1611013,9.0835552,-2.9007633,1.0534351,-0.5496183,-9.1290445,1.9464760,3.6511390,4.6488547,1.8473282,-9.2595415
7250,0.6153067,4.1634955,9.0859489,-2.5572519,0.2900763,-0.6335878,-10.0364418,2.0015423,3.8330972,-0.3358779,8.6412210,-7.8320613
7260,0.5722113,4.0413918,9.1386213,-1.7557251,-1.2213740,-0.4427481,-10.9605989,2.1595588,4.1515245,-3.3511450,11.8015270,-3.5343511
7270,0.5650287,4.1084290,9.1577749,-0.7786260,-2.5648854,-0.0839695,-11.6213961,2.0159075,4.2999644,-5.9389315,8.0992365,1.9694656
7280,0.5626345,4.0174499,9.1553802,0.0687023,-3.2366412,0.4198473,-12.2750092,2.1643472,4.5226240,-7.6335878,3.1068702,9.1832066
7290,0.5961532,4.0222383,9.2631187,0.9236641,-3.6641221,1.2595420,-13.0196018,2.0637913,4.7165532,-9.8167934,-4.0839696,15.7480917
7300,0.7014975,4.0605454,9.2296000,2.0076337,-3.5114503,1.5954199,-13.5582952,1.8698620,5.0565281,-11.3129768,-12.6717558,23.1374054
7310,0.7565638,4.0892754,9.2128410,2.6030533,-3.5190840,1.6564885,-14.0084028,1.7956421,5.2432747,-11.5954199,-20.7633591,31.6412220
7320,0.8283895,4.0366035,9.0691900,2.9312978,-3.6412213,1.7862595,-14.1329002,1.7262106,5.2576399,-10.9465647,-28.4198475,39.6946564
7330,0.8834559,4.0246325,8.9351149,3.0152671,-4.2213740,1.8015267,-14.0682573,1.5538290,5.4467812,-10.3282442,-32.8473282,48.2671738
7340,0.9337339,4.0796990,8.8608952,2.5648854,-4.4885497,1.6488550,-13.9748840,1.4460905,5.5928264,-11.0687027,-36.9923668,55.7099228
7350,0.9816177,4.0701222,8.7962523,1.8473282,-3.5496182,1.1450381,-14.0730457,1.5227045,5.8944945,-11.9007635,-37.1908379,62.1984749
7360,1.2138541,4.1180058,8.8728657,-0.8396947,-0.1145038,0.0610687,-15.4856176,1.4053892,6.2392578,-7.1526718,-47.4045792,76.6946564
7370,1.1372399,4.1395535,8.9399033,-1.7557251,1.7862595,-0.6183206,-16.1464138,1.5490406,6.3062949,-4.4122138,-56.2061081,88.0992355
7380,1.1013272,4.1850433,8.8561068,-2.6564887,2.8625953,-1.5725191,-16.4935703,1.5921360,6.2751703,-1.6564885,-62.5038185,102.8320618
7390,0.9600700,4.1922259,8.8441362,-3.2290077,3.3664122,-2.4503818,-16.6683464,1.4652439,6.0333576,0.0839695,-61.9465637,121.1603088
7400,0.8595140,4.2305326,8.8704720,-3.4809160,3.3511450,-3.1832061,-16.9915619,1.2449785,6.0596933,0.2366412,-47.7251892,143.4809113
7410,0.7421987,4.1491303,8.9470863,-4.0305343,3.3129771,-3.2671757,-17.2405586,1.0223188,6.2392578,0.7404580,-27.9541988,170.9770966
7420,0.5554519,4.0126615,9.2248116,-0.5648855,-3.1221373,3.5877862,-12.4066896,-0.5722113,4.3981261,16.9847336,40.5801544,250.1297760
7430,1.1851238,4.0294209,8.7675219,-2.0610688,1.1679389,1.7328244,-2.4779861,-1.7621235,4.0892754,9.0381680,71.3053436,250.1297760
7440,1.1923064,4.0653338,8.8992023,-3.5419848,2.7022901,0.6335878,-0.9959828,-1.6591733,3.3877780,6.2900763,81.1755753,250.1297760
7450,1.0821736,4.1180058,9.1290445,-4.7557254,5.7709923,-0.9465649,1.5634058,-1.5849534,3.5817075,-10.5496187,107.8702316,250.1297760
7460,0.9073978,4.1395535,9.2319946,-4.1450381,6.8091602,-1.3893130,2.6024840,-1.6160779,4.2544746,-16.8778629,113.6946564,250.1297760
7470,0.6775556,4.1275826,9.3325500,-2.7404580,6.5725193,-1.7862595,3.8881636,-1.7405758,5.2720051,-18.3129768,106.3206100,250.1297760
7480,0.4692611,4.2233500,9.1338329,-1.4427481,5.1221375,-1.8625954,5.2480631,-1.7333932,6.3565731,-14.8320608,84.3282471,250.1297760
7490,-0.0933734,4.1251884,8.9734221,0.1450382,0.7099237,-0.9694657,8.1713686,-2.0039365,7.9343438,9.0076332,33.0763359,250.1297760
7500,-0.0790083,4.0820932,8.8824425,0.7557252,-2.9465649,0.7862595,10.0148945,-2.2122312,7.4435349,21.7862587,15.9236641,250.1297760
7510,0.0095768,4.0246325,9.0452480,1.4274809,-5.6412215,2.7633588,11.6333666,-2.0254843,6.8138633,31.5496178,0.6335878,250.1297760
7520,0.2394189,4.0485744,9.0931320,2.2442749,-7.4503818,4.0992365,13.5008345,-1.4724265,6.3230543,40.3969460,-10.4503813,217.9618378
7530,1.3359578,4.0054789,8.9829988,5.0687022,-9.7404585,5.9083967,18.9356441,0.6943150,3.4165084,73.4427490,47.9083977,-18.8549614
7540,1.5610116,4.0054789,8.8225880,3.5267177,-6.4351144,4.5496182,19.4384251,0.9816177,2.7365584,68.6564865,40.8549614,-79.9694672
7550,1.7956421,4.1515245,8.8513184,-3.1832061,6.4961834,-3.2519083,19.6126022,-2.3103929,1.7812769,28.2900772,-51.9465637,-250.1374054
7560,1.5801650,4.2209558,8.8417416,-4.6946564,8.9847326,-5.4732823,19.6126022,-4.4460096,2.1404054,12.4427481,-73.2900772,-250.1374054
7570,1.1779412,4.1682839,8.9255381,-5.7557254,10.4274807,-6.8091602,18.6914368,-7.3046722,2.7581062,-3.3587787,-90.7328262,-250.1374054
7580,0.8547257,4.2281384,9.0332766,-5.8549619,10.5954199,-7.2137403,15.3754845,-11.4083128,4.1587071,-14.4580154,-108.3358765,-250.1374054
7590,0.5386927,4.1395535,8.9494801,-5.4427481,10.1526718,-6.8091602,11.8584204,-15.5287132,5.5305777,-20.0763359,-130.4198456,-250.1374054
7600,0.2226596,4.1802549,9.0524302,-5.0229006,9.3206110,-5.6870227,6.1794028,-19.6131992,6.7516141,-21.2290077,-154.0305328,-250.1374054
7610,-0.0646431,4.1443419,9.1266499,-4.1984735,7.3358779,-4.4732823,-1.8004304,-19.6131992,7.6063399,-19.2900772,-207.0992432,-250.1374054
7620,-0.1628049,4.0102673,9.0955257,-3.0305343,3.7175572,-2.3129771,-12.7490587,-19.6131992,8.0133524,-17.0687027,-250.1374054,-250.1374054
7630,-0.3160330,3.9887197,9.0763721,-1.7557251,-0.3358779,0.7404580,-19.6131992,-19.6131992,7.0030041,-35.7251892,-250.1374054,-250.1374054
7640,-0.1699875,3.9623835,9.2631187,-0.1374046,-4.1450381,3.1297710,-19.6131992,-18.9164906,5.2241216,-110.2213745,-250.1374054,-250.1374054
7650,0.1436514,3.9767487,9.3229742,1.7099236,-6.8854961,5.0763359,-19.6131992,-11.3724003,7.0891948,-237.9007568,-250.1374054,-250.1374054
7660,0.4932030,3.9312592,9.3780403,3.2519083,-8.7328243,6.1374044,-19.6131992,-5.6838059,15.6029329,-250.1374054,-250.1374054,-250.1374054
7670,0.8451489,4.0318151,9.2631187,4.7938933,-8.7404585,6.1908398,-19.6131992,-4.5681133,19.6126022,-250.1374054,-250.1374054,-250.1374054
7680,1.1061156,4.0749106,9.0332766,5.3358779,-8.6335878,5.4961834,-19.6131992,-4.2616572,19.6126022,-168.0992432,-87.8702316,-56.8931313
7690,1.3551112,4.1060348,8.8489246,4.9465647,-7.4198475,4.4580154,-19.6131992,-2.4731977,19.6126022,12.9312973,250.1297760,144.3740387
7700,1.5634058,4.1491303,8.7148495,3.4656489,-5.5877862,2.7709923,-19.6131992,-2.9185169,19.6126022,120.3282471,250.1297760,250.1297760
7710,1.7070571,4.2161674,8.6454182,0.6335878,-1.9236641,0.2442748,-16.3379498,-2.7533178,16.1128960,136.8015289,250.1297760,250.1297760
7720,1.7094513,4.1922259,8.5999289,-2.0763359,2.0305343,-2.1526718,-9.9933472,-2.2433555,12.4856977,109.5419846,250.1297760,250.1297760
7730,1.6112895,4.2018023,8.6310530,-4.2061067,5.0534353,-4.7404580,-5.2265158,-1.4460905,10.3141680,76.0457993,250.1297760,163.0992432
7740,0.9672526,4.0964580,9.0165176,-5.9618320,7.3053436,-7.5038166,-4.4603748,1.0989330,7.8146343,18.6183205,-51.0000000,-17.9160309
7750,0.6129125,4.0677280,9.1481981,-5.6259542,6.9083967,-7.2290077,-5.1906028,1.8818330,7.5105724,0.6030535,-135.6488495,-68.6717529
7760,0.2896969,4.0437860,9.2822723,-4.3664122,6.3511453,-5.9160304,-6.0142040,2.0374553,7.6207051,-5.0763359,-164.5419922,-91.5419846
7770,-0.0167593,4.0509686,9.2966375,-2.3969467,4.9083967,-3.8473282,-6.8186517,1.9488702,7.9151902,2.3511450,-157.3664093,-102.4503784
7780,-0.1053443,4.0150557,9.4283180,-0.5954198,2.6488550,-1.5114504,-7.9487090,1.7860653,7.3884687,15.2977095,-134.6030579,-101.0229034
7790,-0.2082945,3.9767487,9.2343884,1.6030535,-0.6335878,1.1450381,-9.1458035,2.0015423,6.6534524,26.7099228,-99.0305328,-88.0457993
7800,-0.1819584,3.9815371,9.0332766,2.8625953,-4.2519083,3.7862597,-10.0508070,2.2481439,6.0644817,35.6641235,-57.2595406,-63.6793900
7810,0.0622489,3.9695661,9.0308828,3.2900763,-7.3053436,5.5343513,-10.0388365,2.4229198,5.2935529,40.8778610,-17.8091602,-36.1068687
7820,0.3758878,4.0533628,8.9255381,3.3206108,-8.6030531,7.1679387,-9.4953556,2.2912393,4.6973996,42.7709923,16.8702297,-11.0916033
7830,0.7398046,4.0701222,8.7914639,2.8473282,-8.8549614,7.6564884,-8.8106174,2.1811066,4.2281384,41.6946564,42.3053436,7.5877862
7840,1.0295014,4.1443419,8.8154058,1.8702290,-8.0152674,7.7022901,-8.0923605,1.9057748,3.8163381,37.1832047,54.1068687,18.1908398
7850,1.2210367,4.1634955,8.7842808,1.0992366,-6.4961834,7.0076337,-7.5201492,1.7405758,3.7349355,29.6259537,56.5954208,22.3282452
7860,1.4413021,4.1060348,8.8513184,0.0381679,-5.3816795,5.5190840,-6.9407554,1.7262106,3.8618276,20.2671757,52.0152664,22.0687027
7870,1.6807210,4.2065907,8.8058290,-1.4122137,-3.1221373,4.0992365,-6.5864153,1.6759326,3.9336534,11.5114508,41.6183205,16.6946564
7880,1.6639616,4.1251884,8.8800488,-2.8854961,-0.2442748,2.2290077,-6.4834652,1.5274929,4.2808108,3.5419848,27.7633591,8.6717558
7890,1.6041069,4.1658897,8.9710283,-3.6564887,2.3435113,0.6030535,-6.4164276,1.3982066,4.7357068,-2.0000000,11.3206110,-1.4809160
7900,1.3718705,4.0820932,9.0476418,-4.1679387,7.0763359,-3.0534351,-6.3589673,1.1085097,5.1475072,-7.9389315,-20.3664131,-25.1526718
7910,1.1923064,4.0054789,9.0332766,-4.4045801,8.2213745,-3.9618320,-6.8066807,1.1228749,5.3222833,-8.5496187,-27.2595425,-34.5496178
7920,0.8930327,3.9121056,8.9877872,-4.8473282,8.5954199,-4.1755724,-7.5249376,1.1563935,5.4563580,-8.3664122,-27.0000000,-38.1984749
7930,0.7781116,3.9121056,9.0859489,-4.8625956,7.3893127,-3.7175572,-8.1330614,1.3120158,5.5760674,-8.5648851,-23.7175579,-38.1832047
7940,0.6536137,3.9504125,9.1601686,-4.7404580,6.6946564,-3.3740458,-9.3756456,1.4843974,5.4467812,-13.8854961,-30.0229015,-39.6335869
7950,0.5578461,4.0629396,9.2463598,-3.8244274,6.0687022,-3.0152671,-10.9414454,1.5538290,5.6838059,-21.3358784,-39.5648842,-34.1297722
7960,0.4405309,4.0437860,9.4331064,-1.9618320,5.0152674,-2.5725191,-11.4777441,1.7118455,6.3565731,-26.1984730,-48.1145020,-23.6030540
7970,0.3327923,4.0773048,9.2870607,0.3053435,3.6335878,-1.0152671,-11.2311430,1.7812769,6.7180958,-25.8244267,-50.0534363,-10.9236641
7980,0.1987177,4.1922259,9.1003141,1.7251909,2.2748091,0.2366412,-10.5344334,1.8052188,7.1634150,-21.0229015,-41.5877876,0.0000000
7990,0.1628049,4.1922259,8.8321648,2.4503818,0.7022901,1.1297710,-9.7299862,1.8698620,7.6350703,-12.2595415,-28.3206100,7.5725193
8000,0.0742199,4.2329268,8.5352850,1.9312977,-2.0534351,1.3664122,-8.9015961,1.8531027,7.4794478,-3.8702290,-19.1297703,12.9923668
8010,0.1604107,4.2041965,8.4443064,0.5190840,-4.7404580,1.7175573,-7.8146343,1.8435259,7.3717093,4.9389315,-11.6488552,12.2671757
8020,0.2633608,4.1634955,8.6334467,-1.2519084,-6.8549619,2.0076337,-7.3645267,1.9153515,6.9766679,11.4427481,-3.6793892,8.6183205
8030,0.5674229,4.1587071,8.9327211,-2.0687022,-7.9007635,2.2442749,-7.1251078,1.8363433,6.4403696,14.8091602,1.7480916,4.9160304
8040,0.7230452,4.0701222,9.1817169,-1.7709924,-7.5114503,2.4503818,-7.2232695,1.7884595,6.1147599,14.7862597,3.7633588,0.6412213
8050,0.8714849,3.9671719,9.4091644,-0.9160305,-6.8167939,2.3969467,-7.5057840,1.9464760,5.7843618,12.2061071,2.3053436,-3.0610688
8060,0.9672526,3.9695661,9.5025377,1.0916030,-6.6259542,3.0458016,-7.9104018,2.0183017,5.7532372,8.4274807,-1.8244275,-5.4274807
8070,1.0510491,3.7900019,9.3995876,2.9465649,-6.7938933,3.1755726,-8.1402445,1.9704180,5.7197185,4.2595420,-1.8396946,-6.0992365
8080,1.2641320,3.8259149,9.2583303,3.9923663,-6.3435116,3.0839694,-8.6526003,1.9488702,5.9926562,2.2824428,1.3435115,-7.3740458
8090,1.4197544,3.9216824,9.1505919,4.2748094,-5.0152674,2.4503818,-9.4714136,1.8243724,6.2153158,3.2061069,3.5419848,-6.1221375
8100,1.5107336,3.8977404,9.0284882,3.7709923,-3.1145039,1.0992366,-10.5296450,1.6256547,6.2248926,4.9312978,5.5877862,-3.1679389
8110,1.5059452,4.0725164,9.0045462,3.1297710,-0.1755725,-0.1526718,-11.8009596,1.5849534,6.4236102,5.7786260,6.3053436,1.7709924
8120,1.3670821,4.0318151,8.9159613,2.0076337,2.2213740,-1.1908396,-13.1033993,1.5155219,6.3517847,4.8015265,6.9847326,9.6412210
8130,1.2617378,4.1132174,8.7244263,0.5954198,3.6564887,-2.1221373,-14.4345684,1.6543850,6.4451580,2.3740458,9.0076332,22.2595425
8140,0.5793939,4.1587071,8.9015961,-5.5267177,6.4961834,-3.5038168,-15.0355101,1.7764885,8.1546097,-0.2748092,16.3206100,116.7175598
8150,0.3519458,4.0006905,9.1410151,-4.3511453,3.9389312,-1.7022901,-15.3443604,1.7980363,7.9223728,10.9312973,18.5954189,143.8625946
8160,0.3399749,3.9935081,9.2607250,-3.2824428,2.0152671,-0.7099237,-15.5502605,1.7381816,7.4722652,13.2061071,21.4274807,161.2061005
8170,0.2873027,3.9552009,9.2176294,-2.0076337,-0.0305344,0.4351145,-15.7298250,1.5538290,7.2424231,11.1068707,25.8091602,179.2824402
8180,0.5889706,3.9001346,9.2487535,0.4809160,-2.6488550,2.4122138,-16.6108856,2.0063307,7.4698710,4.8167939,18.0305347,221.9313049
8190,0.7254394,3.9767487,9.2463598,1.7709924,-3.1908398,2.6488550,-15.6340570,1.7309990,7.0700417,1.1526718,4.4198475,247.6641235
8200,0.8140244,4.0916696,9.1074963,2.4122138,-2.9236641,3.0763359,-13.9796724,1.5729824,7.0125809,-2.4122138,1.6870229,250.1297760
8210,0.9097920,4.0892754,9.0093346,2.4351146,-2.5114503,3.0381680,-12.6269550,1.2497669,7.0197635,-2.9541984,4.7709923,250.1297760
8220,1.0390782,4.1443419,8.8417416,1.5343511,-2.1450381,2.4045801,-11.1736822,0.8427547,7.0077925,0.9236641,15.1145039,250.1297760
8230,1.0510491,4.1611013,8.7292147,0.4351145,-1.3969465,1.4198474,-10.3213511,0.6009415,6.6582408,5.8854961,30.2900772,250.1297760
8240,1.0678085,4.1275826,8.7340031,-1.2366412,-0.2290076,0.6793893,-9.9837704,0.5626345,6.3493905,8.6335878,41.7175560,250.1297760
8250,1.0007712,4.1658897,8.8632889,-2.4045801,0.8473282,-0.2213740,-9.8377247,0.6272776,5.5617023,7.3816795,49.2595406,250.1297760
8260,0.8475431,4.1611013,8.9614515,-2.8320611,1.5725191,-0.5877863,-8.8345594,0.1460456,4.6590929,0.5572519,57.8396950,250.1297760
8270,0.8044477,4.0892754,9.0500364,-2.8854961,1.7633588,-0.7557252,-7.8768835,-0.1939293,3.8546450,-9.8549614,75.8931274,250.1297760
8280,0.6823440,4.0222383,9.1458035,-2.4503818,1.4732825,-0.5267175,-6.9551206,-0.7613522,3.6726866,-19.1297703,85.5648880,250.1297760
8290,0.6248835,3.9911139,9.1769285,-1.4427481,0.9007633,-0.1526718,-6.3565731,-1.5801650,3.8594334,-26.2595425,85.8549652,250.1297760
8300,0.6584021,4.0150557,9.1074963,-0.9312977,0.0381679,0.2061069,-5.0756817,-2.0997043,4.0413918,-30.4274807,70.8778610,250.1297760
8310,0.6943150,3.9863255,9.1649570,-0.1603053,-0.4198473,0.3969466,-3.1651185,-2.5306582,4.8937230,-32.4885483,55.5648842,250.1297760
8320,0.8116302,3.9911139,9.0763721,0.0534351,-0.7938932,0.7786260,-0.8427547,-2.8921809,6.2009506,-31.1297703,45.3435097,250.1297760
8330,0.9289455,4.0820932,8.9829988,0.2824427,-1.0229008,-0.1297710,7.0556765,-3.1244173,10.4697905,10.7557249,50.1679382,250.1297760
8340,0.8810617,4.1275826,9.0141230,0.2442748,-0.8320611,-0.9160305,9.1673517,-2.8969693,10.5344334,36.9923668,51.8625946,250.1297760
8350,0.8188128,4.1227942,9.0260944,0.3664122,-1.2366412,-1.4656489,11.0372133,-2.5258698,10.2710724,64.1984711,48.6793900,250.1297760
8360,0.7733232,4.1323709,8.9063845,0.3358779,-1.3282443,-1.5114504,12.4833040,-2.0685797,9.0979195,85.3129807,47.2366409,250.1297760
8370,0.7852941,4.0868812,8.9901810,-0.0839695,-0.4427481,-1.4885496,13.3212700,-1.2641320,7.6829538,99.5877838,44.1832047,228.4351196
8380,0.6727672,4.1323709,8.9949694,-0.4198473,-0.1450382,-1.0381680,13.5295649,-0.6344602,6.4882536,108.1679382,40.0992355,180.2824402
8390,0.6464311,4.0318151,8.9566631,-0.4503817,-0.1221374,-0.8702290,13.3356352,0.1149211,5.2815819,109.9465637,34.9160309,134.8167877
8400,0.5865764,3.9959023,9.0691900,0.5572519,-2.2671757,0.0076336,12.2797976,1.1396341,3.5553713,102.8320618,13.7175570,52.4122124
8410,0.6512195,4.0126615,9.1721401,1.5267175,-3.0305343,0.6106870,12.0499554,1.7740943,2.1619530,92.5419846,3.6564887,15.0839691
8420,0.7517755,3.9552009,9.1912937,2.0305343,-3.2977099,1.3358779,11.6261835,2.0542145,1.3814473,75.5267181,-0.3587786,-17.5496178
8430,1.2689204,4.1898317,8.8968077,0.8778626,0.8396947,-0.6946565,15.4568872,0.1029501,2.2361729,-25.3969460,-73.5038147,-242.3740387
8440,1.2401901,4.2353210,8.8393478,-0.1297710,1.9923664,-2.2900763,14.8846760,-0.0981618,3.0430148,-31.2442741,-78.5114517,-250.1374054
8450,1.1827296,4.1611013,8.8106174,-1.2595420,3.0305343,-3.4427481,14.5327301,-0.3830703,4.0892754,-33.4961815,-77.5496216,-250.1374054
8460,0.9648584,4.2065907,8.7651272,-2.2900763,3.8931298,-4.2519083,14.9062233,-1.1851238,5.5449429,-30.0534344,-74.6183243,-250.1374054
8470,0.7781116,4.1539187,8.8297710,-3.1908398,4.3816795,-4.3816795,15.2031031,-2.5976956,7.5632443,-17.3358784,-72.4656525,-250.1374054
8480,0.5913648,4.1658897,8.8704720,-3.8320611,4.1984735,-4.2290077,14.7577839,-4.7309184,8.3293848,2.0916030,-68.3587799,-250.1374054
8490,0.5243275,4.0820932,8.9422979,-3.9541984,3.7862597,-3.8702290,9.7132263,-8.2791071,7.2112985,29.1526718,-78.0763321,-250.1374054
8500,0.4118006,4.0796990,8.9853926,-4.1908398,3.0152671,-2.9389312,2.0470319,-10.5176744,5.1666608,50.1297722,-121.3969498,-250.1374054
8510,0.3184272,4.0078731,9.0644016,-3.9541984,2.2137403,-1.8320611,-6.0716643,-12.1672707,2.3558824,42.8396950,-180.2290039,-250.1374054
8520,0.3830703,4.0078731,9.0811605,-3.8549619,1.3969465,-0.1908397,-14.7386303,-13.4601336,-0.1747758,2.7938931,-197.7557220,-250.1374054
8530,0.3567342,3.9887197,9.1721401,-3.0229008,1.0458015,1.1450381,-19.6131992,-14.2119083,0.1077385,-51.0916023,-229.5190887,-250.1374054
8540,0.4453192,3.9887197,9.2415714,-1.9083970,0.0305344,2.2137403,-19.6131992,-10.7403336,0.6727672,-113.7786255,-250.1374054,-250.1374054
8550,0.5482694,4.0629396,9.2152348,-0.9389313,-0.7175573,3.3664122,-19.6131992,-3.9240766,4.5154414,-185.1221313,-250.1374054,-250.1374054
8560,0.6153067,4.0605454,9.1074963,-0.1526718,-1.7480916,3.8549619,-19.6131992,0.6057299,11.0563669,-218.5419922,-232.1603088,-250.1374054
8570,0.7134684,4.0868812,9.0308828,0.2748092,-2.4732823,3.9236641,-19.6131992,1.5059452,16.9963512,-199.2824402,-134.2671814,-250.1374054
8580,0.7613522,4.1108232,8.8848372,-0.1603053,-1.8702290,4.1526718,-19.6131992,1.9943599,19.6126022,-135.2748108,9.2442751,-118.0076370
8590,0.8738791,4.1275826,8.9997578,-0.7099237,-1.4274809,3.7786260,-19.6131992,2.1595588,19.6126022,-37.0992355,164.9618378,9.5038166
8600,0.9385223,4.1108232,8.9422979,-0.5038168,-1.1679389,3.1603053,-19.6131992,1.1899122,18.1455612,57.3664131,250.1297760,86.0229034
8610,0.9026094,4.1587071,9.0332766,-0.5877863,-0.5419847,2.3282442,-14.5039997,0.6248835,13.1369171,116.4274826,250.1297760,109.8702316
8620,0.9528874,4.1180058,8.9566631,-0.8854962,0.3129771,1.6412214,-10.8696203,1.0678085,8.6813307,137.2977142,250.1297760,100.3358765
8630,0.9433106,4.0485744,8.9877872,-1.2671756,0.6412213,1.0763359,-10.2351599,2.1380112,5.9998388,136.5572510,250.1297760,68.7557220
8640,0.9911944,3.9982965,9.0667953,-1.4961832,0.7022901,-0.1832061,-9.8640604,3.4404502,2.0302727,92.5648880,55.2748108,0.6335878
8650,0.9457048,4.0078731,9.0524302,-1.2671756,0.9770992,-0.4351145,-9.2750902,3.8809812,1.0295014,58.8854980,-18.0763359,-16.7175579
8660,0.9409165,4.0246325,9.0644016,-1.1603054,1.3740458,-0.6488550,-8.6118994,3.9121056,1.4676381,31.6793900,-53.8244286,-24.6030540
8670,0.8451489,4.0437860,9.0596132,-1.2137405,1.9923664,-0.8396947,-7.9702568,3.7876077,2.2026544,17.2442741,-66.4427490,-29.3816795
8680,0.7469871,4.0916696,9.0045462,-1.1450381,1.8625954,-0.6946565,-7.5656385,3.5386121,2.7509236,12.6335878,-69.0457993,-31.7862587
8690,0.7374104,4.0820932,9.0596132,-0.6412213,1.4961832,-0.6717557,-7.2017217,3.2656744,2.7724714,11.6717558,-61.6641235,-33.3664131
8700,0.6081241,4.1036406,8.9686337,-0.5496183,1.1145039,-0.6259542,-7.2017217,3.2177906,2.9472473,13.4809160,-43.2900772,-32.9312973
8710,0.5195391,4.2305326,8.8896255,-0.4122137,0.1603053,-0.6259542,-7.5536675,3.0932927,3.0071020,17.2748089,-25.7251911,-31.8854961
8720,0.4237715,4.1611013,8.9494801,-0.3358779,-1.5648855,-0.5267175,-8.2000990,2.9520357,2.8155668,21.3969460,-12.6183205,-31.9083977
8730,0.4046180,4.0533628,8.9973640,0.1755725,-4.0687022,1.3664122,-10.0148945,3.4045374,2.5043221,20.3282452,-22.9007626,-37.1526718
8740,0.5075682,4.0653338,8.9901810,0.5648855,-4.5648856,1.8473282,-10.4123297,3.3973548,2.4277081,14.0152674,-38.1145020,-36.6106873
8750,0.7350162,4.0198441,9.0835552,1.5419847,-5.7633586,1.8244275,-10.8432837,2.9927368,2.5929072,-0.3740458,-50.4809151,-36.2977104
8760,0.9241571,3.9623835,9.0715837,1.7786260,-5.6183205,1.6641221,-11.6692791,2.9616125,2.9400647,-5.4885497,-48.6717567,-37.3664131
8770,1.0917504,3.9575951,9.0069408,1.4351145,-5.0610685,1.6030535,-13.0746689,3.2130022,3.2130022,-8.9618320,-36.8625946,-31.4351139
8780,1.2210367,4.0366035,9.0524302,1.3740458,-3.4427481,0.9618320,-14.7386303,3.3159523,3.7708483,-10.6946564,-21.1068707,-16.9160309
8790,1.1420283,4.0916696,8.8273764,-1.3511450,3.3511450,-2.5419848,-19.6131992,3.2201848,5.5353661,-18.0076332,-17.3816795,64.1908417
8800,0.9672526,4.1323709,8.6813307,-2.6259542,4.2671757,-3.2671757,-19.6131992,2.6814921,6.0549049,-22.4045811,-3.0152671,96.6870193
8810,0.8212070,4.1132174,8.7747040,-3.8473282,5.2137403,-3.2290077,-19.6131992,2.2385671,6.6175399,-22.3587780,16.7022896,129.1755676
8820,0.6919208,4.0773048,8.9063845,-4.8549619,5.7480917,-2.8854961,-19.6131992,2.2481439,7.1203194,-17.6564884,39.9923668,165.6641235
8830,0.5219333,4.1012464,9.0165176,-4.5496182,5.4045801,-2.5038168,-19.6131992,2.2768741,7.2519999,-9.9083967,59.9083977,206.5954132
8840,0.4333483,4.1299767,9.0213060,-4.0687022,4.3206105,-1.9770992,-19.6131992,2.3367288,6.9718795,-0.9160305,64.5419846,250.1297760
8850,0.3423691,3.9528067,9.0667953,-1.5572519,-0.4732825,1.3664122,-18.2485123,0.2657550,3.4500270,-14.0229006,66.2519073,250.1297760
8860,0.3687052,4.0677280,9.0883436,-1.0381680,-1.6106870,1.9923664,-14.9445305,-0.7637464,3.3758070,-27.3893127,88.8931274,250.1297760
8870,0.5386927,4.0461802,9.1098909,-0.2900763,-2.5572519,2.7633588,-12.5192165,-1.5825592,3.8043671,-36.9847336,111.0687027,250.1297760
8880,0.7326220,4.0222383,9.1194677,0.0992366,-2.9770992,2.8320611,-10.3620520,-2.4468615,4.3095412,-39.0687027,120.0610657,250.1297760
8890,0.8092360,4.0677280,9.0691900,0.3969466,-2.7709923,2.7022901,-8.0205345,-3.2944047,4.7021880,-36.4503822,120.4809189,250.1297760
8900,0.8738791,4.0581512,9.0667953,0.1145038,-2.5801528,1.9312977,-5.6790175,-4.0102673,4.6734576,-34.2519073,120.6106873,250.1297760
8910,1.0007712,4.1587071,9.0021524,-0.3282443,-1.9770992,1.2977099,-3.4165084,-4.3358769,4.7716198,-34.2900772,129.5801544,250.1297760
8920,0.9433106,4.1730723,8.9375095,-0.3740458,-1.4122137,0.4351145,-1.3311694,-4.7524662,5.4515696,-35.7175560,147.9389343,250.1297760
8930,0.8116302,4.1730723,8.9255381,-0.9618320,-1.3129771,-0.1450382,0.6153067,-5.0182209,6.7372489,-37.9083977,167.4427490,250.1297760
8940,0.7541697,4.1323709,8.8728657,-0.9541985,-0.8625954,0.0229008,2.4133430,-5.2097564,8.3796635,-35.0610695,179.4580078,250.1297760
8950,0.6584021,4.0868812,8.9614515,-1.5725191,-0.0534351,0.4503817,4.2281384,-5.6718349,9.7850523,-23.1145039,181.1450348,250.1297760
8960,0.6344602,4.0701222,8.9734221,-2.0000000,0.7709923,1.4503816,7.1011658,-5.9998388,10.8863792,-5.1145039,179.3129730,250.1297760
8970,0.5362985,3.9815371,9.0093346,-2.4198472,0.7709923,2.1145039,10.7331514,-5.6598639,10.9917240,14.8549614,172.7786255,250.1297760
8980,0.6177009,3.9312592,9.1410151,-2.1297710,0.3053435,2.6488550,13.8862991,-6.1219425,10.9582052,30.5190830,162.3206177,250.1297760
