timestamp,rxacclX,rxacclY,rxacclZ,rxgyroX,rxgyroY,rxgyroZ,txacclX,txacclY,txacclZ,txgyroX,txgyroY,txgyroZ
0,4.7237358,-3.9839313,7.0676475,29.0763359,-63.8931313,123.3282471,-3.0262554,1.7238164,9.8784256,0.0839695,-4.0458016,-2.2748091
10,5.8226686,-3.7708483,7.4100165,35.1221390,-59.2977104,132.3511505,-3.0334380,1.7357874,9.9406748,-0.0763359,-3.9541984,-2.7480917
20,6.6079631,-3.4524212,7.3094602,36.4580154,-46.8244286,139.7633514,-3.0621684,1.6974803,9.8305416,0.3511450,-3.6183207,-2.3129771
30,6.5313487,-3.0501974,7.2591825,34.6946564,-35.3740463,149.0458069,-3.0166788,1.7262106,9.8377247,-0.2671756,-3.4732823,-2.1145039
40,6.8904772,-3.9552009,7.0460997,32.1984749,-32.9465637,158.9923706,-3.1196289,1.6017127,9.8712435,-0.1603053,-4.0992365,-2.2748091
50,7.0987716,-4.3861551,6.4906478,33.6488533,-30.7557259,165.5496216,-3.0573800,1.7022687,9.8544836,-0.2671756,-4.2213740,-2.2366412
60,8.7627335,-5.7532372,6.2320752,40.4274826,-32.0381660,156.3129730,-3.1723011,1.6831152,9.8568783,-0.3587786,-3.9541984,-1.9083970
70,10.1369982,-6.5768385,6.2153158,48.2748108,-47.3587799,122.0076370,-3.0885043,1.6639616,9.9263096,-0.2061069,-4.1526718,-1.1145039
80,9.4642305,-6.1243367,5.9615316,52.8549614,-67.5648880,95.1145020,-2.9951310,1.6639616,9.9263096,-0.0992366,-3.8320611,-1.1679389
90,9.1673517,-5.2624283,5.9447722,54.4198456,-69.6870193,85.9236679,-3.0214672,1.7214222,9.8856087,-0.1984733,-3.6564887,-0.8854962
100,9.6485834,-4.7404952,5.6574697,53.4732819,-54.3587799,76.9923630,-3.0334380,1.7166338,9.8353300,-0.0229008,-3.2595420,-1.4351145
110,10.3740225,-4.6207857,5.1259594,46.9236641,-25.3969460,64.4045792,-2.9951310,1.7262106,9.9071560,-0.0305344,-3.2366412,-0.9847328
120,10.6637201,-4.7692256,5.0876527,38.3893127,5.6183205,48.4580154,-2.9496415,1.6783268,9.8473015,-0.4045801,-3.9694657,-2.1374047
130,10.2279778,-5.0469513,5.0182209,32.1450386,33.8015251,31.7480907,-3.0214672,1.7333932,9.8784256,-0.1984733,-3.7862597,-1.9770992
140,9.3157911,-5.5138183,4.8985114,28.0839691,54.1755714,19.8015270,-3.0741394,1.6639616,9.8736372,-0.3740458,-3.7328243,-2.4503818
150,8.2862902,-5.9926562,4.8051381,27.2366409,61.4809151,14.2442751,-3.0621684,1.7070571,9.9119444,-0.8091603,-4.3358779,-2.3664122
160,7.7116842,-6.2655940,4.5561423,28.0992374,54.3129768,12.7633591,-3.1004753,1.6735384,9.8520899,-0.1984733,-3.7786260,-2.3206108
170,7.8984308,-6.2631998,4.5824785,29.3511448,38.1526718,11.3740454,-3.0430148,1.6831152,9.8401184,-0.2366412,-3.6793892,-2.6717558
180,9.0715837,-5.1283536,4.7404952,32.6335869,5.7175574,-4.3740458,-2.9807658,1.7238164,9.9143381,0.0152672,-3.9618320,-2.1526718
190,8.9590569,-4.6447277,5.1307478,31.9083977,-12.0534353,-13.9389315,-3.0214672,1.7094513,9.8903971,0.3282443,-3.6641221,-2.6641221
200,9.8808203,-4.1251884,4.8458395,28.1984730,-23.4351139,-24.8473282,-3.0454090,1.7405758,9.9287033,0.5877863,-3.0916030,-3.0763359
210,10.3141680,-3.5218527,5.5760674,24.5496178,-24.2137413,-39.5572510,-3.0789278,1.6328372,9.9023676,0.1984733,-3.2671757,-2.9541984
220,10.5272512,-3.2513094,5.8202744,20.2137413,-15.4503813,-53.9694672,-2.9424589,1.6543850,9.9933472,0.4198473,-3.3587787,-2.1297710
230,10.7930059,-3.1842721,6.0405402,15.2137403,2.7251909,-68.5190811,-2.9520357,1.7166338,10.0029240,0.6030535,-2.6259542,-2.9694657
240,10.5679522,-3.1076579,5.9663200,7.3664122,24.9389305,-80.2061081,-3.0310438,1.7333932,9.9670105,0.2977099,-2.9083970,-2.9923663
250,10.0340481,-2.9185169,6.0261750,-3.2977099,42.3511467,-90.4885483,-3.0262554,1.6519908,9.8161764,0.2137405,-3.3053436,-2.9770992
260,9.3301563,-2.7245877,6.1003947,-11.6183205,51.4198456,-99.3282471,-3.0454090,1.6567791,9.8592720,0.3129771,-3.0610688,-3.1526718
270,8.7148495,-2.6671271,6.3493905,-15.8320608,55.2824440,-106.8015289,-3.0908985,1.7046629,9.8449068,-0.0152672,-3.0076337,-3.5572519
280,7.9774394,-2.7772598,6.4619174,-15.5572519,52.9923668,-112.4427490,-3.2177906,1.5849534,9.8592720,-0.0916031,-2.6412213,-2.5877862
290,7.0700417,-2.8155668,6.5098009,-11.7404585,44.5648842,-116.3969498,-3.3710186,1.4149660,9.7323799,-0.4732825,-1.5572519,-1.7862595
300,6.1985564,-2.7269819,6.4523406,-6.4045801,29.2824421,-117.3358765,-3.4165084,1.4556671,9.8281479,-0.9847328,-0.8015267,0.2900763
310,4.8314743,-2.6336083,5.9782910,2.0076337,-11.5343513,-108.2061081,-3.3351059,1.3479286,9.8832140,-2.7099237,3.0916030,3.3435113
320,4.7309184,-2.6360025,5.6646523,2.4045801,-19.0992374,-100.3129807,-3.3279233,1.2689204,10.1274214,-2.1145039,9.5343513,4.8396945
330,4.6136031,-2.8730273,5.4036856,0.0305344,-12.7557249,-89.9847336,-3.5194585,1.1827296,10.2926207,-0.8396947,18.1603050,8.1832066
340,4.1898317,-2.8682389,5.3797436,-6.1297708,-8.4274807,-76.8473282,-3.8187323,0.6991033,10.4027529,0.4656489,26.3816795,12.1984730
350,3.9360476,-2.8873925,5.6215568,-12.6335878,-6.4656487,-61.8625946,-3.4356618,0.5961532,10.5033092,1.3969465,35.4122124,13.5038166
360,3.8785870,-2.9328821,6.1315193,-17.8854961,-9.2137403,-45.3206100,-3.2249732,0.7972651,10.7139978,3.1832061,52.1145020,16.1755733
370,4.0030847,-2.9424589,6.4714942,-20.5496178,-16.3206100,-30.5725193,-3.2465210,0.7805058,11.1784706,9.4045801,71.5572510,17.0000000
380,4.1850433,-3.2297616,6.8713236,-19.4198475,-14.1526718,-18.0229015,-3.3710186,0.2896969,11.2526903,18.6488552,83.2748108,14.7251911
390,4.3119354,-3.1315999,7.3884687,-14.9770994,-15.5343513,-4.9312978,-3.5553713,1.2928623,10.6014709,26.1450386,95.0687027,8.4732828
400,4.5513539,-3.1699069,7.4267755,-7.1068702,-14.6564884,7.6259542,-4.7045822,1.8339491,9.7036495,29.4274807,102.6641235,3.2977099
410,4.8075323,-3.1866663,7.9798336,11.8625956,-32.9771004,27.5190830,-7.1777802,2.5953014,6.9694853,14.8320608,77.9312973,6.4427481
420,5.5473371,-3.0166788,7.8337879,18.0992374,-47.0152664,33.6793900,-6.9072366,2.6743097,5.4802995,-10.0687027,57.8625946,6.4503818
430,6.1889796,-2.9304879,7.6733770,24.8931293,-49.1603050,37.7175560,-6.6366930,3.2896163,4.9320302,-43.0992355,38.3282433,5.9923663
440,6.6031747,-2.8490853,7.3956513,30.9541988,-46.1679382,40.8244286,-6.8282285,3.6894460,5.6790175,-78.3206100,17.2595425,5.2442746
450,6.8809004,-2.7437410,7.2400289,37.3740463,-40.2137413,42.0228996,-7.6877422,3.6104376,7.8409705,-106.9542007,-14.3282442,7.1526718
460,7.3334022,-2.6216373,6.8234401,42.5114517,-29.2977104,41.9083977,-7.6398587,2.6000898,11.1880474,-121.5954208,-46.4427490,9.6335878
470,7.2903070,-2.6383967,6.8928714,45.9847336,-24.3740463,41.3358765,-7.6111283,2.5162930,13.4840746,-120.0152664,-66.2137375,9.3053436
480,7.7954807,-2.6240315,6.8018923,43.0076332,-30.1374054,41.7251892,-7.4219875,2.0901275,14.7984848,-103.0000000,-75.5954208,9.4274807
490,8.4443064,-2.5593886,6.5241661,39.6259537,-29.7404575,41.2366409,-7.6829538,1.9297167,15.3874559,-75.9770966,-82.5877838,9.0076332
500,9.0524302,-2.3606708,6.3302369,37.3358765,-27.2824421,38.9771004,-8.0277176,1.8842272,15.4185801,-41.6641235,-88.6641235,17.6106873
510,9.0883436,-1.9608412,6.2296810,34.9236641,-25.2442741,36.2824440,-8.3820572,1.3551112,14.6811695,-7.0076337,-75.6030502,35.0534363
520,8.9806042,-1.7333932,6.2871413,30.2137413,-25.5954189,34.1221390,-8.2360115,1.2593436,13.6205435,23.8854961,-41.6793900,59.8854980
530,9.3038206,-1.8004304,6.3134775,26.9007626,-22.3435116,29.6488552,-7.8481531,1.2856797,12.5431585,48.7709923,3.3053436,85.6335907
540,9.4929609,-1.8052188,6.2272868,23.2824421,-22.1221371,23.5190830,-7.5440907,1.1348459,11.7195578,65.6335907,50.9465637,111.0687027
550,9.8018112,-1.8124014,6.0525107,20.0687027,-16.4503822,16.8091602,-7.1897511,0.8738791,10.9175043,75.0610657,97.7480927,138.9618378
560,9.8233595,-1.8985922,6.0429344,19.4274807,-7.4045801,10.1297712,-6.3757267,0.6631905,10.8097658,78.2671738,138.7022858,164.0915985
570,9.5336628,-1.8483143,6.1841912,19.6564884,-3.7251909,5.5114503,-5.5353661,0.2657550,10.8911676,78.0763321,168.0305328,183.7786255
580,9.2726955,-1.8698620,5.8370337,19.6106873,-4.9083967,1.3893130,-4.7045822,-0.2801202,11.4083128,76.0839691,188.4961853,197.7099304
590,9.2319946,-1.9967541,5.5640965,19.2748089,-7.5725193,-3.1984732,-3.5984666,-0.8906385,12.1050215,74.5419846,204.2671814,205.2442780
600,8.8201942,-1.9560528,5.2959471,18.8854961,-9.5572519,-7.0381680,-2.6790979,-1.4867916,13.3547888,75.9083939,215.3816833,207.9313049
610,8.5855637,-1.9321109,5.1115947,18.1603050,-9.3282442,-8.6183205,-1.8363433,-1.8961980,14.2980995,81.3893127,216.2595367,205.3664093
620,8.4921904,-1.9799947,4.8386569,14.6412210,-8.9389315,-9.6717558,-1.3072275,-2.0494261,15.2940826,91.0000000,216.9618378,198.3816833
630,8.2934723,-1.9967541,4.7979555,8.8167934,-9.2519083,-10.4198475,-0.9241571,-2.1523764,15.8160152,107.0534363,213.3206177,186.2061005
640,8.0085640,-1.9776005,4.9990678,1.4274809,-8.2519083,-11.4351149,-0.6392486,-2.2481439,15.8758707,124.4580154,197.9313049,170.3282471
650,8.0325060,-1.9967541,5.1546898,-4.5801525,-4.2595420,-11.0458012,-0.3208214,-2.2098370,15.2414103,140.7786255,171.5648804,147.7786255
660,7.8457589,-2.0566087,5.3725610,-9.0687027,-0.1526718,-10.1221371,-0.5027798,-2.0853391,14.7410240,157.0763397,134.4274750,124.0610657
670,7.7404146,-2.1068866,5.7556314,-11.4580154,1.4885496,-9.1908398,-0.5123565,-1.8171898,13.8862991,173.6641235,98.4656525,98.8931274
680,7.7236552,-2.1356170,6.0046272,-11.3587790,0.8244275,-8.1603050,-0.8858501,-1.6232605,12.8544035,189.4122162,65.6717529,76.2671738
690,7.6422529,-2.0087249,6.1075773,-9.0763359,-2.3282442,-7.0992365,-0.9217629,-1.3024391,11.8105364,205.0152740,33.9771004,55.9771004
700,7.6901364,-2.0542145,6.1650376,-6.2290077,-5.4503818,-5.8091602,-1.1779412,-0.6919208,10.1705170,219.3358765,7.4885497,38.6488533
710,7.6638002,-2.0159075,6.2368636,-3.7175572,-7.6412215,-4.9389315,-1.1970947,0.0957676,8.1354561,225.8396912,-11.5572519,23.1755733
720,7.7547798,-2.0446377,6.2488346,-2.9923663,-8.0152674,-3.3893130,-1.1827296,1.0247130,6.2727766,222.4427490,-20.9694653,10.4274807
730,7.7978749,-2.0039365,6.2248926,-3.4122138,-8.5114508,-2.7328243,-0.8403605,2.0135133,4.4771342,211.3969421,-25.2977104,-2.5343511
740,7.8888540,-2.0039365,6.2584114,-3.4045801,-7.4045801,-1.7938931,-1.0175306,2.9352763,3.3638363,198.2900696,-24.6870232,-16.0381680
750,7.9630742,-2.0446377,6.2847471,-2.8549619,-5.1450381,-1.0610687,-1.8770446,3.9671719,2.1811066,185.8473358,-24.6641216,-29.2213745
760,7.9965930,-2.0925217,6.4619174,-1.5725191,-2.8702290,-0.3587786,-2.9400647,5.0301919,1.2018831,175.0992432,-27.3282452,-38.4656487
770,8.1402445,-1.9967541,6.5026188,-0.6106870,-0.6564885,0.1145038,-4.6854286,6.0644817,-0.2346306,165.2137451,-31.3282452,-42.0916023
780,8.2096758,-1.9656296,6.3565731,-0.2519084,0.3282443,0.2595420,-5.9088597,7.2639709,-2.0326669,152.8854980,-35.1755714,-38.8396950
790,8.1953106,-1.9680238,6.2296810,0.5038168,0.0381679,-1.0152671,-6.7204900,8.6573887,-3.7349355,134.8015289,-36.2290077,-31.9465656
800,8.2815018,-1.9440818,6.1578555,0.7022901,-0.3664122,-2.7862597,-7.0269461,9.8161764,-4.8673873,114.9312973,-33.8091621,-21.3282452
810,8.2216463,-1.9943599,6.1243367,0.2137405,0.1145038,-4.4961834,-7.4195933,10.6685085,-5.6431046,97.6564865,-23.4656487,-8.1679392
820,8.2431946,-1.9943599,6.0788469,-0.0305344,1.3893130,-5.5648856,-7.4746594,11.4801388,-6.3254485,84.0839691,-4.5038166,5.9465647
830,8.1091194,-2.0542145,6.0285692,-1.2595420,2.8015268,-6.3664122,-7.5871863,11.9182749,-7.1658092,71.5954208,19.0916023,22.5190830
840,8.1019373,-2.1667414,6.0213866,-2.1832061,3.1603053,-6.4198475,-7.4531116,12.2295198,-8.0516596,55.9389305,37.6183205,38.8091621
850,8.0420828,-2.1044924,5.9064655,-1.3511450,1.8091604,-6.2366414,-7.3262196,12.6221666,-8.5424681,34.8244286,44.7175560,54.5725174
860,8.1091194,-2.0518203,5.9208307,-0.4809160,0.7404580,-6.1755724,-6.7851329,12.9238348,-8.9590569,8.5725193,40.1755714,70.0916061
870,8.0756006,-2.1787124,5.9806852,-0.1526718,0.0305344,-6.0000000,-6.0716643,12.5886478,-9.1146793,-19.6641216,37.0763359,82.6183243
880,8.0732069,-2.0973101,5.8705525,-0.6870229,-0.1145038,-5.9236641,-5.2696109,12.0260134,-8.6861191,-45.7022896,43.6946564,91.9312973
890,7.9175844,-2.1068866,5.8753409,-1.3053435,0.0763359,-5.6641221,-4.2664456,11.2550850,-7.9032192,-69.3053436,54.1908379,94.8244247
900,7.8529415,-2.0087249,5.8705525,-1.6106870,-1.4732825,-5.3969464,-3.6774750,10.4913378,-7.0939832,-93.5038147,60.5572510,93.6717529
910,7.7811155,-2.0135133,5.8537931,-2.3053436,-1.8244275,-4.6717558,-3.1052637,9.6629486,-6.1339135,-118.1984711,63.9312973,86.1145020
920,7.7140784,-2.1188576,5.9950504,-3.3664122,0.7022901,-1.9618320,-3.0214672,8.9111729,-4.8123207,-141.4503784,62.1908379,74.3129807
930,7.8601241,-2.0518203,6.0118098,-4.9694657,5.0229006,0.0763359,-3.1507533,8.0899658,-3.2991931,-160.7022858,53.1755714,62.1526718
940,7.7547798,-2.0302727,5.8825235,-7.2519083,10.8091602,1.9847329,-3.1938488,7.1801744,-1.9033806,-176.4045868,39.6793900,46.1755714
950,7.6709828,-2.0542145,5.7723908,-10.6335878,19.0687027,6.6106873,-3.4883339,6.3661499,-0.5817881,-190.9465637,22.7328243,28.2137413
960,7.5823979,-2.1020982,5.7628140,-16.4122143,31.6793900,13.3511448,-4.1946201,5.5233951,0.6464311,-202.5572510,8.8167934,13.5648851
970,7.4411407,-2.2672975,5.8705525,-24.0152664,45.4580154,21.3053436,-5.6335278,4.6088147,1.7549409,-213.5954132,8.8320608,8.0534353
980,7.3597383,-2.4564383,5.8729467,-32.8244286,63.5572510,29.8244267,-7.2089043,3.5266411,3.9432299,-221.7557220,23.5572510,16.8549614
990,7.0173693,-2.3606708,6.1817970,-41.6412201,79.1755753,37.1526718,-8.0995426,2.6479735,7.0628591,-220.9160309,59.3511467,34.3664131
1000,6.4475522,-2.5761478,6.3565731,-49.4503822,75.4122162,46.9236641,-8.9853926,1.5059452,10.6780853,-206.0152740,113.4503784,58.1832047
1010,6.3757267,-2.8395088,6.5672617,-52.9923668,62.8473282,56.9618340,-9.7228031,0.3974355,14.6021614,-177.3740387,172.8931274,85.1908417
1020,6.8617468,-2.7628946,7.0868006,-48.0839691,54.1755714,58.2671738,-10.3309278,-0.3495516,18.0521889,-138.0229034,227.1832123,112.6030502
1030,7.1753860,-2.8299320,7.4267755,-37.1984749,39.7251892,54.9923668,-10.5033092,-1.4173602,19.6126022,-91.2137375,250.1297760,135.5572510
1040,7.3046722,-2.8514795,7.3621325,-22.3435116,28.0763359,47.6259537,-10.0867205,-1.8219782,19.6126022,-38.5343513,250.1297760,150.3053436
1050,7.3549500,-2.9376705,7.2136927,-6.9389315,18.9160309,39.6717567,-9.1577749,-1.9225341,19.6126022,15.6870232,237.0458069,154.2977142
1060,6.9886389,-2.9855542,6.9359670,6.9541984,7.7709923,31.1297703,-7.7859039,-1.9321109,19.6126022,71.1068726,190.3129730,145.8091583
1070,6.6055689,-2.8371146,6.6007805,15.0152674,-12.4809160,26.6030540,-6.9359670,-1.9081690,19.6126022,123.3129807,132.8244324,127.2977066
1080,6.7587967,-2.7078283,6.1698260,18.6793900,-29.0381680,25.5801525,-6.4044566,-1.0845678,19.6126022,166.9084015,74.2595444,102.6335907
1090,7.1873569,-2.8754215,5.8897061,16.7099228,-35.2900772,24.4045811,-6.0908179,-0.4429250,17.4464588,199.3053436,14.3664122,80.0839691
1100,7.5249376,-2.9017577,5.7316895,10.9312973,-33.2213745,21.9541988,-5.7987270,0.4285599,14.7673607,220.1297760,-43.0458031,60.1221390
1110,7.5871863,-2.9113343,5.7723908,3.7251909,-25.8167934,21.6564884,-5.2576399,1.2234308,12.1696653,232.4580078,-88.9007645,43.6564903
1120,7.6159167,-3.0190730,5.8274570,-3.8167939,-17.2061062,22.8244267,-5.0038562,2.3798244,9.9550400,240.5801544,-116.1374054,32.7633591
1130,7.8457589,-3.0932927,6.2177100,-10.3129768,-9.9312973,22.2137413,-4.6207857,3.4691806,6.9479380,249.3358765,-120.8091583,28.1145039
1140,7.8936424,-3.0956869,6.8521700,-11.8778629,-5.8549619,19.7709923,-4.1347651,4.6423335,3.6463506,250.1297760,-96.8244247,31.0305347
1150,7.9606800,-3.1746953,6.9982157,-9.2977095,-4.6717558,16.5267181,-4.0868812,5.7221127,0.4812321,250.1297760,-56.4885483,37.3969460
1160,8.0756006,-3.2082138,7.0508881,-4.7938933,-6.2748094,13.0076332,-4.7811961,6.7779503,-2.7724714,250.1297760,-10.2290077,50.7480927
1170,7.9056134,-3.2393384,7.0173693,0.0458015,-7.7480917,9.7786255,-5.2839761,8.5185261,-6.5768385,249.2671814,23.4045811,68.6946564
1180,7.9606800,-3.2201848,6.7803445,3.4503818,-8.2519083,7.2366414,-4.5992379,10.0579901,-10.3165627,232.0610657,39.1450386,88.1755753
1190,7.9487090,-3.0358322,6.5720501,4.4961834,-7.9847326,3.9847329,-2.4923513,11.1234045,-14.1281118,199.9389343,39.3587799,100.9312973
1200,8.0133524,-3.0478032,6.4954362,4.5648856,-6.0152674,0.0076336,0.7158626,12.1289635,-17.3818150,151.8778687,24.8244267,98.3816757
1210,7.9247670,-3.0501974,6.3637557,2.5648854,-1.8778626,-2.8625953,4.6327567,12.5910425,-19.6131992,90.0763321,-3.3053436,75.2290039
1220,7.8170285,-2.9927368,6.3733325,1.2519084,0.7022901,-5.1145039,8.5376797,12.2821922,-19.6131992,17.9770985,-40.1221390,33.7404594
1230,7.6446471,-3.0166788,6.3422079,0.8778626,1.4580153,-6.7328243,10.5272512,11.7506819,-19.6131992,-53.6488533,-69.3129807,-18.3282452
1240,7.4219875,-2.9233053,6.3182659,1.3435115,-0.3587786,-9.1297712,10.3045912,11.4083128,-18.3155499,-121.4580154,-83.2366409,-72.6870193
1250,7.3214312,-2.9687948,6.2608056,2.2595420,0.4580153,-9.4427481,8.1067257,10.8696203,-15.1384602,-177.4885559,-101.2366409,-116.9007645
1260,7.0987716,-3.0094962,6.1554613,1.7633588,1.8931298,-7.5954199,5.7723908,10.0484133,-11.9493999,-220.5114441,-126.1755753,-146.4580078
1270,6.9694853,-3.1268115,5.9950504,-0.0381679,2.6412213,-6.5419846,3.3853838,8.8034344,-9.1338329,-250.1374054,-154.0229034,-165.6793823
1280,6.8617468,-3.0430148,6.0716643,-0.6106870,2.5190840,-4.5038166,1.6591733,7.6494355,-6.4691000,-250.1374054,-183.7175598,-178.8320618
1290,6.7683735,-3.1076579,6.1387019,-0.7480916,0.2442748,-2.1755726,-0.0239419,5.8681583,-4.2353210,-250.1374054,-201.3282471,-184.1755676
1300,6.8569584,-3.2058196,6.1267309,-0.2366412,-3.5267177,-0.4198473,-2.0326669,3.9935081,-1.7046629,-250.1374054,-187.2519073,-178.6793823
1310,6.9599090,-3.1100521,6.0812411,-0.8015267,-6.3740458,1.3587786,-4.4340386,2.3678534,2.2050486,-250.1374054,-127.2519073,-156.6030579
1320,7.1203194,-3.1459649,6.1219425,-2.4809160,-8.3358774,2.4961832,-8.1881275,1.2425843,8.3916340,-250.1374054,-19.3587780,-117.1374054
1330,7.3357964,-3.1651185,6.3326311,-4.1374044,-8.8778629,2.7862597,-11.9709473,0.8523315,15.2150736,-250.1374054,135.9313049,-59.5419846
1340,7.4914188,-3.2058196,6.4643116,-5.1679387,-8.5572519,2.4732823,-16.7593269,0.7086801,19.6126022,-225.5343475,250.1297760,9.9770994
1350,7.5967631,-3.2632802,6.4547348,-5.7633586,-6.3206105,2.1450381,-19.6131992,0.3615226,19.6126022,-130.0915985,250.1297760,87.9160309
1360,7.7045016,-3.2321558,6.7947097,-5.3435116,-2.8549619,1.6641221,-19.6131992,0.0694315,19.6126022,-31.8091602,250.1297760,160.4580078
1370,7.7021074,-3.2369442,6.7252784,-5.2824426,2.0305343,0.5954198,-19.6131992,-0.6368544,19.6126022,56.8549614,246.8854980,208.5801544
1380,7.6302819,-3.2967989,6.6510582,-5.5343513,6.7938933,-0.1221374,-16.8503056,-0.7613522,19.6126022,130.5572510,160.8931274,224.0000000
1390,7.4387465,-3.2058196,6.7180958,-5.1755724,9.6488552,-0.4503817,-12.9932661,-0.2585725,19.6126022,187.2671814,105.2290039,218.8854980
1400,7.2663651,-3.3255291,6.5361371,-3.7022901,10.1145039,-0.1068702,-10.4338779,0.5674229,16.7976341,226.7633514,62.4580154,205.8091583
1410,7.0221577,-3.3662305,6.3876977,-2.3511450,10.0381680,0.7404580,-8.5089493,1.7381816,13.0124197,249.2366486,18.1068707,189.1755676
1420,6.9503322,-3.3159523,6.2272868,-2.3511450,9.4732828,2.7557251,-6.8401995,3.0645626,9.4881725,250.1297760,-24.5801525,171.7404633
1430,6.9455438,-3.3303175,6.2033448,-2.4045801,6.3435116,3.1832061,-5.2360926,4.3598189,6.3350253,231.5572510,-63.0610695,155.4580078
1440,6.8521700,-3.2010312,6.0644817,-1.5114504,0.6030535,2.7633588,-3.9432299,4.9679432,4.1754665,205.1450348,-93.1450348,140.6030579
1450,6.8809004,-3.2225790,6.1339135,-0.6259542,-6.1603055,2.6641221,-2.6910689,5.1546898,3.3901722,188.8396912,-113.4122162,127.3282471
1460,6.8809004,-3.3015873,6.1027889,0.2442748,-11.4198475,3.3358779,-1.6376256,5.8274570,2.2289903,186.4503784,-117.5648880,116.9160309
1470,6.9263902,-3.4212968,6.0070214,0.1908397,-15.0458012,4.5801525,-0.7517755,6.8952656,-0.0383070,190.7099304,-97.9847336,111.4885483
1480,6.7803445,-3.4212968,6.0525107,-0.0763359,-17.5267181,6.5114503,-0.3160330,7.6877422,-2.5569944,190.3587799,-62.2824440,113.0305328
1490,6.8378053,-3.5553713,6.1458845,-0.9770992,-18.5343513,9.0152674,0.2082945,8.7244263,-4.3885493,188.4351196,-32.0076332,115.5419846
1500,6.7228842,-3.5769191,6.2105274,-2.7480917,-15.0000000,12.4045801,2.3822186,9.3157911,-7.9104018,185.0305328,-12.2519083,111.3664093
1510,6.6414814,-3.4619980,6.3134775,-4.3664122,-9.7633591,17.8778629,5.5257893,10.0771437,-13.2805691,166.3358765,0.4580153,96.0992355
1520,6.6462698,-3.5697365,6.3637557,-5.7786260,-5.6488547,22.2671757,8.2599535,10.9246864,-18.2125988,123.6335907,3.3893130,69.6106873
1530,6.6630292,-3.5673423,6.5720501,-5.6641221,-2.5190840,25.2824421,10.1130562,11.2502966,-19.6131992,59.5419846,1.0000000,37.2595406
1540,6.8330169,-3.5003049,6.6007805,-3.9389312,-1.3282443,28.0534344,10.5104914,11.4945040,-19.6131992,-12.8091602,-5.6641221,1.2213740
1550,6.8832946,-3.4835455,6.5792327,-1.7862595,-1.5572519,29.9847336,10.2040358,11.4202833,-19.5533447,-84.2824402,-32.5954208,-33.4274826
1560,6.9718795,-3.5434003,6.5217719,-1.1145039,-0.6564885,31.7709923,9.2080526,11.0587606,-16.2924595,-145.4732819,-72.1603088,-66.9389343
1570,7.1777802,-3.3949606,6.4954362,-0.7175573,-0.1297710,32.0076332,8.6286592,10.1058741,-13.3404236,-190.7633514,-105.5648880,-95.2061081
1580,7.2567883,-3.3590479,6.5241661,0.1526718,-1.7786260,30.7099228,7.9223728,9.1266499,-10.8696203,-221.8931274,-118.0534363,-119.3129807
1590,7.3453732,-3.3829896,6.6127515,2.1679389,-4.3893127,28.2824421,6.3924856,8.5281029,-8.3461447,-241.9541931,-107.2366409,-139.0610657
1600,7.4435349,-3.5817075,6.4307928,3.9847329,-6.6030536,26.3969460,4.3765783,7.7859039,-5.9208307,-250.1374054,-88.6335907,-155.4503784
1610,7.6470413,-3.5888901,6.2727766,3.8702290,-6.7404580,24.6259537,1.9895715,6.3422079,-4.0102673,-250.1374054,-69.5343475,-167.0152740
1620,7.9104018,-3.5529771,6.3206601,2.4809160,-4.9007635,22.2595425,-0.6655847,4.9990678,-2.1811066,-250.1374054,-46.0916023,-171.4961853
1630,8.1210909,-3.6200144,6.5217719,2.6030533,-3.1755726,18.7786255,-4.1587071,3.3446827,0.4764437,-250.1374054,-4.4885497,-166.5496216
1640,8.2096758,-3.7301471,6.3948798,3.6488550,-0.0305344,15.0992365,-8.8776541,2.7150109,4.7883787,-250.1374054,55.3282433,-146.4885559
1650,8.0468712,-3.8067613,6.3517847,3.8167939,4.1984735,12.4122133,-15.2892942,2.5905130,11.3700056,-250.1374054,138.1603088,-99.9694672
1660,7.9702568,-3.7540891,6.0357518,2.3740458,8.6946564,10.8625956,-19.6131992,2.5785420,18.1623211,-227.4427490,218.6259613,-33.1755714
1670,7.8816719,-3.5888901,5.7771792,0.9618320,10.0381680,9.0916033,-19.6131992,2.2696917,19.6126022,-161.2519073,244.1450348,40.9541969
1680,7.7667508,-3.4141142,5.7795734,-0.2442748,7.7786260,5.7175574,-19.6131992,1.7621235,19.6126022,-74.6564865,203.9770966,112.1526718
1690,7.6829538,-3.5529771,5.6071916,-1.3358779,5.4580154,2.3664122,-19.6131992,0.7374104,19.6126022,18.2061062,138.1832123,165.1145020
1700,7.6159167,-3.5170643,5.5569139,-5.3435116,8.6793890,-0.4961832,-17.7840385,0.3567342,19.6126022,105.7557220,93.0687027,189.7480927
1710,7.3788919,-3.5864959,5.4300218,-11.2061071,12.9083967,-1.4656489,-14.7027178,0.4261657,19.6126022,177.7709961,72.9007645,195.1145020
1720,7.2256637,-3.6463506,5.7269011,-15.5267172,13.1297712,-2.0610688,-12.8256731,0.7685348,19.6126022,231.4274750,50.7862587,193.2977142
1730,7.1298962,-3.7804251,6.1219425,-16.6335869,9.8015270,-2.0381680,-11.5926657,1.6112895,15.2701406,250.1297760,15.7938929,188.5801544
1740,7.1586266,-3.8474624,6.3589673,-16.3206100,9.5801525,-2.4045801,-9.8018112,2.6790979,10.1489687,250.1297760,-24.2442741,185.3129730
1750,7.1203194,-4.0222383,6.4930420,-15.2290077,13.4427481,-2.8396947,-7.7930865,3.5960727,6.2584114,244.5725250,-56.0228996,180.4503784
1760,7.0460997,-4.0701222,6.5361371,-15.6946564,19.9236641,-2.9236641,-6.0549049,3.9264708,3.5888901,217.4656525,-77.1526718,173.9465637
1770,7.0101867,-3.9384418,6.7013364,-15.0839691,21.6717548,-2.9541984,-4.9344244,4.0342093,2.5641768,196.9694672,-103.0534363,165.9313049
1780,6.9670911,-3.8546450,6.9718795,-13.0916033,18.8320618,-4.1755724,-3.7876077,4.9320302,1.2282192,188.9007568,-128.2366486,159.6335907
1790,7.1011658,-3.9575951,6.9479380,-11.5877867,23.2900772,-5.4427481,-3.4476328,5.8202744,-0.7829000,188.3587799,-135.8320618,163.5954132
1800,7.1777802,-4.0485744,6.7516141,-14.6030531,40.5038185,-6.5648856,-2.1451938,6.4475522,-3.0238612,194.7862549,-135.1297760,176.3358765
1810,6.8928714,-3.8211265,6.7827387,-19.2366409,59.4122124,-4.7328243,0.5123565,6.6917596,-5.9160423,207.1832123,-117.0229034,189.8854980
1820,6.6750002,-3.9815371,7.0197635,-21.8244267,68.3969498,-3.7938931,4.9368186,6.5600791,-10.6900558,222.2671814,-65.1832047,197.3435059
1830,6.4020624,-3.9863255,7.6135225,-18.8015270,57.9465637,-3.9694657,10.3309278,7.0844064,-16.9484673,225.0381622,9.6564884,190.6259613
1840,6.2536230,-4.0844874,7.9295554,-11.0458012,46.2824440,-4.5038166,15.3012648,8.4490948,-19.6131992,191.0152740,73.6335907,165.8549652
1850,6.3398137,-4.0701222,7.6087341,-3.5190840,39.9236641,-3.6793892,18.1407738,9.3852224,-19.6131992,115.7786255,102.0763321,122.5572510
1860,6.4403696,-3.9791429,7.2927012,4.5496182,42.8473282,-4.8396945,19.2516766,9.4522600,-19.6131992,15.7786255,82.1450348,67.6870193
1870,6.3757267,-3.8307030,6.5576849,6.8320613,45.0916023,-7.2213740,18.8494530,9.2224178,-19.6131992,-86.0839691,18.2977104,12.9389315
1880,6.2296810,-3.8211265,6.2823529,2.7175572,43.5114517,-8.7328243,17.8822002,7.7332320,-19.6131992,-167.4351196,-64.7633591,-35.1832047
1890,5.1882086,-3.9240766,5.6574697,0.9007633,52.3358765,-4.7938933,18.2652721,8.0612354,-16.0793762,-225.6259613,-115.5267181,-79.2519073
1900,5.4563580,-3.8737986,6.3948798,-3.6412213,45.6870232,-2.3587787,16.0506458,6.9239960,-12.7203283,-250.1374054,-109.3816757,-117.7175598
1910,4.9870968,-3.3207407,6.3829093,-5.3893127,29.2748089,2.7786260,13.8264437,6.4930420,-9.6844959,-250.1374054,-62.9541969,-145.4503784
1920,5.7149301,-3.4452386,6.5265603,-4.5496182,9.6030531,6.1221375,11.2431135,6.1889796,-7.1849627,-250.1374054,-8.2671757,-170.6793823
1930,6.2368636,-3.7085996,6.6917596,-1.8549619,-5.8549619,5.4427481,7.8960366,5.4012914,-4.9128766,-250.1374054,37.6793900,-193.3435059
1940,6.6917596,-4.2664456,6.6342988,0.9770992,-13.7786255,3.6412213,4.7692256,4.7213416,-3.6870518,-250.1374054,63.8396950,-211.6335907
1950,6.7300668,-4.4268565,6.7420373,4.1068702,-14.1832066,2.3206108,1.1875180,3.7876077,-1.9440818,-250.1374054,82.9618301,-221.7099304
1960,6.8569584,-4.3430595,6.6702118,5.7557254,-12.9389315,0.6259542,-3.0956869,3.2752512,0.0957676,-250.1374054,112.9618301,-219.0839691
1970,6.7683735,-3.8977404,6.4595232,5.2824426,-10.0610685,-0.0687023,-8.2360115,3.2417326,2.7341642,-250.1374054,173.2442780,-196.5419922
1980,6.6007805,-3.6678982,6.1482787,1.4580153,-6.5190840,0.4122137,-15.7034883,3.4524212,6.8761120,-250.1374054,238.3587799,-149.3511505
1990,6.7396431,-3.3973548,6.1698260,-4.0229006,-5.2977099,-0.4732825,-19.6131992,3.2513094,10.6613255,-250.1374054,250.1297760,-78.9389343
2000,6.9718795,-3.5386121,6.3493905,-9.4656487,-4.6641221,-4.0534353,-19.6131992,4.2999644,18.0450058,-221.5954132,250.1297760,-6.7328243
2010,6.8641410,-3.5553713,6.4140334,-12.0076332,-5.7633586,-6.3664122,-19.6131992,3.1052637,16.8550930,-173.5954132,235.5114441,61.3358765
2020,6.7085190,-3.7445123,6.6654234,-11.2671757,-9.1679392,-7.8396945,-19.6131992,1.0702027,19.6126022,-117.0229034,202.9770966,125.0229034
2030,6.5768385,-3.9671719,6.9048424,-8.4580154,-13.2748089,-9.6259546,-19.6131992,0.5554519,19.6126022,-51.3816795,170.8625946,182.3282471
2040,6.4475522,-4.1970143,7.1753860,-5.1908398,-16.0000000,-11.3816795,-19.6131992,0.7014975,19.6126022,19.8702297,149.7175598,223.6564941
2050,6.3015065,-4.5154414,7.1634150,-3.0229008,-14.2442751,-11.1908398,-17.3842087,0.7038917,19.6126022,88.3129807,135.3587799,250.1297760
2060,6.0525107,-4.4579806,7.0604649,-2.9312978,-9.9770994,-8.1679392,-14.1113529,0.7996593,19.6126022,143.8015289,124.2900772,250.1297760
2070,5.9423780,-4.3095412,6.9982157,-3.1374047,-7.0458016,-5.0763359,-11.2095947,1.3335636,16.5103302,186.1526642,109.7557220,250.1297760
2080,5.9543490,-4.2281384,7.2328463,-3.0916030,-5.8473282,-3.2900763,-8.9853926,1.4867916,13.1417055,215.1221313,87.6564865,250.1297760
2090,6.1075773,-4.2185616,7.3190370,-2.2442749,-3.3969467,-2.2442749,-6.9192076,1.8459201,9.9598284,233.3816833,62.4809151,250.1297760
2100,6.1746144,-4.1036406,7.3429790,-2.1755726,0.0763359,-1.6030535,-5.0565281,2.3678534,7.1969333,242.2442780,39.0076332,250.1297760
2110,6.1602492,-3.9982965,7.4866304,-1.9541985,2.9083970,-1.4580153,-3.1818779,3.1076579,4.7428894,242.9389343,19.4809170,246.8396912
2120,6.1817970,-3.8857694,7.3860745,-1.5038168,5.6106873,-1.8015267,-1.3718705,3.6942344,1.8195840,236.8702240,0.7328244,242.1832123
2130,6.3254485,-3.8737986,7.3525558,-0.9007633,7.3511453,-1.5572519,0.2106887,4.2448978,-0.9217629,223.7786255,-3.8778627,245.0458069
2140,6.3661499,-3.8043671,7.1322904,-0.4732825,8.9923668,-1.3816794,1.9105632,4.8171091,-2.8323262,206.0229034,3.3206108,250.1297760
2150,6.5265603,-3.6583214,6.9311786,-0.9465649,10.3129768,-3.1526718,4.0964580,5.2767935,-4.4388270,190.6412201,9.5419846,250.1297760
2160,6.3517847,-3.6990228,6.8737178,-1.3740458,10.9160309,-4.0992365,7.7523856,4.8338685,-6.7827387,181.0381622,21.7786255,250.1297760
2170,6.3326311,-3.7133877,6.8258343,-1.4427481,10.8702288,-3.8320611,12.3444405,4.6136031,-9.8856087,170.4961853,44.3206100,250.1297760
2180,6.1865854,-3.7876077,6.6438756,-1.4045801,8.4809160,-3.1679389,17.6571465,4.2975702,-12.5335817,152.7633514,71.3358765,250.1297760
2190,6.2799587,-3.8618276,6.5624733,-1.2595420,6.7786260,-2.8473282,19.6126022,4.9727316,-13.8336267,123.2290039,81.3282471,226.9007568
2200,6.1746144,-3.9360476,6.4379754,-2.6793892,7.6717558,-1.5190840,19.6126022,5.5593081,-14.8511572,75.9160309,45.2595406,163.3740387
2210,6.3254485,-3.9312592,6.3805151,-4.4122138,8.0305347,-0.0916031,19.6126022,6.0333576,-15.2868996,7.3358779,-17.6259537,84.2900772
2220,6.3015065,-3.9839313,6.1267309,-7.5114503,8.3358774,2.3129771,19.6126022,6.7827387,-14.2526102,-71.9465637,-81.6946564,-4.6946564
2230,6.3757267,-4.1539187,6.0189924,-12.0839691,8.1755724,4.4045801,19.6126022,6.6438756,-11.8488436,-139.3816833,-131.5114441,-85.5114517
2240,6.8306227,-4.2496862,5.9471664,-18.3282452,10.2824430,3.5267177,19.6126022,6.5888095,-8.5233145,-178.3282471,-144.3664093,-156.2213745
2250,6.6773944,-4.6423335,5.8178802,-25.4427490,13.6030531,1.8931298,19.6126022,6.1387019,-5.4539638,-190.2671814,-121.3511429,-210.5343475
2260,5.9950504,-4.2879934,6.1698260,-32.4503822,16.1374054,4.2061067,18.3466740,5.9711084,-2.6144550,-181.1832123,-77.2671738,-249.1755676
2270,5.8274570,-3.9073172,7.1251078,-33.0839691,18.2366409,9.5648851,14.8152447,5.9782910,-1.0989330,-161.9770966,-26.5725193,-250.1374054
2280,6.2943239,-4.2018023,7.9965930,-27.1221371,18.0305347,11.2442751,11.2670555,5.4036856,-0.1221037,-143.3816833,16.1297703,-250.1374054
2290,6.6917596,-4.6471219,7.4914188,-21.3358784,32.7709923,9.9694653,7.8864598,4.6112089,0.3998296,-128.8015289,39.1297722,-250.1374054
2300,6.0764527,-4.5250182,7.1873569,-21.4503822,44.0839691,9.5190840,4.1515245,4.2544746,0.7374104,-119.8549652,38.8931313,-250.1374054
2310,5.6790175,-4.2951760,7.3884687,-21.2061062,39.9771004,10.2442751,-0.4022238,3.9144998,0.7445929,-116.5725174,30.4122143,-250.1374054
2320,5.5449429,-4.1970143,7.9798336,-15.6946564,31.2061062,11.1374044,-5.2408805,3.7038112,0.5889706,-120.4732819,22.6183205,-250.1374054
2330,5.7221127,-4.2879934,8.0899658,-8.2366409,25.4809170,11.1755724,-11.3604288,4.5393834,1.7070571,-131.4503784,22.8167934,-250.1374054
2340,5.9543490,-4.3071470,8.0540533,-0.4351145,19.8473282,9.1908398,-18.4448357,6.1530671,3.7636659,-138.6183167,24.4580154,-245.3969421
2350,5.8322453,-4.1970143,7.6781654,5.6030536,11.4732828,6.5343513,-19.6131992,7.2903070,6.4810710,-134.5877838,17.6259537,-160.5725250
2360,5.5880380,-4.2927818,7.1897511,8.9847326,0.6412213,4.8167939,-19.6131992,7.7045016,9.2559366,-115.8702316,17.9541988,-62.5190849
2370,5.5090299,-4.1563129,7.0149751,10.2442751,-10.9007635,2.7862597,-19.6131992,7.4938130,11.8392668,-80.2824402,30.1068707,31.4732819
2380,5.3342543,-4.2760224,7.0437055,12.2595415,-20.4427490,2.6106870,-19.6131992,6.8976598,13.3236647,-36.0228996,40.6564903,106.6564865
2390,5.3869262,-4.2808108,7.0030041,14.1221371,-26.4122143,3.0916030,-19.6131992,6.1147599,13.7546186,8.3893127,44.9389305,160.0076294
2400,5.4324160,-4.2305326,6.7779503,14.1221371,-27.8320618,5.1145039,-18.3323078,5.4850879,13.4002781,47.2671738,44.4503822,193.5267181
2410,5.5521255,-4.2999644,6.5672617,11.0763359,-24.1068707,7.4045801,-14.4154148,5.0493455,12.6820211,78.8778610,28.8015270,213.0229034
2420,5.5904322,-4.3622131,6.5792327,7.1603055,-20.0229015,9.7022905,-11.0563669,5.0517397,11.3388815,101.2213745,1.6717557,219.3587799
2430,5.8873119,-4.2951760,6.6917596,3.5419848,-12.3816795,11.5114508,-8.3198080,5.0708933,9.5504217,114.0000000,-35.1984749,216.2061005
2440,5.9591374,-4.2975702,6.7611909,1.3893130,-6.1297708,12.4198475,-6.0812411,5.1977854,7.5823979,120.3816757,-77.0763321,210.2366486
2450,5.9926562,-4.2113791,6.9000540,0.7480916,-5.5267177,12.5267172,-3.9073172,5.2624283,5.2289100,123.2290039,-115.1374054,204.4274750
2460,6.0620875,-4.1658897,6.8809004,1.7022901,-9.2824430,12.0229006,-2.1978660,5.2815819,3.0358322,123.0916061,-146.1526642,207.5877838
2470,6.0692701,-4.2425036,6.8569584,3.6183207,-13.6183205,11.5801525,0.1412572,5.4659348,1.0989330,124.4122162,-166.2595367,216.4503784
2480,6.2129216,-4.1706781,6.8066807,5.0000000,-18.4732819,10.1603050,3.4763632,5.4850879,-1.1563935,130.0305328,-171.3206177,227.0992432
2490,6.1889796,-4.3909435,6.6271162,4.7022901,-20.4580154,9.4045801,6.9455438,5.0756817,-3.9192882,142.8396912,-147.8091583,233.1908417
2500,6.1123657,-4.5537481,6.5361371,2.5038168,-16.7862587,10.7022905,11.6142130,4.8841467,-8.0109577,159.7786255,-92.1832047,229.6641235
2510,6.0692701,-4.4531922,6.4643116,-1.1984733,-14.5190840,11.9389315,15.9022064,5.6431046,-11.9517937,164.5038147,-30.0000000,212.0610657
2520,6.1506729,-4.3646073,6.6103573,-4.1221375,-12.9312973,12.9847326,19.6126022,6.7444315,-15.2773228,139.5877838,34.9160309,175.3129730
2530,6.2368636,-4.3981261,7.2208753,-3.7022901,-13.6030531,13.4274807,19.6126022,7.7284436,-16.7569313,89.1908417,72.5877838,122.9007645
2540,6.3182659,-4.5202298,7.3549500,-0.1374046,-17.4580154,12.9083967,19.6126022,8.0636301,-16.8910065,23.9618320,70.1297684,62.6870232
2550,6.3757267,-4.5178356,7.4124107,4.7175574,-22.8778629,12.2900763,19.6126022,7.9439206,-13.9653072,-40.2748108,23.2671757,2.5343511
2560,6.3086891,-4.6830344,7.2041159,8.4809160,-27.1221371,12.2595415,19.6126022,9.3062143,-12.2726154,-98.4732819,-19.7404575,-53.8396950
2570,6.1674318,-4.4148855,6.6007805,7.6870227,-23.6641216,13.3893127,19.6126022,7.9343438,-10.3500814,-142.3893127,-45.1832047,-106.0457993
2580,6.0572991,-4.3167233,6.1985564,2.7786260,-14.7404585,14.4656487,18.6986198,7.3166428,-7.9415264,-171.9389343,-55.2290077,-146.2748108
2590,5.9423780,-4.1682839,6.3565731,-2.0381680,-5.9160304,14.7328243,16.3810444,7.2759418,-4.7788019,-191.1603088,-31.6946564,-181.5267181
2600,5.4108682,-4.8218975,6.3781209,-4.1221375,-2.8854961,17.5038166,13.9796724,6.4547348,-2.3965836,-195.8091583,-4.7404580,-209.2290039
2610,4.7069764,-5.5066357,6.1243367,-7.5267177,-2.1145039,24.2366409,11.6956158,5.4874821,-0.8643024,-189.2213745,10.8320608,-233.0610657
2620,4.2784166,-5.5617023,6.1913738,-11.7862597,0.4198473,32.8015251,9.6054878,4.8242917,0.0981618,-179.8320618,24.8015270,-250.1374054
2630,4.0126615,-5.2959471,6.7611909,-12.6717558,3.2213740,42.6564903,7.9439206,3.7253587,3.2824337,-167.8625946,24.3206100,-250.1374054
2640,3.9504125,-5.6454988,7.7092900,-8.3206110,3.5190840,50.9312973,4.1946201,3.0047078,1.9656296,-157.2442780,44.6183205,-250.1374054
2650,3.5960727,-5.7197185,8.2168579,-1.8320611,2.6335878,60.2977104,1.4604555,2.3032103,2.5402350,-152.1832123,54.0076332,-250.1374054
2660,3.6008608,-5.7436604,8.2503767,4.7557254,5.5877862,72.7633591,-3.5481887,1.9392935,3.7732425,-150.4656525,78.1755753,-250.1374054
2670,3.8690102,-6.0094156,7.8577299,7.5267177,16.3206100,85.9083939,-10.9031391,2.8849983,5.4515696,-149.3740387,100.8702316,-250.1374054
2680,4.4124913,-5.7269011,7.0604649,3.2519083,27.9312973,95.7557220,-19.2828026,4.0701222,8.6502066,-141.6412201,110.1832047,-232.0839691
2690,4.8482337,-5.4012914,6.6773944,-3.6488550,42.2290077,97.9847336,-19.6131992,5.2552457,11.8943329,-120.0610657,92.0457993,-141.2824402
2700,5.3007355,-5.5066357,6.3924856,-12.7557249,54.2137413,100.5190811,-19.6131992,5.8537931,14.8870697,-82.4656525,53.2748108,-32.3740463
2710,5.3869262,-5.3629842,6.2799587,-19.8473282,57.5190849,96.6259537,-19.6131992,5.9351954,16.6324348,-34.0916023,31.1679382,65.3358765
2720,5.6550756,-5.0230093,6.8138633,-23.9694653,53.3664131,93.7862625,-19.6131992,5.3510137,17.6475697,23.9847336,32.8702278,145.9007568
2730,6.1243367,-4.7835903,7.2927012,-21.7251911,46.1374054,83.8396912,-19.6131992,4.6902170,17.4536419,87.8778610,40.1526718,204.7862549
2740,6.0165982,-5.1666608,7.6949248,-16.2137413,37.0610695,74.5725174,-16.3834381,4.4172797,15.6077213,146.9465637,38.7709923,243.8396912
2750,6.0956063,-5.4108682,7.7116842,-9.0763359,26.9083977,66.9618301,-12.2582502,4.1251884,13.1081877,191.7633514,26.6106873,250.1297760
2760,6.3302369,-5.2073622,7.5560617,-3.9160306,18.5572510,58.4503822,-8.9135675,4.0102673,9.9095497,218.7480927,-1.1145039,250.1297760
2770,6.5026188,-5.0230093,7.3860745,-1.9083970,16.0763359,48.8778610,-6.1243367,4.0461802,6.5600791,228.4809113,-36.3664131,250.1297760
2780,6.5816269,-5.0756817,7.3070664,-0.6259542,17.2061062,40.0458031,-3.5984666,4.1754665,2.8849983,221.8396912,-74.8320618,249.1832123
2790,6.6390872,-5.1618724,7.2328463,0.1908397,18.4198475,30.0076332,-1.8554969,4.5896611,0.0837966,201.7557220,-115.9618301,239.8320618
2800,6.4978304,-5.1546898,7.2089043,1.9007634,17.8549614,19.5877857,-0.2944853,4.9966736,-2.1236460,175.0686951,-152.1832123,232.7786255
2810,6.4188218,-5.2384863,7.2376347,4.7404580,17.2213745,10.4809160,0.9935886,4.9894910,-3.3877780,153.1374054,-174.8625946,238.2748108
2820,6.1674318,-5.3007355,7.1155310,7.5419846,14.7938929,1.6870229,2.4085546,4.4627690,-4.3286943,147.0610657,-165.7099304,250.1297760
2830,5.9878678,-5.3629842,6.7085190,8.6488552,10.9160309,-5.4427481,5.4970589,3.5170643,-5.8944945,159.9160309,-124.5038147,250.1297760
2840,5.7197185,-5.4443870,6.5720501,7.5877862,7.9389315,-11.9694653,9.5121145,2.4157372,-8.2455883,182.3740387,-59.2137413,250.1297760
2850,5.4731169,-5.5545197,6.5385313,6.2137403,6.0916033,-17.2824421,14.6261034,2.2768741,-11.3340931,196.6564941,25.5801525,250.1297760
2860,5.2456689,-5.6239510,6.5888095,5.6641221,1.3511450,-21.4732819,18.3586445,3.2441268,-13.6708221,185.7099304,95.1526718,250.1297760
2870,5.0948353,-5.6957769,6.5576849,6.3740458,-3.5343511,-25.4809170,19.6126022,4.2089849,-15.3874559,141.9923706,109.3129807,230.3969421
2880,4.8769641,-5.7532372,6.3446021,5.1832061,-5.7633586,-28.2595425,19.6126022,4.6040263,-16.8718529,69.1603088,65.0229034,178.5572510
2890,4.5800843,-5.6742291,6.2033448,2.0458016,-6.9312978,-29.9236641,19.6126022,4.5010762,-15.4568872,-11.2748089,10.3129768,110.7786255
2900,4.2401094,-5.5736732,6.0908179,-1.7709924,-9.3969469,-30.3129768,19.6126022,4.7357068,-12.2199430,-70.0610657,-25.1603050,36.7786255
2910,4.1395535,-5.6622581,6.1171541,-5.4198475,-11.9389315,-29.0534344,19.6126022,4.7668314,-8.5903521,-99.5648880,-33.7099228,-34.1755714
2920,4.1180058,-5.6263452,6.1219425,-9.6641226,-12.1221371,-28.1450386,19.6126022,4.7548604,-5.3486195,-107.5267181,-18.5572510,-95.9618301
2930,4.1227942,-5.6622581,6.4403696,-14.7557249,-12.0916033,-27.0381680,19.6126022,4.8745699,-3.2082138,-103.3129807,7.3435116,-142.8396912
2940,4.0461802,-5.8490047,6.9144192,-17.0152664,-9.6030531,-24.9083977,17.4536419,4.7548604,-2.2002602,-93.8931274,38.8091621,-175.5801544
2950,4.1180058,-5.9232249,7.4124107,-17.9847336,-5.7175574,-22.2519093,14.6117382,4.5872669,-1.7477583,-80.5038147,74.6946564,-199.7175598
2960,4.1850433,-6.1147599,8.0348997,-16.2442741,-2.4351146,-19.4503822,12.2151546,4.4460096,-1.2258250,-64.5038147,106.7328262,-216.3435059
2970,4.1970143,-6.1817970,8.0492649,-12.5038166,1.2977099,-16.5038166,10.0244713,4.5729017,-0.7876883,-48.7709923,127.1526718,-232.5954132
2980,4.4675574,-5.9256191,8.0516596,-8.0305347,4.4580154,-14.6564884,8.2671366,4.4005203,-0.6631905,-35.9618340,136.4351196,-250.1374054
2990,4.5441718,-5.7795734,8.0133524,-3.8167939,7.1526718,-14.9847326,6.1770086,4.2041965,-0.7110743,-27.4274807,142.1374054,-250.1374054
3000,4.5872669,-5.7556314,7.7260494,0.0610687,9.6717558,-15.8931293,3.8953462,4.2688398,-0.8355721,-23.2519093,147.9007568,-250.1374054
3010,4.6207857,-5.7221127,7.4722652,2.5114503,10.2290077,-16.6106873,0.8786675,4.4843168,-0.4596844,-20.9694653,149.3435059,-250.1374054
3020,4.5705075,-5.6742291,7.1227136,2.2442749,8.7862597,-17.7022896,-3.7445123,5.1786318,0.2250538,-18.2824421,138.9618378,-250.1374054
3030,4.5824785,-5.5473371,6.8210459,0.5877863,7.9923663,-18.8702297,-8.3988171,6.2727766,0.8259954,-16.6564884,122.7022934,-250.1374054
3040,4.5681133,-5.4467812,6.7851329,-1.8320611,8.4427481,-20.1297703,-13.2087431,7.5512733,1.8076130,-17.7175579,109.9160309,-250.1374054
3050,4.4340386,-5.3845320,6.7611909,-3.9847329,8.9541988,-21.1679382,-18.6387653,8.8441362,2.8227494,-15.9618320,90.1374054,-191.3816833
3060,4.3813667,-5.5042415,6.7468257,-5.7328243,9.2366409,-21.0687027,-19.6131992,11.1281929,4.0413918,-13.3358774,61.5114517,-105.1145020
3070,4.3478479,-5.5210009,6.8258343,-7.1908398,10.6335878,-19.7251911,-19.6131992,11.7961712,5.2480631,-2.0152671,50.6793900,-27.9465656
3080,4.0892754,-5.5210009,7.0939832,-8.1526718,10.5114508,-17.7862587,-19.6131992,11.6668854,4.7500720,19.0534344,22.0916023,51.9923668
3090,4.0581512,-5.6694407,7.1610208,-6.4045801,8.5038166,-14.9160309,-19.6131992,11.8368731,4.2832050,40.1984749,-2.1068702,121.5190811
3100,4.0868812,-5.6574697,7.0580707,-4.7022901,6.5114503,-11.5572519,-17.8271351,11.2694502,3.5697365,57.5496178,-19.0610695,167.5572510
3110,4.0605454,-5.6311336,7.0868006,-3.0916030,5.6259542,-8.3206110,-12.5814657,10.6709023,2.7341642,71.2290039,-48.2213745,187.8778687
3120,4.1826491,-5.5305777,7.0293403,-2.6488550,4.7099237,-5.4351144,-7.7021074,10.6062593,0.9241571,76.4427490,-94.3435135,183.7786255
3130,4.2927818,-5.5617023,7.0508881,-1.9770992,4.0381680,-3.2137403,-3.4643922,10.4195127,-1.3072275,66.0457993,-138.2519073,161.4274750
3140,4.3837609,-5.5281835,7.0293403,-2.0839694,4.8702292,-1.3893130,-0.7900825,9.9215212,-3.6200144,35.2824440,-163.8625946,133.8778687
3150,4.5465660,-5.5257893,7.1370788,-3.1984732,7.1221375,-0.7862595,0.2274480,9.3564920,-5.3701668,-11.1221371,-184.2900696,117.2137375
3160,4.5322008,-5.6191626,7.1298962,-3.2900763,8.3435116,-0.6870229,0.5578461,9.1984758,-4.9344244,-54.2595406,-217.9923706,112.1374054
3170,4.5896611,-5.6095858,7.3477674,-2.5496182,6.5343513,-0.3587786,1.2737088,8.8585014,-3.5098817,-79.0305328,-250.1374054,115.3664093
3180,4.7237358,-5.6502872,7.4052281,-0.8854962,4.1679387,-0.8091603,1.7788827,8.3078375,-2.7365584,-84.8854980,-250.1374054,128.7557220
3190,4.7021880,-5.6024032,7.3022780,-0.1068702,3.6488550,-0.9923664,2.7413468,7.6398587,-3.0597742,-73.0076370,-250.1374054,158.7175598
3200,4.7620430,-5.6143742,7.2424231,0.9236641,2.5267177,-1.9389313,4.3957319,6.8928714,-4.0150557,-46.4122124,-250.1374054,194.7633514
3210,4.7357068,-5.5449429,7.1634150,1.4122137,1.1145039,-2.8473282,8.6095057,5.5473371,-5.9567432,-8.3587790,-209.9923706,228.0915985
3220,4.7285242,-5.5257893,7.0580707,2.1450381,-0.1984733,-3.8320611,14.5997677,4.0916696,-8.2862902,27.3053436,-116.0610657,240.1297760
3230,4.6878228,-5.4012914,6.9311786,2.3129771,-1.5877863,-4.6106873,19.6126022,4.1491303,-10.3165627,44.3206100,-7.7938933,222.9618378
3240,4.6447277,-5.4036856,6.9120250,1.9465649,-3.4274809,-5.5648856,19.6126022,4.3909435,-12.0379848,33.0152664,54.9694672,182.3435059
3250,4.5920553,-5.4252334,6.9407554,1.5496184,-5.5496182,-5.9694657,19.6126022,4.3789725,-13.6588507,-12.2824430,67.5343475,121.5419846
3260,4.6830344,-5.4707227,7.0221577,1.6412214,-5.8854961,-5.5648856,19.6126022,4.1874375,-13.1393118,-79.6106873,45.2748108,47.6106873
3270,4.6495161,-5.4922705,7.0460997,0.8320611,-3.3969467,-4.9160304,19.6126022,3.9097114,-10.2160063,-138.8778687,13.6793890,-30.6259537
3280,4.6471219,-5.5664907,7.1131368,0.2442748,-1.6870229,-4.2671757,19.6126022,3.4189026,-6.5050125,-172.3435059,-3.9847329,-100.1450348
3290,4.6207857,-5.4994531,7.1298962,0.8931298,-2.7862597,-3.7251909,19.6126022,3.1603301,-3.5122759,-182.9313049,4.5725193,-159.2748108
3300,4.6638808,-5.5569139,7.0556765,1.4732825,-3.2290077,-3.5190840,19.6126022,3.2441268,-0.8164186,-175.5038147,40.1526718,-206.0992432
3310,4.6136031,-5.5066357,6.9383612,1.0152671,-3.6335878,-3.7862597,17.0849361,3.0621684,0.7565638,-155.8473358,86.6641235,-244.7251892
3320,4.5393834,-5.3773494,6.9862447,0.5114504,-3.0229008,-3.5648854,14.0131912,2.8419030,1.4580613,-132.7175598,122.2900772,-250.1374054
3330,4.5178356,-5.4826937,6.8904772,-0.6259542,-2.8167939,-3.6870229,10.7954006,2.4755919,1.6615674,-112.3282471,146.0305328,-250.1374054
3340,4.4484038,-5.4324160,6.9479380,-0.9160305,-3.9236641,-2.7862597,6.9024482,2.1858950,1.9847831,-94.6717529,156.4198456,-250.1374054
3350,4.5465660,-5.4587522,6.8521700,-2.3664122,-4.6564884,-2.2061069,1.8291607,1.9704180,2.1739240,-79.9618301,160.3511505,-250.1374054
3360,4.4268565,-5.5233951,7.0101867,-2.8091602,-5.1832061,-1.3511450,-4.1275826,2.6168492,2.4803803,-66.7786255,168.7480927,-250.1374054
3370,4.4867110,-5.4539638,7.0652533,-2.3358779,-6.5343513,0.0992366,-11.9565821,4.1515245,3.0597742,-53.2213745,175.0610657,-250.1374054
3380,4.5896611,-5.4204450,7.1418672,-2.0305343,-7.4122138,1.0992366,-19.6131992,6.3972740,3.7947903,-44.5190849,164.5038147,-241.5267181
3390,4.6782460,-5.4108682,7.0604649,-1.7328244,-6.9312978,1.9541985,-19.6131992,8.6789370,5.2815819,-41.6870232,150.6030579,-139.5877838
3400,4.6519103,-5.4228392,7.0772243,-1.3511450,-6.8244276,2.7328243,-19.6131992,9.9406748,7.6829538,-37.3664131,142.4122162,-28.2595425
3410,4.7189474,-5.3917146,7.0700417,-1.4656489,-5.6717558,3.2442749,-19.6131992,10.0771437,10.1465750,-21.9847336,139.7404633,69.9389343
3420,4.8578105,-5.3294659,7.0484939,-1.7938931,-4.8091602,3.1450381,-19.6131992,9.5456333,12.0954447,9.7786255,125.7328262,150.7938995
3430,4.8554163,-5.4084740,7.0173693,-2.5496182,-3.3435113,2.9007633,-19.6131992,8.5711985,12.7035694,50.2671738,100.4580154,212.0992432
3440,4.8554163,-5.4372044,6.9694853,-2.7251909,-1.9160305,2.7709923,-17.5446205,7.8361821,11.8464499,87.9618301,75.9618301,250.1297760
3450,4.8266859,-5.4755111,6.9718795,-2.5725191,-2.9007633,2.7175572,-13.2638092,7.1346846,10.2878323,115.4274826,53.7328262,250.1297760
3460,4.9823084,-5.4850879,7.0077925,-2.5267177,-2.9312978,2.5038168,-9.7060442,6.5121951,8.1210909,130.2595367,28.9007626,250.1297760
3470,4.9559722,-5.5186067,6.8713236,-3.0076337,-1.8549619,2.3206108,-6.8569584,6.2847471,5.5497313,133.4122162,-6.5572519,250.1297760
3480,4.9224534,-5.4467812,6.9024482,-3.4732823,-2.1068702,1.8015267,-4.4675574,5.9567432,2.7341642,125.0763321,-51.7022896,250.1297760
3490,4.9990678,-5.4611464,7.0125809,-3.3358779,-3.0763359,1.5343511,-2.7940190,5.9232249,-0.8355721,101.8244247,-104.2671738,250.1297760
3500,5.0349803,-5.4779053,7.0676475,-3.0305343,-4.5190840,0.9770992,-2.0159075,5.7053533,-3.6631098,68.0992355,-158.1755676,250.1297760
3510,5.1977854,-5.4779053,7.1251078,-2.0916030,-5.6717558,0.0992366,-1.3431402,5.1307478,-5.2911587,32.6335869,-212.2061005,250.1297760
3520,5.3246775,-5.4395986,7.0006099,-1.0687023,-5.8854961,-1.6488550,0.9792235,4.1563129,-5.8753409,8.9083967,-250.1374054,250.1297760
3530,5.2217274,-5.3893204,6.9575148,-1.0152671,-6.0916033,-3.2824428,5.2241216,2.6934631,-5.9447722,2.3816793,-250.1374054,250.1297760
3540,5.2289100,-5.3701668,6.7228842,-1.9923664,-5.8549619,-5.1221375,12.4042959,0.6512195,-7.4866304,9.8015270,-250.1374054,250.1297760
3550,5.1020179,-5.4252334,6.7947097,-3.1908398,-5.3740458,-6.8320613,19.6126022,0.1005560,-9.3900108,27.5496178,-221.4885559,250.1297760
3560,4.9463954,-5.4898763,6.8952656,-3.3587787,-5.0152674,-7.6870227,19.6126022,0.8690908,-11.6166077,42.6793900,-109.5267181,238.5954132
3570,4.7596488,-5.4587522,7.0053983,-3.3740458,-5.1221375,-7.5190840,19.6126022,2.4995339,-13.5774488,26.3206100,-24.4351139,174.0076294
3580,4.7692256,-5.4587522,6.9646969,-2.8015268,-4.6564884,-5.7099237,19.6126022,2.6383967,-14.2238798,-24.2442741,6.1450381,103.1603088
3590,4.7428894,-5.5880380,6.9479380,-3.0916030,-2.2595420,-3.7328243,19.6126022,2.1427996,-12.5766773,-84.0152664,-6.9618320,20.3129768
3600,4.7237358,-5.5473371,6.8952656,-3.6946564,-0.1755725,-2.3511450,19.6126022,2.0183017,-9.3181858,-128.5572510,-35.2824440,-59.9771004
3610,4.7237358,-5.4611464,7.0868006,-3.9694657,0.3129771,-1.1984733,19.6126022,2.0206959,-6.2608056,-151.7328186,-45.5801544,-123.6793900
3620,4.8338685,-5.5162125,7.0891948,-2.7786260,-0.2290076,-0.8854962,19.6126022,2.3846128,-3.5338237,-155.6030579,-23.9694653,-171.3435059
3630,4.9679432,-5.4874821,7.0245519,-2.2519083,-0.2977099,-1.4809160,18.2006283,2.9113343,-1.5849534,-142.5877838,14.8396950,-203.4198456
3640,5.0038562,-5.5856438,6.9383612,-2.7022901,-1.0610687,-2.6488550,15.3371773,3.5673423,-0.6799498,-122.7480927,51.4656487,-225.1832123
3650,4.9440012,-5.6143742,6.9120250,-3.6030533,-1.5114504,-4.2213740,12.8615856,3.9599893,-0.4453192,-103.3740463,77.9694672,-244.6793823
3660,4.8913293,-5.5952206,6.9287844,-3.9236641,-0.9694657,-5.3587785,10.4051476,4.2305326,-0.8547257,-91.1832047,91.7709961,-250.1374054
3670,4.7740140,-5.7221127,7.0484939,-3.5954199,-0.5572519,-5.9694657,8.0732069,4.6638808,-1.4197544,-88.8244247,90.6870193,-250.1374054
3680,4.6279683,-5.7101417,6.9024482,-3.2366412,0.0381679,-5.6412215,5.7101417,4.9727316,-1.9871773,-96.3587799,80.1603088,-250.1374054
3690,4.5561423,-5.6981707,6.8138633,-3.9465649,0.8320611,-4.2671757,3.5505829,5.2265158,-2.4803803,-112.1832047,69.6259537,-250.1374054
3700,4.3957319,-5.6718349,6.9024482,-4.3969464,0.9312977,-2.1603053,1.2928623,5.1906028,-2.4157372,-134.7633514,57.3358765,-250.1374054
3710,4.4819226,-5.6478930,6.9383612,-3.8549619,0.1755725,0.2061069,-1.0462608,5.0086441,-1.9488702,-160.4045868,42.5419846,-250.1374054
3720,4.4723458,-5.6407104,6.9670911,-2.9236641,-1.2824427,2.8091602,-3.7109938,4.5274124,-0.3208214,-185.0610657,30.8167934,-250.1374054
3730,4.5848727,-5.5233951,6.8904772,-2.1832061,-2.2595420,4.7862597,-8.6310530,4.4699516,3.1004753,-201.6488495,41.9160309,-250.1374054
3740,4.7285242,-5.4443870,6.8952656,-2.6412213,-1.0305344,6.9312978,-14.3962612,5.5617023,7.6685886,-198.9923706,75.7786255,-246.1450348
3750,4.8027439,-5.3414369,6.8354111,-3.6183207,1.1908396,8.3511448,-19.6131992,7.0317345,12.9190464,-170.1297760,108.3816757,-168.5725250
3760,4.8602047,-5.2743993,6.9168134,-4.3282442,2.6946564,9.0916033,-19.6131992,8.1929159,17.6092644,-115.6564865,115.9236679,-72.7251892
3770,4.8721757,-5.2887645,6.9934273,-3.2213740,1.1679389,9.4198475,-19.6131992,8.0947542,19.6126022,-45.7633591,104.3511429,21.9236641
3780,4.8386569,-5.3893204,6.9646969,-2.2442749,0.9541985,9.9236641,-19.6131992,7.7691450,19.6126022,28.6106873,84.0839691,105.3511429
3790,4.8554163,-5.5090299,6.8617468,-2.2213740,3.3587787,11.2748089,-19.1152077,7.0963774,19.6126022,102.6793900,66.5038147,172.0229034
3800,4.6566987,-5.8178802,6.7827387,-3.2977099,7.2977099,13.8778629,-15.6891232,6.4738884,17.7768574,166.3587799,58.1755714,221.0152740
3810,4.1994085,-5.9663200,6.4260044,-6.0534353,14.0916033,18.8473282,-12.6508970,6.0884237,14.7290535,213.8473358,51.6717567,250.1297760
3820,3.5601597,-6.0022330,6.3134775,-11.0992365,25.0305347,26.8396950,-9.3684635,5.6167684,10.7259684,240.9923706,37.8244286,250.1297760
3830,3.8163381,-5.7819676,6.5241661,-14.5496187,34.7786255,34.0458031,-6.3661499,5.2336984,7.1777802,247.6564941,17.5572510,250.1297760
3840,3.9504125,-5.8394279,6.4906478,-16.1450386,42.7557259,36.0610695,-4.0150557,5.1163831,3.8953462,236.3435059,-12.0610685,250.1297760
3850,2.7221935,-6.3182659,6.8258343,-18.3358784,49.6870232,40.0076332,-1.9704180,4.7309184,1.2569494,212.8167877,-49.0687027,250.1297760
3860,3.2513094,-7.0963774,6.5361371,-15.6183205,38.3053436,50.6030540,-0.2394189,4.3215117,-0.7302278,186.0763397,-88.5954208,250.1297760
3870,3.5481887,-6.7013364,6.3374195,-13.9389315,18.2595425,52.3740463,1.9273225,3.5601597,-1.9752063,164.5496216,-125.3893127,250.1297760
3880,3.9887197,-6.7085190,6.7085190,-12.8549614,2.9389312,53.7099228,4.6447277,2.4827745,-3.2417326,152.3740387,-155.0305328,250.1297760
3890,1.7190280,-4.1946201,3.6918402,1.4732825,4.3969464,53.6335869,8.3198080,1.5466464,-4.8290801,148.2366486,-153.1374054,250.1297760
3900,4.3071470,-6.3110833,7.1825686,-2.6717558,25.0076332,52.4580154,12.2438850,1.3191984,-6.8378053,151.7099304,-104.0381699,250.1297760
3910,3.7445123,-6.4236102,7.4507174,-11.6030531,27.8931293,50.7099228,15.7944679,1.7740943,-9.0500364,150.7175598,-37.2290077,250.1297760
3920,4.2808108,-5.9663200,7.0700417,-16.0534344,27.4198475,51.1221390,18.7991753,2.5186872,-11.4298601,129.0610657,11.4961834,242.5725250
3930,4.6806402,-6.1027889,9.4929609,-5.0076337,31.4580154,50.4198456,19.6126022,3.0166788,-13.1919842,81.0152664,24.5038166,195.8702240
3940,4.8195033,-6.2009506,9.3636751,11.0763359,41.2519073,47.7022896,19.6126022,2.8203552,-13.4314032,13.9160309,0.1832061,135.4122162
3950,4.8985114,-5.6478930,7.8960366,15.7175570,62.9389305,44.1297722,19.6126022,2.4516499,-11.8536320,-44.3740463,-33.5801544,69.0000000
3960,5.0445571,-4.9128766,7.0101867,7.8015265,83.0152664,37.4198456,19.6126022,2.2265961,-9.2942438,-84.4045792,-53.6106873,3.7251909
3970,5.4563580,-5.2480631,7.6829538,-1.7862595,84.8931274,27.8854961,19.6126022,2.5905130,-7.4579000,-108.8854980,-55.3969460,-53.1984749
3980,5.4419928,-5.4635406,8.4610653,2.4961832,81.7328262,14.7480917,19.6126022,2.4037662,-4.7859845,-116.1755753,-36.4122124,-96.3358765
3990,5.2121506,-5.2743993,8.4706421,11.4732828,71.7328262,2.3816793,18.8207226,2.8730273,-2.8371146,-109.8396912,4.9007635,-127.4656525
4000,5.1618724,-5.2432747,8.6406298,20.0610695,56.6870232,-9.8702288,16.4169579,3.2465210,-1.1731528,-92.6259537,48.2671738,-147.2366486
4010,5.1906028,-5.4563580,8.3126259,27.6335869,53.4656487,-22.5419846,14.5303354,3.6176202,-0.3160330,-70.1526718,86.9847336,-162.1984711
4020,5.0062504,-5.6933827,7.9487090,30.9236641,56.6106873,-34.7022896,12.9429884,3.9982965,-0.0981618,-48.5801544,123.7022934,-173.0686951
4030,4.6854286,-5.8226686,8.0564480,31.1832066,61.5190849,-44.9007645,11.7913828,4.2329268,0.0718257,-29.6030540,149.7709961,-182.7251892
4040,4.0892754,-5.8897061,8.5209198,33.4809151,64.7862625,-52.2213745,10.9629936,4.6112089,0.0119709,-12.6641226,168.2900696,-195.2671814
4050,3.5410061,-6.2057390,8.9997578,39.4503822,61.4961815,-57.0687027,9.8688488,5.0325861,-0.0814024,-0.1450382,177.4198456,-208.6793823
4060,3.1962428,-6.4164276,9.3469152,47.2213745,60.8015251,-57.9771004,8.7675219,5.6167684,-0.6512195,6.4503818,172.5419922,-224.9236603
4070,3.0501974,-6.3398137,9.2942438,52.3511467,72.9312973,-56.4885483,7.6015515,5.5210009,-1.1468167,6.4885497,152.8473358,-244.4503784
4080,2.9735832,-6.0740585,9.1266499,54.1755714,87.3053436,-54.5954208,6.2320752,5.7915444,-1.5921360,-0.1832061,130.7022858,-250.1374054
4090,2.9065459,-5.9495606,9.1553802,55.5725174,98.6946564,-53.3282433,4.6638808,6.1123657,-2.2289903,-11.3893127,115.3435135,-250.1374054
4100,2.7054341,-5.9304070,9.1266499,58.2519073,108.1603088,-51.5801544,2.5186872,6.0740585,-2.6647329,-25.5267181,104.6412201,-250.1374054
4110,2.7197993,-5.6095858,8.8177996,60.7251892,113.5038147,-50.9618340,0.0957676,6.0572991,-1.8914096,-38.1068687,109.0381699,-250.1374054
4120,2.9472473,-4.9679432,8.3102312,60.5801544,118.7862625,-53.0000000,-3.4236910,6.2775645,-0.5027798,-43.4885483,128.7862549,-250.1374054
4130,2.8275378,-4.7620430,7.3214312,57.3358765,131.1755676,-55.8396950,-8.2910776,7.1083484,1.4077834,-38.0763359,156.6183167,-250.1374054
4140,3.0454090,-4.9727316,7.1179252,47.6870232,139.0152740,-56.8091621,-14.5590658,8.5424681,3.3183465,-20.4427490,175.7480927,-204.1984711
4150,3.4500270,-4.9823084,7.3214312,41.5343513,144.5419922,-62.7862587,-19.6131992,10.4602137,4.3478479,0.2595420,174.8549652,-131.0915985
4160,3.3997490,-4.7309184,8.2048874,39.4961815,139.0915985,-72.9083939,-19.6131992,11.3101511,4.4340386,10.8702288,145.2595367,-40.9541969
4170,2.7652888,-4.6495161,8.4754305,41.4732819,134.5877838,-81.9083939,-19.6131992,13.2207146,4.5657191,0.2061069,106.0381699,56.5496178
4180,2.1044924,-4.6926112,8.1593981,44.3282433,133.0686951,-85.8931274,-19.6131992,14.3004932,6.7157016,-13.9770994,83.3893127,126.6335907
4190,1.8818330,-4.8075323,7.7739329,45.0305328,126.2519073,-89.6259537,-19.6131992,12.5982246,8.1905222,-7.6564884,42.0839691,190.0686951
4200,1.4772149,-4.8266859,7.5033898,42.8549614,112.8396912,-94.5801544,-18.6627064,10.5272512,8.4730368,12.5648851,-5.1679387,250.1297760
4210,1.0318956,-4.9104824,7.4507174,38.6183205,103.8015289,-96.4885483,-13.3883076,8.8896255,7.8840661,37.4809151,-21.5343513,250.1297760
4220,0.8930327,-5.0086441,7.4650826,33.8702278,100.9923630,-96.1068726,-8.7483683,7.3166428,6.1051831,58.0534363,-21.0534344,250.1297760
4230,0.6703730,-4.9320302,7.5608501,30.8702297,94.1679382,-97.1374054,-4.6423335,5.9806852,3.8977404,69.5496216,-19.8091602,250.1297760
4240,0.1963235,-4.8865409,7.4986014,28.3816795,87.6030502,-97.5038147,-0.5985473,4.5369892,1.4915800,70.8854980,-24.9160309,250.1297760
4250,-0.3974355,-4.7955613,7.5033898,27.3129768,79.7557220,-95.5343475,2.6886747,3.4619980,-0.2202654,63.0839691,-33.3282433,250.1297760
4260,-0.7158626,-4.6973996,7.4722652,27.3740463,64.6641235,-91.5419846,5.8992829,2.2864509,-1.4987626,50.3053436,-44.1068687,250.1297760
4270,-0.5027798,-4.5848727,7.5201492,24.4427490,50.0839691,-90.0000000,9.4450769,1.3191984,-2.4061604,37.4885483,-59.9007645,250.1297760
4280,-0.3663110,-4.3813667,7.4387465,20.1908398,46.2977104,-91.4122162,13.2638092,0.5841822,-3.0861101,27.4656487,-82.0381699,250.1297760
4290,-0.7014975,-4.5441718,7.2136927,13.6030531,41.5572510,-92.0992355,18.8925495,0.9097920,-4.1682839,21.7251911,-95.0229034,250.1297760
4300,-0.8882443,-4.5585365,7.4722652,7.1679387,28.8625946,-92.3969498,19.6126022,-0.2489957,-5.8873119,9.8244276,-90.8931274,214.2595367
4310,-1.2449785,-4.6973996,7.8960366,5.5343513,8.8091602,-93.0381699,19.6126022,-0.1891410,-6.5840211,-15.7175570,-63.5190849,142.0000000
4320,-1.3958124,-4.8099265,8.2455883,8.9923668,-18.1221371,-93.1603088,19.6126022,-0.3351865,-6.8018923,-47.4809151,-59.7328262,57.4198456
4330,-1.1635761,-4.6758518,8.7244263,12.3358774,-38.0076332,-93.1908417,19.6126022,-0.4046180,-5.8801293,-81.1145020,-83.0839691,-24.2671757
4340,-0.9648584,-4.6543045,9.2200232,13.5114508,-45.3206100,-93.2595444,19.6126022,-0.1077385,-3.6631098,-107.0687027,-104.9007645,-100.4122162
4350,-1.0175306,-4.8458395,9.5911226,13.4122133,-41.9923668,-91.6335907,19.6126022,0.3543400,-1.6232605,-119.4351120,-114.1908417,-161.1984711
4360,-1.0845678,-4.8362627,9.8712435,13.4274807,-30.5572510,-85.8091583,19.6126022,0.7972651,0.3615226,-119.5419846,-101.4427490,-206.0381622
4370,-0.8834559,-4.9583664,10.0555954,13.5572519,-16.9389305,-77.0992355,19.6126022,1.2976507,1.7860653,-107.7709961,-71.2290039,-241.3969421
4380,-0.3734936,-4.7716198,10.0651722,11.9694653,2.5190840,-70.3435135,18.0114880,1.6160779,2.7245877,-89.3206100,-35.0763359,-250.1374054
4390,-0.2705434,-4.5322008,10.0747490,7.9847326,26.3740463,-65.0229034,15.4927998,2.1020982,3.1483591,-67.0687027,3.4122138,-250.1374054
4400,-0.1699875,-4.2305326,10.1585455,6.2213740,49.7022896,-59.6793900,13.1512823,2.5306582,3.1411765,-45.7786255,32.3129768,-250.1374054
4410,0.5386927,-3.9719603,10.0986910,6.6488547,71.9770966,-56.7022896,10.5607700,2.6790979,2.8802099,-28.7633591,47.1984749,-250.1374054
4420,1.1228749,-4.2137733,9.8903971,6.9923663,93.4656525,-58.5114517,8.0157461,2.9568241,2.1164634,-17.3740463,42.2290077,-250.1374054
4430,0.9576758,-4.3239059,9.5073261,9.9389315,105.8396912,-60.6412201,5.0804701,3.0142846,0.6584021,-16.9694653,19.0000000,-250.1374054
4440,0.6703730,-4.2832050,8.7962523,12.1984730,118.1984711,-59.3358765,2.3032103,3.0190730,-1.0965388,-29.8702297,-16.4809170,-250.1374054
4450,0.1675933,-4.1108232,8.1019373,11.6717558,132.1450348,-54.2748108,-1.6280488,2.7820482,-2.2122312,-57.5419846,-54.0000000,-250.1374054
4460,0.1891410,-3.8594334,7.4890246,9.3129768,144.7480927,-48.0763359,-5.8178802,4.2329268,-1.4604555,-85.9083939,-72.3435135,-250.1374054
4470,0.3208214,-3.4691806,7.2759418,7.0534353,150.0000000,-46.9847336,-11.2502966,5.0062504,1.3431402,-101.7633591,-55.1374054,-250.1374054
4480,-0.1699875,-3.5122759,6.7899213,6.3969464,143.9236603,-48.1679382,-19.6131992,6.5361371,5.3055239,-96.3587799,2.0458016,-250.1374054
4490,-0.9552816,-3.7205703,6.2248926,6.8931298,122.3587799,-43.2595406,-19.6131992,9.5169029,9.7084379,-65.7251892,83.3893127,-170.5190887
4500,-1.3982066,-3.4572096,5.7580256,6.9923663,92.9389343,-35.6106873,-19.6131992,11.4514084,12.5575237,-15.2061071,125.5496216,-43.6259537
4510,-1.3239868,-3.1459649,5.5377603,1.7099236,56.1068687,-29.1755733,-19.6131992,11.9996777,12.8927097,44.6259537,116.0152664,86.9542007
4520,-0.9624642,-3.1172347,6.8641410,1.8854961,29.3282452,-23.3587780,-19.6131992,10.5057030,11.1593170,94.4198456,99.9007645,188.1755676
4530,-0.8810617,-2.9400647,8.4251528,14.0229006,6.3053436,-18.2137413,-19.6131992,9.5623922,7.9463148,120.9389343,101.5954208,250.1297760
4540,-1.0749911,-2.6192431,9.0763721,36.0076332,-21.6564884,-13.9160309,-16.1751442,8.4921904,5.0828643,128.1908417,93.3129807,250.1297760
4550,-1.1348459,-2.4324965,8.9399033,60.3893127,-57.1679382,-10.3664122,-11.7913828,7.5201492,3.0262554,122.3893127,62.7175560,250.1297760
4560,-1.0821736,-2.0709739,8.9279327,83.0305328,-95.4427490,-8.0687027,-7.6183109,6.7875271,1.1013272,108.2900772,19.2824421,250.1297760
4570,-1.2856797,-1.8890154,9.2679071,103.2290039,-131.2061005,-4.6870227,-3.6295912,5.9854736,-0.5482694,89.7709961,-24.4885502,250.1297760
4580,-1.2689204,-1.9225341,10.1010857,128.7786255,-162.9541931,1.8396946,-1.1947005,5.5281835,-1.1779412,71.5954208,-55.4503822,250.1297760
4590,-0.4501076,-1.9368993,10.6900558,162.2977142,-196.4198456,14.3206110,1.0462608,4.8386569,-1.5825592,58.7938919,-79.2366409,250.1297760
4600,0.7398046,-1.4748207,11.2024126,196.6412201,-208.7786255,15.9923668,3.1028695,4.1419477,-1.9608412,51.6335869,-90.3893127,250.1297760
4610,2.1523764,-0.9672526,10.9031391,221.4961853,-188.0152740,9.8320608,4.9942794,3.3853838,-2.1787124,48.8702278,-90.8396912,250.1297760
4620,2.4468615,-0.7302278,11.4322548,236.7404633,-151.5419922,0.4885496,7.3812861,2.5234756,-3.3925664,47.2137413,-87.9770966,250.1297760
4630,3.3710186,-0.5434810,10.8001890,242.4961853,-135.0534363,-13.8931293,9.6198530,1.8147956,-4.6758518,40.8473282,-83.0000000,250.1297760
4640,3.9073172,-0.4189832,10.1489687,243.0686951,-101.1297684,-25.8854961,11.8368731,1.1013272,-5.6502872,31.1068707,-73.3053436,250.1297760
4650,4.7069764,0.0718257,10.7882175,235.6564941,-92.7786255,-37.6335869,14.7529955,-0.0143651,-6.4547348,20.4427490,-61.1908379,250.1297760
4660,6.6558466,-0.0143651,11.8440552,237.0534363,-51.1145020,-61.2061081,18.2461185,-0.7661406,-6.9120250,11.6259546,-44.8320618,250.1297760
4670,7.0269461,0.7134684,11.8871508,241.0305328,-33.9389305,-95.1832047,19.6126022,-1.1228749,-7.3908629,1.3053435,-23.2900772,241.7709961
4680,6.0692701,1.2569494,10.4602137,231.0076294,-42.3511467,-131.2366486,19.6126022,-0.9504932,-7.9534974,-17.5190830,-11.8625956,188.9236603
4690,4.0653338,1.0558375,9.7323799,212.9541931,-45.2671738,-157.3435059,19.6126022,-1.0749911,-8.0756006,-47.1679382,-19.3358784,122.9542007
4700,1.2952565,0.7924767,8.9111729,198.0763397,-63.3664131,-165.8320618,19.6126022,-1.3455344,-7.0101867,-78.5267181,-38.6641235,48.7480927
4710,-1.0079538,1.0702027,7.9702568,180.5114441,-90.2671738,-160.6030579,19.6126022,-1.5250987,-4.8697815,-98.9618301,-55.4198456,-25.2290077
4720,-2.4708035,2.6503677,7.9080076,155.6641235,-110.5343475,-137.3969421,19.6126022,-1.4460905,-2.9448531,-109.4045792,-54.6870232,-92.1297684
4730,-2.1715298,4.1299767,8.8561068,128.8396912,-121.9236679,-110.6793900,19.6126022,-1.2018831,-1.3766589,-106.2595444,-37.5954208,-150.0381622
4740,0.1268920,4.7189474,9.4067707,97.3969498,-95.9389343,-91.0763321,19.6126022,-0.7086801,-0.0861908,-95.1832047,-4.7480917,-194.8091583
4750,2.1140692,4.6830344,9.5576038,62.4809151,-33.3511467,-78.8549652,19.6126022,-0.5793939,1.0295014,-76.0610657,35.1832047,-231.7786255
4760,3.0166788,4.4005203,10.0244713,34.1145020,35.0152664,-70.1832047,17.7912216,0.1532281,1.6424140,-49.5419846,68.9618301,-250.1374054
4770,2.8538737,4.2784166,10.1944590,18.8015270,79.7099228,-64.1145020,15.9213600,0.6895266,1.4963684,-27.1068707,95.3053436,-250.1374054
4780,1.8818330,4.4771342,9.7060442,16.5725193,85.9923630,-59.8396950,14.5638542,0.8427547,1.2234308,-11.1297712,108.6030502,-250.1374054
4790,0.9480990,4.7955613,8.4730368,21.2519093,64.4580154,-56.7328262,12.9262285,0.7637464,1.1492109,1.1450381,109.5648880,-250.1374054
4800,0.2059003,4.9248476,7.7116842,26.0687027,30.1679382,-51.5954208,11.2383251,0.8738791,0.8762733,9.2748089,99.9847336,-250.1374054
4810,-0.2154770,4.8003497,9.4283180,35.0534363,0.5190840,-42.4045792,9.4139528,0.6129125,0.2035061,11.6717558,86.4885483,-250.1374054
4820,0.3782819,3.7109938,12.1768475,66.9923630,-33.6412201,-35.5190849,7.2615767,0.2705434,-1.0079538,6.2061067,71.2900772,-250.1374054
4830,0.2011119,3.7373297,10.7068148,99.1755753,-56.6488533,-27.8396950,4.4364328,-0.1077385,-2.0015423,-9.0229006,44.0916023,-250.1374054
4840,0.4836263,4.2736282,8.7076674,103.2366409,-94.1297684,-16.5419846,1.0630201,-0.2178712,-2.9831600,-32.8778610,-2.8167939,-250.1374054
4850,1.9512644,4.8793583,6.7635851,99.1984711,-100.0916061,-9.4732828,-3.2824337,0.0239419,-3.6583214,-66.4961853,-58.8091621,-250.1374054
4860,2.4205256,5.7077475,4.2401094,88.7480927,-85.5496216,-10.2442751,-8.0660238,0.9792235,-3.4811516,-107.0000000,-105.2977066,-250.1374054
4870,2.2098370,6.8258343,3.5290353,73.6870193,-87.5267181,-12.5190840,-13.3787308,2.2744799,-1.4796091,-147.0381622,-126.0152664,-250.1374054
4880,2.5689652,6.7587967,4.6973996,67.1908417,-106.7022934,-16.8091602,-19.6131992,3.5481887,1.8578910,-172.2213745,-98.9847336,-250.1374054
4890,1.6711442,5.9615316,5.3988972,63.0916023,-134.1679382,-18.1603050,-19.6131992,5.2959471,6.6797886,-174.2595367,-17.3511448,-250.1374054
4900,1.3263810,5.5952206,6.5935979,58.8320618,-152.7938995,-13.4198475,-19.6131992,10.4817610,11.4274664,-150.2061005,55.0076332,-154.1526642
4910,1.9704180,5.4994531,8.3174143,60.3129768,-154.6183167,-8.8396950,-19.6131992,11.2862091,14.8631277,-100.0457993,74.0152664,-1.8702290
4920,2.4803803,5.2504573,8.3078375,61.2442741,-147.5343475,-5.8320613,-19.6131992,8.6214762,17.1615505,-29.4885502,72.7175598,147.9160309
4930,2.8275378,6.0740585,8.0995426,54.5725174,-129.2671814,6.6183205,-19.6131992,6.8904772,17.8845959,53.1755714,78.9007645,250.1297760
4940,3.9863255,7.8002691,8.5257082,44.6793900,-87.6870193,28.1908398,-19.6131992,5.3486195,17.1232433,131.9923706,96.1984711,250.1297760
4950,6.3996682,8.5855637,8.8321648,32.3893127,-18.1374054,41.6488533,-15.6651812,3.9815371,15.0379038,196.3053436,105.7862625,250.1297760
4960,8.5640154,7.0221577,8.3940287,33.3053436,24.4427490,24.2290077,-11.2886028,3.5003049,12.2869806,237.4427490,103.7480927,250.1297760
4970,7.5393028,6.5696559,6.9551206,36.2824440,24.4122143,-7.3358779,-7.8361821,3.3590479,8.0588417,247.3435059,96.6106873,250.1297760
4980,5.1642666,6.5696559,4.9200592,31.5801525,9.5954199,-26.2519093,-5.6000090,3.8187323,2.7796540,210.8549652,70.5038147,250.1297760
4990,3.3518653,6.8282285,3.3375001,19.6793900,-3.3587787,-32.4045792,-4.3191175,3.6319854,0.2920911,171.5038147,2.2213740,250.1297760
5000,2.8730273,6.4930420,1.9632354,-0.2442748,-6.8625956,-30.3511448,-2.3702476,3.1579359,-1.4891858,139.7404633,-72.3358765,250.1297760
5010,1.5490406,5.9758968,1.9512644,-24.2977104,4.4809160,-21.8702297,-0.0790083,2.3702476,-2.7317703,114.9236679,-124.3282471,250.1297760
5020,-0.2681492,5.2097564,3.0358322,-46.4122124,22.2137413,-3.7175572,1.5131277,1.7501525,-3.3542595,101.2442780,-155.2213745,250.1297760
5030,-1.2856797,5.5257893,4.2951760,-61.9771004,54.6259537,30.3129768,3.2010312,0.9002152,-4.2209558,98.8854980,-170.1984711,250.1297760
5040,-0.1699875,6.3374195,5.4922705,-75.0076370,78.3893127,69.0229034,6.3469963,-0.1651991,-5.6670465,104.8931274,-152.9313049,250.1297760
5050,2.6886747,7.0580707,6.7755561,-85.7022934,101.1755753,94.4427490,9.4929609,-1.0318956,-7.2998838,110.6183243,-107.5267181,250.1297760
5060,5.5545197,6.5433197,7.6997132,-90.7862625,137.4732819,97.6488571,13.4385853,-1.8076130,-9.1290445,109.8549652,-53.5038185,250.1297760
5070,7.1275020,6.0596933,8.0444765,-89.6717529,169.3282471,85.9160309,17.6571465,-1.7980363,-10.3596573,95.6564865,-13.8778629,250.1297760
5080,7.7308378,6.6917596,7.2232695,-89.6030502,188.0763397,63.5801544,19.6126022,-2.0206959,-11.0156660,74.8320618,9.0916033,250.1297760
5090,6.9431496,7.2065101,7.6302819,-90.4656525,173.8167877,38.6717567,19.6126022,-2.3582766,-12.1696653,41.2137413,21.9541988,250.1297760
5100,5.7819676,6.7971039,8.0516596,-85.3893127,144.0229034,17.2137413,19.6126022,-1.6639616,-12.2414904,-8.3587790,3.1450381,163.9694672
5110,4.7764082,6.2105274,8.1617918,-77.2824402,115.2366409,1.7175573,19.6126022,-1.0534433,-11.0491848,-59.0687027,-44.9618340,68.4351120
5120,4.2832050,5.9375896,7.8289995,-73.0534363,104.0229034,-10.3664122,19.6126022,-0.8307837,-8.9135675,-100.5114517,-97.3816757,-21.4961834
5130,4.0485744,5.7604198,6.9096308,-80.8091583,118.1755753,-20.1526718,19.6126022,-0.2896969,-6.3230543,-124.4198456,-121.0229034,-96.4427490
5140,3.1220231,5.4084740,6.3158717,-95.1832047,136.2824402,-27.9465656,19.6126022,-0.0263361,-4.3813667,-129.8778687,-109.1450348,-153.8702240
5150,1.8171898,4.9104824,6.5816269,-107.0992355,142.3358765,-33.0610695,19.6126022,0.4884146,-2.9185169,-122.2900772,-64.8091583,-196.9465637
5160,0.9528874,4.5992379,6.9431496,-113.4045792,136.2519073,-35.1984749,19.6126022,1.3958124,-1.5873476,-101.4961853,-13.9847326,-225.4503784
5170,0.6057299,4.5393834,7.2591825,-119.3969498,130.1603088,-35.7328262,17.6715126,1.8076130,-0.6991033,-72.6793900,33.3206100,-241.8091583
5180,0.5841822,4.0796990,7.7906923,-124.9847336,126.4961853,-36.5114517,15.9381189,2.2649033,-0.7541697,-46.2824440,75.4427490,-250.1374054
5190,0.6272776,3.7923961,8.8034344,-125.1450348,123.3816757,-40.8473282,14.4728756,2.4468615,-1.0845678,-23.3358784,104.7862625,-250.1374054
5200,0.5602403,3.6583214,9.7563219,-119.2442780,120.0305328,-46.9694672,13.0435438,2.7748656,-1.6472024,-7.4045801,121.6106873,-250.1374054
5210,0.4955972,3.3494711,10.6828737,-111.0229034,120.0916061,-53.4885483,11.5854826,2.7030399,-2.3175755,0.9312977,128.3129730,-250.1374054
5220,0.2418131,3.0382264,11.7554703,-94.9389343,127.1526718,-59.8015251,9.9909525,2.6695213,-3.3566537,0.1679389,122.5648880,-250.1374054
5230,-0.2106887,2.9951310,11.1880474,-87.8244247,127.5114517,-64.7022934,8.2216463,2.4253139,-4.5896611,-11.1832066,104.4809189,-250.1374054
5240,-0.7924767,2.1475880,10.5440102,-78.3435135,143.7328186,-66.4580154,6.2344694,2.2026544,-5.0756817,-29.2977104,77.9847336,-250.1374054
5250,-1.3982066,2.5450234,9.3157911,-70.7251892,142.9923706,-65.8702316,4.1587071,1.9847831,-5.2576399,-50.6030540,43.1526718,-250.1374054
5260,-2.0350611,2.3175755,8.1498213,-70.1908417,136.7862549,-65.9694672,2.1499822,1.8147956,-5.4180508,-76.3358765,2.2671757,-250.1374054
5270,-2.2960277,1.9632354,7.4602942,-75.2748108,130.2519073,-62.6946564,0.0670373,1.5753766,-5.0708933,-107.1450348,-45.1679382,-250.1374054
5280,-2.6647329,1.5394639,7.9175844,-85.5725174,127.5038147,-59.5954208,-2.4253139,1.4508789,-4.3574247,-144.2061005,-97.5954208,-250.1374054
5290,-2.9256995,0.8882443,8.7363977,-91.3740463,124.3587799,-55.4580154,-5.0804701,1.3335636,-2.7365584,-182.2595367,-140.0686951,-250.1374054
5300,-3.2106080,0.3687052,9.4833841,-89.4045792,123.6641235,-49.5954208,-9.3828287,1.5610116,-0.0790083,-209.9160309,-152.1297760,-250.1374054
5310,-3.2513094,-0.1723816,9.4833841,-85.2900772,121.3282471,-42.3893127,-15.7130651,2.4133430,3.7852135,-218.4961853,-107.9160309,-250.1374054
5320,-3.0094962,-0.7517755,9.3349447,-82.0610657,117.5267181,-37.1145020,-19.6131992,4.1658897,8.7124557,-203.7328186,-2.1374047,-250.1374054
5330,-2.6096666,-1.4101776,9.0763721,-80.0229034,110.6870193,-36.7938919,-19.6131992,7.6781654,12.8807392,-165.4961853,102.6793900,-163.3740387
5340,-2.1811066,-2.2026544,8.9973640,-78.4732819,97.2137375,-43.7328262,-19.6131992,10.4410601,16.6467991,-101.3435135,143.7099304,-23.7099228
5350,-3.8139439,-1.9177457,9.6294298,-78.2213745,88.5343475,-50.7099228,-19.6131992,7.8146343,17.9229031,-22.3664131,134.9160309,111.4656525
5360,-5.4060798,-1.4748207,10.3500814,-71.5725174,85.8244247,-43.9923668,-19.6131992,5.3055239,16.2733059,60.3358765,108.1374054,207.5954132
5370,-5.9902620,-1.3790531,10.7116032,-56.7404594,78.1374054,-34.0000000,-19.6131992,4.5896611,13.5247765,128.4351196,104.9160309,250.1297760
5380,-6.0644817,-1.2617378,10.6804790,-40.3053436,68.4580154,-23.8549614,-15.2988710,4.5920553,10.8001890,173.6870270,111.9847336,250.1297760
5390,-4.7907729,0.0023942,8.4059992,4.0763359,-34.8396950,13.0458012,5.1451130,3.1986370,-4.6734576,135.2748108,-106.5954208,250.1297760
5400,-4.5250182,-0.0383070,8.8752604,3.4503818,-32.1221390,16.8244267,7.3429790,2.6934631,-6.0213866,146.5114441,-60.5190849,250.1297760
5410,-4.2377152,0.2059003,8.9710283,3.5496182,-28.8549614,19.7862587,10.1106625,2.5785420,-7.2136927,149.8625946,-24.2061062,250.1297760
5420,-3.4548154,0.6200951,8.8656836,0.4198473,-19.4198475,21.4503822,18.0186691,3.1459649,-10.5104914,81.4580154,-2.4274809,201.2671814
5430,-3.2106080,0.7398046,8.7579451,-1.5190840,-15.9389315,20.2824421,19.6126022,3.5817075,-10.8528605,37.3206100,-34.3587799,144.0763397
5440,-3.0071020,0.8068419,8.9039907,-3.9465649,-10.1450386,17.9465656,19.6126022,4.0725164,-10.2974091,-7.3587785,-79.5725174,79.3206100
5450,-2.9472473,0.7685348,9.0955257,-3.5343511,-7.2137403,14.6030531,19.6126022,4.0054789,-9.1745338,-45.6412201,-121.1908417,16.8320618
5460,-2.9759774,0.6464311,9.1817169,-2.9923663,-5.0610685,10.8167934,19.6126022,4.3191175,-7.7380204,-70.7480927,-143.7022858,-37.2137413
5470,-2.8873925,0.5841822,9.1458035,-3.4503818,-1.0000000,6.4274807,18.2916069,4.5752959,-6.3924856,-86.2442780,-143.2366486,-81.2748108
5480,-2.9352763,0.5889706,9.1170731,-3.9847329,1.8473282,2.7251909,16.4624462,4.3215117,-5.2336984,-90.4961853,-130.6030579,-115.5267181
5490,-3.2728570,0.4932030,9.0332766,-3.8931298,1.3206106,-0.4045801,14.8152447,4.4460096,-4.8051381,-87.8854980,-107.5267181,-141.9236603
5500,-3.5577655,0.3806761,8.8800488,-5.2290077,1.0992366,-1.1374046,13.1345234,4.9918852,-4.7859845,-80.3206100,-82.5725174,-158.4351196
5510,-3.7660601,0.2513899,8.8106174,-6.2290077,0.6870229,-0.6412213,11.8296900,5.4132624,-4.8721757,-73.1755753,-57.0534363,-167.9847260
5520,-3.8378856,0.2537841,8.7818871,-7.3740458,-1.0152671,-0.1450382,11.1186161,5.6694407,-5.1786318,-69.8931274,-38.0763359,-177.6106873
5530,-3.7780309,0.1436514,8.7842808,-8.6488552,0.1297710,-0.0610687,10.6517487,5.6000090,-5.3749552,-70.8854980,-29.2442741,-190.7786255
5540,-3.7564833,0.0502780,9.1027079,-10.1755724,2.8167939,0.3664122,9.8688488,5.8561873,-5.2528515,-75.1221390,-24.7175579,-207.3664093
5550,-3.7062054,0.0430954,9.0117292,-9.7557249,2.9923663,0.0687023,8.9015961,5.7029591,-5.3917146,-82.7633591,-26.9694653,-223.1679382
5560,-3.6726866,0.0837966,9.2224178,-7.2595420,0.3053435,-1.1908396,8.0420828,5.6191626,-5.2743993,-93.8244247,-32.4503822,-239.1603088
5570,-3.6319854,0.0335187,9.3086090,-4.7022901,-0.7251908,-2.4580152,7.2328463,5.6359220,-4.9918852,-107.3435135,-38.9541969,-250.1374054
5580,-3.7205703,0.1939293,9.2056589,-3.0305343,-0.4503817,-3.8320611,6.0884237,5.3725610,-4.4412212,-120.8625946,-48.8702278,-250.1374054
5590,-3.9025288,0.1053443,9.0213060,-1.6030535,-1.4656489,-4.4580154,4.6950054,5.0086441,-3.8714044,-133.5343475,-60.6488533,-250.1374054
5600,-3.8283088,0.1628049,8.8273764,-1.7938931,-1.8931298,-5.0076337,3.2537034,4.9918852,-3.5050933,-145.5114441,-71.8778610,-250.1374054
5610,-3.7588775,0.2609667,8.5759869,-3.1832061,-1.9236641,-5.4732823,1.8411317,4.8937230,-3.0118904,-157.7175598,-81.8091583,-250.1374054
5620,-3.9911139,0.1651991,8.5041609,-5.9465647,-2.3664122,-5.3053436,0.5793939,4.9583664,-2.4229198,-169.4885559,-90.3129807,-250.1374054
5630,-4.0749106,0.1005560,8.6789370,-7.7633586,-4.3664122,-4.5648856,-0.4692611,5.1762376,-1.3742647,-180.3129730,-96.3969498,-250.1374054
5640,-4.1634955,0.1197095,8.8321648,-8.3358774,-5.4045801,-2.9618320,-1.3910241,5.1451130,-0.2346306,-188.6106873,-102.3740463,-250.1374054
5650,-4.2496862,0.0095768,8.8225880,-9.1450386,-5.5725193,-0.6259542,-2.0949159,5.0277977,1.1492109,-193.4503784,-108.0839691,-250.1374054
5660,-4.1443419,0.0646431,8.8561068,-10.3740454,-1.5343511,2.0458016,-2.7605004,5.1092005,2.4731977,-193.7022858,-114.2900772,-250.1374054
5670,-4.1778607,0.1077385,8.8920193,-11.4351149,2.3664122,4.6793895,-3.4260850,4.9799142,3.4452386,-190.5190887,-122.4274826,-250.1374054
5680,-4.1826491,0.1412572,8.9973640,-10.1603050,1.2061069,6.5038166,-3.9121056,4.6902170,3.9097114,-185.9694672,-132.1755676,-250.1374054
5690,-4.1706781,0.1005560,9.0308828,-7.9770994,-2.8091602,8.2671757,-4.5944495,4.5178356,4.4795284,-181.9770966,-135.4427490,-250.1374054
5700,-4.0389977,0.0933734,9.2104464,-5.5648856,-5.2137403,9.8473282,-5.1810260,4.4795284,5.2169390,-178.0915985,-134.8167877,-250.1374054
5710,-4.0653338,0.0981618,9.2152348,-3.1832061,-8.0381680,10.8702288,-6.1219425,4.0413918,5.8657641,-172.8931274,-128.1984711,-250.1374054
5720,-4.0102673,0.1268920,8.9925756,-1.6717557,-12.2671757,12.0000000,-9.0524302,4.0916696,6.9120250,-167.3206177,-97.9160309,-248.3129730
5730,-4.0533628,-0.1029501,8.9183559,-1.6717557,-16.6870232,12.8625956,-12.4617558,4.7357068,8.4586716,-157.6030579,-34.4809151,-214.3358765
5740,-3.8354914,0.0143651,8.8130112,-2.8244274,-18.2900772,13.4732828,-16.2852764,5.8035154,10.2830439,-137.0534363,31.7862587,-159.6870270
5750,-3.4763632,0.0861908,8.9015961,-4.8931298,-16.5267181,12.8549614,-19.2373123,6.1985564,12.3803539,-105.0381699,88.5114517,-81.7022934
5760,-3.2848279,-0.0383070,9.1266499,-5.9847326,-10.9083967,12.1755724,-19.3043499,6.7827387,14.5231533,-62.5572510,137.3206177,-4.4503818
5770,-3.2130022,0.0239419,9.2679071,-6.3511453,-5.8167939,10.8549614,-19.6131992,4.7931671,14.8367920,-9.4809160,150.9236603,52.3282433
5780,-3.1986370,0.0622489,9.2224178,-5.4580154,-2.9389312,8.8778629,-19.5365868,3.1675127,14.8870697,51.3129768,128.4656525,103.5877838
5790,-3.2680686,0.0454896,9.2583303,-5.1221375,-0.0992366,6.8473282,-17.0753593,2.8634505,14.2143030,113.9542007,95.4809189,142.0534363
5800,-3.1148405,0.0502780,9.2942438,-5.9236641,6.4351144,5.2519083,-13.8958759,3.6774750,12.4402084,168.7328186,89.2748108,165.5419922
5810,-3.3087699,0.0526722,9.2583303,-6.0610685,10.6183205,4.4809160,-11.7913828,4.3765783,10.3213511,210.4427490,99.4198456,181.4580078
5820,-3.4643922,0.0790083,9.1362267,-4.8931298,11.5801525,4.1221375,-10.8049774,4.7548604,7.8792777,237.1908417,124.1908417,198.7328186
5830,-3.6415622,0.1101327,9.0260944,-3.8625953,10.2748089,4.2213740,-10.5080976,5.2600341,5.7867560,249.6564941,148.5648804,220.0458069
5840,-3.7373297,0.1316804,8.9375095,-3.8015268,7.9160304,4.9007635,-10.0603838,5.7221127,3.9504125,250.1297760,153.7022858,243.1603088
5850,-3.6032550,0.0790083,8.9375095,-4.5877862,6.5954199,4.9923663,-9.3469152,6.0525107,2.1787124,244.4198456,139.5343475,250.1297760
5860,-3.7038112,0.0909792,8.9207497,-5.5877862,6.0610685,4.9618320,-7.5297260,6.5002246,0.6296718,232.7557220,113.8625946,250.1297760
5870,-3.6271970,0.0766141,8.8297710,-6.4351144,4.1603055,4.5496182,-5.6024032,6.9359670,-0.7469871,216.8015289,88.0381699,250.1297760
5880,-3.5194585,0.0694315,8.8082228,-7.6641221,3.4274809,3.1679389,-3.5170643,7.1538382,-2.0925217,197.1984711,64.7099228,250.1297760
5890,-3.5769191,-0.0407012,8.8632889,-8.4045801,4.0534353,2.1297710,-1.5107336,7.3573442,-4.0461802,173.9541931,44.6564903,250.1297760
5900,-3.6487448,-0.0574605,8.9518747,-9.1297712,3.8931298,1.7175573,-0.0909792,7.2352405,-5.4491754,148.6564941,28.7633591,250.1297760
5910,-3.5984666,0.0383070,9.1601686,-8.6183205,3.4427481,1.1068702,1.5969244,7.3477674,-6.3493905,126.1984711,19.3435116,250.1297760
5920,-3.7014170,-0.2346306,9.3469152,-6.1145039,1.2977099,1.1908396,2.4324965,6.8234401,-6.7516141,108.3435135,14.6412210,250.1297760
5930,-3.7469065,-0.0598547,9.5360565,-3.8625953,1.2366412,1.0687023,3.6607156,6.2488346,-7.0604649,94.6564865,10.7404585,250.1297760
5940,-3.8618276,0.0119709,9.3157911,-0.6870229,1.2061069,1.2519084,5.2193332,5.9735026,-7.5919747,82.6793900,8.2213745,250.1297760
5950,-3.9863255,0.0718257,8.9183559,0.5419847,-0.9923664,1.2290076,7.3094602,5.8130918,-8.0732069,69.5190811,7.2213740,250.1297760
5960,-3.8594334,-0.0718257,8.3605099,-2.2137403,-6.3893127,2.1679389,13.2805691,5.4946647,-9.5240860,34.9236641,-4.2213740,203.0305328
5970,-3.8283088,0.0694315,8.5831690,-6.6335878,-5.3129773,2.0229008,15.6508169,5.2648225,-10.1848822,11.0687027,-5.1145039,154.7404633
5980,-3.9623835,-0.0239419,8.7363977,-8.5572519,-3.5954199,3.1297710,16.5390606,5.5880380,-10.2830439,-18.9083977,-5.9694657,99.7709961
5990,-3.8905578,-0.0023942,8.6502066,-10.0076332,-2.4656489,3.5877862,16.0674057,5.7125359,-9.6366129,-51.4580154,-19.5725193,46.8396950
6000,-3.9121056,-0.0263361,8.7962523,-11.3511448,-1.8396946,3.9770992,14.9277716,5.5353661,-8.4826136,-83.4809189,-47.3664131,-0.2977099
6010,-3.9144998,-0.1987177,9.0572186,-11.4122133,-0.7328244,5.1755724,13.7067347,5.4395986,-7.1682034,-110.8244247,-81.1603088,-39.9541969
6020,-3.8211265,-0.1053443,9.1817169,-10.4809160,-0.7862595,6.1221375,12.6125898,5.2743993,-6.0405402,-131.1984711,-107.7480927,-70.1526718
6030,-3.7133877,-0.1316804,9.1936874,-9.1908398,-1.4580153,6.5572519,11.6668854,5.1163831,-4.8314743,-146.3282471,-121.4198456,-94.4885483
6040,-3.6607156,-0.1221037,9.3708572,-7.2595420,-1.7480916,6.8091602,11.1114330,5.1570840,-3.7540891,-155.9007568,-122.8778610,-115.0381699
6050,-3.5960727,-0.2274480,9.4666252,-4.6335878,-1.8702290,6.7938933,10.5918941,5.1307478,-2.7892308,-162.3664093,-116.3587799,-135.6183167
6060,-3.5505829,-0.1053443,9.4714136,-1.8396946,-1.3282443,6.8244276,10.0532017,5.1092005,-1.7070571,-163.0305328,-105.5954208,-157.0076294
6070,-3.3446827,-0.0407012,9.3900108,0.2977099,0.8549618,5.9465647,9.1817169,5.0924411,-0.7421987,-157.6259613,-92.0687027,-180.3969421
6080,-3.3255291,0.0837966,9.1122847,1.5954199,3.4961832,4.3740458,8.3676920,5.1283536,-0.3399749,-148.1145020,-76.4198456,-204.1755676
6090,-3.3351059,0.1292862,9.0236998,1.2977099,4.8015265,2.8702290,7.3166428,5.0684991,0.0622489,-139.7328186,-61.3129768,-228.3587799
6100,-3.4859397,0.0957676,8.9518747,-0.1145038,5.0763359,1.4503816,6.1482787,4.9104824,0.1987177,-132.5801544,-44.9312973,-250.1374054
6110,-3.5625539,0.0095768,9.0452480,-1.1068702,4.9847326,0.6717557,4.1898317,4.6878228,-0.0670373,-127.8625946,-32.6870232,-250.1374054
6120,-3.7540891,0.0023942,9.0141230,-0.8702290,5.4351144,0.4351145,2.0254843,4.4077029,-0.5147507,-128.7938995,-33.9312973,-250.1374054
6130,-3.8307030,-0.0047884,8.8992023,-1.5038168,4.8091602,0.6488550,-0.5147507,4.1443419,-0.7805058,-138.0839691,-46.6106873,-250.1374054
6140,-3.8330972,-0.1843526,8.8082228,-1.2366412,3.9083970,0.4503817,-2.3319404,4.0773048,-0.2944853,-152.4427490,-62.4198456,-250.1374054
6150,-3.8235207,-0.2106887,8.8728657,-2.8320611,4.6564884,1.0992366,-3.9001346,4.0581512,0.6895266,-166.8625946,-78.8625946,-250.1374054
6160,-3.9863255,-0.2418131,8.8225880,-3.4961832,4.0000000,1.6259542,-5.5042415,3.8881636,2.1164634,-175.8778687,-90.4274826,-250.1374054
6170,-3.9001346,-0.2585725,8.8608952,-3.6259542,1.2977099,1.5496184,-7.0532823,3.8594334,3.8067613,-177.8015289,-87.9770966,-250.1374054
6180,-4.0725164,-0.3615226,8.9782104,-3.3358779,-1.5496184,2.2595420,-8.7675219,4.0916696,6.3398137,-169.5038147,-64.6335907,-250.1374054
6190,-4.0030847,-0.3232156,8.8848372,-3.5038168,-2.7099237,2.8778627,-10.7738523,4.3167233,8.3317795,-148.5496216,-29.1984730,-250.1374054
6200,-3.6367738,0.0047884,8.9111729,1.1832061,-9.5725193,3.8473282,-16.0219154,6.2536230,8.2934723,109.5267181,50.7022896,78.7786255
6210,-3.5625539,0.0311245,8.9327211,0.7404580,-8.4198475,3.5648854,-13.8312321,6.5935979,7.3477674,132.5725250,43.0458031,95.5343475
6220,-3.5290353,0.0574605,8.8321648,-0.6793893,-7.2061067,3.1145039,-12.1672707,6.7109132,6.2871413,147.4045868,36.2671738,105.6870193
6230,-3.4835455,0.0574605,8.9183559,-1.9312977,-5.4045801,2.6870229,-10.9989061,6.9216018,5.1762376,151.5343475,27.1297703,113.1145020
6240,-3.5793133,-0.0191535,9.0165176,-2.5419848,-4.3282442,2.6259542,-10.1298151,7.2280579,4.3622131,147.8167877,12.3511448,119.8015289
6250,-3.4643922,-0.0598547,9.1481981,-2.8931298,-3.9541984,2.7251909,-9.0069408,7.2065101,3.8330972,141.9313049,-9.5190840,126.1374054
6260,-3.4308734,-0.0407012,9.1888990,-2.4961832,-2.7480917,3.0000000,-7.8936424,7.1203194,3.5434003,138.5419922,-27.7251911,129.9923706
6270,-3.4236910,-0.0861908,9.1410151,-2.4885497,-0.1297710,2.6793892,-6.5552907,7.0820122,3.1459649,138.3282471,-38.7328262,130.0534363
6280,-3.4045374,-0.1005560,9.2080526,-2.5038168,2.8320611,2.9007633,-5.4348102,7.3310080,2.5809362,139.1908417,-45.4198456,126.3053436
6290,-3.4691806,-0.0981618,9.1338329,-1.8320611,4.4809160,2.6870229,-4.8554163,7.2041159,2.0949159,140.2977142,-49.0687027,121.6793900
6300,-3.5386121,-0.0933734,9.1170731,-1.8854961,5.2824426,2.4961832,-4.7117648,7.6638002,1.1923064,141.3206177,-50.8549614,117.7328262
6310,-3.6224086,-0.0670373,9.1529865,-1.7175573,5.2977099,2.8778627,-4.6064205,7.9798336,-0.4836263,137.9847260,-60.4885483,116.4656525
6320,-3.7038112,-0.0550664,9.0739784,-1.7099236,4.9160304,3.2748091,-4.3813667,7.9798336,-1.4772149,128.9084015,-71.9312973,118.7709961
6330,-3.7014170,-0.0095768,9.0260944,-0.9923664,4.3129773,4.0381680,-3.6080434,7.9367380,-2.3726418,118.7251892,-80.0839691,120.9160309
6340,-3.6367738,0.0478838,8.7866755,-1.1908396,3.4122138,4.1832061,-2.9496415,7.7978749,-2.8538737,108.5954208,-81.9694672,122.5877838
6350,-3.6750808,0.0814024,8.9375095,-1.7938931,2.7404580,3.6335878,-1.8866212,7.7787213,-3.4428444,100.1755753,-79.2748108,122.7404556
6360,-3.6702924,0.1149211,8.9327211,-1.8549619,1.0381680,2.9770992,-1.3335636,7.8840661,-3.7516949,93.0687027,-69.5801544,122.3053436
6370,-3.6583214,-0.0335187,8.9494801,-1.7404580,-1.3816794,1.9541985,-0.8930327,8.2336178,-3.9025288,85.9847336,-59.6259537,122.6335907
6380,-3.6894460,-0.0957676,8.8656836,-2.1297710,-2.6259542,0.5725191,-0.5650287,8.6358414,-4.0030847,84.2442780,-52.0458031,125.1145020
6390,-3.7493007,-0.2035061,8.8489246,-2.9541984,-3.0610688,-0.3053435,-0.2585725,9.1003141,-4.5178356,85.3664093,-43.5877876,130.2977142
6400,-3.7756367,-0.2681492,9.0811605,-2.6106870,-3.2137403,-0.3511450,0.4572902,9.2319946,-5.3079181,90.8702316,-30.7251911,137.9084015
6410,-3.7540891,-0.2944853,9.0236998,-2.0305343,-2.7251909,0.2366412,1.7166338,9.1266499,-6.7540083,94.4732819,-15.5877867,144.3740387
6420,-3.7971845,-0.2537841,9.0715837,-1.4351145,-1.4045801,1.1068702,3.5290353,9.0931320,-8.5041609,91.0076370,-1.7633588,145.5954132
6430,-3.7014170,-0.3256098,9.0284882,-1.7175573,-0.8625954,2.0458016,5.4779053,9.0452480,-10.4793673,76.2824402,1.8015267,136.4351196
6440,-3.8163381,-0.1819584,9.0189114,-1.8854961,-1.3816794,3.3816793,6.4571290,8.7459745,-11.6908274,49.2061081,-3.8091602,119.0457993
6450,-3.5505829,-0.2226596,9.1529865,-2.1221373,-2.0000000,3.6946564,7.4650826,8.3988171,-12.0379848,16.0992374,-10.3893127,94.7709961
6460,-3.6104376,-0.1364688,9.0620070,-0.6717557,-4.1526718,3.0992367,8.2336178,8.5616217,-11.9996777,-16.1145039,-23.2213745,64.1679382
6470,-3.5050933,-0.1484398,9.0620070,-0.0763359,-4.7633586,2.1603053,8.3964224,8.7244263,-11.7315283,-46.7175560,-39.9312973,30.6946564
6480,-3.6104376,-0.1125269,8.9758167,-0.0687023,-5.6106873,1.7175573,8.2743187,8.8824425,-11.1856527,-76.5725174,-49.3206100,-0.6183206
6490,-3.7133877,-0.0957676,9.0260944,-0.3358779,-7.0076337,1.3282443,7.7356262,8.9446917,-10.3668404,-103.7099228,-51.5190849,-26.9160309
6500,-3.7971845,-0.0909792,8.8776541,0.1526718,-9.1832066,1.7328244,6.9838505,8.7340031,-8.9853926,-126.7557220,-56.3740463,-50.7022896
6510,-3.8929520,-0.1053443,9.0572186,0.6717557,-11.3511448,2.5572519,6.3446021,8.5281029,-7.9127960,-144.8320618,-61.4427490,-72.9465637
6520,-3.9575951,-0.1149211,9.0907373,1.4351145,-14.3358774,3.4656489,5.8083038,8.1785507,-6.9503322,-159.2061005,-63.5877876,-93.3511429
6530,-3.7900019,-0.0909792,9.1266499,2.6030533,-16.3511448,4.2595420,5.1594782,8.0013809,-6.0333576,-170.1526642,-57.0916023,-110.7404556
6540,-3.6559272,-0.1651991,9.3110027,3.5190840,-16.2595425,4.8320613,4.2975702,7.6254935,-5.1403246,-178.2748108,-46.5877876,-125.5725174
6550,-3.5625539,-0.1292862,9.1912937,4.2290077,-15.3358774,5.5190840,3.3063757,7.3549500,-4.3071470,-184.4427490,-35.3969460,-137.7938995
6560,-3.3542595,-0.0407012,9.0069408,3.9541984,-14.3740454,6.0839696,2.7700772,7.0772243,-3.7828193,-190.2977142,-28.5954189,-149.0534363
6570,-3.4284792,-0.2346306,8.9949694,2.8625953,-12.0610685,6.5496182,2.1763182,6.7037306,-2.8778157,-197.5419922,-23.2137413,-161.1755676
6580,-3.5146701,-0.0885850,9.0644016,1.1984733,-10.5801525,8.1526718,1.5634058,6.1554613,-1.8195840,-203.7328186,-19.0305347,-173.8396912
6590,-3.5577655,-0.0718257,8.9829988,0.4961832,-10.9007635,10.0916033,0.7876883,5.6119800,-0.8738791,-208.2519073,-18.4732819,-186.4809113
6600,-3.3662305,-0.0263361,9.0213060,-0.0229008,-8.6030531,10.6870232,-0.2489957,5.0924411,-0.1412572,-212.6412201,-19.4809170,-198.0763397
6610,-3.3877780,0.0311245,9.1505919,-1.2977099,-4.6641221,12.1832066,-1.4891858,4.5250182,1.0175306,-217.5190887,-16.2290077,-204.8702240
6620,-3.2560976,0.0550664,8.8968077,-2.2671757,-2.0305343,12.9694653,-2.9376705,3.9743545,2.5091105,-219.0610657,-5.6412215,-205.5496216
6630,-3.2034254,0.1580165,9.0500364,-5.1068702,0.4580153,13.4427481,-4.8793583,3.5026991,4.3646073,-214.8091583,22.4885502,-198.7862549
6640,-3.1459649,0.2082945,9.3397331,-4.6412215,3.2061069,13.3740454,-8.1115141,3.8139439,7.3764977,-199.9923706,70.2977066,-179.8854980
6650,-3.0190730,0.1699875,9.4714136,-3.6412213,5.2824426,12.2977095,-11.3460636,4.5034704,10.1034794,-172.5190887,130.5343475,-144.3129730
6660,-2.8969693,0.2968795,9.3349447,-2.6412213,5.5572519,9.6870232,-14.0203733,5.3462253,12.9765072,-132.2519073,178.8549652,-94.9312973
6670,-2.9831600,0.3280039,9.3373384,-1.5343511,4.0229006,7.3282442,-16.5965214,5.4539638,15.1312771,-81.5801544,212.6946564,-36.5496178
6680,-2.9616125,0.3351865,9.2822723,-1.2061069,1.4961832,5.1526718,-18.4041348,5.4084740,16.6444054,-25.3129768,217.4122162,22.3129768
6690,-2.9424589,0.2657550,9.0715837,-1.3511450,-0.1450382,2.1603053,-18.8542423,4.8985114,17.2453461,35.3969460,198.0458069,77.9160309
6700,-3.0023136,0.1388630,9.2248116,-1.4122137,-0.5725191,-0.8778626,-17.5541973,4.6878228,16.5510311,96.4580154,169.1832123,121.1832047
6710,-3.1794837,0.0191535,9.0691900,-1.2977099,-1.2748091,-2.9160306,-14.9469252,4.6710634,14.8655224,149.6259613,152.1832123,146.4351196
6720,-3.2465210,-0.0335187,9.1338329,-1.4122137,-2.6412213,-4.8167939,-13.1680422,4.7811961,12.8903160,191.8778687,144.4732819,159.5190887
6730,-3.4572096,-0.1675933,9.2080526,-1.4732825,-1.4580153,-4.9007635,-11.9637651,5.2217274,10.6565371,222.9694672,146.4961853,169.7175598
6740,-3.6128318,-0.2322364,9.1793222,-1.8320611,-0.6412213,-3.8778627,-10.7068148,5.6670465,8.4778252,243.1984711,148.6106873,183.4427490
6750,-3.7540891,-0.2130829,9.1817169,-1.5801526,-1.4427481,-2.0763359,-9.1793222,5.9687142,6.1626434,250.1297760,146.3435059,192.9313049
6760,-3.7014170,-0.2154770,9.1338329,-0.7938932,-3.3587787,-0.0610687,-7.5201492,6.4236102,4.1180058,250.1297760,147.3587799,199.8778687
6770,-3.6224086,-0.1388630,9.1817169,-0.1526718,-5.1755724,1.0610687,-6.3781209,6.4307928,2.5785420,241.7099304,145.5648804,204.4656525
6780,-3.5386121,-0.1029501,9.1314383,0.8320611,-6.3511453,2.1832061,-5.3103123,6.7611909,1.3215926,226.8702240,135.4351196,208.0763397
6790,-3.5314295,-0.0143651,9.2056589,1.7938931,-8.0229006,3.1679389,-4.0701222,6.8497758,0.2849085,211.9389343,114.9923630,210.3511505
6800,-3.3039815,-0.0598547,8.9782104,1.0000000,-10.0534353,3.5419848,-3.4021432,6.8042865,-0.5339043,200.6259613,96.2748108,215.8702240
6810,-3.2967989,0.0766141,9.2942438,-0.1832061,-7.4732823,3.4732823,-2.7868366,6.4451580,-1.9680238,194.7557220,79.8702316,225.1145020
6820,-3.3039815,0.2011119,9.1865053,0.7633588,-6.6106873,3.8396947,-1.5418580,6.1722202,-4.4053087,190.4809113,74.4045792,236.5877838
6830,-3.1627243,0.1771700,9.0045462,0.9389313,-8.5419846,3.0687022,-0.0526722,6.2440462,-7.2759418,181.1603088,91.8549652,249.1068726
6840,-3.1770895,0.2035061,9.1673517,-0.7709923,-7.0000000,2.0076337,1.4915800,6.2871413,-10.4290895,162.7633514,128.0610657,250.1297760
6850,-3.1268115,0.2633608,9.1314383,-1.0534351,-5.1221375,1.9694656,4.0294209,6.1434903,-13.0148134,131.2824402,175.9618378,250.1297760
6860,-3.1818779,0.1867468,9.0380650,-1.4045801,-5.0916033,0.5038168,7.4746594,5.4060798,-14.0395269,90.6335907,228.0305328,250.1297760
6870,-3.2153964,0.1340746,9.0476418,-1.9847329,-4.9083967,-0.9465649,11.7291346,4.6878228,-13.3787308,55.0534363,250.1297760,250.1297760
6880,-3.2321558,0.0359128,9.0739784,-2.6106870,-4.8091602,-1.3358779,16.6324348,3.9719603,-12.2797976,37.7480927,250.1297760,250.1297760
6890,-3.3303175,-0.0215477,9.1601686,-2.9160306,-4.4198475,-1.0687023,19.6126022,3.5649481,-11.1736822,32.3129768,231.2061005,226.8167877
6900,-3.3758070,-0.0335187,9.2990322,-2.6870229,-3.4580152,-0.4732825,19.6126022,3.6271970,-11.9685535,14.2977095,153.7480927,131.4198456
6910,-3.3015873,-0.1101327,9.3900108,-1.3893130,-2.4198472,0.7175573,19.6126022,3.7995787,-13.3164816,-37.3511467,44.1603050,16.2977104
6920,-3.2130022,-0.0718257,9.3684635,0.0916031,-0.3969466,2.2748091,19.6126022,4.1587071,-13.8360205,-102.6564865,-71.6335907,-78.3206100
6930,-3.2848279,-0.0766141,9.2176294,1.0076336,1.2519084,3.3740458,19.6126022,4.1802549,-12.5934362,-168.1068726,-158.5648804,-143.6870270
6940,-3.1770895,0.0167593,9.0811605,0.1755725,2.1374047,4.3282442,18.9619808,3.3901722,-10.1346035,-222.7938995,-206.1297760,-192.6183167
6950,-3.2130022,0.1364688,9.2391768,-0.9923664,2.8473282,5.3129773,16.8503056,2.7964132,-7.1275020,-250.1374054,-209.9694672,-227.6870270
6960,-3.1531475,0.1771700,9.1912937,-1.2595420,2.6641221,5.7328243,14.5303354,2.8658447,-4.3167233,-250.1374054,-170.6030579,-250.1374054
6970,-3.0286496,0.3423691,9.2822723,-1.3969465,2.9083970,5.2061067,11.9374285,2.9185169,-1.7812769,-250.1374054,-99.1679382,-250.1374054
6980,-2.9687948,0.2873027,9.2559366,-1.9389313,3.9312978,4.2061067,9.5240860,2.8897867,-0.5099624,-233.9770966,-39.2519073,-250.1374054
6990,-2.9448531,0.3040621,9.2798786,-1.2137405,3.2824428,2.8244274,6.9383612,2.9400647,0.4261657,-210.2671814,-2.6641221,-250.1374054
7000,-3.0238612,0.2130829,9.2056589,-0.9770992,1.4885496,0.8091603,4.1012464,2.5091105,1.0079538,-189.5877838,23.4961834,-250.1374054
7010,-3.0621684,0.1364688,9.1697454,-0.7480916,0.0992366,-1.3129771,0.1412572,2.3989778,1.5203103,-174.2900696,44.4656487,-250.1374054
7020,-3.1268115,0.0622489,9.1170731,-1.3282443,-0.6870229,-2.9618320,-4.7285242,2.7078283,2.8371146,-160.1603088,76.2900772,-250.1374054
7030,-3.3351059,-0.1101327,9.1434097,-1.9389313,-1.8091604,-3.8244274,-11.2502966,3.3015873,4.7261300,-137.8931274,128.6641235,-250.1374054
7040,-3.4284792,-0.1987177,9.1625633,-1.5954199,-2.4732823,-3.3282442,-19.6131992,4.9607606,6.5337429,-107.6641235,192.7557220,-207.7938995
7050,-3.5649481,-0.2681492,9.3373384,-1.0458015,-2.4045801,-1.7938931,-19.6131992,7.7643566,8.4012108,-74.0457993,229.8320618,-114.7786255
7060,-3.5601597,-0.2394189,9.3110027,0.2824427,-2.3511450,0.4045801,-19.6131992,9.3612804,10.4626083,-43.5801544,215.8549652,-8.4351149
7070,-3.5362179,-0.1819584,9.2726955,1.4427481,-2.8473282,2.2213740,-19.6131992,8.4083929,11.0300312,-15.7938929,181.0381622,80.4656525
7080,-3.4189026,-0.1125269,9.1314383,1.4885496,-4.0381680,3.4274809,-19.6131992,7.6111283,11.4921093,15.6564884,152.8015289,142.8396912
7090,-3.2632802,-0.0598547,9.1577749,1.1145039,-5.9160304,3.9160306,-19.6131992,7.1418672,11.1497402,49.6106873,131.7328186,189.6946564
7100,-3.1387823,0.0335187,9.1817169,0.4427481,-6.4198475,3.3053436,-19.0649300,6.6079631,10.1992474,77.9160309,104.8015289,221.2671814
7110,-3.1052637,0.0909792,9.2798786,0.1374046,-6.7022901,2.0763359,-15.0259333,6.2033448,8.5975342,99.1526718,68.5725174,236.6335907
7120,-3.0717452,0.0909792,9.2152348,0.1297710,-6.5038166,1.0916030,-11.7794123,5.9112539,5.9567432,110.1526718,29.8549614,239.0610657
7130,-3.0454090,0.1149211,9.2822723,0.9312977,-5.5343513,0.2442748,-8.6980906,5.5210009,2.9759774,108.9465637,-13.2748089,236.5419922
7140,-2.9735832,0.1221037,9.2176294,1.3664122,-5.1221375,-0.7862595,-5.9639258,5.3079181,0.9337339,97.9312973,-59.0839691,228.9770966
7150,-3.0741394,0.1699875,9.2415714,1.5648855,-5.0763359,-1.6793894,-3.4787574,5.5880380,-0.8044477,83.9618301,-97.4732819,222.6870270
7160,-3.1890604,0.1723816,9.1673517,0.3893130,-4.4274807,-1.0381680,-1.7429699,5.6598639,-2.3558824,72.1526718,-124.1450348,221.6793823
7170,-3.2273674,0.1412572,9.1936874,-0.4274809,-3.7709923,-0.1603053,0.0814024,5.7053533,-3.3422885,63.4122124,-135.5877838,231.9389343
7180,-3.2201848,0.1388630,9.1745338,-1.5572519,-4.2977099,0.8625954,2.2984219,5.6478930,-4.3119354,63.4503822,-124.5267181,249.7709961
7190,-3.2082138,0.0335187,9.0859489,-2.5496182,-4.3740458,1.3969465,5.2624283,4.6950054,-5.9232249,70.8778610,-85.1679382,250.1297760
7200,-3.0454090,0.0598547,9.1841106,-3.3358779,-3.5954199,1.0610687,10.2782555,3.1723011,-7.6374645,85.6870193,-26.2671757,250.1297760
7210,-3.0645626,0.0981618,9.2535419,-3.5725191,-2.9618320,0.8625954,16.6803188,2.2505381,-9.6174593,103.2519073,35.5954208,250.1297760
7220,-2.9951310,0.0909792,9.1697454,-3.2366412,-1.2595420,-0.0610687,19.6126022,2.7365584,-11.1712875,108.3587799,91.6335907,236.8244324
7230,-3.0071020,0.0814024,9.2343884,-2.9083970,0.4961832,-0.4045801,19.6126022,4.2113791,-12.9334116,72.2137375,121.1526718,173.4351196
7240,-3.0908985,-0.0119709,9.2415714,-2.9312978,1.8549619,-0.5343512,19.6126022,5.3605900,-13.3811245,5.3893127,84.1984711,98.4885483
7250,-3.2225790,0.0071826,9.3110027,-2.6564887,2.8931298,0.6259542,19.6126022,5.4084740,-11.7698355,-56.4656487,-14.4503813,26.0000000
7260,-3.2728570,-0.0023942,9.3038206,-2.5496182,3.4809160,2.1832061,19.6126022,5.2073622,-9.5264797,-105.4732819,-109.0610657,-39.6488533
7270,-3.2465210,0.0694315,9.3828287,-2.3740458,3.0381680,3.5725191,19.6126022,5.0373745,-6.9359670,-136.9618378,-153.3358765,-98.4580154
7280,-3.1339941,0.1508339,9.3708572,-1.6870229,2.1450381,4.2290077,19.6126022,4.9224534,-4.6734576,-148.9465637,-150.9084015,-148.9160309
7290,-3.0118904,0.1364688,9.3708572,-0.7709923,0.4198473,4.0229006,19.0960560,4.7309184,-2.6024840,-145.4122162,-115.5267181,-188.0381622
7300,-2.8897867,0.2489957,9.2559366,-0.2900763,0.0687023,2.6717558,16.5462437,4.7692256,-1.6424140,-131.0458069,-67.5267181,-219.7251892
7310,-2.9592183,0.1173153,9.1960821,-0.5725191,-0.2900763,0.7480916,13.9126348,4.9176650,-0.7709290,-113.0152664,-25.0458012,-245.1603088
7320,-2.9448531,0.1364688,9.1290445,-1.4732825,-0.3893130,-0.7404580,11.2909975,4.9679432,-0.6248835,-96.4961853,1.9312977,-250.1374054
7330,-3.0717452,0.0383070,9.1625633,-2.2137403,-0.5190840,-1.8320611,8.9566631,4.7740140,-0.8427547,-86.2671738,11.1908398,-250.1374054
7340,-3.2273674,-0.0718257,9.1936874,-2.6106870,-1.2290076,-2.1450381,6.3661499,4.4867110,-1.2377959,-85.3664093,6.1068702,-250.1374054
7350,-3.3231349,-0.1723816,9.3660688,-2.4351146,-1.9160305,-1.4198474,3.8402798,4.1443419,-1.4867916,-92.5190811,-13.6106873,-250.1374054
7360,-3.3542595,-0.1771700,9.4019823,-1.3053435,-2.7328243,0.0839695,1.2976507,3.9719603,-1.6088953,-107.2595444,-42.8549614,-250.1374054
7370,-3.4236910,-0.2585725,9.5408449,0.1755725,-4.2290077,1.5496184,-1.4293311,4.1012464,-1.2761030,-126.5343475,-83.1832047,-250.1374054
7380,-3.3255291,-0.2226596,9.3588867,1.7099236,-6.1374044,2.6946564,-3.9887197,4.5705075,-0.3950413,-147.8244324,-135.3053436,-250.1374054
7390,-3.2728570,-0.0885850,9.3445215,2.9770992,-8.5038166,2.9847329,-5.3366485,5.0230093,0.6799498,-168.9541931,-184.6870270,-250.1374054
7400,-3.2728570,-0.0335187,9.2511482,3.5572519,-10.9618320,3.2213740,-6.9287844,4.9847026,2.0949159,-185.1832123,-216.9236603,-250.1374054
7410,-3.1914546,-0.0502780,9.2391768,3.3358779,-12.8625956,3.2213740,-11.8392668,5.2743993,3.7756367,-187.7938995,-196.4351196,-250.1374054
7420,-3.1435707,0.0598547,9.3660688,3.1984732,-12.7709923,3.2213740,-19.6131992,5.5257893,6.9646969,-174.2748108,-50.9160309,-224.8625946
7430,-3.0094962,0.0742199,9.2942438,3.8931298,-13.2061071,3.3740458,-19.6131992,9.5671806,11.2143831,-139.7404633,145.5648804,-96.8778610
7440,-3.0214672,0.0909792,9.2774839,4.6641221,-13.6717558,2.9694657,-19.6131992,11.3364868,14.8750992,-75.8549652,241.5572510,63.0000000
7450,-3.0358322,0.1412572,9.2439651,3.3816793,-14.1374044,3.5038168,-19.6131992,7.3381906,17.3554802,5.8320613,250.1297760,213.3893127
7460,-2.9640064,0.1628049,9.4067707,3.2519083,-13.0839691,3.4580152,-19.6131992,4.3741841,17.0705700,92.1832047,249.7862549,250.1297760
7470,-2.8442972,0.1723816,9.3421268,2.8854961,-12.1450386,3.6717558,-19.1966114,3.6367738,15.1695843,170.5496216,210.1374054,250.1297760
7480,-2.8107784,0.1651991,9.2487535,2.7480917,-10.7251911,3.7480917,-12.9812956,3.7062054,12.5000629,224.9160309,170.7480927,250.1297760
7490,-2.7724714,0.1867468,9.2319946,2.2977099,-9.4274807,3.6412213,-8.9446917,3.9336534,9.4762020,247.3969421,141.8625946,250.1297760
7500,-2.7174051,0.2178712,9.1410151,1.0534351,-7.3587785,3.4809160,-5.4683285,5.2001796,4.0892754,218.2824402,118.6259537,250.1297760
7510,-2.6407909,0.1843526,9.3014259,-0.7328244,-4.2824426,3.7022901,-3.5984666,5.8513989,0.6200951,164.9541931,50.6641235,250.1297760
7520,-2.6024840,0.1460456,9.2583303,-2.1221373,-0.6946565,3.8625953,-2.6216373,5.3462253,-0.1651991,128.0000000,-38.8244286,250.1297760
7530,-2.6360025,0.2059003,9.2966375,-2.9236641,2.5496182,3.7404580,-0.5769997,4.6710634,-0.7924767,106.2366409,-124.1908417,250.1297760
7540,-2.6934631,0.2082945,9.4355011,-3.3740458,4.3893127,3.4580152,0.8499373,4.9009056,-2.2577207,90.8854980,-181.8015289,247.8549652
7550,-2.6048782,0.1843526,9.3708572,-3.6946564,5.0305343,3.1374047,2.4708035,4.9679432,-3.3159523,84.1526718,-201.8167877,249.5496216
7560,-2.6312141,0.2705434,9.3828287,-3.9236641,5.0381680,2.2366412,4.4699516,4.4699516,-4.5944495,86.2977066,-176.6183167,250.1297760
7570,-2.6982515,0.3160330,9.5145092,-3.7022901,4.9007635,1.6870229,5.8729467,3.5912843,-6.4188218,93.3129807,-116.4198456,250.1297760
7580,-2.7557120,0.2920911,9.4594421,-3.8244274,4.6335878,1.0534351,7.0891948,3.1866663,-7.5273318,107.3435135,-59.5114517,250.1297760
7590,-2.8466914,0.2322364,9.3708572,-3.5954199,3.9465649,0.0839695,10.4362717,2.8179610,-8.5233145,120.4351120,-20.9312973,250.1297760
7600,-2.8203552,0.1628049,9.3732519,-3.2900763,2.5648854,-0.6488550,15.6532106,2.6407909,-10.2543135,123.7862625,18.5419846,250.1297760
7610,-2.8730273,0.1101327,9.3421268,-3.0076337,1.1679389,-1.1984733,19.6126022,3.5050933,-12.5120344,104.1603088,60.0916023,209.7633514
7620,-2.9424589,-0.0047884,9.3804340,-2.6106870,0.4809160,-1.8854961,19.6126022,4.6399393,-14.0251617,55.9923668,81.4274826,147.9694672
7630,-3.0286496,-0.0502780,9.3301563,-1.9007634,-0.2366412,-2.0152671,19.6126022,5.4395986,-13.8886929,-1.5496184,50.3435097,74.2900772
7640,-3.1028695,-0.0957676,9.4043760,-1.1145039,-1.7786260,-1.6488550,19.6126022,5.3198891,-12.6461086,-57.3587799,-15.8091602,-2.2748091
7650,-3.1028695,-0.0957676,9.3110027,-1.3358779,-2.6946564,-1.2137405,19.6126022,5.1714492,-11.1066446,-104.7709961,-77.5267181,-74.8320618
7660,-3.1411765,-0.1316804,9.3229742,-1.4732825,-3.9236641,-0.0610687,19.6126022,4.8554163,-8.9590569,-138.5114441,-108.3358765,-133.7480927
7670,-3.1315999,-0.1053443,9.3684635,-0.6030535,-4.9541984,1.0458015,19.0338058,4.4124913,-6.7420373,-157.1297760,-101.9847336,-181.2137451
7680,-3.0932927,-0.0430954,9.2272062,-0.3511450,-5.9083967,2.2061069,16.5893383,4.3047528,-5.0948353,-162.6793823,-72.3358765,-217.0458069
7690,-3.0406206,-0.0023942,9.1841106,-0.5801527,-7.4580154,3.1068702,14.1209297,4.1802549,-3.5170643,-155.5267181,-31.9312973,-239.1603088
7700,-2.9568241,0.1101327,9.2415714,-0.8091603,-8.9236641,3.5267177,12.2750092,3.8426740,-2.3295465,-139.9389343,12.8625956,-250.1374054
7710,-2.9376705,0.1484398,9.1697454,-1.2137405,-10.4809160,3.5038168,10.5583754,3.2369442,-1.2521610,-122.0534363,53.9312973,-250.1374054
7720,-2.7772598,0.2250538,9.3469152,-1.8549619,-11.9770994,2.8396947,8.7220325,2.7892308,-0.4548960,-106.8549652,79.2671738,-250.1374054
7730,-2.6527619,0.2130829,9.2391768,-2.1374047,-13.1145039,1.3206106,7.0939832,2.4731977,0.3447633,-97.1755753,83.7938919,-250.1374054
7740,-2.6360025,0.2059003,9.2559366,-3.0534351,-13.4427481,-0.2519084,5.5712790,1.9488702,0.8499373,-90.7862625,70.1297684,-250.1374054
7750,-2.5857246,0.1101327,9.3277617,-3.5419848,-12.0610685,-1.2671756,3.7756367,1.2952565,1.0630201,-86.0152664,49.8549614,-250.1374054
7760,-2.5953014,0.0430954,9.5839405,-3.5496182,-8.8702288,-2.0916030,1.3575054,0.4716553,1.2114599,-83.9847336,33.9694672,-250.1374054
7770,-2.6647329,-0.0550664,9.6725254,-2.1450381,-6.3664122,-1.7022901,-2.4947455,-0.1987177,1.6495966,-81.6488571,32.2213745,-250.1374054
7780,-2.6814921,-0.0742199,9.7539282,-0.4351145,-3.8320611,-0.2748092,-8.5185261,-0.1173153,2.3654592,-72.0610657,53.3969460,-250.1374054
7790,-2.7030399,-0.0622489,9.7419567,0.7633588,-0.2137405,1.5648855,-17.0370522,1.3958124,3.4691806,-50.8549614,112.0152664,-250.1374054
7800,-2.6934631,-0.0502780,9.5073261,0.8396947,2.1832061,3.6564887,-19.6131992,4.4100971,4.9224534,-23.7404575,189.6412201,-250.1374054
7810,-2.6192431,0.0742199,9.4642305,0.5572519,4.2061067,4.8931298,-19.6131992,9.0141230,5.7819676,2.0534351,224.4503784,-154.6259613
7820,-2.4181314,0.2729376,9.3014259,-0.1908397,6.2671757,5.0610685,-19.6131992,10.6278067,6.0213866,13.0152674,186.0076294,-32.8549614
7830,-2.3774302,0.2968795,9.3086090,-1.2824427,8.1450386,4.4045801,-19.6131992,9.6054878,6.5026188,17.0992374,114.8167953,73.9007645
7840,-2.4229198,0.4046180,9.4283180,-2.3435113,10.2977095,3.1221373,-19.6131992,8.2647419,6.6941538,26.4122143,65.9083939,153.4198456
7850,-2.4684093,0.4094064,9.2248116,-2.7480917,11.0305347,1.8702290,-19.6131992,7.0724359,7.7739329,47.1068687,49.5190849,209.3206177
7860,-2.5450234,0.3734936,9.1625633,-3.8931298,11.3358774,0.0610687,-18.2532997,6.0453281,7.6518297,76.0610657,43.2519073,242.6793823
7870,-2.6431851,0.3567342,9.2296000,-5.1526718,10.7709923,-1.2824427,-14.3818960,5.6383162,6.7396431,104.3969498,33.3129768,250.1297760
7880,-2.7940190,0.1939293,9.2511482,-6.3511453,10.4580154,-2.4427481,-11.3843708,5.3534074,4.8625989,124.8320618,16.7480907,250.1297760
7890,-2.8514795,0.0790083,9.3253679,-6.3206105,8.4809160,-3.0381680,-8.5209198,5.3127065,2.3798244,132.2519073,0.9236641,250.1297760
7900,-2.9328821,-0.0670373,9.4546537,-5.6870227,6.8015265,-3.2595420,-5.8801293,5.3749552,0.2896969,127.6106873,-16.9007626,250.1297760
7910,-3.1627243,-0.0119709,9.5192976,-4.1984735,4.4045801,-3.0610688,-3.5625539,5.7029591,-1.0414724,118.6412201,-40.6106873,250.1297760
7920,-3.1627243,-0.2226596,9.4881725,-2.9236641,1.4198474,-2.1221373,-1.4915800,6.1267309,-2.4372849,112.3969498,-62.3587799,250.1297760
7930,-3.1339941,-0.2513899,9.4618368,-1.5648855,-0.8167939,-0.8625954,0.4189832,6.1674318,-4.6112089,107.7022934,-82.2442780,250.1297760
7940,-3.1363883,-0.2825144,9.4115591,0.1145038,-3.1526718,-0.2442748,2.0350611,5.8729467,-6.3876977,102.4122162,-90.1374054,250.1297760
7950,-3.1746953,-0.2561783,9.3876171,1.1374046,-5.6717558,0.6946565,5.0301919,4.8338685,-8.4562769,99.8473282,-68.6183243,250.1297760
7960,-3.1100521,-0.1364688,9.3828287,1.3664122,-7.4045801,1.1374046,8.3892403,2.9664006,-10.6134415,103.1984711,-29.1450386,250.1297760
7970,-3.0525916,-0.1747758,9.3564920,1.8091604,-8.1679392,2.0839694,12.4473906,2.0829449,-12.4761209,107.8473282,23.5419846,250.1297760
7980,-2.9855542,-0.0287303,9.3540983,2.2595420,-8.9847326,2.6564887,16.9963512,2.1619530,-13.9868546,97.3129807,68.0229034,250.1297760
7990,-2.9544299,0.0574605,9.3397331,2.4961832,-9.4961834,2.7938931,19.6126022,2.1140692,-15.5023766,62.8854980,88.6106873,250.1297760
8000,-2.8730273,0.1819584,9.4043760,3.0152671,-10.1679392,2.7786260,19.6126022,2.1140692,-15.6795464,11.3358774,65.9312973,229.0915985
8010,-2.8155668,0.1364688,9.4642305,3.1679389,-10.4198475,2.8320611,19.6126022,3.2991931,-14.7122946,-47.4961815,15.7175570,145.3816833
8020,-2.6790979,0.0909792,9.3995876,3.3358779,-10.6793890,2.5496182,19.6126022,3.5481887,-13.3236647,-103.3587799,-53.6641235,53.7862587
8030,-2.6431851,0.1101327,9.4163475,3.3129771,-10.4809160,2.4122138,19.6126022,2.9472473,-11.2574787,-152.4885559,-116.6870193,-34.4732819
8040,-2.5761478,0.0933734,9.3469152,3.1984732,-9.9618320,1.8091604,19.6126022,3.1411765,-8.2168579,-184.7175598,-136.1297760,-107.5877838
8050,-2.5665710,0.1221037,9.1888990,2.2290077,-8.2366409,1.6870229,19.6126022,3.1675127,-4.7859845,-195.3129730,-112.5496216,-165.8244324
8060,-2.5713594,0.0263361,9.2607250,1.0152671,-5.2671757,1.8244275,19.6126022,3.1986370,-2.1044924,-182.3816833,-64.6488571,-206.7633514
8070,-2.5929072,0.0526722,9.2703018,-0.1068702,-2.7404580,2.4503818,17.7122135,3.5050933,-0.4596844,-157.1297760,-11.5267172,-239.4656525
8080,-2.5737536,0.0071826,9.2319946,-1.1832061,-0.6183206,2.8473282,15.1264887,3.5553713,0.3663110,-128.2977142,35.5877876,-250.1374054
8090,-2.5450234,0.1029501,9.3038206,-2.5190840,1.9465649,2.8931298,12.7083578,3.3710186,0.6895266,-101.2442780,68.5343475,-250.1374054
8100,-2.5474176,0.1436514,9.4929609,-2.8244274,3.4580152,2.6335878,10.1010857,2.8921809,0.4525018,-80.6870193,83.9618301,-250.1374054
8110,-2.5330524,0.1460456,9.6390066,-2.0687022,4.5267177,2.5190840,7.6374645,2.4253139,0.1580165,-68.4503784,84.2900772,-250.1374054
8120,-2.4396791,0.2801202,9.6653433,-0.8015267,5.7709923,2.1755726,5.0996237,1.8363433,-0.2537841,-62.6717567,71.2824402,-250.1374054
8130,-2.5258698,0.3088504,9.5145092,-0.4198473,5.3587785,1.2442749,1.6879035,1.2952565,-0.7613522,-63.6030540,45.3435097,-250.1374054
8140,-2.5785420,0.3591284,9.3995876,0.0305344,4.3816795,0.5038168,-2.5043221,1.1348459,-1.2784972,-74.4274826,9.3664122,-250.1374054
8150,-2.5713594,0.3998296,9.2894554,-0.6717557,3.1221373,0.0610687,-8.8321648,1.8985922,-0.7924767,-90.7862625,-12.3816795,-250.1374054
8160,-2.6527619,0.3064562,9.2319946,-1.4885496,3.0076337,-0.8091603,-16.8287582,3.3782012,1.5203103,-98.4885483,-4.7557254,-250.1374054
8170,-2.7389526,0.2370248,9.2870607,-2.7251909,1.7862595,-1.2748091,-19.6131992,5.7460546,4.5896611,-92.8854980,25.0534344,-250.1374054
8180,-2.7772598,0.0814024,9.2367830,-3.6106870,0.8167939,-1.6641221,-19.6131992,8.1115141,7.7763271,-70.2442780,60.0763359,-159.6870270
8190,-2.8897867,0.0095768,9.3445215,-3.4885497,-0.3206107,-1.5648855,-19.6131992,9.3660688,10.3117743,-31.4656487,82.1221390,-28.2442741
8200,-2.9903426,-0.1029501,9.6006994,-2.8167939,-2.3206108,-1.1297710,-19.6131992,8.7220325,10.6924505,19.7404575,86.8167953,90.3587799
8210,-2.9424589,-0.1532281,9.6198530,-0.6488550,-4.5572519,-0.6870229,-19.6131992,7.4698710,9.0404596,67.4351120,99.8625946,181.9236603
8220,-2.9640064,-0.1340746,9.6557665,1.7938931,-5.7022901,0.4809160,-19.6131992,6.7348547,7.4866304,103.4503784,114.6793900,241.7557220
8230,-3.0573800,-0.1221037,9.4402885,3.0839694,-6.9923663,1.4045801,-17.7624912,6.3326311,5.3510137,122.0457993,118.4274826,250.1297760
8240,-2.9137285,-0.0694315,9.3780403,3.5954199,-8.6030531,2.6030533,-13.8575687,6.0142040,3.5314295,124.8473282,101.0457993,250.1297760
8250,-2.8490853,-0.0143651,9.3828287,4.0000000,-10.3893127,3.0992367,-9.9478569,5.9088597,1.6855093,115.1221390,62.8244286,250.1297760
8260,-2.7581062,0.0550664,9.4115591,4.1832061,-11.3053436,3.0305343,-6.7779503,5.8537931,0.5530578,100.4809189,6.9694657,250.1297760
8270,-2.7341642,0.0837966,9.3660688,4.2061067,-13.0381680,2.9007633,-3.8761928,5.8657641,-0.5626345,85.7251892,-58.3969460,250.1297760
8280,-2.6743097,0.0885850,9.4043760,4.6793895,-14.4351149,2.5114503,-1.4820032,5.9758968,-1.5969244,72.6030502,-118.3053436,250.1297760
8290,-2.5976956,0.1915352,9.5264797,4.6564884,-13.5038166,2.6870229,0.2968795,5.8968887,-2.4612267,63.7404594,-170.4656525,250.1297760
8300,-2.6072724,0.2178712,9.4762020,4.7786260,-12.3893127,2.7938931,1.6974803,5.4348102,-3.2656744,63.2900772,-198.2290039,250.1297760
8310,-2.5138988,0.2394189,9.4115591,4.4503818,-11.8091602,3.0152671,2.9975252,4.4723458,-4.7764082,72.6870193,-187.9313049,250.1297760
8320,-2.5330524,0.2346306,9.3852224,4.0076337,-12.2824430,3.4503818,5.1259594,3.1148405,-6.4212160,88.9847336,-137.3664093,250.1297760
8330,-2.4420733,0.2346306,9.4474716,3.7251909,-11.9312973,3.6870229,8.7435799,2.2792683,-8.5209198,107.9618301,-57.6259537,250.1297760
8340,-2.4301023,0.1747758,9.6126709,3.7633588,-10.6641226,3.9007633,14.2334566,1.4484847,-10.5080976,120.1374054,31.4732819,250.1297760
8350,-2.2984219,0.1915352,9.5408449,4.0610685,-9.1145039,3.4274809,19.3067436,1.9488702,-12.5024576,111.5648880,105.3511429,250.1297760
8360,-2.1954718,0.1795642,9.4666252,3.4961832,-6.4885497,3.2671757,19.6126022,3.0382264,-14.5399122,71.9694672,129.8854980,250.1297760
8370,-2.2912393,0.2537841,9.4283180,2.1068702,-3.4198472,3.0381680,19.6126022,3.3782012,-15.3036594,7.8625956,92.1755753,180.0839691
8380,-2.2553265,0.2753318,9.3708572,0.8854962,-1.6412214,2.5877862,19.6126022,3.3351059,-14.2597923,-62.3129768,9.3587790,97.0229034
8390,-2.2720859,0.3016679,9.4450769,0.3511450,-1.1679389,1.6259542,19.6126022,3.1531475,-11.9398232,-120.4580154,-76.1832047,15.7175570
8400,-2.2840567,0.3327923,9.4474716,0.0763359,-0.5725191,1.2595420,19.6126022,3.2297616,-9.3660688,-161.5801544,-123.4122162,-55.0610695
8410,-2.2313845,0.4046180,9.5791521,-0.0992366,0.7633588,1.2061069,19.6126022,3.3446827,-6.5672617,-183.2442780,-128.8244324,-114.4885483
8420,-2.3319404,0.4979914,9.6246414,-0.1068702,1.8091604,1.6488550,19.6126022,3.1770895,-3.9623835,-185.7557220,-102.6946564,-156.3816833
8430,-2.3343346,0.5362985,9.5049324,0.0763359,1.1145039,1.8702290,18.4424419,3.6990228,-1.7549409,-172.0000000,-57.8015251,-187.7480927
8440,-2.2385671,0.4836263,9.3708572,-0.0839695,0.0839695,1.1603054,15.7370071,3.9121056,-0.1843526,-148.9160309,-12.4809160,-213.6717529
8450,-2.2888451,0.4405309,9.3900108,-1.0534351,0.5572519,0.7862595,14.0155849,4.0150557,0.6224893,-122.3969498,25.9389305,-237.6259613
8460,-2.2625091,0.2920911,9.3684635,-1.9694656,0.7022901,0.1603053,12.1505117,3.8833754,0.7876883,-97.1755753,55.4732819,-250.1374054
8470,-2.3343346,0.2106887,9.5121145,-2.6641221,0.0458015,-0.6488550,10.5009146,3.6080434,0.6631905,-75.5572510,78.9465637,-250.1374054
8480,-2.3391230,0.2106887,9.6653433,-1.9541985,-0.6030535,-1.2824427,8.5328913,3.3566537,0.5578461,-58.0152664,89.6793900,-250.1374054
8490,-2.4660151,0.0718257,9.7778702,-0.2061069,-1.9236641,-1.3206106,6.2943239,2.7006457,0.2130829,-45.9618340,83.5954208,-250.1374054
8500,-2.5019281,0.0790083,9.6270361,1.7328244,-2.7175572,-1.1450381,3.5505829,2.0566087,-0.3950413,-42.1450386,60.9312973,-250.1374054
8510,-2.6431851,0.0766141,9.4881725,2.2519083,-3.7175572,-0.6106870,0.0335187,1.6807210,-1.4101776,-51.9618340,17.8931293,-250.1374054
8520,-2.6886747,0.0335187,9.4019823,1.7022901,-4.6564884,0.3893130,-4.0964580,1.9823889,-2.0757623,-75.7938919,-41.2748108,-250.1374054
8530,-2.6814921,0.1077385,9.3564920,0.9694657,-5.8473282,1.1450381,-9.1936874,2.5737536,-1.7836711,-110.5954208,-101.6717529,-250.1374054
8540,-2.6192431,0.1149211,9.3971939,1.2442749,-8.2137403,1.7633588,-16.4217453,3.7397239,0.4405309,-137.9541931,-118.3435135,-250.1374054
8550,-2.5067163,0.1628049,9.5240860,1.6488550,-10.5114508,2.1374047,-19.6131992,6.1698260,4.4747400,-143.3358765,-64.6793900,-250.1374054
8560,-2.4851687,0.0215477,9.3924055,2.7633588,-18.4961834,3.5496182,-19.6131992,8.2264347,8.6502066,-121.9389343,17.8015270,-116.6870193
8570,-2.2672975,0.1771700,9.8018112,2.3969467,-18.8244267,2.6259542,-19.6131992,8.7411861,12.3875360,-75.0381699,78.5419846,36.2061081
8580,-2.3965836,0.2466015,9.9023676,3.6030533,-17.5267181,2.9770992,-19.6131992,7.5249376,14.0921993,-11.1603050,106.9389343,158.8015289
8590,-2.0566087,-0.0287303,9.3086090,5.5877862,-23.8702297,3.2366412,-19.6131992,6.8545642,13.0698805,60.6412201,126.6717529,237.6564941
8600,-2.0015423,0.2154770,9.5456333,4.4503818,-22.1832066,1.6030535,-17.2405586,5.6383162,10.9318695,120.2366409,141.9847260,250.1297760
8610,-2.0925217,0.2274480,9.7299862,3.9312978,-16.4809170,2.9541984,-12.6101961,5.4898763,7.8289995,153.9694672,139.1221313,250.1297760
8620,-2.0111191,0.3639168,9.5432396,4.3129773,-9.1297712,3.8473282,-8.8776541,5.6933827,4.4938936,160.9694672,115.3587799,250.1297760
8630,-1.8842272,0.4525018,9.4762020,3.1603053,-1.6793894,3.7557251,-5.5090299,5.8609757,0.5315101,143.0381622,68.0381699,250.1297760
8640,-1.8531027,0.6153067,9.1984758,-0.0992366,5.2137403,3.4809160,-3.0406206,5.7723908,-1.8674678,113.2519073,2.2595420,250.1297760
8650,-1.9105632,0.6607963,9.2511482,-2.4580152,7.8167939,2.3511450,-0.8714849,5.5425487,-3.0406206,84.1374054,-64.7404556,250.1297760
8660,-1.8507085,0.5650287,9.3349447,-3.9465649,6.7557254,0.6335878,0.9840119,5.3294659,-3.4500270,63.1832047,-115.4045792,250.1297760
8670,-1.8602852,0.5458752,9.6126709,-4.7022901,5.5496182,-1.0229008,2.6551561,4.8099265,-3.6152260,54.6030540,-138.1908417,250.1297760
8680,-1.9632354,0.3782819,9.6557665,-3.8549619,3.9770992,-1.8167939,4.7764082,3.8618276,-3.9647777,59.4274826,-129.4580078,250.1297760
8690,-2.1260402,0.2705434,9.6461897,-3.9618320,2.8778627,-1.9770992,7.3621325,3.1459649,-4.9463954,75.0229034,-78.7099228,250.1297760
8700,-2.1858950,0.3734936,9.9717989,-2.9312978,4.8854961,-1.4961832,10.6685085,2.5809362,-6.4331870,92.9083939,-7.2900763,250.1297760
8710,-2.3582766,0.4572902,9.7802639,-0.8091603,5.3664122,-0.8702290,15.1217003,2.0805507,-8.6765423,97.7251892,58.7786255,250.1297760
8720,-2.4205256,0.4764437,9.5623922,0.3282443,3.6335878,-0.2061069,19.6126022,2.6599445,-10.6278067,84.9465637,107.1068726,250.1297760
8730,-2.4468615,0.4979914,9.3804340,0.2137405,1.4122137,0.7633588,19.6126022,3.8091555,-12.1481171,47.9847336,108.8320618,211.4045868
8740,-2.4013720,0.5650287,9.2846670,-1.3206106,0.6335878,1.8091604,19.6126022,2.9280937,-13.0315733,-7.9694657,56.5648842,140.1145020
8750,-2.2840567,0.5147507,9.4235296,-3.2213740,1.5114504,2.9007633,19.6126022,3.0693510,-12.3037395,-69.9542007,-20.8396950,50.8320618
8760,-2.2265961,0.4692611,9.5145092,-3.7480917,1.8473282,3.3587787,19.6126022,3.2967989,-10.4913378,-123.8244247,-89.9007645,-34.3511467
