timestamp,rxacclX,rxacclY,rxacclZ,rxgyroX,rxgyroY,rxgyroZ,txacclX,txacclY,txacclZ,txgyroX,txgyroY,txgyroZ
0,4.3263001,3.3614421,8.3102312,7.8702292,-5.7099237,4.6564884,-4.5489597,2.4468615,8.2671366,-15.6030531,1.3587786,17.8244267
10,4.3023586,3.4548154,8.1402445,6.7938933,-5.0305343,5.2061067,-4.6662750,2.4181314,8.2288294,-23.4351139,-4.6564884,21.7022896
20,4.6375451,3.6846576,8.1043310,4.4885497,-8.7404585,3.4656489,2.9879484,-2.4253139,7.4507174,-24.3358784,-20.5648861,-28.3129768
30,4.7955613,3.7923961,8.3485384,2.2137403,-5.6335878,-1.0076336,-9.6581602,3.4859397,11.6309719,-75.5267181,-60.3587799,-68.1221390
40,4.7189474,3.7277529,8.2791071,2.7175572,-6.2061067,-2.2748091,-5.8130918,1.5107336,13.3428183,-60.1068687,-56.4656487,-27.1679382
50,4.7165532,3.7708483,8.2958660,3.2519083,-4.4961834,-3.5572519,-6.6893654,0.7613522,13.5678720,-28.5038166,-33.4656487,3.3816793
60,4.5082588,3.8043671,8.1139078,2.5725191,-3.3969467,-4.0152674,-4.8937230,1.7381816,14.0921993,6.4503818,4.0534353,7.0839696
70,4.4029145,3.8570392,7.9774394,1.6564885,-2.3435113,-4.6106873,-4.6638808,1.0678085,12.2989511,27.2671757,22.8091602,7.0992365
80,4.3310885,3.8618276,8.1019373,0.6870229,-2.8015268,-4.4580154,-3.6319854,1.2162483,10.5320396,36.0916023,31.2061062,6.6946564
90,4.2832050,3.8474624,8.0756006,-0.3511450,-2.1603053,-3.9847329,-2.8802099,1.4867916,9.2200232,36.8702278,29.2519093,5.7328243
100,4.2377152,3.7636659,8.0684185,-1.7099236,-0.3282443,-2.6259542,-2.5234756,1.6017127,8.5831690,30.1145039,21.4503822,1.7022901
110,4.3382711,3.7038112,8.4371233,-2.1984732,-0.3969466,-1.2900764,-3.3015873,1.7142396,8.9422979,11.8091602,6.8091602,-9.9923668
120,4.4891052,3.6870518,8.3964224,-1.7175573,1.9770992,-1.3053435,-4.0413918,1.8171898,9.5145092,11.4198475,4.5496182,-10.8244276
130,4.4292507,3.7445123,8.3796635,-1.7557251,3.6106870,-1.9007634,-4.5776901,1.9297167,9.7251978,12.0610685,5.0916033,-9.4045801
140,4.5178356,3.7876077,8.2838955,-2.2061069,3.3740458,-2.2366412,-4.5178356,1.9249283,9.6246414,13.5648851,6.3816795,-7.4656487
150,4.5752959,3.7852135,8.2599535,-3.3435113,6.0381680,-2.8167939,-4.3765783,1.9560528,9.3397331,13.7404585,6.9389315,-5.6030536
160,4.6471219,3.7708483,8.3054428,-5.1603055,12.9007635,-2.7633588,-4.2448978,1.8818330,9.0979195,12.1221371,4.8320613,-4.6564884
170,4.5992379,3.7636659,8.3533268,-6.4427481,17.5114498,-3.0916030,-3.9935081,1.8985922,8.9303265,9.0763359,1.6946565,-4.8854961
180,4.3310885,3.7995787,8.2096758,-6.6335878,17.6641216,-2.8091602,-3.8666160,1.8100072,8.8489246,4.5572519,-1.8091604,-6.4045801
190,4.1347651,3.8857694,8.0827837,-6.1374044,3.5038168,-7.7404580,-3.8905578,1.7453641,8.9159613,-14.1068707,-12.0992365,-11.1526718
200,3.9504125,3.8259149,8.2168579,-6.4809160,2.4503818,-8.1145039,-3.8067613,1.6902977,8.8656836,-18.8015270,-15.1374044,-11.9618320
210,3.8067613,3.6535332,8.3030491,-7.0305343,3.3893130,-6.0992365,-3.7540891,1.6759326,9.0021524,-23.8320618,-17.7557259,-13.7862597
220,3.7421181,3.5529771,8.3509331,-7.3893127,4.7557254,-2.9923663,-3.9432299,1.5274929,8.9806042,-28.0763359,-20.9465656,-15.0534353
230,3.8570392,3.5050933,8.5017672,-6.9083967,6.3282442,-0.2061069,-3.9336534,1.5155219,9.2559366,-30.9389305,-24.2366409,-15.0076332
240,3.9073172,3.4069316,8.5807753,-6.2519083,6.2366414,2.1603053,-3.9695661,1.5322813,9.5288744,-32.1679382,-26.2061062,-15.5190840
250,4.0557570,3.2680686,8.6669655,-5.2137403,4.8702292,3.6870229,-4.3693957,1.4029950,9.6988611,-31.9312973,-26.2748089,-14.4503813
260,4.0557570,3.2106080,8.6693602,-1.0381680,-0.9847328,3.9007633,-6.0237808,2.1236460,9.4666252,-32.9083977,-16.6412220,23.0305347
270,4.0509686,3.2800395,8.6214762,0.7251908,-5.2595420,3.5114503,-2.2050486,1.1156923,10.5272512,-32.2977104,-20.9541988,25.5496178
280,4.0413918,3.4332676,8.7723103,2.2671757,-9.3740454,2.9007633,0.2154770,-0.0598547,10.0196829,-18.4580154,-14.5496187,-11.6717558
290,3.9767487,3.5984666,8.7555504,3.9007633,-13.6335878,2.0687022,-4.9128766,0.9983770,9.9310980,-18.0152664,-14.4580154,-16.0229015
300,3.9384418,3.7085996,8.7220325,5.3511453,-15.7404585,1.4732825,-4.5322008,1.9129574,10.9965124,-15.1450386,-4.5267177,-8.5572519
310,3.6966286,3.8714044,8.6286592,8.0152674,-16.5343513,2.1145039,-3.4524212,0.7757174,10.5104914,1.2290076,2.9618320,-1.5343511
320,3.7349355,3.8905578,8.5233145,9.9389315,-18.9770985,2.9312978,-3.7014170,1.3934183,10.6804790,5.8015265,8.3740454,-1.3282443
330,4.4053087,3.9240766,8.0253229,7.2290077,-12.2213745,8.3740454,-3.6583214,1.2377959,9.5240860,10.0687027,21.8396950,-3.0687022
340,4.6112089,3.8235207,8.0109577,5.9770994,-9.7328243,8.7328243,-3.5218527,1.0486550,9.3062143,6.6793895,26.0076332,-3.7175572
350,4.9009056,3.7038112,8.0109577,4.6488547,-8.1450386,7.6870227,-3.3207407,0.9864060,9.4450769,3.6946564,31.7862587,-4.5954199
360,5.0445571,3.6391680,8.1498213,3.9618320,-7.9236641,6.5190840,-3.2177906,1.1420283,9.4714136,0.4198473,36.0916023,-7.0152674
370,5.2839761,3.5601597,8.1737623,3.2061069,-7.2213740,4.5648856,-3.0765336,1.0318956,9.3086090,-2.4656489,38.4732819,-9.9083967
380,5.3965030,3.5338237,8.1402445,2.1755726,-6.2900763,1.9618320,-3.0334380,0.9050036,9.4259243,-5.9770994,39.0916023,-16.5801525
390,5.2696109,3.3901722,8.1881275,-0.1221374,-2.6183207,-2.7862597,-3.9839313,1.2114599,9.4426832,-9.5343513,38.9847336,-32.6564903
400,5.1331420,3.5362179,8.3437500,-0.6259542,-2.8396947,-5.0687022,-4.4843168,1.3359578,9.2224178,-9.7251911,40.7938919,-38.4427490
410,4.8578105,3.4883339,8.3102312,0.0916031,-4.2442746,-7.0992365,-4.4843168,1.1899122,8.9015961,-11.7862597,47.8320618,-42.2900772
420,4.5992379,3.5386121,8.3652983,0.9465649,-4.1832061,-7.9465647,-4.4077029,0.7445929,8.5233145,-18.4809170,64.0381699,-47.8396950
430,4.3191175,3.6224086,8.4490948,1.4198474,-4.3206105,-7.3435116,-4.5393834,0.5961532,8.2599535,-28.1450386,84.6717529,-55.9465637
440,4.1682839,3.7157819,8.4275465,1.9694656,-5.9083967,-6.4961834,-5.2767935,0.7230452,8.2719250,-40.6259537,107.7328262,-62.6488533
450,4.0246325,3.8857694,8.3724804,2.8549619,-6.7938933,-5.3206105,-6.7444315,0.6799498,8.5592270,-56.0610695,129.7022858,-67.3816757
460,3.9288650,3.9168940,8.3509331,4.6793895,-8.1755724,-4.0305343,-8.6382351,-0.0359128,9.6821022,-68.8167953,136.8854980,-68.9312973
470,3.7756367,4.0294209,8.1785507,6.2290077,-10.1068707,-2.4045801,-11.0755205,-0.1651991,11.5830889,-77.0534363,121.5267181,-64.4198456
480,3.8690102,4.1323709,8.1570034,7.2671757,-12.1603050,-0.5877863,-13.8384151,-0.4620786,13.6181498,-82.2519073,85.3969498,-53.2900772
490,3.9528067,4.0725164,8.0061693,7.1374044,-12.4809160,1.2366412,-15.2892942,-1.0055596,15.6508169,-82.8015289,39.4274826,-36.4732819
500,3.9839313,4.0366035,7.8481531,6.6717558,-12.5725193,3.3511450,-15.8471403,-1.4532729,17.8151646,-73.7480927,-10.1297712,-16.7022896
510,4.2688398,4.0557570,7.7595682,5.7938933,-12.5496187,4.9160304,-15.1767673,-2.3079987,19.5485573,-54.1374054,-60.4961815,0.9312977
520,4.5345950,4.0006905,7.7978749,4.5419846,-11.9389315,5.7251906,-13.8647509,-3.1124463,19.6126022,-22.9160309,-99.3358765,14.1526718
530,4.7931671,3.9528067,7.8744893,3.4427481,-10.7557249,5.4198475,-12.4306316,-3.6008608,19.6126022,17.3511448,-107.4351120,24.3816795
540,4.8889351,3.9216824,7.8888540,2.4503818,-9.8931293,5.1832061,-12.1481171,-4.0844874,19.6126022,62.5114517,-85.8473282,37.9771004
550,5.1522956,3.9144998,7.9606800,1.5725191,-9.6488552,3.6106870,-12.2582502,-4.4388270,19.6126022,105.5725174,-46.3893127,57.0381660
560,5.1044121,3.8211265,7.9774394,1.0229008,-9.9923668,1.8396946,-12.3635941,-4.1371593,18.2724533,140.5572510,-6.3664122,80.1603088
570,5.1163831,3.7301471,7.9319496,1.2519084,-10.2748089,-0.1526718,-12.3420467,-3.5817075,17.0131111,167.0000000,24.1603050,104.8473282
580,5.0254035,3.7564833,7.9654684,0.5572519,-10.1450386,-0.7251908,-11.9901009,-3.1507533,15.5358953,186.8702240,44.5343513,128.6793823
590,5.0086441,3.7516949,8.0492649,-0.0381679,-8.2442751,-0.6488550,-11.6381550,-3.1603301,14.2813396,201.8854980,52.9541969,151.2977142
600,4.9104824,3.6846576,8.1282730,0.2061069,-6.0763359,-0.7480916,-10.8935623,-3.3327117,12.9573536,212.0305328,55.9847336,170.4274750
610,4.8195033,3.7684543,8.2551651,0.8702290,-6.0687022,-0.4045801,-10.0508070,-3.0286496,11.6309719,216.2137451,57.9236641,185.4885559
620,4.7476778,3.7756367,8.1977043,1.3129771,-6.2290077,-0.1374046,-9.4690189,-2.1523764,10.9198980,217.8396912,61.8549614,201.9465637
630,4.7093706,3.8115497,8.0947542,2.4656489,-6.3587785,0.2137405,-9.0883436,-1.9560528,10.0603838,220.7709961,63.3587799,219.1908417
640,4.6279683,3.9288650,7.9032192,2.9389312,-5.8320613,0.8320611,-8.4371233,-1.8650736,9.2750902,225.2900696,62.3587799,237.0992432
650,4.6878228,3.9982965,7.9415264,2.3358779,-5.5725193,1.6564885,-7.3501616,-1.9584470,7.9606800,230.4732819,61.8625946,250.1297760
660,4.7261300,3.9887197,7.9151902,2.2290077,-5.3282442,1.8854961,-6.2584114,-1.9345051,6.7468257,235.2137451,67.8473282,250.1297760
670,4.7907729,3.9073172,7.9032192,2.3587787,-5.4045801,1.7480916,-5.0972295,-1.7453641,5.2959471,236.0686951,77.6183243,250.1297760
680,4.7788019,3.9144998,7.8768835,2.5496182,-5.4580154,1.9389313,-3.6966286,-1.4628497,3.9097114,231.1526642,87.0000000,250.1297760
690,4.7859845,3.9504125,7.9654684,2.3893130,-6.0687022,1.6335878,-2.5498118,-0.9313397,2.6575503,220.6183167,95.7328262,250.1297760
700,4.9056940,3.9719603,7.8888540,2.3129771,-6.4732823,1.4809160,-1.5298871,-0.5267217,1.7357874,205.3740387,105.0457993,250.1297760
710,5.0206151,3.9336534,7.8816719,2.2519083,-6.5648856,0.6717557,-0.8810617,-0.1388630,0.9313397,187.5725250,106.2977066,250.1297760
720,5.0062504,3.9623835,7.8625183,1.9694656,-7.1526718,-0.2671756,-0.1029501,0.2059003,0.3399749,168.7786255,103.1297684,250.1297760
730,5.0301919,3.9432299,7.8625183,1.8854961,-7.7862597,-0.8167939,0.9576758,0.3734936,-0.0478838,149.3358765,99.6030502,250.1297760
740,4.9511838,3.9288650,7.8912482,0.9083970,-7.0458016,-1.1221374,6.5169835,0.7829000,1.1228749,84.3969498,75.0381699,250.1297760
750,4.9751258,4.0270267,7.8744893,1.3129771,-6.8854961,-1.0839695,8.0540533,0.9552816,1.2856797,78.2519073,60.6030540,250.1297760
760,4.9463954,4.0078731,7.7356262,1.4427481,-5.8702292,-0.7786260,9.6126709,1.0414724,1.0821736,72.8549652,44.3511467,242.2213745
770,5.0206151,4.0222383,7.6805596,0.6183206,-4.9465647,-0.6641222,14.2957048,1.5586174,0.3375807,57.2824440,5.5190840,177.6564941
780,5.0206151,4.0198441,7.7332320,0.2595420,-4.2137403,-0.6717557,16.8503056,1.3144100,-0.4501076,47.8473282,-1.9236641,132.4427490
790,5.0301919,3.9504125,7.7212610,-0.5419847,-3.6183207,-0.7099237,18.5406036,1.6998745,-1.3431402,25.0534344,12.1908398,27.7557259
800,5.0182209,3.9599893,7.8170285,-0.7175573,-3.9694657,-1.1526718,18.6698895,1.4604555,-1.6352314,16.5038166,35.3282433,-19.9694653
810,5.0206151,3.9839313,7.6853480,-0.9465649,-4.3511453,-1.4198474,18.0737362,1.2952565,-1.7573351,10.9465647,73.8854980,-64.2137375
820,4.9751258,3.9456241,7.7523856,-0.9389313,-4.7175574,-1.5267175,17.4057579,0.9026094,-1.7262106,5.7175574,110.1755753,-103.5648880
830,4.8865409,3.9911139,7.9032192,-0.8015267,-5.5114503,-1.5725191,17.2812595,0.1077385,-1.7070571,-0.0839695,136.7786255,-140.4885559
840,4.7500720,4.0246325,8.4610653,1.4656489,-9.5648851,-1.4656489,16.6803188,-0.6871324,-1.5274929,-8.2290077,139.7099304,-181.9618378
850,4.7931671,3.8642218,9.0907373,9.8320608,-18.0610695,-1.1145039,15.9764261,-1.7453641,-1.7573351,-20.8396950,106.1984711,-227.4122162
860,4.7165532,3.6702924,9.2966375,19.5496178,-26.1450386,-0.1297710,15.2845058,-2.4277081,-2.0254843,-37.4656487,62.1374054,-250.1374054
870,4.6399393,3.3183465,11.1808643,30.3511448,-51.5114517,-0.1450382,14.2957048,-3.3853838,-2.2242019,-58.5572510,19.2977104,-250.1374054
880,4.6159973,3.1315999,12.9142580,55.9541969,-81.7557220,-0.8854962,13.7067347,-4.6638808,-2.1547706,-80.5496216,-9.1526718,-250.1374054
890,4.3550305,2.9209111,12.1816359,89.8320618,-99.3053436,-0.2061069,13.2494440,-6.0525107,-1.5897418,-98.6412201,-15.6412210,-250.1374054
900,4.4723458,2.7940190,10.4889441,114.6259537,-95.8015289,2.9007633,12.2390966,-7.1993275,-0.6584021,-107.2671738,-0.0076336,-250.1374054
910,4.3143296,3.0238612,8.2527714,122.5190811,-81.4198456,8.7251911,10.5607700,-8.3724804,0.4477134,-104.7938919,29.7862587,-250.1374054
920,4.2640514,3.3925664,6.1243367,117.0839691,-57.7022896,20.2290077,8.5185261,-9.9550400,1.7717001,-88.4274826,62.3740463,-250.1374054
930,4.7692256,3.0980811,5.2696109,103.4274826,-31.4656487,33.7175560,5.4587522,-11.6668854,1.9057748,-65.1755753,89.6259537,-250.1374054
940,4.8362627,4.2616572,5.3749552,95.2824402,-15.5038166,43.4732819,-0.6177009,-14.0706511,1.5370697,-38.9771004,79.8091583,-250.1374054
950,5.3605900,4.7476778,6.9790621,90.6259537,-24.3435116,50.7022896,-8.9877872,-16.3666782,0.9193687,-24.4198475,26.5496178,-250.1374054
960,6.5121951,4.5034704,7.5991573,102.7709961,-40.8320618,47.9160309,-19.6131992,-19.1894283,0.6895266,-30.3816795,-51.4351158,-250.1374054
970,7.2735476,4.9775200,6.8809004,113.9770966,-44.6412201,39.2213745,-19.6131992,-18.6651001,1.1156923,-70.2061081,-125.6183243,-250.1374054
980,8.1186962,5.4779053,5.9208307,117.6106873,-33.7786255,30.0610695,-19.6131992,-10.7499104,4.4124913,-143.1984711,-163.3740387,-250.1374054
990,8.8896255,5.9735026,5.0493455,113.2137375,-16.3740463,22.1068707,-19.6131992,-3.0478032,8.3844519,-222.2824402,-181.3511505,-250.1374054
1000,9.4378948,6.4595232,3.8761928,100.3587799,10.8167934,13.6488552,-19.6131992,-3.3566537,15.0570574,-247.1755676,-94.1908417,-84.8167953
1010,9.4618368,6.6941538,2.3558824,82.0687027,47.3740463,4.3893127,-19.6131992,-4.6327567,19.6126022,-203.2824402,56.2137413,96.6717529
1020,9.0931320,6.7683735,1.0462608,52.7862587,86.0381699,-4.1374044,-19.6131992,-4.1371593,19.6126022,-114.8244247,206.4351196,199.2213745
1030,8.5879574,6.6390872,0.9073978,20.2977104,118.3206100,-11.8091602,-19.6131992,-2.8826041,19.6126022,-26.6183205,250.1297760,230.9847260
1040,8.2312231,6.5433197,1.0366840,-8.9541988,144.9618378,-17.6335869,-18.0569763,-0.1077385,19.6126022,46.7709923,210.1603088,206.5648804
1050,7.6494355,6.4116392,0.8643024,-36.8549614,169.9618378,-21.4656487,-11.6309719,1.2665262,17.9923344,101.5267181,97.7862625,151.4045868
1060,7.0125809,6.5672617,0.5506636,-67.3053436,194.2900696,-24.6870232,-7.2472115,2.9017577,11.8057480,136.2977142,-5.3358779,91.1908417
1070,6.7372489,6.9551206,0.9145803,-98.0000000,214.6030579,-31.5954189,-5.7292953,4.2760224,6.4810710,146.8396912,-62.9465637,43.1832047
1080,5.1858144,6.7396431,0.1675933,-131.9541931,237.4427490,-41.1908379,-5.8178802,5.1283536,2.0805507,136.9160309,-75.1603088,16.3435116
1090,4.9607606,6.1650376,1.2401901,-167.0763397,250.1297760,-44.9541969,-6.3134775,5.7939386,-0.6488253,111.4885483,-59.7251892,8.0763359
1100,5.0996237,5.9854736,2.0206959,-196.6641235,250.1297760,-52.5114517,-6.2296810,5.7963328,-1.8052188,79.1984711,-42.3740463,8.7328243
1110,5.1331420,5.4300218,2.0159075,-228.4580078,250.1297760,-66.7328262,-5.4156566,5.2097564,-1.3838415,47.8091621,-40.6793900,8.6030531
1120,3.6176202,4.1970143,2.5569944,-250.1374054,250.1297760,-87.8473282,-4.4723458,4.5633249,-0.3423691,25.6412220,-50.6259537,3.8625953
1130,0.8283895,1.4843974,5.6838059,-250.1374054,186.8244324,-113.4274826,-3.3566537,4.1395535,0.5458752,11.8854961,-62.6335869,-3.7022901
1140,-2.5881188,-0.8834559,12.2438850,-250.1374054,66.3740463,-133.7480927,-2.5665710,3.6918402,1.4963684,5.5038166,-71.1755753,-15.5038166
1150,-5.7628140,-2.2409613,19.6126022,-199.0686951,-97.4580154,-130.3740387,-2.4468615,3.4141142,1.9273225,3.8549619,-68.3587799,-26.9923668
1160,-5.5353661,-2.7820482,19.6126022,-97.3282471,-245.8931274,-101.3740463,-3.4165084,3.1387823,2.0853391,4.6946564,-55.4122124,-33.8244286
1170,-2.9400647,-2.1427996,19.6126022,12.1297712,-250.1374054,-67.3358765,-4.4268565,2.8371146,2.0254843,4.6717558,-41.3664131,-37.0381660
1180,1.4389079,-0.7493813,19.6126022,109.8549652,-250.1374054,-40.6412201,-5.2097564,2.5857246,2.0135133,2.0305343,-25.9923668,-35.9541969
1190,4.0030847,-1.2162483,19.6126022,210.4351196,-157.9160309,-28.5343513,-6.0980005,2.1260402,1.9632354,-3.2061069,-9.3435116,-33.4885483
1200,3.8761928,0.3782819,17.0729656,250.1297760,-31.2595425,-15.0916033,-6.9407554,1.7693061,2.3415172,-10.4580154,5.0229006,-31.6564884
1210,3.6559272,2.2984219,13.9293938,250.1297760,66.3129807,12.5496187,-7.9822278,1.6711442,2.8251436,-18.8320618,12.9083967,-27.5267181
1220,3.1148405,4.1994085,10.4554253,250.1297760,66.8931274,41.7480927,-8.5711985,1.5897418,3.4117200,-27.4427490,12.8931293,-24.8244267
1230,4.8865409,4.2568688,5.8011212,228.0992432,77.7022934,57.5725174,-8.9446917,1.6088953,4.2927818,-33.9236641,6.3435116,-20.9465656
1240,5.7316895,4.0653338,3.3207407,180.7557220,109.1908417,55.7709923,-8.9949694,1.6831152,5.0924411,-37.0381660,-4.9465647,-16.8396950
1250,5.7556314,4.3741841,2.0230901,144.1145020,138.9160309,43.9083977,-8.6885138,1.7477583,5.8992829,-35.5801544,-16.8549614,-13.8854961
1260,5.3725610,4.8697815,1.1947005,116.7404556,152.1679382,32.6564903,-8.0277176,1.6184721,6.4523406,-30.4427490,-27.7251911,-14.0305347
1270,5.2743993,5.3031297,0.0742199,93.9923630,152.0763397,20.7633591,-7.4962072,1.5681942,6.7228842,-23.6335869,-38.4961815,-16.1374054
1280,5.0493455,5.4228392,-0.7398046,68.5190811,148.4809113,9.8091602,-6.8569584,1.6232605,6.8090749,-16.1526718,-50.3358765,-22.4961834
1290,4.7955613,5.5042415,-1.2258250,43.0228996,143.9160309,1.8244275,-6.6103573,1.9177457,6.8880830,-9.4351149,-59.6564903,-28.0381680
1300,4.5130472,5.4563580,-1.3742647,18.3435116,134.4122162,-3.4885497,-6.7899213,2.1811066,6.5935979,-4.0916033,-67.2519073,-33.0000000
1310,4.0820932,5.3917146,-1.2162483,-4.3511453,118.6030502,-7.9618320,-6.7923155,2.0326669,6.2009506,-0.3129771,-69.6183243,-33.9541969
1320,3.5553713,5.2552457,-1.1252691,-26.4122143,95.4809189,-10.9770994,-7.0891948,1.7549409,5.7412663,1.8931298,-65.1145020,-35.0076332
1330,3.4500270,5.1092005,-0.7182568,-47.2900772,67.5419846,-13.0458012,-7.4483232,1.6208663,5.4826937,2.7633588,-59.6183205,-36.1526718
1340,3.2752512,5.0876527,-0.2753318,-66.0839691,36.0152664,-15.0839691,-7.8457589,1.7932479,5.2049680,1.8931298,-49.4503822,-35.7022896
1350,3.2369442,4.8913293,0.0670373,-84.2519073,5.2671757,-17.6259537,-8.3748751,1.8626794,4.9200592,-0.9694657,-38.7786255,-31.9236641
1360,3.2632802,4.8003497,0.4333483,-104.3511429,-25.3587780,-20.5114498,-8.7483683,1.7740943,4.6040263,-6.0992365,-29.0534344,-27.2748089
1370,3.4332676,4.9104824,0.9983770,-125.0076370,-57.0152664,-23.1755733,-8.9782104,1.9680238,4.6471219,-13.0992365,-24.4198475,-21.5648861
1380,3.8761928,4.4124913,1.9847831,-146.0839691,-82.9770966,-26.8931293,-8.8441362,2.0063307,4.7524662,-20.5954189,-25.9083977,-17.3129768
1390,4.4340386,4.0629396,3.1675127,-166.7099304,-102.5419846,-30.1832066,-8.8608952,2.0470319,5.0541339,-27.0381680,-28.9847336,-12.7938929
1400,4.7524662,3.6846576,4.8458395,-186.0915985,-113.3358765,-34.2137413,-10.5152798,1.8315549,5.6957769,-38.6564903,-75.0763321,-14.8625956
1410,4.9847026,3.2991931,7.2543941,-199.6030579,-118.6183243,-37.7251892,-15.2270451,2.9065459,6.4236102,-67.1832047,-164.5190887,-30.1297703
1420,5.2025738,2.6336083,8.9997578,-204.4274750,-117.5954208,-45.0534363,-17.4751892,2.4803803,7.1203194,-85.3282471,-197.1068726,-12.7633591
1430,12.7969427,8.0372944,15.0450869,-240.7022858,-26.7786255,-62.8854980,-14.4944229,1.6352314,8.5257082,-79.1984711,-166.6946564,27.4503822
1440,10.7283630,5.8466105,19.6126022,-250.1374054,14.6335878,-111.2137375,-9.1003141,1.4556671,9.4690189,-51.6106873,-108.6412201,48.8854980
1450,9.6533718,2.8921809,19.6126022,-207.1603088,26.7099228,-160.6946564,-5.6622581,1.8267666,8.8441362,-13.4961834,-39.3282433,47.3587799
1460,3.6487448,-0.9002152,19.6126022,-137.3893127,96.5343475,-170.1603088,-5.3965030,1.6855093,7.4243813,13.3358774,7.6793895,37.3969460
1470,-1.8578910,-0.7757174,19.3761749,-51.4580154,170.3969421,-123.5419846,-6.2631998,1.7669119,6.0525107,20.5725193,20.5038166,27.0916023
1480,-4.7189474,-0.5530578,14.6500454,20.7786255,206.6946564,-53.8015251,-7.3118544,2.3247581,4.9847026,13.0458012,13.5725193,17.2977104
1490,-5.6071916,-0.2178712,11.3269100,62.2137413,183.1755676,4.7328243,-7.6063399,2.4971397,4.2640514,-5.1908398,-3.0839694,12.2977095
1500,-4.6327567,1.3191984,8.3222027,75.1526718,132.3664093,37.4732819,-7.1251078,2.4109488,3.9121056,-28.1908398,-8.0381680,11.0916033
1510,-3.0885043,3.2369442,5.9782910,66.6183243,85.2977066,35.4045792,-7.1179252,2.6120608,4.4124913,-47.6106873,2.1068702,15.4427481
1520,-2.7581062,4.2616572,4.7476778,46.9771004,36.7099228,27.1145039,-7.3046722,2.4061604,5.4180508,-61.1603050,8.0458012,19.6793900
1530,-2.4205256,3.3925664,4.6064205,23.5343513,-10.0916033,28.4503822,-7.2017217,2.0733681,6.5361371,-66.4351120,7.3816795,23.4274807
1540,-1.3455344,2.8466914,5.3486195,-1.3969465,-34.6641235,31.7633591,-6.8018923,1.5298871,7.7835097,-65.0916061,2.4732823,22.7328243
1550,-0.3399749,2.9304879,6.3110833,-24.9236641,-38.1526718,35.6335869,-6.4044566,1.2210367,8.6645718,-59.0381660,-3.4885497,18.4274807
1560,1.3479286,3.5362179,8.1450329,-39.1450386,-36.3816795,36.4122124,-6.0022330,0.9888002,9.2200232,-49.8244286,-7.5572519,12.8015270
1570,3.2967989,4.0773048,10.0603838,-44.0381660,-35.4274826,20.3740463,-5.6957769,0.8762733,9.6390066,-38.2595406,-10.8244276,5.3740458
1580,4.0988522,3.8618276,11.0850973,-41.2213745,-24.0992374,-8.4198475,-5.5114241,0.8307837,9.8089943,-26.2748089,-13.7557249,-1.7251909
1590,3.0980811,3.0789278,11.0563669,-33.4274826,-10.5114508,-33.9923668,-5.3941088,0.7637464,9.8305416,-14.0992365,-17.2900772,-10.5954199
1600,1.1851238,2.3151813,10.3309278,-25.0000000,-5.3511453,-44.1679382,-5.6526814,0.8978211,9.6222477,-0.8091603,-13.4427481,-19.0839691
1610,-0.1843526,2.0637913,9.7060442,-19.6564884,-10.6030531,-40.0839691,-6.6773944,1.1276633,9.0715837,11.9694653,-6.8473282,-24.6183205
1620,-0.5578461,1.8985922,9.5815458,-17.3587780,-20.1908398,-31.6717548,-7.4148049,1.2066715,8.1905222,21.1984730,1.2519084,-24.6259537
1630,-0.5362985,1.8674678,9.8616667,-16.3053436,-28.1832066,-24.5038166,-7.8744893,1.4029950,7.6326761,26.8015270,10.7251911,-21.8931293
1640,-0.1364688,1.9704180,10.2016411,-13.8167934,-32.3358765,-18.0152664,-8.1210909,1.6328372,7.0149751,29.1068707,20.3282452,-16.6259537
1650,0.2657550,1.9297167,10.5823174,-9.5343513,-32.4503822,-13.7022905,-8.0851774,1.6639616,6.6271162,28.9465656,26.8549614,-11.8854961
1660,0.6464311,1.8052188,10.9198980,-2.2900763,-29.1068707,-10.1450386,-8.0133524,1.6807210,6.2943239,27.4885502,30.5572510,-7.0076337
1670,1.0342898,1.8291607,11.0276365,6.0916033,-25.5572510,-5.6717558,-7.7859039,1.7740943,6.1961622,24.1832066,30.0687027,-4.6641221
1680,1.4867916,1.6974803,10.7666702,13.2061071,-20.9007626,-1.4351145,-7.5393028,1.7717001,6.1841912,20.0000000,27.1908398,-4.6030536
1690,1.8171898,1.8435259,10.2998028,16.8778629,-16.9770985,1.7022901,-7.2615767,1.8100072,6.2967181,17.4351139,25.3053436,-4.2442746
1700,2.2194135,2.7820482,9.1793222,12.0229006,-17.6793900,-3.6946564,-7.3429790,1.8531027,6.4427638,13.1755724,21.9465656,-14.9923668
1710,2.0925217,2.9520357,9.1434097,10.0458012,-16.6870232,-6.0076337,-7.5704269,1.8938038,6.5935979,13.7175570,22.0381680,-18.7557259
1720,1.9177457,3.0765336,9.3157911,6.7786260,-13.1450386,-6.9236641,-7.8457589,1.9704180,6.6893654,15.3358774,21.4580154,-22.3740463
1730,0.9816177,2.9544299,9.5288744,4.8320613,1.4045801,4.9389315,-10.7068148,1.9273225,6.3853035,19.9312973,0.7633588,-41.0381660
1740,0.9888002,3.0501974,9.2008705,5.2824426,10.0610685,22.4885502,-14.7170830,1.4197544,7.0389171,-6.4809160,-27.0458012,-25.6793900
1750,1.1587877,3.0621684,9.2080526,3.1374047,11.5648851,25.3969460,-16.1272602,1.0773853,7.7140784,-15.2290077,-33.4961815,-14.4122133
1760,1.3215926,3.0525916,9.2631187,1.8167939,12.8015270,26.3816795,-17.1878853,0.7709290,8.6765423,-19.0152664,-40.4656487,3.3893130
1770,1.4077834,3.0693510,9.3995876,0.9236641,11.9312973,26.0152664,-17.6882725,0.4788379,9.7587166,-18.4045811,-44.9007645,24.1984730
1780,1.5681942,3.0382264,9.5073261,0.8167939,10.3206110,24.8167934,-17.7074261,0.4429250,10.6685085,-12.3206110,-47.3435097,45.2748108
1790,1.9153515,2.9640064,9.6246414,1.5038168,5.1755724,22.8625946,-16.5989151,0.3447633,11.8344784,17.5572510,-49.9007645,87.9618301
1800,2.0183017,2.8323262,9.6844959,2.7251909,3.4274809,20.7099228,-15.3323889,0.3495516,11.6668854,36.3740463,-45.5725174,106.4809189
1810,2.0039365,2.8083842,9.5647869,4.1221375,0.5038168,19.0076332,-13.6780043,0.5482694,11.2335367,54.8549614,-38.2061081,121.8625946
1820,1.9728121,2.7509236,9.5647869,6.8244276,-1.0000000,16.4274807,-12.1912127,0.4716553,10.4530315,71.0839691,-30.4885502,133.1603088
1830,1.8147956,2.7988074,9.4618368,9.4732828,-2.1908398,17.2290077,-10.9175043,0.2561783,9.4474716,83.5801544,-17.8244267,139.3282471
1840,2.0230901,2.9328821,9.2583303,11.0763359,0.0381679,17.6030540,-10.2279778,0.5075682,8.8154058,90.6183243,-6.0458016,141.5114441
1850,2.1858950,3.1148405,9.0548248,9.7938929,2.4351146,15.1450386,-10.2998028,0.9576758,8.2384062,92.4503784,2.2442749,143.0686951
1860,2.2409613,3.1315999,9.1505919,7.0076337,3.7786260,12.7404585,-10.3333216,1.2976507,7.7332320,94.6488571,5.2595420,148.1679382
1870,2.1427996,3.1627243,9.2080526,5.6946564,4.6564884,10.7099237,-10.2399483,1.3072275,7.3693151,94.5419846,4.9618320,155.5572510
1880,2.1164634,3.0741394,9.1817169,5.4198475,5.9847326,9.6335878,-9.9310980,1.5610116,7.1083484,93.6564865,3.8320611,164.1984711
1890,2.0494261,3.2010312,9.1817169,5.3893127,5.7099237,8.6412210,-9.5743637,1.6304430,6.7899213,90.9465637,3.3816793,174.1374054
1900,2.0709739,3.1699069,9.2846670,5.2824426,4.2061067,7.5725193,-8.9973640,1.4029950,6.7157016,90.4961853,3.9465649,183.1526642
1910,1.9201399,3.0789278,9.4091644,5.6106873,2.1755726,6.0992365,-8.3078375,1.7645177,6.6654234,94.0076370,3.1603053,189.9389343
1920,1.8531027,3.0310438,9.3564920,5.8320613,2.0687022,5.6106873,-7.7092900,1.7262106,6.5672617,97.7175598,2.2366412,197.4351196
1930,1.7190280,2.9664006,9.4019823,5.8702292,2.9923663,6.0916033,-6.8066807,1.7022687,6.2248926,101.3740463,1.3282443,203.1297760
1940,1.4532729,2.8251436,9.4522600,5.3816795,5.0763359,8.4274807,-5.7771792,1.9345051,5.9280128,105.0992355,0.0916031,205.4885559
1950,0.9983770,2.7317703,10.1992474,5.1221375,12.4274807,17.8473282,-3.8474624,2.5522060,5.0517397,108.3358765,-2.3587787,200.1755676
1960,0.9624642,2.6000898,10.5368280,8.9618320,15.2595415,21.0076332,-3.2153964,3.0118904,4.7692256,105.8320618,-8.4885492,194.4885559
1970,0.3782819,2.4947455,10.5942879,14.4351149,11.8320608,25.3893127,-2.6695213,3.5146701,4.2927818,101.8244247,-15.5572519,189.9618378
1980,0.2418131,2.4492557,10.8504667,20.6641216,6.8015265,32.7786255,-1.9225341,3.7109938,4.0796990,97.7022934,-23.8473282,184.1145020
1990,0.2226596,2.3343346,10.8480721,31.3587780,0.5419847,39.5190849,-1.0893562,3.6271970,3.8426740,93.6412201,-28.8549614,176.8931274
2000,0.1412572,2.3917952,10.4626083,42.6641235,-7.0610685,45.3282433,-0.2059003,4.1802549,3.5625539,93.2748108,-29.3893127,166.3740387
2010,0.0239419,2.5857246,9.8856087,51.7404594,-15.1145039,52.7709923,0.2489957,4.7716198,3.4907281,89.8091583,-28.1755733,155.4198456
2020,0.4405309,2.8826041,9.0979195,56.0381660,-23.3053436,59.2137413,0.6200951,4.9607606,3.0358322,89.7404556,-26.2061062,146.6564941
2030,1.1061156,3.2225790,8.3581152,55.5343513,-26.9923668,61.9923668,1.0127422,5.2863703,2.7772598,88.1297684,-22.8778629,140.0992432
2040,1.6495966,3.5410061,7.8912482,50.9160309,-29.8167934,61.8778610,1.5131277,5.6191626,2.3750360,83.8244247,-18.8778629,133.4351196
2050,2.1835008,4.0509686,7.9247670,44.9847336,-34.6641235,59.2519073,1.9680238,5.8011212,2.1715298,80.0000000,-15.8702288,126.3358765
2060,2.8514795,4.2999644,8.1617918,41.2977104,-38.7862587,53.0305328,2.4708035,5.9399838,2.0470319,76.1908417,-12.5343513,120.3664093
2070,3.3255291,4.4292507,8.4155760,39.0152664,-43.5038185,44.9312973,2.9664006,5.9351954,2.0063307,72.5725174,-9.1221371,111.8854980
2080,3.5434003,4.4651632,8.5496502,38.8091621,-49.7404594,36.2824440,3.3638363,6.0525107,1.9033806,69.5572510,-6.6335878,100.9542007
2090,3.7205703,4.3263001,8.4179697,40.4656487,-58.1603050,21.2900772,4.0844874,6.4834652,1.6998745,61.1755714,0.5725191,73.7709961
2100,3.9312592,4.4100971,7.0030041,17.9236641,-45.8549614,12.5648851,4.3454537,7.0748301,0.8882443,40.7022896,-12.9083967,42.1832047
2110,4.1802549,4.3286943,7.5033898,0.1832061,-27.0992374,7.5725193,4.8410511,7.1298962,0.3734936,26.1221371,-21.9160309,22.7938938
2120,4.2712340,4.3167233,8.4874020,-6.6259542,-13.5877867,3.4198472,4.9631548,7.0077925,0.1675933,7.2671757,-26.7938938,1.9312977
2130,4.1874375,4.1682839,8.6095057,-6.3893127,-8.3282442,0.2213740,4.9080882,6.9910331,0.2825144,-2.2671757,-28.7328243,-7.1603055
2140,3.9575951,3.9935081,8.7483683,-5.3206105,-4.0076337,-1.5954199,4.9152708,6.7611909,0.4070122,-12.5648851,-30.0458012,-14.8778629
2150,3.7636659,3.8307030,8.6885138,-4.5801525,-0.5190840,-2.0381680,5.0948353,6.6223278,0.4070122,-21.5648861,-31.1984730,-23.6335869
2160,3.5386121,3.8546450,8.7603388,-3.7404580,1.3969465,-1.2748091,5.0996237,6.3230543,0.5410868,-30.7099228,-30.2977104,-31.6183205
2170,3.3518653,3.6822634,8.6118994,-3.1832061,1.6259542,-0.4198473,5.0589223,6.0046272,0.6536137,-38.0687027,-29.2213745,-40.2977104
2180,3.4572096,3.9240766,8.9063845,7.6946564,-4.9160304,2.0992367,3.3111639,3.0885043,0.3519458,-69.8778610,-84.6793900,-203.3511505
2190,3.2896163,3.9504125,8.7483683,9.0992365,-4.7557254,2.3587787,2.8610563,2.4755919,-0.0383070,-85.7709961,-121.4656525,-218.3664093
2200,3.4117200,4.0485744,8.5376797,9.6030531,-5.3664122,2.6717558,2.8227494,1.8363433,-0.6943150,-105.5496216,-147.2213745,-228.2748108
2210,3.4835455,4.1180058,8.3820572,9.6488552,-6.0992365,1.7404580,3.0980811,0.9600700,-1.1827296,-125.8244247,-154.3511505,-232.2595367
2220,3.5697365,4.1826491,8.3700867,8.9923668,-7.1832061,0.7099237,3.8905578,0.1651991,-1.3120158,-141.8931274,-138.4809113,-230.8931274
2230,3.6463506,4.2018023,8.3126259,8.1908398,-9.0916033,-0.7786260,4.5417776,-0.1149211,-1.2832855,-153.5114441,-91.9389343,-229.2366486
2240,3.6702924,4.2784166,8.2527714,7.4351144,-9.7862597,-1.9312977,5.1738434,-0.5482694,-0.9337339,-156.7786255,-25.6106873,-227.9923706
2250,3.8378856,4.3741841,8.2910776,6.4351144,-9.9083967,-3.8320611,5.7819676,-0.8834559,-0.8236012,-151.5648804,59.6870232,-236.9694672
2260,3.8402798,4.3430595,8.1977043,4.9541984,-9.8320608,-6.2977099,4.3310885,-1.5131277,-0.2226596,-135.9160309,145.9847260,-250.1374054
2270,3.8785870,4.2425036,8.1761570,3.8396947,-9.2442751,-8.6793890,1.3311694,-2.8658447,-0.0311245,-109.1068726,192.9160309,-250.1374054
2280,3.8761928,4.2640514,8.2862902,2.8396947,-9.0992365,-10.8396950,-2.9879484,-4.5417776,-1.4604555,-85.5572510,156.7404633,-250.1374054
2290,3.7684543,4.2089849,8.2934723,1.7328244,-9.8931293,-12.8396950,-7.6183109,-6.5002246,-5.0541339,-106.7099228,67.2442780,-250.1374054
2300,3.7229645,4.1778607,8.4778252,1.8167939,-10.3740454,-14.4580154,-15.5311069,-10.1489687,-8.9638453,-208.0992432,-15.8931293,-250.1374054
2310,3.6080434,4.2018023,8.5352850,1.9312977,-11.0839691,-15.1755724,-19.6131992,-10.7906122,-5.9256191,-250.1374054,-38.0763359,-250.1374054
2320,3.4739690,4.0964580,8.5903521,3.1068702,-11.6259546,-15.3129768,-19.6131992,-8.3389616,7.1682034,-250.1374054,9.7633591,-250.1374054
2330,3.3135581,4.1347651,8.5568333,4.3282442,-12.1374044,-13.7251911,-19.6131992,-6.9263902,19.6126022,-250.1374054,96.7633591,-153.5114441
2340,3.2896163,4.1898317,8.4802189,4.9465647,-10.5419846,-10.9083967,-19.6131992,-11.1066446,19.6126022,-250.1374054,111.9007645,21.5267181
2350,3.2058196,4.2808108,8.3198080,4.9770994,-7.2595420,-8.0992365,-19.6131992,-10.6589317,19.6126022,-245.7404633,94.8625946,162.2137451
2360,3.2225790,4.2544746,8.2647419,3.8931298,-3.9160306,-5.3587785,-19.6131992,-7.6685886,19.6126022,-12.8778629,151.4885559,215.8549652
2370,3.3063757,4.3143296,8.2647419,3.0000000,-0.2061069,-2.4274809,-18.6962261,-6.4954362,19.6126022,175.6106873,238.9465637,226.1068726
2380,3.3015873,4.4148855,8.2120695,2.5419848,3.0000000,0.3511450,-11.6716738,-4.0509686,19.6126022,250.1297760,250.1297760,210.5190887
2390,3.3901722,4.3741841,8.3174143,2.3206108,4.9236641,2.1908398,-6.5959921,-1.6639616,16.8119984,250.1297760,223.7786255,166.2519073
2400,3.5841017,4.4196739,8.5185261,2.5267177,7.6717558,5.4885497,-2.2888451,2.7581062,0.8714849,250.1297760,108.1908417,45.8473282
2410,3.7229645,4.3143296,8.5544386,3.0916030,8.0000000,8.7633591,-3.0190730,4.0461802,-5.1738434,250.1297760,46.4274826,-9.9770994
2420,4.0796990,4.3909435,8.6095057,4.3511453,8.9541988,10.4961834,-6.4188218,4.7955613,-8.1785507,192.4580078,22.3969460,-37.1526718
2430,4.7620430,4.8075323,8.2312231,7.0229006,8.9236641,-1.2061069,-11.5399933,6.7157016,-7.8960366,53.7251892,-43.3435097,-17.2671757
2440,4.4962878,5.0062504,7.7308378,3.5038168,11.6641226,-11.6335878,-10.3668404,6.3206601,-5.3270717,3.3435113,-84.0381699,2.0229008
2450,4.2401094,4.9152708,7.3597383,-2.7175572,15.2290077,-19.6030540,-8.4850073,5.4491754,-2.9472473,-27.5954189,-109.7022934,14.0687027
2460,3.8211265,4.5106530,7.0149751,-8.3816795,17.4274807,-23.4427490,-6.6941538,4.5130472,-1.2713146,-40.4809151,-116.7557220,17.7938938
2470,3.4667864,4.3263001,6.8258343,-14.8625956,20.9389305,-23.0076332,-5.7221127,3.9121056,0.1508339,-40.5267181,-101.3358765,17.5877857
2480,3.2704628,4.4077029,6.9934273,-23.0839691,22.2748089,-21.0610695,-5.1810260,3.6200144,1.0055596,-34.3206100,-73.2977066,19.3053436
2490,3.2560976,4.4747400,7.4459291,-29.4885502,22.9083977,-20.1908398,-4.9320302,3.4619980,1.7309990,-26.6030540,-43.1221390,22.3893127
2500,2.9975252,4.4388270,8.1546097,-32.8931313,25.4503822,-20.9389305,-4.4891052,3.2704628,2.1595588,-20.7786255,-17.2366409,23.0000000
2510,2.7341642,4.4053087,8.6597834,-32.5648842,23.7786255,-20.5496178,-4.2137733,3.1818779,2.4803803,-17.7862587,-2.3511450,18.5343513
2520,2.4157372,4.2688398,9.0931320,-29.8702297,21.7404575,-19.3511448,-4.1419477,2.9735832,2.6144550,-16.8702297,2.3893130,11.6412210
2530,2.1739240,4.0318151,9.5192976,-25.1832066,18.3740463,-16.9465656,-4.1802549,2.8251436,2.9448531,-17.2519093,-0.9312977,3.3816793
2540,1.7693061,3.8450682,9.4953556,-19.8778629,13.9923668,-13.0839691,-4.0629396,2.8299320,3.0932927,-18.6793900,-7.8778625,-5.8473282
2550,1.5873476,3.6224086,9.4043760,-14.9618320,10.0458012,-7.3053436,-4.0844874,2.7437410,3.3901722,-21.1450386,-18.4045811,-17.1908398
2560,1.6902977,3.4524212,9.3301563,-10.7557249,8.8778629,-1.0381680,-4.2401094,2.5857246,3.4236910,-24.4961834,-28.3587780,-29.1984730
2570,1.8315549,3.4883339,9.5240860,-7.3129773,8.1679392,4.0916033,-4.3981261,2.5474176,3.4236910,-28.1221371,-35.8473282,-40.5496178
2580,1.9392935,3.5745249,9.6414013,-2.9083970,6.5343513,7.8396945,-4.9056940,2.4947455,3.4643922,-32.9465637,-43.5572510,-51.3358765
2590,2.0901275,3.7301471,9.6054878,1.6335878,6.0839696,11.0610685,-5.6838059,2.5953014,3.6631098,-39.5648842,-46.0763359,-58.9618340
2600,2.0901275,3.9480183,9.3133974,5.5801525,6.1450381,14.2977095,-6.4595232,2.7030399,4.0413918,-45.8244286,-42.8015251,-62.2442741
2610,2.2888451,4.0892754,8.9542685,8.1984730,4.3129773,15.5801525,-7.3764977,2.7150109,4.3406653,-50.6412201,-35.4732819,-60.8778610
2620,2.4372849,4.3717899,8.8034344,9.5038166,1.5419847,15.4045801,-8.0277176,2.7916248,4.7835903,-54.2748108,-27.1450386,-57.0152664
2630,2.5186872,4.5561423,8.5017672,10.2137403,-2.9923663,14.6564884,-8.5376797,2.9137285,5.2241216,-56.6106873,-22.3129768,-49.9847336
2640,2.6072724,4.6399393,8.2767134,10.0305347,-5.9083967,13.6946564,-8.7747040,2.8610563,5.8537931,-57.6946564,-19.2595425,-42.3816795
2650,2.8849983,4.6040263,8.1665802,8.5954199,-6.7938933,12.3740454,-8.9399033,2.5881188,6.4714942,-55.5343513,-18.9236641,-35.7557259
2660,2.9831600,4.5920553,8.1522150,5.7099237,-6.6106873,10.5648851,-8.7675219,2.3199697,6.8665352,-50.7862587,-20.1908398,-31.6106873
2670,3.0334380,4.4627690,8.1593981,3.0305343,-6.5343513,9.2977095,-8.4323349,2.1116750,7.2903070,-44.4656487,-23.0152664,-31.1068707
2680,3.2130022,4.2951760,8.3269911,1.1755725,-6.8625956,7.4656487,-8.2000990,2.0111191,7.3238254,-38.7175560,-27.7251911,-34.3282433
2690,3.2513094,4.0270267,8.4874020,0.2442748,-8.5877867,5.8625956,-8.3150196,1.9297167,7.4339581,-33.8854980,-28.8702297,-38.6717567
2700,3.2896163,3.9073172,8.7196379,0.3282443,-11.3053436,4.6717558,-8.5783806,1.9536586,7.5105724,-28.9847336,-27.8167934,-40.9389305
2710,3.4643922,3.6200144,8.8944139,1.6335878,-13.6564884,3.5190840,-8.8680773,1.9776005,7.4267755,-24.0992374,-24.6183205,-40.7175560
2720,3.7205703,3.5266411,8.9542685,3.1679389,-14.2519083,2.2900763,-9.1745338,1.9297167,7.4339581,-19.2977104,-20.9770985,-39.2442741
2730,3.8211265,3.5074875,8.9470863,4.4198475,-12.1450386,1.2824427,-9.2966375,1.8626794,7.2831244,-15.1221371,-15.6335878,-36.6412201
2740,3.9025288,3.5888901,8.9327211,4.8473282,-8.9083967,0.4580153,-9.5671806,1.9632354,7.0317345,-11.7099237,-10.6183205,-33.7328262
2750,4.0964580,4.0078731,8.6861191,5.4198475,-1.3587786,-2.2519083,-10.0172882,2.1236460,7.0053983,-6.8167939,-9.5038166,-25.8854961
2760,4.0485744,4.1323709,8.4874020,5.3893127,2.5877862,-4.5038166,-11.8368731,2.8035958,7.0676475,-11.7862597,-39.0763359,-27.6641216
2770,3.9192882,4.1563129,8.3509331,4.0381680,5.1450381,-7.4274807,-12.3372583,2.7293761,6.9551206,-26.5038166,-78.3969498,-32.5725174
2780,3.6271970,4.2640514,8.1689749,1.3511450,7.4961834,-9.7862597,-11.1066446,1.7238164,7.5201492,-22.1603050,-63.7633591,-17.6412220
2790,3.4236910,4.2879934,8.1378498,-1.6259542,8.6793890,-11.0305347,-9.7946291,1.9632354,7.7045016,-7.8931298,-38.6870232,-1.2519084
2800,3.0765336,4.3813667,8.2551651,-3.6259542,8.9007635,-11.7175570,-8.2982607,2.0853391,7.5584559,4.8473282,-14.2366409,5.5038166
2810,2.9376705,4.4364328,8.4059992,-4.8167939,9.9083967,-11.8473282,-7.7164726,2.2289903,7.1610208,15.5496187,11.4198475,4.4351144
2820,2.0494261,4.4627690,9.0548248,0.3358779,9.4961834,-7.7175574,-7.7906923,2.4468615,5.0661049,25.1908398,21.5877857,9.7175570
2830,1.7357874,4.4507980,9.2200232,3.8015268,7.2900763,-4.0381680,-7.4746594,2.3343346,4.7883787,19.7557259,17.8244267,8.7022905
2840,1.7142396,4.4436154,9.1673517,8.0687027,3.5267177,-1.8854961,-7.3118544,2.1308286,4.6614871,12.4274807,11.0839691,4.6946564
2850,1.3838415,4.3334827,8.9566631,12.3587790,-1.6183206,2.1145039,-7.1825686,2.1092808,4.9607606,7.0839696,5.9541984,-0.4427481
2860,1.4389079,4.2209558,8.5185261,15.8854961,-7.5648856,8.0000000,-7.3046722,2.0350611,5.2720051,3.4656489,-0.1755725,-3.8931298
2870,2.1954718,4.4795284,7.9151902,14.3587790,-13.5648851,15.2061071,-7.8505473,2.0877333,5.5114241,-0.8854962,-8.5114508,-7.8549619
2880,2.5354466,4.5800843,8.0061693,11.2748089,-15.7328243,16.0381680,-7.9846220,2.0494261,5.6862001,-1.6793894,-10.1068707,-8.4503813
2890,2.8634505,4.6112089,8.1139078,8.6717558,-15.3511448,15.8778629,-8.1139078,2.0159075,5.8035154,-1.5267175,-10.8244276,-8.3282442
2900,3.1555417,4.5322008,8.3988171,7.7099237,-14.4427481,15.3206110,-8.2647419,1.9967541,5.6119800,-1.2748091,-11.1145039,-8.7251911
2910,3.7014170,4.2568688,8.2767134,5.6717558,-7.3664122,7.9389315,-7.8481531,2.0566087,5.9495606,-0.5877863,0.3511450,-5.7328243
2920,3.7301471,4.2233500,8.2982607,4.2442746,-6.0000000,6.8473282,-8.0468712,1.9799947,6.1698260,1.2290076,1.0458015,-5.9236641
2930,3.8259149,4.1634955,8.3581152,3.3129771,-4.7022901,6.0152674,-8.0995426,1.9416877,6.1291251,3.7099237,5.3893127,-6.5648856
2940,3.8378856,4.2520804,8.4395180,2.9389312,-3.4351146,4.8549619,-8.1402445,1.9632354,6.0860295,6.0992365,9.9770994,-7.0152674
2950,3.8833754,4.2544746,8.5137377,2.9312978,-1.7862595,3.5572519,-8.2455883,1.9536586,6.2344694,9.1068707,16.6183205,-7.0458016
2960,3.8307030,4.3263001,8.5281029,2.9618320,-1.0839695,2.1679389,-8.4802189,2.0278785,6.2536230,12.6030531,20.2748089,-7.7099237
2970,3.7852135,4.3670015,8.4610653,3.2671757,-1.0076336,0.6030535,-8.5783806,2.0685797,6.1889796,15.7251911,21.7786255,-8.3664122
2980,3.6248028,4.3693957,8.3581152,3.6717558,-1.2213740,-1.1603054,-8.8537130,2.1116750,5.9304070,19.4427490,24.7862587,-8.7786255
2990,3.5410061,4.3861551,8.2815018,3.6106870,-1.9389313,-2.1221373,-9.1721401,2.2792683,5.7340837,21.3511448,25.9160309,-8.4503813
3000,3.3973548,4.4507980,8.2312231,3.2290077,-2.8778627,-2.6106870,-9.5408449,2.4660151,5.4108682,20.7633591,24.2366409,-8.5801525
3010,3.1339941,4.4986820,8.3772688,2.1450381,-3.4809160,-2.5190840,-12.1792421,2.7126167,5.3151007,7.3587785,-1.0992366,-7.0839696
3020,3.1100521,4.5322008,8.3940287,1.9923664,-3.2900763,-1.9770992,-12.9190464,2.8610563,5.2336984,-1.9847329,-18.1221371,-3.8167939
3030,3.1603301,4.5393834,8.3868456,2.5496182,-2.8091602,-1.3129771,-13.4194317,3.0406206,5.6431046,-13.0305347,-27.4198475,2.9618320
3040,3.1531475,4.5561423,8.3868456,2.3893130,-2.4122138,-0.8625954,-13.7450418,3.0789278,6.5026188,-20.4656487,-26.4503822,12.1984730
3050,3.2249732,4.6638808,8.3030491,2.0152671,-1.9770992,-0.0916031,-14.2645807,3.2249732,7.8218169,-20.2824421,-20.4351139,22.6717548
3060,3.2177906,4.5944495,8.2336178,1.7480916,-1.6030535,-0.1526718,-14.6691990,3.4859397,9.0739784,-13.1068707,-16.4045811,33.5496178
3070,3.3135581,4.6399393,8.1378498,1.3587786,-2.2213740,-0.2366412,-14.8343983,3.2249732,10.2399483,0.7480916,-21.4656487,43.1374054
3080,3.2513094,4.6136031,8.1713686,1.1068702,-2.4809160,0.2137405,-14.7458124,2.6695213,11.2048063,22.4885502,-29.9312973,48.2137413
3090,3.3590479,4.6543045,8.0564480,0.2900763,-2.7557251,-0.0152672,-14.4728756,2.3941894,11.5423870,49.1679382,-36.4809151,46.6717567
3100,3.2752512,4.6423335,8.1402445,-0.2137405,-3.5190840,-0.2671756,-14.3244352,2.8131726,11.3939476,76.1603088,-40.4351158,45.0534363
3110,3.3063757,4.5729017,8.1402445,-0.9770992,-3.7862597,-0.1221374,-14.6691990,3.0262554,10.3788109,97.9083939,-43.1450386,49.4351158
3120,3.3351059,4.5681133,8.1761570,-1.2671756,-3.4580152,0.3206107,-14.6548338,3.3327117,9.0572186,112.6488571,-39.5038185,61.9083977
3130,3.3231349,4.5274124,8.1929159,-1.2671756,-2.6259542,0.6183206,-14.5016060,3.4260850,7.7835097,118.2366409,-27.7404575,78.7938919
3140,3.4643922,4.4867110,8.3820572,-2.2442749,-1.2442749,1.2442749,-13.9940376,3.5410061,6.9551206,116.1221390,-6.3664122,97.7022934
3150,3.4835455,4.3358769,8.3916340,-2.2213740,0.3206107,1.2137405,-13.4529505,3.3686244,6.1339135,109.8549652,17.7480907,113.8854980
3160,3.4189026,4.4484038,8.4036045,-2.0916030,0.9541985,1.2748091,-13.0626974,3.1172347,5.7364779,100.2824402,36.8549614,126.1603088
3170,3.4643922,4.4364328,8.3389616,-1.6946565,-1.8167939,3.1832061,-5.0445571,-0.4261657,2.6072724,75.3893127,39.0687027,250.1297760
3180,3.4452386,4.3981261,8.3748751,-0.9770992,-1.7099236,3.0534351,-3.8307030,-0.5937590,2.2002602,72.1374054,51.5648842,250.1297760
3190,3.5769191,4.3191175,8.3844519,-0.1450382,-1.9923664,2.7480917,-2.4468615,-0.7158626,1.8914096,69.1832047,52.3664131,250.1297760
3200,3.5625539,4.3885493,8.3844519,-0.2213740,-1.1755725,2.1984732,-1.4604555,-0.4333483,1.3790531,65.0000000,53.1832047,250.1297760
3210,3.6535332,4.4029145,8.3557215,-3.8778627,5.5877862,1.0992366,0.7852941,0.1149211,0.8044477,61.6717567,15.2137403,250.1297760
3220,3.5745249,4.3502421,8.3940287,-4.5801525,8.1374044,0.2290076,3.0885043,-0.0287303,-0.1628049,61.8473282,-22.6106873,250.1297760
3230,3.5864959,4.3478479,8.3198080,-4.0000000,8.3740454,-0.5725191,6.5265603,-0.3902529,-2.0613971,56.1832047,-67.3664093,250.1297760
3240,3.5673423,4.3981261,8.2934723,-3.2061069,6.1679387,-1.4198474,9.3804340,-0.3136388,-3.9791429,38.8931313,-105.7557220,250.1297760
3250,3.5601597,4.3981261,8.2838955,-2.6106870,3.2671757,-2.7557251,11.6309719,-0.5554519,-4.8075323,14.5343513,-118.4732819,250.1297760
3260,3.4165084,4.4124913,8.3461447,-1.9465649,1.5267175,-3.4198472,13.7115231,-0.5722113,-3.8929520,-1.5648855,-102.3435135,250.1297760
3270,3.3853838,4.4124913,8.3102312,-1.7022901,0.0992366,-4.2137403,15.6244802,-0.5051740,-2.7796540,-2.0076337,-65.9236679,249.8244324
3280,3.3398943,4.4747400,8.3892403,-1.0610687,-0.9236641,-4.9694657,17.2716827,-0.4022238,-2.1954718,6.8702292,-16.3053436,215.6870270
3290,3.3111639,4.4388270,8.3844519,-0.5114504,-1.6106870,-5.2213740,18.0378227,-0.0047884,-2.3846128,15.5496187,37.8702278,176.0458069
3300,3.1723011,4.4651632,8.4036045,-0.3435115,-2.7099237,-5.0305343,18.1647148,0.4261657,-2.6719155,17.8320618,86.6412201,135.2442780
3310,3.1483591,4.4747400,8.2934723,0.6717557,-4.2595420,-4.8320613,17.9612083,0.6464311,-2.7365584,13.1297712,110.7862625,91.5267181
3320,3.0669568,4.3933377,8.3605099,1.2671756,-6.2824426,-4.3969464,17.6308117,0.8140244,-2.9328821,0.7328244,96.8625946,42.5419846
3330,3.1244173,4.4986820,8.4490948,1.7557251,-8.9007635,-3.9770992,16.9532547,0.6248835,-3.1675127,-20.1679382,59.0763359,-8.7786255
3340,3.0837159,4.3741841,8.3078375,2.5572519,-10.4427481,-3.3053436,15.9022064,0.3064562,-3.0214672,-45.9847336,20.0992374,-57.0916023
3350,3.1842721,4.4675574,8.3293848,2.8320611,-11.3587790,-2.3664122,15.3084478,-0.2513899,-2.3846128,-70.1908417,-10.1297712,-100.3358765
3360,3.2106080,4.4795284,8.4467001,2.7328243,-10.7557249,-1.1526718,14.5135765,-0.7421987,-1.1827296,-89.6259537,-21.2519093,-138.8931274
3370,3.4021432,4.5752959,8.3892403,3.1297710,-10.2290077,-0.5038168,13.6325150,-1.5370697,-0.0598547,-100.1603088,-17.9923668,-171.8320618
3380,3.6463506,4.6279683,8.1330614,4.1679387,-8.8167934,-1.3358779,12.7490587,-2.2242019,0.8427547,-104.5801544,-7.8320613,-201.2748108
3390,3.7229645,4.6926112,7.9511032,4.6488547,-8.9083967,-3.0610688,12.0164366,-2.9496415,1.5753766,-104.8702316,5.6412215,-227.4809113
3400,3.7540891,4.7716198,7.6446471,2.6412213,-9.8396950,-4.6259542,11.7458935,-3.9144998,1.9728121,-101.5114517,19.0534344,-250.1374054
3410,3.9073172,4.6902170,7.6781654,-0.8320611,-8.4045801,-5.4656487,12.0834742,-4.9535780,1.6879035,-95.0076370,29.8549614,-250.1374054
3420,3.8307030,4.7620430,7.8409705,-3.4580152,-7.4580154,-4.1832061,12.7897596,-6.5457139,0.5267217,-93.2824402,38.7557259,-250.1374054
3430,4.0222383,4.6351509,8.0827837,-6.4656487,-1.7480916,-5.9847326,13.7378588,-8.0803890,-0.2489957,-100.4580154,41.6564903,-250.1374054
3440,3.8330972,4.6255741,8.3054428,-8.6183205,4.5877862,-6.9541984,13.7019463,-9.8568783,-0.5339043,-110.7175598,48.7786255,-250.1374054
3450,3.5170643,4.5513539,8.4969788,-9.1832066,9.0381680,-7.0458016,13.0291786,-11.6118193,-0.0407012,-117.6106873,55.8549614,-250.1374054
3460,3.3734128,4.4053087,8.4275465,-8.5114508,10.1603050,-6.0839696,11.9781294,-13.3428183,0.4022238,-121.4274826,62.5877876,-250.1374054
3470,3.2345500,4.3813667,8.3150196,-7.1297708,9.5648851,-4.6488547,9.5815458,-15.5143480,1.0917504,-125.7480927,62.1374054,-250.1374054
3480,3.2058196,4.4436154,8.3150196,-6.7099237,7.3206105,-3.9083970,6.8330169,-19.0577488,2.7341642,-123.4503784,66.5496216,-250.1374054
3490,3.0956869,4.3837609,8.3389616,-6.6717558,5.6412215,-3.8244274,4.1132174,-19.6131992,2.5833304,-116.6335907,103.2900772,-250.1374054
3500,3.1603301,4.3693957,8.4371233,-7.0534353,4.8854961,-3.6259542,-7.0030041,-19.6131992,2.5498118,-99.4274826,157.2137451,-250.1374054
3510,3.0765336,4.3430595,8.4778252,-7.0839696,4.4274807,-3.6412213,-19.6131992,-19.6131992,1.7094513,-67.4274826,145.8854980,-250.1374054
3520,3.0094962,4.3502421,8.6956959,-6.2213740,3.4732823,-3.3511450,-19.6131992,-19.6131992,-0.2801202,-58.0076332,81.0000000,-250.1374054
3530,2.9544299,4.3909435,8.7675219,-4.8396945,2.4045801,-3.1755726,-19.6131992,-12.5623121,1.5490406,-137.3435059,5.1145039,-250.1374054
3540,2.9256995,4.3622131,8.6861191,-2.7099237,1.1603054,-2.2671757,-19.6131992,6.1291251,12.4833040,-250.1374054,-106.6793900,-250.1374054
3550,2.9711890,4.2664456,8.5951405,-0.1832061,1.0534351,-0.9236641,-19.6131992,0.9935886,19.6126022,-250.1374054,-226.5114441,11.5877867
3560,2.9903426,4.3574247,8.5711985,1.0839695,0.6412213,0.8778626,-19.6131992,-4.8458395,19.6126022,-220.5725250,-194.2213745,177.3435059
3570,3.1603301,4.2879934,8.4012108,1.7022901,0.1374046,2.3969467,-19.6131992,-6.5624733,19.6126022,-77.1679382,29.1450386,237.1832123
3580,3.4356618,4.2281384,8.2503767,1.0992366,0.4503817,2.8015268,-18.4831429,-3.1387823,19.6126022,48.5877876,246.2824402,250.1297760
3590,3.5122759,4.1467361,8.3557215,0.0610687,1.2442749,2.9465649,-14.3531656,-0.9433106,19.6126022,122.9312973,250.1297760,235.5343475
3600,3.6487448,4.1467361,8.4610653,-0.8854962,2.1450381,2.2519083,-12.0715036,0.6751614,15.9022064,153.1755676,231.9084015,196.0915985
3610,3.6774750,4.1922259,8.5640154,-1.2213740,3.1374047,1.6488550,-9.7347746,1.8961980,10.8887739,152.9923706,86.3282471,148.3587799
3620,3.6415622,4.1946201,8.6047173,-0.9847328,4.6030536,1.0076336,-7.3693151,2.8179610,6.4762826,133.9313049,-32.8015251,110.5267181
3630,3.5146701,4.3430595,8.5783806,0.0992366,3.8015268,0.0305344,-5.6622581,3.0430148,4.0868812,110.1297684,-98.8396912,85.8320618
3640,3.1315999,4.6519103,8.5664101,1.6183206,6.7328243,-2.2366412,-2.5546002,2.9831600,1.4676381,85.7862625,-79.9389343,58.2213745
3650,2.8754215,4.7572546,8.4467001,1.3740458,8.3435116,-2.2977099,-1.3455344,3.0885043,0.9313397,84.5038147,-36.2061081,48.1908379
3660,2.5474176,4.8554163,8.3820572,1.1755725,9.1526718,-1.4656489,0.0814024,3.2225790,0.5458752,82.1068726,1.2824427,36.0916023
3670,2.3343346,4.9368186,8.2575598,1.5114504,7.6870227,-0.0152672,1.2737088,3.2297616,0.6057299,78.1908417,29.2137413,17.8015270
3680,2.0661855,5.0948353,8.2024927,2.6106870,3.9160306,1.9007634,1.7956421,3.0956869,0.5793939,74.4274826,42.9923668,-6.5877862
3690,2.0206959,5.1068063,8.0660238,3.9160306,-2.5190840,3.7633588,1.5394639,2.9975252,0.6871324,71.9389343,42.6106873,-32.9771004
3700,2.0350611,4.9607606,8.0109577,4.7480917,-9.2748089,5.7633586,0.5674229,2.8107784,0.3591284,69.1755753,32.6870232,-58.0381660
3710,2.9352763,4.6136031,8.1067257,1.6870229,-16.1755733,11.4427481,-5.6550756,3.4596038,-1.3910241,40.1374054,-48.0381660,-103.3511429
3720,3.3973548,4.4627690,8.2719250,0.9847328,-16.1145039,11.9312973,-6.6726060,3.3805954,-1.5490406,18.0381680,-65.0229034,-101.6412201
3730,3.7732425,4.2089849,8.4155760,0.8320611,-14.5038166,11.4961834,-7.7332320,2.9711890,-1.4029950,-4.8854961,-72.7709961,-97.5038147
3740,4.1156116,3.9982965,8.4778252,0.3969466,-11.8396950,10.8702288,-9.1314383,2.6168492,-1.0318956,-25.2748089,-75.9465637,-92.2213745
3750,4.4172797,3.8570392,8.3988171,-0.2290076,-8.3358774,9.6488552,-10.1585455,2.2864509,-0.3806761,-44.9618340,-76.4961853,-84.6488571
3760,4.6495161,3.7636659,8.5281029,-0.8549618,-4.1832061,7.7251906,-10.5990763,2.0518203,0.4716553,-63.2290077,-73.4961853,-74.9389343
3770,4.7883787,3.8091555,8.4730368,-1.7862595,1.9236641,5.7175574,-11.0204544,2.0135133,1.9392935,-78.3969498,-68.8015289,-66.0610657
3780,4.8458395,3.9959023,8.5616217,-2.2671757,7.8015265,2.5343511,-11.4538021,2.0326669,3.3351059,-87.0839691,-67.2977066,-57.0610695
3790,4.7261300,4.1419477,8.4562769,-2.3053436,12.0839691,-1.3664122,-11.4442253,1.9704180,4.8625989,-88.6412201,-70.3587799,-48.2977104
3800,4.3454537,4.2760224,8.2982607,-2.9923663,15.8244276,-4.3206105,-11.1808643,1.7884595,5.8011212,-83.7480927,-75.6412201,-39.4503822
3810,3.9575951,4.2832050,8.3533268,-3.8091602,17.5267181,-6.1221375,-10.5487986,1.6783268,6.6438756,-74.8931274,-80.6488571,-32.4656487
3820,3.4859397,4.4316444,8.2024927,-3.5190840,17.5419846,-7.6335878,-9.6988611,1.6256547,7.1083484,-63.5877876,-83.3511429,-28.4274807
3830,3.1339941,4.3574247,8.3269911,-3.9770992,15.8244276,-7.2366414,-9.1266499,1.5705882,7.3860745,-51.1374054,-85.3053436,-27.5954189
3840,2.8945751,4.5082588,8.2791071,-3.6183207,12.8931293,-7.8931298,-10.8289185,1.7262106,7.3836803,-44.5114517,-114.7709961,-30.4427490
3850,2.6958573,4.6830344,8.4179697,-2.1908398,9.6870232,-7.1526718,-12.9453821,1.5849534,7.6901364,-54.2748108,-179.3053436,-33.6335869
3860,2.7174051,4.7021880,8.4347296,0.2977099,6.4274807,-7.0687022,-13.9317884,1.5777708,8.1258793,-68.8625946,-245.6030579,-31.1068707
3870,2.6575503,4.7141590,8.2647419,1.4961832,3.5725191,-5.7480917,-12.5623121,1.0390782,8.5688038,-70.8167953,-250.1374054,-24.7328243
3880,2.6814921,4.7740140,8.2455883,1.8015267,1.7328244,-4.1755724,-10.5583754,0.8619082,9.4833841,-50.6488533,-199.8549652,-4.8625956
3890,2.8251436,4.8649931,8.2910776,2.1145039,-0.4122137,-3.4274809,-8.3844519,1.3646880,9.1865053,-24.6793900,-135.9465637,9.7786255
3900,2.8083842,4.5202298,8.2312231,-4.5954199,-11.3129768,-2.8854961,-5.5497313,1.0318956,8.1498213,-13.4274807,-47.9694672,19.6335869
3910,3.0047078,4.4029145,8.4059992,-3.9618320,-12.3587790,-1.4198474,-5.8944945,1.2258250,8.3820572,-11.6259546,-46.1679382,17.9160309
3920,3.0861101,4.4053087,8.5496502,-2.3358779,-15.9923668,-0.8778626,-6.4092450,1.2976507,8.9351149,-7.4503818,-40.6717567,17.5038166
3930,3.1339941,4.3622131,8.5664101,0.2442748,-21.8396950,-1.8549619,-7.1203194,1.3479286,9.3612804,-0.5038168,-33.3053436,19.0916023
3940,3.3901722,4.3622131,8.5975342,4.9694657,-28.8015270,-3.6793892,-7.0652533,1.2641320,9.3086090,18.1526718,-16.2366409,21.6030540
3950,2.9017577,4.0437860,9.3086090,34.3053436,-34.4427490,0.2900763,-6.2775645,1.8004304,6.9838505,30.5343513,-16.1374054,13.6183205
3960,2.8610563,4.1826491,8.6478119,39.3511467,-35.5190849,4.4045801,-6.4212160,1.9967541,7.1610208,26.8778629,-18.5725193,12.8549614
3970,2.9424589,4.2688398,8.0492649,39.5496178,-33.3816795,8.6870232,-6.4475522,2.0063307,7.2208753,24.1145039,-20.1374054,12.0687027
3980,3.1723011,4.3837609,7.7954807,36.8396950,-29.1297703,12.0839691,-6.3757267,1.8770446,7.2998838,21.6488552,-20.3664131,10.7404585
3990,3.4500270,4.5824785,7.5919747,33.2595406,-24.7862587,15.1908398,-6.2464404,2.0302727,7.0844064,19.8015270,-18.3282452,8.8473282
4000,3.8450682,4.7740140,7.3741035,30.7099228,-21.4503822,16.9236641,-6.2201042,2.2098370,6.9790621,17.2213745,-17.1832066,7.4961834
4010,4.3885493,5.0756817,6.9910331,27.4961834,-19.0534344,17.3740463,-6.2368636,2.2337787,6.8569584,12.2519083,-17.3740463,6.8625956
4020,5.3558016,5.6263452,6.2775645,14.1526718,-6.5648856,10.6488552,-6.0692701,2.1787124,6.9718795,0.9847328,-15.2061071,5.9770994
4030,5.5305777,5.8633699,6.0716643,4.2824426,-0.2595420,4.4351144,-6.0860295,2.3151813,7.3238254,-3.1374047,-12.2671757,5.2366414
4040,5.4395986,5.8178802,5.9998388,-5.1068702,6.8702292,-1.2977099,-6.1865854,2.2337787,7.3405848,-6.1526718,-9.3740454,5.2671757
4050,4.8362627,5.6000090,6.4954362,-19.6106873,16.3740463,-9.7633591,-6.0716643,2.1930776,7.7882981,-10.4885492,-8.0000000,4.2519083
4060,4.4292507,5.4419928,6.6869712,-24.7175579,20.2824421,-9.9923668,-5.9878678,2.1404054,7.9175844,-11.2977095,-6.1603055,3.4656489
4070,4.2448978,5.4012914,6.8737178,-29.1526718,20.2442741,-10.2595415,-5.8992829,2.0829449,8.1186962,-10.7862597,-3.8320611,2.0992367
4080,4.0820932,5.2408805,6.9742737,-33.0916023,21.7480907,-11.5572519,-6.0118098,2.1188576,8.3245964,-9.4732828,-0.8549618,1.6030535
4090,3.8546450,5.0828643,7.2400289,-36.6564903,21.7175579,-12.2671757,-5.8442163,1.9584470,8.4514885,-7.0381680,2.5343511,-0.1145038
4100,3.7085996,4.9152708,7.5009956,-38.9618340,21.4656487,-11.8625956,-5.6359220,1.8961980,8.3317795,-4.1679387,5.3969464,-3.7404580
4110,3.7947903,4.7524662,7.8888540,-40.5572510,23.8167934,-11.6793890,-5.3821378,1.8004304,8.1426382,-1.2442749,8.7557249,-9.3206110
4120,3.5721307,4.6638808,8.2934723,-40.9312973,24.4656487,-12.4503813,-5.4539638,1.7094513,7.9798336,0.8091603,10.7938929,-15.7404585
4130,3.2584918,4.4579806,8.5735922,-38.9236641,22.3358784,-12.4732828,-5.3629842,1.4987626,7.6159167,2.4732823,11.5267172,-22.7022896
4140,3.0573800,4.2640514,8.8034344,-34.2595406,18.6335869,-10.4580154,-5.3725610,1.2952565,7.2543941,2.3511450,11.4198475,-32.5190849
4150,2.8538737,4.0222383,9.0141230,-24.7709923,14.2442751,-4.7175574,-6.3733325,1.3024391,6.9120250,-1.3282443,8.7404585,-47.7251892
4160,2.8083842,3.9384418,9.3133974,-20.3893127,12.8625956,-1.6183206,-7.0437055,1.3575054,6.7133074,-2.4045801,9.6946564,-52.6412201
4170,2.8203552,3.9144998,9.4378948,-15.1526718,12.1145039,1.5267175,-7.5895805,1.6088953,6.5552907,-3.3969467,13.7404585,-55.1145020
4180,2.8538737,3.9073172,9.2415714,1.4809160,10.3206110,12.2519083,-8.1139078,2.1140692,5.8178802,-12.9236641,54.9847336,-45.1374054
4190,3.4260850,4.3119354,8.4299412,8.2290077,7.1297708,15.4656487,-9.8137827,1.6184721,6.2871413,-46.3129768,101.7404556,-42.5877876
4200,3.5601597,4.3957319,8.3293848,7.7938933,6.6717558,13.6793890,-11.2933912,1.1779412,7.4626884,-61.4351158,107.6183243,-42.4427490
4210,3.7325413,4.5944495,8.2982607,7.9923663,4.5954199,11.6641226,-13.4529505,0.8427547,9.1194677,-74.0457993,97.6564865,-39.6183205
4220,3.7636659,4.5489597,8.2671366,8.4427481,2.6564887,9.0152674,-16.0290985,0.9217629,11.3460636,-82.1450348,75.5496216,-31.4809170
4230,3.7612717,4.6183915,8.1378498,8.5648851,0.1832061,6.8320613,-18.6459484,1.0606259,13.9246063,-81.7099228,37.9160309,-15.0610685
4240,3.5864959,4.7237358,8.0372944,7.9923663,-0.9312977,5.0381680,-19.6131992,1.1420283,16.2062683,-67.9465637,-16.7480907,9.3206110
4250,3.6367738,4.6806402,8.0971489,6.3129773,-1.8015267,3.0763359,-19.6131992,0.3208214,17.9995155,-39.0916023,-65.0152664,37.6335869
4260,3.5481887,4.6590929,8.0325060,5.0839696,-2.6259542,1.2137405,-18.4639893,-0.5865764,18.4472294,3.6488550,-87.5496216,62.8702278
4270,3.4835455,4.6638808,7.9654684,4.0000000,-3.1145039,0.4961832,-16.6060982,-0.9409165,17.5613804,49.7404594,-77.0152664,83.3053436
4280,3.3829896,4.7476778,8.0516596,2.9847329,-3.2519083,0.3969466,-15.4736462,-1.1659702,15.7058830,88.8244247,-45.8320618,102.4809189
4290,3.3901722,4.7476778,8.0708122,1.8091604,-3.4656489,-0.0992366,-15.1863441,-0.9720409,13.7043400,113.9542007,-8.8167934,123.2442780
4300,3.4189026,4.6519103,8.0875721,1.3511450,-2.6488550,-0.2748092,-15.3252068,-0.8403605,11.6285782,125.9083939,25.4580154,146.2748108
4310,3.3446827,4.7021880,8.0588417,0.2061069,-2.7938931,-0.6717557,-15.3850613,-0.8044477,10.2279778,124.6717529,53.6259537,170.2748108
4320,3.4045374,4.5944495,8.0660238,-0.5572519,-3.5419848,-0.5114504,-15.7226419,-0.4525018,9.6701307,114.7022934,66.1145020,194.2213745
4330,3.4452386,4.5465660,8.1641865,-0.5190840,-4.2290077,-0.9923664,-16.0386753,-0.3256098,9.4163475,103.8396912,68.4427490,219.8854980
4340,3.4117200,4.5226240,8.3700867,-0.2748092,-5.5725193,-0.9083970,-16.2493629,-0.4836263,9.6414013,97.2977066,66.9694672,247.0763397
4350,3.4859397,4.4507980,8.4155760,0.8015267,-6.3511453,-1.2748091,-16.0314922,-0.6919208,10.1034794,96.4885483,49.0763359,250.1297760
4360,3.5481887,4.4436154,8.4897957,1.4961832,-6.9160304,-1.3740458,-14.5375185,-1.5825592,9.8927908,104.4961853,26.4351139,250.1297760
4370,3.5098817,4.3646073,8.4179697,2.4045801,-5.8702292,-1.0916030,-12.1169930,-2.2936335,9.0620070,117.0687027,7.6335878,250.1297760
4380,3.5050933,4.4005203,8.2431946,2.5190840,-5.2977099,-0.7328244,-9.1960821,-2.9256995,7.8768835,130.5190887,3.9618320,250.1297760
4390,3.5146701,4.4244623,8.2479830,2.3893130,-4.8244276,-0.3740458,-6.2871413,-3.5601597,6.3422079,139.1603088,12.3129768,250.1297760
4400,3.5410061,4.4172797,8.1546097,2.5267177,-4.0000000,-0.0381679,-3.7971845,-3.7684543,5.0397687,142.5038147,24.0305347,250.1297760
4410,3.5218527,4.5058646,8.0995426,2.3816793,-3.5877862,0.9160305,-2.0039365,-3.6607156,4.1443419,142.2366486,36.7404594,250.1297760
4420,3.6080434,4.4603748,8.1067257,1.9160305,-2.7633588,1.3664122,-0.6440369,-3.3973548,3.5098817,138.8320618,49.7862587,250.1297760
4430,3.7636659,4.6064205,8.0971489,0.0992366,0.2595420,0.3511450,4.3023586,-1.8076130,2.5354466,112.5725174,90.0229034,250.1297760
4440,3.6511390,4.5298066,8.0181408,-1.4580153,1.5877863,0.3664122,8.8417416,-0.3974355,2.0470319,94.4122162,93.2290039,250.1297760
4450,3.6774750,4.5824785,8.1402445,-1.6335878,1.0687023,-0.2442748,11.5208397,-0.1723816,1.3000449,88.1145020,120.8549652,250.1297760
4460,3.7085996,4.5298066,8.0756006,-1.7022901,0.9236641,-0.8091603,13.7857428,0.2777260,0.8954269,73.7633591,155.1374054,247.1755676
4470,3.7445123,4.5106530,8.1953106,-1.8549619,0.0152672,-2.2213740,15.1887379,0.6943150,1.3287752,57.7862587,188.4961853,213.7175598
4480,3.7493007,4.5345950,8.2838955,-1.7480916,-1.5954199,-3.5572519,15.7202482,0.9576758,2.5929072,45.3053436,206.6488495,174.9465637
4490,3.7325413,4.5010762,8.2072811,-1.8091604,-2.1374047,-5.0992365,14.8439751,0.9720409,4.2640514,42.9618340,205.2671814,133.6030579
4500,3.6607156,4.4795284,8.1665802,-1.8702290,-2.0687022,-6.0534353,13.4649220,1.1300575,5.7029591,51.5801544,187.3358765,98.8320618
4510,3.5769191,4.4962878,8.2336178,-2.0610688,-1.9465649,-6.6335878,12.5407648,1.2832855,6.1746144,65.0534363,157.7175598,69.2595444
4520,3.4404502,4.5920553,8.2240410,-2.5496182,-2.1984732,-7.0610685,12.7634239,1.1899122,5.8274570,78.7633591,115.7557220,43.0000000
4530,3.1172347,4.5609307,8.2407999,3.2671757,0.9160305,3.3435113,19.6126022,-2.4564383,-2.8395088,-46.2137413,-165.8549652,-250.1374054
4540,3.4380560,4.5178356,8.0923605,3.2977099,-0.2977099,4.7786260,19.6126022,-4.4651632,-2.6743097,-76.1068726,-145.1221313,-250.1374054
4550,3.5386121,4.4819226,7.9295554,1.9770992,0.0076336,5.5954199,19.6126022,-6.4020624,-2.4755919,-102.7709961,-126.0839691,-250.1374054
4560,3.9049230,4.4747400,7.9175844,-0.3587786,1.1221374,5.0763359,18.2413292,-9.4378948,-2.0470319,-128.6870270,-106.0305328,-250.1374054
4570,3.9599893,4.4962878,8.0612354,-2.2366412,2.1145039,3.2442749,14.7434187,-11.4083128,-0.3303981,-143.1679382,-83.3206100,-250.1374054
4580,3.8929520,4.4795284,8.2312231,-3.0610688,1.9847329,1.4122137,9.4139528,-13.0962162,1.2880739,-139.4503784,-74.7328262,-250.1374054
4590,3.7085996,4.3765783,8.3102312,-2.1679389,2.0992367,0.1908397,2.8419030,-14.9014349,2.1188576,-121.6412201,-83.1145020,-250.1374054
4600,3.6990228,4.4675574,8.4299412,-1.5267175,3.0687022,0.1679389,-2.7389526,-17.9899387,1.5346755,-104.1603088,-85.5190811,-250.1374054
4610,3.5386121,4.5585365,8.5951405,-0.3206107,5.3511453,-0.4961832,-11.7794123,-19.6131992,1.1731528,-94.8015289,-91.0381699,-250.1374054
4620,3.2680686,4.6782460,8.5783806,0.1984733,7.8396945,0.2213740,-19.6131992,-19.6131992,0.6775556,-102.2137375,-152.4045868,-250.1374054
4630,2.9903426,4.7045822,8.4586716,1.6412214,8.8549614,1.6793894,-19.6131992,-19.2205524,1.9967541,-164.5877838,-250.1374054,-250.1374054
4640,2.7964132,4.8290801,8.3126259,3.2137403,7.1679387,3.1832061,-19.6131992,-8.4802189,11.1952295,-250.1374054,-250.1374054,-250.1374054
4650,2.6838863,4.8937230,8.0588417,3.9236641,4.6335878,4.1221375,-19.6131992,-4.7979555,19.6126022,-250.1374054,-250.1374054,-250.1374054
4660,2.7030399,4.9392128,7.9127960,3.7557251,0.7938932,5.3740458,-19.6131992,-8.2312231,19.6126022,-250.1374054,-197.3664093,-17.9465656
4670,2.7652888,4.8218975,7.9343438,3.2595420,-3.8396947,5.9923663,-19.6131992,-9.6246414,19.6126022,-104.2137375,38.9618340,133.3893127
4680,2.8754215,4.8051381,7.9008250,2.9770992,-8.5267172,6.3969464,-19.6131992,-7.1514440,19.6126022,28.0152664,250.1297760,207.2824402
4690,3.1292057,4.6973996,8.1019373,2.7251909,-11.0534353,6.4427481,-19.1511211,-4.1922259,19.6126022,98.0839691,250.1297760,234.7557220
4700,3.3686244,4.5848727,8.2910776,2.7557251,-11.9847326,6.8396945,-14.5614605,-2.0637913,16.5342731,120.8015289,250.1297760,216.6030579
4710,3.5434003,4.4914994,8.3509331,3.3969467,-11.3587790,7.3282442,-10.5727406,-0.3447633,13.2566271,119.5343475,187.8015289,161.7404633
4720,4.2113791,4.3933377,8.0420828,0.5877863,-3.7938931,-2.8702290,-5.3629842,3.9049230,2.0901275,70.2061081,-88.3740463,-38.0305328
4730,4.1299767,4.4579806,8.0372944,-0.9618320,-2.7938931,-4.4885497,-6.0261750,4.0844874,1.3622938,67.7557220,-74.8778610,-37.5725174
4740,4.0078731,4.4507980,8.2791071,-1.1221374,-1.3511450,-5.6106873,-6.3326311,4.0773048,0.5027798,61.6641235,-72.1068726,-33.9007645
4750,3.7684543,4.4531922,8.3964224,-0.1297710,-0.7557252,-6.2900763,-6.2584114,3.9935081,-0.1053443,50.9160309,-75.2519073,-31.1068707
4760,3.6367738,4.5561423,8.3293848,0.8167939,-0.8778626,-6.4503818,-5.8274570,3.6583214,-0.3303981,37.4427490,-78.9083939,-29.6412220
4770,3.4404502,4.6016321,8.2336178,1.7862595,-0.9618320,-6.5954199,-5.5736732,3.2944047,-0.3998296,21.8244267,-77.9770966,-30.8320618
4780,3.3039815,4.5441718,8.2024927,1.9083970,-0.7251908,-5.7862597,-5.7053533,2.8849983,-0.2418131,5.3893127,-71.5419846,-33.2290077
4790,3.3231349,4.6566987,8.1689749,1.8473282,-1.2213740,-5.4503818,-6.3302369,2.5402350,0.2681492,-10.3206110,-61.0228996,-36.3053436
4800,3.2058196,4.6734576,8.1977043,2.0763359,-2.8091602,-5.0305343,-7.3334022,2.4851687,0.7661406,-25.7709923,-52.7480927,-35.6641235
4810,3.0525916,4.7285242,7.7763271,3.6335878,-13.2824430,-5.5954199,-8.3317795,2.3367288,1.4389079,-41.1526718,-47.8167953,-32.0839691
4820,2.4731977,4.7788019,7.8481531,8.9694653,-44.9465637,-8.0381680,-8.9925756,2.1691356,2.3463056,-55.8625946,-46.5419846,-25.1221371
4830,2.7174051,4.8602047,8.2527714,18.9847336,-85.0687027,-12.6030531,-9.5264797,1.9033806,3.4979107,-66.9083939,-48.2366409,-17.8702297
4840,3.2560976,4.7955613,8.7244263,26.5954189,-106.5496216,-20.0000000,-9.8688488,1.8147956,5.1690550,-72.5038147,-53.0992355,-8.5038166
4850,3.8115497,4.7979555,9.6030941,28.5343513,-99.6793900,-22.6335869,-9.6126709,1.6783268,6.3446021,-71.3969498,-62.8854980,2.9160306
4860,4.2329268,4.4507980,9.9622221,26.0152664,-62.4656487,-21.2137413,-8.8920193,1.3096216,6.9766679,-64.7480927,-72.7328262,13.8702288
4870,3.8953462,4.1084290,9.5839405,23.1221371,-21.7099228,-13.5877867,-7.5991573,0.9648584,7.3381906,-54.3053436,-79.5954208,18.2366409
4880,3.4619980,4.1036406,8.9231443,24.3435116,4.8854961,-3.1832061,-6.4212160,0.6943150,7.1993275,-43.7786255,-82.8549652,16.9389305
4890,3.3829896,4.1084290,8.1977043,28.9770985,16.0534344,7.8091602,-5.2193332,0.6512195,6.8545642,-36.3358765,-84.0534363,10.7480917
4900,3.7684543,4.3502421,7.7116842,33.5114517,17.5114498,16.0152664,-4.5705075,0.5171449,6.4355812,-32.3358765,-83.4656525,0.8702290
4910,4.6016321,4.7452836,7.3094602,34.6564903,18.9389305,20.3053436,-4.2353210,0.4740495,5.8394279,-35.5114517,-85.4198456,-10.2137403
4920,4.9655490,5.0637107,6.8425937,32.9541969,21.0992374,21.4732819,-9.7323799,1.0103480,5.0086441,-73.1984711,-201.0229034,-41.3282433
4930,5.2241216,5.3653784,6.7204900,30.6793900,18.3511448,19.0000000,-13.8886929,1.3622938,6.0980005,-143.8244324,-250.1374054,-52.5648842
4940,5.1235652,5.5449429,6.5600791,29.7633591,10.2366409,13.6183205,-10.7738523,-0.3950413,10.5727406,-161.0152740,-250.1374054,-16.3129768
4950,4.9176650,5.7508430,6.4954362,27.9312973,-1.1755725,6.9770994,-6.9048424,0.5817881,13.0052376,-128.3740387,-215.8015289,-0.9465649
4960,4.5417776,5.7173243,6.2871413,24.5877857,-10.1755724,2.2900763,-6.4810710,0.1939293,14.0898046,-80.5572510,-137.7786255,3.6259542
4970,4.2113791,5.7699966,6.1410961,19.6717548,-16.3435116,-0.8931298,-7.1466556,-0.3902529,14.3004932,-42.2061081,-95.7480927,13.0916033
4980,3.9719603,5.7987270,6.4355812,14.1374044,-21.6641216,-3.5190840,-6.2224984,-0.1197095,13.3811245,-14.6870232,-56.0610695,25.8702297
4990,3.7684543,5.8298512,6.5912037,10.0076332,-27.1068707,-5.1832061,-4.9727316,0.1508339,11.9374285,6.8320613,-13.8778629,34.5267181
5000,3.5984666,5.6646523,6.9263902,7.8396945,-32.1908379,-6.2519083,-4.8123207,0.2466015,10.8456783,21.4580154,15.2519083,40.7404594
5010,4.1563129,5.5952206,7.1849627,7.6488547,-31.6946564,2.3511450,-4.2065907,1.1252691,9.2319946,19.8473282,2.0916030,38.2061081
5020,4.3933377,5.5210009,7.2304521,6.8702292,-26.5267181,3.7175572,-4.1922259,1.2449785,9.6294298,22.1832066,0.4732825,31.9465656
5030,4.6471219,5.5688848,7.2591825,6.0839696,-20.8625946,4.5343513,-4.3071470,1.2761030,9.7012558,27.9923668,4.0076337,24.3282452
5040,4.7955613,5.4946647,7.1203194,5.5801525,-15.9007635,5.0839696,-4.5345950,1.4077834,9.5576038,35.0000000,9.6412210,16.3282452
5050,4.9463954,5.5545197,6.9239960,4.2671757,-11.6412210,5.2213740,-4.7428894,1.6448082,9.1098909,40.6564903,15.7022905,8.7480917
5060,5.0565281,5.4348102,6.8258343,2.8473282,-7.7557254,4.8320613,-4.8769641,1.7764885,8.6693602,42.8625946,18.6106873,3.0076337
5070,5.1403246,5.4635406,6.7875271,0.9694657,-4.1832061,4.4351144,-4.9224534,1.8818330,7.9965930,42.1984749,18.3664131,-2.3587787
5080,5.1451130,5.4060798,6.7899213,-0.5343512,-1.6106870,3.6030533,-4.9894910,2.1571648,7.7428088,39.2900772,14.9389315,-5.3969464
5090,5.2193332,5.4443870,6.8617468,-1.7480916,-0.4885496,2.2137403,-5.2815819,2.1619530,7.4028339,33.6183205,9.4809160,-7.8244276
5100,5.1786318,5.3701668,6.9287844,-2.2671757,-0.0458015,0.5648855,-5.6024032,2.3032103,7.1203194,25.8091602,3.1908398,-9.2290077
5110,5.1522956,5.4060798,7.1298962,-2.3664122,0.5343512,-1.0610687,-5.9806852,2.3247581,7.1466556,18.3893127,-3.3587787,-9.2595415
5120,4.5058646,5.2696109,7.6159167,0.3664122,0.4503817,-3.0305343,-6.2033448,2.1619530,7.3621325,-0.4351145,-14.1755724,-5.6335878
5130,4.3406653,5.1977854,9.7180147,33.2824440,-18.2061062,3.2900763,-6.0764527,2.1667414,7.5704269,-10.3435116,-15.1526718,-3.3511450
5140,4.3717899,5.1858144,8.6837254,46.5725174,-23.3664131,4.1221375,-5.8250628,1.9991482,7.8098459,-14.1297712,-18.1984730,-2.2824428
5150,4.0653338,5.3031297,7.3405848,49.1984749,-23.4732819,4.3053436,-5.4946647,1.9153515,8.0971489,-16.9465656,-20.4580154,-3.1755726
5160,3.8283088,5.3605900,6.2799587,43.5801544,-20.4351139,7.0992365,-5.3725610,1.7812769,8.1785507,-18.2290077,-20.9923668,-4.6641221
5170,3.9575951,5.4060798,5.8753409,35.4351158,-13.9236641,10.1984730,-5.2935529,1.7094513,8.3198080,-19.0000000,-21.1908398,-5.9465647
5180,4.1060348,5.5808558,5.6957769,28.5725193,-9.4580154,12.5572519,-5.2720051,1.7740943,8.5544386,-19.1221371,-20.9694653,-7.7938933
5190,4.3981261,5.8418221,5.8513989,22.7938938,-8.4885492,14.0992365,-5.1163831,1.8698620,8.6406298,-18.7328243,-20.8473282,-10.1832066
5200,4.8338685,5.8968887,5.9878678,19.1297703,-9.2061071,13.9923668,-5.0565281,1.9680238,8.6526003,-18.4198475,-20.1526718,-12.4045801
5210,5.1355362,6.0285692,6.0213866,16.6335869,-9.8091602,11.5648851,-5.0493455,2.0015423,8.4993725,-18.5725193,-19.2061062,-14.2061071
5220,5.4419928,6.1458845,5.9639258,14.3969469,-9.3435116,8.2137403,-5.0373745,1.9560528,8.4706421,-20.1374054,-18.3129768,-16.5801525
5230,5.4826937,6.1530671,5.7532372,11.0305347,-7.7709923,5.0076337,-5.1882086,1.6663558,8.3988171,-22.4122143,-18.4274807,-18.4274807
5240,5.4156566,6.2440462,5.5066357,5.9923663,-4.1832061,1.8015267,-5.4012914,1.5035510,8.4897957,-24.8396950,-18.6870232,-19.5190830
5250,5.3581958,6.2751703,5.4324160,-0.1908397,-0.2290076,-0.4351145,-5.5569139,1.4293311,8.4323349,-26.3587780,-17.3816795,-18.1832066
5260,5.1786318,6.2727766,5.3845320,-5.9618320,4.0763359,-2.1068702,-5.7101417,1.2952565,8.5041609,-28.3206100,-13.0839691,-15.1603050
5270,5.0924411,6.2296810,5.4467812,-12.7480917,7.2061067,-3.9541984,-5.9088597,1.3455344,8.6382351,-29.9465656,-3.6793892,-9.6870232
5280,4.9344244,5.9495606,6.6726060,-23.5419846,7.0000000,-7.9465647,-5.8083038,1.1324517,9.9478569,-19.3358784,46.7328262,13.7328243
5290,4.8625989,5.8394279,6.8689294,-22.7251911,5.6946564,-8.4427481,-5.6383162,1.2042773,9.8616667,-13.0381680,54.7480927,14.7709923
5300,4.6758518,5.5545197,7.1969333,-18.6488552,3.2900763,-8.1984730,-4.7692256,1.0630201,9.3540983,-2.7938931,59.9847336,7.0000000
5310,4.6327567,5.4779053,7.3501616,-15.2748089,2.5496182,-7.5572519,-4.6710634,1.1875180,9.1817169,0.5190840,58.0610695,-1.2595420
5320,4.5800843,5.3917146,7.4339581,-11.6106873,1.1526718,-6.0381680,-5.0110383,1.3575054,8.8249826,4.0458016,55.7557259,-9.9007635
5330,4.5465660,5.3988972,7.6254935,-2.9923663,-2.8931298,-2.7175572,-5.5545197,1.3766589,8.2958660,10.0076332,59.1832047,-23.9007626
5340,4.6136031,5.4180508,7.4100165,5.3358779,-4.6412215,-1.3740458,-7.9199786,1.0773853,7.9989872,8.2137403,71.2137375,-34.8549614
5350,4.7596488,5.5736732,7.0772243,7.1221375,-4.5419846,-1.0152671,-9.8329363,1.0534433,8.1857338,3.9923663,77.7099228,-34.4274826
5360,4.6303625,5.5449429,6.7109132,6.4045801,-3.1297710,-1.0916030,-11.4921093,0.8164186,8.5999289,-3.1374047,82.5114517,-28.4351139
5370,4.6183915,5.6431046,6.4882536,4.9236641,-3.4961832,-0.7938932,-13.2326851,0.9313397,9.6461897,-11.4427481,78.5725174,-19.9236641
5380,4.5609307,5.7388721,6.4427638,3.1145039,-3.6793892,-0.2977099,-15.0450869,0.7589580,11.0707321,-16.9618320,71.4656525,-8.0152674
5390,4.6997938,5.8849177,6.3589673,-0.5801527,-1.4274809,1.8015267,-18.1359844,-0.2106887,14.1592360,-9.9770994,47.3740463,25.5038166
5400,5.0445571,5.9639258,6.0549049,-6.9160304,3.5648854,2.4274809,-19.6131992,-0.9576758,16.1823273,23.2595425,-5.8244276,71.2366409
5410,5.1307478,5.9830794,6.0932121,-10.6030531,5.9007635,0.8015267,-18.9859219,-1.0797794,16.6156750,47.5038185,-23.8549614,95.8625946
5420,5.1882086,5.8490047,6.2129216,-13.6106873,7.2595420,-1.0534351,-17.6068687,-1.3838415,16.2421818,73.8854980,-24.7557259,117.9389343
5430,5.1546898,5.8681583,6.0716643,-16.8473282,9.2671757,-1.6870229,-16.0913467,-1.8291607,15.2773228,100.0687027,-10.9847326,138.4045868
5440,5.1786318,6.0357518,5.6981707,-22.8931293,13.3740454,-2.2061069,-15.3180237,-1.6687500,14.1999378,123.5267181,9.6946564,156.7862549
5450,5.4036856,6.1602492,5.2839761,-32.3740463,19.4961834,-4.2366414,-14.8032732,-1.2186425,13.0219965,142.8778687,28.8320618,176.8320618
5460,5.4946647,6.1339135,5.2408805,-43.0534363,24.9236641,-8.5725193,-14.2071199,-0.9361281,11.5591469,156.3053436,44.3435097,198.8091583
5470,5.4276276,6.0764527,5.3174949,-52.8549614,28.3893127,-12.5572519,-13.2494440,-0.8738791,9.9694052,163.4656525,58.2595406,218.6106873
5480,5.4922705,6.1746144,5.5473371,-59.4961815,25.4122143,-17.5954189,-12.3444405,-0.6248835,8.6262646,164.9770966,65.7328262,237.4732819
5490,5.6454988,5.9711084,5.8298512,-63.9541969,18.7175579,-24.7786255,-11.3939476,-0.4548960,7.6326761,162.6412201,64.4580154,250.1297760
5500,5.6742291,5.4132624,6.3206601,-67.7480927,16.6641216,-31.0916023,-10.4817610,-0.2059003,6.9311786,158.3969421,57.2442741,250.1297760
5510,5.2839761,5.0445571,7.5560617,-67.4198456,16.0305347,-34.5954208,-9.2224178,-0.2944853,6.1578555,154.5038147,43.6564903,250.1297760
5520,4.8769641,4.6088147,8.3940287,-60.6412201,16.0687027,-35.3282433,-7.4195933,-0.4955972,5.5808558,151.4045868,35.5725174,250.1297760
5530,4.4484038,4.2448978,8.9063845,-51.1908379,15.7557249,-33.5725174,-5.5473371,-0.6488253,4.9535780,149.1526642,37.4198456,250.1297760
5540,4.0557570,4.2472920,8.9494801,-39.6259537,11.1068707,-29.7328243,-4.4100971,-0.4860204,4.6447277,147.5190887,36.3282433,250.1297760
5550,3.9599893,4.4100971,9.0213060,-35.0763359,18.7175579,-26.9312973,-3.1651185,-0.1723816,4.3813667,146.1221313,32.0000000,250.1297760
5560,3.6655040,4.3215117,9.3229742,-32.1374054,29.5648861,-24.6793900,-1.6639616,0.0574605,4.3263001,144.5572510,28.8549614,250.1297760
5570,3.0717452,4.3837609,9.4809904,-26.4656487,39.5648842,-20.8549614,-0.0095768,-0.3280039,4.1922259,144.1984711,24.9923668,250.1297760
5580,2.4827745,4.5561423,9.2176294,-19.1297703,41.2748108,-15.7633591,2.1691356,-0.4836263,4.1299767,147.3816833,21.7633591,250.1297760
5590,2.0183017,4.7692256,8.9135675,-12.0000000,34.8320618,-10.6183205,4.3598189,-0.3375807,4.0437860,153.1755676,24.0381680,250.1297760
5600,1.6687500,4.8266859,8.6406298,-5.3129773,25.1832066,-6.4198475,6.5481081,-0.2920911,3.4476328,160.9236603,31.4885502,250.1297760
5610,1.5131277,4.8434453,8.2958660,5.3511453,0.9770992,3.7480917,10.2112179,0.6727672,0.5243275,163.7022858,68.6335907,247.8015289
5620,1.7190280,5.0134325,8.1474266,8.3358774,-8.2824430,8.8473282,11.5423870,1.3479286,-0.8403605,152.3511505,84.3053436,219.1068726
5630,2.0949159,4.9080882,8.2048874,10.3816795,-14.1984730,13.6183205,11.9685535,1.9488702,-1.7309990,133.7175598,85.4274826,186.8702240
5640,2.6695213,4.8290801,8.2695303,11.5954199,-16.9694653,17.5114498,12.1720591,2.4731977,-2.2194135,111.4961853,73.5877838,155.5190887
5650,3.1292057,4.6734576,8.3245964,14.1068707,-19.1374054,21.1908398,12.2031832,2.8275378,-2.6599445,87.2061081,57.2671738,123.6412201
5660,3.7708483,4.6255741,8.2910776,16.9236641,-19.6717548,23.5725193,11.9230633,3.0645626,-2.7197993,64.2595444,39.5343513,93.6717529
5670,4.3406653,4.5298066,7.9247670,18.1068707,-16.6870232,24.9236641,11.5830889,3.2584918,-2.9544299,42.7938919,18.0458012,64.7175598
5680,4.8913293,4.5298066,7.7021074,17.5343513,-12.4198475,24.8244267,11.1952295,3.3375001,-3.2824337,20.9770985,-4.2213740,37.5190849
5690,5.3342543,4.5345950,7.5680327,16.4122143,-7.6183205,22.7633591,10.7379398,3.2704628,-3.5697365,-2.9923663,-24.9083977,12.0610685
5700,5.6119800,4.5633249,7.4435349,14.7175570,-3.4274809,19.8854961,10.4626083,3.2800395,-3.6966286,-27.3664131,-42.7786255,-10.4503813
5710,5.8490047,4.6950054,7.3908629,13.1679392,0.4885496,15.9389315,10.4865494,3.0885043,-3.5338237,-51.2671738,-54.3053436,-31.3893127
5720,5.8490047,4.8985114,7.3310080,11.4885492,3.1526718,10.2977095,10.8863792,2.9520357,-3.2106080,-72.9770966,-63.8167953,-52.6183205
5730,5.7867560,5.0684991,7.2903070,9.9694653,4.8244276,3.6870229,11.0156660,2.6671271,-2.4971397,-93.1603088,-62.6412201,-75.9007645
5740,5.3677726,5.0684991,7.2711535,8.3282442,4.8091602,-1.6717557,11.3628235,2.0494261,-1.6974803,-105.2824402,-70.9770966,-102.4961853
5750,4.9775200,5.1570840,6.9886389,5.6183205,4.5419846,-5.1679387,13.4768925,0.7757174,-1.5658000,-112.8702316,-91.7557220,-138.0534363
5760,4.5681133,5.1427188,6.9359670,1.7557251,3.1908398,-8.7557249,16.6396160,-0.3639168,-2.0877333,-118.9770966,-98.7709961,-189.8015289
5770,4.2688398,5.2600341,7.1107426,-2.1603053,2.0839694,-9.6183205,19.6126022,-1.7453641,-3.0142846,-125.7557220,-90.8167953,-250.1374054
5780,3.9767487,5.3845320,7.3884687,-4.3893127,1.4198474,-10.7480917,19.6126022,-4.4053087,-5.1977854,-134.9313049,-53.5877876,-250.1374054
5790,3.8833754,5.4802995,7.4459291,-5.8854961,2.0229008,-10.6717558,19.6126022,-6.4140334,-6.7372489,-153.5572510,18.4580154,-250.1374054
5800,4.0102673,5.6335278,7.3310080,-6.8473282,2.2213740,-10.7557249,17.6739063,-8.6238708,-5.9016771,-179.3129730,76.0000000,-250.1374054
5810,4.3885493,5.8753409,7.0868006,-9.8244276,5.5496182,-14.1832066,13.6396971,-11.8560257,-3.0932927,-197.7862549,109.8320618,-250.1374054
5820,4.2353210,5.9184365,6.8186517,-15.1908398,10.9694653,-17.7633591,9.6078825,-15.0043850,-0.4668669,-198.7099304,138.3893127,-250.1374054
5830,3.8450682,5.7771792,6.6390872,-20.2213745,13.1526718,-17.7786255,4.3047528,-18.6579189,1.5298871,-188.6564941,158.4198456,-250.1374054
5840,3.7349355,5.6862001,6.2081332,-26.2061062,13.0839691,-16.5648861,-4.9200592,-19.6131992,3.8785870,-170.1145020,163.2061005,-250.1374054
5850,3.6152260,5.5640965,6.4283986,-32.3358765,11.5572519,-16.9770985,-19.6131992,-19.6131992,6.1482787,-145.6946564,112.5267181,-250.1374054
5860,3.2704628,5.4012914,6.9862447,-36.4045792,8.9465647,-17.0458012,-19.6131992,-19.0936604,8.3892403,-133.7709961,-16.3816795,-250.1374054
5870,3.0693510,5.1690550,7.4818420,-37.2061081,1.7251909,-15.8473282,-19.6131992,-12.5694942,11.3364868,-160.0915985,-188.3664093,-250.1374054
5880,2.9185169,4.9679432,8.2312231,-34.4732819,-7.8702292,-13.8167934,-19.6131992,-5.1211715,15.9285421,-210.8396912,-250.1374054,-250.1374054
5890,2.9855542,4.6016321,8.9063845,-29.0687027,-13.5190840,-11.9083967,-19.6131992,-5.1044121,19.6126022,-220.0305328,-250.1374054,-166.9465637
5900,2.9520357,4.3502421,9.3540983,-22.8549614,-16.1374054,-9.2748089,-19.6131992,-7.5321202,19.6126022,-162.1145020,-208.9084015,-27.0381680
5910,2.8945751,3.9863255,9.8544836,-14.4961834,-16.3893127,-4.8931298,-19.6131992,-6.3182659,19.6126022,-73.8625946,17.6641216,44.3740463
5920,2.8107784,3.7828193,9.9789820,-5.1221375,-14.8778629,0.2519084,-19.6131992,-2.8802099,19.0577488,-9.0763359,189.1450348,90.0000000
5930,2.9975252,3.6750808,9.8927908,5.0000000,-13.6717558,6.1908398,-19.6131992,-0.5746055,16.7904510,23.1068707,230.6030579,116.1221390
5940,3.3734128,3.7014170,9.4091644,14.2290077,-10.8320608,11.3511448,-19.6131992,0.6847382,14.5542774,37.9007645,165.4351196,122.5190811
5950,3.5410061,3.8522508,9.0691900,20.2977104,-10.5877867,16.1297703,-15.6556044,1.7118455,12.0786858,48.2977104,74.4580154,110.7480927
5960,4.3502421,4.3957319,8.1522150,25.6870232,-6.3282442,20.6717548,-8.3365679,3.6535332,6.8401995,56.5419846,-22.9923668,73.4274826
5970,4.6878228,4.6495161,7.7308378,24.9465656,-2.0229008,19.5801525,-6.9646969,4.3382711,4.9918852,53.4809151,-25.2137413,59.5648842
5980,4.9966736,5.0493455,7.3214312,20.6717548,2.1603053,12.7175570,-5.5401545,4.6279683,2.5665710,44.4427490,10.7328243,47.8091621
5990,4.8889351,5.2265158,7.1658092,18.1679382,1.8396946,8.6641226,-4.6016321,4.6255741,1.7693061,39.2519073,34.6717567,41.6793900
6000,4.7237358,5.3055239,7.0915890,16.1603050,-0.1374046,4.9923663,-3.6870518,4.3693957,1.6687500,32.2824440,51.7633591,32.6106873
6010,4.5537481,5.2313042,7.1610208,14.5496187,-2.5877862,2.3816793,-2.8802099,3.9887197,1.8602852,24.9847336,60.6793900,18.6412220
6020,4.3885493,5.3581958,7.0868006,12.8320608,-4.3664122,0.3664122,-2.6264257,3.5649481,2.1044924,19.6335869,64.7404556,1.3740458
6030,4.2544746,5.2839761,7.1418672,10.8702288,-5.7099237,-1.1221374,-2.9352763,3.1627243,2.5905130,16.6564884,61.2748108,-17.7251911
6040,3.8163381,5.2217274,7.4722652,7.3664122,-5.0839696,-0.2977099,-6.3326311,1.7860653,2.9137285,9.7175570,12.8854961,-58.1450386
6050,3.8378856,5.2097564,7.3214312,6.0916033,-4.2290077,1.7480916,-7.9175844,1.5610116,2.8442972,3.7938931,-5.0839696,-62.1526718
6060,4.0773048,5.2959471,7.1682034,0.0000000,-0.5190840,2.8931298,-15.7729197,1.8459201,2.6719155,-53.7480927,-151.1984711,-86.5267181
6070,4.2209558,5.3031297,7.4339581,-1.6412214,0.1374046,1.9847329,-19.4168758,0.9528874,5.0541339,-93.8320618,-216.0686951,-60.3129768
6080,4.1515245,5.2624283,7.6470413,-0.9160305,-0.6564885,1.4503816,-14.3747139,-0.5362985,7.4076223,-99.5572510,-213.2137451,-9.4274807
6090,4.1730723,5.1810260,7.6518297,-0.0305344,-1.2748091,0.7709923,-8.7699156,0.6871324,9.0428534,-71.8396912,-150.9847260,14.6946564
6100,4.0126615,5.0373745,7.5823979,-0.1297710,-0.4809160,1.2519084,-6.8761120,0.6009415,8.5592270,4.5725193,-12.1832066,22.5419846
6110,4.0509686,5.0756817,7.6925306,-0.0916031,-0.7404580,2.2213740,-7.4770536,1.1635761,7.7045016,12.0992365,-5.7633586,23.1450386
6120,4.0653338,5.0948353,7.6853480,0.0305344,-1.0000000,2.2977099,-7.6494355,1.3910241,6.9814563,8.4045801,-21.3816795,23.3664131
6130,4.1251884,5.0565281,7.5752153,0.0458015,-0.5648855,2.7251909,-6.7587967,1.4077834,6.5528965,0.2824427,-40.2213745,20.2137413
6140,4.1946201,5.0924411,7.5656385,0.1603053,-0.9923664,2.7862597,-5.6957769,1.4652439,6.4978304,-6.6641221,-52.4885483,14.2213745
6150,4.2544746,5.0708933,7.5488791,0.0458015,-0.5190840,2.5419848,-5.2217274,1.5993185,6.5505023,-10.5114508,-57.5267181,5.5267177
6160,4.2640514,5.0732875,7.6063399,-0.2061069,-0.2290076,1.3969465,-6.4164276,1.8794388,6.5481081,-11.9160309,-60.6717567,-9.8320608
6170,4.2832050,5.1786318,7.6135225,-0.3206107,-0.2366412,0.9694657,-7.2807302,2.0805507,6.5600791,-12.4198475,-62.7480927,-12.1221371
6180,4.2448978,5.0445571,7.6638002,-0.1068702,-0.2442748,0.7022901,-7.7380204,2.2265961,6.6606350,-12.5496187,-60.7099228,-9.8702288
6190,4.1898317,5.0541339,7.5153608,-0.1908397,-0.3587786,0.3664122,-8.0420828,2.1691356,6.7444315,-8.8931293,-41.9694672,0.1374046
6200,4.1587071,5.1594782,7.6159167,0.1603053,-0.3664122,-0.2290076,-7.5895805,1.9656296,6.8928714,-7.4045801,-35.9923668,5.6106873
6210,4.1443419,5.1092005,7.5632443,0.4122137,-0.4961832,-0.4885496,-7.1658092,1.7669119,6.9742737,-7.2061067,-35.4045792,6.0076337
6220,4.1299767,5.1594782,7.5728211,0.2748092,-0.7633588,-0.6641222,-6.8378053,1.5873476,6.9144192,-7.7938933,-35.5877876,4.4656487
6230,4.0773048,5.1092005,7.4866304,-0.7633588,-1.1297710,-0.4503817,-6.4882536,1.5801650,7.1562324,-9.1450386,-36.6183205,-2.7786260
6240,4.1515245,5.2193332,7.6039457,-0.2824427,-1.3816794,-0.3358779,-6.4427638,1.6448082,7.4124107,-8.3129768,-39.0763359,-6.9007635
6250,4.1371593,5.0900469,7.6135225,0.2900763,-1.4122137,-0.4122137,-6.5720501,1.7046629,7.5991573,-6.5190840,-41.8396950,-10.4274807
6260,4.1251884,5.1451130,7.5847921,0.4351145,-1.8702290,-0.5267175,-6.7228842,1.7932479,7.4555058,-4.6717558,-45.4885483,-11.7862597
6270,4.1156116,5.0469513,7.6542239,0.8931298,-1.2366412,-0.5648855,-6.9503322,1.8052188,7.4818420,-2.6030533,-48.7175560,-13.4427481
6280,4.1108232,5.0804701,7.5752153,0.8549618,-1.6183206,0.5801527,-7.2065101,2.0566087,7.3166428,0.9694657,-53.1526718,-13.4045801
6290,4.0557570,5.1187773,7.5632443,0.9312977,-1.2442749,1.1679389,-7.2089043,2.0733681,7.1059542,0.5801527,-54.5725174,-12.1068707
6300,4.1227942,5.1522956,7.5345144,0.8549618,-0.5572519,1.2595420,-7.0748301,2.1116750,6.6941538,-1.7938931,-50.1221390,-9.2977095
6310,4.1611013,5.1451130,7.5345144,0.3282443,-0.0381679,1.4427481,-7.3118544,1.8770446,6.2416520,-8.9541988,-29.2290077,-1.1908396
6320,4.1563129,5.2097564,7.5057840,0.1068702,0.1603053,1.5954199,-8.5376797,1.8722562,6.7324610,-22.3816795,9.4656487,16.6717548
6330,4.1323709,5.1546898,7.4746594,-0.0839695,0.4351145,1.7328244,-9.8473015,1.8985922,8.0756006,-35.8396950,52.1145020,42.7633591
6340,4.1658897,5.2025738,7.5345144,-0.1526718,0.4809160,1.5343511,-9.5097208,1.7405758,9.7635050,-39.7786255,80.1450348,68.2137375
6350,4.2784166,5.1211715,7.4746594,-1.8473282,1.5954199,1.7175573,-5.7771792,0.4525018,11.0276365,-9.8244276,94.9923630,85.3969498
6360,4.1826491,5.1139889,7.4794478,-2.3206108,2.0229008,1.7633588,-4.5537481,0.3998296,10.4290895,3.8167939,81.3435135,75.4809189
6370,4.2041965,5.0637107,7.4938130,-2.1068702,1.9923664,1.6259542,-3.8115497,0.5243275,9.9741936,12.1145039,70.1679382,62.2977104
6380,4.1874375,5.0972295,7.7308378,-1.5648855,1.6564885,1.6946565,-3.4308734,0.7829000,9.6677370,18.8396950,66.8473282,49.0228996
6390,4.1730723,5.0852585,7.7332320,-1.3053435,1.7938931,1.7175573,-3.4787574,1.0797794,9.5384512,27.2366409,69.9007645,33.1221390
6400,4.1443419,5.0708933,7.7308378,-0.5190840,1.6259542,1.7709924,-4.0701222,1.2282192,9.4809904,37.7862587,71.2824402,17.2213745
6410,4.1275826,5.0349803,7.6709828,-0.1068702,1.4427481,1.8015267,-5.2265158,1.5538290,8.8896255,50.0228996,70.9542007,2.9923663
6420,4.1299767,5.0780759,7.6901364,0.5114504,0.7175573,1.8778626,-6.0046272,2.0685797,8.1570034,62.1297722,70.5801544,-5.0000000
6430,4.1323709,5.0948353,7.6015515,0.8244275,-0.2671756,1.8091604,-6.5145893,2.4253139,7.1682034,70.7862625,65.1374054,-12.0687027
6440,4.1108232,5.1092005,7.6566176,1.5572519,-0.3282443,1.7480916,-7.3645267,2.7269819,6.3182659,73.8244247,54.2137413,-17.6717548
6450,4.1060348,5.1522956,7.6638002,1.7938931,-1.0839695,1.5190840,-7.8122401,3.0334380,5.3988972,72.6259537,37.5190849,-21.6870232
6460,4.1323709,5.1068063,7.5249376,2.3435113,-1.4122137,1.4427481,-7.8289995,3.1651185,4.4316444,67.8702316,22.7099228,-24.7328243
6470,4.1898317,5.1235652,7.5009956,2.0381680,-1.8091604,1.0763359,-7.4052281,3.2560976,3.8929520,59.5114517,13.5343513,-27.2900772
6480,4.2472920,5.1546898,7.5225434,1.6870229,-2.3129771,0.6030535,-6.9503322,3.2082138,3.5026991,48.4427490,7.2366414,-32.4122124
6490,4.2233500,5.1642666,7.5584559,1.4961832,-2.2900763,-0.1755725,-6.7468257,3.0861101,3.4165084,36.3740463,4.8549619,-39.3511467
6500,4.3143296,5.1331420,7.5345144,1.2213740,-2.8931298,-0.6488550,-6.7851329,3.0597742,3.4787574,25.8702297,9.7404585,-45.5267181
6510,4.2951760,5.0780759,7.6015515,1.4503816,-3.8244274,-3.1297710,-10.1848822,2.6192431,5.0254035,14.0916033,71.9389343,-43.1297722
6520,4.2808108,5.1522956,7.5249376,1.4503816,-4.4809160,-3.5877862,-11.7099810,2.1380112,5.5473371,15.0000000,79.2061081,-39.0534363
6530,4.2520804,5.1929970,7.4698710,1.1832061,-5.0916033,-4.2824426,-13.4984398,1.7932479,5.9280128,13.2137403,70.0381699,-38.2977104
6540,4.1850433,5.1355362,7.4148049,0.4198473,-6.6335878,-5.4732823,-17.4225159,2.1188576,6.9551206,0.8320611,5.5267177,-31.5725193
6550,4.1539187,5.1546898,7.4507174,0.0610687,-7.4503818,-5.5801525,-18.8135414,2.0877333,7.4435349,-8.9694653,-28.0839691,-17.3511448
6560,4.2089849,5.1570840,7.5081782,0.0305344,-8.1068707,-5.6183205,-19.6131992,1.7812769,8.3222027,-16.3893127,-42.4351158,4.2290077
6570,4.2065907,5.1331420,7.4195933,0.0152672,-7.8702292,-5.9465647,-19.6131992,1.4460905,9.6246414,-17.0687027,-32.5648842,32.7175560
6580,4.1299767,5.1618724,7.6087341,-0.1221374,-7.7786260,-5.5419846,-19.6131992,1.0630201,10.9414454,-6.1755724,-9.1755724,64.9847336
6590,4.0964580,5.1211715,7.5895805,0.6412213,-8.3893127,-5.1526718,-19.6131992,0.6105183,11.6477318,13.4732828,19.3816795,100.6183243
6600,4.1084290,5.2097564,7.5033898,1.2137405,-9.5190840,-4.5114503,-19.6131992,0.1628049,11.9829178,37.5419846,34.3511467,131.9694672
6610,4.0988522,5.1594782,7.5273318,1.5572519,-9.4961834,-3.9160306,-19.6131992,0.1987177,11.6261835,59.0534363,31.9618320,159.7938995
6620,4.1970143,5.1714492,7.4890246,1.8854961,-8.7938929,-2.8167939,-19.6131992,0.4979914,10.9031391,76.5114517,19.4122143,184.1832123
6630,4.1132174,5.2648225,7.4531116,2.5877862,-7.1374044,-0.7709923,-15.8567171,0.6153067,8.5783806,98.0076370,-6.3893127,218.3664093
6640,4.2855992,5.2121506,7.4124107,2.4809160,-5.6183205,-0.0610687,-14.4824524,0.4572902,7.3717093,105.2900772,-15.1832066,228.2366486
6650,4.3071470,5.2073622,7.3741035,2.3282442,-3.6870229,0.5267175,-13.3571825,0.6751614,6.0956063,108.8778610,-20.4045811,236.0763397
6660,4.3215117,5.2576399,7.3429790,2.2290077,-2.0916030,1.2137405,-12.5024576,1.0869620,4.9104824,108.0916061,-19.6870232,246.6870270
6670,4.3885493,5.3151007,7.3525558,1.7633588,-0.8778626,1.2366412,-11.4059181,1.2018831,3.6678982,103.6106873,-11.5343513,250.1297760
6680,4.3167233,5.2959471,7.2759418,1.4809160,0.2748092,1.3129771,-9.1146793,0.7206510,2.5043221,88.9236679,10.0305347,250.1297760
6690,4.2472920,5.3031297,7.2424231,0.8244275,0.9847328,1.7862595,-8.1210909,0.6416427,2.1595588,81.0152664,17.5419846,250.1297760
6700,4.2544746,5.3558016,7.2448173,0.0152672,1.1603054,2.1603053,-7.1227136,0.6895266,2.1380112,72.7404556,19.8549614,250.1297760
6710,4.3502421,5.3318601,7.1131368,-1.1145039,2.2061069,2.1374047,-5.9016771,0.2896969,2.4995339,66.1297684,20.9083977,250.1297760
6720,4.3334827,5.2959471,7.4339581,-3.2061069,2.3816793,1.7633588,-0.9768293,-1.3000449,2.9280937,74.7938919,8.6717558,250.1297760
6730,4.3310885,5.1929970,7.4387465,-3.1984732,2.2137403,1.2061069,3.0813217,-1.6400198,2.3367288,82.0610657,7.4656487,250.1297760
6740,4.4531922,5.1834202,7.6757712,-2.2442749,1.8167939,0.7786260,8.3413563,-1.7597293,1.6495966,87.1908417,2.6488550,250.1297760
6750,4.3191175,5.0924411,7.6542239,0.7786260,0.7251908,0.2290076,16.1224709,-0.2825144,-1.0223188,83.8015289,-19.6564884,231.5496216
6760,4.3598189,5.2145448,7.4483232,-1.8015267,0.0076336,0.0687023,13.6468801,2.1835008,-3.2944047,-47.7480927,-122.8396912,-8.6717558
6770,4.4148855,5.2336984,7.4459291,-1.9618320,0.5725191,-0.4045801,14.6691990,1.4676381,-3.3566537,-65.0229034,-126.0916061,-21.6564884
6780,4.3478479,5.2336984,7.4555058,-1.6717557,1.7099236,-0.0992366,15.7106714,0.7996593,-3.3255291,-78.0000000,-106.9389343,-39.8625946
6790,4.3071470,5.2025738,7.4363523,-1.9770992,3.2748091,0.2213740,16.0697994,0.6105183,-3.1196289,-87.2061081,-84.9312973,-61.7404594
6800,4.3478479,5.1977854,7.3357964,-2.2595420,4.4427481,0.0763359,17.5948982,0.5650287,-3.0717452,-94.2442780,-67.8473282,-84.9160309
6810,4.2305326,5.2624283,7.4004397,-3.1603053,4.8091602,-0.3206107,19.6126022,0.1316804,-3.1866663,-99.0381699,-34.0916023,-118.0229034
6820,4.1060348,5.2193332,7.3741035,-3.5190840,3.9923663,-0.0687023,19.6126022,-0.7445929,-3.2417326,-101.4809189,9.3587790,-166.9465637
6830,4.0174499,5.2049680,7.4722652,-3.3053436,2.8396947,0.8167939,19.6126022,-1.5011568,-2.8442972,-101.7099228,44.0992355,-229.1145020
6840,4.0222383,5.2624283,7.5177550,-2.7022901,2.8167939,1.4656489,19.6126022,-2.6168492,-2.6599445,-101.6259537,62.0305328,-250.1374054
6850,4.0461802,5.1977854,7.6829538,-1.7022901,3.2213740,2.8473282,19.6126022,-4.2089849,-2.7509236,-102.3969498,69.6259537,-250.1374054
6860,4.0054789,5.1570840,7.6278877,-0.6870229,4.3053436,3.6870229,18.9667683,-6.1051831,-2.7030399,-102.6641235,77.7175598,-250.1374054
6870,4.0964580,5.2815819,7.6063399,0.4274809,4.6946564,4.6106873,18.8015690,-9.3397331,-3.1052637,-98.8778610,78.7557220,-250.1374054
6880,4.0940638,5.2528515,7.4746594,0.9083970,4.6717558,4.5343513,17.5374374,-14.4465389,-4.1802549,-92.3358765,87.4122162,-250.1374054
6890,4.1491303,5.1618724,7.4435349,1.1068702,4.1450381,4.8854961,9.5983057,-19.6131992,-5.4395986,-89.1755753,81.8015289,-250.1374054
6900,4.2377152,5.2863703,7.4626884,0.8778626,4.3358779,4.9083967,-5.2887645,-19.6131992,-5.1379304,-112.5496216,47.3435097,-250.1374054
6910,4.2018023,5.2097564,7.4124107,0.8549618,4.6488547,4.5496182,-19.6131992,-19.6131992,-1.6424140,-183.7480927,-18.7633591,-250.1374054
6920,4.2688398,5.2193332,7.5081782,0.6335878,4.2900763,3.8015268,-19.6131992,-16.3379498,8.8728657,-250.1374054,-114.3206100,-250.1374054
6930,4.2855992,5.2384863,7.5033898,0.8549618,3.3129771,2.9083970,-19.6131992,-7.1897511,19.6126022,-250.1374054,-180.5267181,-250.1374054
6940,4.2568688,5.3629842,7.3908629,0.6641222,1.6488550,2.0229008,-19.6131992,-10.4985209,19.6126022,-250.1374054,-139.6335907,-132.8549652
6950,4.2018023,5.2600341,7.3549500,-0.3053435,-0.1908397,0.5954198,-19.6131992,-11.2502966,19.6126022,-111.6870193,19.4961834,-1.9160305
6960,4.1994085,5.2743993,7.4267755,-0.9160305,-2.1068702,-0.6488550,-19.6131992,-8.0540533,19.6126022,1.1145039,235.2595367,53.9694672
6970,4.1156116,5.1546898,7.5704269,-0.9160305,-4.2519083,-1.3053435,-19.6131992,-4.3310885,19.6126022,48.7938919,250.1297760,89.6183243
6980,4.2185616,5.1211715,7.6326761,-0.5572519,-5.3053436,-1.4656489,-19.6131992,-1.8674678,18.1168308,59.6717567,250.1297760,100.0610657
6990,4.2640514,5.0517397,7.7068958,0.3664122,-5.2977099,-1.5419847,-18.3730106,-0.2561783,15.5646257,61.7557259,157.9236603,84.1832047
7000,4.3143296,5.0445571,7.6925306,0.8625954,-5.5343513,-1.6641221,-13.0626974,0.9361281,13.0531206,62.1603050,37.1068687,54.2519073
7010,4.3717899,5.0014620,7.6709828,1.8549619,-5.9389315,-1.9236641,-9.2607250,2.0183017,10.9294748,64.4351120,-25.8931293,24.6641216
7020,4.4531922,5.0086441,7.5105724,2.4885497,-6.4198475,-2.3969467,-7.3118544,2.7724714,9.1218615,69.9847336,-40.6183205,3.8396947
7030,4.4867110,5.1355362,7.4028339,2.6717558,-6.7557254,-3.8854961,-6.6702118,3.4404502,6.5792327,92.1832047,7.0000000,-10.1526718
7040,4.0725164,5.4779053,7.2496057,-0.4809160,1.6488550,2.6488550,-6.2775645,2.1811066,-1.1420283,-7.5725193,3.6335878,-35.9847336
7050,4.1587071,5.4132624,7.3381906,-0.6335878,0.9694657,3.1221373,-7.8553357,2.1356170,-0.1795642,-20.6870232,-3.2824428,-43.7099228
7060,4.1778607,5.4252334,7.4315639,-1.1526718,0.2595420,3.1221373,-9.3924055,2.2816625,0.7613522,-31.6641216,-15.3053436,-46.5038185
7070,4.2496862,5.3534074,7.3621325,-1.4809160,0.4351145,3.3129771,-10.4721851,2.3606708,1.7190280,-40.7480927,-29.6259537,-43.2137413
7080,4.2353210,5.2336984,7.4219875,-1.7251909,0.8167939,3.3664122,-10.9773588,2.3415172,2.5546002,-46.6870232,-41.5801544,-36.1297722
7090,4.2664456,5.2504573,7.4555058,-1.2671756,0.4427481,3.0916030,-10.8959560,2.1020982,3.3686244,-48.5419846,-49.1603050,-27.5114498
7100,4.4148855,5.1906028,7.4411407,-1.0916030,0.5419847,2.9923663,-10.4769726,1.8531027,4.0605454,-46.7862587,-49.7480927,-20.3129768
7110,4.3861551,5.1738434,7.4579000,-1.2366412,0.5877863,2.5572519,-10.0603838,1.7501525,4.6830344,-41.9007645,-44.0839691,-14.8854961
7120,4.4555864,5.1570840,7.3669209,-1.4198474,0.9007633,1.7862595,-9.6366129,1.7573351,5.1977854,-35.2290077,-33.0228996,-11.3740454
7130,4.5369892,5.1499014,7.5129666,-1.2519084,0.6641222,1.0000000,-9.3900108,1.7621235,5.4922705,-27.6793900,-20.6106873,-10.3893127
7140,4.5681133,5.1115947,7.6039457,-1.2671756,0.3053435,0.3206107,-9.8473015,2.0805507,5.4755111,-21.8091602,-18.8320618,-11.7786255
7150,4.4555864,5.1139889,7.6183109,-1.0305344,-0.0152672,-0.5572519,-12.9836893,3.4093258,4.3119354,-41.9923668,-95.3435135,-41.0000000
7160,4.4244623,5.1355362,7.5321202,-0.2977099,-0.0458015,-1.1297710,-13.4984398,1.0438666,4.7045822,-64.9083939,-157.0839691,-46.1908379
7170,4.3215117,5.1594782,7.4052281,0.2213740,-0.8549618,-1.6564885,-12.5503407,0.9002152,6.1147599,-61.2595406,-156.7709961,-29.0381680
7180,4.2903876,5.2504573,7.3669209,0.4885496,-1.1755725,-1.9465649,-10.7690639,1.5227045,6.8952656,-41.9618340,-120.4351120,-9.1221371
7190,4.1539187,5.2504573,7.3645267,0.4732825,-2.0687022,-1.8396946,-9.3229742,2.5115047,6.4475522,-6.6870227,-32.3816795,8.9236641
7200,4.1060348,5.3653784,7.3764977,0.3129771,-2.5267177,-1.4885496,-9.2128410,1.9991482,5.9280128,0.8167939,-15.9083967,13.6183205
7210,4.1826491,5.2959471,7.3501616,0.4427481,-2.6030533,-0.8396947,-8.5209198,1.9153515,5.5808558,3.7633588,-11.6717558,16.6717548
7220,4.1682839,5.3581958,7.3741035,0.3511450,-2.4809160,-0.5496183,-7.8098459,2.0302727,5.5210009,5.9541984,-10.6106873,15.5648851
7230,4.1826491,5.3629842,7.3429790,0.4809160,-2.0458016,-0.2519084,-7.3549500,1.9512644,5.2384863,7.3969464,-13.9007635,11.1068707
7240,4.1491303,5.3414369,7.3645267,0.3511450,-1.8931298,0.3435115,-7.1370788,1.7908537,5.0301919,8.1374044,-19.8473282,4.3206105
7250,4.2760224,5.3438311,7.2903070,-0.0839695,-1.3893130,0.5801527,-7.4219875,1.7884595,4.8793583,7.8549619,-26.3358784,-2.0076337
7260,4.3119354,5.3270717,7.3381906,-0.6641222,-0.8625954,0.5114504,-8.0396881,2.1164634,4.6830344,6.9007635,-33.8320618,-5.7633586
7270,4.3215117,5.2983413,7.3429790,-0.7404580,-0.4045801,0.7251908,-8.6956959,2.2792683,4.6088147,6.1984735,-42.6564903,-5.0839696
7280,4.3598189,5.3222833,7.2184811,-1.0305344,0.0763359,0.8931298,-8.8058290,2.1619530,4.4699516,5.3816795,-51.5877876,-4.0000000
7290,4.3670015,5.2600341,7.3764977,-1.0305344,0.3816794,0.8625954,-8.7675219,2.1691356,4.0581512,3.5801528,-58.7251892,-2.9389312
7300,4.2951760,5.2552457,7.3310080,-1.3129771,0.5725191,0.8091603,-8.6238708,2.2074428,3.6607156,-0.6412213,-67.8625946,-3.4961832
7310,4.3143296,5.2600341,7.4124107,-1.6335878,0.5954198,0.9923664,-8.2192526,2.1595588,3.5577655,-7.5725193,-77.2290039,-5.1603055
7320,4.2448978,5.1977854,7.4076223,-1.7404580,0.7404580,0.6946565,-7.7811155,2.5737536,3.6080434,-26.5343513,-88.6641235,-10.3435116
7330,4.2903876,5.2289100,7.5776095,-1.2519084,0.7099237,0.7404580,-7.7739329,2.5498118,3.9815371,-36.4198456,-92.4656525,-11.6717558
7340,4.2975702,5.2600341,7.5632443,-0.6793893,0.9236641,0.9770992,-7.6781654,2.4540441,4.4484038,-45.0763359,-95.0763321,-12.4198475
7350,4.2688398,5.2696109,7.4555058,-0.4961832,0.9770992,1.3129771,-7.4890246,2.3223639,5.1068063,-51.3129768,-95.9236679,-11.7786255
7360,4.2640514,5.2983413,7.3956513,-0.4732825,0.8854962,1.1832061,-7.5153608,2.2816625,5.7029591,-55.5648842,-94.2977066,-10.0458012
7370,4.3143296,5.3127065,7.3477674,-1.2748091,0.9312977,0.6870229,-6.7803445,1.0558375,8.3724804,-42.9312973,-62.0076332,1.4427481
7380,4.3286943,5.3174949,7.4219875,-0.8702290,0.7786260,0.3053435,-7.2065101,1.0175306,8.5903521,-35.2595406,-50.0305328,2.6946564
7390,4.3358769,5.2863703,7.3741035,-1.1603054,1.0381680,0.1526718,-6.5720501,0.8762733,8.9614515,-24.0839691,-36.0992355,4.7251906
7400,4.3239059,5.2767935,7.4818420,-1.0610687,1.9923664,0.2748092,-6.3134775,0.9193687,8.9686337,-15.8549614,-26.9160309,3.8625953
7410,4.2161674,5.2432747,7.4722652,-0.5877863,1.7022901,0.2977099,-6.3541789,1.0151364,8.8393478,-8.0610685,-19.7633591,2.3053436
7420,4.2688398,5.2791877,7.5009956,-0.1755725,0.8396947,0.3893130,-6.4116392,1.0271072,8.4993725,-2.0305343,-13.9083967,1.0687023
7430,4.2161674,5.2648225,7.4770536,0.1221374,0.3282443,0.4122137,-6.5983863,1.0773853,8.1474266,2.2977099,-9.3206110,0.4885496
7440,4.2688398,5.2169390,7.4052281,-0.6183206,0.3511450,0.3893130,-6.6917596,1.1803354,7.8529415,4.7557254,-4.1832061,0.5114504
7450,4.2736282,5.1858144,7.4794478,-0.6488550,0.3893130,0.3358779,-6.8904772,1.3670821,7.6973190,6.3282442,0.4732825,-0.0916031
7460,4.2018023,5.2073622,7.5321202,-0.3511450,-0.0534351,0.6259542,-6.9958215,1.3670821,7.4411407,7.0381680,5.3664122,-0.5572519
7470,4.2305326,5.2696109,7.5321202,0.7557252,-0.5343512,0.6793893,-7.0628591,1.4436963,7.2543941,7.5343513,10.6030531,0.1679389
7480,4.2712340,5.2839761,7.5393028,1.1984733,-0.5267175,0.6259542,-7.1873569,1.5729824,7.1825686,6.7786260,15.4274807,0.5496183
7490,4.2616572,5.2504573,7.4842362,1.5877863,-0.3969466,0.8396947,-7.3022780,1.7094513,7.0484939,6.2213740,19.5343513,1.9923664
7500,4.2257442,5.2887645,7.3286138,1.3740458,0.0076336,0.9847328,-7.3046722,1.7262106,7.1490498,6.7480917,20.9618320,3.1679389
7510,4.1946201,5.3103123,7.3142486,0.8931298,-0.3053435,1.1145039,-7.3238254,1.8650736,6.9838505,7.4732823,21.0305347,4.5954199
7520,4.2975702,5.3581958,7.3669209,0.4122137,-0.7480916,1.1908396,-7.1490498,1.7836711,6.7923155,7.2748094,20.3358784,5.0458016
7530,4.2448978,5.3414369,7.4076223,0.3587786,-0.7938932,1.1374046,-7.0963774,1.7525467,6.6342988,6.3129773,19.2671757,4.7480917
7540,4.2568688,5.2696109,7.4674768,-0.0305344,-0.9236641,1.1603054,-7.0341287,1.6735384,6.5792327,4.8091602,18.2900772,3.1526718
7550,4.2065907,5.2528515,7.4100165,0.1221374,-1.0000000,1.2977099,-7.0556765,1.6400198,6.5935979,3.5267177,17.2748089,1.1603054
7560,4.3071470,5.3893204,7.3573442,-0.0458015,-0.8244275,1.2595420,-7.1155310,1.5897418,6.6414814,2.3282442,16.5954189,-0.7404580
7570,4.2209558,5.2696109,7.3597383,0.0916031,-0.6641222,1.2977099,-7.1298962,1.6400198,6.8114691,1.5954199,16.3206100,-3.2213740
7580,4.1898317,5.3462253,7.3022780,-0.1755725,-0.8244275,1.4580153,-7.2089043,1.7357874,6.8832946,2.1984732,15.5877867,-5.0381680
7590,4.1754665,5.3510137,7.2543941,-0.7786260,-1.0381680,1.9923664,-7.3190370,1.6639616,6.8282285,4.1679387,13.5190840,-6.6183205
7600,4.2377152,5.3725610,7.1969333,-1.2366412,-0.7786260,1.9083970,-7.4028339,1.7405758,6.8210459,5.8091602,10.0916033,-8.1679392
7610,4.2879934,5.3294659,7.3525558,-1.7633588,-0.6870229,1.7022901,-7.4028339,1.7621235,6.5145893,6.2748094,6.8702292,-9.0687027
7620,4.2975702,5.2887645,7.3980455,-1.7022901,-0.7633588,1.6335878,-7.5273318,1.7621235,6.2967181,5.1526718,4.8015265,-9.0534353
7630,4.3550305,5.2480631,7.4746594,-1.3053435,-0.2442748,1.5343511,-7.6326761,1.7142396,6.2919297,2.9160306,3.6564887,-8.4656487
7640,4.4124913,5.1929970,7.4555058,-1.0610687,0.0000000,1.2824427,-7.5967631,1.7333932,6.3182659,0.4503817,2.6564887,-7.6641221
7650,4.4795284,5.1163831,7.3932571,-0.7404580,0.0000000,0.8702290,-7.5800037,1.6615674,6.3278427,-1.6793894,2.8167939,-6.9083967
7660,4.5154414,5.0876527,7.4698710,-0.7404580,-0.1068702,0.3969466,-7.4315639,1.6519908,6.4427638,-2.9083970,3.3129771,-6.4580154
7670,4.5345950,5.1594782,7.5033898,-0.2748092,-0.3206107,-0.6793893,-7.3357964,1.5705882,6.7611909,-3.1450381,4.8396945,-6.0229006
7680,4.5034704,5.1403246,7.4339581,0.0687023,-0.8320611,-1.5343511,-7.2112985,1.5490406,6.7779503,-2.8931298,6.3435116,-6.6488547
7690,4.5178356,5.1331420,7.5440907,1.0687023,-1.1984733,-1.9923664,-7.2903070,1.5346755,7.0987716,-1.4351145,9.1450386,-8.0992365
7700,4.4747400,5.1594782,7.4555058,1.8244275,-1.7251909,-2.8244274,-7.3334022,1.5610116,7.0772243,0.3435115,12.4351149,-9.3358774
7710,4.4819226,5.1858144,7.4315639,1.9541985,-1.7862595,-3.5725191,-7.5608501,1.5729824,7.2256637,3.0152671,16.4656487,-10.3282442
7720,4.3789725,5.1379304,7.3788919,1.5343511,-1.5267175,-3.9847329,-7.6685886,1.6807210,7.4028339,6.9923663,20.2137413,-10.6030531
7730,4.3670015,5.3797436,7.3693151,-0.8854962,-1.7328244,-7.0152674,-10.0101061,2.0901275,7.0915890,31.1832066,71.6488571,-3.0381680
7740,3.9839313,5.4372044,7.3956513,-0.8778626,-2.7328243,-7.0381680,-11.9877062,2.6767037,6.9239960,40.3282433,94.9465637,12.9618320
7750,3.8115497,5.4012914,7.3094602,-0.4427481,-3.5801528,-5.8931298,-12.8496151,2.9520357,6.9455438,39.7786255,95.2213745,20.2748089
7760,3.9623835,5.4635406,7.1873569,0.9465649,-5.2366414,2.7862597,-14.3172531,2.8347204,7.3836803,16.8778629,-2.4503818,51.0152664
7770,4.5082588,5.4372044,7.1370788,-0.2519084,-2.6564887,4.8702292,-13.1225519,2.8730273,7.6757712,21.9694653,-23.8549614,54.0228996
7780,4.6136031,5.4084740,7.0269461,-1.4274809,-0.3358779,4.7175574,-13.2733860,2.7006457,7.5728211,25.4351139,-28.5725193,53.2748108
7790,4.5968437,5.2935529,7.2950954,-5.1755724,7.6030536,1.6717557,-16.3403435,2.9209111,8.3581152,25.4503822,10.6030531,84.7175598
7800,4.3622131,5.2145448,7.3669209,-6.1221375,10.1832066,1.9236641,-16.9436779,2.4037662,9.8018112,53.2671738,51.1450386,151.4045868
7810,4.3071470,5.2839761,7.4148049,-6.8244276,11.1908398,1.8778626,-16.6875000,2.0566087,9.6342182,65.8091583,48.5877876,168.3129730
7820,4.2903876,5.2456689,7.4746594,-6.9389315,11.4732828,1.5267175,-16.1105003,1.9392935,9.0979195,77.5725174,38.6793900,181.4961853
7830,4.1754665,5.2313042,7.5225434,-7.0687022,11.3511448,0.9312977,-15.1384602,1.6687500,8.4514885,85.0839691,31.2900772,192.0000000
7840,4.2281384,5.3007355,7.5488791,-6.2748094,10.7022905,0.2748092,-14.2909164,1.5490406,7.6398587,90.2824402,27.4122143,199.9389343
7850,4.0653338,5.3294659,7.6350703,-5.1679387,9.0152674,-0.3740458,-14.0874109,1.5298871,6.7899213,89.8931274,29.3893127,208.5267181
7860,3.9264708,5.2001796,7.6566176,-3.9007633,6.8473282,-0.7786260,-14.2286682,1.6855093,6.1147599,89.2290039,34.5801544,220.8854980
7870,3.8594334,5.2145448,7.6326761,-3.0381680,5.4045801,-0.5648855,-13.9198179,1.6400198,5.6550756,84.2519073,37.7938919,239.2519073
7880,3.7971845,5.1714492,7.6829538,-1.5190840,4.1526718,-0.0687023,-12.9669304,1.3982066,5.4898763,79.8931274,43.8702278,250.1297760
7890,4.1802549,4.9583664,7.5057840,0.0229008,-0.2977099,3.1679389,-9.4067707,0.4213773,4.9870968,79.5648880,44.4122124,250.1297760
7900,4.3358769,4.9128766,7.6302819,0.1603053,0.1068702,3.6335878,-8.6741486,0.0047884,4.5154414,80.8625946,45.7862587,250.1297760
7910,4.1611013,5.3941088,7.5153608,-0.5648855,4.1984735,-3.1832061,-2.4851687,-0.4022238,1.9297167,57.1221390,21.3358784,250.1297760
7920,3.3997490,5.4779053,7.5776095,4.1374044,-9.8320608,2.8854961,6.2105274,-0.4740495,2.0590029,4.9007635,-23.7786255,250.1297760
7930,4.0078731,5.2097564,7.7547798,5.4045801,-3.3740458,7.7938933,8.9422979,0.0335187,1.4580613,19.9389305,-25.0992374,215.5343475
7940,4.2257442,5.1858144,7.5321202,5.7862597,0.4274809,10.0916033,9.3924055,0.7206510,0.6368544,20.9923668,-20.3893127,183.1908417
7950,4.5322008,5.1259594,7.3262196,5.5419846,3.5267177,11.1603050,8.8656836,1.3982066,0.0933734,14.2442751,-8.7328243,157.1908417
7960,4.8937230,5.1068063,6.9551206,4.1450381,5.7786260,11.2824430,8.0468712,1.9416877,0.1436514,5.4809160,9.3358774,142.9084015
7970,5.1618724,5.0852585,6.9000540,1.9160305,6.7251906,9.8778629,7.7428088,2.5546002,0.7829000,-1.8549619,28.8167934,136.3282471
7980,5.3869262,5.1115947,6.8809004,-1.0305344,8.1297712,6.6412215,7.9199786,2.8179610,1.6519908,-4.6259542,42.5343513,130.7557220
7990,5.4491754,5.0493455,6.9407554,-3.6335878,8.8931293,2.6183207,8.1546097,2.9855542,2.7197993,-1.1908396,43.6030540,125.1221390
8000,5.2576399,5.0996237,7.1610208,-5.9465647,8.9923668,-1.5572519,8.8680773,3.1292057,3.2249732,6.7786260,32.0305328,116.8702316
8010,5.0541339,5.0277977,7.4531116,-7.4045801,7.8091602,-4.8931298,9.5001440,3.1244173,3.2920105,17.0610695,15.6793890,106.6030502
8020,4.5992379,5.0828643,7.6949248,-6.4503818,4.5877862,-8.7862597,10.2638903,2.9975252,2.9903426,27.7099228,-3.6183207,95.1679382
8030,3.8690102,5.0972295,7.9487090,-3.6106870,2.3664122,-10.0992365,13.1177645,2.5976956,1.1587877,40.7633591,-35.1450386,67.5038147
8040,3.5362179,5.1307478,8.0109577,-2.0458016,1.5114504,-9.5038166,15.2174683,2.2816625,-0.0837966,42.2595406,-25.8015270,47.5343513
8050,3.3710186,5.2696109,7.9295554,-0.3816794,0.4045801,-7.9847326,17.0466290,2.0254843,-1.3910241,38.8931313,7.6870227,20.3969460
8060,3.1387823,5.2767935,7.8864598,1.8167939,-1.4122137,-6.1755724,17.7289734,1.9009864,-2.0446377,30.8778629,47.6488533,-14.2442751
8070,3.0956869,5.4252334,7.7356262,4.2900763,-4.1908398,-3.9007633,17.4033623,1.9177457,-2.1116750,19.4961834,72.5801544,-55.1603050
8080,3.2944047,5.5114241,7.2256637,6.2061067,-11.6335878,0.7557252,14.8391867,1.5681942,-1.7956421,-15.9618320,59.3358765,-139.6106873
8090,3.5673423,5.5688848,7.0987716,5.2748094,-13.9770994,2.5801528,13.2278967,1.3239868,-0.8882443,-36.2977104,31.5801525,-176.9847260
8100,3.7852135,5.5952206,7.0484939,3.5419848,-15.2290077,3.4961832,11.8009596,0.9073978,-0.1436514,-54.5419846,1.0229008,-207.9084015
8110,4.1060348,5.5569139,7.0796180,2.1145039,-15.9541988,3.8625953,10.8337069,0.2681492,0.6799498,-69.5572510,-21.6564884,-232.3435059
8120,4.3382711,5.5233951,7.1131368,0.8931298,-15.5801525,3.2824428,9.8999729,-0.4141948,1.5490406,-78.2977066,-31.4656487,-250.1374054
8130,4.5178356,5.4132624,7.2615767,0.3969466,-14.3358774,2.5801528,9.3564920,-0.9457048,2.1547706,-79.8091583,-26.2366409,-250.1374054
8140,4.5800843,5.3174949,7.3070664,-0.2366412,-12.0687027,2.0458016,8.6502066,-1.3718705,2.8083842,-72.6030502,-8.8702288,-250.1374054
8150,4.6926112,5.2289100,7.3549500,-0.6259542,-7.9618320,1.6335878,8.0923605,-1.7956421,3.1746953,-58.4122124,18.2137413,-250.1374054
8160,4.8721757,5.2576399,7.4052281,-1.8473282,-1.6488550,1.6183206,7.4531116,-2.2170193,3.1220231,-39.9771004,45.5572510,-250.1374054
8170,5.2528515,5.3151007,7.6183109,-3.8549619,9.8931293,0.5801527,7.1346846,-2.8682389,2.5833304,-20.8320618,65.2595444,-250.1374054
8180,6.0620875,5.6000090,7.3669209,-8.4732828,29.6717548,-3.5114503,6.5050125,-3.6894460,1.4580613,-5.9083967,74.6106873,-250.1374054
8190,6.0716643,5.5545197,7.0724359,-15.8396950,50.1526718,-8.5877867,5.6502872,-4.5465660,0.0909792,-0.4274809,62.6564903,-250.1374054
8200,5.6646523,5.3246775,6.8689294,-22.3511448,67.3587799,-10.4732828,3.9935081,-5.6502872,-1.3886299,-11.1450386,27.3435116,-250.1374054
8210,5.0230093,5.0684991,6.5576849,-25.9847336,78.1984711,-9.9083967,2.9089401,-6.5720501,-2.8802099,-39.6641235,-22.4351139,-250.1374054
8220,4.4867110,5.0684991,6.4068508,-27.6564884,77.6030502,-9.4274807,1.8124014,-7.6805596,-3.6439564,-82.8396912,-67.8015289,-250.1374054
8230,3.8043671,5.0948353,6.4619174,-27.6717548,63.1374054,-8.6946564,-0.1197095,-9.1146793,-2.9448531,-131.5648804,-98.6946564,-250.1374054
8240,1.5753766,5.3222833,7.5560617,-23.5648861,41.8091621,-5.6564884,-3.9959023,-11.1257982,-0.9911944,-181.1221313,-95.6870193,-250.1374054
8250,3.0214672,4.6590929,7.6949248,-17.2137413,19.9389305,-2.1145039,-10.8815908,-12.2941628,2.6790979,-220.6564941,-72.0687027,-250.1374054
8260,3.1603301,5.0637107,8.0420828,-14.4809160,3.3587787,-5.6793895,-19.4216652,-12.2726154,6.8306227,-241.0534363,-24.4656487,-250.1374054
8270,2.8299320,5.1331420,8.3652983,-14.0916033,-8.5496187,-8.9083967,-19.6131992,-10.9821472,13.1033993,-242.4732819,49.1450386,-250.1374054
8280,2.5953014,4.8147149,8.5209198,-11.1832066,-18.1297703,-10.0763359,-19.6131992,-8.7172441,19.5270100,-210.0000000,89.1755753,-250.1374054
8290,2.3032103,4.7740140,8.6190825,-8.9312973,-15.2824430,-9.8015270,-19.6131992,-6.2464404,19.6126022,-130.5496216,42.7557259,-250.1374054
8300,2.0254843,4.6351509,8.6765423,-9.0534353,-9.4809160,-7.1450381,-19.6131992,-2.9831600,19.6126022,-39.6641235,-34.4274826,-250.1374054
8310,1.6280488,4.5824785,8.8441362,-9.1755724,-5.6946564,-1.1145039,-19.6131992,-0.9480990,19.6126022,39.4503822,-83.9160309,-191.4732819
8320,0.9337339,4.3047528,9.6222477,-1.3664122,-7.9312978,12.5343513,-19.6131992,0.1029501,14.4034433,87.8625946,-83.9923630,-132.3053436
8330,1.8531027,4.1227942,8.7363977,6.7175574,-14.1297712,23.8167934,-19.6131992,1.0462608,9.1625633,107.1832047,-60.0228996,-82.8091583
8340,1.7046629,4.1778607,8.2791071,14.6412210,-30.9618320,34.7938919,-19.6131992,1.9273225,5.0948353,102.3282471,-26.1068707,-54.0228996
8350,2.4420733,4.7428894,8.0396881,20.5190830,-56.1603050,40.6793900,-18.1311970,2.3606708,2.1547706,79.2137375,17.6793900,-41.1526718
8360,4.1227942,5.3965030,8.2527714,23.0076332,-64.0076370,33.8854980,-17.8558655,3.3782012,1.1587877,45.2213745,61.8549614,-27.3053436
8370,5.5257893,5.4611464,8.6047173,18.9389305,-44.1603050,22.9618320,-18.4448357,4.2520804,1.5897418,7.7709923,81.3129807,-8.3358774
8380,5.9232249,5.1522956,8.9590569,14.3282442,-15.1755724,13.3740454,-17.8630466,4.3454537,3.1244173,-21.6717548,70.2519073,10.9923668
8390,4.9799142,4.8266859,8.2886839,21.3893127,14.4122133,6.7328243,-14.2143030,3.7900019,5.8801293,-36.9312973,27.9312973,36.6183205
8400,4.5393834,5.0062504,6.9790621,28.6412220,2.0305343,6.1450381,-9.8209648,2.8419030,6.8162575,-13.9770994,23.5954189,42.3435097
8410,4.8003497,5.0708933,6.7396431,26.6030540,1.5038168,7.4656487,-8.3461447,2.6048782,6.6462698,2.6412213,30.1755733,37.2671738
8420,5.0924411,5.2696109,6.5409255,21.9389305,9.6488552,8.0458012,-7.2687593,2.5234756,6.0932121,18.8854961,36.2900772,28.0458012
8430,5.2336984,5.3773494,6.5624733,15.7022905,20.2671757,7.1526718,-6.6678176,2.2170193,5.3725610,32.1603050,41.2137413,17.8854961
8440,4.9248476,5.4826937,6.7516141,10.7328243,24.4961834,4.9847326,-6.4283986,2.1787124,4.5010762,40.2595406,42.2366409,5.6946564
8450,4.4364328,5.4922705,6.7659793,9.4503813,20.6793900,3.3129771,-6.3900914,2.2313845,3.9049230,42.7251892,38.2824440,-5.9389315
8460,4.1611013,5.5233951,6.6989422,9.1068707,13.0763359,1.8091604,-6.8593526,2.1906834,3.2967989,41.7251892,28.3969460,-15.9007635
8470,4.0437860,5.6694407,6.5959921,7.2366414,5.0381680,0.4503817,-7.3046722,2.2577207,2.7820482,37.1908379,15.9541988,-24.2213745
8480,3.9791429,5.6718349,6.6295104,3.7709923,0.0458015,-0.8931298,-7.8720951,2.2649033,2.4157372,29.5801525,2.2290077,-28.3053436
8490,3.9336534,5.7652082,6.6438756,-1.3816794,-1.2213740,-1.9465649,-8.2360115,2.1978660,2.4157372,19.7175579,-9.4274807,-28.3664131
8500,3.9767487,5.7149301,6.7851329,-6.7022901,1.0381680,-3.5801528,-8.5951405,1.9752063,2.3846128,10.2748089,-16.0381680,-27.8702297
8510,3.9264708,5.5856438,7.2687593,-10.2519083,3.0839694,-4.5190840,-8.7890692,1.8411317,2.4468615,1.6488550,-19.9236641,-25.9389305
8520,3.7971845,5.3965030,7.6278877,-10.2137403,3.1221373,-4.2595420,-8.8225880,1.9752063,2.7628946,-5.3206105,-19.4580154,-22.8854961
8530,3.7469065,5.2504573,7.9534974,-8.2671757,3.0076337,-3.2061069,-8.6478119,1.9608412,3.3135581,-10.8931293,-14.0381680,-19.1526718
8540,3.7469065,5.1475072,7.9678626,-5.9618320,3.6259542,-1.5801526,-8.6334467,1.9536586,3.8929520,-13.5114508,-8.7251911,-16.1832066
8550,3.7995787,5.0038562,7.7739329,-4.2595420,5.2977099,0.6793893,-8.8082228,1.9392935,4.2161674,-13.3129768,-11.0305347,-16.5954189
8560,3.6966286,5.0972295,7.6805596,-3.7099237,7.4503818,2.8320611,-9.4953556,2.1212518,4.3502421,-14.6641226,-23.0152664,-20.0916023
8570,3.8785870,5.0996237,7.6733770,-3.8167939,8.4122133,4.1526718,-11.9685535,2.5953014,4.2041965,-30.9083977,-78.7786255,-40.4274826
8580,3.9168940,5.2241216,7.5416965,-3.6030533,7.6717558,4.3206105,-13.2518387,2.1835008,4.7500720,-47.4961815,-116.6030502,-35.6412201
8590,4.0198441,5.2432747,7.5704269,-3.2137403,4.9389315,3.3893130,-12.1816359,1.8315549,5.8513989,-46.2442741,-106.4503784,-13.1755724
8600,4.0198441,5.3174949,7.6230993,-2.3664122,0.0687023,0.8244275,-8.8513184,2.1858950,6.9551206,-12.8473282,-51.9465637,8.8244276
8610,3.7109938,5.1331420,7.9127960,1.6335878,-4.9465647,-0.2290076,-7.0724359,1.8147956,4.8099265,7.3129773,-7.8091602,1.2900764
8620,3.8187323,5.2121506,7.7930865,3.0152671,-5.1221375,0.4885496,-7.0700417,1.8435259,4.7788019,1.9770992,-11.8549614,-3.4274809
8630,3.8881636,5.1906028,7.5919747,3.2900763,-5.5267177,0.7557252,-7.2496057,1.9177457,4.9583664,-1.3282443,-13.6030531,-6.7404580
8640,4.0222383,5.2552457,7.4555058,2.4809160,-5.8167939,0.6488550,-7.6661944,2.0087249,5.2025738,-2.4274809,-15.0152674,-8.1374044
8650,4.2185616,5.2743993,7.5153608,-0.4656489,-6.6259542,-2.3893130,-8.5999289,1.9105632,4.8218975,-2.5038168,-21.3358784,-7.5877862
8660,4.0533628,5.2767935,7.5536675,-0.7328244,-7.3435116,-3.4885497,-8.6310530,1.7836711,4.6040263,-4.0992365,-19.5496178,-7.3282442
8670,3.9480183,5.3270717,7.6494355,-0.2290076,-8.6793890,-3.6412213,-8.7387915,1.7190280,4.7021880,-6.6564884,-18.0229015,-7.1603055
8680,3.7947903,5.1929970,7.5632443,1.6183206,-9.2671757,-2.0839694,-8.7052727,1.7286048,5.3198891,-8.2977095,-9.4809160,-5.5419846
8690,3.7684543,5.1738434,7.6207051,1.7557251,-9.5648851,-1.1908396,-8.4897957,1.7333932,5.5784616,-6.7938933,-7.3816795,-4.6641221
8700,3.8618276,5.2145448,7.5680327,1.2137405,-9.5496187,0.3053435,-8.1689749,1.7453641,5.7843618,-4.6717558,-6.4961834,-4.8702292
8710,3.9743545,5.1858144,7.6494355,1.2366412,-9.1297712,0.7251908,-8.0779953,1.8363433,5.8442163,-1.2213740,-6.5343513,-5.5343513
8720,4.0677280,5.2791877,7.5871863,1.9847329,-8.7709923,0.9312977,-7.8409705,1.6926919,5.8537931,2.5190840,-7.3740458,-8.2748089
8730,4.0988522,5.2432747,7.6278877,2.6106870,-8.9083967,0.5496183,-7.8984308,1.7693061,5.6981707,5.7328243,-7.1908398,-10.7251911
8740,4.2329268,5.2552457,7.4914188,2.9160306,-8.8320608,0.2290076,-8.2264347,1.8124014,5.5784616,7.9618320,-6.1450381,-12.1832066
8750,4.2975702,5.2839761,7.4555058,2.7938931,-8.6106873,-0.4885496,-8.5376797,1.9536586,5.1834202,8.6488552,-7.3511453,-11.8778629
8760,4.2281384,5.3198891,7.4602942,2.1679389,-8.0687027,-1.1145039,-8.7292147,1.9368993,5.0804701,8.3969469,-8.7404585,-10.0610685
8770,4.2185616,5.2815819,7.3741035,1.6641221,-8.1450386,-1.7404580,-8.6406298,1.9488702,4.8865409,7.4198475,-8.6335878,-8.5954199
8780,4.1922259,5.3079181,7.4722652,1.4274809,-8.8091602,-2.4274809,-8.6023226,1.9416877,4.7835903,4.8854961,-8.0839691,-7.2977099
8790,4.2137733,5.2911587,7.4674768,1.5725191,-8.8778629,-2.4580152,-8.4850073,1.9345051,4.7644372,2.0381680,-8.0381680,-4.8931298
8800,4.1180058,5.3007355,7.3717093,1.3816794,-8.4351149,-2.7786260,-8.3485384,1.8650736,4.8266859,-0.6259542,-7.1068702,-3.9923663
8810,4.1395535,5.3581958,7.4650826,1.0916030,-8.6870232,-2.7633588,-8.2743187,1.8171898,5.0684991,-2.4809160,-7.0152674,-3.7786260
8820,4.1946201,5.3318601,7.4100165,1.1526718,-8.7633591,-2.5801528,-8.2886839,1.7860653,5.3749552,-2.8396947,-6.9847326,-4.2595420
8830,4.1874375,5.2863703,7.4674768,1.4274809,-8.5190840,-2.3969467,-8.2264347,1.8363433,5.5545197,-1.8549619,-6.9312978,-4.3893127
8840,4.1658897,5.3103123,7.4674768,1.6564885,-8.3435116,-2.0610688,-8.0588417,1.7429699,5.7125359,-0.0763359,-5.3435116,-5.1450381
8850,4.1994085,5.2696109,7.4722652,1.6412214,-6.6259542,-1.4885496,-8.0923605,1.7238164,5.9016771,1.7786260,-3.1374047,-5.9770994
8860,4.2329268,5.2432747,7.3884687,1.8778626,-5.7557254,-1.5190840,-8.1067257,1.7764885,5.8418221,4.3511453,-1.2824427,-6.5190840
8870,4.3646073,5.3246775,7.4411407,2.0458016,-4.6335878,-1.4427481,-8.1426382,1.7836711,5.6933827,6.7938933,0.7404580,-6.8931298
8880,4.3430595,5.3318601,7.4531116,2.4351146,-4.2290077,-1.4656489,-8.2910776,1.7669119,5.4443870,9.0000000,1.5877863,-8.6183205
8890,4.3574247,5.3534074,7.3764977,2.5725191,-3.4351146,-1.5496184,-8.4490948,1.8890154,5.3270717,10.0992365,1.7022901,-8.8702288
8900,4.2903876,5.3941088,7.2998838,1.8549619,-2.4503818,-1.8473282,-8.4945841,1.9177457,5.1810260,10.6259546,2.4580152,-9.0229006
8910,4.3191175,5.3270717,7.3214312,1.5343511,-1.8320611,-1.7480916,-8.6118994,1.9321109,5.1738434,11.1068707,3.2137403,-8.3664122
8920,4.2855992,5.3558016,7.3381906,1.0076336,-0.9312977,-1.4961832,-8.9734221,2.0590029,5.1115947,11.5801525,2.3969467,-7.8549619
8930,4.1946201,5.3725610,7.3286138,0.7175573,0.1068702,-1.2061069,-9.0332766,2.0949159,4.8985114,13.1832066,3.4045801,-6.2290077
8940,4.2496862,5.3749552,7.2807302,0.1526718,0.5954198,-0.9160305,-8.8201942,2.2026544,4.9583664,13.3816795,4.0839696,-5.7328243
8950,4.2472920,5.3917146,7.1993275,-0.6030535,1.7404580,-0.7633588,-8.8944139,2.1954718,4.7931671,12.3358774,5.4427481,-4.8549619
