timestamp,rxacclX,rxacclY,rxacclZ,rxgyroX,rxgyroY,rxgyroZ,txacclX,txacclY,txacclZ,txgyroX,txgyroY,txgyroZ
0,-3.4524212,3.7660601,8.4754305,33.8396950,-112.7099228,-5.2366414,2.1427996,3.8737986,10.0843258,1.8473282,-2.5343511,-0.9770992
10,-3.0932927,3.4524212,8.1139078,38.3282433,-116.4045792,-3.5419848,2.1044924,3.8737986,10.0340481,2.5190840,-2.6259542,-1.0000000
20,-2.8466914,4.8961172,7.4387465,26.6564884,-123.3816757,-11.9618320,2.0470319,3.8618276,9.5312681,-1.4503816,-4.2442746,-1.0458015
30,-2.7461352,5.0637107,7.6374645,22.0458012,-124.8473282,-10.8396950,2.0302727,4.0030847,9.8640604,-1.0610687,-2.9694657,3.0000000
40,-2.9304879,4.6758518,8.2838955,19.0610695,-117.8549652,-6.0839696,2.1930776,3.7516949,10.0196829,1.0763359,-2.6946564,3.3587787
50,-2.3486998,4.4460096,8.6933022,15.6946564,-109.8778610,2.0305343,2.4133430,3.7708483,9.8209648,2.1374047,-0.6488550,3.4122138
60,-1.9033806,4.3454537,8.7603388,13.5801525,-91.1068726,10.9389315,2.6982515,3.7516949,9.7443514,2.9312978,1.8778626,1.9389313
70,-1.4077834,4.1467361,8.7627335,12.1679392,-73.1755753,15.9389315,2.6192431,3.7062054,9.7922344,2.9694657,2.8854961,-0.1908397
80,-0.8858501,4.5896611,8.6166878,9.2900763,-59.0228996,18.9007626,2.4061604,3.7014170,10.0651722,4.1068702,4.7786260,-0.5725191
90,-0.5698171,4.8602047,8.4443064,7.1374044,-60.3129768,16.3816795,2.3558824,3.7564833,10.1513634,6.1297708,6.5877862,-0.8473282
100,-0.2202654,4.9200592,8.5041609,4.9312978,-58.2977104,12.9847326,2.4157372,3.6463506,9.8784256,7.1450381,10.8549614,-0.0076336
110,0.1268920,5.0852585,8.8393478,3.1221373,-53.4885483,9.8167934,2.7197993,3.6559272,9.6988611,6.3435116,15.2137403,-0.8854962
120,0.3591284,5.1283536,8.9255381,3.2213740,-48.0000000,6.0839696,2.6934631,3.6942344,9.7611103,5.9923663,18.9618320,-2.0381680
130,0.3543400,5.0589223,8.6262646,3.4198472,-44.6183205,0.5419847,2.7054341,3.7301471,9.6892843,5.3893127,24.6641216,-3.5267177
140,0.3160330,5.0804701,8.6526003,1.6412214,-38.2061081,-4.5038166,2.6575503,3.7923961,9.6725254,4.8625956,32.5725174,-5.1450381
150,0.2298422,5.0134325,8.5328913,-1.3587786,-29.2977104,-7.5954199,2.4157372,3.9288650,9.7275915,3.9312978,43.2595406,-6.0458016
160,-0.1221037,4.8793583,8.3796635,-5.6793895,-21.9312973,-10.3435116,2.1092808,3.8929520,10.1010857,3.6412213,55.5343513,-5.2137403
170,-0.3447633,4.7452836,8.3078375,-11.3053436,-18.3511448,-12.4427481,1.8578910,3.7852135,10.6852674,5.6717558,69.9236679,-2.5343511
180,-0.4022238,4.7524662,8.3245964,-17.5190830,-16.1679382,-13.0229006,1.9033806,3.6966286,11.2622671,10.6717558,84.1068726,-0.0305344
190,-0.5315101,4.4172797,8.1713686,-23.9465656,-16.3358784,-11.8854961,1.9943599,3.5673423,11.7411051,18.4961834,93.8167953,-0.1755725
200,-0.5410868,4.2448978,8.3150196,-29.7404575,-17.8778629,-9.3740454,2.1835008,3.4667864,11.8632088,26.4656487,98.4732819,-2.4503818
210,-0.5650287,4.2903876,8.4467001,-33.9236641,-18.2977104,-6.1450381,2.1571648,3.6631098,11.6285782,32.4885483,96.3206100,-6.3511453
220,-0.6655847,4.3670015,8.5927458,-36.1526718,-22.1068707,-1.8396946,1.5921360,3.8857694,10.9797525,35.4656487,85.5572510,-11.5496187
230,-0.6440369,4.4460096,8.5640154,-37.2748108,-28.4427490,2.3206108,1.4101776,3.9504125,10.5511932,33.4198456,71.8473282,-14.3664122
240,-0.4477134,4.4771342,8.4706421,-39.5801544,-36.1832047,5.1984735,1.1252691,4.0749106,10.0436249,29.0458012,60.0381660,-16.2900772
250,-0.3591284,4.2113791,8.3222027,-44.3969460,-46.5801544,8.5648851,0.5315101,4.1946201,10.3165627,27.4198475,48.0228996,-15.9160309
260,0.0263361,4.0916696,8.3892403,-50.9618340,-48.9312973,11.2137403,0.1053443,4.2927818,10.4602137,28.5572510,33.6335869,-13.0381680
270,0.2633608,4.1347651,8.1929159,-58.6870232,-43.1221390,12.5801525,0.0383070,4.2472920,10.2423429,31.2671757,19.0992374,-8.2824430
280,0.8212070,3.6415622,10.9773588,-52.9771004,-42.4656487,21.9694653,0.3854645,4.5130472,8.7172441,12.4427481,7.1145039,-6.5343513
290,0.9528874,3.8714044,11.1090393,-34.8244286,-42.5190849,20.0229015,0.2513899,4.6447277,9.0979195,11.2900763,9.0229006,-5.9465647
300,1.1204807,4.1467361,11.2598734,-17.4580154,-40.4045792,15.6488552,0.1029501,4.6590929,9.4355011,11.9465647,9.4503813,-5.9770994
310,1.2306134,3.9312592,10.5607700,-4.2900763,-37.5801544,10.8320608,-0.0933734,4.6878228,9.7706871,14.8854961,8.8625956,-3.6793892
320,1.1061156,3.9982965,10.2136126,3.0152671,-37.3664131,6.2748094,-0.1580165,4.7237358,9.7395630,17.1450386,6.5801525,-1.1145039
330,0.9816177,4.0964580,9.7587166,4.6030536,-36.8854980,1.3664122,-0.0981618,4.7333126,9.4187412,17.9236641,4.8244276,0.8778626
340,0.6991033,4.0820932,9.5121145,1.8549619,-36.0305328,-2.2290077,0.1077385,4.7883787,9.3469152,17.4656487,3.6259542,2.0916030
350,0.2681492,3.8690102,9.8568783,-0.4809160,-41.2213745,-2.9083970,-0.0885850,4.6973996,9.1817169,15.8473282,2.2442749,3.4503818
360,0.2370248,3.7756367,10.7235746,5.2442746,-46.7328262,1.4503816,-0.1436514,4.6758518,9.1793222,12.9312973,1.5267175,6.6641221
370,0.2968795,3.8570392,11.3364868,18.8473282,-47.8167953,6.6030536,0.0502780,4.6495161,9.1625633,9.5648851,-0.4122137,9.5954199
380,0.4453192,4.0868812,11.8632088,37.3282433,-48.4961815,7.5954199,0.0766141,4.5705075,9.2200232,6.6259542,-2.2671757,11.3129768
390,0.6272776,4.2544746,12.1026278,58.0534363,-46.3740463,6.5648856,0.1699875,4.4795284,9.2463598,4.1526718,-2.7557251,12.0076332
400,0.9409165,4.3933377,11.9493999,75.9847336,-40.7557259,4.0000000,0.1987177,4.3286943,9.3852224,3.8396947,-4.4198475,12.1603050
410,1.7453641,4.7979555,11.4466200,96.6870193,-42.4656487,1.1145039,0.2489957,4.2855992,9.3588867,5.2900763,-5.0610685,12.1297712
420,0.6775556,5.0230093,11.3316984,107.1145020,-34.3358765,-5.8702292,0.4405309,4.3885493,9.1793222,6.2595420,-2.2977099,12.8778629
430,0.9552816,5.7771792,9.4378948,100.8320618,-38.5038185,-23.5877857,0.7805058,4.6734576,9.3540983,5.8931298,10.2595415,11.1374044
440,0.7709290,5.6239510,10.0795374,85.8244247,-71.1145020,-33.0076332,0.2226596,4.5465660,9.9047613,11.2442751,11.0305347,11.8167934
450,1.9464760,5.0182209,9.8233595,91.7709961,-74.3129807,-32.8091621,0.6440369,4.7452836,9.1410151,5.1221375,2.2900763,10.8549614
460,1.5394639,3.7708483,10.1106625,99.5572510,-101.1603088,-37.1908379,0.5123565,4.7740140,9.3517036,1.7633588,-0.4198473,9.4961834
470,3.5841017,3.1004753,8.4395180,110.9847336,-95.8549652,-57.0458031,0.0909792,4.8865409,9.1673517,-2.5190840,-5.4580154,10.6641226
480,3.4596038,3.0861101,7.0101867,106.4198456,-78.3435135,-60.4122124,0.0885850,4.8985114,9.2942438,-6.8244276,-6.1145039,13.6946564
490,3.0980811,3.2944047,5.7029591,99.6793900,-77.4427490,-56.9771004,0.0718257,4.8051381,9.3828287,-10.7709923,-4.5343513,16.9312973
500,3.9959023,3.9767487,4.2448978,85.8549652,-57.3282433,-57.9618340,0.2609667,4.6854286,9.6006994,-12.8091602,-3.3129771,20.0763359
510,3.6319854,4.4627690,3.4596038,63.7633591,-19.9923668,-61.6641235,0.4788379,4.5896611,9.7539282,-13.5801525,-0.1297710,21.6793900
520,2.4684093,4.5226240,3.5290353,41.4122124,8.2061071,-61.9541969,0.8164186,4.6423335,9.7419567,-14.2671757,3.9389312,22.1221371
530,-0.1460456,4.9032998,4.1754665,6.6946564,47.7404594,-54.2900772,0.8092360,4.3813667,10.1968527,-16.0458012,12.2900763,21.5725193
540,-1.3431402,5.3055239,4.7381010,-4.6030536,48.1984749,-41.5572510,0.8882443,4.2616572,10.6110477,-14.1755724,16.5419846,20.8473282
550,-2.1188576,5.2672167,5.6502872,-11.7099237,28.2671757,-23.9541988,0.9959828,4.0725164,10.9893293,-9.6259546,22.4656487,19.6259537
560,-1.7693061,5.3893204,6.5026188,-10.3740454,4.6717558,-4.5038166,1.0582317,4.0964580,11.2862091,-2.3740458,29.9618320,17.9541988
570,0.2370248,6.6534524,7.0365229,1.5114504,-3.5343511,25.6564884,1.2569494,3.9312592,11.5016861,12.9160309,50.1603050,16.2137413
580,1.2617378,7.8170285,7.1298962,3.9770992,17.6793900,37.4885483,1.2473727,4.1754665,11.6620970,20.1755733,65.4809189,15.2061071
590,1.8770446,9.1936874,7.2017217,0.7022901,47.4274826,47.8931313,0.8547257,3.8833754,11.5088692,25.0381680,64.9770966,12.8625956
600,4.7381010,11.8656025,11.8608141,38.4580154,16.5190830,9.0916033,-0.0670373,4.8937230,10.6541433,30.2290077,52.4427490,-3.9236641
610,4.2903876,11.3556404,11.3843708,52.1374054,-7.7557254,-12.3664122,-0.1125269,5.0852585,10.2231894,29.8702297,54.9923668,-3.0992367
620,4.0366035,11.0779142,11.2909975,61.1068687,-24.8320618,-26.7633591,-0.1867468,5.2528515,9.9837704,29.0916023,58.6946564,-3.7938931
630,3.5912843,9.9023676,11.2263546,67.9542007,-37.8320618,-39.2519073,-0.4405309,5.1331420,10.2567072,33.0992355,63.8778610,-4.0687022
640,3.0118904,8.8465300,11.5902710,75.9923630,-41.4198456,-47.9847336,-0.6631905,5.2720051,10.1968527,39.6946564,70.2137375,-0.8778626
650,2.3008161,8.2671366,11.5806942,87.1679382,-38.1832047,-45.7099228,-0.8092360,5.4779053,10.4099360,48.3206100,72.9847336,2.1984732
660,2.4157372,7.4794478,11.5591469,100.2137375,-32.5190849,-37.9923668,-0.7876883,5.5664907,9.7563219,54.2519073,75.2595444,3.8625953
670,2.6096666,6.9790621,11.0539722,113.4274826,-19.1755733,-34.3206100,-0.5530578,5.5664907,9.3205795,56.4274826,76.0534363,4.6183205
680,2.2553265,6.8114691,9.7994175,123.9312973,-8.3282442,-31.1145039,-0.4141948,5.7197185,9.1098909,57.7328262,77.2137375,1.2595420
690,2.1404054,6.7492199,8.6262646,131.7328186,-1.6259542,-28.9007626,-0.3758878,5.8968887,9.1122847,58.7328262,79.4732819,-3.7633588
700,2.2361729,6.7707677,7.1729918,136.7251892,-9.0992365,-29.7328243,-0.5362985,6.1123657,8.8513184,60.4427490,83.0229034,-8.7022905
710,2.5593886,6.7707677,6.0142040,136.3969421,-13.4580154,-33.6946564,-0.7517755,6.0261750,8.4778252,62.5343513,89.7022934,-13.2824430
720,2.3223639,6.5648675,4.8075323,127.4809189,-21.7251911,-40.7862587,-0.7062859,6.2177100,8.2958660,65.3969498,100.7709961,-17.2061062
730,1.7740943,6.3134775,4.9248476,117.6717529,-33.7557259,-47.8320618,-1.0151364,6.4858594,8.2695303,68.5038147,110.8778610,-19.5038166
740,1.4029950,5.9447722,5.6263452,114.9236679,-42.4198456,-53.7938919,-1.4580613,6.7037306,8.2791071,70.7633591,116.8396912,-19.2977104
750,0.9864060,5.2696109,5.6670465,121.6564865,-49.1374054,-57.4503822,-2.0159075,6.6773944,8.2336178,72.6870193,117.3969498,-17.5648861
760,0.2466015,4.4627690,4.7883787,124.5648880,-39.8625946,-54.8320618,-2.1499822,6.8234401,7.7715387,73.8778610,111.3129807,-17.1526718
770,-0.4884146,4.2808108,3.3351059,121.5114517,-35.4809151,-47.0381660,-2.2553265,6.9886389,7.4100165,73.4045792,104.5267181,-18.7709923
780,-0.6440369,4.2808108,2.1571648,108.4656525,-33.9923668,-30.4961834,-2.3486998,7.2974896,6.9407554,71.4198456,99.0457993,-20.0229015
790,0.1604107,4.5729017,2.2002602,99.4580154,-23.7786255,-22.3358784,-2.4923513,7.3812861,6.6319046,68.6335907,99.1145020,-19.8625946
800,-0.0694315,4.6686692,2.4779861,92.5267181,-33.9465637,-20.5725193,-2.5689652,7.4411407,6.4331870,67.1984711,101.3893127,-18.7404575
810,-0.0742199,4.7620430,3.4093258,92.3587799,-31.6183205,-20.1832066,-2.6695213,7.2950954,6.3206601,67.8015289,104.9312973,-19.5038166
820,0.0047884,3.9384418,4.3646073,109.6946564,-22.0687027,-8.9541988,-2.6455793,7.3980455,6.1913738,69.7251892,110.8015289,-19.7938938
830,0.1843526,4.3478479,2.0901275,122.7328262,-9.9618320,-9.7022905,-2.7796540,7.3190370,5.8106980,71.2137375,119.1984711,-20.9541988
840,0.5291159,4.5729017,0.6584021,125.1984711,-9.3587790,-19.8396950,-3.0693510,7.4243813,5.7532372,71.8167953,123.2900772,-21.3358784
850,1.3934183,3.5745249,0.1053443,114.1297684,-10.9160309,-32.2519073,-3.5026991,7.5704269,5.6742291,70.8015289,120.9542007,-21.4961834
860,-0.1915352,4.0413918,0.1292862,103.4122162,-2.7786260,-33.5954208,-3.6535332,7.5153608,5.4252334,66.7022934,111.2137375,-21.0992374
870,-0.1556223,5.1092005,-0.6320660,92.2213745,5.4427481,-25.6717548,-3.6535332,7.4650826,4.7931671,58.9923668,100.4122162,-21.7022896
880,-1.0821736,6.5121951,-0.8690908,79.4885483,14.9847326,-17.5190830,-3.5026991,7.3166428,4.4699516,49.7862587,90.3816757,-23.9770985
890,-2.3486998,7.9630742,-0.8666966,67.6259537,9.7786255,-7.3053436,-2.4205256,5.7460546,3.8666160,39.0458031,84.3740463,-31.4732819
900,-2.1595588,9.1051025,-0.7086801,59.0076332,0.3206107,8.1297712,-3.6080434,7.6781654,4.7333126,28.8091602,68.9083939,-41.3206100
910,-0.5123565,10.7642756,-0.9217629,50.9771004,-14.5419846,15.0000000,-3.6798692,7.6925306,4.3741841,19.2061062,56.8320618,-43.2595406
920,0.3088504,12.5790710,-0.6919208,42.2290077,-18.9923668,12.7633591,-3.5912843,6.5816269,4.4388270,13.8167934,56.2290077,-43.0916023
930,0.3926471,13.4385853,-0.6177009,31.9007626,-17.6946564,10.9618320,-3.9911139,6.7611909,4.5992379,9.8396950,54.5725174,-44.3206100
940,-0.0430954,14.7410240,0.0670373,25.4580154,-13.8931293,13.4961834,-3.5960727,6.7803445,4.9200592,7.1679387,53.0763359,-46.9465637
950,0.3136388,14.9205885,1.5514348,26.9083977,-14.8244276,16.3129768,-3.6008608,6.3900914,4.9200592,5.1526718,52.2671738,-52.2061081
960,1.2210367,14.2717638,2.5785420,39.1068687,-18.1145039,14.0458012,-3.7229645,6.2248926,5.0996237,3.7175572,51.6641235,-57.4961815
970,1.5250987,13.3356352,3.1842721,58.3206100,-21.2900772,8.8473282,-3.7085996,6.1674318,4.9607606,3.4885497,53.4198456,-62.1832047
980,1.5514348,12.5096397,2.7341642,77.0076370,-19.9694653,3.8244274,-3.6750808,6.0525107,5.2863703,3.9541984,55.8091621,-65.8167953
990,1.3934183,11.9877062,1.8076130,88.4732819,-19.2137413,0.4656489,-3.3710186,5.9639258,5.3677726,4.7480917,60.3664131,-71.3358765
1000,1.5634058,11.2670555,1.0271072,93.0305328,-17.1984730,-1.2671756,-2.8754215,5.8609757,5.6047974,8.0687027,66.3129807,-81.3664093
1010,1.4580613,10.5990763,0.6129125,93.7862625,-13.7251911,-1.9465649,-2.6527619,5.5928264,5.4228392,15.5038166,74.3129807,-95.6793900
1020,1.3263810,9.7706871,0.4764437,93.8396912,-11.8702288,-1.1755725,-2.7652888,5.5664907,4.9607606,26.2061062,87.6259537,-110.8167953
1030,1.1396341,8.9542685,0.2825144,93.6870193,-6.9083967,1.4045801,-3.2489152,6.0046272,4.6375451,37.2595406,101.4809189,-123.8015289
1040,1.1899122,8.4443064,-0.1891410,91.6641235,-5.4961834,3.6030533,-4.1156116,6.2201042,4.1060348,47.4580154,113.0381699,-132.9084015
1050,1.4269369,7.9032192,-0.1364688,90.1603088,-7.0305343,5.0076337,-5.1714492,6.7707677,3.2153964,54.7709923,118.8702316,-136.9160309
1060,1.3479286,7.2591825,-0.2609667,90.3587799,-7.7404580,6.0229006,-6.3302369,7.5895805,2.2553265,55.3893127,117.3435135,-133.0458069
1070,0.9696468,6.9551206,-0.7086801,88.7099228,-8.0381680,7.5343513,-6.1889796,7.6350703,1.7764885,51.2442741,125.0687027,-126.5877838
1080,1.0773853,6.6462698,-1.2354017,83.1984711,-8.5801525,8.9694653,-6.0118098,7.4531116,1.4724265,50.0228996,131.5725250,-124.4961853
1090,0.9313397,6.3685441,-1.6208663,74.9236679,-7.3435116,10.6106873,-5.6790175,7.4028339,1.2258250,53.2213745,142.2900696,-125.3053436
1100,0.7110743,6.1147599,-1.9776005,64.4656525,-3.9847329,12.7251911,-5.2911587,7.0437055,0.7445929,58.7175560,156.8473358,-129.7938995
1110,0.7972651,6.0668759,-2.2720859,51.4427490,-2.6717558,13.9465647,-4.9009056,6.5840211,0.3016679,65.5419846,175.0534363,-135.1374054
1120,0.9600700,5.9519548,-2.3558824,38.5725174,0.1984733,13.7480917,-4.6088147,6.2081332,-0.2442073,72.3816757,192.4961853,-145.8396912
1130,0.9672526,5.8657641,-2.1547706,27.9465656,3.8396947,13.9618320,-4.4603748,6.2895355,-0.9265513,77.4732819,212.5496216,-158.5343475
1140,1.2401901,5.9471664,-1.8866212,19.7099228,6.7404580,14.4122133,-4.4412212,6.2823529,-1.3335636,83.6564865,234.8244324,-172.3435059
1150,1.4580613,6.2057390,-1.8435259,14.1984730,7.1068702,14.3053436,-5.4611464,6.5121951,-1.7046629,92.3893127,250.1297760,-183.9007568
1160,1.9105632,6.6558466,-2.0063307,9.4427481,5.4503818,11.5648851,-8.3126259,7.2903070,-2.5929072,99.0076370,250.1297760,-186.7862549
1170,2.2313845,6.9263902,-2.2170193,2.5801528,3.1603053,6.9923663,-9.8281479,8.0085640,-3.8259149,98.8473282,250.1297760,-179.2442780
1180,2.4253139,7.2184811,-2.3917952,-8.0381680,7.1450381,2.4427481,-10.0795374,8.6765423,-4.9320302,90.1679382,250.1297760,-167.4274750
1190,2.2242019,7.7643566,-2.3822186,-19.3969460,16.4198475,-1.2595420,-9.4522600,8.7387915,-5.3917146,79.1984711,250.1297760,-156.2061005
1200,1.7597293,8.0229292,-2.0135133,-29.7175579,26.9389305,-1.0763359,-8.5257082,8.5065556,-5.5377603,71.9236679,250.1297760,-147.6564941
1210,1.2282192,8.6765423,-1.7549409,-38.0763359,40.0000000,5.4427481,-6.5792327,8.7842808,-5.7364779,70.4427490,244.3893127,-146.1908417
1220,0.9265513,8.7579451,-1.7956421,-46.2366409,56.6793900,15.9160309,-5.5042415,9.0548248,-6.8593526,67.5801544,243.6793823,-149.9465637
1230,0.4525018,9.1218615,-1.4125718,-53.4885483,68.4122162,27.9465656,-4.6423335,8.6573887,-8.1091194,60.0458031,244.0915985,-152.1374054
1240,0.8092360,9.7994175,-0.7062859,-55.0228996,65.8549652,37.6564903,-4.2209558,7.8266053,-8.8154058,49.3969460,245.2519073,-157.2290039
1250,1.1013272,10.8073711,-0.2609667,-50.4961815,53.6488533,42.8549614,-5.0349803,6.4762826,-9.6222477,36.4732819,245.0381622,-159.6259613
1260,1.4796091,11.4681673,-0.4070122,-45.4656487,37.7099228,45.0228996,-5.7604198,5.3438311,-9.9981356,24.5114498,231.3053436,-155.1145020
1270,1.9009864,11.5304165,-0.3256098,-41.8854980,24.4961834,44.2137413,-6.9599090,4.0030847,-9.8975792,15.5114508,220.9465637,-143.1832123
1280,1.9871773,11.7554703,-0.2442073,-38.7709923,15.1450386,42.9923668,-8.7483683,3.0190730,-9.4690189,11.1908398,204.6870270,-118.0457993
1290,2.1116750,11.9086981,0.1077385,-34.1221390,4.8015265,41.8091621,-9.3924055,1.2425843,-8.8130112,14.1450386,196.7099304,-79.6793900
1300,2.2649033,12.0571384,0.3854645,-27.2442741,-5.4198475,40.3511467,-9.5528164,-1.9488702,-8.2479830,20.9847336,209.6259613,-44.3816795
1310,2.5976956,12.1696653,0.6368544,-19.8549614,-12.9312973,37.8396950,-9.7156210,-6.6103573,-7.3573442,30.7175579,246.6564941,-19.7786255
1320,3.1172347,12.3372583,0.7637464,-11.7480917,-18.9160309,32.6335869,-10.1298151,-11.5423870,-5.6024032,43.0228996,250.1297760,-14.6641226
1330,3.4165084,12.3540173,0.7302278,-4.6564884,-24.5343513,25.3664131,-10.2447367,-15.9907913,-3.2944047,66.9007645,250.1297760,-38.4656487
1340,3.8211265,12.2774038,0.5961532,0.2671756,-28.2824421,16.0763359,-10.9629936,-18.9571915,-2.1308286,106.3740463,250.1297760,-87.8702316
1350,3.8761928,12.0738974,0.5817881,3.5419848,-27.8167934,6.9694657,-12.3492289,-19.4815197,-3.5553713,142.5572510,250.1297760,-154.7709961
1360,3.9647777,11.6980095,0.4932030,5.9389315,-24.2519093,-1.7022901,-15.2940826,-15.6508169,-6.6821828,142.1908417,250.1297760,-221.8702240
1370,3.8067613,11.3388815,0.4979914,7.8015265,-17.5877857,-9.4961834,-19.6131992,-9.7323799,-8.9662399,83.0152664,250.1297760,-250.1374054
1380,3.6774750,10.9653873,0.2370248,8.1526718,-9.5419846,-17.2595425,-19.6131992,-3.9647777,-8.8417416,-20.7709923,156.4885559,-237.7786255
1390,3.2369442,10.6732969,-0.0550664,7.1374044,0.2900763,-23.8396950,-19.6131992,0.5410868,-5.4635406,-135.4198456,-2.4274809,-166.4809113
1400,2.6743097,10.3213511,-0.2944853,4.9465647,6.3053436,-29.0916023,-19.6131992,4.3717899,-1.3575054,-231.8320618,-183.5190887,-59.1450386
1410,2.1356170,10.0579901,-0.4261657,3.2366412,7.9465647,-32.8931313,-19.6131992,4.7907729,1.1132981,-250.1374054,-250.1374054,70.6106873
1420,1.6615674,9.7658987,-0.6464311,1.9236641,6.4274807,-35.0458031,-19.6131992,0.8786675,2.7988074,-250.1374054,-250.1374054,197.4580078
1430,1.2377959,9.3732519,-0.8858501,0.0381679,2.6259542,-36.7328262,-19.6131992,-4.1036406,2.6934631,-250.1374054,-250.1374054,250.1297760
1440,0.8906385,9.0572186,-1.0630201,-2.4122138,-1.6793894,-37.8473282,-17.2980194,-9.3062143,0.2657550,-211.5343475,-250.1374054,250.1297760
1450,0.5458752,8.7387915,-1.4053892,-6.9465647,-5.0000000,-37.5801544,-10.7546988,-12.8855276,-4.5537481,-141.9084015,-250.1374054,250.1297760
1460,0.2322364,8.4251528,-1.7309990,-14.3969469,-6.3282442,-36.1755714,-5.5832496,-13.3212700,-8.8968077,-89.8244247,-250.1374054,250.1297760
1470,0.1508339,8.0803890,-1.8483143,-23.3969460,-5.9770994,-34.4198456,-3.8330972,-11.2981796,-10.5416164,-56.0381660,-250.1374054,200.7022858
1480,-0.0383070,7.7404146,-2.1475880,-31.9923668,-7.5267177,-31.5267181,-4.5561423,-8.5233145,-10.1393919,-33.0000000,-250.1374054,149.9160309
1490,-0.0023942,7.4148049,-2.4109488,-43.0381660,-9.2824430,-28.8625946,-6.4403696,-5.9256191,-7.5656385,-11.0305347,-194.8931274,129.2824402
1500,0.1987177,7.1346846,-2.1595588,-53.6106873,-8.4351149,-24.9160309,-7.9846220,-3.4572096,-4.6471219,14.5419846,-88.0076370,133.7404633
1510,0.2633608,6.8928714,-1.9560528,-62.6412201,-5.8396945,-20.1984730,-8.8632889,-1.2210367,-2.1858950,38.3587799,-12.4732828,148.8396912
1520,0.4740495,6.8665352,-1.8507085,-71.3206100,-1.3053435,-14.3664122,-9.1290445,-0.2106887,-0.9145803,53.3053436,19.8320618,164.7251892
1530,0.5027798,6.8401995,-1.8363433,-78.7328262,0.7404580,-6.3893127,-8.5472565,0.6248835,-0.5267217,55.9541969,16.2824421,176.1297760
1540,0.6775556,6.7468257,-1.1851238,-86.0229034,-4.0000000,4.3282442,-7.2280579,1.2330076,-0.3519458,52.8473282,-11.3053436,174.0152740
1550,0.9624642,7.0030041,-0.1005560,-88.8625946,-14.3358774,16.5801525,-6.0740585,1.8267666,-0.2370248,47.7633591,-48.5954208,161.0992432
1560,1.6783268,7.5895805,0.7398046,-86.3740463,-30.6564884,26.4503822,-5.3318601,2.7605004,-0.8164186,39.5954208,-93.9007645,140.6183167
1570,2.5067163,8.2336178,1.3096216,-83.3129807,-42.0228996,30.7328243,-5.1355362,3.6128318,-1.2761030,29.0152664,-139.9847260,113.9618301
1580,3.1723011,8.8608952,1.9943599,-81.6641235,-41.9083977,31.1450386,-5.6862001,4.3167233,-1.6807210,19.2595425,-180.2442780,88.1450348
1590,3.6439564,9.5815458,2.6407909,-79.5877838,-30.5954189,27.2595425,-6.3709383,5.1642666,-1.9368993,13.7633591,-205.3282471,66.0534363
1600,3.6774750,10.0651722,3.1363883,-75.8549652,-12.2900763,21.2061062,-7.2519999,5.7747850,-2.2265961,13.7175570,-206.9007568,53.8549614
1610,3.4619980,10.3955708,3.5457945,-70.2137375,5.8778625,15.4351149,-7.9846220,6.3134775,-2.5426292,17.0534344,-189.2671814,52.2748108
1620,3.1148405,10.8313131,3.5290353,-63.0763359,23.7862587,10.3969469,-8.5496502,6.7755561,-2.7341642,21.4351139,-157.6946564,58.8625946
1630,2.5809362,11.0850973,3.0501974,-57.1526718,39.0534363,7.5343513,-8.5855637,7.0532823,-2.5330524,27.7328243,-119.7709961,72.9923630
1640,1.7501525,11.3891592,2.7221935,-51.1832047,46.5954208,7.1832061,-7.9606800,7.2256637,-2.3343346,33.8549614,-80.7938919,87.7633591
1650,1.1348459,11.6525202,2.6360025,-45.1603050,45.3511467,8.5496187,-7.3764977,7.2591825,-2.1427996,39.0687027,-45.7404594,100.6488571
1660,1.1707586,11.7434988,2.4851687,-37.9465637,37.8549614,9.6564884,-6.8018923,6.8713236,-1.6519908,43.8702278,-16.5114498,111.2519073
1670,1.1779412,11.8320847,2.4205256,-30.4885502,27.6793900,8.2595415,-6.3733325,6.3948798,-1.1539993,48.5725174,4.8244276,119.1603088
1680,1.1468167,11.8895445,2.2936335,-25.4656487,17.8549614,4.2900763,-5.8705525,6.0836353,-1.2354017,51.7938919,18.1145039,124.4503784
1690,1.1994889,11.7554703,2.2337787,-24.3816795,12.5572519,0.2748092,-5.8370337,5.6909885,-1.1947005,52.5343513,27.3893127,129.8549652
1700,1.0031654,11.5304165,2.3774302,-25.9923668,10.5190840,-2.4427481,-5.3127065,5.1594782,-1.1396341,49.0381660,17.4732819,131.3511505
1710,0.7158626,11.3029680,3.1531475,-26.6335869,8.1755724,-2.3664122,-4.6806402,4.8386569,-1.4077834,40.7709923,3.2213740,131.0915985
1720,0.8714849,11.1832590,3.7995787,-24.0152664,4.7709923,-0.4274809,-4.3693957,4.7404952,-1.6112895,29.8778629,-12.8015270,126.9007645
1730,1.0079538,11.1593170,4.2520804,-18.3129768,0.5496183,2.0000000,-3.4284792,4.6207857,-1.3215926,18.9389305,-28.7328243,121.8549652
1740,1.5155219,11.0420017,4.6207857,-11.9847326,-2.7862597,3.1221373,-2.4947455,4.5465660,-0.7230452,10.6793890,-51.2671738,113.6106873
1750,1.8291607,10.8145542,4.7333126,-6.6335878,-5.8396945,3.0076337,-1.7070571,4.1658897,-0.4979914,7.9312978,-65.1221390,102.7480927
1760,2.2074428,10.5464048,4.7811961,-1.8167939,-8.0305347,1.5038168,-1.1420283,4.0988522,-0.6248835,10.3129768,-68.8473282,88.5877838
1770,2.4037662,10.2279778,4.6950054,2.8015268,-9.5343513,-1.9312977,-0.7900825,4.0078731,-1.0462608,14.2519083,-64.4198456,75.6793900
1780,2.4540441,9.9550400,4.4053087,5.2137403,-7.2595420,-6.3587785,-0.6081241,4.0581512,-1.3670821,18.3053436,-54.2442741,62.7633591
1790,2.2529323,9.6078825,4.1491303,5.9083967,-1.3969465,-9.8625956,-0.8690908,4.4005203,-1.4245427,24.6335869,-40.0763359,49.1526718
1800,1.8171898,9.2846670,3.9504125,6.6030536,5.4122138,-12.0534353,-1.5227045,4.7428894,-1.3383518,32.2519073,-27.4427490,40.1679382
1810,1.4029950,8.8944139,3.7109938,7.3740458,11.4122133,-12.9694653,-2.2098370,5.3174949,-1.9560528,35.9618340,-19.2366409,35.2900772
1820,1.0295014,8.5568333,3.3327117,8.3206110,17.1374054,-11.8244276,-2.5713594,5.9040713,-2.3726418,31.4198475,-20.3893127,32.9847336
1830,0.6584021,8.1737623,2.9137285,8.1221371,21.1526718,-9.1068707,-2.6048782,6.5864153,-2.5162930,21.6412220,-27.2824421,33.1068687
1840,0.2466015,7.7236552,2.6120608,7.3587785,21.3893127,-5.2137403,-2.7317703,6.9216018,-2.4971397,10.4198475,-33.9236641,35.2824440
1850,0.7733232,6.8401995,2.6695213,16.3435116,-1.8244275,5.1450381,-1.3598996,6.9838505,-2.0733681,-11.2748089,-42.9541969,32.8320618
1860,1.0151364,6.7587967,2.6168492,19.1221371,-6.6030536,3.5190840,-1.4580613,7.2065101,-2.0135133,-9.3511448,-36.8396950,23.2290077
1870,1.1683644,6.6438756,2.5953014,21.0610695,-8.8702288,2.2595420,-1.7573351,7.7906923,-2.2888451,-9.8931293,-34.5190849,13.3511448
1880,1.1109039,6.5672617,2.2385671,20.8320618,-8.2137403,2.6717558,-2.4372849,8.5951405,-2.3486998,-15.2061071,-36.7099228,4.3206105
1890,1.1492109,6.5935979,2.0733681,18.3816795,-5.9618320,5.3129773,-2.9520357,9.2415714,-2.3103929,-22.0839691,-41.2061081,-1.6030535
1900,1.4197544,6.9646969,2.2840567,16.1603050,-1.8778626,8.2595415,-3.3877780,9.9598284,-1.8219782,-26.8091602,-45.4580154,-5.6335878
1910,2.0542145,7.5105724,2.3271523,14.5648851,2.7557251,9.8167934,-3.7109938,10.7738523,-1.3622938,-28.5496178,-47.5648842,-8.0916033
1920,2.0901275,8.2886839,2.3199697,13.7633591,6.9847326,10.5114508,-4.1970143,11.3724003,-0.7996593,-27.3893127,-49.7022896,-12.0687027
1930,2.2696917,9.1888990,2.3486998,13.6946564,10.8244276,11.6870232,-4.7740140,11.9924946,-0.4333483,-23.4580154,-50.9847336,-15.6183205
1940,2.3486998,10.3189564,2.5569944,15.1908398,12.7175570,11.6793890,-5.0110383,12.4162664,-0.3878587,-16.5190830,-50.0458031,-22.2977104
1950,2.4636209,11.5663290,2.6958573,18.8625946,13.6488552,10.7938929,-5.1882086,12.7610302,-0.2920911,-6.8473282,-43.6030540,-28.4427490
1960,2.4612267,12.0643206,2.6551561,22.1068707,13.4122133,10.1068707,-5.5473371,12.8352499,-0.2537841,5.4580154,-29.4580154,-33.1297722
1970,2.3510940,12.8927097,2.7389526,26.1679382,12.3587790,12.6412210,-6.0668759,12.7275114,-0.3423691,19.4885502,-12.9770994,-35.4885483
1980,2.7533178,12.8974981,3.0765336,33.5038185,5.7938933,13.3358774,-6.2775645,12.4449968,-0.5769997,33.8320618,3.4198472,-35.0687027
1990,2.9065459,12.8113079,3.6152260,44.8702278,-3.2595420,12.8396950,-6.5457139,12.1145983,-1.2784972,46.7022896,18.6412220,-35.3206100
2000,3.0837159,12.6006193,3.8977404,60.4656487,-14.3129768,11.6641226,-6.5600791,11.1497402,-2.5402350,53.7862587,37.0381660,-33.7251892
2010,3.3949606,12.2127600,3.3734128,74.6335907,-25.5877857,9.3053436,-6.9599090,11.6716738,-2.3917952,53.6717567,41.2824440,-29.5114498
2020,3.2608860,12.1553001,2.2409613,82.7175598,-34.3969460,5.4656487,-6.6845770,11.3652172,-2.4564383,53.0839691,43.5801544,-24.5343513
2030,3.2321558,11.9541883,1.7190280,82.7633591,-39.9236641,4.3282442,-6.7228842,10.2207947,-2.9280937,50.1450386,47.4427490,-19.8320618
2040,3.1842721,11.2550850,1.6519908,81.0305328,-42.3435097,2.9007633,-6.4691000,9.6868906,-3.0310438,44.6412201,49.3587799,-12.5267172
2050,3.3901722,10.6182299,2.0494261,81.6259537,-42.4503822,0.5801527,-5.7364779,8.9662399,-2.7700772,38.6106873,54.9618340,-5.7633586
2060,3.2944047,9.9861641,2.2601149,84.5648880,-40.2061081,-2.9160306,-4.9870968,8.1402445,-2.4516499,33.9083977,61.7862587,-2.2900763
2070,3.2752512,9.1505919,2.1260402,87.7862625,-36.8015251,-6.2671757,-4.5561423,7.4411407,-1.9991482,30.3358784,68.2519073,-1.3129771
2080,2.7964132,8.5688038,1.4317253,87.4427490,-27.9923668,-8.1145039,-4.2041965,6.7109132,-1.3742647,27.6870232,72.5725174,-0.0229008
2090,2.4253139,8.2838955,0.9528874,84.3740463,-19.1221371,-8.9389315,-3.9935081,6.0309634,-0.7613522,25.9160309,74.2595444,-1.7099236
2100,2.1164634,7.8601241,0.7876883,80.9389343,-11.2442751,-9.9465647,-3.7421181,5.6143742,-0.3016679,24.0152664,72.1832047,-4.7633586
2110,1.7932479,7.4986014,0.2992737,77.6488571,-6.1450381,-10.6946564,-3.6032550,5.3007355,0.1508339,21.9083977,67.9694672,-8.5267172
2120,1.4939742,7.1729918,-0.2106887,72.7709961,-3.7251909,-11.6106873,-3.4596038,4.9392128,0.5171449,20.6488552,59.1526718,-12.9007635
2130,1.2737088,6.9982157,-0.7733232,65.8854980,-2.6030533,-12.1832066,-3.3398943,4.6854286,1.0151364,20.5496178,47.9465637,-19.2977104
2140,0.8978211,6.7420373,-1.0318956,56.9389305,-2.2519083,-11.0687027,-3.3207407,4.6351509,0.8619082,19.2748089,37.9083977,-25.3969460
2150,0.8762733,6.5720501,-1.0558375,48.7175560,-2.6488550,-9.6564884,-3.4212968,4.5250182,1.0462608,17.6641216,29.1068707,-30.3435116
2160,0.9121862,6.2512288,-1.0630201,41.7557259,-4.0000000,-7.1908398,-3.4955165,4.5226240,1.2521610,18.1526718,18.8473282,-34.3740463
2170,0.8547257,6.2033448,-1.1563935,34.3129768,-7.1374044,-4.7862597,-3.5434003,4.8482337,1.1109039,19.0610695,12.0534353,-37.2519073
2180,1.0055596,6.1410961,-1.3742647,25.6030540,-9.3206110,-2.6488550,-3.6607156,4.9847026,0.7086801,19.2290077,7.9923663,-38.3358765
2190,1.0893562,6.3086891,-1.5514348,15.0687027,-8.5496187,-1.3053435,-3.4835455,5.1714492,0.5362985,19.5038166,10.4656487,-38.8015251
2200,1.1252691,6.3805151,-1.4460905,4.9083967,-7.0305343,-0.1984733,-3.3255291,5.4946647,0.3064562,21.4122143,19.1145039,-39.5877876
2210,1.4365137,6.6007805,-1.5035510,-5.0000000,-6.1679387,0.2213740,-3.4332676,5.8537931,0.0885850,24.2366409,28.5725193,-40.8473282
2220,1.4245427,6.8162575,-1.6974803,-14.5496187,-2.8625953,1.4809160,-3.6798692,6.2201042,-0.2466015,27.7786255,35.9541969,-41.5190849
2230,1.5562232,7.0987716,-1.7262106,-23.9770985,3.0152671,4.8015265,-3.9408360,6.6845770,-0.5267217,32.5419846,41.1755714,-42.6106873
2240,2.0781565,7.7260494,-1.4676381,-31.1221371,5.5725193,5.1145039,-4.2185616,7.3980455,-1.0390782,37.6259537,44.2442741,-43.1450386
2250,2.2505381,8.5137377,-1.3335636,-35.0916023,0.8549618,2.6793892,-4.3071470,8.1498213,-1.5442522,40.9312973,45.9541969,-43.2900772
2260,2.4253139,9.1936874,-1.4484847,-38.3893127,-5.0610685,-1.5419847,-4.5202298,9.2319946,-1.8674678,42.8625946,46.8244286,-42.1221390
2270,2.2409613,9.8113880,-1.0534433,-40.4274826,-8.4961834,-5.7480917,-5.4635406,10.7523050,-1.4676381,44.5419846,42.4961815,-37.9236641
2280,2.0278785,10.4147243,-0.8475431,-41.2748108,-8.9694653,-8.7480917,-5.7053533,12.1050215,-1.0893562,48.8244286,29.7633591,-25.6793900
2290,1.7429699,10.8839855,-0.6272776,-40.2824440,-5.9007635,-9.6946564,-4.8195033,12.7059631,-1.1444225,55.8702278,11.4351149,-14.6793890
2300,1.5729824,11.4753504,-0.4333483,-38.4503822,0.7862595,-10.0458012,-4.1443419,12.3995075,-1.8171898,59.3129768,-18.5343513,-14.0305347
2310,1.4197544,11.8584204,-0.5267217,-36.4732819,9.3282442,-10.4198475,-3.1100521,11.5543585,-3.0956869,57.9618340,-67.4045792,-30.2061062
2320,1.0606259,12.4449968,-0.5865764,-33.9160309,15.5267172,-10.3511448,-1.6280488,11.2550850,-4.4555864,54.3587799,-111.3206100,-57.7480927
2330,0.7230452,12.6580801,-0.5171449,-30.6793900,16.8778629,-8.1526718,-0.8164186,10.7810354,-5.9711084,53.3282433,-127.7022934,-90.5267181
2340,0.6153067,12.6700506,-0.3806761,-27.1832066,13.8167934,-6.1068702,-0.8355721,10.4003592,-6.7228842,62.0992355,-101.4045792,-120.3206100
2350,0.5482694,12.7466650,-0.1556223,-22.0534344,8.8320608,-4.0839696,-1.3790531,9.9143381,-7.1394730,85.0457993,-39.6335869,-141.6106873
2360,0.7613522,12.5599174,0.1532281,-15.0916033,0.5496183,-2.8473282,-2.7006457,9.6150646,-7.7882981,118.0000000,43.4961815,-148.2595367
2370,0.9265513,12.4785156,0.5746055,-6.0000000,-7.9923663,-2.9160306,-4.3478479,9.9478569,-8.4706421,153.4656525,124.8091583,-138.6259613
2380,1.2665262,12.2031832,0.8858501,4.1450381,-13.4045801,-3.9923663,-5.2001796,10.3620520,-10.0436249,182.3282471,184.4351196,-117.1374054
2390,1.4077834,11.7339230,1.0414724,13.2213745,-14.6259546,-6.7862597,-4.8625989,10.1274214,-11.8272963,190.5954132,208.0458069,-96.3893127
2400,1.5298871,11.5208397,0.9073978,20.7099228,-12.6946564,-9.8396950,-3.8953462,9.1793222,-13.4026728,178.0839691,204.1221313,-83.3969498
2410,1.4843974,11.2766323,0.3519458,23.8396950,-7.5648856,-13.5572519,-2.4971397,8.2862902,-13.8144732,154.4351196,188.8702240,-77.9923630
2420,1.3048333,11.0180597,-0.1364688,22.9083977,-0.9541985,-17.4427490,-0.9672526,7.5153608,-13.0962162,130.0610657,172.9694672,-82.1145020
2430,1.2114599,10.7092094,-0.2992737,19.7480907,4.8625956,-21.5114498,0.3375807,6.7013364,-11.6501255,112.5114517,158.6641235,-90.7022934
2440,1.0366840,10.1753054,-0.3567342,16.8167934,7.4122138,-25.0076332,1.4101776,6.1578555,-10.3285332,106.3129807,144.5801544,-102.2442780
2450,0.8451489,9.6078825,-0.3375807,14.7404585,6.2519083,-26.5648861,2.0254843,5.1738434,-9.5647869,106.4351120,136.1068726,-115.9083939
2460,0.6991033,9.0165176,-0.1173153,13.7938929,1.0381680,-26.1984730,2.2074428,3.9001346,-9.2128410,107.2442780,124.9083939,-130.5877838
2470,0.6871324,8.3652983,0.0359128,14.8167934,-8.8549614,-23.8702297,2.2577207,2.7628946,-9.2296000,106.2442780,107.2748108,-145.7786255
2480,0.7541697,7.8170285,0.2346306,17.4045811,-20.3053436,-20.3511448,1.9321109,1.3551112,-9.2631187,100.2442780,86.2366409,-159.0458069
2490,0.8379663,7.3884687,0.0790083,20.0076332,-31.0916023,-15.0305347,1.6304430,-0.4022238,-9.4067707,86.9083939,60.3893127,-172.9389343
2500,0.9816177,6.9383612,-0.0670373,20.9389305,-38.8625946,-7.9389315,1.5107336,-2.1356170,-9.0069408,71.2900772,40.7786255,-188.2824402
2510,1.4149660,6.5864153,-0.3351865,20.0076332,-44.6488533,-0.3664122,0.8882443,-3.6774750,-7.9223728,57.2900772,29.0763359,-204.5801544
2520,1.8435259,6.3685441,-0.4740495,18.6030540,-48.1145020,5.6106873,0.1891410,-5.8873119,-7.7260494,45.5572510,30.0152664,-222.6335907
2530,2.1595588,6.3326311,-0.7924767,16.0534344,-50.4732819,10.9312973,-0.3327923,-7.7452030,-8.3533268,26.7099228,35.0458031,-243.8091583
2540,2.5546002,6.2871413,-0.9552816,11.8854961,-52.0992355,15.1145039,-1.7573351,-9.7730818,-8.6980906,-6.5343513,54.2519073,-250.1374054
2550,2.9711890,6.4140334,-1.3503228,5.8396945,-50.6564903,17.1679382,-3.9216824,-11.8847561,-7.7116842,-41.8854980,82.0839691,-250.1374054
2560,3.2273674,6.7994981,-1.6160779,-2.5114503,-43.6946564,15.8091602,-7.1873569,-13.8647509,-5.7747850,-63.6717567,118.0839691,-250.1374054
2570,3.2417326,7.2352405,-1.9177457,-14.5572519,-29.5877857,10.7557249,-12.3971128,-14.9900198,-2.9831600,-61.8244286,154.9465637,-250.1374054
2580,3.0406206,7.7116842,-2.0685797,-28.5190830,-11.2366409,3.6717558,-19.1271801,-15.6388454,-0.5051740,-36.9771004,178.0000000,-250.1374054
2590,2.3870070,8.3461447,-1.9081690,-39.2977104,6.2137403,-2.0839694,-19.6131992,-14.3771076,0.2849085,1.1145039,164.0610657,-250.1374054
2600,1.5394639,9.1625633,-2.0206959,-47.0534363,19.2900772,-5.0305343,-19.6131992,-11.2215662,-1.6926919,20.6106873,102.3206100,-250.1374054
2610,0.8906385,9.9478569,-2.0326669,-52.3664131,27.7862587,-6.6488547,-19.6131992,-6.5624733,-5.2528515,-12.9618320,5.9541984,-209.0381622
2620,0.0837966,10.8576488,-1.7717001,-55.2061081,30.1984730,-6.7633586,-19.6131992,-1.3958124,-8.5281029,-109.8625946,-111.4580154,-133.9770966
2630,-0.7038917,11.8009596,-1.3910241,-53.7404594,26.2137413,-4.7480917,-19.6131992,3.1794837,-9.7156210,-250.1374054,-250.1374054,-53.6488533
2640,-1.1468167,12.5694942,-0.9050036,-47.3740463,17.4809170,-0.2671756,-19.6131992,3.2800395,-6.4475522,-250.1374054,-250.1374054,35.1526718
2650,-1.2904681,13.5295649,-0.5434810,-37.8549614,7.5419846,4.0534353,-19.6131992,0.1675933,0.7038917,-250.1374054,-250.1374054,134.1145020
2660,-1.3024391,14.3723192,-0.3471575,-27.6641216,-0.8931298,8.0839691,-19.6131992,-3.3398943,8.1330614,-250.1374054,-250.1374054,213.7175598
2670,-0.8666966,14.9948082,-0.2944853,-19.3053436,-6.6717558,9.2290077,-18.8063583,-8.1402445,9.2774839,-250.1374054,-250.1374054,250.1297760
2680,-0.3543400,15.1719790,-0.0430954,-12.6564884,-10.4961834,8.2137403,-12.4785156,-11.8272963,7.1155310,-250.1374054,-250.1374054,247.9923706
2690,-0.0885850,15.1695843,0.7230452,-4.8625956,-11.8244276,6.8244276,-8.1522150,-11.9182749,3.4260850,-179.4656525,-250.1374054,196.4351196
2700,0.6799498,14.9732609,1.3814473,6.1450381,-13.7633591,3.1221373,-7.1179252,-9.8161764,0.0430954,-99.2977066,-250.1374054,133.2519073
2710,1.3215926,14.8894644,1.8195840,18.8778629,-17.8778629,-3.0916030,-8.9351149,-6.8186517,-1.4604555,-48.6259537,-250.1374054,88.8396912
2720,1.9464760,14.2190914,2.1499822,32.2900772,-22.6564884,-11.0992365,-11.4226780,-3.8618276,-1.7142396,-19.3053436,-250.1374054,72.6106873
2730,2.2744799,13.5774488,2.3032103,44.6259537,-27.2290077,-18.1832066,-12.7514534,-1.2306134,-0.9097920,0.2290076,-250.1374054,74.9007645
2740,2.4396791,12.9310169,2.3056045,54.5267181,-33.0152664,-23.2519093,-12.9070749,0.6224893,-0.2011119,14.5419846,-250.1374054,89.5267181
2750,2.5522060,12.1912127,2.3271523,63.0610695,-34.7862587,-26.6641216,-12.2774038,1.9895715,-0.2106887,20.0152664,-248.3816833,103.3129807
2760,2.7413468,11.5375986,2.2601149,70.8625946,-32.0687027,-29.8778629,-11.4968977,2.6695213,-0.7637464,13.9541988,-245.1832123,113.1526718
2770,2.9065459,10.8289185,1.9321109,76.6488571,-25.0534344,-33.7709923,-10.2016411,3.0765336,-0.9121862,2.8167939,-250.1374054,115.9465637
2780,2.7174051,10.2136126,1.0151364,78.7022934,-17.1603050,-38.6488533,-8.0971489,3.6343796,-0.3591284,-5.9923663,-250.1374054,111.5267181
2790,2.3223639,9.5169029,0.3567342,77.2213745,-10.4732828,-43.5190849,-6.4092450,3.9791429,0.3232156,-7.6488547,-239.9923706,98.4274826
2800,1.8100072,8.8321648,-0.1292862,73.3969498,-6.7022901,-47.8244286,-5.4228392,4.3861551,1.1899122,0.1603053,-213.1832123,80.5038147
2810,1.2593436,8.0540533,-0.4285599,69.3664093,-8.8320608,-51.0687027,-5.2217274,5.1451130,1.9201399,14.9465647,-176.2595367,62.4427490
2820,0.7900825,7.4243813,0.0191535,67.9542007,-14.8244276,-54.4274826,-5.8633699,5.9088597,2.5450234,32.0534363,-136.1908417,49.5648842
2830,0.3854645,6.8354111,-0.1221037,70.7099228,-18.1221371,-54.3435097,-7.1538382,6.3709383,2.9903426,48.0458031,-100.0534363,43.0381660
2840,-0.0766141,6.0812411,-0.8595140,70.3511429,-21.2290077,-51.7633591,-8.2934723,7.0077925,2.8897867,58.9465637,-73.3511429,43.2290077
2850,-0.7565638,5.6311336,-1.5179161,63.3282433,-21.0152664,-44.7175560,-9.2104464,7.5608501,2.6910689,62.6259537,-60.5190849,48.0992355
2860,-1.2880739,5.2600341,-1.5131277,54.1145020,-21.6641216,-34.3282433,-9.1601686,8.1929159,2.4540441,60.7175560,-56.1221390,56.2366409
2870,-1.3910241,4.9416070,-1.4460905,45.5877876,-20.6488552,-22.9618320,-8.6861191,8.4610653,2.3726418,54.5877876,-56.4045792,62.3053436
2880,-1.2186425,4.7596488,-1.2282192,39.0152664,-20.9312973,-12.3511448,-7.5776095,8.7627335,2.3822186,47.5038185,-61.3282433,64.3740463
2890,-0.8188128,4.6543045,-0.8331779,35.2290077,-20.3969460,-4.4274807,-6.7372489,8.8608952,2.5809362,40.5343513,-70.6793900,62.5190849
2900,-0.3974355,4.5896611,-0.6727672,33.4503822,-17.8167934,-0.0687023,-6.2105274,8.6047173,2.5569944,34.8702278,-79.4427490,58.4809151
2910,-0.1125269,4.6207857,-0.9744351,30.2977104,-14.9694653,2.0992367,-5.9663200,8.3293848,2.3032103,31.1679382,-83.3282471,54.6870232
2920,-0.0646431,4.6926112,-1.4101776,23.3282452,-11.8167934,2.3129771,-5.9687142,7.9965930,2.3343346,28.3511448,-80.6946564,53.4503822
2930,0.1077385,4.9272418,-1.7405758,13.3893127,-6.6641221,2.2137403,-5.7987270,7.5536675,2.2625091,27.6030540,-72.4351120,56.2519073
2940,0.2968795,5.2815819,-1.8291607,1.8167939,2.2519083,1.7251909,-5.3797436,7.0844064,2.2792683,28.9007626,-59.2748108,59.7404594
2950,0.1436514,5.8992829,-1.8674678,-7.9541984,13.9236641,1.0763359,-4.6806402,6.5528965,2.1236460,31.6183205,-44.0916023,62.1068687
2960,-0.0383070,6.7803445,-2.3103929,-17.7557259,22.9618320,0.4809160,-4.1730723,6.2751703,1.8866212,33.2442741,-29.5801525,62.6106873
2970,-0.1819584,7.8744893,-2.1451938,-24.8778629,30.7404575,0.1374046,-3.8402798,6.0956063,1.8626794,31.9618320,-20.6259537,61.1832047
2980,-0.1244979,9.2607250,-1.8890154,-26.9694653,39.9007645,0.5954198,-3.3877780,5.8011212,2.0039365,28.0305347,-17.6259537,61.0000000
2990,-0.6248835,10.5679522,-1.9632354,-23.7709923,43.8778610,1.0610687,-3.1028695,5.6933827,2.1691356,23.8931293,-17.9236641,60.7099228
3000,-0.3950413,11.5447817,-2.1643472,-15.9160309,38.8854980,-0.1068702,-2.5809362,5.5090299,2.2936335,19.2977104,-20.3587780,60.4961815
3010,-1.7429699,13.0722742,-3.0885043,-9.1603050,38.1526718,10.4503813,-2.0422437,5.1906028,2.5210814,13.8473282,-23.6793900,58.6335869
3020,-1.0725969,13.1464939,-3.6750808,-1.8778626,29.6412220,18.2824421,-1.3718705,5.0110383,3.0047078,9.9694653,-25.8702297,53.9389305
3030,-0.8379663,13.3787308,-4.1898317,3.1679389,20.2442741,23.5343513,-0.9289455,4.9344244,3.5649481,9.9923668,-24.8396950,47.8854980
3040,-0.3950413,13.6827927,-4.4843168,6.8244276,11.2290077,26.7557259,-0.7589580,4.9032998,3.7421181,14.3435116,-19.4732819,38.4198456
3050,0.0861908,13.6085730,-4.4603748,10.0534353,4.5190840,27.2213745,-1.1396341,5.0277977,3.7421181,20.2290077,-13.5114508,28.7786255
3060,0.5889706,13.3380299,-4.5513539,10.1297712,0.1908397,25.0534344,-1.4772149,5.4898763,3.4907281,24.0381680,-8.6335878,19.5114498
3070,1.1180865,12.8974981,-4.3263001,9.2290077,-1.6717557,19.5801525,-2.0350611,6.1147599,3.3422885,24.3816795,-6.1221375,10.8931293
3080,1.4963684,11.3580351,-3.2584918,9.2290077,-5.6335878,6.0534353,-3.7373297,7.4842362,3.4236910,19.5190830,-7.0305343,5.2290077
3090,1.3096216,10.5272512,-2.9687948,9.4961834,-9.2824430,-0.2824427,-4.5417776,8.1809454,3.9432299,14.7633591,-11.2519083,9.0381680
3100,1.0869620,9.5839405,-2.4420733,9.9160309,-14.1832066,-5.1526718,-4.7021880,8.8034344,4.2760224,11.8015270,-16.0916023,15.6641226
3110,0.7565638,8.7411861,-1.8770446,10.8625956,-19.9465656,-6.6412215,-4.6926112,9.0907373,4.5968437,11.4045801,-12.6870232,20.8778629
3120,0.3160330,7.9127960,-1.5298871,11.8015270,-25.6259537,-5.0152674,-4.2377152,9.5623922,5.3151007,15.6870232,-2.7480917,22.9541988
3130,0.1532281,7.2017217,-1.2497669,13.6946564,-29.2900772,-1.1755725,-4.1419477,9.8473015,5.8130918,24.1832066,7.0916033,18.4885502
3140,-0.0837966,6.7564025,-0.9672526,14.6030531,-32.5038185,3.3587787,-4.4412212,10.2207947,6.0070214,32.9618340,14.7404585,11.4732828
3150,-0.1771700,6.2703824,-0.8906385,14.0000000,-32.4809151,9.0381680,-4.6207857,10.7499104,5.9495606,40.8091621,22.3816795,2.6412213
3160,-0.1723816,6.0788469,-0.8643024,13.1526718,-30.2748089,14.1526718,-4.9918852,10.9821472,6.0692701,51.9160309,33.4122124,-5.9007635
3170,0.0119709,5.8106980,-0.7565638,10.9465647,-26.4809170,18.0763359,-5.4228392,11.0276365,6.1817970,67.3816757,46.5190849,-13.3664122
3180,0.4572902,5.6646523,-0.7613522,8.4122133,-21.0381680,19.0229015,-6.0285692,10.9869356,5.6454988,83.2290039,59.7557259,-19.5190830
3190,0.9145803,5.6790175,-0.8236012,6.3740458,-15.6870232,16.4351139,-6.4906478,10.9677820,4.7381010,95.7786255,71.2137375,-23.1984730
3200,1.0917504,5.6957769,-1.0103480,2.0305343,-9.4045801,12.4503813,-6.8473821,10.8935623,3.8043671,104.3129807,82.0610657,-23.7480907
3210,1.0510491,5.6526814,-1.1156923,-3.6106870,-0.7404580,9.1755724,-7.2328463,10.6110477,3.0861101,109.8473282,92.9083939,-21.4656487
3220,1.0773853,5.6646523,-1.4556671,-11.9923668,9.6946564,6.4122138,-7.3046722,10.2495251,2.3486998,114.1450348,102.5267181,-15.2977095
3230,0.9313397,5.7436604,-1.5394639,-21.3129768,20.6183205,5.4274807,-7.0006099,9.9167328,1.6208663,117.6106873,112.0534363,-7.6641221
3240,0.9050036,5.8873119,-1.4724265,-29.7175579,28.1374054,5.8015265,-6.3853035,9.2918491,1.0797794,119.3435135,122.2442780,-1.0610687
3250,0.8188128,5.9208307,-1.6208663,-37.8625946,35.8320618,8.6946564,-5.5712790,8.6717539,0.6272776,119.5496216,132.2519073,4.1984735
3260,0.8571198,6.1315193,-1.7597293,-44.9312973,41.7633591,12.8778629,-4.8123207,8.0564480,0.2298422,118.8625946,138.6183167,6.8091602
3270,0.8451489,6.6055689,-1.8961980,-50.1145020,41.3969460,17.8091602,-3.9839313,7.3310080,-0.1436514,116.5267181,141.2213745,6.8396945
3280,1.1492109,7.0915890,-2.1044924,-55.2977104,37.0763359,22.8702297,-3.3375001,6.7037306,-0.5793939,110.8320618,138.3282471,4.9923663
3290,1.5346755,7.6638002,-2.3582766,-61.3587799,31.4809170,27.1603050,-2.7748656,6.2799587,-0.9768293,102.0305328,129.5419922,0.2595420
3300,1.8052188,8.4490948,-2.7341642,-68.5801544,24.6106873,28.5572510,-2.4468615,5.9471664,-1.3622938,90.0152664,116.9160309,-4.7709923
3310,2.1954718,9.4043760,-3.0621684,-76.9236679,18.8625946,26.1297703,-2.3917952,5.8873119,-1.5322813,75.7938919,100.0992355,-10.0916033
3320,2.2002602,10.2543135,-3.0118904,-86.3664093,14.8778629,20.1984730,-2.3439114,5.6335278,-1.7333932,59.2671738,80.4732819,-13.4503813
3330,1.7740943,10.9582052,-2.6958573,-95.4503784,13.7709923,13.7022905,-2.3894010,5.4132624,-1.8842272,41.9541969,59.8396950,-15.9923668
3340,1.3646880,11.6381550,-2.3295465,-101.4885483,14.4732828,9.5877867,-2.1404054,5.2217274,-1.6472024,26.0152664,40.7480927,-17.4961834
3350,0.6009415,12.0858688,-1.4389079,-103.5648880,16.3664131,7.9847326,-2.0374553,4.9918852,-1.6112895,12.3587790,26.1526718,-18.6335869
3360,0.0000000,12.6197729,-0.6751614,-99.4427490,16.5877857,9.3740454,-2.1739240,5.0014620,-1.3622938,1.5419847,14.8854961,-16.7938938
3370,-0.5339043,13.2949343,0.0359128,-89.8091583,16.0305347,13.8931293,-1.9728121,5.1139889,-1.0725969,-6.0839696,8.8091602,-11.5343513
3380,-0.7637464,13.7282820,0.4692611,-76.6717529,11.6870232,18.8244267,-1.8507085,5.4132624,-1.3503228,-11.9160309,11.0610685,-3.7175572
3390,-0.6775556,13.9844608,0.8571198,-61.7557259,4.9618320,22.9160309,-1.9847831,5.8657641,-2.2457497,-19.7099228,17.7862587,7.1908398
3400,-0.2585725,14.0491037,1.0797794,-46.2290077,-3.4122138,25.2977104,-1.4939742,5.8609757,-2.8754215,-30.4732819,25.2061062,18.8320618
3410,0.1316804,14.0012197,1.3000449,-31.2213745,-12.4045801,25.3893127,-0.5315101,5.4419928,-2.7509236,-39.3740463,34.5648842,24.6183205
3420,0.4788379,13.8072910,1.5897418,-17.7328243,-20.1526718,24.8167934,1.0079538,5.0421629,-1.9368993,-40.9465637,48.4274826,20.2671757
3430,0.7469871,13.5008345,1.6376256,-5.8244276,-25.6946564,22.5725193,1.6974803,5.2624283,-0.7613522,-31.1297703,67.2519073,3.9923663
3440,1.0749911,13.1512823,1.7262106,3.5419848,-28.7099228,19.9007626,1.4197544,5.8537931,0.0909792,-12.8396950,79.8778610,-16.2900772
3450,1.4149660,12.7562418,1.8722562,11.2519083,-29.5038166,16.4122143,0.2729376,6.7444315,-0.2298422,3.5877862,76.8320618,-36.9618340
3460,1.6615674,12.3564119,1.8435259,17.4732819,-28.2748089,11.9160309,-0.7182568,7.9175844,-0.9576758,10.8320608,59.0381660,-57.8931313
3470,1.8267666,11.9182749,1.7333932,22.0916023,-25.3587780,5.7251906,-1.8531027,9.4809904,-2.4779861,8.4809160,30.7557259,-78.4351120
3480,1.9153515,11.4035244,1.5227045,25.0992374,-21.0992374,-1.2137405,-2.5737536,10.8744087,-3.9312592,-2.8320611,3.6183207,-96.4656525
3490,1.7501525,10.8289185,1.1372399,25.3282452,-15.3587790,-8.1068707,-3.3470769,11.9254580,-4.6734576,-20.6259537,-18.7786255,-110.1679382
3500,1.5131277,10.2016411,0.7972651,23.6488552,-8.2900763,-15.0305347,-4.1994085,12.7155399,-4.4268565,-36.8244286,-34.3206100,-121.3740463
3510,1.2162483,9.6222477,0.4572902,20.7328243,-1.6793894,-20.9694653,-5.0038562,13.2709923,-3.6535332,-44.7404594,-43.6641235,-129.1832123
3520,0.7972651,8.8680773,0.3782819,17.2290077,3.5496182,-24.2900772,-5.7747850,13.6708221,-3.0142846,-42.1374054,-40.9618340,-132.5343475
3530,0.4788379,8.1833391,0.4620786,15.6793890,7.0229006,-25.5343513,-6.2440462,14.1137466,-3.0310438,-29.8931293,-25.9236641,-132.0152740
3540,0.1364688,7.6063399,0.3351865,15.8091602,6.5419846,-22.9770985,-6.6678176,14.5375185,-3.6080434,-12.1755724,-4.6106873,-125.5038147
3550,-0.2059003,7.1801744,0.1771700,15.2671757,2.7938931,-17.4427490,-7.2855186,14.9732609,-4.5369892,3.9007633,17.3435116,-112.8778610
3560,-0.4429250,7.0915890,-0.0766141,15.0152674,-2.8320611,-9.8015270,-7.7284436,15.3802729,-6.3493905,9.8015270,20.1068707,-96.7786255
3570,-0.3112446,6.9048424,-0.4740495,13.1450386,-8.1755724,-1.1145039,-7.8577299,15.7992563,-8.4419117,-3.0305343,-0.6717557,-79.9236679
3580,0.0239419,6.7587967,-0.5530578,9.8244276,-12.4351149,7.2137403,-7.6614060,15.3395720,-10.8265247,-40.8244286,-48.2061081,-64.4580154
3590,0.4405309,6.6965480,-0.5578461,7.1068702,-16.4198475,14.8702288,-6.2416520,13.9605188,-12.3612003,-95.2748108,-97.5038147,-55.9465637
3600,0.8331779,6.9335728,-0.8283895,3.9923663,-21.3893127,20.8778629,-4.2425036,12.7442703,-11.9158812,-148.6412201,-117.0916061,-54.9541969
3610,1.3958124,7.3310080,-1.6879035,-2.4961832,-25.7328243,25.4580154,-3.0669568,11.8536320,-9.3804340,-183.0992432,-95.6488571,-54.3053436
3620,2.0566087,7.5273318,-2.4396791,-14.1297712,-21.0076332,26.1297703,-3.6224086,10.8504667,-5.0876527,-187.7022858,-40.9847336,-49.8396950
3630,2.5617826,7.8266053,-2.5450234,-28.5038166,-8.2213745,23.5725193,-4.7381010,9.8808203,-1.8004304,-163.2748108,26.0534344,-35.2519073
3640,2.6671271,8.3054428,-2.2816625,-40.1297722,8.2900763,18.1450386,-5.2552457,8.3054428,-1.2880739,-122.7786255,90.6183243,-18.1145039
3650,2.2122312,8.9207497,-2.1236460,-49.7328262,26.1297703,12.6259546,-5.7580256,6.6773944,-2.6096666,-93.5190811,146.1603088,-3.8625953
3660,1.5466464,9.6414013,-1.9105632,-56.6335869,42.9694672,9.8091602,-5.6502872,5.2600341,-3.9025288,-81.6412201,177.0763397,3.3053436
3670,0.8619082,10.6397781,-1.7118455,-59.2519073,57.7022896,9.4885492,-5.8897061,2.8849983,-4.6734576,-79.4961853,194.5648804,3.7175572
3680,0.4429250,11.3795824,-1.5466464,-58.4732819,67.3129807,10.2595415,-6.5337429,-0.0119709,-5.4300218,-85.9770966,206.2366486,0.2442748
3690,0.0454896,12.0164366,-1.1779412,-53.4122124,68.8931274,12.0229006,-6.7037306,-2.8179610,-5.2528515,-99.1450348,215.6030579,-11.8244276
3700,-0.1795642,12.6125898,-0.7733232,-43.8625946,61.4503822,14.5114508,-6.5217719,-5.3845320,-4.4316444,-112.4198456,226.0000000,-35.7404594
3710,-0.0742199,13.0004492,-0.4668669,-30.8244267,45.4809151,17.2595425,-7.0963774,-8.2503767,-2.7940190,-122.0610657,242.3282471,-71.0610657
3720,0.1963235,13.1824074,-0.0407012,-16.1068707,25.0000000,19.8549614,-8.4371233,-11.1760759,-1.2210367,-126.5190811,250.1297760,-115.9542007
3730,0.6991033,13.3188763,0.2442073,-2.0152671,5.3740458,22.3129768,-10.4434547,-13.0219965,-0.3375807,-130.0992432,250.1297760,-170.2061005
3740,1.2976507,13.2829628,0.5291159,8.6259546,-10.9083967,24.0305347,-14.2214851,-13.5223818,0.5027798,-134.6335907,243.1068726,-226.3206177
3750,2.0326669,13.2662039,0.9935886,17.4045811,-24.2671757,25.5725193,-18.9547977,-12.7825775,1.4939742,-141.9007568,206.3511505,-250.1374054
3760,2.7605004,13.2278967,1.6232605,25.4656487,-35.6183205,24.9541988,-19.6131992,-10.7475166,2.5641768,-158.8015289,143.1832123,-250.1374054
3770,3.7469065,13.2159262,2.0039365,33.2442741,-42.0305328,21.0305347,-19.6131992,-6.4068508,4.3071470,-192.8320618,56.5267181,-246.1221313
3780,4.6040263,13.0938225,2.4157372,40.0534363,-42.8015251,12.5419846,-19.6131992,-2.4827745,5.7292953,-250.1374054,-37.5572510,-148.4961853
3790,5.0972295,12.7730007,2.4684093,44.8320618,-37.3816795,1.2137405,-19.6131992,-0.2489957,9.6030941,-250.1374054,-107.1984711,-11.3816795
3800,5.2576399,12.4258432,2.5498118,47.7251892,-28.1297703,-10.6793890,-19.6131992,-0.5027798,18.5118732,-250.1374054,-126.7099228,90.0229034
3810,5.2408805,11.7626524,2.4995339,49.7099228,-17.6870232,-22.4961834,-17.1136665,-3.0645626,19.6126022,-250.1374054,-151.6717529,129.7709961
3820,4.7572546,11.0132713,2.2481439,52.4427490,-7.6259542,-32.6641235,-13.1129761,-6.7755561,19.6126022,-190.7480927,-214.1908417,131.6641235
3830,4.1275826,10.3141680,1.7405758,55.1145020,-0.3053435,-40.8244286,-10.6828737,-9.0045462,19.6126022,-47.9312973,-250.1374054,111.1908417
3840,3.4859397,9.6390066,1.2473727,57.0610695,3.2671757,-47.3740463,-9.9478569,-10.0077124,19.6126022,81.9694672,-250.1374054,71.4656525
3850,2.7221935,9.0811605,0.4525018,56.9160309,4.6488547,-52.5877876,-11.4107065,-9.9430685,12.7562418,167.7633514,-250.1374054,27.2519093
3860,1.9225341,8.5783806,-0.1388630,54.5877876,3.9465649,-56.1908379,-14.3962612,-8.4347296,5.2935529,210.0915985,-250.1374054,-1.6335878
3870,1.1587877,7.9151902,-0.4908088,50.1068687,2.0076337,-57.5954208,-17.8271351,-5.4683285,-0.5482694,212.2061005,-250.1374054,-7.8167939
3880,0.4788379,7.4124107,-0.7757174,44.9923668,0.0305344,-56.6564903,-19.6131992,-2.6551561,-3.3327117,195.9313049,-250.1374054,13.8473282
3890,-0.1556223,6.9551206,-0.7757174,39.2519073,-1.8702290,-53.8320618,-19.5796814,-0.0191535,-5.3629842,173.0305328,-234.8244324,48.4198456
3900,-0.6224893,6.5217719,-0.8643024,33.7557259,-3.9694657,-48.7557259,-17.1783085,2.4731977,-6.4691000,145.2442780,-219.9923706,80.9618301
3910,-1.0007712,6.0884237,-0.6464311,28.7175579,-6.4732823,-42.1984749,-14.0610743,4.9607606,-6.8378053,109.5877838,-211.5496216,100.0381699
3920,-1.1779412,5.9232249,-0.4022238,25.1908398,-9.2900763,-34.2213745,-10.8241301,7.3549500,-6.1530671,68.3435135,-208.3282471,104.3816757
3930,-1.2521610,5.7221127,-0.2250538,24.0076332,-11.4351149,-26.0992374,-8.4443064,8.5999289,-4.1156116,33.0687027,-205.5114441,95.8931274
3940,-1.1037214,5.7963328,-0.3591284,22.8473282,-12.1068707,-18.6412220,-6.9694853,9.3780403,-1.1396341,13.0152674,-194.0381622,82.6183243
3950,-0.8140244,6.2679882,-0.4333483,21.0687027,-12.0610685,-13.2671757,-6.0381460,10.1681223,2.0637913,11.6183205,-175.8778687,69.0152664
3960,-0.8930327,7.2879128,-0.6560079,18.7251911,-9.5190840,-9.3664122,-5.6119800,10.8528605,4.3717899,26.2748089,-153.5648804,54.4656487
3970,-1.4532729,8.7579451,-0.6560079,16.7175579,-5.9083967,-4.5267177,-6.2033448,11.3316984,5.6766233,50.3969460,-133.4122162,39.3969460
3980,-2.0135133,10.6086531,-0.1149211,21.0152664,-1.3206106,3.1450381,-7.3932571,11.6381550,5.6287394,72.4885483,-119.3740463,29.6488552
3990,-2.5976956,12.0882626,0.4237715,35.9389305,3.3740458,15.6870232,-8.4467001,12.2367020,4.7428894,84.9389343,-110.2900772,25.8778629
4000,-2.3367288,12.7155399,0.1556223,56.9389305,4.3129773,29.8396950,-9.0141230,12.7945480,3.9839313,87.6870193,-104.3740463,25.9618320
4010,-1.3096216,13.0866394,-0.8595140,77.4351120,2.8625953,41.0534363,-9.0763721,12.8735571,4.1539187,89.8091583,-93.2977066,30.0152664
4020,-0.3112446,13.0962162,-2.0590029,93.7328262,0.1603053,47.0534363,-9.0763721,12.7538471,4.7859845,97.3664093,-75.2595444,37.5190849
4030,0.4309541,13.0243902,-3.1483591,105.6564865,-7.2671757,48.9847336,-8.8776541,12.4761209,5.0397687,110.6946564,-57.3282433,48.9389305
4040,1.2354017,12.7873659,-4.0844874,110.8244247,-18.7557259,47.3129768,-8.3820572,11.8344784,4.5537481,123.5954208,-40.7175560,61.1526718
4050,1.7932479,12.3659887,-4.8266859,109.7175598,-31.3358784,42.2748108,-7.7212610,10.9773588,3.4907281,131.7175598,-25.1984730,71.5648880
4060,2.4588325,11.8320847,-5.0254035,103.5419846,-43.1145020,34.7175560,-7.2424231,10.0148945,2.7269819,130.6030579,-13.5343513,80.0992355
4070,3.1938488,10.5033092,-4.4771342,98.9083939,-51.0458031,27.5725193,-6.5313487,9.1434097,2.3103929,124.0076370,-9.9389315,85.7022934
4080,4.2161674,9.6964674,-4.6806402,91.0381699,-52.8549614,17.3587780,-5.6790175,8.3652983,2.2337787,116.3969498,-11.5038166,91.2900772
4090,5.2169390,8.8896255,-5.1738434,73.8091583,-45.9694672,0.3587786,-4.7021880,7.3956513,2.2529323,109.8931274,-14.6564884,93.8702316
4100,4.7907729,8.6095057,-5.5952206,46.2290077,-25.2595425,-20.6564884,-3.6224086,6.4475522,2.1811066,104.3969498,-18.6870232,94.0763321
4110,2.9065459,8.3198080,-4.4938936,18.7786255,-4.2366414,-36.6946564,-2.5522060,5.7029591,1.8794388,101.2519073,-20.2595425,90.6259537
4120,1.7333932,7.5225434,-2.7389526,2.0839694,4.6793895,-45.8778610,-1.5059452,4.8099265,1.4317253,99.7022934,-17.3816795,85.5343475
4130,0.9313397,6.4403696,-1.2354017,-3.1145039,7.9007635,-48.4732819,-1.0223188,4.2712340,1.3838415,98.0534363,-11.9923668,79.5419846
4140,0.1556223,5.5473371,-0.5219333,-1.5877863,11.8549614,-46.0458031,-0.5530578,3.7038112,1.2928623,96.5801544,-8.1526718,72.5572510
4150,-0.5027798,4.7644372,-0.1268920,3.2061069,14.7022905,-39.1755714,-0.1244979,3.2920105,1.0558375,94.8396912,-6.7557254,65.6335907
4160,-0.8140244,4.3909435,-0.1771700,9.4503813,14.5572519,-30.5572510,0.2681492,2.9975252,0.8762733,92.9847336,-5.7175574,57.5190849
4170,-0.9002152,4.1515245,-0.6584021,14.6259546,13.1526718,-22.0763359,0.5362985,2.9328821,0.4884146,88.4351120,-6.8015265,48.6870232
4180,-1.0031654,4.3263001,-1.1516051,15.1068707,12.0687027,-14.3053436,0.7924767,2.8490853,0.3782819,82.0916061,-9.6335878,40.7862587
4190,-0.6200951,4.2855992,-2.1882892,8.2137403,13.6564884,-7.0610685,0.9361281,2.8873925,0.4094064,76.9542007,-12.2595415,33.3129768
4200,-0.5554519,4.5800843,-2.6719155,-1.8549619,17.1297703,-2.3664122,0.9696468,2.8203552,0.2992737,73.8549652,-12.5038166,28.6335869
4210,-0.2513899,4.7788019,-3.0549858,-13.7175570,21.6717548,1.9083970,0.4955972,2.6767037,0.2154770,70.4198456,-10.4732828,26.7557259
4220,0.0861908,5.0613165,-2.9089401,-24.8854961,28.1526718,4.5572519,0.0861908,2.5689652,-0.1628049,64.5267181,-6.7786260,28.4351139
4230,0.3136388,5.4563580,-2.9041519,-32.2290077,31.0076332,5.0305343,0.0383070,2.6551561,-0.2226596,57.3740463,-1.2900764,31.2366409
4240,0.4548960,5.9399838,-3.1315999,-38.2671738,29.2137413,4.8778625,-0.1987177,2.9352763,-0.1316804,48.2442741,2.5190840,34.9236641
4250,0.4884146,6.5289545,-3.2991931,-44.0839691,29.3969460,6.5496182,-0.7541697,3.4835455,-0.0550664,37.7633591,0.4809160,39.7938919
4260,0.4501076,7.2280579,-3.2824337,-47.5114517,30.8244267,9.4351149,-0.8643024,4.0916696,-0.3040621,25.0000000,-5.3587785,44.9465637
4270,0.3280039,8.2599535,-3.2441268,-46.8320618,29.3206100,14.3053436,-0.8978211,4.4053087,-0.3303981,8.9694653,-13.1374044,48.7862587
4280,0.2274480,9.2296000,-3.4428444,-43.3358765,23.1679382,21.2671757,-0.9217629,4.9894910,-0.0694315,-8.8473282,-24.9389305,48.4961815
4290,0.3088504,10.2830439,-3.7349355,-38.8167953,16.5801525,29.1068707,-0.7613522,6.1937680,0.5674229,-23.0152664,-40.0992355,45.0228996
4300,0.3016679,11.9110928,-3.7780309,-32.8778610,9.9694653,37.3282433,-0.6847382,7.0532823,1.1635761,-30.4122143,-52.2137413,41.8091621
4310,0.6081241,13.0746689,-4.0820932,-25.7175579,2.9847329,43.8778610,-0.6033357,8.2982607,1.1827296,-32.7938919,-59.0687027,37.7480927
4320,1.2018831,14.0036144,-4.1970143,-16.8778629,-6.2748094,47.2977104,-1.0366840,9.8520899,0.9672526,-35.5419846,-67.5801544,34.2671738
4330,2.1811066,14.5111818,-4.0868812,-4.9847326,-16.1374054,46.4503822,-0.7829000,11.0036945,0.9385223,-36.0152664,-73.0763321,31.9007626
4340,2.9616125,14.8224268,-4.4914994,7.7099237,-26.2137413,41.8931313,0.1101327,12.5359764,1.0127422,-34.7022896,-68.2977066,26.1832066
4350,3.6367738,14.9349537,-4.8099265,17.8931293,-34.0458031,33.8320618,0.3280039,13.1201582,1.6424140,-22.4885502,-54.8854980,16.9007626
4360,4.1036406,14.9900198,-5.4802995,23.4503822,-36.9312973,22.5038166,0.0933734,14.1161413,2.0350611,-4.1374044,-32.5801544,11.3206110
4370,4.2161674,14.9086180,-6.0596933,22.1832066,-35.2595406,8.4809160,-0.2992737,14.8032732,1.9488702,15.9312973,-9.0687027,7.4503818
4380,4.1922259,14.5997677,-6.1985564,14.7862597,-30.4885502,-5.8015265,-0.8690908,15.0402985,1.5035510,35.3511467,11.6641226,5.5801525
4390,3.5194585,14.0682573,-5.6814117,5.0687022,-25.0534344,-18.2824421,-1.1635761,15.0953646,0.9385223,50.6488533,28.3282452,7.0687022
4400,2.7365584,13.1560707,-5.1187773,-4.7786260,-20.3129768,-28.3435116,-1.3311694,14.9134064,0.3016679,61.0305328,39.6870232,9.5114508
4410,2.2289903,12.0308018,-3.9121056,-11.0381680,-21.9770985,-37.6183205,-1.5370697,14.4968176,-0.4070122,65.6793900,46.1068687,13.3664122
4420,1.3598996,10.7858238,-2.4253139,-11.6259546,-29.9083977,-44.9923668,-1.4197544,13.7737722,-0.9552816,64.6717529,47.2671738,17.9465656
4430,0.7948709,9.2655134,-1.5322813,-10.1755724,-36.9160309,-49.6259537,-1.1180865,12.7490587,-1.3718705,58.6793900,44.8549614,21.4351139
4440,0.3112446,8.0971489,-0.8188128,-7.6946564,-38.3282433,-51.6946564,-0.5769997,11.8272963,-1.4221486,49.6030540,41.0839691,22.3816795
4450,-0.1412572,6.7587967,0.1340746,-2.7709923,-34.7251892,-50.6488533,0.1125269,10.8049774,-1.2665262,38.8167953,35.5572510,19.9770985
4460,-0.5578461,5.8178802,0.4501076,4.1908398,-28.6641216,-45.7709923,0.6009415,9.8568783,-1.0366840,27.2061062,25.4809170,13.8854961
4470,-0.9959828,5.0661049,0.3519458,11.0534353,-21.6106873,-38.0992355,1.1611819,8.9159613,-0.6751614,16.0687027,12.8549614,3.5038168
4480,-1.2593436,4.5322008,-0.1364688,14.2290077,-14.2824430,-27.0076332,1.6304430,8.0540533,-0.4525018,7.7480917,2.5496182,-8.2977095
4490,-1.4029950,4.3167233,-0.6105183,12.8396950,-6.4274807,-14.4961834,1.8315549,7.5680327,-0.0383070,3.2366412,-3.2061069,-24.8396950
4500,-1.2617378,4.5681133,-1.0654143,8.1297712,2.0000000,-0.9923664,1.4317253,7.1586266,0.2513899,2.2748091,-8.1450386,-42.8244286
4510,-0.7062859,4.5585365,-1.3407460,1.1755725,8.5801525,9.3282442,0.2849085,7.1346846,0.1580165,4.9083967,-9.6870232,-55.2977104
4520,-0.1149211,4.5178356,-1.1539993,-5.4656487,11.8015270,17.0305347,-1.0127422,7.4770536,-0.7206510,3.5496182,-11.5496187,-59.5114517
4530,0.3950413,4.6854286,-0.8666966,-9.3282442,11.9236641,22.5343513,-1.5370697,7.5632443,-1.3335636,-1.1221374,-12.2748089,-57.0992355
4540,0.9576758,4.7692256,-0.9337339,-12.4274807,11.5343513,25.6488552,-1.9823889,7.5919747,-2.0925217,-9.0839691,-9.8091602,-51.1603050
4550,1.2976507,5.0517397,-1.0582317,-16.1221371,14.7328243,27.5190830,-2.1475880,7.6183109,-2.3486998,-19.4961834,-7.0305343,-44.0152664
4560,1.4413021,5.5281835,-1.4197544,-20.9083977,22.9694653,29.1450386,-1.8794388,7.5991573,-2.4444675,-30.5114498,-5.7251906,-37.0534363
4570,1.4317253,6.0046272,-1.8315549,-27.1221371,32.8549614,30.3282452,-1.1587877,7.7380204,-2.3199697,-40.9847336,-5.0305343,-34.8625946
4580,1.6663558,6.5888095,-2.4468615,-36.4198456,43.6106873,30.2366409,-0.5219333,7.4243813,-2.2840567,-52.4732819,-4.7099237,-37.8702278
4590,1.6759326,7.0077925,-2.5474176,-45.3282433,51.0381660,28.4122143,-0.7110743,7.1897511,-1.5993185,-57.7099228,-7.1679387,-43.5725174
4600,1.4867916,7.5704269,-2.7940190,-51.2290077,52.7786255,27.1297703,-0.5626345,7.2950954,-1.3982066,-61.0305328,-4.1374044,-47.4122124
4610,1.2689204,8.1139078,-3.0023136,-55.0152664,48.7633591,27.3358784,-0.5602403,7.1753860,-1.5011568,-64.7175598,0.1221374,-52.3816795
4620,1.2066715,8.6238708,-3.1100521,-56.8015251,38.9923668,28.0381680,-0.6799498,6.9048424,-1.7549409,-69.4351120,4.4885497,-56.2442741
4630,1.5490406,9.2655134,-3.2848279,-56.6030540,27.6793900,28.1832066,-0.6751614,6.6606350,-1.4484847,-72.5343475,13.7480917,-56.1679382
4640,1.9105632,9.7467451,-3.4332676,-56.6030540,17.7175579,26.3969460,-0.5362985,6.3565731,-1.2593436,-72.1984711,28.8244267,-54.0305328
4650,2.0398495,10.3859940,-3.9049230,-58.4961815,12.1984730,22.3282452,-0.0383070,5.7915444,-0.9361281,-70.1297684,52.0305328,-50.9923668
4660,2.0637913,10.8480721,-4.1587071,-63.3740463,9.5267172,15.4656487,0.8451489,5.6000090,0.2442073,-61.4732819,77.8549652,-54.5267181
4670,2.0374553,11.3604288,-4.2832050,-71.7099228,10.0305347,7.0687022,1.0845678,6.0142040,1.8602852,-47.6488533,98.5343475,-69.5267181
4680,1.6448082,11.6285782,-3.1651185,-90.5343475,18.7099228,-15.1374044,-1.1444225,7.8960366,2.7293761,-30.7099228,82.3206100,-105.9923630
4690,1.1539993,11.4059181,-2.3367288,-95.0076370,22.8015270,-26.0992374,-1.6424140,9.4809904,2.5905130,-32.0992355,53.2290077,-130.1297760
4700,0.6536137,11.2000179,-1.4939742,-95.9312973,25.1145039,-34.0916023,-1.9105632,10.5487986,2.2385671,-34.3206100,30.8167934,-157.8625946
4710,0.0861908,10.8217363,-0.6440369,-92.0687027,28.3358784,-38.9923668,-3.0214672,11.6884327,2.7245877,-26.4274807,29.1450386,-182.8931274
4720,-1.1396341,10.9917240,-0.0861908,-84.5801544,33.1526718,-38.7480927,-4.8649931,13.1369171,3.2345500,-4.4045801,45.6641235,-194.6183167
4730,-2.1978660,11.5447817,0.4141948,-74.5725174,40.5648842,-32.7175560,-6.5313487,14.1185350,2.9592183,28.6717548,81.7633591,-193.8625946
4740,-3.1818779,12.0858688,0.4979914,-64.0992355,47.5190849,-23.1679382,-8.0492649,14.2597923,2.1715298,66.8244247,125.3206100,-178.7099304
4750,-3.4236910,12.4090843,0.8643024,-51.7099228,48.9389305,-12.1908398,-8.7028790,14.9756546,1.6160779,104.4580154,169.6641235,-157.2519073
4760,-3.1244173,12.0308018,1.1563935,-37.4885483,42.4809151,-2.9618320,-8.4610653,15.0762110,0.1843526,135.5496216,200.4656525,-140.2519073
4770,-2.5546002,11.2933912,1.5250987,-21.9389305,31.4045811,5.2977099,-7.7212610,14.7266598,-1.4604555,158.8931274,218.2061005,-131.8625946
4780,-1.7717001,10.4219065,2.0254843,-5.6259542,18.0839691,15.0534353,-6.6079631,14.1209297,-3.2967989,175.6793823,231.2671814,-129.6335907
4790,-0.9289455,9.6581602,2.2984219,10.8931293,4.6259542,25.7099228,-5.4036856,13.5247765,-4.4962878,188.4274750,244.1068726,-132.0686951
4800,0.0095768,8.7316093,2.1547706,24.7633591,-5.7480917,37.7938919,-4.3837609,12.6197729,-5.3725610,201.4045868,250.1297760,-139.8854980
4810,1.1803354,8.1402445,2.0685797,35.9923668,-12.2824430,49.0839691,-3.4548154,11.3388815,-5.8418221,217.4045868,250.1297760,-151.8931274
4820,2.3319404,7.9726510,1.6998745,45.0305328,-14.8854961,56.1679382,-4.0078731,10.5751352,-6.3757267,231.0305328,250.1297760,-162.0152740
4830,3.1268115,7.9175844,1.0893562,48.7022896,-13.4961834,55.6641235,-7.4722652,11.9398232,-7.4842362,240.4961853,250.1297760,-151.1755676
4840,3.6128318,7.9534974,0.3878587,45.9618340,-4.2824426,49.6488533,-10.8480721,11.8679972,-7.7499914,243.5343475,242.8167877,-110.3435135
4850,3.8642218,8.0444765,-0.2418131,37.0610695,13.0763359,39.7022896,-11.0108776,10.7762470,-8.6693602,239.1374054,214.1221313,-58.7022896
4860,3.4117200,8.0636301,-0.9337339,23.0152664,36.7938919,28.2137413,-9.1960821,8.8082228,-8.5137377,233.1450348,185.3282471,-16.7557259
4870,2.6886747,8.0492649,-1.3455344,6.7099237,61.4198456,18.9618320,-6.7875271,6.2057390,-7.4148049,234.1679382,169.9084015,7.9465647
4880,1.7812769,8.1617918,-1.4915800,-7.0610685,81.3129807,14.6106873,-3.2441268,3.3398943,-6.7947097,244.2290039,168.5954132,12.4045801
4890,0.9576758,8.5496502,-1.6112895,-15.3435116,95.1679382,16.7022896,-0.9624642,0.5865764,-6.5313487,250.1297760,167.4274750,-6.1450381
4900,0.3136388,9.3564920,-1.9967541,-19.5038166,101.2366409,24.4351139,0.0814024,-1.4748207,-7.7164726,250.1297760,151.9313049,-39.2748108
4910,0.3663110,10.5775290,-2.2936335,-20.0610695,95.4580154,32.3282433,0.5674229,-3.0358322,-9.3780403,244.8702240,131.4732819,-82.5267181
4920,0.9409165,11.8512383,-2.5091105,-17.6717548,77.2290039,35.6030540,0.3758878,-3.9432299,-10.3476868,211.4656525,114.7175598,-130.5419922
4930,1.8626794,12.8544035,-2.6383967,-13.6793890,53.7251892,33.2519073,-1.6639616,-4.7524662,-10.7570934,162.2290039,99.5114517,-176.0305328
4940,2.6312141,13.6732159,-2.4277081,-8.4732828,29.3206100,27.4503822,-4.6351509,-5.2863703,-10.1369982,103.7786255,81.5114517,-210.2900696
4950,3.5577655,14.1520538,-1.8985922,-1.7938931,8.9160309,18.3129768,-8.1210909,-5.5784616,-8.4395180,43.8091621,63.5190849,-231.3053436
4960,4.2448978,14.0969877,-1.2832855,6.9160304,-0.9007633,9.3282442,-11.4346485,-5.8992829,-5.8154860,-9.7938929,50.6106873,-237.4198456
4970,4.6686692,13.8455973,-0.8236012,17.0458012,-4.8549619,1.2977099,-13.6851873,-5.9591374,-3.0454090,-53.9618340,42.9160309,-232.3893127
4980,4.9176650,13.4314032,-0.7781116,26.3969460,-5.2900763,-5.7099237,-15.2318335,-5.2576399,0.3351865,-88.0687027,40.3435097,-224.1145020
4990,5.0661049,12.8855276,-0.9504932,34.0763359,-4.7251906,-11.2137403,-17.5757446,-3.3662305,3.8426740,-109.7404556,33.6259537,-216.3664093
5000,5.0277977,12.3851423,-1.1252691,40.0000000,-4.4885497,-14.4503813,-19.6131992,-1.9105632,7.1083484,-117.4961853,11.4656487,-202.4503784
5010,5.0469513,11.8895445,-1.2880739,43.7709923,-7.4045801,-17.3740463,-19.6131992,-0.3495516,10.1848822,-107.0229034,-17.8778629,-183.3053436
5020,5.1211715,11.4418316,-1.4700323,45.7251892,-11.0000000,-21.1145039,-19.6131992,1.9153515,11.2455082,-79.6488571,-45.0458031,-154.3206177
5030,4.9559722,11.0731258,-1.5921360,45.2061081,-13.6030531,-26.0229015,-19.6131992,4.1275826,10.4721851,-48.1068687,-68.3740463,-102.8854980
5040,4.6686692,10.4745789,-1.7860653,42.2671738,-14.6259546,-31.5954189,-19.6131992,5.0277977,8.5017672,-25.4198475,-82.2137375,-31.1221371
5050,4.0940638,9.9191265,-1.9033806,36.5954208,-13.2290077,-36.2061081,-19.6131992,5.8849177,5.8346395,-20.5267181,-94.3358765,47.5114517
5060,3.5026991,9.3421268,-1.9656296,29.2748089,-9.6946564,-39.2519073,-19.6131992,4.6566987,2.6910689,-24.5725193,-108.5877838,136.8396912
5070,2.8658447,8.5783806,-1.7501525,22.6412220,-5.8244276,-40.8320618,-19.6131992,2.5905130,-2.1787124,-50.3893127,-129.2137451,212.0305328
5080,2.0613971,7.9247670,-1.5538290,17.3816795,-5.7633586,-40.4885483,-19.6131992,-0.0430954,-6.7204900,-96.7328262,-171.4656525,250.1297760
5090,1.2210367,7.4339581,-1.4652439,13.9465647,-10.3435116,-37.6106873,-16.8526993,-1.9991482,-10.0915089,-154.2748108,-225.1374054,250.1297760
5100,0.4309541,6.8162575,-1.3120158,11.9694653,-18.4503822,-32.6259537,-12.0308018,-3.1986370,-11.8320847,-211.9236603,-250.1374054,250.1297760
5110,-0.2729376,6.2584114,-1.3670821,9.7709923,-29.5114498,-24.4732819,-7.5464849,-3.1220231,-11.5064745,-250.1374054,-250.1374054,250.1297760
5120,-0.8116302,5.8226686,-0.9911944,6.3893127,-42.7404594,-13.1755724,-5.9184365,-2.4253139,-9.0907373,-250.1374054,-250.1374054,232.7328186
5130,-0.7230452,5.5066357,-0.4165890,3.5343511,-54.3587799,-0.8396947,-5.6981707,-1.4077834,-5.8705525,-250.1374054,-250.1374054,207.4656525
5140,-0.4285599,5.2552457,0.0119709,3.0076337,-59.8931313,9.0305347,-6.1937680,-0.4213773,-3.5194585,-250.1374054,-250.1374054,185.0610657
5150,0.0574605,5.1714492,0.4094064,2.1603053,-58.6641235,15.5038166,-7.0652533,0.4070122,-1.8674678,-246.7022858,-250.1374054,166.3664093
5160,0.7062859,5.4683285,0.6368544,0.1679389,-48.0381660,18.5267181,-7.6470413,1.6088953,-0.7996593,-212.9236603,-250.1374054,150.3664093
5170,1.1396341,6.0046272,0.5027798,-3.7709923,-27.9847336,17.9312973,-7.1394730,3.0454090,-0.5985473,-175.8091583,-250.1374054,135.6488495
5180,1.5179161,6.8545642,0.0814024,-11.0381680,-4.8625956,13.9083967,-6.5935979,4.7045822,-1.0725969,-140.6183167,-250.1374054,118.0687027
5190,1.2090657,7.8601241,-0.7469871,-21.5648861,17.5725193,8.7480917,-6.4954362,5.9232249,-1.4843974,-111.6870193,-250.1374054,99.6641235
5200,0.7086801,8.7794924,-1.0486550,-34.9541969,35.7709923,6.0992365,-6.4499464,7.1322904,-1.3407460,-86.2290039,-236.7175598,84.0305328
5210,-0.0598547,9.7730818,-1.0079538,-43.5648842,46.2595406,7.7022901,-6.7468257,8.0205345,-0.5650287,-58.4809151,-199.0839691,70.6488571
5220,-0.2418131,10.6613255,-0.7350162,-44.8702278,44.8549614,13.7709923,-7.5345144,8.6669655,0.1508339,-29.9694653,-157.2366486,60.4351158
5230,0.0622489,11.4777441,-0.4812321,-37.8320618,34.0458031,20.4580154,-8.6334467,9.1170731,0.6655847,0.5114504,-117.0305328,54.9541969
5240,0.6751614,12.0547438,-0.2920911,-24.7938938,14.6564884,24.1450386,-9.7419567,9.4953556,0.8451489,29.5419846,-80.7175598,55.7709923
5250,1.5250987,12.4186611,-0.4357425,-9.6946564,-6.4732823,23.2748089,-10.7570934,9.6725254,0.6057299,54.5038185,-52.1908379,62.2748108
5260,2.2529323,12.6915979,-0.7158626,3.3893130,-24.3893127,18.6335869,-11.4274664,9.6461897,-0.3016679,71.0381699,-32.8549614,73.7480927
5270,2.7988074,12.7514534,-1.3766589,9.8625956,-32.8625946,10.8091602,-11.2431135,9.7419567,-1.3479286,77.4809189,-23.0916023,89.1908417
5280,3.0262554,12.4641504,-1.6591733,9.9083967,-32.4045792,2.4122138,-10.6445665,9.6414013,-2.5498118,71.2213745,-21.1679382,104.2900772
5290,2.8849983,11.8919392,-1.3862357,8.0229006,-25.8473282,-3.6793892,-9.5767574,9.1146793,-3.5984666,53.9618340,-25.8320618,117.1526718
5300,2.5378408,11.2670555,-1.0558375,7.6870227,-17.5190830,-6.8167939,-8.3437500,8.5544386,-3.8187323,30.4732819,-32.8931313,127.0916061
5310,2.1739240,10.7044210,-0.6009415,9.5267172,-11.6870232,-7.7099237,-6.8928714,7.7428088,-2.9448531,7.0381680,-37.7251892,133.6641235
5320,1.7333932,10.0268650,-0.6560079,13.0229006,-10.0610685,-6.4580154,-5.5233951,6.9623032,-1.7764885,-8.1145039,-39.8625946,136.7022858
5330,1.2258250,9.5025377,-0.5291159,17.1603050,-12.6870232,-3.3511450,-4.2041965,6.1291251,-0.2394189,-13.5190840,-35.5877876,137.4656525
5340,0.8858501,8.8704720,-0.4668669,20.7099228,-18.2519093,1.3282443,-3.0908985,5.3988972,1.1324517,-10.7709923,-27.5725193,134.4580078
5350,0.5267217,8.4347296,-0.3088504,24.2442741,-25.4045811,6.4580154,-2.1332228,4.9272418,1.9728121,-0.9541985,-21.4045811,127.7709961
5360,0.4357425,8.0061693,-0.0933734,28.2671757,-32.3740463,12.4580154,-1.0678085,4.5705075,2.4372849,12.3435116,-17.5419846,116.9923630
5370,0.2298422,7.6997132,0.0407012,31.9160309,-36.8931313,18.1221371,-0.4357425,4.4244623,2.2385671,24.5343513,-14.6717558,103.3358765
5380,0.2394189,7.2759418,0.1651991,33.9007645,-38.6870232,23.7633591,-0.1173153,4.9152708,1.8866212,32.5877876,-15.1679392,88.9542007
5390,0.2968795,6.9479380,0.2442073,34.1145020,-35.6641235,28.2442741,-0.0335187,5.3869262,1.2689204,36.6564903,-21.0916023,77.0992355
5400,0.4764437,6.7180958,0.2226596,33.1221390,-28.3053436,31.8015270,-0.0526722,5.5856438,0.7086801,37.0228996,-25.1297703,68.1221390
5410,0.6871324,6.4738884,0.4046180,30.8854961,-17.9236641,34.7938919,-0.1101327,5.8250628,0.0646431,33.6106873,-26.2595425,62.6946564
5420,0.7637464,6.3278427,0.5243275,29.3664131,-5.9312978,37.3664131,-0.1340746,6.2608056,0.0191535,29.4351139,-27.9465656,59.2213745
5430,1.1109039,6.0644817,0.5554519,27.6793900,7.6259542,39.7709923,0.2873027,6.4499464,0.0000000,27.8854961,-26.1755733,55.6717567
5440,1.4867916,5.9184365,0.4381367,25.4580154,21.2137413,41.3358765,0.7206510,6.6247220,-0.4165890,27.5801525,-20.2290077,51.2137413
5450,1.8938038,5.7604198,0.5171449,24.1374054,34.5877876,42.8167953,0.8595140,6.9407554,-0.8930327,23.0916023,-17.4885502,44.9541969
5460,2.3989778,5.6167684,0.4692611,24.6870232,46.9694672,44.3206100,0.9696468,7.6997132,-1.0438666,15.5267172,-19.3816795,35.9541969
5470,2.8586621,5.7173243,0.2106887,26.7175579,58.6030540,46.2442741,0.6775556,8.2312231,-0.3998296,11.3282442,-20.9465656,28.2824421
5480,3.3207407,6.1937680,-0.2322364,28.9923668,68.1145020,47.8244286,0.4836263,8.8297710,-0.2250538,12.5648851,-21.7251911,23.1450386
5490,3.5769191,7.0006099,-1.1899122,29.4427490,76.9236679,50.1984749,0.3806761,9.3373384,-0.2370248,16.4961834,-22.9618320,18.0534344
5500,3.8546450,7.9295554,-2.1188576,25.7480907,82.2519073,53.0000000,-0.0191535,9.8473015,-0.5147507,19.7099228,-23.7328243,11.8167934
5510,4.3765783,8.9279327,-3.2608860,17.5725193,82.8625946,54.1297722,-0.5722113,10.6900558,-0.9672526,22.1145039,-22.4809170,8.9083967
5520,4.8434453,9.8353300,-3.9097114,6.1679387,72.5038147,50.3129768,-1.0725969,11.1760759,-1.4006008,23.8549614,-18.7175579,9.5877867
5530,5.1139889,10.4123297,-4.2592630,-5.5038166,57.1374054,45.3358765,-1.4269369,11.5399933,-1.5969244,24.1526718,-12.3664122,12.1908398
5540,5.6000090,11.1664991,-4.7141590,-18.3664131,38.7404594,37.3358765,-1.6807210,11.6716738,-1.6831152,24.6564884,-5.6870227,15.2824430
5550,5.8849177,11.8895445,-4.6734576,-32.1832047,18.5572510,25.6106873,-1.5274929,11.5639353,-1.6855093,25.6946564,2.0305343,17.3740463
5560,5.9902620,12.2606440,-4.3909435,-45.9160309,2.0381680,11.5725193,-1.4077834,11.4274664,-1.6352314,26.9007626,7.6946564,17.0763359
5570,5.9926562,12.4402084,-3.9360476,-58.6488533,-7.4122138,-2.5267177,-1.4149660,11.2407198,-1.4700323,29.1908398,11.2748089,15.3969469
5580,5.8609757,12.3396521,-3.2273674,-69.0229034,-7.4580154,-15.7251911,-1.4987626,10.9869356,-1.4173602,31.5572510,13.2900763,12.6412210
5590,5.3198891,12.1600885,-2.3056045,-76.6564865,1.7938931,-26.1297703,-1.5418580,10.8839855,-1.4484847,32.7022896,11.3893127,9.2290077
5600,4.6758518,11.7865944,-1.8746504,-83.3740463,19.1221371,-31.5496178,-1.6879035,10.7211800,-1.7693061,30.7404575,6.3816795,7.2748094
5610,3.7660601,11.3173332,-0.8930327,-88.1068726,40.9312973,-31.5572510,-1.7190280,10.4410601,-2.1116750,26.0152664,0.6717557,4.6335878
5620,2.6623387,10.8839855,-0.0071826,-88.9847336,63.3816795,-25.0763359,-1.8052188,10.2327662,-2.2098370,19.7404575,-3.2213740,2.9923663
5630,1.6591733,10.7738523,1.1156923,-80.6183243,70.7557220,-15.1526718,-2.0350611,10.0125008,-1.8722562,13.0763359,-5.7786260,3.8778627
5640,0.8978211,10.5057030,2.4253139,-58.9312973,58.0916023,-2.4427481,-1.9967541,9.5719690,-1.7884595,7.9389315,-6.2977099,5.7633586
5650,0.7876883,10.2303715,2.7245877,-28.7175579,36.7557259,10.9389315,-1.9177457,9.0308828,-1.4149660,4.0229006,-4.1297708,8.6335878
5660,1.7836711,10.4243011,-0.6536137,31.5038166,-15.2366409,40.9007645,-1.5969244,7.8649125,-0.5362985,-2.3053436,5.6335878,17.6183205
5670,2.3654592,10.6206245,-1.4245427,35.5954208,-25.6106873,45.2824440,-1.2689204,7.5225434,-0.3136388,-4.3435116,8.7786255,19.7786255
5680,3.1890604,10.5823174,-2.0063307,36.0687027,-35.2824440,44.9312973,-0.9600700,7.3166428,-0.4812321,-9.3511448,7.5954199,19.1908398
5690,3.8498566,10.5679522,-2.2026544,34.1908379,-42.2061081,39.6259537,-0.6967092,7.0556765,-0.2011119,-15.2900763,2.0687022,17.1068707
5700,4.3382711,10.4578199,-2.3295465,30.6183205,-46.9923668,30.1374054,-0.3375807,7.0484939,-0.1963235,-24.8091602,-6.7251906,11.7175570
5710,4.7117648,10.2351599,-2.2194135,26.0076332,-49.6259537,18.3664131,-0.1747758,6.8593526,-0.0335187,-33.5267181,-18.3435116,5.8854961
5720,4.8171091,9.8185711,-2.2409613,20.5572510,-48.7633591,5.8931298,-0.1173153,6.7923155,0.4237715,-39.1297722,-26.6793900,-1.1679389
5730,4.8051381,9.3900108,-1.9632354,14.6870232,-44.5725174,-5.3740458,0.0790083,6.9479380,0.8020535,-40.4045792,-30.3053436,-8.7786255
5740,4.5417776,8.9015961,-1.7118455,8.8625956,-38.8167953,-14.2519083,-0.1915352,7.1203194,0.8092360,-37.7251892,-27.5267181,-16.0763359
5750,4.1467361,8.3940287,-1.5346755,3.9770992,-34.0228996,-19.9083977,-0.8188128,7.4602942,0.6224893,-33.5038185,-22.0839691,-19.2137413
5760,3.8977404,8.0229292,-1.2761030,0.1297710,-31.7328243,-22.5343513,-1.2856797,7.8409705,0.4716553,-31.7404575,-17.1068707,-21.4732819
5770,3.5936785,7.5895805,-1.1851238,-2.6793892,-30.3511448,-22.4961834,-1.8363433,8.3796635,0.0933734,-32.8854980,-16.0458012,-21.7175579
5780,3.3351059,7.2615767,-1.0486550,-5.8015265,-32.2977104,-19.1832066,-2.1978660,8.8752604,-0.1460456,-35.5343513,-15.5343513,-19.8854961
5790,3.2513094,6.9862447,-0.8068419,-7.5572519,-36.4351158,-13.4198475,-2.1954718,9.2726955,-0.0526722,-38.5725174,-15.0229006,-16.8396950
5800,3.3494711,6.8234401,-0.6823440,-8.0763359,-40.1526718,-7.1297708,-2.0374553,9.5959110,0.1101327,-42.0152664,-15.2595415,-15.2213745
5810,3.5864959,6.8306227,-0.6200951,-8.9007635,-41.6717567,-2.8320611,-1.7669119,9.8544836,0.2011119,-43.9160309,-16.1297703,-16.4656487
5820,3.8570392,7.1275020,-0.6296718,-9.1450386,-38.8549614,-1.9312977,-1.3096216,10.1393919,0.5147507,-42.4580154,-15.1679392,-18.6870232
5830,3.9959023,7.3429790,-0.8259954,-11.5343513,-30.6412220,-4.4045801,-0.9097920,10.3907824,0.7613522,-37.4274826,-11.2900763,-24.1450386
5840,3.9528067,7.5488791,-1.2186425,-16.5267181,-15.7557249,-8.7480917,-0.8092360,10.7762470,0.6584021,-32.3969460,-6.8625956,-32.6946564
5850,3.6726866,7.9056134,-1.5993185,-23.6946564,4.1374044,-13.7480917,-1.5083394,11.1736822,0.5793939,-29.4122143,-4.2519083,-41.5190849
5860,3.1914546,8.3245964,-1.6112895,-30.8015270,22.0381680,-18.9083977,-2.4109488,11.7530756,0.6368544,-28.2442741,-4.0839696,-46.0992355
5870,2.6838863,8.6741486,-1.8124014,-35.1297722,38.2290077,-22.2671757,-3.2345500,12.0284081,0.9696468,-27.1374054,-7.2061067,-47.4122124
5880,0.5769997,11.5854826,-1.7812769,-22.4809170,22.5801525,-5.9618320,-4.2832050,10.7235746,2.2313845,7.0992365,19.1068707,-28.8015270
5890,1.0318956,11.9685535,-1.5849534,-17.4961834,13.6412210,-4.1755724,-4.2353210,10.4530315,2.2601149,12.4045801,26.1374054,-25.7328243
5900,1.5945302,12.2223368,-1.4101776,-12.3511448,6.8244276,-5.3893127,-4.1778607,10.2782555,2.2529323,16.8854961,31.3511448,-22.4351139
5910,2.0206959,12.3228931,-1.0390782,-8.1374044,1.5267175,-8.2061071,-4.2353210,10.0340481,2.5354466,20.8167934,34.6412201,-16.4580154
5920,2.4061604,12.2558556,-0.8044477,-4.6335878,-1.9312977,-12.4656487,-4.2281384,9.7611103,2.5857246,23.9389305,36.0305328,-10.8091602
5930,2.8203552,12.2175484,-0.4525018,-1.2290076,-2.7862597,-17.1679382,-4.0581512,9.2942438,2.2816625,25.7633591,35.6641235,-4.6946564
5940,3.0262554,12.0308018,-0.5027798,1.2900764,-0.9694657,-21.2290077,-3.5625539,8.8369532,2.1236460,25.3511448,33.8396950,0.4351145
5950,3.3997490,11.9996777,0.0191535,5.0839696,5.1832061,-25.9083977,-2.9664006,8.1761570,1.9033806,19.8091602,21.5801525,3.7862597
5960,3.6678982,11.8201132,0.8044477,20.4122143,2.4122138,-27.2137413,-2.1380112,7.7260494,1.4772149,16.3664131,5.5725193,1.1603054
5970,3.6056492,11.8632088,0.7302278,29.8091602,-0.4961832,-26.0916023,-1.8866212,7.6494355,0.9409165,12.6564884,-3.0305343,-2.2595420
5980,3.7229645,11.8368731,0.3136388,36.7175560,-5.1526718,-24.9007626,-1.6136837,7.6566176,0.3256098,7.1908398,-9.8702288,-6.5877862
5990,3.8019729,11.7458935,0.1173153,42.3816795,-9.2213745,-23.5343513,-1.0965388,7.7092900,-0.0837966,1.2366412,-13.9083967,-11.5572519
6000,3.8570392,11.6812506,-0.0670373,46.8625946,-13.6717558,-23.7862587,-0.4285599,7.8673067,-0.3327923,-3.4809160,-13.1526718,-19.5419846
6010,3.9599893,11.4418316,-0.3854645,49.7786255,-19.1374054,-26.1374054,0.3040621,8.1665802,-0.4165890,-5.5572519,-8.2977095,-30.3816795
6020,3.8642218,11.1784706,-0.7326220,50.9847336,-23.1068707,-28.8396950,0.6488253,8.7316093,-0.6177009,-4.3587785,0.5419847,-45.3893127
6030,3.6726866,10.8097658,-0.9337339,49.9694672,-29.4656487,-31.9465656,0.3663110,9.3540983,-0.8786675,-0.0381679,7.0381680,-58.4732819
6040,3.5074875,10.4314833,-0.9097920,47.3282433,-36.8091621,-35.9236641,0.0550664,10.0986910,-1.1156923,7.6564884,7.0305343,-67.2137375
6050,3.3231349,9.9861641,-0.8475431,43.7938919,-41.8320618,-40.1526718,0.3112446,10.8720140,-2.2577207,16.6412220,7.1374044,-70.8931274
6060,2.9448531,9.4139528,-0.7709290,39.0763359,-43.3511467,-44.2824440,1.3862357,11.5639353,-4.0198441,20.8931293,10.1832066,-71.0839691
6070,2.6934631,8.9925756,-0.6512195,33.6106873,-41.4732819,-47.3740463,2.6934631,12.0284081,-5.4707227,21.4045811,15.3893127,-76.8244247
6080,2.3870070,8.4538832,-0.3878587,27.8473282,-36.6335869,-50.5267181,3.9049230,12.2941628,-6.7037306,22.0000000,30.5038166,-85.5496216
6090,1.9392935,7.9367380,-0.3088504,22.8015270,-29.9236641,-52.2137413,4.1587071,12.2223368,-7.6805596,22.3282452,54.9389305,-98.0610657
6100,1.3862357,7.6159167,-0.2992737,18.1145039,-23.9541988,-51.9465637,3.7445123,11.9613705,-8.3844519,21.7938938,81.8625946,-111.1145020
6110,0.9217629,7.2065101,-0.3280039,13.8091602,-22.8244267,-49.7862587,3.2680686,11.7123747,-8.7531567,20.4427490,107.4885483,-124.6030502
6120,0.5243275,6.7133074,-0.3495516,9.8702288,-25.6717548,-46.3053436,3.0501974,11.3005743,-8.4538832,20.0992374,132.6870270,-140.4351196
6130,0.2418131,6.3661499,-0.2059003,6.5877862,-31.1145039,-42.7480927,2.7700772,10.7116032,-7.2089043,24.9694653,158.8167877,-154.6412201
6140,0.0574605,5.9735026,-0.2226596,3.1755726,-36.6641235,-38.9389305,2.8897867,10.5224628,-6.2320752,37.0992355,185.4961853,-169.3206177
6150,0.0837966,5.7484488,-0.0167593,0.1526718,-40.4274826,-35.9083977,3.4476328,10.2591019,-6.3613615,48.7557259,205.7404633,-185.7328186
6160,0.0263361,5.5305777,0.2489957,-2.5114503,-42.0763359,-34.6946564,3.2465210,9.9239149,-7.2998838,52.1068687,218.0152740,-204.3129730
6170,-0.0095768,5.4683285,0.3184272,-5.7251906,-40.8244286,-34.9007645,2.5378408,9.9765873,-8.2384062,44.0534363,214.7404633,-220.4427490
6180,0.0023942,5.5760674,0.3256098,-10.0458012,-33.8931313,-36.8091621,0.7805058,9.9310980,-8.7555504,23.8244267,194.5190887,-227.9007568
6190,-0.0646431,5.8059096,0.2442073,-14.2137403,-22.1679382,-38.6870232,-0.3112446,9.3373384,-8.5496502,-3.0763359,157.6641235,-225.2290039
6200,-0.2801202,6.1410961,0.0526722,-18.8396950,-4.7557254,-37.8015251,-0.5578461,7.8697009,-7.3405848,-29.8244267,124.5343475,-220.4045868
6210,-0.5698171,6.7587967,-0.3950413,-23.4809170,15.8015270,-33.2366409,-0.3974355,5.3222833,-5.6598639,-47.3511467,104.9770966,-219.9313049
6220,-0.8403605,7.7308378,-1.0486550,-27.6717548,31.3893127,-25.0534344,-0.9935886,1.7525467,-4.4986820,-56.2061081,93.6030502,-228.0152740
6230,-0.8475431,8.8680773,-2.1404054,-32.7557259,35.4198456,-16.2595425,-1.5035510,-2.3439114,-4.0054789,-59.5496178,90.5572510,-243.8931274
6240,-0.7781116,9.8640604,-2.5905130,-35.8396950,34.4045792,-8.5267172,-2.3319404,-7.0987716,-3.4763632,-59.6488533,96.4427490,-250.1374054
6250,-0.7350162,10.5799236,-2.5115047,-34.4122124,27.4274807,-1.6641221,-3.9264708,-11.9972830,-3.3446827,-57.8854980,117.1755753,-250.1374054
6260,-0.5482694,11.0587606,-2.1882892,-27.5190830,13.6793890,4.0305343,-6.7157016,-16.5893383,-3.7708483,-58.0763359,135.0686951,-250.1374054
6270,-0.1795642,11.2742386,-1.8147956,-17.4961834,0.0763359,8.1984730,-10.9701757,-19.6131992,-3.4284792,-60.5954208,131.1526642,-250.1374054
6280,0.2250538,11.3963413,-1.6136837,-6.0076337,-10.5572519,11.0992365,-15.2414103,-19.6131992,-2.5641768,-64.9542007,110.2137375,-250.1374054
6290,0.4740495,11.5184450,-1.7980363,4.3664122,-17.3358784,12.8854961,-19.6131992,-19.6131992,-2.5976956,-82.1603088,71.8091583,-250.1374054
6300,0.4932030,11.3436699,-1.9967541,10.6259546,-18.8091602,14.5725193,-19.6131992,-19.6131992,-1.9273225,-120.4198456,27.0458012,-250.1374054
6310,0.5865764,11.1281929,-2.0685797,13.3893127,-17.8091602,16.8549614,-19.6131992,-15.0139618,0.9624642,-168.9313049,-15.4503813,-250.1374054
6320,0.7398046,10.8648319,-1.9129574,14.8549614,-15.0839691,18.2900772,-19.6131992,-8.2144642,5.6550756,-217.5801544,-50.6564903,-250.1374054
6330,0.8427547,10.5033092,-1.6974803,15.9007635,-11.5648851,19.5038166,-19.6131992,-0.9097920,10.0460186,-250.1374054,-84.6564865,-170.4122162
6340,0.9433106,10.1130562,-1.4221486,16.3664131,-8.3969469,20.6030540,-19.6131992,3.2800395,16.1559906,-250.1374054,-103.6793900,-36.9618340
6350,1.0486550,9.6725254,-1.1755470,16.7862587,-6.6106873,21.2137413,-19.6131992,2.1882892,19.6126022,-239.4809113,-114.5725174,77.8625946
6360,1.1947005,9.2726955,-0.9361281,17.9312973,-8.1679392,21.3816795,-19.6131992,-2.6312141,19.6126022,-129.4122162,-142.6564941,169.9923706
6370,1.2545552,8.9375095,-0.5961532,20.0305347,-12.3969469,20.7709923,-19.6131992,-7.3788919,19.6126022,11.3587790,-193.1526642,232.7099304
6380,1.3000449,8.5855637,-0.2944853,22.6183205,-16.2671757,20.6183205,-17.4727955,-10.6661139,16.0482521,122.5343475,-235.5954132,250.1297760
6390,1.2330076,8.3605099,-0.3710994,23.8854961,-17.7862587,19.8931293,-12.0906563,-12.0212250,4.8195033,170.2442780,-250.1374054,236.7175598
6400,1.3311694,8.1665802,-0.5075682,22.3740463,-15.5190840,18.9465656,-9.7946291,-11.9589767,-2.6000898,167.0152740,-245.2519073,198.1221313
6410,1.3551112,8.1163025,-0.5243275,18.8015270,-9.4732828,16.4198475,-9.6366129,-10.1872759,-6.8210459,136.7480927,-219.1297760,163.1908417
6420,1.3120158,7.9822278,-0.5674229,13.7862597,-0.7022901,12.8931293,-10.6517487,-7.7428088,-7.4650826,100.4961853,-204.5954132,143.5954132
6430,1.2856797,7.8840661,-0.6943150,7.5725193,9.5725193,9.0076332,-11.0036945,-5.4491754,-5.7628140,73.8549652,-200.5572510,141.3129730
6440,1.2090657,7.8218169,-0.8116302,1.0534351,18.9770985,4.7251906,-10.6421719,-3.5960727,-3.7277529,59.6870232,-190.6564941,148.1984711
6450,0.9026094,7.7882981,-0.9193687,-5.8396945,25.4427490,0.8244275,-9.6749191,-1.7836711,-2.5330524,54.4274826,-180.5343475,155.6870270
6460,0.8283895,7.7164726,-0.7062859,-12.0916033,28.9007626,-3.0687022,-8.6980906,-0.2896969,-2.1188576,50.1374054,-178.5801544,159.1374054
6470,0.7829000,7.6278877,-0.4740495,-17.2442741,30.5725193,-7.0763359,-7.8050575,0.8020535,-1.9488702,42.8167953,-184.2366486,155.0000000
6480,0.6344602,7.6207051,-0.4357425,-21.7099228,31.4351139,-10.6564884,-6.9000540,1.7764885,-2.0566087,32.2061081,-194.8702240,146.1832123
6490,0.5147507,7.8074517,-0.3830703,-26.0305347,32.6030540,-13.2061071,-5.9471664,3.1339941,-2.0374553,18.7557259,-204.4122162,130.7251892
6500,0.4596844,8.0468712,-0.4070122,-31.4809170,35.7786255,-13.9770994,-5.1906028,4.7045822,-1.5562232,7.2061067,-209.5267181,109.7709961
6510,0.4740495,8.3198080,-0.3591284,-36.7328262,40.3587799,-13.2824430,-4.9224534,6.1530671,-0.5219333,2.9694657,-206.6335907,86.1068726
6520,0.5243275,8.7435799,-0.5315101,-41.4427490,44.6412201,-11.9389315,-5.5497313,7.1897511,0.4932030,6.6564884,-194.0381622,62.7938919
6530,0.5937590,9.1745338,-0.6248835,-44.9312973,47.9923668,-10.5038166,-7.0628591,8.3174143,1.0103480,13.7099237,-178.6793823,47.0152664
6540,0.7206510,9.5911226,-0.6344602,-46.2442741,48.5725174,-9.2442751,-9.1266499,9.7419567,1.0079538,18.8015270,-166.1297760,41.0763359
6550,0.7781116,10.1681223,-0.8571198,-46.0076332,46.8702278,-8.5572519,-10.7427282,10.7044210,0.8858501,20.7557259,-154.8091583,48.9160309
6560,1.0175306,10.7139978,-1.2689204,-46.0610695,45.2748108,-9.6412210,-11.2048063,11.4585905,0.5291159,19.8931293,-136.4809113,65.7404556
6570,1.0749911,11.2814207,-1.4987626,-46.2137413,43.9771004,-12.6183205,-10.0771437,11.9661589,0.6536137,19.4580154,-108.6793900,85.0381699
6580,1.0989330,11.7051926,-1.6448082,-46.4274826,42.1297722,-16.8931293,-8.3964224,11.5974541,1.3431402,24.2519093,-75.2900772,99.6870193
6590,0.9145803,12.0188313,-1.7381816,-46.7328262,41.0839691,-21.1984730,-7.3166428,10.4961262,1.9895715,34.6412201,-38.1450386,104.5343475
6600,0.5602403,12.0930510,-1.5011568,-45.9312973,40.8778610,-24.1984730,-6.8617468,9.6485834,2.3606708,46.1755714,-8.2977095,103.3587799
6610,0.2035061,11.9158812,-0.9983770,-42.2290077,40.3511467,-24.1755733,-6.6821828,9.4283180,2.5498118,55.3816795,8.9923668,100.1145020
6620,-0.2466015,11.7147694,-0.5458752,-34.5801544,39.4351158,-19.6259537,-6.4403696,9.3732519,2.2481439,62.2824440,16.9007626,97.8473282
6630,-0.8068419,11.3388815,0.1651991,-21.6106873,35.5038185,-9.2671757,-6.2296810,9.3612804,1.6615674,65.9465637,17.7175579,96.3816757
6640,-0.8499373,10.9246864,0.6200951,-3.5954199,26.3206100,6.0305343,-5.6167684,9.5456333,0.7350162,63.4274826,12.5801525,96.3435135
6650,-0.3327923,10.4530315,0.5841822,17.1374054,11.8396950,23.9465656,-4.9631548,9.5647869,-0.2561783,53.0305328,4.0076337,95.5496216
6660,0.4812321,10.0484133,-0.0143651,34.6793900,-5.0763359,39.4351158,-4.5178356,9.0548248,-0.5003856,38.2366409,-5.9465647,94.3816757
6670,1.6424140,9.8353300,-0.5291159,48.4961815,-23.3511448,50.1984749,-4.0844874,8.6430235,-0.2059003,24.8396950,-12.8778629,91.6488571
6680,2.5617826,9.6892843,-0.9672526,58.8167953,-41.8625946,55.0000000,-3.5050933,8.1163025,0.3758878,17.6335869,-12.7709923,92.1603088
6690,3.2608860,9.6198530,-1.6902977,63.4122124,-57.5343513,54.2824440,-3.0406206,7.3741035,0.9720409,14.8854961,-6.6946564,91.5648880
6700,3.7349355,9.5121145,-2.1571648,61.8473282,-68.6335907,50.7709923,-2.5426292,6.8354111,1.4580613,15.5648851,-1.1908396,88.6259537
6710,4.2568688,9.3062143,-2.4301023,56.5114517,-74.0229034,45.0992355,-2.1044924,6.5074067,1.7166338,18.8549614,2.1450381,84.7251892
6720,4.6375451,8.8513184,-2.6360025,48.4885483,-70.7633591,38.7786255,-1.6376256,6.3541789,1.8626794,22.3206100,2.8473282,80.0687027
6730,4.8769641,8.7866755,-2.6120608,39.7251892,-59.6106873,32.1679382,-1.0271072,6.4667058,1.4149660,21.9083977,-0.2977099,73.9007645
6740,5.0876527,8.8728657,-2.9711890,28.5267181,-42.5954208,23.2137413,-0.4836263,6.7564025,1.1899122,16.9160309,-4.4732823,64.7557220
6750,5.0301919,8.9231443,-3.4141142,14.6717558,-21.0458012,11.8931293,-0.3256098,7.1035600,1.3479286,10.9923668,-8.8702288,54.6259537
6760,4.6040263,9.0428534,-3.9528067,-1.7862595,3.0839694,-0.2519084,-0.6009415,7.1514440,1.5394639,7.7099237,-9.7709923,48.5038185
6770,3.8977404,9.1529865,-4.2855992,-19.3969460,23.8473282,-12.0458012,-0.9409165,7.2663651,1.8554969,7.0229006,-7.7328243,45.7022896
6780,3.1770895,9.4043760,-4.2065907,-35.5114517,39.7251892,-22.5419846,-0.8810617,7.4962072,1.8387375,8.4045801,-5.4045801,43.3129768
6790,2.2170193,9.5863342,-3.9982965,-48.2519073,51.1679382,-31.4122143,-0.7805058,7.8002691,1.6615674,7.3206105,-1.6717557,40.4809151
6800,1.2976507,9.7180147,-3.7038112,-57.4961815,55.7404594,-38.3206100,-1.2784972,8.0588417,1.4843974,1.9312977,-1.6564885,36.8015251
6810,0.2322364,9.8832140,-3.1866663,-62.3358765,52.3129768,-42.3435097,-2.0518203,8.5927458,1.6160779,-7.0839696,-7.2900763,37.1221390
6820,-0.7350162,10.0220766,-2.3678534,-61.4274826,40.1832047,-42.6335869,-2.2577207,8.9422979,1.8195840,-18.4503822,-18.3511448,40.2519073
6830,-1.3958124,10.1537571,-1.7669119,-56.6106873,24.6106873,-39.6259537,-2.0087249,9.0476418,2.1404054,-28.8320618,-29.9694653,43.0152664
6840,-1.7812769,10.3452930,-1.1061156,-49.5343513,8.2977095,-34.1679382,-1.5083394,8.8776541,2.5809362,-35.2977104,-37.6335869,44.7709923
6850,-1.9009864,10.4554253,-0.6991033,-42.2137413,-5.7404580,-26.5572510,-0.9169745,8.7148495,3.1459649,-36.4580154,-39.5572510,42.6183205
6860,-1.5897418,10.4937325,-0.0598547,-33.3893127,-17.0610695,-18.1526718,-0.3423691,8.6430235,3.5074875,-32.5801544,-35.9541969,36.0992355
6870,-1.0151364,10.7139978,0.4261657,-24.0381680,-26.3587780,-11.8778629,-0.1173153,8.7172441,3.7684543,-25.1984730,-29.3816795,28.5114498
6880,-0.5458752,10.7475166,0.5650287,-15.6641226,-32.1221390,-9.2366409,-0.2992737,8.6980906,3.9599893,-16.7862587,-19.9312973,20.2671757
6890,-0.2250538,10.7666702,0.5889706,-10.3587790,-33.5725174,-9.0000000,-0.7254394,8.8752604,4.0605454,-8.8320608,-12.0229006,12.9923668
6900,-0.0071826,10.7690639,0.7493813,-6.9923663,-31.2366409,-11.0916033,-1.1037214,9.1553802,4.0150557,-1.5038168,-6.3129773,7.3740458
6910,0.1699875,10.7666702,0.7565638,-5.0992365,-25.3893127,-14.4503813,-1.5083394,9.2463598,3.7708483,3.4809160,-2.8015268,4.3664122
6920,0.1053443,10.6349897,0.8403605,-4.1679387,-16.4580154,-17.2595425,-1.7645177,9.2894554,3.5793133,5.4885497,-1.4274809,1.5877863
6930,0.0071826,10.5751352,0.8259954,-4.0763359,-8.4961834,-18.9465656,-1.9704180,9.3660688,3.5673423,6.8244276,-1.1755725,-0.2824427
6940,-0.0550664,10.4697905,0.9528874,-3.9236641,-2.3664122,-20.0152664,-2.2026544,9.3660688,3.7253587,9.1068707,-2.6946564,-1.4274809
6950,-0.1077385,10.2591019,0.9935886,-2.5267177,0.9770992,-20.8091602,-2.4205256,9.1817169,3.6726866,11.3358774,-6.6641221,-3.0992367
6960,-0.1699875,10.1226330,0.9552816,-0.7557252,3.9618320,-20.9770985,-2.5713594,9.1218615,3.3135581,13.1526718,-12.0763359,-6.3893127
6970,-0.3974355,9.9957409,0.9911944,1.4885496,4.7099237,-20.2824421,-2.8993635,8.9255381,3.1770895,13.8702288,-17.1145039,-10.1145039
6980,-0.6081241,9.8688488,0.9480990,4.2213740,5.1984735,-18.1068707,-3.3015873,8.8201942,2.6551561,13.7251911,-21.8320618,-13.7328243
6990,-0.6871324,9.8568783,0.8882443,7.6793895,5.9770994,-14.7404585,-3.6607156,8.7675219,1.8890154,11.4961834,-24.1908398,-16.1526718
7000,-0.6703730,9.8209648,0.7421987,11.2671757,6.8015265,-10.8473282,-4.0174499,8.8872309,1.2425843,6.1374044,-25.2671757,-14.9465647
7010,-0.5027798,9.6366129,0.6655847,15.0229006,6.6946564,-6.7786260,-4.1036406,8.7268209,0.6943150,-1.7557251,-21.5190830,-10.3053436
7020,-0.3088504,9.5839405,0.5626345,19.6793900,5.0916033,-2.8244274,-3.8977404,8.4419117,0.7206510,-8.8473282,-11.4198475,-3.9847329
7030,-0.0598547,9.7395630,0.2920911,23.9694653,0.8473282,0.2900763,-3.5098817,8.1953106,1.3934183,-12.4427481,3.0687022,1.9541985
7040,1.0534433,9.5839405,0.0215477,25.5114498,-8.0076332,1.5954199,-2.0159075,7.7667508,2.8299320,-12.8702288,15.0381680,1.3664122
7050,1.0007712,9.2128410,-0.0526722,23.3587780,-9.5648851,0.9923664,-0.9888002,8.0516596,2.6120608,-20.0305347,3.5877862,-19.0839691
7060,1.1516051,8.9925756,0.0814024,21.3206100,-11.2061071,1.1755725,-0.7469871,8.5017672,2.8155668,-24.0076332,-0.1755725,-33.7862587
7070,1.6687500,8.4897957,0.3399749,19.3893127,-13.5877867,-0.7862595,-1.0654143,9.0811605,3.2249732,-25.3893127,-1.7251909,-46.0152664
7080,1.9608412,7.9343438,0.0885850,14.6870232,-15.1221371,-5.8015265,-1.4772149,9.4977493,3.3901722,-23.4122143,-0.5038168,-52.8473282
7090,1.8890154,7.4028339,-0.1891410,4.7786260,-12.4503813,-10.4351149,-1.8411317,9.9717989,3.4643922,-19.1374054,5.3358779,-55.7633591
7100,1.7764885,6.9120250,-0.0622489,-7.1908398,-4.4961834,-12.6412210,-2.0302727,10.4626083,3.3877780,-14.2519083,13.1603050,-55.7709923
7110,1.2761030,6.7540083,0.2418131,-16.9465656,5.8320613,-12.4580154,-1.8770446,10.9486284,3.4380560,-8.1526718,22.3435116,-55.9389305
7120,0.8164186,6.7994981,0.2968795,-22.8702297,15.3053436,-10.8015270,-1.6448082,11.3747940,3.6631098,0.0305344,32.8549614,-56.1068687
7130,0.4860204,6.8593526,0.1843526,-25.9618320,20.0992374,-8.0916033,-1.2258250,11.6501255,3.9360476,11.5419846,45.1908379,-56.4732819
7140,0.2753318,7.0844064,-0.1268920,-28.5801525,21.9847336,-4.7557254,-0.6967092,11.9446115,4.0030847,27.7099228,57.8396950,-61.2671738
7150,0.1604107,7.5249376,-0.5243275,-30.0839691,21.1068707,-1.9770992,0.0359128,12.2965574,3.3638363,46.3893127,72.8854980,-72.1679382
7160,0.0047884,8.0037756,-0.9026094,-30.7175579,16.5496178,0.1297710,0.1556223,13.0531206,2.5857246,64.5343475,87.6641235,-84.0381699
7170,-0.2082945,8.4993725,-1.2330076,-30.8625946,10.7328243,2.9083970,-0.3351865,13.4601336,1.4484847,82.1526718,107.0839691,-93.5038147
7180,-0.3375807,9.0117292,-1.5179161,-31.3129768,5.3816795,5.1908398,-0.5027798,13.1464939,-0.0670373,99.6870193,138.3206177,-100.1603088
7190,-0.4692611,9.5791521,-1.6926919,-31.7786255,1.4274809,6.7786260,-0.0335187,12.6221666,-1.2784972,120.8091583,192.6870270,-106.8091583
7200,-0.7086801,10.3189564,-1.8914096,-33.3816795,0.4580153,7.6793895,-0.2274480,12.2893744,-1.0558375,153.8091583,250.1297760,-105.6488571
7210,-0.9935886,10.9151096,-2.0087249,-36.6412201,3.4427481,7.9541984,-0.3710994,12.2606440,-1.0175306,198.2442780,250.1297760,-90.8015289
7220,-1.1492109,11.4609852,-1.7214222,-39.1832047,7.7633586,7.3129773,0.0502780,11.6836443,-1.7669119,239.6259613,250.1297760,-80.5114517
7230,-1.4508789,11.8129311,-1.4053892,-39.6183205,10.8396950,6.9465647,1.1611819,11.3652172,-3.4811516,250.1297760,250.1297760,-82.3893127
7240,-1.5538290,11.9877062,-0.8810617,-37.5267181,10.1679392,7.8473282,2.1475880,11.2598734,-5.3462253,250.1297760,250.1297760,-90.5954208
7250,-1.4149660,12.0284081,-0.3447633,-32.2213745,6.5190840,10.0076332,2.7221935,11.2957859,-6.9168134,250.1297760,250.1297760,-105.3282471
7260,-1.1683644,11.9757357,0.2681492,-23.9160309,-0.9389313,12.9465647,2.9185169,11.2933912,-8.3293848,246.4732819,250.1297760,-123.4503784
7270,-0.6799498,11.8009596,1.1180865,-12.1755724,-11.9389315,16.3129768,2.4851687,11.0443964,-9.1122847,213.5190887,250.1297760,-141.9694672
7280,0.0574605,11.5543585,1.8243724,3.0152671,-26.1526718,19.6183205,1.7884595,10.5655584,-8.7387915,174.0152740,250.1297760,-158.5190887
7290,0.8571198,11.2287483,1.9632354,18.2977104,-38.5725174,20.8167934,0.0167593,10.0579901,-7.6638002,137.5267181,184.9847260,-167.9770966
7300,1.4077834,10.9869356,1.6519908,30.0000000,-44.3664131,19.3511448,-1.9656296,10.1058741,-6.1315193,110.6641235,120.3129807,-163.2137451
7310,1.7309990,10.5057030,0.8930327,34.9160309,-41.5648842,17.0000000,-2.7461352,9.0500364,-5.1379304,93.7786255,65.5419846,-150.6564941
7320,1.8339491,9.9550400,0.2753318,33.6564903,-33.2442741,14.9618320,-2.7078283,7.2376347,-4.5752959,85.0610657,24.3893127,-139.0610657
7330,1.6950861,9.3205795,-0.3040621,28.6564884,-23.8625946,14.8244276,-2.1930776,5.8394279,-4.6064205,82.9465637,-1.0839695,-132.3664093
7340,1.5059452,8.6861191,-0.3543400,23.7633591,-17.9236641,17.2061062,-2.0206959,4.5681133,-4.5896611,88.5190811,1.9847329,-127.3511429
7350,1.4221486,8.1881275,-0.2442073,22.4809170,-17.1832066,21.8473282,-2.6360025,2.8179610,-4.3741841,102.2213745,20.6946564,-120.3816757
7360,1.4604555,7.7978749,-0.1771700,25.0687027,-20.6946564,27.3893127,-3.7085996,0.7326220,-4.0126615,125.0687027,52.1374054,-108.6641235
7370,1.7094513,7.5632443,-0.4261657,29.0152664,-27.5267181,31.6793900,-5.0373745,-2.1667414,-5.5952206,156.6870270,93.3358765,-90.9847336
7380,1.9033806,7.4722652,-0.7589580,31.1068707,-33.6106873,34.1755714,-3.9599893,-4.8003497,-10.0005293,178.2748108,159.5725250,-77.3816757
7390,2.2457497,7.6398587,-1.2784972,30.0610695,-35.6259537,33.4045792,-2.3391230,-6.7659793,-15.1001530,164.0610657,246.0229034,-82.2519073
7400,2.2744799,7.8122401,-1.9057748,23.9770985,-32.0305328,29.9847336,-2.2625091,-8.7555504,-18.5669384,115.3511429,250.1297760,-110.0381699
7410,2.0733681,7.9965930,-2.6072724,12.6106873,-22.2595425,24.3511448,-5.2576399,-11.0156660,-17.7720680,50.2519073,250.1297760,-154.6564941
7420,1.5705882,8.3126259,-2.9759774,-2.8549619,-8.2137403,18.6564884,-11.2957859,-12.7921543,-12.2750092,-0.6335878,250.1297760,-196.8244324
7430,1.0821736,8.5903521,-2.9592183,-19.2824421,5.6641221,13.3587790,-15.4257622,-13.5702658,-6.9814563,-25.0000000,250.1297760,-227.7480927
7440,0.5554519,9.1481981,-2.7006457,-34.0305328,17.8473282,9.3816795,-17.1591549,-12.8544035,-3.3829896,-33.5114517,163.7404633,-250.1374054
7450,0.1340746,9.5192976,-2.2864509,-45.3206100,25.2900772,6.6717558,-18.1575336,-10.1058741,-3.5577655,-45.2671738,59.2290077,-250.1374054
7460,-0.2154770,9.9813757,-1.5921360,-52.1755714,25.3206100,3.8473282,-19.6131992,-5.9399838,-6.1027889,-92.3969498,-37.1068687,-250.1374054
7470,-0.1819584,10.2519188,-0.6440369,-53.3129768,19.0458012,1.5343511,-19.6131992,-1.3431402,-7.1658092,-178.5038147,-120.1068726,-250.1374054
7480,-0.2489957,10.6349897,0.1867468,-49.6030540,7.2824426,-0.3664122,-19.6131992,1.8961980,-3.7852135,-250.1374054,-214.5725250,-249.7480927
7490,-0.0861908,10.9486284,0.9169745,-42.8702278,-4.2213740,-1.4732825,-19.6131992,3.8235207,3.7133877,-250.1374054,-250.1374054,-143.5572510
7500,0.1292862,11.2670555,1.3766589,-35.5419846,-10.9312973,-1.5725191,-19.6131992,4.4148855,13.3691540,-250.1374054,-250.1374054,-24.4274807
7510,0.4764437,11.5136566,1.7070571,-29.3587780,-12.1679392,-2.4961832,-19.6131992,2.3032103,14.1137466,-191.6335907,-250.1374054,84.1297684
7520,1.0725969,11.6692791,2.0206959,-25.0687027,-8.3358774,-4.4274807,-19.6131992,-1.7286048,10.9318695,-71.7251892,-244.8091583,165.8244324
7530,1.3527170,11.8608141,2.2816625,-21.1450386,-1.7633588,-6.9694657,-17.2333755,-5.0301919,3.8737986,25.1450386,-202.7633514,211.6183167
7540,1.5586174,11.9685535,2.4755919,-16.8015270,6.8549619,-10.2213745,-11.6477318,-6.6390872,-2.7389526,81.7480927,-133.5190887,222.6335907
7550,1.6304430,12.0212250,2.5498118,-11.2977095,16.7022896,-13.9007635,-8.6502066,-6.2368636,-7.4794478,94.0687027,-67.1450348,213.4580078
7560,1.5131277,12.0379848,2.4755919,-4.2900763,23.1068707,-17.2137413,-8.3054428,-4.9440012,-10.0220766,77.0992355,-44.5648842,197.3435059
7570,1.2952565,12.0284081,2.3822186,4.0152674,26.0305347,-19.3969460,-8.6095057,-3.5314295,-10.9893293,40.1984749,-59.8244286,185.8702240
7580,1.0007712,11.9996777,2.2888451,13.8473282,24.4351139,-20.1374054,-8.4395180,-2.5881188,-10.6469603,-6.7786260,-94.8473282,178.0686951
7590,0.7900825,11.9757357,1.8985922,23.3129768,19.6412220,-19.6717548,-7.4028339,-1.4532729,-9.7539282,-51.8015251,-137.4045868,168.9923706
7600,0.5602403,11.7842007,1.1707586,31.3435116,15.4351149,-18.0916023,-5.9088597,-0.2274480,-8.7675219,-89.4122162,-182.7480927,155.6717529
7610,0.4141948,11.8560257,0.7086801,36.2671738,14.2595415,-15.8396950,-4.5561423,1.1324517,-7.5081782,-115.5725174,-220.7633514,137.2900696
7620,0.3567342,11.8584204,0.4979914,40.2900772,12.7633591,-13.7938929,-3.0837159,2.3367288,-5.9088597,-126.2519073,-241.6412201,115.2137375
7630,0.3519458,11.7027979,0.5291159,45.0000000,10.0229006,-11.6335878,-2.3343346,3.2489152,-4.3526363,-119.5725174,-240.8244324,88.8473282
7640,0.3710994,11.5926657,0.5075682,51.6412201,5.8931298,-9.4961834,-3.1435707,4.4005203,-2.8730273,-97.6717529,-219.4885559,62.2824440
7650,0.5195391,11.4514084,0.4788379,58.4732819,0.6564885,-7.1450381,-4.9080882,5.9136481,-1.9033806,-68.0992355,-192.3740387,46.2977104
7660,0.6967092,11.2191715,0.3303981,64.5496216,-3.3358779,-5.2213740,-6.7755561,7.5369086,-1.5753766,-36.9771004,-168.6641235,40.7251892
7670,0.9911944,11.0396080,-0.0933734,68.5877838,-5.2671757,-4.4732823,-8.2862902,8.6956959,-2.3726418,-12.0152674,-149.4045868,43.2290077
7680,1.2234308,10.9103212,-0.4309541,71.1984711,-6.5190840,-4.7404580,-9.0189114,9.3397331,-3.5266411,0.5954198,-137.5190887,49.9007645
7690,1.3766589,10.5942879,-0.5746055,71.9770966,-7.7175574,-6.6183205,-9.3349447,10.1992474,-4.6231799,-0.9312977,-135.5419922,57.4198456
7700,1.4508789,10.2279778,-0.9145803,70.9923630,-6.9694657,-9.7938929,-8.8776541,10.7068148,-5.2839761,-11.9160309,-142.3511505,64.3587799
7710,1.4029950,9.6725254,-1.3551112,68.0229034,-4.0000000,-13.5877867,-8.2407999,10.8552551,-5.3558016,-23.3282452,-148.3816833,68.9770966
7720,1.2617378,9.0715837,-1.6065011,62.8931313,0.6183206,-16.1068707,-7.5129666,10.7068148,-4.6590929,-30.7862587,-148.5648804,70.9542007
7730,1.0031654,8.4371233,-1.9440818,56.0305328,5.7480917,-16.7786255,-7.3118544,10.9486284,-3.8330972,-34.9160309,-148.6488495,70.5190811
7740,0.6464311,7.7954807,-2.1068866,48.7328262,9.6183205,-15.1908398,-6.7707677,10.9103212,-3.1196289,-35.3664131,-151.2595367,67.6030502
7750,0.4357425,7.2328463,-2.0973101,42.5190849,10.2748089,-12.1297712,-6.7587967,10.9486284,-2.7269819,-33.1450386,-149.9313049,62.8549614
7760,0.2322364,6.7516141,-2.0566087,37.6946564,6.7251906,-8.0305347,-6.4044566,11.1401634,-2.3103929,-27.1450386,-142.5267181,60.0610695
7770,-0.0359128,6.2560172,-1.8914096,34.5725174,-1.3969465,-2.1374047,-6.2679882,11.1808643,-1.9177457,-19.0839691,-127.0229034,57.6335869
7780,-0.2489957,5.9495606,-1.7309990,32.8015251,-11.4809160,4.7480917,-6.5481081,11.0659437,-1.4341195,-10.7099237,-107.6106873,57.1145020
7790,-0.1077385,5.7245069,-1.5873476,31.3358784,-21.1068707,11.6870232,-6.7683735,10.7906122,-0.9744351,-1.1145039,-87.3358765,60.1832047
7800,0.2011119,5.5449429,-1.4341195,29.6030540,-28.6870232,17.9618320,-6.6438756,10.3165627,-0.2035061,13.1908398,-62.8625946,66.7938919
7810,0.8499373,5.4156566,-1.0965388,28.2824421,-34.8091621,21.7557259,-6.3374195,9.7108326,0.4525018,30.6717548,-34.0992355,72.7404556
7820,1.5107336,5.5138183,-0.8188128,27.8320618,-38.6641235,20.6488552,-6.1578555,9.0859489,0.5410868,46.5038185,-12.7633591,76.6793900
7830,1.9632354,5.5928264,-0.8355721,26.9160309,-39.6717567,16.0076332,-5.6981707,8.6286592,0.1292862,58.1679382,-1.0534351,80.8702316
7840,2.1811066,5.4587522,-1.0678085,21.4732819,-35.3129768,10.4732828,-4.6926112,8.1163025,-0.4692611,63.7709923,5.6793895,82.1603088
7850,2.0254843,5.4707227,-1.2330076,12.4732828,-24.0610695,5.7175574,-3.7540891,7.6925306,-1.3646880,62.1221390,10.4656487,78.2137375
7860,1.7477583,5.5928264,-1.5801650,1.8625954,-9.0839691,3.5572519,-3.2321558,7.3238254,-2.0566087,54.3282433,9.6412210,71.6412201
7870,1.5059452,5.5617023,-1.9105632,-9.9694653,6.2977099,3.5572519,-2.9113343,6.8856888,-1.9560528,43.1374054,2.5954199,65.2366409
7880,1.3072275,5.7795734,-2.1882892,-21.5496178,19.4351139,4.7480917,-2.6886747,6.5935979,-1.7693061,33.4427490,-5.9083967,61.2824440
7890,1.0797794,6.2057390,-2.1332228,-30.7938938,27.4656487,6.6030536,-2.2026544,6.2679882,-1.5753766,26.9923668,-10.6183205,59.4198456
7900,1.0414724,6.7157016,-2.1523764,-37.3587799,30.4045811,8.5114508,-1.8866212,5.8083038,-1.3168042,21.9923668,-12.1832066,57.8702278
7910,0.9480990,7.4579000,-2.3127871,-42.2290077,28.9007626,10.4274807,-1.7980363,5.4372044,-1.0390782,16.1450386,-17.2824421,55.3053436
7920,1.1156923,8.1617918,-2.6096666,-47.4580154,24.2824421,11.1450386,-1.7357874,5.0182209,-1.1037214,8.9312973,-27.5038166,51.6412201
7930,1.4197544,8.9686337,-2.6048782,-53.5954208,16.8549614,8.8931293,-1.6759326,4.9200592,-1.0773853,1.3053435,-37.6946564,49.0992355
7940,1.5658000,9.6916790,-2.4061604,-59.6030540,10.4198475,4.7557254,-1.6519908,4.7883787,-0.6871324,-4.5572519,-42.8931313,48.0687027
7950,1.2042773,10.3955708,-2.2433555,-65.4351120,7.3282442,0.5343512,-1.5849534,4.8721757,-0.4309541,-8.4427481,-45.2671738,49.5801544
7960,0.8762733,11.0204544,-1.9871773,-70.4503784,9.2748089,-2.9083970,-1.1061156,5.0780759,-0.0861908,-9.7938929,-47.7251892,51.4885483
7970,0.5267217,11.5543585,-1.7166338,-75.0381699,15.4885492,-5.0458016,-0.4165890,5.1906028,-0.2418131,-10.7633591,-46.9236641,51.4198456
7980,0.0071826,12.1098099,-1.1444225,-76.9770966,24.2290077,-5.9007635,-0.1125269,5.1235652,-0.3280039,-11.7328243,-43.8778610,49.3511467
7990,-0.3782819,12.5910425,-0.8643024,-75.4503784,29.9083977,-4.9923663,0.1340746,5.3174949,-0.2849085,-10.9694653,-38.6870232,46.1297722
8000,-0.7398046,13.0459385,-0.3854645,-70.1221390,30.1297703,-2.3206108,-0.1388630,5.6646523,-0.2489957,-10.2595415,-35.1603050,41.3511467
8010,-0.8954269,13.2614155,-0.0694315,-60.7786255,25.0229015,0.9770992,-0.7876883,6.0764527,-0.7110743,-12.6412210,-36.7480927,36.0305328
8020,-0.7709290,13.5846310,0.5267217,-47.9465637,17.2366409,4.4732823,-1.4724265,6.8138633,-1.5514348,-20.9236641,-43.4961815,33.3435097
8030,-0.5243275,13.7953196,0.9864060,-32.0000000,7.8320613,7.0381680,-1.7453641,7.6925306,-1.8794388,-34.4732819,-53.8244286,34.1221390
8040,-0.1508339,13.8623571,1.0749911,-15.0916033,-1.8702290,7.8167939,-1.5705882,8.4012108,-1.6424140,-47.4885483,-64.0000000,35.4732819
8050,0.3591284,13.8025026,0.8954269,-0.5648855,-6.9618320,6.7328243,-1.1851238,8.8872309,-1.1061156,-55.5725174,-70.9007645,34.6106873
8060,0.9959828,13.4888630,0.6823440,10.3816795,-7.9312978,2.9160306,-0.9145803,9.2343884,-0.7948709,-58.9771004,-75.0305328,30.2442741
8070,1.4173602,12.9262285,0.6224893,19.0610695,-7.7099237,-2.7938931,-0.8954269,9.7156210,-0.4118006,-58.8015251,-77.2671738,22.9541988
8080,1.4652439,12.3444405,0.4453192,25.2977104,-5.3740458,-9.1908398,-1.1611819,10.2207947,-0.3351865,-54.1450386,-75.8396912,13.5725193
8090,1.1779412,11.5543585,0.1388630,28.4274807,-0.5343512,-14.1984730,-1.7166338,10.7355452,-0.3543400,-47.7480927,-70.2290039,5.5954199
8100,0.8978211,10.8768024,-0.1747758,29.5343513,5.5496182,-17.9923668,-2.4851687,11.1186161,-0.7374104,-42.2213745,-60.8854980,1.2900764
8110,0.5722113,10.2207947,-0.1292862,29.9923668,8.8702288,-20.3664131,-2.7844424,11.6405487,-1.0390782,-38.6106873,-47.3206100,0.2061069
8120,0.2585725,9.6749191,-0.1388630,31.0229015,9.4351149,-21.1374054,-2.8371146,11.8464499,-0.4572902,-30.9847336,-24.0534344,3.5954199
8130,0.0287303,8.9925756,-0.0598547,33.1755714,5.9465647,-20.5114498,-2.6814921,11.7746239,0.6344602,-14.6412210,10.3740454,9.7404585
8140,-0.0598547,8.4993725,0.1029501,36.4503822,-0.6870229,-18.4351139,-2.5953014,11.6836443,1.7429699,8.8091602,47.0000000,15.1068707
8150,-0.0359128,7.8194227,0.0359128,39.6259537,-9.7251911,-16.2442741,-2.5833304,11.5304165,2.2002602,33.2748108,72.2824402,18.7786255
8160,0.1364688,7.2208753,-0.1173153,41.6030540,-18.4503822,-15.7328243,-2.4157372,11.3843708,2.0135133,52.3587799,79.8778610,17.9618320
8170,0.1819584,6.7851329,-0.1244979,41.2366409,-24.8931293,-16.8091602,-2.2002602,11.2383251,0.9073978,62.0076332,73.4656525,12.6717558
8180,0.1029501,6.4834652,-0.0742199,39.7862587,-28.0916023,-18.9770985,-1.9273225,11.0420017,-0.2250538,62.5954208,60.2213745,5.9007635
8190,0.1268920,6.2799587,-0.3806761,35.9694672,-26.6793900,-21.3206100,-1.4963684,10.8863792,-1.2449785,56.9312973,45.5954208,-3.7022901
8200,0.1125269,5.9232249,-0.8092360,27.1526718,-18.9312973,-21.9083977,-1.0989330,10.6972389,-1.8195840,48.6259537,32.8320618,-15.7022905
8210,0.0574605,5.6383162,-1.0462608,15.3816795,-4.4351144,-20.1832066,-0.8643024,10.5320396,-1.9057748,42.9236641,29.6564884,-28.1984730
8220,0.4118006,5.2887645,-0.8259954,3.7938931,10.8931293,-16.8473282,-0.4860204,9.9789820,-1.2449785,49.0763359,54.2442741,-36.8854980
8230,0.6943150,5.1259594,-0.6177009,-4.1603055,22.4198475,-12.6030531,-0.0454896,9.5935173,-0.3375807,70.7022934,111.4961853,-39.6564903
8240,1.0438666,5.1139889,-0.9193687,-9.1450386,27.9923668,-7.2824426,0.2777260,9.4163475,0.7805058,106.8167953,201.8931274,-36.3664131
8250,1.6615674,5.3725610,-1.2904681,-12.3358774,30.2442741,-3.8091602,0.3112446,9.2655134,2.9065459,160.3435059,250.1297760,-27.1526718
8260,1.9823889,5.9399838,-1.8985922,-14.5343513,31.1603050,-1.2213740,0.1532281,9.3780403,4.2592630,223.1145020,250.1297760,-18.8244267
8270,1.7740943,6.7420373,-2.9592183,-18.5419846,31.9618320,2.4732823,0.3567342,9.1338329,3.0358322,250.1297760,250.1297760,-16.9618320
8280,1.7190280,7.8553357,-3.7181761,-25.0229015,33.5648842,6.3435116,1.4460905,8.7340031,0.2298422,250.1297760,250.1297760,-24.2748089
8290,1.5466464,9.3540983,-4.3119354,-32.1832047,35.2748108,7.9007635,2.2026544,8.7699156,-2.9041519,250.1297760,250.1297760,-41.8320618
8300,1.2593436,10.7690639,-4.7596488,-39.6564903,35.4732819,7.2519083,2.5450234,8.4897957,-5.8226686,250.1297760,250.1297760,-69.6564865
8310,0.8547257,12.0092545,-5.1379304,-47.3740463,32.2366409,4.6641221,2.4708035,8.2599535,-8.0396881,243.5572510,189.1221313,-102.0000000
8320,0.4070122,13.0004492,-5.0373745,-55.6106873,28.8854961,1.9618320,1.8818330,8.1163025,-10.0292597,193.7633514,98.4656525,-130.0839691
8330,0.0000000,13.7067347,-4.6279683,-61.8625946,27.0610695,0.2824427,1.2330076,8.3006544,-11.2024126,138.4045868,11.5496187,-146.3358765
8340,-0.2226596,14.0706511,-3.5314295,-63.9694672,23.6030540,0.0229008,0.7948709,8.6214762,-11.5711174,86.8549652,-59.4274826,-149.5801544
8350,-0.5626345,13.9437590,-2.1068866,-60.0228996,19.0076332,1.7938931,1.3287752,8.4754305,-11.0300312,44.0916023,-107.2213745,-146.2671814
8360,-0.7086801,13.8503857,-1.0606259,-49.8549614,14.1068707,6.4656487,2.3678534,8.0205345,-10.2255831,18.9083977,-125.4351120,-142.6412201
8370,-0.5291159,13.8240499,-0.2825144,-36.3511467,7.7633586,12.0992365,3.6439564,7.1969333,-9.4163475,11.7557249,-108.2748108,-141.6412201
8380,-0.2298422,13.7043400,0.2777260,-22.4656487,-0.8549618,16.7404575,4.8602047,6.6103573,-8.5544386,22.4351139,-52.5572510,-141.6717529
8390,0.3112446,13.7402534,0.7421987,-8.5572519,-11.6870232,19.2595425,5.5162125,6.3182659,-7.3812861,46.6412201,22.3358784,-146.8854980
8400,0.9600700,13.7378588,1.2856797,5.1450381,-23.2900772,18.3893127,5.2384863,6.3398137,-6.4906478,76.9694672,86.3664093,-155.3969421
8410,1.5514348,13.6133614,1.6759326,17.4580154,-32.1908379,14.3587790,4.3167233,6.5720501,-6.7444315,101.4274826,121.1374054,-164.7633514
8420,2.0757623,13.4553452,1.9368993,27.2671757,-34.1984749,7.2748094,3.2177906,6.5600791,-7.9391322,110.8702316,125.5267181,-170.8854980
8430,2.3846128,13.1752243,2.0063307,34.5496178,-26.9160309,-2.6717558,2.8897867,7.1586266,-9.0189114,102.7022934,99.8702316,-176.8931274
8440,2.2553265,12.7945480,1.7621235,38.8778610,-12.0076332,-13.0381680,2.1068866,6.7803445,-9.2224178,82.1145020,61.5267181,-181.3664093
8450,1.6831152,12.2175484,1.5993185,43.0076332,5.4503818,-21.3893127,0.7685348,6.3996682,-8.8082228,58.7022896,15.0076332,-179.0915985
8460,0.9552816,11.8679972,1.2808913,48.6488533,18.3129768,-25.7786255,0.2322364,6.3206601,-8.3629036,38.6412201,-27.5877857,-167.7633514
8470,0.3423691,11.4849272,0.5530578,54.1374054,24.6183205,-28.8549614,0.0095768,5.2600341,-8.0181408,19.5496178,-55.1755714,-155.8702240
8480,-0.2705434,10.9462337,-0.0311245,58.4122124,25.2748089,-29.7938938,-0.5985473,3.7708483,-7.9104018,1.5343511,-67.2824402,-145.4045868
8490,-0.9145803,10.4266949,-0.6081241,62.7557259,20.8473282,-27.7862587,-1.2808913,2.4157372,-7.2950954,-10.2366409,-61.5038185,-132.5954132
8500,-1.3910241,10.0029240,-1.0606259,66.0839691,11.6183205,-24.7404575,-1.4748207,0.7829000,-6.6989422,-10.9007635,-30.1297703,-120.2137375
8510,-1.6831152,9.5192976,-1.5442522,67.3435135,3.1603053,-20.4809170,-1.4413021,-1.7501525,-6.9934273,-7.8549619,23.2748089,-114.4809189
8520,-1.7453641,9.0691900,-2.0853391,64.5572510,-2.2213740,-15.9160309,-2.4612267,-4.8865409,-8.3293848,-13.3740454,75.4732819,-119.0916061
8530,-1.7788827,8.6909075,-2.3103929,58.1145020,-5.1450381,-11.3053436,-4.0437860,-7.9630742,-8.3652983,-26.3969460,112.3969498,-136.5267181
8540,-1.7333932,8.2192526,-2.3510940,49.6412201,-5.1068702,-7.4045801,-6.4595232,-10.3524752,-6.6055689,-38.2671738,131.2442780,-161.5190887
8550,-1.7932479,7.8385763,-2.2912393,40.5038185,-2.9083970,-2.4427481,-9.3253679,-11.7530756,-4.5968437,-40.9160309,138.3511505,-185.3129730
8560,-1.5969244,7.4507174,-1.9967541,31.2519093,-0.6106870,3.3893130,-11.9206696,-12.5910425,-3.5984666,-37.9389305,126.7251892,-205.4809113
8570,-0.8619082,7.0269461,-1.0893562,27.1068707,0.9389313,7.2061067,-14.4465389,-12.6341381,-3.9671719,-44.2442741,90.2748108,-224.2977142
8580,-0.1915352,6.8809004,-0.3088504,29.3969460,-0.8702290,7.1755724,-17.1783085,-11.4274664,-4.4100971,-75.5419846,40.4809151,-250.1374054
8590,0.2082945,6.6199336,-0.2130829,34.1068687,-5.3511453,5.1984735,-19.6131992,-8.8058290,-2.9711890,-125.5267181,-14.4351149,-250.1374054
8600,0.3974355,6.4427638,-0.3950413,37.3435097,-8.2900763,3.1603053,-19.6131992,-4.8003497,1.1611819,-166.2290039,-55.1374054,-250.1374054
8610,0.6967092,6.2488346,-0.7805058,37.6717567,-8.8778629,2.0916030,-19.6131992,-0.6009415,7.5847921,-169.0992432,-79.9542007,-243.8473358
8620,0.8930327,6.3541789,-1.1276633,34.9160309,-6.8015265,2.9083970,-19.6131992,2.7772598,11.9063044,-128.9084015,-97.1374054,-163.8931274
8630,1.0821736,6.4260044,-1.5825592,29.9923668,-1.7709924,5.6335878,-19.6131992,3.8498566,12.1074162,-63.9694672,-113.5725174,-36.3282433
8640,1.0965388,6.7180958,-1.8578910,25.2519093,3.8244274,10.0687027,-19.6131992,2.9328821,8.9806042,2.8244274,-120.5038147,113.7786255
8650,1.2401901,6.9000540,-1.8650736,22.6030540,8.4274807,16.3053436,-19.6131992,-1.8578910,3.3853838,55.7328262,-111.2366409,245.9923706
8660,1.4724265,7.3884687,-2.0111191,22.8778629,10.9847326,22.1297703,-19.6131992,-7.4171991,-3.9552009,78.4885483,-74.3282471,250.1297760
8670,1.4867916,8.1426382,-2.5905130,24.2366409,10.4122133,25.9312973,-13.8288383,-10.6469603,-9.3517036,69.4045792,-44.2977104,250.1297760
8680,1.7070571,8.8417416,-3.6391680,22.5648861,8.0381680,25.7709923,-8.5616217,-11.0372133,-11.8560257,37.9847336,-37.3740463,250.1297760
8690,1.7549409,9.4307127,-4.4723458,14.1297712,5.9312978,22.6106873,-6.5050125,-8.7938576,-11.5687237,-2.0381680,-53.3435097,237.1068726
8700,1.7190280,9.7970228,-4.9248476,0.7175573,3.6106870,18.2061062,-6.8713236,-5.9902620,-9.4115591,-34.2290077,-79.1984711,202.5038147
8710,1.5681942,9.8281479,-4.6734576,-12.6946564,0.1908397,14.4885492,-7.5728211,-3.9887197,-7.3621325,-53.4656487,-105.7557220,187.2137451
8720,1.4724265,9.7204094,-3.7038112,-21.4351139,-5.6717558,11.2519083,-7.4602942,-2.7269819,-6.4403696,-63.8320618,-133.4656525,181.9313049
8730,1.3024391,9.6150646,-2.6072724,-23.1908398,-12.1221371,8.7557249,-6.2991123,-1.2138541,-6.1027889,-72.7862625,-158.5725250,175.7099304
8740,1.2569494,9.5169029,-2.2672975,-21.7251911,-16.9007626,7.0381680,-5.0014620,-0.1149211,-5.7795734,-79.8320618,-172.2213745,165.2748108
8750,1.2808913,9.4738073,-1.9536586,-19.5496178,-18.8854961,5.3816795,-4.1443419,0.6775556,-4.8697815,-78.1374054,-166.9160309,151.1450348
8760,1.1061156,9.4762020,-1.8578910,-17.9083977,-18.9847336,4.0610685,-3.5912843,1.4796091,-3.9743545,-64.4885483,-145.5343475,136.5725250
