timestamp,rxacclX,rxacclY,rxacclZ,rxgyroX,rxgyroY,rxgyroZ,txacclX,txacclY,txacclZ,txgyroX,txgyroY,txgyroZ
0,-0.0407012,-0.1771700,10.0388365,-0.4274809,-0.2519084,0.2519084,-0.7014975,2.1691356,10.2806492,0.6030535,-5.9923663,1.7404580
10,0.0311245,-0.1580165,9.9765873,-0.3664122,-0.1908397,0.2977099,-1.8267666,2.4444675,9.0931320,-21.7099228,-40.3587799,10.6030531
20,-0.0430954,-0.1460456,9.9670105,-0.3969466,-0.2137405,0.3053435,-1.6663558,2.3127871,9.4450769,-29.8320618,-54.2290077,15.7022905
30,-0.0239419,-0.1628049,9.8808203,-0.1450382,-0.0763359,0.4580153,-1.1492109,2.2361729,9.9047613,-35.6030540,-61.8702278,19.8931293
40,-0.0383070,-0.1556223,9.9167328,-0.4351145,-0.2442748,0.3053435,-0.3399749,2.2649033,10.5368280,-36.6106873,-62.3053436,19.0152664
50,0.0119709,-0.1412572,9.8856087,-0.1145038,-0.0458015,0.2977099,0.0023942,1.9512644,10.8528605,-35.4274826,-60.2977104,16.8167934
60,0.0550664,-0.1556223,9.9478569,-0.0534351,-0.2595420,0.4885496,0.5123565,1.6855093,11.0707321,-30.7709923,-54.8244286,14.5496187
70,-0.1173153,-0.1364688,9.8233595,-0.3816794,-0.2671756,0.4198473,0.4213773,1.6328372,11.2838144,-26.1526718,-45.8244286,12.2671757
80,-0.0167593,-0.1795642,9.9694052,-0.3206107,-0.0076336,0.4656489,0.3136388,1.5131277,11.1138277,-22.0458012,-39.5801544,12.6870232
90,0.0047884,-0.1388630,9.9382801,-0.3511450,0.0610687,0.2290076,0.6943150,1.6376256,11.0276365,-16.7786255,-31.9007626,12.4122133
100,0.0383070,-0.1268920,9.9382801,-0.1526718,-0.1068702,0.4122137,0.6991033,1.5059452,10.9605989,-14.1832066,-26.0076332,13.0000000
110,-0.0550664,-0.1149211,9.9263096,-0.2671756,-0.2213740,0.2595420,1.1779412,1.3958124,10.7666702,-12.4274807,-22.9007626,11.6488552
120,-0.0383070,-0.1316804,9.9287033,-0.0992366,-0.0229008,0.2366412,1.3144100,1.4413021,10.7690639,-10.9694653,-21.1221371,9.7328243
130,-0.0526722,-0.1604107,9.9406748,-0.3511450,-0.0534351,0.3206107,1.4700323,1.1109039,10.8887739,-8.4351149,-16.4045811,6.7022901
140,-0.0215477,-0.0694315,9.9622221,-0.3740458,-0.0534351,0.4885496,1.3598996,1.4652439,10.9390516,-3.0076337,-13.1297712,-1.4885496
150,-0.0311245,-0.1340746,9.9598284,-0.3206107,-0.2137405,0.4351145,1.4963684,1.7214222,10.1489687,-4.8549619,-24.0916023,-7.3358779
160,-0.1771700,-0.1556223,10.1058741,-0.4809160,-0.3893130,0.3282443,0.8379663,1.6472024,10.1968527,-14.7786255,-30.5725193,-18.5190830
170,-0.0023942,-0.1316804,9.9406748,-0.4198473,-0.0458015,0.4045801,0.2992737,1.5825592,10.2040358,-16.8549614,-38.8778610,-18.7175579
180,-0.0047884,-0.1077385,9.9430685,-0.2824427,-0.2137405,0.1755725,0.2274480,1.5107336,10.4889441,-17.3206100,-40.0534363,-17.6412220
190,-0.0790083,-0.0622489,9.9694052,-0.2213740,-0.2900763,0.2977099,0.0454896,1.4724265,10.8600435,-17.1679382,-38.8244286,-15.7633591
200,-0.0047884,-0.1556223,10.0077124,-0.3282443,-0.1984733,0.3053435,0.1221037,1.4269369,10.9198980,-16.5343513,-34.6259537,-13.7175570
210,-0.0814024,-0.0861908,9.9526453,-0.2977099,-0.3893130,0.3053435,0.1244979,1.3383518,11.1856527,-13.8549614,-26.7709923,-10.6717558
220,0.0047884,-0.2154770,9.9717989,-0.3893130,-0.2671756,0.2824427,0.1101327,1.5394639,11.2646618,-10.2213745,-22.9694653,-7.1297708
230,-0.0694315,-0.1699875,9.8544836,-0.3893130,-0.4351145,0.4656489,0.3830703,1.4700323,11.2526903,-6.3053436,-16.9923668,-3.6870229
240,-0.0646431,-0.0981618,9.9406748,-0.2519084,-0.1755725,0.1832061,0.6679789,1.3120158,11.1353750,-3.3511450,-8.9236641,-1.2366412
250,-0.0359128,-0.1699875,9.8712435,-0.1832061,-0.2061069,0.4427481,1.0510491,1.2976507,10.8648319,2.0000000,-1.5343511,1.2061069
260,0.0550664,-0.1747758,9.9239149,-0.3053435,-0.1832061,0.4961832,1.2042773,1.1635761,10.8648319,4.0076337,3.6564887,0.1832061
270,0.0191535,-0.2154770,10.0053177,-0.2671756,-0.1145038,0.3129771,0.8930327,1.1635761,11.0324249,6.2366414,8.0152674,-1.3435115
280,0.0383070,-0.1699875,9.8520899,-0.4885496,0.0458015,0.5496183,0.9504932,1.2330076,11.0635490,7.9770994,8.7786255,-2.2595420
290,-0.0047884,-0.1628049,9.8927908,-0.3816794,-0.1603053,0.4274809,1.1228749,1.1061156,10.4865494,8.9083967,7.4732823,-3.0916030
300,-0.0694315,-0.1699875,9.9071560,-0.0687023,-0.1145038,0.3893130,1.3694763,1.1204807,10.0843258,5.9923663,3.9923663,-4.7175574
310,-0.0167593,-0.0718257,9.9741936,-0.2824427,-0.1145038,0.2977099,1.3718705,1.4987626,10.5344334,3.3358779,9.6106873,-7.9160304
320,0.0335187,-0.1556223,9.9717989,-0.4198473,-0.1679389,0.3511450,1.0079538,1.6448082,10.9414454,5.5496182,8.7557249,-10.8015270
330,-0.0335187,-0.1508339,9.9957409,-0.4122137,-0.1908397,0.2748092,0.4453192,1.4197544,10.6086531,13.4274807,25.9618320,-5.8396945
340,-0.0071826,-0.1101327,9.9047613,-0.1908397,-0.2671756,0.2824427,0.5123565,1.2042773,10.5655584,14.6717558,36.0381660,-6.1450381
350,-0.0071826,-0.1340746,9.8999729,-0.3282443,-0.2519084,0.2519084,0.2825144,1.4676381,10.7810354,14.9847326,34.0076332,-6.4198475
360,-0.0023942,-0.1508339,9.9047613,-0.2977099,-0.1374046,0.3206107,0.2178712,1.9177457,10.8097658,13.2061071,28.0839691,-7.9618320
370,-0.0670373,-0.1340746,9.9717989,-0.2442748,-0.1755725,0.4656489,0.3519458,1.7573351,10.0555954,10.0763359,13.6259546,-11.5419846
380,0.0191535,-0.1436514,9.8975792,-0.1832061,-0.0534351,0.3587786,0.2059003,1.6400198,9.8712435,6.6793895,12.5038166,-11.4580154
390,-0.0023942,-0.1197095,9.9071560,-0.3969466,-0.2671756,0.4580153,0.0957676,1.7645177,9.8042059,2.8854961,5.9083967,-10.2442751
400,-0.0502780,-0.0885850,9.9047613,-0.5419847,-0.1068702,0.4656489,0.1412572,1.8339491,10.0891142,-1.0992366,-2.3358779,-9.8167934
410,0.0287303,-0.1388630,10.0172882,-0.3587786,-0.2442748,0.3816794,0.4860204,1.9321109,10.1513634,-4.3893127,-7.3053436,-10.2290077
420,-0.0263361,-0.1747758,9.8999729,-0.4732825,-0.2137405,0.4122137,0.2106887,1.7357874,10.2638903,-7.5648856,-8.5267172,-10.9618320
430,0.0263361,-0.1891410,10.0101061,-0.3511450,-0.0381679,0.3969466,-0.2537841,1.5227045,10.6373835,-9.3358774,-14.4503813,-10.3511448
440,0.0191535,-0.1340746,9.9478569,-0.2595420,0.0076336,0.5419847,-0.4189832,1.1324517,10.9007444,-6.6412215,-15.6335878,-6.8931298
450,-0.0119709,-0.1556223,9.9574337,-0.3969466,-0.2519084,0.3511450,-0.2873027,1.5777708,11.1114330,-6.2977099,-3.5419848,-3.5877862
460,-0.0023942,-0.0933734,9.9239149,-0.4351145,0.0076336,0.1679389,-0.0742199,1.6926919,11.1880474,-4.5725193,-0.9389313,-1.0152671
470,-0.0095768,-0.1221037,9.9358864,-0.5419847,-0.2290076,0.3587786,0.2777260,1.6448082,11.1664991,0.4732825,3.3435113,-0.7328244
480,0.0359128,-0.1340746,9.9957409,-0.2290076,-0.2748092,0.4885496,0.3878587,1.2952565,10.7977943,7.7709923,25.8931293,-1.5801526
490,-0.1077385,-0.1244979,9.9478569,-0.2900763,-0.2442748,0.3129771,0.2801202,1.3168042,10.8911676,10.6488552,30.9694653,-1.4580153
500,0.0311245,-0.1412572,9.8544836,-0.2900763,-0.1603053,0.4732825,-0.0646431,1.3431402,10.6996326,12.1145039,38.0000000,-1.0076336
510,-0.0263361,-0.0981618,9.9741936,-0.2900763,-0.0458015,0.3129771,-0.2968795,1.5586174,10.7451220,12.2748089,44.6183205,-0.0534351
520,-0.0478838,-0.1292862,9.8664551,-0.2061069,0.0839695,0.3129771,-2.3750360,1.1444225,12.1553001,-25.6106873,-28.6870232,5.8396945
530,0.0239419,-0.1364688,9.9215212,-0.3587786,-0.2137405,0.3435115,-1.9249283,1.0869620,12.3252869,-24.6183205,-72.0916061,2.4961832
540,0.0191535,-0.1532281,9.9119444,-0.1068702,-0.2900763,0.4732825,-1.6256547,1.1611819,12.4497852,-20.7175579,-104.7251892,-0.5343512
550,-0.0359128,-0.1819584,9.8927908,-0.4122137,-0.2671756,0.4503817,-0.7589580,0.9480990,12.2007895,-15.0381680,-120.1832047,-0.1832061
560,0.0000000,-0.1268920,9.9191265,-0.3053435,-0.0839695,0.0839695,0.0239419,0.5769997,11.3508520,-5.7404580,-117.9618301,0.8549618
570,0.0023942,-0.1628049,9.9430685,-0.2061069,-0.1755725,0.2519084,1.8770446,1.0247130,9.5815458,6.6870227,-63.8778610,2.6946564
580,-0.0239419,-0.1340746,9.8449068,-0.1603053,0.0458015,0.4351145,1.9919657,1.2904681,8.6238708,2.5877862,6.8091602,-8.9007635
590,0.0095768,-0.1484398,9.8927908,-0.4198473,-0.0076336,0.4351145,0.7062859,1.3742647,9.6030941,-11.8396950,16.8625946,-16.3206100
600,-0.0646431,-0.0694315,9.8927908,-0.2977099,-0.2519084,0.2748092,0.3184272,1.6041069,10.0771437,-17.8015270,12.7557249,-18.4045811
610,0.0071826,-0.1101327,9.9478569,-0.1297710,-0.1679389,0.3740458,-0.2082945,1.5993185,10.3859940,-20.8320618,8.6183205,-19.5648861
620,0.0526722,-0.1149211,9.9406748,-0.3893130,-0.2137405,0.5419847,-0.4668669,1.7740943,10.3859940,-22.3893127,5.2900763,-19.6946564
630,-0.0430954,-0.1364688,9.8784256,-0.3282443,-0.0381679,0.4503817,-1.3934183,1.5777708,10.0555954,-24.5725193,2.2213740,-17.4885502
640,-0.0047884,-0.1197095,9.9646168,-0.3893130,-0.0687023,0.3358779,-0.8858501,2.2936335,9.8999729,-28.5496178,-0.2824427,-13.6412210
650,-0.0766141,-0.1029501,9.9406748,-0.2977099,-0.1450382,0.5343512,-0.5985473,2.1284344,9.6390066,-33.0839691,2.2290077,-13.1984730
660,-0.0478838,-0.1077385,9.9047613,-0.1068702,-0.0916031,0.2748092,-0.1628049,1.8315549,9.6126709,-35.5877876,4.4503818,-14.5496187
670,-0.0478838,-0.1221037,9.9406748,-0.3129771,-0.1908397,0.4351145,-0.4309541,1.0989330,10.1561518,-36.7938919,-2.3282442,-18.1984730
680,-0.0454896,-0.1460456,9.9023676,-0.3129771,-0.0458015,0.1908397,-0.6703730,0.4908088,10.6517487,-40.4122124,-21.8320618,-17.9847336
690,0.0000000,-0.1436514,9.9430685,-0.3893130,-0.2061069,0.4198473,-0.2801202,0.4836263,11.2574787,-44.8244286,-39.8854980,-16.3969460
700,-0.0287303,-0.1412572,9.9263096,-0.1526718,0.0152672,0.2061069,0.4237715,0.5315101,11.6405487,-44.4122124,-54.3129768,-19.1221371
710,-0.0311245,-0.1651991,9.9813757,-0.5114504,-0.1145038,0.2442748,1.0127422,0.3399749,11.7626524,-38.9236641,-50.7022896,-26.2442741
720,-0.0359128,-0.1388630,9.9358864,-0.2061069,0.0076336,0.2671756,1.0606259,0.1221037,11.7004042,-33.3511467,-37.6564903,-36.1755714
730,0.0047884,-0.1556223,9.9239149,-0.2671756,-0.2519084,0.3664122,0.6464311,0.0622489,11.8129311,-26.3129768,-28.8396950,-42.0458031
740,0.0383070,-0.1292862,9.9310980,-0.2977099,-0.1984733,0.3511450,0.3423691,0.2442073,11.5184450,-23.5114498,-23.5648861,-43.4809151
750,-0.0071826,-0.1460456,9.8736372,-0.1908397,-0.0610687,0.4732825,-0.2130829,0.1316804,11.3532467,-21.5190830,-19.3435116,-41.3816795
760,0.0263361,-0.2035061,9.9406748,-0.3969466,-0.1908397,0.3511450,-0.3256098,0.1963235,11.0898857,-19.8167934,-19.8625946,-38.3969460
770,-0.0502780,-0.1436514,9.9933472,-0.3206107,-0.2900763,0.3969466,-0.0837966,0.3232156,10.9510221,-17.8244267,-21.4809170,-36.1374054
780,-0.0478838,-0.1173153,9.9430685,-0.2290076,-0.0992366,0.2748092,0.2322364,0.2442073,11.0060892,-15.1450386,-21.6259537,-36.1832047
790,-0.0047884,-0.1125269,9.9071560,-0.4274809,-0.2824427,0.2213740,0.3423691,0.2298422,11.1808643,-11.6793890,-21.9770985,-37.5114517
800,0.0287303,-0.1244979,9.8808203,-0.4045801,0.0610687,0.2137405,-0.0861908,1.6304430,11.7219515,-5.4732823,-16.8167934,-38.5114517
810,-0.1508339,-0.1508339,10.0172882,-0.2137405,-0.0534351,0.2671756,0.0670373,0.6440369,11.3771887,2.1984732,-5.9312978,-35.9847336
820,-0.0383070,-0.1125269,9.9382801,-0.4809160,-0.0687023,0.2671756,-0.0454896,-0.1963235,11.1593170,5.4351144,3.9770992,-29.7022896
830,-0.0742199,-0.1747758,10.0053177,-0.4122137,0.0992366,0.5419847,-0.9169745,0.4740495,11.0252428,10.4427481,5.6412215,-19.1984730
840,-0.0095768,-0.1723816,9.9382801,-0.3053435,0.0687023,0.3969466,-0.5722113,0.9504932,10.9246864,13.2824430,8.0839691,-14.9312973
850,-0.1268920,-0.1292862,9.9933472,-0.4961832,-0.1221374,0.3129771,-0.7637464,1.0007712,10.4314833,13.4198475,9.3587790,-9.3282442
860,-0.0718257,-0.1891410,9.9550400,-0.3358779,0.0610687,0.3969466,-0.6153067,0.7038917,10.1154509,8.1984730,7.0381680,-3.2290077
870,0.0000000,-0.1316804,9.9454632,-0.1908397,0.0458015,0.3740458,-0.1125269,0.6248835,10.5080976,1.8473282,0.1068702,0.3587786
880,0.0263361,-0.1939293,9.9095497,-0.4198473,-0.2061069,0.2213740,-0.0023942,0.5362985,10.8839855,2.0229008,-1.6717557,0.4961832
890,-0.0263361,-0.1699875,9.8473015,-0.2213740,-0.2442748,0.4656489,0.0550664,0.5243275,10.9653873,3.2290077,-0.2290076,0.6793893
900,0.0071826,-0.1053443,9.8808203,-0.2519084,-0.4045801,0.4656489,0.1771700,0.5339043,11.0420017,4.9847326,3.4580152,0.0229008
910,0.0311245,-0.1149211,9.9909525,-0.4351145,-0.0839695,0.3816794,0.2130829,0.5123565,11.0372133,6.9618320,6.6946564,-1.3664122
920,0.0335187,-0.0909792,9.9574337,-0.0992366,-0.3053435,0.2519084,0.1891410,0.4501076,10.9318695,9.2213745,8.5267172,-1.4809160
930,-0.0550664,-0.1532281,9.9119444,-0.4274809,-0.1755725,0.5190840,0.3064562,0.5315101,10.6828737,13.1221371,10.0381680,-0.4122137
940,0.0215477,-0.1244979,9.9933472,-0.2900763,-0.1755725,0.4427481,-0.2561783,0.7900825,10.4673967,2.1374047,2.3358779,-1.0458015
950,0.0071826,-0.0790083,10.0029240,-0.3969466,0.0534351,0.2595420,-0.2489957,0.8786675,10.6637201,1.3740458,1.7099236,-0.5572519
960,-0.0766141,-0.1580165,9.9334917,-0.0610687,0.0381679,0.2748092,-0.3160330,0.9121862,10.8073711,2.4503818,4.3969464,0.9389313
970,-0.0191535,-0.0861908,9.9502516,-0.2137405,-0.0305344,0.3740458,-0.8140244,1.7669119,11.1186161,3.7022901,5.4809160,3.4351146
980,0.0167593,-0.1484398,9.9885588,-0.4274809,-0.0687023,0.3053435,-0.9097920,1.3263810,11.1377697,8.9465647,16.9007626,9.3816795
990,-0.0574605,-0.1891410,9.8856087,-0.3740458,0.0992366,0.5114504,-0.7517755,0.9480990,11.1760759,12.5343513,25.0000000,16.2671757
1000,-0.0167593,-0.1221037,9.8640604,-0.3740458,-0.1832061,0.2061069,0.2346306,0.4572902,10.8768024,13.6106873,25.1603050,18.8396950
1010,-0.0263361,-0.1316804,9.8760319,-0.4122137,-0.0839695,0.3816794,0.8068419,0.1556223,10.6230183,13.3893127,22.3816795,12.6106873
1020,-0.0478838,-0.1939293,9.9622221,-0.3511450,-0.2671756,0.3511450,-0.0909792,0.8331779,10.3261395,10.6870232,11.9694653,0.0076336
1030,-0.0047884,-0.1556223,9.9167328,-0.3206107,-0.0839695,0.4045801,-0.1843526,0.9552816,10.2543135,8.6488552,10.0000000,-0.6259542
1040,-0.0239419,-0.1699875,9.9670105,-0.2824427,-0.2366412,0.3969466,-0.3303981,0.8571198,10.2758608,6.3206105,6.3816795,0.1603053
1050,0.0454896,-0.1364688,9.7539282,-0.3740458,-0.1679389,0.4656489,-0.5530578,0.8092360,10.8073711,3.2442749,0.7404580,-0.5496183
1060,-0.0790083,-0.1795642,9.9861641,-0.4427481,-0.2442748,0.2290076,-0.3567342,0.7589580,10.8672256,4.7099237,3.1068702,0.0152672
1070,-0.0502780,-0.1292862,9.9622221,-0.4656489,-0.4732825,0.2900763,-0.3184272,0.8834559,10.7834291,7.7938933,6.8931298,0.6412213
1080,0.0311245,-0.1173153,9.9167328,-0.4198473,-0.0610687,0.2824427,-0.3950413,0.9672526,10.8289185,9.1145039,9.6564884,1.4274809
1090,-0.0023942,-0.1388630,9.9550400,-0.4122137,-0.0305344,0.3129771,-0.6296718,1.1755470,10.6517487,11.1526718,12.2213745,2.5038168
1100,-0.0263361,-0.1651991,9.9646168,-0.6259542,-0.4351145,0.3816794,-0.6344602,1.0797794,10.6038647,10.6106873,11.3740454,3.7786260
1110,-0.0263361,-0.0694315,9.8592720,-0.2748092,-0.0076336,0.3358779,-0.4548960,1.2617378,10.3524752,8.6183205,9.2290077,2.2061069
1120,-0.0191535,-0.1244979,9.9454632,-0.6183206,-0.1832061,0.2671756,-0.4453192,1.2282192,10.4171181,6.8396945,8.7328243,0.2137405
1130,0.0047884,-0.0957676,9.9670105,-0.4045801,-0.2442748,0.3358779,-0.4572902,0.9217629,10.6349897,4.8778625,2.8549619,3.0458016
1140,-0.0407012,-0.1029501,9.9263096,-0.2824427,-0.0152672,0.3740458,-1.1037214,1.2737088,10.7092094,11.2977095,13.0305347,-1.9083970
1150,-0.0718257,-0.1412572,9.9358864,-0.2977099,-0.3053435,0.3206107,-1.0271072,1.1803354,10.3524752,11.2671757,12.3358774,-1.2366412
1160,0.0239419,-0.1244979,9.9741936,-0.4580153,-0.0992366,0.2977099,-0.8978211,1.1899122,10.1465750,4.6564884,2.1679389,-0.7862595
1170,-0.0167593,-0.1556223,9.8329363,-0.5954198,-0.3282443,0.4274809,-0.8666966,1.1252691,10.4793673,-1.2366412,-8.4351149,-2.0839694
1180,-0.0191535,-0.1508339,9.9478569,-0.4351145,-0.3435115,0.3816794,-0.8547257,1.1324517,10.5751352,-2.0229008,-10.2061071,-3.4503818
1190,-0.0023942,-0.1556223,9.8736372,-0.5496183,-0.1755725,-0.2671756,-0.8834559,1.1707586,10.5942879,-2.6030533,-11.3358774,-3.8396947
1200,-0.0359128,-0.1819584,9.9430685,-0.3664122,-0.1832061,0.2977099,-0.9217629,1.1947005,10.4865494,-3.1297710,-12.3206110,-4.4427481
1210,-0.0287303,-0.1484398,9.9622221,-0.6183206,0.1221374,0.4427481,-0.9696468,1.2234308,10.5440102,-3.0000000,-13.3358774,-4.7709923
1220,-0.0191535,-0.1173153,9.9143381,-0.4503817,-0.7175573,0.3206107,-0.9409165,1.2354017,10.3548698,-3.5572519,-13.6870232,-4.8473282
1230,0.0454896,-0.1173153,9.9358864,-0.2977099,-0.0610687,0.6488550,-0.9193687,1.2042773,10.5727406,-4.0992365,-14.3893127,-5.3435116
1240,-0.0119709,-0.0837966,9.7299862,-0.7786260,0.1068702,0.3511450,-0.9576758,1.1803354,10.5200682,-4.7633586,-15.2977095,-4.5114503
1250,0.0718257,-0.1029501,9.7275915,-0.7099237,-0.1679389,0.2519084,-0.8786675,1.1851238,10.6278067,-4.9083967,-15.1068707,-4.8625956
1260,0.0095768,-0.1101327,10.1298151,-0.5496183,-0.0305344,0.4045801,-0.9026094,1.2354017,10.6182299,-4.9770994,-14.7328243,-4.7633586
1270,-0.0359128,-0.1244979,9.9502516,-0.5190840,-0.1755725,0.2366412,-0.9073978,1.2689204,10.5751352,-4.5343513,-14.6106873,-4.7099237
1280,-0.0454896,-0.1628049,9.8903971,-0.3435115,-0.0381679,0.2671756,-0.8379663,1.2761030,10.6828737,-3.8931298,-13.6335878,-4.4732823
1290,-0.1029501,-0.1316804,10.0939026,-0.6717557,-0.1450382,0.2442748,-0.7972651,1.3072275,10.6325951,-3.0229008,-12.3358774,-4.2290077
1300,-0.0359128,-0.0909792,10.0077124,-0.4656489,-0.4961832,0.0610687,-0.7829000,1.3862357,10.6158361,-2.3969467,-11.1603050,-4.5725193
1310,-0.0430954,-0.1484398,10.1250277,-0.4427481,-0.3969466,0.4198473,-0.7900825,1.3263810,10.6469603,-1.9389313,-10.4503813,-3.6335878
1320,0.0814024,-0.1197095,9.7754755,-0.4503817,-0.1145038,0.2900763,-0.7709290,1.2377959,10.5727406,-2.0458016,-9.9541988,-3.4580152
1330,-0.0311245,-0.2011119,9.9789820,-0.3816794,-0.4961832,0.3206107,-0.6512195,1.1707586,10.5679522,-2.7480917,-9.2519083,-2.1755726
1340,-0.0071826,-0.0981618,9.8305416,-0.4351145,-0.1221374,0.3435115,-0.6607963,1.2162483,10.6086531,-3.0076337,-8.0381680,-2.6564887
1350,-0.0909792,-0.1149211,9.9837704,-0.4656489,-0.3206107,0.2137405,-0.6991033,1.1994889,10.6086531,-2.9770992,-6.8320613,-2.9083970
1360,0.0407012,-0.1484398,9.9741936,-0.4045801,-0.4045801,0.3435115,-0.6727672,1.2210367,10.7020273,-1.9923664,-5.9007635,-2.3816793
1370,-0.0143651,-0.1460456,9.9215212,-0.5572519,-0.2977099,0.4885496,-0.5674229,1.2784972,10.6110477,-1.7480916,-3.9847329,-1.8091604
1380,0.0287303,-0.1508339,9.9837704,-0.3664122,-0.4427481,0.3206107,-0.7278336,1.2880739,10.8672256,1.5419847,7.1221375,-0.8396947
1390,0.0311245,-0.1221037,9.9143381,-0.4503817,-0.2137405,0.3129771,-1.1539993,1.1013272,11.3364868,9.5343513,20.5267181,2.3282442
1400,-0.0694315,-0.1628049,10.0196829,-0.3511450,-0.3358779,0.3816794,-1.0630201,1.3431402,11.1928358,14.8396950,23.6335869,2.0229008
1410,-0.0287303,-0.1963235,9.9167328,-0.5496183,-0.2900763,0.4274809,-1.2497669,1.7932479,10.9989061,20.0534344,26.5038166,3.0000000
1420,0.0407012,-0.1556223,9.6629486,-0.2366412,0.0916031,0.3435115,-1.3790531,1.7262106,10.8480721,23.6335869,33.7328262,4.5038166
1430,-0.0574605,-0.1316804,10.0436249,-0.4198473,-0.1526718,0.3206107,-1.3886299,1.7118455,10.7163916,25.6106873,40.1145020,6.8549619
1440,-0.0311245,-0.1604107,10.0412302,-0.5572519,-0.4427481,0.4809160,-1.5107336,1.6495966,10.3620520,25.5572510,41.9389305,7.9389315
1450,-0.0167593,-0.1292862,9.8856087,-0.4198473,-0.1221374,0.3511450,-0.7062859,0.7996593,9.5743637,-31.4045811,-35.0458031,7.5572519
1460,-0.0430954,-0.1628049,9.8736372,-0.5114504,-0.4427481,0.2290076,-1.0079538,0.7374104,10.4290895,-32.8320618,-33.0152664,4.3282442
1470,0.0023942,-0.1987177,9.9382801,-0.3358779,0.0229008,0.4885496,-0.8834559,1.0582317,10.8552551,-30.9465656,-26.1374054,5.9694657
1480,0.0000000,-0.1221037,9.9310980,-0.2061069,0.0381679,0.3893130,-0.8690908,0.7541697,11.1401634,-26.8854961,-19.3358784,7.6793895
1490,-0.0694315,-0.1508339,9.9358864,-0.4274809,-0.0152672,0.3358779,-0.6751614,0.7206510,11.2359314,-20.8625946,-9.5419846,7.2213740
1500,-0.0430954,-0.1819584,9.9191265,-0.4656489,-0.0839695,0.4656489,-0.8595140,0.6536137,11.2359314,-17.5801525,-7.0534353,5.0305343
1510,-0.0023942,-0.1436514,9.9430685,-0.4351145,-0.2061069,0.4580153,-1.2401901,0.3495516,11.5352049,-14.9465647,-18.9312973,3.2595420
1520,-0.1029501,-0.1029501,9.8880024,-0.5496183,-0.2366412,0.2595420,-1.1707586,0.3399749,11.6429434,-11.2977095,-30.6106873,2.3587787
1530,-0.0383070,-0.1388630,9.9239149,-0.3893130,-0.2290076,0.2061069,-0.8475431,0.5626345,11.4250717,-7.5419846,-32.8702278,0.3664122
1540,-0.0023942,-0.1484398,9.8712435,-0.6412213,-0.2366412,0.4809160,-0.6464311,0.7254394,11.1928358,-3.5496182,-30.0305347,-0.4732825
1550,-0.0478838,-0.1101327,9.9143381,-0.3969466,0.0305344,0.4961832,-0.5147507,0.9169745,10.9390516,0.2519084,-20.8320618,-0.9770992
1560,-0.0359128,-0.1628049,9.8975792,-0.3816794,-0.0152672,0.1832061,-0.5315101,0.9792235,10.6254129,2.2519083,-12.4198475,-1.9847329
1570,-0.0335187,-0.1508339,9.8496952,-0.4656489,-0.2366412,0.4809160,-0.6847382,0.9480990,10.4219065,1.8549619,-9.3129768,-2.7328243
1580,-0.0359128,-0.1580165,9.9406748,-0.2824427,-0.2519084,0.1755725,-0.6248835,1.0366840,10.5320396,1.0458015,-7.9465647,-3.5877862
1590,-0.0622489,-0.1197095,9.9023676,-0.4122137,-0.1679389,0.3435115,-1.0941446,0.7517755,11.4633789,4.0534353,24.5114498,-1.2061069
1600,0.0622489,-0.1436514,9.9406748,-0.3893130,-0.1068702,0.4503817,-1.3982066,1.1731528,9.3924055,-72.7175598,86.1297684,-50.3435097
1610,-0.0646431,-0.1340746,9.8664551,-0.4198473,-0.0992366,0.2366412,-1.9033806,0.8930327,10.1992474,-101.7251892,105.0534363,-58.9236641
1620,0.0119709,-0.0526722,9.9358864,-0.5114504,-0.2977099,0.4580153,-3.2584918,0.2442073,12.2175484,-121.3282471,127.3511429,-61.2061081
1630,-0.0095768,-0.0909792,9.9670105,-0.1984733,-0.1221374,0.3511450,-6.0046272,-0.0766141,15.0355101,-128.3969421,138.3893127,-53.9160309
1640,-0.0837966,-0.1436514,9.9167328,-0.2671756,-0.3129771,0.2137405,-9.1003141,-0.5698171,18.0593719,-117.5801544,139.1755676,-35.4885483
1650,-0.0311245,-0.1125269,9.8832140,-0.2519084,-0.3053435,0.2366412,-11.1688938,-1.5227045,19.6126022,-90.3129807,109.1068726,-4.3893127
1660,-0.0287303,-0.1268920,9.9167328,-0.3206107,-0.2748092,0.4580153,-11.0587606,-2.4157372,19.6126022,-50.1450386,77.2748108,26.7480907
1670,0.0000000,-0.1244979,9.9885588,-0.5572519,-0.4122137,0.3129771,-9.8856087,-2.7844424,19.6126022,0.0610687,75.7557220,48.0152664
1680,-0.0119709,-0.1675933,9.8903971,-0.3435115,-0.2595420,0.3129771,-9.7156210,-2.6599445,19.6126022,50.9007645,96.2595444,65.3893127
1690,-0.0814024,-0.0957676,9.8832140,-0.4503817,-0.3511450,0.4045801,-10.4219065,-2.7557120,19.6126022,97.0000000,113.2900772,90.4503784
1700,0.0143651,-0.1436514,9.9622221,-0.3587786,-0.0992366,0.2290076,-10.4434547,-2.8299320,19.6126022,134.3053436,132.6946564,118.4427490
1710,-0.0119709,-0.1484398,9.9143381,-0.3740458,-0.1374046,0.2977099,-10.5990763,-2.9831600,19.6126022,168.4503784,152.9694672,145.0076294
1720,-0.0143651,-0.1628049,9.9622221,-0.3969466,-0.1297710,0.6183206,-11.0539722,-2.7197993,19.2756195,199.7557220,162.6946564,169.8167877
1730,0.0215477,-0.1436514,9.8640604,-0.2977099,0.0152672,0.4503817,-10.7858238,-2.6695213,17.8798065,227.5190887,155.6488495,194.2213745
1740,-0.0574605,-0.1364688,9.9909525,-0.3969466,-0.0381679,0.3969466,-9.6102762,-2.8610563,15.8830528,248.1221313,139.4503784,214.6870270
1750,0.0071826,-0.0766141,9.9502516,-0.4427481,-0.1526718,0.2519084,-8.2288294,-2.6743097,13.4984398,250.1297760,130.4427490,230.3969421
1760,-0.0454896,-0.1316804,10.0316534,-0.2900763,-0.1450382,0.3053435,-7.0053983,-2.3391230,11.5280218,250.1297760,133.5038147,244.2671814
1770,0.0239419,-0.1268920,9.9694052,-0.4732825,-0.0687023,0.2824427,-5.9591374,-2.1092808,9.8305416,250.1297760,138.7022858,250.1297760
1780,-0.0191535,-0.1244979,9.9598284,-0.3664122,-0.3587786,0.2366412,-5.2121506,-2.0613971,8.2695303,250.1297760,144.7709961,250.1297760
1790,0.0287303,-0.1484398,9.9502516,-0.3969466,-0.0305344,0.2824427,-4.8242917,-1.6041069,6.8904772,250.1297760,150.8702240,250.1297760
1800,0.0000000,-0.0861908,9.9741936,-0.3435115,-0.1679389,0.2519084,-4.1347651,-1.3287752,5.5257893,250.1297760,154.7633514,250.1297760
1810,0.0359128,-0.1412572,9.9406748,-0.2519084,-0.0305344,0.4580153,-3.0262554,-1.2090657,4.4603748,246.4122162,159.5801544,250.1297760
1820,-0.0095768,-0.0718257,9.9765873,-0.2137405,-0.2900763,0.5725191,-1.5681942,-1.2258250,3.0980811,234.5801544,169.1221313,250.1297760
1830,-0.0454896,-0.1508339,9.9023676,-0.3969466,-0.2137405,0.4961832,-0.2753318,-1.0438666,2.2289903,220.0381622,179.5190887,250.1297760
1840,0.0167593,-0.1340746,9.9502516,-0.2748092,0.0687023,0.3282443,0.7972651,-0.8714849,1.3311694,201.8702240,187.4656525,250.1297760
1850,-0.0574605,-0.1651991,9.9622221,-0.2900763,-0.6412213,-0.0763359,1.7645177,-0.6655847,0.8978211,179.9236603,188.7938995,250.1297760
1860,0.0335187,-0.1340746,9.9334917,-0.3129771,-0.5877863,-0.3816794,2.6886747,-0.4884146,0.5506636,155.1755676,188.8473358,250.1297760
1870,0.1484398,-0.1029501,9.8137827,-0.4732825,-0.0610687,-1.3282443,3.1004753,-0.3495516,0.6200951,131.3206177,187.4122162,250.1297760
1880,-0.0071826,-0.1532281,9.8880024,-0.3893130,0.2671756,-1.7786260,3.3925664,-0.2442073,0.9193687,109.5190811,185.3969421,250.1297760
1890,0.0000000,-0.1412572,9.8209648,0.1297710,-0.5954198,-0.9541985,3.4452386,-0.2944853,1.4365137,89.2366409,178.0534363,250.1297760
1900,-0.1149211,-0.1819584,9.9574337,-0.2748092,-0.0458015,-1.0916030,3.9121056,-0.3950413,1.6256547,73.6335907,160.6717529,250.1297760
1910,0.0071826,-0.1340746,9.9574337,-0.2824427,-0.2977099,-1.2290076,4.9918852,-0.8523315,1.6974803,59.8015251,143.9465637,250.1297760
1920,-0.0957676,-0.1556223,9.9789820,-0.4427481,-0.1908397,-0.7786260,6.7707677,-1.1803354,1.5298871,46.3206100,131.3511505,250.1297760
1930,-0.0981618,-0.1125269,9.9334917,-0.2977099,-0.1755725,0.1145038,8.3796635,-1.3575054,1.8890154,33.7938919,121.5114517,250.1297760
1940,0.0335187,-0.1436514,9.9215212,-0.5343512,-0.0916031,0.3358779,10.4721851,-1.3096216,2.1930776,23.3664131,109.2977066,244.7480927
1950,-0.0311245,-0.1244979,9.9382801,-0.3053435,-0.2824427,0.2977099,12.8711624,-0.9265513,2.4085546,15.7251911,104.2366409,209.2290039
1960,-0.0047884,-0.1316804,9.8903971,-0.4809160,0.0381679,0.2061069,15.8303804,-0.5243275,2.8586621,11.1221371,126.2061081,167.4732819
1970,-0.0239419,-0.1675933,9.9694052,-0.4274809,-0.3282443,0.3435115,19.6126022,-0.0622489,4.2137733,11.0916033,172.8167877,115.6793900
1980,-0.0622489,-0.1556223,9.9119444,-0.4045801,-0.1755725,0.4503817,19.6126022,0.4118006,6.9934273,20.5572510,233.5877838,44.1832047
1990,0.0119709,-0.1340746,9.9263096,-0.3358779,-0.1832061,0.4427481,19.6126022,1.1683644,11.2886028,48.9389305,250.1297760,-53.5496178
2000,-0.0023942,-0.1651991,9.9119444,-0.3511450,-0.3358779,0.2977099,19.6126022,0.6320660,14.7601776,95.5343475,213.4580078,-177.5648804
2010,-0.0646431,-0.1292862,9.9143381,-0.4351145,-0.1450382,0.2061069,19.6126022,-1.8866212,13.9126348,147.4198456,133.3587799,-250.1374054
2020,-0.0143651,-0.0837966,10.0220766,-0.4580153,-0.0687023,0.2900763,19.6126022,-5.5353661,9.8257532,190.2061005,56.3358765,-250.1374054
2030,0.0167593,-0.1580165,9.9550400,-0.2671756,-0.3587786,0.4122137,19.6126022,-9.1817169,5.2696109,208.7786255,-8.8167934,-250.1374054
2040,-0.0454896,-0.1723816,9.8951855,-0.3282443,0.0076336,0.3435115,14.0730457,-14.3340120,2.0254843,207.8778687,-49.6183205,-250.1374054
2050,-0.1005560,-0.1197095,9.9598284,-0.2061069,-0.0839695,0.2290076,5.9375896,-18.9428272,0.9911944,197.9007568,-95.9847336,-250.1374054
2060,-0.0598547,-0.1412572,9.8377247,-0.3282443,-0.1603053,0.5877863,-5.7987270,-19.6131992,1.8267666,184.9465637,-164.1832123,-250.1374054
2070,-0.0454896,-0.1292862,9.9861641,-0.4045801,-0.3358779,0.2900763,-16.6276455,-19.6131992,2.8203552,161.0763397,-250.1374054,-250.1374054
2080,-0.0478838,-0.1244979,9.9717989,-0.2900763,0.1679389,0.2366412,-19.6131992,-19.6131992,3.9528067,110.4122162,-250.1374054,-250.1374054
2090,0.0167593,-0.0861908,9.9263096,-0.2137405,-0.1068702,0.3282443,-19.6131992,-17.4344883,6.3206601,34.4427490,-250.1374054,-250.1374054
2100,0.0023942,-0.1388630,9.9861641,-0.2442748,-0.2595420,0.3435115,-19.6131992,-13.0028429,9.7515335,-21.2137413,-250.1374054,-250.1374054
2110,-0.0119709,-0.1053443,10.0101061,-0.3587786,-0.2519084,0.3587786,-19.6131992,-8.1474266,11.3747940,-20.5114498,-250.1374054,-250.1374054
2120,-0.0143651,-0.1268920,9.9382801,-0.3129771,-0.0763359,0.4351145,-19.6131992,-2.0470319,10.3859940,31.1908398,-135.1526642,-250.1374054
2130,0.0023942,-0.1005560,9.9167328,-0.1145038,-0.1832061,0.1603053,-19.6131992,3.2776453,7.8984308,91.1832047,209.5801544,-91.8702316
2140,0.0000000,-0.1149211,9.9646168,-0.3358779,0.0000000,0.1908397,-19.6131992,3.0262554,3.2800395,116.4656525,250.1297760,150.3816833
2150,-0.0454896,-0.1197095,9.8784256,-0.2824427,-0.0610687,0.4045801,-19.6131992,0.2681492,0.3160330,88.5267181,250.1297760,250.1297760
2160,-0.0383070,-0.0933734,9.9622221,-0.3664122,-0.2748092,0.3435115,-19.6131992,-0.9457048,1.5227045,33.0763359,250.1297760,250.1297760
2170,-0.0814024,-0.1484398,9.9095497,-0.2061069,-0.3358779,0.3435115,-13.2278967,0.2681492,3.9384418,-11.9007635,187.3435059,206.7022858
2180,-0.0359128,-0.1005560,9.9071560,-0.3664122,-0.0916031,0.1679389,-7.1466556,2.0063307,5.4611464,-35.0152664,-10.1755724,123.0305328
2190,-0.0095768,-0.1221037,9.9047613,-0.2748092,-0.0687023,0.2748092,-4.1156116,3.2106080,5.9591374,-37.6106873,-140.0686951,48.4122124
2200,0.0383070,-0.0718257,9.9861641,-0.3358779,-0.3740458,0.3893130,-3.7828193,4.1970143,5.2791877,-26.8625946,-185.5419922,-0.3740458
2210,0.0143651,-0.1197095,9.9023676,-0.1603053,-0.0763359,0.3053435,-5.3318601,5.0804701,4.6279683,-11.2442751,-167.0763397,-21.9465656
2220,-0.0478838,-0.1508339,10.0101061,-0.4503817,-0.0458015,0.3816794,-6.3876977,5.1092005,3.9049230,5.1068702,-130.6870270,-22.7633591
2230,-0.0407012,-0.1197095,9.8927908,-0.2671756,-0.0687023,0.1450382,-6.1387019,4.7883787,3.0214672,15.4503813,-103.9007645,-18.8015270
2240,-0.0095768,-0.0957676,10.0436249,-0.1603053,-0.0610687,0.4732825,-5.3007355,4.3023586,2.0302727,18.7938938,-88.2977066,-17.6717548
2250,0.0095768,-0.1388630,10.0244713,-0.3740458,-0.1526718,0.3816794,-4.3789725,3.7780309,1.3431402,15.5648851,-82.0381699,-21.0305347
2260,0.0047884,-0.1556223,9.9287033,-0.3740458,-0.2213740,0.3206107,-4.0437860,3.3375001,1.0462608,9.9923668,-68.4045792,-26.3664131
2270,-0.0191535,-0.0478838,9.9310980,-0.4198473,-0.3129771,0.3816794,-4.5417776,3.0166788,1.3335636,5.1679387,-40.6564903,-28.6946564
2280,-0.0215477,-0.1628049,9.9143381,-0.3511450,-0.1145038,0.5572519,-5.4132624,2.9089401,1.7812769,3.5267177,-12.9312973,-27.9083977
2290,0.0047884,-0.1604107,9.9239149,-0.2977099,0.0305344,0.3129771,-6.0333576,2.8035958,2.2768741,4.4274807,3.8167939,-24.6488552
2300,-0.0167593,-0.1101327,9.9310980,-0.4122137,-0.0534351,0.4656489,-7.0796180,2.3008161,2.5689652,11.3129768,5.9007635,-23.2977104
2310,0.0143651,-0.1580165,9.9526453,-0.4885496,-0.2213740,0.4274809,-6.9982157,2.2912393,2.2984219,11.8549614,-4.7786260,-24.3435116
2320,-0.0191535,-0.1532281,9.9526453,-0.3816794,-0.0687023,0.3358779,-7.0868006,2.2553265,2.0781565,7.7862597,-11.0763359,-26.4122143
2330,-0.0095768,-0.1197095,9.9598284,-0.3664122,-0.3740458,0.4351145,-7.3812861,2.0709739,2.1595588,2.1145039,-17.5496178,-29.6412220
2340,-0.0191535,-0.1699875,9.9765873,-0.4809160,-0.0916031,0.2519084,-7.6973190,2.0709739,2.1475880,-4.0152674,-29.1908398,-34.7938919
2350,-0.0071826,-0.2226596,9.8808203,-0.3435115,-0.1374046,0.2366412,-8.0851774,2.1284344,2.2625091,-12.1297712,-45.9847336,-41.8015251
2360,0.0622489,-0.1316804,9.8784256,-0.3129771,-0.0610687,0.5114504,-8.3245964,2.1068866,2.4157372,-22.5572510,-64.6564865,-47.4503822
2370,-0.0311245,-0.1699875,9.8975792,-0.5038168,-0.0152672,0.3893130,-8.6526003,1.9321109,2.8586621,-33.4503822,-78.0839691,-51.5954208
2380,0.0287303,-0.1292862,9.9334917,-0.2595420,-0.1755725,0.2824427,-8.9111729,1.9249283,3.6822634,-42.3816795,-86.6259537,-53.9160309
2390,-0.0478838,-0.1292862,9.9071560,-0.3664122,-0.1297710,0.4427481,-9.2511482,1.8866212,4.3981261,-47.0839691,-89.0839691,-53.3053436
2400,-0.0502780,-0.2154770,9.8760319,-0.2137405,-0.1679389,0.3511450,-9.4450769,1.5993185,5.2624283,-47.8015251,-86.2213745,-49.8473282
2410,0.0335187,-0.1173153,9.9095497,-0.3358779,-0.2213740,0.5648855,-9.2798786,1.4891858,5.9591374,-44.4961815,-82.9694672,-46.7938919
2420,-0.0502780,-0.1053443,9.9694052,-0.3206107,-0.1068702,0.2748092,-9.1218615,1.3191984,6.5672617,-38.4732819,-79.5114517,-46.2977104
2430,0.0071826,-0.1436514,9.9622221,-0.2213740,-0.4351145,0.3664122,-8.9207497,1.0989330,6.9239960,-31.5267181,-78.6030502,-46.9160309
2440,-0.0670373,-0.1197095,9.9526453,-0.2061069,-0.0076336,0.3969466,-8.6885138,1.0414724,7.1897511,-23.8854961,-79.7557220,-48.4122124
2450,-0.0143651,-0.0885850,9.9334917,-0.2900763,-0.1832061,0.4809160,-8.5281029,0.8619082,7.2017217,-16.9465656,-81.5877838,-53.9312973
2460,-0.0766141,-0.0670373,9.9191265,-0.2595420,-0.1984733,0.4122137,-8.8154058,0.9983770,7.1993275,-9.6183205,-78.0305328,-59.1068687
2470,-0.0454896,-0.1580165,9.9933472,-0.2290076,-0.0992366,0.2137405,-9.7802639,0.7302278,7.3190370,-4.1679387,-82.3282471,-64.9465637
2480,-0.0311245,-0.1580165,10.0292597,-0.3587786,-0.0916031,0.3282443,-11.0827026,1.2976507,7.4555058,-4.2213740,-93.3053436,-69.1908417
2490,-0.0383070,-0.2178712,9.9263096,-0.4580153,-0.1450382,0.3129771,-12.9525652,1.4101776,7.0413113,-4.5419846,-89.4045792,-61.0992355
2500,-0.0622489,-0.0837966,9.8856087,-0.2290076,-0.0305344,0.3664122,-12.9429884,1.0606259,6.9551206,-3.8320611,-72.1145020,-44.5419846
2510,-0.0311245,-0.1580165,9.8688488,-0.2595420,0.0763359,0.3664122,-13.1704359,0.9816177,6.9575148,-1.3587786,-52.0152664,-28.7709923
2520,-0.0407012,-0.1795642,9.9215212,-0.2366412,-0.0687023,0.3511450,-14.0155849,1.1755470,7.4531116,-0.5648855,-39.1068687,-14.7251911
2530,0.0478838,-0.1292862,9.8856087,-0.1603053,-0.2671756,0.3816794,-15.2174683,1.3982066,7.6638002,-0.4656489,-26.6488552,3.3816793
2540,0.0023942,-0.0790083,9.9454632,-0.3511450,-0.2213740,0.3206107,-16.2062683,1.2904681,7.9487090,0.7862595,-17.2977104,28.9007626
2550,-0.0430954,-0.1197095,9.8832140,-0.2061069,-0.2519084,0.3893130,-15.9261484,0.6823440,8.0301113,3.1145039,-13.3969469,54.9083977
2560,-0.0646431,-0.1580165,9.9095497,-0.3511450,-0.1221374,0.3664122,-15.3850613,0.5386927,8.2000990,6.6030536,-3.4427481,73.7480927
2570,-0.0694315,-0.1484398,9.8856087,-0.3358779,-0.1984733,0.3816794,-15.5095596,0.5219333,8.6142941,10.7480917,12.4122133,90.9923630
2580,-0.0766141,-0.1580165,9.9143381,-0.3206107,-0.0076336,0.1679389,-15.8351688,0.5817881,8.9039907,15.5725193,25.7251911,110.8778610
2590,-0.0167593,-0.1364688,9.9143381,-0.3282443,-0.2290076,0.3816794,-16.0793762,0.6272776,9.2463598,22.1755733,36.6641235,133.3282471
2600,-0.0526722,-0.1460456,9.9478569,-0.1755725,-0.0229008,0.4122137,-15.9883976,0.5554519,9.5121145,30.2748089,46.8854980,154.8473358
2610,-0.0766141,-0.0814024,9.9478569,-0.5343512,-0.1908397,0.4198473,-15.3802729,0.5123565,9.5216913,40.0076332,54.4580154,175.6412201
2620,-0.0718257,-0.1771700,9.8473015,-0.2595420,-0.0534351,0.3435115,-14.5351238,0.6296718,9.2774839,51.3587799,59.9312973,193.7404633
2630,-0.0646431,-0.1628049,9.8927908,-0.4351145,0.1526718,0.4198473,-13.3236647,0.4525018,8.6789370,62.9312973,65.3435135,208.5801544
2640,-0.0670373,-0.1316804,9.9263096,-0.4809160,-0.3740458,0.1603053,-11.7578640,0.5841822,8.0372944,71.7786255,69.6946564,219.1374054
2650,-0.0335187,-0.1508339,9.9789820,-0.3587786,-0.1450382,0.3206107,-10.1848822,0.7326220,7.3286138,78.1908417,74.8244247,225.6106873
2660,-0.0311245,-0.1532281,10.0101061,-0.4427481,0.1068702,0.1908397,-8.8752604,0.7948709,6.6726060,82.3435135,79.4427490,226.5648804
2670,-0.0023942,-0.1675933,9.8688488,-0.4045801,0.1374046,0.4885496,-7.6709828,1.1635761,6.2943239,85.1450348,80.2595444,222.0000000
2680,-0.0119709,-0.2130829,9.9358864,-0.4045801,-0.0916031,0.2824427,-6.7731619,1.4436963,5.9088597,87.1145020,75.3435135,215.1450348
2690,-0.0359128,-0.1915352,9.9382801,-0.1221374,0.1297710,0.2595420,-5.8609757,1.6950861,5.5066357,86.8702316,68.1068726,206.2671814
2700,-0.1699875,-0.0790083,10.3620520,-0.3206107,-0.6183206,0.2061069,-5.2193332,2.1787124,5.0972295,87.3206100,58.3053436,196.6183167
2710,0.0047884,-0.1699875,9.8927908,-0.2824427,-0.0229008,0.1603053,-4.6806402,2.5641768,4.6423335,86.5572510,49.1908379,188.9084015
2720,-0.0335187,-0.1891410,9.9933472,-0.3282443,-0.0229008,0.5801527,-4.0389977,2.7605004,4.1395535,86.3358765,43.0839691,183.4274750
2730,0.0215477,-0.1388630,9.7826586,-0.4274809,-0.0610687,0.3053435,-3.1339941,2.8897867,3.5242469,85.6183243,43.6488533,179.0000000
2740,-0.0550664,-0.1268920,9.9694052,-0.3816794,0.0229008,0.4274809,-2.2289903,3.2201848,2.7197993,85.3893127,56.8091621,175.3664093
2750,0.0023942,-0.1244979,9.8305416,-0.2824427,-0.1221374,0.2519084,-1.7860653,3.3734128,1.6208663,82.5190811,85.8625946,174.8396912
2760,-0.0095768,-0.1651991,9.9646168,-0.2442748,-0.2366412,0.1603053,-1.9776005,3.6846576,0.6823440,76.1068726,120.8625946,178.4580078
2770,-0.0383070,-0.0957676,9.8880024,-0.2900763,-0.2061069,0.3282443,-1.9009864,3.8857694,0.0861908,64.9542007,149.1832123,185.5954132
2780,0.0167593,-0.1604107,9.9622221,-0.2977099,-0.1832061,0.3664122,-1.8602852,3.9288650,-0.4022238,48.2824440,172.6183167,193.6335907
2790,-0.0383070,-0.1292862,10.0196829,-0.3816794,-0.0534351,0.3740458,-1.8363433,4.0222383,0.0383070,30.4122143,190.6183167,203.3053436
2800,-0.0143651,-0.1580165,9.8999729,-0.4122137,-0.2442748,0.3511450,-1.9345051,4.0557570,0.5578461,11.3129768,196.7557220,210.2671814
2810,-0.0167593,-0.1244979,9.9670105,-0.2900763,-0.3587786,0.4656489,-1.5969244,3.7804251,0.9169745,-5.4732823,192.8931274,216.3053436
2820,-0.0239419,-0.1101327,9.8975792,-0.3358779,-0.3282443,0.3435115,-1.3742647,3.8283088,1.3359578,-18.9160309,180.0458069,222.8015289
2830,0.0000000,-0.1292862,9.8209648,-0.2366412,-0.2137405,0.3893130,-1.1300575,3.5721307,1.1516051,-31.9465656,158.1603088,232.9389343
2840,-0.0023942,-0.1053443,9.9287033,-0.2213740,-0.4656489,0.4274809,-0.0359128,2.9687948,0.8762733,-47.2137413,141.6183167,243.8244324
2850,-0.0263361,-0.1364688,10.0101061,-0.2900763,-0.2671756,0.3358779,1.3239868,1.9895715,0.6344602,-62.7099228,133.4198456,250.1297760
2860,0.3567342,-0.1771700,10.0148945,-0.1297710,-0.7251908,-1.0839695,2.5857246,1.2090657,0.8259954,-75.6183243,128.5954132,250.1297760
2870,-0.4141948,-1.1803354,9.8401184,0.7251908,3.6946564,-17.2900772,3.8402798,0.5841822,1.2665262,-85.7404556,119.7404556,249.1603088
2880,-0.8523315,-1.8171898,9.8209648,2.3358779,8.9389315,-48.3664131,4.9487896,0.3950413,1.4149660,-92.9618301,108.6564865,239.2519073
2890,-0.2801202,-1.1013272,9.8951855,3.3053436,1.4580153,-71.7633591,6.4619174,0.4501076,2.1978660,-97.9923630,89.4274826,219.6335907
2900,0.1795642,0.0071826,10.2447367,3.5038168,0.2137405,-81.8854980,9.1003141,1.2904681,3.0334380,-99.3511429,56.4198456,185.5114441
2910,-0.9744351,0.2729376,9.9502516,3.3206108,4.3129773,-87.8091583,12.0523500,2.3271523,3.5338237,-99.5877838,10.6793890,132.5496216
2920,-3.8259149,-0.2226596,9.8449068,5.3816795,-5.6641221,-103.3664093,14.6237087,3.1866663,4.0581512,-101.5877838,-40.4961815,63.5877876
2930,-4.1251884,-0.2106887,9.9334917,5.7557254,-21.2366409,-118.9465637,17.1663380,4.0820932,4.7907729,-102.4732819,-87.5801544,-15.4122133
2940,-3.7325413,-0.6727672,10.6278067,6.9694657,-48.6946564,-126.5648880,19.6126022,4.9032998,5.1977854,-99.2748108,-111.5038147,-97.5496216
2950,-5.3558016,0.6679789,6.7444315,-11.9847326,4.5725193,71.5343475,19.6126022,5.2648225,5.6885943,-93.0000000,-96.0305328,-189.0152740
2960,-3.5457945,1.8459201,9.6797075,-13.6106873,-14.0763359,190.0763397,19.6126022,4.0389977,6.4691000,-80.1603088,-51.5114517,-250.1374054
2970,-0.6871324,1.5753766,9.6653433,-16.9541988,-6.4045801,214.2900696,19.6126022,1.5897418,7.6494355,-59.4809151,-6.7404580,-250.1374054
2980,0.8020535,1.3215926,9.9215212,-17.3053436,29.8549614,216.3587799,19.6126022,-2.2864509,8.7986460,-32.1832047,14.7175570,-250.1374054
2990,0.4357425,-2.7030399,10.0029240,-16.7328243,8.4885492,218.8244324,15.5167418,-7.6614060,9.8401184,-1.0076336,10.5648851,-250.1374054
3000,0.6607963,-4.2616572,10.3428984,-15.7633591,0.5496183,214.2519073,8.4419117,-14.5806141,11.1114330,29.3358784,-24.5343513,-250.1374054
3010,2.2074428,-3.3566537,10.5727406,-13.3740454,4.2824426,178.0610657,0.3471575,-19.6131992,12.5790710,56.1526718,-82.0534363,-250.1374054
3020,2.1523764,-3.1531475,10.2495251,-18.3053436,-14.6335878,139.8854980,-12.1936073,-19.6131992,13.5151997,85.1450348,-176.6717529,-250.1374054
3030,1.5729824,-4.6399393,9.9215212,-20.2748089,-26.0381680,111.9236679,-19.6131992,-19.6131992,12.4833040,111.6793900,-250.1374054,-250.1374054
3040,0.3639168,-2.8179610,9.8832140,-15.0076332,-37.0076332,95.0610657,-19.6131992,-17.5398312,9.3493099,92.9007645,-250.1374054,-250.1374054
3050,1.1683644,-0.7302278,9.8927908,-11.2213745,-33.1068687,90.5496216,-19.6131992,-3.7445123,9.6294298,26.1297703,-250.1374054,-250.1374054
3060,2.5019281,0.4357425,10.4673967,-5.7709923,-39.7099228,81.8320618,-19.6131992,6.9455438,12.7538471,-10.8702288,-250.1374054,-250.1374054
3070,3.6176202,-0.7852941,10.6972389,-1.8396946,-42.8549614,60.9312973,-19.6131992,4.7357068,14.9828377,30.3664131,-46.8778610,37.0992355
3080,2.8826041,0.5362985,11.6357603,0.8320611,-41.9771004,48.1603050,-19.6131992,-0.8451489,13.0866394,107.7328262,226.7099304,223.1068726
3090,0.9313397,-0.2035061,11.1617117,1.9236641,-61.9236641,42.5725174,-18.7512913,-2.9999194,9.1529865,154.0076294,250.1297760,250.1297760
3100,0.6919208,-0.4740495,12.3779593,5.8244276,-105.6870193,45.1145020,-5.2600341,-1.2617378,5.8537931,145.5267181,250.1297760,250.1297760
3110,1.0582317,-0.6440369,11.6884327,8.5114508,-146.5877838,48.0458031,-0.3016679,1.1851238,5.3055239,112.6870193,250.1297760,156.6870270
3120,2.0518203,-1.2952565,12.7107515,8.5801525,-192.4045868,52.7022896,-1.5777708,2.5713594,5.4395986,85.2137375,202.1374054,45.1603050
3130,3.3542595,-1.1659702,9.5240860,8.7328243,-227.6793823,54.0610695,-5.2791877,3.7852135,4.5417776,70.4122162,43.8549614,-35.5877876
3140,3.5553713,0.2489957,12.6389265,12.9847326,-250.1374054,81.5725174,-8.0372944,4.6997938,3.0382264,58.3587799,-44.0610695,-73.9236679
3150,3.5529771,1.8961980,10.8097658,17.3587780,-250.1374054,85.7404556,-9.3876171,5.2624283,2.2289903,45.9923668,-53.9389305,-77.5267181
3160,4.3741841,2.3582766,9.3445215,16.5496178,-250.1374054,71.9618301,-9.8353300,5.1714492,2.3008161,41.9541969,-21.8625946,-66.6564865
3170,4.5034704,2.4492557,6.8904772,8.5190840,-250.1374054,62.8396950,-9.7539282,4.6854286,2.2074428,49.6946564,16.5419846,-48.1526718
3180,5.6263452,2.6551561,6.9192076,-4.8931298,-230.5038147,67.4732819,-9.1625633,4.2018023,1.8219782,60.8625946,34.8854980,-33.4274826
3190,5.2336984,2.4564383,8.2982607,-16.0152664,-162.6259613,71.1068726,-8.0516596,4.0509686,1.0941446,67.7480927,22.0534344,-27.5725193
3200,6.1315193,1.4413021,7.5225434,-20.3129768,-115.1908417,70.7862625,-6.7037306,3.7923961,-0.1125269,64.2595444,-10.6030531,-29.7633591
3210,9.4139528,-1.1899122,7.0245519,-21.4656487,19.5648861,29.3969460,-5.4635406,3.5266411,-0.9121862,52.2748108,-42.1450386,-37.8702278
3220,2.6024840,-3.2776453,12.5551291,-11.7404585,77.6717529,-13.9618320,-4.7500720,3.2824337,-1.3814473,34.9007645,-63.1221390,-49.9160309
3230,4.3406653,-1.8459201,14.7721491,26.9541988,80.7938919,-7.0763359,-4.6758518,2.9233053,-1.3263810,16.2213745,-75.5877838,-60.8625946
3240,6.3110833,-1.7980363,15.8998117,78.0687027,99.0457993,-13.4656487,-5.1738434,2.5162930,-0.8930327,-0.0992366,-80.2748108,-72.3206100
3250,11.5926657,-1.1085097,14.9852314,120.8931274,91.6335907,-59.3893127,-6.0405402,2.2242019,-0.3040621,-12.2213745,-69.5267181,-79.6106873
3260,6.8928714,0.8882443,15.3491488,146.3664093,157.1908417,-112.4198456,-7.3836803,1.9823889,0.1556223,-20.3282452,-45.8625946,-80.5877838
3270,5.9687142,-0.1891410,14.4632988,164.1679382,250.1297760,-111.1984711,-8.8082228,1.7836711,0.9768293,-25.2061062,-19.0839691,-75.5801544
3280,5.6670465,-1.2330076,14.9301653,196.6488495,250.1297760,-103.8320618,-10.0172882,1.6543850,1.8387375,-26.4198475,1.1908396,-66.3664093
3290,5.3174949,-2.4348907,13.1584654,229.2213745,250.1297760,-103.7786255,-10.9151096,1.8315549,2.8658447,-24.6641216,13.8396950,-53.5419846
3300,6.6630292,-2.6407909,9.7251978,234.8091583,250.1297760,-118.3587799,-11.1664991,1.3670821,3.4165084,-22.4809170,17.8702297,-41.5496178
3310,5.6311336,-1.4341195,6.8976598,222.9007568,250.1297760,-139.4198456,-10.8815908,1.3287752,4.0126615,-19.6030540,14.7709923,-32.4961815
3320,3.6942344,0.3567342,5.3294659,194.4198456,250.1297760,-157.4503784,-10.6804790,1.3814473,4.6830344,-14.3206110,5.3206105,-28.5648861
3330,1.5825592,1.9297167,4.9104824,161.8473358,239.6488495,-165.4198456,-11.1784706,1.2449785,4.6997938,-13.5343513,-22.4503822,-32.1374054
3340,-1.7190280,4.0868812,6.6726060,131.6183167,237.1374054,-160.4961853,-11.7554703,1.4413021,4.8554163,-16.5038166,-68.9542007,-40.6335869
3350,-3.9312592,4.4148855,7.1275020,113.4274826,250.1297760,-144.7022858,-12.7969427,1.4843974,4.3526363,-28.3969460,-125.7709961,-49.4809151
3360,-2.5378408,2.5617826,6.3876977,100.3282471,225.1450348,-140.3282471,-13.1273403,1.5825592,4.6255741,-35.3358765,-133.0839691,-47.0610695
3370,-1.0055596,0.8786675,5.5880380,82.0000000,215.1908417,-131.6183167,-12.4904861,1.5969244,4.9775200,-29.8244267,-100.7862625,-34.5038185
3380,-1.1372399,0.4381367,5.2432747,50.8625946,250.1297760,-103.4351120,-11.5615406,1.3910241,5.1714492,-18.2061062,-58.9694672,-23.5114498
3390,-1.1444225,0.4381367,5.0780759,27.6641216,250.1297760,-77.9923630,-11.0946741,0.8595140,5.4036856,-7.7251906,-27.1221371,-19.4045811
3400,-2.5354466,0.6607963,4.9368186,21.6717548,250.1297760,-73.6335907,-12.2917690,0.9672526,5.8083038,1.7022901,6.8931298,-16.3358784
3410,-4.0988522,1.6926919,4.3119354,24.2671757,250.1297760,-75.4656525,-14.0251617,1.2449785,6.2871413,7.1450381,19.3664131,-8.4961834
3420,-4.7955613,2.2984219,3.4691806,29.3969460,250.1297760,-71.0000000,-15.4736462,1.1444225,6.3589673,7.4580154,5.5572519,3.7786260
3430,-4.9751258,2.6575503,2.8610563,34.9923668,198.9847260,-65.3435135,-16.6444054,0.9792235,6.3733325,4.6335878,-11.5343513,16.4580154
3440,-5.6790175,3.1387823,2.5785420,36.7328262,103.8091583,-65.2213745,-18.1599274,0.6272776,5.9854736,1.8473282,-19.0687027,31.4274807
3450,-6.0429344,3.8642218,2.3103929,30.6946564,0.4351145,-68.5725174,-19.6131992,0.0766141,6.0788469,-0.8473282,-19.9923668,51.3053436
3460,-4.9894910,4.2305326,2.1643472,17.7175579,-83.0610657,-73.1221390,-19.6131992,0.6009415,6.0860295,-2.7404580,-22.2519093,78.5267181
3470,-3.6415622,4.6279683,2.3582766,2.4122138,-132.6183167,-78.8015289,-19.6131992,1.5083394,6.3206601,-5.3664122,-19.3587780,117.9312973
3480,-4.0198441,3.6224086,2.6575503,-10.7099237,-185.5954132,-76.1603088,-19.6131992,1.5681942,6.7157016,-7.4427481,-12.7557249,164.5954132
3490,-3.7469065,3.6056492,3.7349355,-23.6564884,-237.0992432,-71.5801544,-19.6131992,1.1037214,7.0748301,-5.0839696,-4.4885497,208.4961853
3500,-0.7661406,4.5369892,5.8202744,-31.6641216,-242.6946564,-64.4503784,-18.6052456,0.3710994,7.0341287,3.2366412,1.7786260,242.4351196
3510,-2.2026544,4.9990678,8.7603388,-37.1984749,-153.6335907,-49.3893127,-16.2900658,-0.1077385,6.6462698,14.7480917,13.2366409,250.1297760
3520,-0.6631905,4.2592630,10.9510221,-21.7862587,-99.3511429,-36.2748108,-14.6524391,-0.0239419,5.8849177,26.1908398,30.2595425,250.1297760
3530,-1.0271072,3.2920105,8.5137377,-3.0229008,-68.0152664,-41.2900772,-13.2183199,0.1484398,5.1163831,32.0152664,45.4045792,250.1297760
3540,-2.3295465,3.8642218,6.6941538,3.4122138,-81.6030502,-59.8167953,-12.0092545,0.4908088,4.2616572,32.1679382,61.4885483,250.1297760
3550,-2.4133430,4.4268565,5.7843618,-8.0152674,-129.1679382,-82.3358765,-10.9055328,0.8571198,3.6367738,29.2519093,79.2213745,250.1297760
3560,-2.7724714,4.4053087,5.8992829,-24.5725193,-169.6183167,-101.2137375,-9.8856087,0.8858501,2.9304879,25.0687027,97.5267181,250.1297760
3570,-3.8977404,4.2784166,6.5959921,-39.9083977,-217.8702240,-111.8778610,-8.6238708,0.7972651,2.5665710,19.9541988,116.4122162,250.1297760
3580,-4.1060348,3.7828193,7.9894104,-51.6412201,-250.1374054,-112.3587799,-7.1586266,0.5769997,2.0757623,13.9770994,132.5572510,250.1297760
3590,-3.8809812,2.1188576,9.8544836,-54.3358765,-250.1374054,-103.4198456,-5.5808558,0.3088504,1.7597293,6.7633586,143.8396912,250.1297760
3600,-3.9911139,0.9073978,12.0284081,-48.3282433,-250.1374054,-83.7709961,-4.0773048,0.0119709,1.5514348,-2.2824428,149.7175598,250.1297760
3610,-4.3765783,-0.2801202,14.0754395,-33.6717567,-250.1374054,-50.1374054,-2.7102225,-0.2011119,1.4963684,-12.1145039,152.6335907,250.1297760
3620,-3.8067613,-0.1867468,14.7146883,-8.5419846,-250.1374054,-18.4885502,-1.4317253,-0.5147507,1.6041069,-22.1832066,155.8473358,250.1297760
3630,-3.0406206,0.4070122,14.4082317,15.3511448,-250.1374054,-0.1679389,-0.3064562,-0.7374104,2.1284344,-30.3206100,153.7175598,250.1297760
3640,-0.8571198,0.9121862,13.1321287,28.0839691,-222.0610657,-7.3816795,0.8595140,-0.9337339,2.9951310,-36.4809151,146.7709961,250.1297760
3650,0.1651991,1.8818330,11.5447817,25.3129768,-178.5343475,-26.4732819,1.9632354,-1.1085097,3.7493007,-38.6259537,136.2824402,250.1297760
3660,0.7182568,2.7557120,11.2766323,20.7633591,-148.6717529,-36.0534363,2.3798244,-1.3718705,4.2975702,-37.6412201,124.1832047,250.1297760
3670,1.0103480,2.5689652,11.0755205,19.6641216,-111.8091583,-33.2213745,3.2824337,-1.6519908,4.6973996,-33.9923668,110.4122162,250.1297760
3680,0.6033357,1.0007712,10.7762470,21.0839691,-42.2977104,-10.8473282,4.4531922,-2.2768741,5.0277977,-31.6259537,97.1297684,250.1297760
3690,-0.8379663,-0.0526722,10.4889441,26.2748089,-6.4274807,22.2366409,5.9687142,-2.8251436,5.7987270,-30.8625946,81.5190811,250.1297760
3700,-1.4484847,-0.2442073,10.0172882,33.3587799,1.5877863,60.6030540,7.7906923,-2.4277081,7.3070664,-27.3511448,61.4885483,250.1297760
3710,-0.8140244,0.1412572,9.2104464,20.8320618,84.5648880,86.6488571,10.0388365,-2.3822186,8.4586716,-16.0152664,33.4885483,250.1297760
3720,-2.1547706,2.1116750,10.3093796,-15.8473282,29.8396950,117.9542007,16.3164005,-2.0183017,8.8393478,30.7480907,-12.1374044,201.2748108
3730,-3.1339941,2.1595588,12.1529055,-12.7633591,-37.1450386,150.3358765,19.0026817,-0.8690908,7.5057840,54.1221390,-32.5038185,130.8320618
3740,-0.8259954,1.0199248,11.1593170,1.7022901,-80.8244247,168.6793823,19.6126022,0.5051740,5.2624283,68.5725174,-47.5190849,48.2748108
3750,-2.8419030,1.7405758,11.2287483,21.3511448,-124.6564865,167.9618378,19.6126022,1.7573351,3.0382264,69.2824402,-53.4427490,-39.6488533
3760,1.0127422,2.8706331,11.7458935,44.9312973,-176.5419922,152.1679382,19.6126022,2.3870070,1.2904681,58.1984749,-46.4503822,-134.3664093
3770,3.6942344,3.0478032,10.4051476,68.4656525,-180.8320618,123.5419846,19.6126022,2.7844424,0.2489957,40.4351158,-36.3816795,-228.7404633
3780,5.2552457,2.1595588,9.1769285,85.6870193,-153.5877838,92.4427490,19.6126022,2.4037662,-0.1915352,19.4351139,-40.5190849,-250.1374054
3790,5.1499014,2.3510940,7.7595682,96.4732819,-133.9770966,70.1526718,16.8550930,0.8403605,-0.3974355,-1.8549619,-50.2213745,-250.1374054
3800,6.3206601,3.1962428,5.6694407,78.7709961,-87.5267181,43.6946564,13.2039547,-1.5801650,-0.3256098,-22.1221371,-62.2442741,-250.1374054
3810,5.8274570,4.1898317,4.8027439,22.5190830,-59.0687027,3.6564887,9.8520899,-3.9767487,0.1963235,-42.9007645,-89.7251892,-250.1374054
3820,3.4069316,2.7748656,7.5464849,-7.1145039,-53.2671738,1.3282443,7.1753860,-6.2631998,1.4628497,-66.4809189,-122.6412201,-250.1374054
3830,3.4189026,1.5442522,8.5400734,-13.1755724,-49.8702278,13.7709923,4.5010762,-9.0691900,3.3375001,-85.7633591,-147.0000000,-250.1374054
3840,4.5729017,1.9345051,7.9702568,-15.7480917,-29.3740463,7.1679387,-0.2418131,-11.7985659,6.0764527,-92.6641235,-163.7862549,-250.1374054
3850,4.1970143,2.7030399,6.7803445,-23.1984730,-26.1755733,-5.6335878,-5.9591374,-13.5175934,8.4059992,-86.2671738,-197.8931274,-250.1374054
3860,3.4907281,2.8969693,5.6071916,-40.2519073,-42.6106873,-14.2442751,-13.1776190,-14.1209297,9.7682934,-74.3358765,-250.1374054,-250.1374054
3870,4.0389977,3.2896163,6.1937680,-64.3511429,-39.6793900,-21.6793900,-19.6131992,-13.1297350,9.2272062,-75.7786255,-250.1374054,-250.1374054
3880,4.1539187,2.9161227,7.8026633,-91.4732819,-1.6412214,-25.4198475,-19.6131992,-11.8895445,7.5943689,-113.1679382,-250.1374054,-250.1374054
3890,3.0071020,2.8490853,8.4610653,-106.6564865,25.2213745,-24.8549614,-19.6131992,-9.4211359,8.6980906,-186.0458069,-250.1374054,-250.1374054
3900,2.6383967,2.4420733,8.7938576,-117.5190811,28.3969460,-21.8702297,-19.6131992,-4.9607606,14.5782194,-242.3587799,-250.1374054,-250.1374054
3910,3.1028695,2.3175755,11.7434988,-113.2595444,-15.2671757,-21.1297703,-19.6131992,-1.7118455,19.6126022,-220.3664093,-250.1374054,-250.1374054
3920,2.2002602,2.2601149,12.8328552,-96.3206100,-12.0305347,-22.4503822,-19.6131992,-0.9816177,19.6126022,-116.0839691,32.3206100,-87.0305328
3930,2.2936335,1.7884595,12.4689388,-69.6946564,-17.4656487,-16.9389305,-19.6131992,-2.1547706,19.6126022,26.8854961,250.1297760,118.9770966
3940,2.8155668,1.0175306,11.7650471,-42.5648842,-24.3893127,-8.7404585,-19.6131992,-2.3199697,19.6126022,143.1908417,250.1297760,244.0458069
3950,3.3422885,0.4548960,11.6261835,-16.8473282,-14.2519083,-3.7251909,-18.7297440,-2.3582766,15.7609491,197.8702240,250.1297760,250.1297760
3960,3.5601597,0.6033357,11.5495701,8.0610685,12.8931293,2.7480917,-12.1529055,-1.3694763,11.4681673,208.9618378,250.1297760,250.1297760
3970,3.4667864,0.1556223,11.5423870,29.3816795,56.7404594,12.4198475,-8.2455883,0.2968795,8.3174143,197.3740387,250.1297760,209.3969421
3980,2.7988074,0.5171449,10.7044210,46.0381660,68.8702316,29.3282452,-5.4300218,1.2114599,5.7053533,180.2213745,214.2748108,136.1374054
3990,3.0741394,1.6567791,9.6102762,53.2290077,88.5572510,40.5114517,-4.2903876,2.8538737,2.7054341,157.4274750,76.3664093,67.3511429
4000,0.6488253,2.0829449,8.4443064,53.3053436,110.4961853,66.0457993,-4.4819226,3.8307030,0.0095768,120.0687027,-25.4427490,18.9770985
4010,1.9249283,1.3096216,7.5512733,45.8167953,127.8015289,85.1984711,-4.5824785,4.5944495,-1.3191984,78.9770966,-83.0839691,-6.1755724
4020,2.5258698,1.4269369,7.5943689,32.9847336,138.5343475,94.1145020,-4.4938936,4.7548604,-0.9289455,45.6946564,-100.4809189,-19.2442741
4030,2.8490853,1.7740943,7.8266053,14.8931293,120.4274826,88.4580154,-4.3478479,4.5345950,0.0311245,27.1755733,-99.0305328,-27.3206100
4040,3.6774750,2.1667414,7.4028339,-12.2366409,64.5877838,65.3358765,-4.4196739,3.8690102,1.3263810,19.2213745,-99.0610657,-35.0228996
4050,4.9607606,2.5522060,7.5704269,-31.0687027,24.3587780,37.6793900,-4.6662750,3.5577655,1.9871773,17.9770985,-96.9847336,-41.8244286
4060,3.9264708,2.9687948,8.4251528,-35.0458031,4.2977099,18.8244267,-4.7285242,3.3111639,2.2553265,20.5801525,-89.2900772,-46.2213745
4070,4.1180058,1.7788827,8.8944139,-27.7862587,11.0610685,6.3587785,-4.8961172,3.2441268,2.4013720,26.5572510,-72.4656525,-47.7251892
4080,2.6934631,1.5634058,10.4530315,-20.1755733,-15.6412210,-0.1679389,-5.0828643,3.0334380,2.4085546,35.2748108,-45.5725174,-44.4656487
4090,2.5450234,1.2114599,12.8184900,-7.6183205,-43.9083977,-3.9007633,-5.3079181,2.8658447,2.4133430,45.6946564,-14.0992365,-40.2595406
4100,2.5785420,1.2330076,12.1337519,13.6717558,-42.5877876,-7.6412215,-6.0118098,2.9017577,1.8938038,54.9923668,9.0076332,-37.8015251
4110,3.3015873,1.4915800,10.5272512,21.8015270,-52.2595406,-10.2671757,-6.6630292,2.9927368,1.1109039,58.4809151,17.5114498,-34.9541969
4120,3.6702924,1.5801650,11.4514084,24.5648861,-27.2977104,-13.2137403,-7.0460997,2.9520357,0.3639168,53.2671738,14.9236641,-33.0534363
4130,3.6918402,1.4628497,11.9134865,29.5877857,-10.6259546,-15.4122133,-7.0077925,2.8826041,-0.1268920,39.5496178,7.0458016,-32.8473282
4140,3.5793133,1.8339491,12.8448267,34.8473282,5.2977099,-21.3129768,-7.2663651,2.6120608,-0.1843526,20.9770985,-5.7099237,-36.2442741
4150,3.6367738,1.4987626,16.1200771,53.8167953,9.9923668,-22.4045811,-7.5249376,2.3486998,0.2801202,1.7175573,-23.4580154,-41.5954208
4160,2.9017577,0.8283895,19.6126022,95.8167953,-42.6641235,-28.0458012,-7.7547798,2.3846128,1.0773853,-14.6870232,-42.8854980,-49.2366409
4170,2.8442972,-0.6272776,19.6126022,174.7633514,-146.8931274,-58.4656487,-8.1593981,2.4660151,1.9680238,-26.9236641,-54.5190849,-55.1908379
4180,1.5466464,-1.2952565,19.6126022,250.1297760,-242.4961853,-95.8702316,-8.5903521,2.4588325,2.7748656,-33.9465637,-57.3740463,-58.2137413
4190,-2.7820482,-1.0151364,17.4320927,250.1297760,-250.1374054,-106.9236679,-9.0548248,2.3056045,3.8905578,-35.3816795,-54.0458031,-57.4809151
4200,-3.7900019,-1.1635761,7.1131368,250.1297760,-192.4351196,-88.3435135,-9.2966375,1.7860653,4.7788019,-32.1145020,-48.5343513,-59.1832047
4210,-5.2336984,-0.2346306,-1.5298871,250.1297760,-105.6488571,-42.5648842,-9.7084379,1.7070571,5.6526814,-25.1068707,-43.9389305,-62.6641235
4220,-2.6120608,1.5394639,-3.4835455,231.5801544,-53.1374054,-5.3664122,-10.4386663,1.6328372,6.3685441,-15.8320608,-44.8015251,-67.5343475
4230,0.1939293,3.7876077,-0.7565638,160.2519073,-33.4198456,18.4351139,-11.3316984,1.7597293,6.6031747,-5.2290077,-52.5190849,-70.5190811
4240,1.9823889,4.0677280,2.1882892,118.2442780,-28.9389305,23.0076332,-12.3947191,1.7860653,6.8330169,5.1908398,-67.0839691,-72.5725174
4250,2.2936335,4.0246325,6.4379754,106.1450348,-75.0763321,25.6106873,-13.4553452,1.2545552,6.4834652,13.2290077,-83.0457993,-72.9312973
4260,3.0669568,3.7469065,10.0460186,120.9236679,-174.4274750,25.3893127,-14.6165266,1.1013272,6.1554613,15.9770994,-88.9694672,-72.3664093
4270,3.2034254,3.2537034,10.0723553,158.0915985,-250.1374054,29.0610695,-16.2206345,1.4867916,6.2368636,14.7633591,-86.0076370,-66.6946564
4280,4.5872669,4.1826491,5.8106980,183.4045868,-250.1374054,38.3587799,-17.7888279,1.8746504,6.6893654,12.9465647,-78.6030502,-51.2824440
4290,7.3956513,5.1139889,1.3910241,179.8702240,-250.1374054,40.1679382,-19.2540722,2.1404054,7.3932571,12.5877867,-70.6259537,-26.3816795
4300,10.3452930,6.2799587,-0.3854645,161.4961853,-154.0305328,27.9847336,-19.6131992,1.6615674,8.1091194,15.4656487,-68.0152664,0.4885496
4310,11.3053627,7.6207051,-1.0725969,124.5114517,-26.9618320,10.2442751,-19.5964413,0.5075682,9.0236998,20.2290077,-70.6641235,21.2519093
4320,11.3580351,8.5688038,-2.4492557,67.2595444,78.9389343,-5.1450381,-19.0601425,-0.1819584,10.3117743,26.8854961,-85.2442780,31.4351139
4330,11.9517937,8.6549950,-2.5091105,2.0458016,184.2519073,-22.0610695,-18.4448357,-0.4477134,11.3293047,35.4045792,-119.8702316,32.2137413
4340,11.1210098,8.2862902,-1.7884595,-53.0534363,250.1297760,-37.4427490,-17.9516335,-0.8212070,12.0786858,45.7862587,-168.7099304,28.3816795
4350,9.9957409,7.7452030,-0.8666966,-93.8167953,250.1297760,-48.8167953,-17.2094345,-0.8547257,12.0475616,57.6335869,-215.1450348,24.5648861
4360,8.1115141,7.6494355,-0.3303981,-123.2824402,250.1297760,-60.6564903,-17.0490227,-0.8714849,11.3412752,70.0381699,-229.7099304,29.7251911
4370,6.4882536,7.3214312,-0.8571198,-145.6641235,250.1297760,-74.9542007,-17.1352139,-0.4333483,10.6110477,82.7557220,-212.4732819,51.0076332
4380,5.7676024,6.4403696,-1.4460905,-167.2290039,250.1297760,-92.5725174,-16.8622761,0.1125269,9.7491398,100.2366409,-165.1679382,89.6564865
4390,4.4388270,7.0724359,-2.9735832,-193.5801544,250.1297760,-122.7175598,-15.9668493,0.4908088,8.6573887,123.1297684,-98.1526718,138.5801544
4400,-2.1787124,5.4276276,-1.4843974,-221.3587799,250.1297760,-116.0687027,-14.1951494,0.7493813,7.1729918,146.1984711,-11.7862597,187.5267181
4410,0.2968795,3.7038112,-0.7445929,-247.4503784,250.1297760,-114.5801544,-12.2654324,1.1731528,5.2241216,163.9541931,85.6183243,233.7099304
4420,-1.3431402,3.5721307,0.5578461,-250.1374054,250.1297760,-118.3206100,-10.4865494,1.3838415,3.6990228,170.0000000,169.5114441,250.1297760
4430,-1.9728121,2.2265961,1.4101776,-250.1374054,250.1297760,-114.0381699,-8.7866755,1.3598996,2.6982515,163.7786255,222.9770966,250.1297760
4440,-2.4708035,1.5274929,1.6543850,-250.1374054,223.9847260,-111.7099228,-7.1107426,1.3646880,1.7932479,148.8854980,246.2748108,250.1297760
4450,-2.1380112,0.4979914,1.9225341,-250.1374054,164.2671814,-109.3969498,-5.4826937,1.4604555,0.7637464,130.0000000,250.1297760,250.1297760
4460,-2.0853391,-0.3782819,3.0501974,-250.1374054,93.7328262,-107.9236679,-4.0581512,1.4365137,-0.4908088,107.2824402,246.4732819,250.1297760
4470,-1.3335636,-1.2713146,4.8865409,-250.1374054,23.7099228,-108.9389343,-2.2792683,1.4484847,-1.5969244,80.7709961,240.6488495,250.1297760
4480,-1.5610116,-1.1731528,8.3198080,-250.1374054,-47.6259537,-112.7938919,-0.8643024,1.5418580,-2.2696917,50.8854980,241.6793823,250.1297760
4490,-1.7262106,-1.5681942,10.7259684,-231.4885559,-112.0152664,-109.9465637,-0.0071826,1.3814473,-2.4444675,19.0916023,250.1297760,250.1297760
4500,1.9847831,0.1077385,17.0226879,-196.2213745,-163.5038147,-113.2213745,0.0766141,1.0773853,-1.8387375,-11.8015270,250.1297760,250.1297760
4510,-1.8339491,1.4628497,19.6126022,-212.4885559,-152.2900696,-174.5496216,0.2609667,0.6009415,-0.9145803,-37.9389305,250.1297760,250.1297760
4520,-2.9807658,-4.8817525,19.6126022,-162.4580078,-181.3511505,-194.1755676,0.2849085,0.3184272,0.1244979,-57.4274826,250.1297760,250.1297760
4530,-4.3813667,-7.0389171,19.6126022,-63.1145020,71.6488571,-172.7938995,0.2705434,-0.3471575,1.3191984,-72.7709961,250.1297760,250.1297760
4540,-9.0356712,-6.0237808,19.6126022,22.7557259,79.5419846,-104.1221390,0.7469871,-1.5681942,2.6168492,-84.7328262,233.5954132,250.1297760
4550,-8.2599535,-4.9966736,13.9270000,82.6717529,73.9312973,-27.3740463,1.9345051,-2.4253139,3.8522508,-91.8091583,193.5877838,250.1297760
4560,-8.0420828,-3.6607156,10.6828737,108.9847336,82.2137375,37.5496178,3.5529771,-2.9233053,4.8649931,-92.0229034,141.6106873,250.1297760
4570,-6.6414814,-1.5227045,7.7308378,114.5725174,43.9236641,78.1297684,5.7101417,-3.2967989,5.1666608,-86.3282471,87.0763321,250.1297760
4580,-3.6918402,0.0574605,5.6646523,109.0534363,0.1679389,88.1908417,7.9965930,-3.2920105,4.8530221,-80.3969498,24.6106873,250.1297760
4590,-2.8179610,0.5578461,4.2113791,91.1832047,-46.1297722,79.1755753,11.4729557,-2.7509236,3.9264708,-78.0152664,-46.1374054,250.1297760
4600,-1.9728121,1.6567791,4.2353210,64.0610657,-88.9542007,60.0076332,15.0498753,-2.1475880,2.8299320,-80.3969498,-108.9770966,214.3664093
4610,-1.0606259,2.4181314,4.7764082,38.2442741,-108.3282471,45.4198456,18.3801918,-1.4269369,1.6184721,-86.8015289,-137.5648804,146.6717529
4620,-0.6368544,2.3056045,5.6071916,16.8320618,-107.3435135,35.9465637,19.6126022,0.1125269,0.6919208,-94.2213745,-124.9542007,68.6946564
4630,-0.0742199,1.5155219,6.7875271,-2.7480917,-112.1526718,31.2137413,19.6126022,-0.0981618,1.1563935,-100.2290039,-80.4274826,-9.0687027
4640,0.8140244,1.3168042,7.8409705,-20.1145039,-108.0610657,27.8549614,19.6126022,1.5370697,2.4348907,-94.5877838,-7.7404580,-93.7175598
4650,1.4748207,1.2593436,8.8585014,-37.0992355,-85.8167953,25.0381680,19.6126022,1.5322813,3.2345500,-84.1755753,51.1526718,-185.1984711
4660,1.9871773,0.9193687,9.8951855,-52.6030540,-55.3969460,22.0534344,19.6126022,0.8451489,3.2153964,-76.2595444,84.0916061,-250.1374054
4670,3.6463506,0.4118006,12.7346935,-64.1145020,18.2519093,17.5572510,19.5054607,-0.6991033,3.2082138,-72.7633591,104.6564865,-250.1374054
4680,1.7860653,0.1221037,12.7299051,-67.5801544,22.5954189,15.3893127,16.5677910,-2.3894010,3.7038112,-70.4656525,114.5954208,-250.1374054
4690,1.1180865,-0.0622489,11.9541883,-58.1221390,10.4045801,18.2519093,13.6492739,-5.0493455,5.2073622,-63.6335869,110.3664093,-250.1374054
4700,0.7278336,-0.0263361,11.1569233,-36.5954208,4.2519083,20.3664131,10.6900558,-8.8896255,6.6175399,-47.5877876,105.9389343,-250.1374054
4710,0.9337339,0.1747758,11.0827026,-13.6335878,-8.0610685,18.1679382,6.0453281,-13.5582952,8.2599535,-18.4045811,93.8473282,-250.1374054
4720,1.4317253,0.4812321,11.4992924,7.3358779,-15.8549614,9.6106873,-0.1053443,-17.4177284,9.7323799,22.0992374,51.7022896,-250.1374054
4730,1.3455344,0.6033357,11.4561968,21.9847336,-15.5114508,0.6488550,-9.5719690,-19.6131992,10.4673967,65.5572510,-50.0763359,-250.1374054
4740,0.7876883,0.6105183,10.8361015,29.7251911,-16.5419846,-3.4351146,-19.6131992,-19.6131992,9.1793222,95.8244247,-225.9923706,-250.1374054
4750,0.6655847,0.6153067,10.0340481,32.4580154,-18.3664131,-4.3816795,-19.6131992,-19.3713875,6.2512288,78.9542007,-250.1374054,-250.1374054
4760,0.8307837,0.8259954,9.5959110,31.6946564,-16.1221371,-5.5801525,-19.6131992,-14.8032732,3.9982965,-17.8091602,-250.1374054,-250.1374054
4770,1.0151364,0.9624642,9.4019823,28.8702297,-12.1908398,-8.3511448,-19.6131992,-5.6933827,6.1865854,-156.3206177,-250.1374054,-250.1374054
4780,0.8331779,0.9361281,9.2080526,23.5725193,-9.5648851,-11.5038166,-19.6131992,0.2274480,14.3962612,-238.7251892,-250.1374054,-250.1374054
4790,0.8331779,1.0749911,9.1458035,17.2824421,-8.6717558,-14.1374044,-19.6131992,-2.6455793,19.6126022,-225.7633514,-250.1374054,-159.5114441
4800,0.9816177,1.1492109,9.1865053,10.5419846,-5.9236641,-17.4809170,-19.6131992,-5.2217274,19.6126022,-127.9923630,-250.1374054,23.0992374
4810,1.0941446,1.2497669,9.2583303,3.0458016,-2.9847329,-21.9312973,-19.6131992,-5.8011212,19.6126022,12.1603050,-21.5877857,156.3129730
4820,1.0295014,1.1300575,9.3612804,-2.9770992,3.1145039,-24.9541988,-14.2526102,-5.3917146,19.6126022,130.1221313,250.1297760,225.3816833
4830,0.6847382,1.1109039,9.4618368,-7.5190840,5.6488547,-26.7099228,-7.3621325,-3.8714044,19.6126022,190.6793823,250.1297760,226.0305328
4840,0.4213773,0.9840119,9.7012558,-10.3969469,6.3282442,-26.9847336,-4.3813667,-1.2880739,14.1664190,199.3587799,250.1297760,174.5801544
4850,0.2011119,0.7541697,9.9119444,-11.1603050,8.1145039,-25.8625946,-4.2927818,0.7948709,9.8592720,173.1450348,171.8549652,104.6259537
4860,-0.0909792,0.6081241,10.1298151,-10.1221371,10.0687027,-22.9160309,-4.1970143,2.5881188,6.3637557,130.2290039,14.0534353,45.5648842
4870,-0.3782819,0.4596844,10.0077124,-8.2977095,7.8931298,-18.8015270,-3.4284792,3.3207407,4.7668314,91.3893127,-72.7022934,5.6793895
4880,-0.3806761,0.4405309,9.9646168,-7.2977099,2.8549619,-14.8778629,-2.9448531,3.2704628,4.5729017,69.4351120,-90.6870193,-20.1221371
4890,-0.3878587,0.2561783,9.9837704,-6.2671757,2.7480917,-9.7709923,-3.3662305,3.1531475,4.6279683,63.5954208,-59.0076332,-32.6259537
4900,-0.6081241,0.4405309,9.9167328,-7.7938933,5.2900763,-4.1984735,-4.0389977,3.0501974,4.4316444,64.0839691,-11.2824430,-35.0687027
4910,-0.6943150,0.5099624,9.7251978,-10.9160309,0.4503817,1.1679389,-4.8482337,3.0501974,4.2736282,65.2061081,20.7404575,-33.2519073
4920,-0.6488253,0.5769997,9.8329363,-12.9389315,-2.4732823,5.8244276,-5.6407104,3.1411765,3.8833754,63.3435097,33.4351158,-30.7251911
4930,-0.2657550,0.6943150,9.9382801,-12.5267172,-6.5725193,9.0916033,-5.7364779,3.1004753,3.5625539,58.5267181,28.4351139,-27.9389305
4940,0.0909792,0.7996593,10.1274214,-10.5572519,-4.2290077,10.3358774,-5.2648225,2.9616125,3.3207407,53.0534363,19.5114498,-26.9541988
4950,0.2585725,1.0055596,10.1609402,-8.4122133,-3.3206108,9.5038166,-4.8482337,2.7868366,3.3925664,48.3893127,10.6793890,-29.3893127
4960,0.4932030,1.0917504,9.8736372,-6.4427481,-3.4809160,5.8778625,-4.4843168,2.6096666,3.2800395,44.1450386,1.0305344,-34.6030540
4970,0.6967092,0.8595140,9.7156210,-4.7251906,-7.7175574,-3.4885497,-4.7381010,2.5761478,3.1292057,33.3664131,-11.9312973,-46.1221390
4980,0.6344602,0.6129125,9.9215212,-4.6183205,-10.1526718,-7.6412215,-5.1810260,2.3486998,3.1100521,28.2900772,-11.8854961,-49.5954208
4990,0.6655847,0.4381367,10.1202393,-3.7633588,-11.4656487,-9.9389315,-5.8753409,2.4396791,2.7820482,23.2213745,-7.3969464,-50.6793900
5000,0.5099624,0.1460456,10.2782555,-2.2137403,-11.4656487,-11.1374044,-6.3039007,2.4396791,2.4612267,15.4809160,-2.1374047,-48.7251892
5010,0.3567342,0.1388630,10.2734671,-0.0610687,-10.6106873,-9.9312973,-6.4882536,2.2984219,2.3965836,3.0763359,4.5419846,-46.3816795
5020,0.2729376,0.1436514,10.2255831,3.0000000,-11.6259546,-7.8778625,-6.6773944,2.3223639,2.5186872,-12.0992365,12.6335878,-43.6870232
5030,0.3112446,0.3471575,10.2255831,6.3358779,-10.8015270,-6.8244276,-7.2208753,2.2481439,3.1914546,-27.4274807,17.4503822,-42.4503822
5040,0.5362985,0.5003856,9.9478569,9.2824430,-9.3587790,-7.0687022,-7.6422529,2.0326669,4.1323709,-39.8625946,21.4580154,-41.0152664
5050,0.5362985,0.8954269,9.9095497,9.4045801,-9.7251911,-7.4351144,-7.8074517,1.7908537,5.1882086,-48.6259537,21.6030540,-41.4656487
5060,0.5817881,0.8978211,9.8544836,9.1679392,-9.0076332,-8.1755724,-7.9199786,1.5897418,6.4188218,-52.7175560,19.0229015,-44.1755714
5070,0.6033357,0.9265513,9.7084379,9.0687027,-3.1832061,-9.3358774,-8.0803890,1.4149660,7.5680327,-51.6793900,17.3435116,-47.9771004
5080,0.4357425,0.8116302,9.7299862,9.1603050,-0.6946565,-9.3511448,-8.0109577,1.1156923,8.6717539,-46.0228996,18.6412220,-53.1221390
5090,0.2418131,0.8882443,9.9837704,6.8167939,-6.5725193,-6.4580154,-7.9511032,0.6200951,9.4235296,-36.1679382,26.9541988,-60.3816795
5100,0.2992737,0.7781116,10.0125008,2.6793892,-7.5954199,-2.9847329,-8.3940287,-0.1268920,10.0388365,-24.4809170,42.8854980,-69.3969498
5110,0.3734936,0.6320660,9.7443514,-0.9541985,-6.0229006,-0.9160305,-9.7251978,-0.5027798,10.8408899,-10.5572519,61.4045792,-79.8778610
5120,0.3710994,0.5051740,9.5384512,-3.5954199,-7.6030536,0.5648855,-11.8105364,-0.7613522,11.5112629,5.6412215,77.1984711,-84.0152664
5130,0.4716553,0.5793939,9.4642305,-5.2824426,-9.6030531,1.9312977,-14.3699255,-1.4604555,12.1840305,22.7099228,88.1450348,-80.7099228
5140,0.5506636,0.4884146,9.5647869,-6.8625956,-12.0534353,2.3206108,-16.6252518,-1.9584470,12.6987810,44.1297722,98.2595444,-68.9465637
5150,0.6655847,0.3375807,9.4235296,-8.2519083,-19.1068707,2.9007633,-19.6131992,-1.8171898,13.3236647,74.0992355,100.5877838,-48.9694672
5160,0.8978211,0.5147507,9.6844959,-8.8396950,-20.5725193,3.1755726,-19.6131992,-0.9744351,12.7227230,109.8549652,97.7709961,-19.0839691
5170,0.9720409,0.5027798,9.7946291,-8.4427481,-19.0839691,2.7175572,-19.6131992,-0.3064562,11.0539722,139.4885559,97.8931274,18.4198475
5180,1.0869620,0.4213773,10.0747490,-8.3587790,-15.3816795,1.8320611,-19.6131992,0.3064562,8.3844519,156.2595367,98.7633591,55.9236641
5190,1.0965388,0.5243275,10.3476868,-6.6259542,-9.9541988,0.6106870,-19.6131992,0.7350162,5.8585815,158.9084015,95.8473282,92.2824402
5200,1.0079538,0.4405309,10.4027529,-3.2671757,-4.3816795,-0.4732825,-19.6131992,1.1228749,3.4404502,145.9007568,92.0381699,124.8702316
5210,0.9050036,0.4836263,10.3883877,0.4503817,-4.9083967,-0.5190840,-18.1144371,1.2737088,1.6256547,118.0457993,100.3053436,153.3435059
5220,0.8355721,0.5698171,10.4865494,3.4885497,-4.1526718,0.7938932,-15.9524841,1.3311694,0.2346306,81.1603088,126.9694672,176.8702240
5230,0.7565638,0.7565638,10.3883877,6.0916033,-3.1832061,2.3282442,-14.6811695,1.4173602,0.0000000,44.2824440,164.4274750,195.9465637
5240,0.7230452,0.8355721,10.2591019,7.6870227,-0.4122137,4.4045801,-14.4202032,1.6687500,0.7182568,14.8931293,203.9923706,213.7175598
5250,0.7493813,1.0295014,10.1106625,7.8931298,-3.7633588,5.4045801,-14.6620159,1.8363433,2.0925217,-2.9770992,236.3587799,234.4045868
5260,0.7805058,1.1156923,9.8736372,7.0610685,-5.6870227,4.7099237,-14.8176384,1.9704180,3.3494711,-9.5572519,250.1297760,250.1297760
5270,0.8882443,1.1539993,9.7371683,5.5801525,-5.8473282,3.0381680,-15.2773228,2.0757623,4.1826491,-10.2977095,250.1297760,250.1297760
5280,0.8666966,1.0821736,9.5504217,3.6717558,-5.9847326,0.2748092,-15.2414103,2.1356170,4.5657191,-9.2748089,248.7862549,250.1297760
5290,0.9241571,0.9265513,9.6006994,0.9541985,-4.5648856,-1.4732825,-14.2645807,1.7094513,4.1036406,-8.5419846,223.4122162,250.1297760
5300,0.8619082,0.7805058,9.6246414,-2.0229008,-3.3511450,-2.4961832,-11.3987360,0.7757174,3.2872221,-10.6870232,193.0305328,250.1297760
5310,0.8738791,0.5003856,9.6366129,-4.0534353,-2.4732823,-2.3740458,-8.4826136,0.0119709,2.4444675,-16.2748089,164.4427490,250.1297760
5320,0.9193687,0.3495516,9.8449068,-5.0458016,-2.6641221,-2.3511450,-5.8585815,-0.3663110,1.4796091,-24.3511448,138.5877838,250.1297760
5330,0.9744351,0.2681492,10.0723553,-4.3129773,-4.0992365,-2.1679389,-3.2991931,-0.5554519,0.3184272,-37.0381660,120.4045792,250.1297760
5340,0.8475431,0.6560079,9.7563219,4.8320613,-0.7251908,1.9770992,4.0988522,-0.7685348,2.8012016,-127.4885483,140.9236603,250.1297760
5350,0.9026094,0.9959828,9.7395630,2.7175572,1.1297710,2.0534351,4.9894910,-1.4843974,3.6271970,-129.0610657,126.7633591,250.1297760
5360,0.9792235,0.7996593,9.5408449,-0.8702290,3.4045801,0.5419847,7.7068958,-1.1947005,5.1953912,-119.1832047,62.4961815,225.5267181
5370,0.8092360,0.8882443,9.7491398,-2.6412213,3.4961832,0.4198473,9.0021524,-0.3591284,5.6287394,-110.5114517,24.8931293,191.9770966
5380,0.7230452,0.9002152,9.7587166,-3.5038168,3.9465649,0.4351145,10.3452930,0.3351865,5.8178802,-100.2442780,-13.4122133,153.4503784
5390,0.6392486,0.7685348,9.8089943,-4.3664122,2.8244274,1.2442749,12.0786858,1.1180865,5.5832496,-89.8396912,-51.9007645,109.9160309
5400,0.8619082,0.7829000,9.9885588,-0.7480916,0.0687023,3.1297710,19.6126022,3.2560976,6.1075773,-48.9389305,-42.2748108,-164.1679382
5410,0.8954269,0.8212070,10.0532017,0.4809160,-1.1755725,2.4732823,19.6126022,2.8059900,6.0165982,-24.7404575,1.7480916,-250.1374054
5420,0.8786675,0.8595140,10.0125008,1.3053435,-1.7862595,1.1832061,19.6126022,1.8698620,5.5281835,-2.0610688,26.5419846,-250.1374054
5430,0.8786675,0.8236012,9.9789820,1.7480916,-2.0839694,0.6106870,18.0138817,-0.6464311,4.5226240,10.5572519,28.1908398,-250.1374054
5440,0.9002152,0.7900825,9.8688488,1.5572519,-2.8473282,-0.2061069,11.0659437,-7.7068958,5.6239510,16.4351139,-34.2977104,-250.1374054
5450,0.9840119,0.5769997,9.8592720,1.2213740,-3.1679389,-0.0152672,6.6869712,-11.6549139,7.3980455,24.4656487,-63.9465637,-250.1374054
5460,0.9888002,0.5865764,9.8808203,1.0534351,-2.6564887,0.3816794,-0.1173153,-15.8112268,8.4251528,45.1526718,-88.8320618,-250.1374054
5470,1.0989330,0.4620786,9.9622221,0.4961832,-3.5343511,1.4045801,-10.7331514,-19.3426571,8.3245964,75.0152664,-144.2137451,-250.1374054
5480,1.1132981,0.4596844,9.9646168,0.6412213,-3.5114503,2.3282442,-19.6131992,-19.6131992,7.4770536,97.3969498,-250.1374054,-250.1374054
5490,1.1731528,0.4979914,9.9765873,1.1603054,-2.9236641,2.6946564,-19.6131992,-17.3171730,5.6718349,88.4045792,-250.1374054,-250.1374054
5500,1.2114599,0.5841822,9.9310980,1.1450381,-2.9389312,2.4732823,-19.6131992,-9.7323799,3.9049230,22.4045811,-250.1374054,-250.1374054
5510,1.1923064,0.6584021,9.8951855,1.1145039,-1.5343511,1.4961832,-19.6131992,1.9680238,4.8314743,-83.1450348,-250.1374054,-250.1374054
5520,1.1180865,0.7110743,9.8760319,1.1526718,0.4809160,1.2213740,-19.6131992,5.5688848,9.2248116,-142.4274750,-250.1374054,-242.1832123
5530,1.0893562,0.9193687,9.6988611,0.8015267,1.5267175,0.7862595,-19.6131992,2.3415172,13.4912577,-114.8091583,-186.8778687,22.0839691
5540,0.9792235,0.9816177,9.7706871,-0.2366412,1.2137405,-0.3282443,-19.6131992,-1.0055596,14.6045561,-35.2671738,141.0992432,212.6641235
5550,0.9073978,0.9313397,9.8137827,-0.8549618,2.2900763,-1.5648855,-19.6131992,-1.5729824,13.6157551,27.8549614,250.1297760,250.1297760
5560,0.8954269,0.9385223,9.8065996,-1.0839695,2.8244274,-2.3969467,-16.8814297,-0.9816177,12.5192165,45.9618340,250.1297760,250.1297760
5570,0.7517755,0.8978211,9.8305416,-1.2442749,1.3206106,-2.7938931,-11.3628235,0.6105183,12.3731709,45.0992355,250.1297760,250.1297760
5580,0.6296718,0.7493813,10.1034794,-0.7557252,-0.8549618,-2.5496182,-9.1697454,1.8387375,12.4641504,48.5877876,250.1297760,235.3053436
5590,0.6703730,0.6679789,10.0532017,0.2977099,-2.3969467,-1.4503816,-7.1897511,2.8778157,10.9749641,58.8244286,137.3587799,160.6870270
5600,0.9169745,0.6296718,9.9382801,1.5877863,-5.2519083,1.1145039,-3.5888901,4.7333126,5.3677726,62.9312973,-97.4961853,53.4656487
5610,1.1635761,0.7374104,9.8042059,0.3740458,-1.3664122,2.7404580,-3.4021432,4.5369892,0.5171449,37.4503822,-112.6793900,-21.5267181
5620,1.0558375,0.8499373,9.9287033,-0.9770992,1.1145039,-0.7709923,-6.1554613,3.8211265,1.9033806,23.2671757,5.8854961,-26.9618320
5630,0.7829000,0.7014975,9.9909525,1.2290076,-2.1297710,-3.6183207,-7.8361821,3.9144998,3.0071020,-37.2900772,-40.9007645,-25.4809170
5640,0.9433106,0.7541697,9.9454632,1.9923664,-1.1297710,-3.2213740,-7.8529415,3.8402798,3.6511390,-38.9541969,-38.3969460,-23.0992374
5650,0.8140244,0.7924767,9.8975792,1.8702290,-1.4732825,-2.2977099,-7.8026633,3.7157819,4.3071470,-37.6259537,-31.9083977,-22.6030540
5660,0.8164186,0.8738791,9.8880024,1.4427481,-2.2671757,-1.1755725,-8.0588417,3.6846576,4.9727316,-33.2290077,-25.9160309,-23.4122143
5670,0.8690908,0.9145803,9.8209648,1.1297710,-2.1526718,-0.3435115,-8.1689749,3.6702924,5.3079181,-27.3816795,-22.8320618,-24.6259537
5680,0.8834559,0.9265513,9.7228031,1.0305344,-1.7328244,0.4580153,-8.3724804,3.6798692,5.4731169,-21.4274807,-23.7022896,-27.2366409
5690,0.8882443,0.9696468,9.7443514,-0.1068702,-1.7557251,1.2442749,-8.5807753,3.7205703,5.4707227,-16.5648861,-29.4885502,-30.6183205
5700,0.9576758,0.9169745,9.8425131,-0.7251908,-1.5801526,2.1984732,-8.8776541,3.7277529,5.5305777,-12.7786255,-41.9160309,-34.9618340
5710,0.9576758,0.7014975,9.8880024,-1.2671756,-1.4122137,2.7099237,-9.3157911,3.8019729,5.1810260,-11.4809160,-59.0458031,-38.7862587
5720,1.0630201,0.7230452,9.8401184,-1.4351145,-0.1755725,3.0992367,-9.5504217,3.8474624,4.8242917,-14.6717558,-76.1145020,-40.3053436
5730,1.0630201,0.6775556,9.9622221,-1.4961832,0.6259542,3.4045801,-9.7467451,4.0461802,4.6878228,-20.5801525,-84.5038147,-38.9771004
5740,1.1492109,0.6727672,9.8664551,-1.1603054,1.0076336,3.0000000,-9.7443514,3.8570392,4.9056940,-25.9007626,-87.3587799,-34.5190849
5750,1.2186425,0.6560079,9.9789820,-0.9694657,2.0076337,2.2137403,-9.7778702,3.5697365,5.0086441,-30.2824421,-82.6183243,-28.4809170
5760,1.1731528,0.6751614,9.7563219,-1.1526718,2.2213740,1.4427481,-10.0532017,3.3901722,5.3198891,-33.7099228,-64.7022934,-20.1145039
5770,1.1156923,0.6727672,9.8760319,-1.5954199,3.0763359,1.2061069,-10.4482431,3.3734128,6.0644817,-34.0228996,-40.2900772,-7.7099237
5780,1.0510491,0.5865764,9.8233595,-1.8396946,1.7633588,1.1145039,-10.7403336,2.8897867,7.1801744,-25.6870232,4.9389315,18.7022896
5790,0.9385223,0.5362985,10.0364418,-1.7251909,1.7709924,1.5267175,-10.6756907,2.6695213,7.7475972,-18.6793900,17.8473282,29.0763359
5800,0.9361281,0.8140244,9.9047613,-0.4656489,0.4427481,3.1526718,-10.8049774,2.1332228,8.4490948,1.8244275,16.8931293,37.0916023
5810,1.0462608,1.0079538,9.9119444,-0.3129771,1.9160305,2.1297710,-11.4992924,2.2577207,8.3557215,7.4122138,11.9618320,40.3282433
5820,0.9576758,1.1611819,9.7994175,-0.7404580,3.4351146,0.4885496,-11.9134865,2.4564383,8.3389616,13.4427481,12.5572519,48.1297722
5830,1.5729824,0.2394189,9.9598284,1.9083970,-8.1679392,6.4351144,-9.9454632,3.6870518,5.0038562,88.5877838,32.6946564,152.3740387
5840,1.8315549,0.6536137,9.7180147,0.6488550,1.8473282,2.1908398,-10.5296450,4.0988522,4.4795284,96.4961853,60.2824440,217.4045868
5850,1.5993185,0.7302278,9.6485834,-1.0458015,4.3816795,0.0687023,-9.5528164,3.8761928,3.7900019,99.0992355,59.2824440,237.2061005
5860,0.7398046,0.8930327,10.0915089,-2.3129771,7.2366414,-1.6412214,-4.2401094,3.5481887,1.9033806,90.8931274,56.0076332,250.1297760
5870,0.5554519,0.9409165,10.0962973,-1.0610687,5.8625956,-1.3664122,-3.0214672,3.6391680,1.3024391,89.8931274,62.4961815,250.1297760
5880,0.5003856,1.0103480,9.9023676,1.0152671,1.2824427,-1.1755725,-0.6943150,4.1611013,0.6129125,93.1526718,92.5648880,250.1297760
5890,0.4477134,0.9840119,9.8712435,1.2595420,-1.0076336,-1.2290076,0.6033357,3.9384418,0.0694315,94.1068726,99.7251892,250.1297760
5900,0.7541697,0.8834559,9.8616667,1.2442749,-5.3206105,-1.5038168,2.9520357,3.7469065,0.0095768,91.3969498,85.1603088,242.9770966
5910,1.0845678,0.7661406,9.9239149,1.2061069,-3.4427481,-2.1603053,11.9589767,3.8450682,-4.7907729,23.8549614,27.1832066,109.3816757
5920,0.9935886,0.6847382,9.9167328,1.0076336,-2.7175572,-1.9389313,12.7634239,4.2784166,-5.0062504,1.5038168,24.0000000,71.3129807
5930,1.0821736,0.6919208,9.8880024,0.6335878,-1.5038168,-1.3282443,13.8982697,4.6255741,-5.2528515,-21.2977104,17.7099228,26.0763359
5940,0.9720409,0.7134684,9.8473015,0.2442748,-0.8549618,-0.7022901,15.1384602,4.4723458,-5.4204450,-48.1755714,-1.5572519,-25.2213745
5950,0.9600700,0.7589580,9.8712435,-0.0076336,-0.9465649,-0.0992366,16.7856617,4.7021880,-5.4491754,-78.9389343,-33.3740463,-88.1374054
5960,1.0031654,0.7206510,9.8736372,0.0610687,-0.6335878,0.4503817,18.7345333,4.7117648,-5.6790175,-114.0076370,-80.6259537,-163.8625946
5970,0.9911944,0.7757174,9.8257532,-0.2671756,-0.6946565,1.0152671,19.6126022,4.0198441,-5.3079181,-154.0992432,-113.7404556,-250.1374054
5980,0.9864060,0.8499373,9.8712435,-0.4274809,-1.1450381,2.0076337,19.6126022,2.0518203,-4.4891052,-191.2671814,-133.2366486,-250.1374054
5990,1.0079538,0.7972651,9.9310980,-0.2595420,-1.3358779,2.6412213,19.0649300,-1.2306134,-3.5817075,-227.4274750,-135.3206177,-250.1374054
6000,0.9816177,0.7661406,9.8353300,-0.2061069,-0.3740458,3.4198472,15.4209747,-6.2224984,-1.4245427,-250.1374054,-127.3587799,-250.1374054
6010,0.8379663,0.8379663,9.9406748,-0.5038168,-0.2824427,3.8854961,10.8408899,-12.7801828,1.8147956,-250.1374054,-125.4809189,-250.1374054
6020,0.9744351,0.8762733,9.9334917,-0.0534351,-0.6946565,4.0000000,3.0837159,-19.6131992,5.3893204,-250.1374054,-145.3206177,-250.1374054
6030,1.0989330,0.7924767,9.8975792,0.2061069,-0.2290076,3.5954199,-7.9487090,-19.6131992,8.9949694,-250.1374054,-197.6106873,-250.1374054
6040,1.0821736,0.8212070,9.8760319,0.1145038,0.5496183,2.9007633,-17.8774128,-19.6131992,12.6125898,-250.1374054,-250.1374054,-250.1374054
6050,1.1851238,0.7805058,9.7132263,-0.3053435,1.1679389,2.2748091,-19.6131992,-18.5310268,19.4623661,-250.1374054,-250.1374054,-250.1374054
6060,1.3479286,0.8523315,9.7611103,-0.6488550,1.4580153,0.3129771,-19.6131992,-11.2263546,19.6126022,-250.1374054,-250.1374054,-250.1374054
6070,1.0869620,0.6919208,9.9957409,-3.3664122,2.0305343,-0.0229008,-19.6131992,-4.0773048,19.6126022,-217.0763397,-250.1374054,-250.1374054
6080,1.3048333,0.4788379,9.9502516,-1.1068702,3.9083970,-1.2671756,-19.6131992,-5.0828643,19.6126022,-121.4274826,-250.1374054,-250.1374054
6090,0.9433106,0.6775556,9.9837704,-2.2595420,0.5038168,-3.7480917,-19.6131992,-7.7021074,19.6126022,-52.8702278,-250.1374054,-250.1374054
6100,0.6105183,0.5841822,10.3788109,1.4809160,-1.7022901,-2.5572519,-19.6131992,-6.9383612,19.6126022,1.1984733,-250.1374054,-166.1679382
6110,0.5985473,0.6871324,10.2471304,4.4961834,-3.5190840,-0.7099237,-18.7441101,-4.4938936,17.7648849,74.5038147,-79.3053436,-35.3511467
6120,0.4022238,0.9002152,9.9502516,5.3587785,-4.9541984,0.9083970,-18.1168308,-1.1994889,15.0163565,141.1450348,250.1297760,104.0229034
6130,0.3663110,1.1300575,9.7299862,5.2290077,-4.2519083,4.0458016,-14.5518837,-0.2920911,12.2223368,163.3893127,250.1297760,208.6564941
6140,0.6177009,1.3144100,9.5576038,3.3206108,-3.9236641,4.6870227,-10.9605989,-0.6464311,10.9534168,148.5954132,250.1297760,250.1297760
6150,0.6919208,1.4245427,9.5623922,0.8854962,-4.1221375,4.3816795,-8.7938576,-0.4094064,11.4418316,123.4732819,250.1297760,250.1297760
6160,0.8331779,1.3239868,9.6390066,-1.1374046,-2.9923663,4.0687022,-7.4219875,0.2082945,11.4753504,104.7175598,250.1297760,230.2977142
6170,1.0462608,1.0821736,9.7012558,-2.5572519,-1.9465649,3.2213740,-5.9160423,0.8283895,10.6900558,93.3740463,250.1297760,194.0152740
6180,1.0941446,0.9457048,9.8209648,-3.0763359,-1.8854961,2.0000000,-4.2065907,1.3598996,9.3205795,86.5114517,250.1297760,153.2977142
6190,1.1180865,0.7469871,9.9382801,-2.9770992,-2.7557251,1.4732825,-3.2513094,2.0087249,7.8194227,77.9083939,207.0610657,108.4198456
6200,1.0702027,0.4501076,10.0053177,-2.0763359,-3.1984732,2.1526718,-3.5577655,2.1619530,7.0389171,72.0916061,123.0992355,70.3206100
6210,1.1252691,0.3208214,9.9885588,-1.1603054,-3.8778627,3.3206108,-3.7397239,2.4301023,5.9974446,70.8244247,54.8244286,38.4427490
6220,1.2066715,0.2585725,9.9837704,-0.0763359,-4.4885497,4.0687022,-3.7516949,2.4468615,4.8314743,72.3282471,5.8015265,11.1221371
6230,1.4221486,0.8786675,9.8760319,-2.2824428,6.3511453,-0.3435115,-5.5928264,3.0956869,1.0486550,19.0305347,-88.0992355,-57.1908379
6240,1.0318956,0.9552816,9.8664551,-2.8320611,5.2671757,-1.3358779,-6.5840211,2.9687948,1.3838415,-4.0839696,-60.2519073,-60.0305328
6250,0.7876883,0.9792235,9.9406748,-2.4198472,4.8320613,-0.8091603,-7.4483232,3.2489152,1.9752063,-11.7328243,-27.2977104,-53.8167953
6260,0.6009415,1.0845678,9.9047613,-2.2366412,3.7404580,0.0992366,-8.2264347,3.3446827,2.7054341,-16.4580154,7.3664122,-40.9465637
6270,0.7110743,0.9121862,9.9909525,-1.4961832,0.7404580,0.4580153,-8.4634600,2.5953014,4.1682839,-16.3053436,48.2824440,-6.1679387
6280,0.7709290,0.8236012,10.0555954,-1.0534351,-0.3816794,0.7786260,-8.1905222,2.2936335,4.5537481,-16.2519093,43.8167953,-5.1221375
6290,0.9888002,0.7805058,10.0196829,-0.2900763,-1.5190840,0.8091603,-7.9223728,2.0135133,4.8506279,-16.8625946,31.8549614,-10.4274807
6300,1.3239868,0.8236012,9.6988611,-0.5572519,-0.0916031,-4.1984735,-9.0117292,1.8100072,6.0908179,-11.9083967,-24.0000000,-50.1145020
6310,1.2904681,0.7493813,9.9310980,-1.3587786,1.3358779,-4.8167939,-9.5336628,1.8578910,6.0740585,-6.2748094,-30.7786255,-54.0458031
6320,1.1396341,0.6296718,9.9382801,-1.4961832,2.1374047,-5.5648856,-9.8473015,1.8746504,5.9351954,-0.1297710,-25.9389305,-53.5114517
6330,1.0055596,0.6344602,9.9622221,-1.3969465,2.3893130,-5.2595420,-10.2351599,1.7884595,5.8154860,6.5114503,-16.9541988,-50.0534363
6340,0.8858501,0.6823440,9.8832140,-0.9694657,1.9541985,-4.3053436,-10.3740225,1.8004304,5.6383162,12.6183205,-6.3053436,-44.9083977
6350,0.7996593,0.7589580,9.8832140,-0.2595420,0.4503817,-1.8625954,-10.8815908,2.1547706,5.1618724,23.2900772,17.2824421,-33.3816795
6360,0.8307837,0.7757174,10.0101061,0.3740458,0.2290076,-0.6641222,-11.2526903,2.2361729,4.7141590,26.0763359,19.6412220,-26.5267181
6370,0.7182568,0.7924767,9.9478569,1.0229008,-0.9389313,1.9236641,-11.1353750,2.1930776,4.0605454,21.4274807,17.2213745,-9.0458012
6380,0.7206510,0.7709290,9.9454632,1.3282443,-1.8091604,3.3816793,-10.6182299,2.2457497,3.7445123,16.9389305,17.2671757,-2.4122138
6390,0.7374104,0.8355721,9.8903971,1.7709924,-2.6946564,4.3740458,-10.2495251,2.2050486,3.7085996,12.7633591,14.8015270,-1.1755725
6400,0.8834559,0.8475431,9.8520899,1.2977099,-3.0687022,4.7404580,-10.0484133,2.2649033,3.5290353,8.3435116,6.1297708,-2.1526718
6410,1.0295014,0.8068419,9.6916790,0.3129771,-2.7175572,4.4809160,-10.0699606,2.1763182,3.6008608,2.2519083,-1.8320611,-4.4122138
6420,1.2186425,0.8283895,9.7778702,-1.2442749,-1.8167939,3.1908398,-10.1226330,2.3151813,4.2496862,-7.0229006,-14.7099237,-6.7022901
6430,1.2497669,0.7948709,9.8999729,-1.6717557,-1.4274809,2.1603053,-10.4075413,2.1930776,4.4220681,-9.8015270,-17.4885502,-9.5496187
6440,1.0773853,0.7996593,9.8640604,-1.7404580,-0.9923664,1.5572519,-10.9725704,2.0374553,4.8386569,-12.1145039,-16.9923668,-12.2900763
6450,1.0678085,0.8116302,9.9263096,-1.5038168,-0.8854962,1.5114504,-12.0140429,1.8794388,5.2241216,-13.8473282,-15.5190840,-13.0916033
6460,1.0199248,0.7637464,9.9981356,-1.3053435,-0.7938932,1.4961832,-13.8599625,1.7645177,5.8681583,-13.9389315,-17.9694653,-9.7175570
6470,1.0295014,0.7685348,10.0412302,-1.1374046,0.3664122,1.7175573,-15.3611193,1.5538290,6.3924856,-11.6870232,-23.5267181,1.3129771
6480,1.1468167,0.7398046,9.8927908,-1.5419847,2.4198472,0.1374046,-17.7241840,1.1013272,7.5249376,0.9770992,-19.5877857,64.6106873
6490,0.9504932,0.7374104,9.9813757,-1.6412214,1.5801526,-1.3206106,-17.9300842,0.6799498,8.0995426,24.1832066,28.9007626,122.2137375
6500,0.9576758,0.7852941,9.9670105,-0.8854962,0.7175573,-1.0916030,-17.5565910,0.6823440,7.9463148,39.1450386,59.3969460,152.1679382
6510,0.8858501,0.7781116,10.0125008,-0.3664122,0.1374046,-0.6946565,-17.1016960,0.6631905,7.4267755,53.7099228,87.0229034,180.5801544
6520,0.8619082,0.8044477,9.9047613,-0.3664122,-0.3358779,-0.3053435,-16.3020363,0.6344602,6.6247220,63.0305328,108.4274826,205.7099304
6530,0.7757174,0.8499373,9.8305416,-0.1908397,-0.9770992,0.2977099,-15.2222567,1.0702027,5.6526814,66.1679382,122.9923630,227.2213745
6540,0.8427547,0.8523315,9.9047613,-0.1603053,-1.3740458,0.7022901,-14.2430334,1.4484847,4.6566987,62.1221390,131.4122162,246.7862549
6550,0.9193687,0.8786675,9.8449068,-0.4122137,-1.3587786,0.9312977,-13.5439301,1.4628497,3.6702924,53.0534363,138.9770966,250.1297760
6560,0.9576758,0.8403605,9.8784256,-0.4961832,-1.3893130,0.4732825,-12.9525652,1.7214222,3.0334380,40.3358765,149.4656525,250.1297760
6570,0.9097920,0.7637464,9.8616667,-0.7786260,-1.7786260,0.2824427,-12.8472204,1.8339491,2.5593886,26.9923668,151.8854980,250.1297760
6580,0.9624642,0.7637464,9.8640604,-0.6641222,-1.5954199,0.1755725,-11.5806942,1.6735384,1.8387375,13.6106873,143.7938995,250.1297760
6590,1.0199248,0.8092360,9.9047613,-0.5114504,-1.1145039,0.4427481,-9.3971939,1.2952565,1.0654143,-4.2824426,138.6793823,250.1297760
6600,0.9911944,0.6655847,9.8784256,-0.8244275,0.0992366,0.7328244,-6.9551206,0.7900825,0.6991033,-24.2671757,145.3816833,250.1297760
6610,1.0702027,0.7086801,9.8544836,-1.3282443,0.5343512,0.7862595,-4.7261300,0.3806761,0.6129125,-40.5114517,156.9923706,250.1297760
6620,1.1707586,0.6153067,9.9406748,-1.2671756,0.5419847,0.3435115,-2.6575503,0.2825144,0.8666966,-48.6717567,172.8625946,250.1297760
6630,1.1539993,0.6081241,9.9837704,-1.0152671,0.3664122,0.0076336,-0.1197095,0.1388630,0.5410868,-51.2366409,192.7862549,250.1297760
6640,1.1204807,0.6248835,9.9981356,-0.2519084,0.1145038,-0.2748092,1.7477583,0.1915352,-0.0119709,-54.9771004,214.9694672,250.1297760
6650,1.0773853,0.6416427,9.9646168,0.2519084,-0.1526718,-0.0229008,2.3534882,0.6655847,-0.2968795,-66.1145020,235.0381622,250.1297760
6660,0.9528874,0.7014975,9.8568783,0.6488550,-0.0381679,0.4656489,1.7932479,1.0702027,-0.0454896,-83.4427490,239.7022858,250.1297760
6670,0.9050036,0.9600700,9.8281479,-0.9236641,0.5496183,3.1526718,3.7564833,-0.3854645,1.8291607,-167.8015289,99.5648880,250.1297760
6680,0.9480990,1.0438666,9.8305416,-0.9770992,0.1068702,2.7175572,6.5361371,-1.2138541,2.6120608,-181.4503784,48.1526718,250.1297760
6690,0.9816177,0.9983770,9.8688488,-1.1068702,-0.1068702,1.8396946,10.8432837,-1.5610116,3.4117200,-187.0076294,-3.9770992,227.8778687
6700,0.9241571,0.9744351,9.8425131,-1.6641221,0.1755725,1.3893130,16.6037045,0.1221037,4.0557570,-187.0152740,-35.1068687,170.7328186
6710,1.0534433,0.9073978,9.8736372,-2.0839694,0.0381679,0.7328244,19.6126022,-0.5219333,5.5449429,-185.2290039,-45.5877876,95.2137375
6720,1.0031654,0.8307837,9.9047613,-2.1145039,-0.2748092,-0.1755725,19.6126022,1.3479286,7.6159167,-169.1526642,-38.6412201,4.4274807
6730,1.1516051,0.7158626,10.0196829,-1.5801526,-0.9618320,-0.9236641,19.6126022,1.8171898,9.0907373,-143.9618378,-28.6183205,-95.9542007
6740,1.1516051,0.6081241,9.9885588,-0.5190840,-1.0000000,-1.9007634,19.6126022,2.0637913,9.9167328,-115.6641235,-21.7709923,-190.5114441
6750,1.2258250,0.6823440,9.9358864,-0.1145038,-0.8320611,-2.9389312,18.7991753,1.7836711,10.0268650,-88.9923630,-8.1450386,-250.1374054
6760,1.1970947,0.6584021,9.9215212,0.1679389,-0.2977099,-3.9007633,14.1520538,0.2418131,9.9909525,-60.1374054,-2.2671757,-250.1374054
6770,1.2282192,0.6895266,9.9430685,-0.2900763,0.2519084,-4.8473282,9.3493099,-1.2042773,9.7395630,-31.1450386,-15.1526718,-250.1374054
6780,1.2856797,0.6895266,9.8951855,-0.4809160,1.7557251,-5.9007635,4.4914994,-2.4205256,8.9542685,-6.1450381,-55.1908379,-250.1374054
6790,1.2138541,0.7110743,9.9287033,-0.4961832,1.9618320,-6.7404580,0.0047884,-3.1986370,7.2400289,9.4580154,-114.6335907,-250.1374054
6800,0.9768293,0.7206510,9.9885588,-0.2595420,1.8625954,-6.8091602,-3.6846576,-3.5314295,4.7093706,7.6488547,-172.1832123,-250.1374054
6810,0.8571198,0.7972651,9.9694052,-0.0152672,1.2519084,-6.4732823,-6.8138633,-3.7014170,2.7533178,-13.7786255,-210.3511505,-250.1374054
6820,0.5817881,0.7158626,9.9598284,0.8091603,1.3587786,-4.9541984,-9.6246414,-3.4643922,2.3199697,-48.4656487,-229.4732819,-250.1374054
6830,0.4453192,0.8810617,9.9239149,1.2519084,-0.7328244,-2.3893130,-11.7171631,-3.4476328,3.4212968,-84.1832047,-233.5038147,-250.1374054
6840,0.5291159,0.9504932,9.9885588,1.3893130,-2.3969467,-0.3816794,-12.7299051,-3.4428444,5.8106980,-111.1832047,-236.6564941,-250.1374054
6850,0.6895266,0.9361281,9.8305416,1.1832061,-3.2900763,1.0458015,-12.8639803,-4.3933377,8.3988171,-125.6183243,-229.5648804,-250.1374054
6860,0.8523315,0.9169745,9.7395630,1.1908396,-3.0229008,1.4274809,-13.9820662,-4.8171091,12.0116482,-124.8549652,-191.0305328,-250.1374054
6870,0.9361281,0.9241571,9.7730818,0.4809160,-2.8549619,1.7175573,-14.8248215,-5.4156566,15.1504307,-103.3053436,-128.0915985,-250.1374054
6880,1.0845678,0.8619082,9.7563219,-0.3969466,-1.9618320,1.6870229,-14.9205885,-6.6702118,18.0330353,-59.6412201,-60.5648842,-250.1374054
6890,1.1947005,0.7086801,9.9550400,-0.5267175,-1.8167939,1.1221374,-15.0450869,-8.0468712,19.6126022,-0.5725191,-10.8549614,-250.1374054
6900,1.2473727,0.7469871,9.9574337,-0.2671756,-1.3435115,0.2519084,-16.1966915,-8.8848372,19.6126022,63.8015251,24.3435116,-250.1374054
6910,1.3479286,0.6200951,9.8377247,-0.1526718,-0.6717557,-0.8625954,-19.3665981,-8.7866755,19.5222206,124.0076370,25.2061062,-250.1374054
6920,1.3598996,0.6943150,9.8592720,-0.6335878,0.6717557,-2.4045801,-19.6131992,-8.2072811,17.1471844,170.1755676,-8.5114508,-250.1374054
6930,1.4508789,0.5722113,9.9071560,-0.6793893,1.4427481,-3.7633588,-19.6131992,-6.1099715,13.6277266,191.3969421,-46.3511467,-250.1374054
6940,1.2377959,0.5003856,9.7539282,-1.0534351,2.1068702,-4.2366414,-19.6131992,-3.6271970,10.6230183,184.8320618,-55.3511467,-191.8778687
6950,0.9050036,0.4860204,9.8113880,-1.0916030,2.1908398,-3.1755726,-19.6131992,-2.0087249,8.6909075,164.8167877,-16.3435116,-110.1526718
6960,0.6272776,0.5961532,9.8377247,-1.3816794,0.9083970,-0.6106870,-19.6131992,-0.4644727,8.0396881,143.9465637,65.6641235,-23.4503822
6970,0.6775556,0.7541697,10.0819321,-1.1145039,0.0152672,1.6183206,-19.6131992,0.2274480,8.3700867,131.6183167,169.3511505,55.7786255
6980,0.7350162,0.8690908,10.0268650,-0.1832061,-0.0381679,2.8244274,-18.0138817,0.6153067,9.3014259,133.9694672,250.1297760,114.8931274
6990,0.7565638,1.0295014,9.9454632,-0.0076336,-0.1297710,3.3969467,-15.9883976,0.5769997,10.2902260,147.8931274,250.1297760,150.0534363
7000,0.7805058,1.1324517,9.8449068,0.1450382,0.6030535,3.1603053,-16.3882275,1.1300575,10.2902260,168.9770966,250.1297760,163.9465637
7010,0.8188128,1.1659702,9.8065996,-0.5496183,0.5267175,2.4809160,-17.8654423,2.1451938,9.2008705,186.6564941,250.1297760,171.1374054
7020,0.8738791,1.2330076,9.8257532,-1.5419847,-0.1068702,1.3969465,-19.6131992,3.6056492,7.0939832,196.2748108,211.9160309,183.3435059
7030,0.8882443,1.0606259,9.7970228,-1.9465649,-0.8396947,0.1068702,-19.2780132,4.2975702,4.7189474,192.7099304,152.9007568,205.7022858
7040,0.9888002,0.9002152,9.7204094,-2.2213740,-1.2137405,-0.8396947,-16.8766422,4.5345950,2.2289903,181.1221313,114.8091583,228.1908417
7050,1.0295014,0.8020535,9.9741936,-2.2519083,-0.6564885,-1.5877863,-14.1496601,4.5681133,0.2082945,165.7022858,96.3587799,241.0152740
7060,1.0773853,0.6607963,9.9957409,-1.9465649,-0.0458015,-2.0916030,-11.3795824,4.6830344,-1.4867916,149.0000000,89.9312973,246.1297760
7070,1.0007712,0.5937590,9.9334917,-1.0381680,-0.3740458,-1.7938931,-9.2032642,4.4771342,-2.9424589,132.4885559,97.6870193,245.6717529
7080,1.0749911,0.5171449,9.8975792,-0.4732825,-0.7022901,-1.4351145,-7.7284436,4.9368186,-3.9480183,114.0000000,107.3969498,240.1679382
7090,1.0917504,0.5123565,9.9191265,-0.0992366,-0.6412213,-0.7557252,-6.7276726,5.5401545,-4.7381010,91.0992355,112.6335907,235.3511505
7100,1.0486550,0.5722113,9.8760319,0.0992366,-0.6412213,0.0610687,-5.7149301,5.5640965,-4.8386569,67.3053436,115.1297684,228.7404633
7110,1.1204807,0.7757174,9.8185711,-0.0763359,0.0687023,0.1450382,-4.9056940,5.9016771,-4.6471219,42.8091621,119.0610657,219.8702240
7120,1.0845678,0.8786675,9.8736372,-0.5572519,0.4503817,-0.0534351,-4.5705075,6.0477223,-4.2185616,19.7022896,118.8702316,212.1755676
7130,1.0725969,0.9720409,9.7419567,-0.6641222,1.2442749,-0.1450382,-4.2041965,5.7915444,-3.3829896,0.1068702,112.8778610,203.7786255
7140,0.8571198,0.9576758,9.8281479,-1.2290076,1.6488550,-0.1755725,-4.1036406,5.9998388,-2.4229198,-15.6335878,98.7404556,194.3206177
7150,0.7757174,0.9457048,9.9095497,-1.6335878,1.5038168,0.0534351,-3.8163381,5.9351954,-1.8052188,-27.7938938,82.1145020,186.4274750
7160,0.6631905,0.8786675,9.8880024,-1.5038168,0.6106870,0.5343512,-3.3518653,5.6957769,-1.0797794,-36.8778610,72.0000000,179.6412201
7170,0.7469871,0.8882443,10.0364418,-0.8931298,-0.5725191,1.3053435,-3.0549858,5.6024032,-0.6009415,-42.2442741,68.7480927,174.0152740
7180,0.6847382,0.6847382,9.9957409,-0.4274809,-1.7404580,2.1984732,-3.4069316,5.5018473,-0.2298422,-44.4351158,70.0687027,171.0610657
7190,1.4365137,0.6296718,9.8065996,0.9618320,-2.1603053,3.5877862,-4.2544746,5.1882086,1.8459201,-54.1832047,117.2595444,209.0152740
7200,1.5035510,0.6919208,9.8784256,0.4656489,-0.2137405,2.2366412,-3.9863255,5.0134325,2.2936335,-51.9465637,126.8167953,219.0992432
7210,1.2330076,0.7757174,9.8257532,-0.3435115,2.7862597,0.5038168,-1.9632354,4.4172797,2.5498118,-50.0381660,128.0610657,228.7557220
7220,1.0438666,0.7876883,9.8233595,-1.1374046,3.3053436,0.5343512,-1.2784972,4.2161674,2.7150109,-51.8091621,119.2061081,228.4198456
7230,1.0151364,0.9097920,9.9239149,-1.5725191,2.9770992,0.3053435,-0.3519458,3.9073172,2.7006457,-53.7557259,104.3740463,227.1984711
7240,0.9265513,1.0582317,10.0603838,-0.3358779,2.5419848,-2.5038168,2.1427996,2.8275378,1.9009864,-64.6335907,68.5801544,220.8854980
7250,0.6272776,0.8930327,10.0316534,0.6793893,-3.3206108,-0.7862595,5.7747850,0.5315101,1.7309990,-93.7175598,39.6259537,185.0839691
7260,0.9648584,0.8212070,9.9478569,1.4580153,-4.0381680,0.7633588,10.0579901,-0.6847382,1.2449785,-108.0763321,-49.0228996,135.3740387
7270,0.9959828,0.9433106,9.8712435,1.8778626,-4.8702292,0.3587786,13.5271702,-0.8858501,0.5051740,-120.1374054,-82.4503784,91.1908417
7280,1.0606259,0.8164186,9.7563219,1.4122137,-4.7557254,0.0152672,17.5039196,-1.1492109,0.4309541,-129.0534363,-81.2671738,39.6106873
7290,1.1923064,0.7924767,9.7994175,0.6335878,-4.4885497,-0.4503817,19.6126022,-0.2298422,1.3479286,-128.2442780,-36.5267181,-27.6106873
7300,1.2186425,0.6847382,9.8496952,0.2061069,-3.8015268,-0.7633588,19.6126022,1.7621235,2.7916248,-123.2213745,17.7786255,-107.8091583
7310,1.2306134,0.6033357,9.7946291,0.1526718,-2.7251909,-0.8549618,19.6126022,3.4332676,3.6894460,-117.6641235,53.2519073,-207.1145020
7320,1.2569494,0.6057299,9.8473015,0.0992366,-2.1603053,-0.5648855,19.6126022,3.2393384,5.2456689,-115.6946564,64.5267181,-250.1374054
7330,1.2784972,0.6248835,9.7946291,-0.0534351,-1.2977099,-0.7328244,19.6126022,1.9225341,7.6350703,-108.5877838,80.0534363,-250.1374054
7340,1.3503228,0.5578461,9.8089943,-0.4427481,0.1679389,-0.8854962,19.6126022,-2.3941894,10.5009146,-85.2442780,90.9160309,-250.1374054
7350,1.3120158,0.6655847,9.8161764,-0.7404580,1.5419847,-1.2595420,19.6126022,-11.1545286,12.8903160,-49.6030540,80.2595444,-250.1374054
7360,1.2713146,0.7086801,9.8664551,-0.6564885,2.4885497,-1.6259542,12.6628675,-19.6131992,13.8360205,4.9618320,89.9465637,-250.1374054
7370,1.1851238,0.6416427,9.9119444,-0.5572519,2.2366412,-2.1603053,-0.8834559,-19.6131992,13.4601336,83.2519073,99.9007645,-250.1374054
7380,1.0295014,0.7326220,9.9550400,-0.5267175,1.1679389,-1.8702290,-18.9284611,-19.6131992,11.7387114,175.4732819,25.0381680,-250.1374054
7390,0.8786675,0.7326220,10.0412302,0.2213740,0.9770992,-1.1526718,-19.6131992,-19.6131992,7.9319496,234.9313049,-160.7938995,-250.1374054
7400,0.8092360,0.7996593,9.8473015,0.4961832,1.0992366,0.0076336,-19.6131992,-19.6131992,3.4643922,206.4656525,-250.1374054,-250.1374054
7410,0.7948709,0.8451489,9.8856087,0.6870229,1.1297710,1.2900764,-19.6131992,-10.8528605,2.4109488,121.7480927,-250.1374054,-250.1374054
7420,0.7685348,0.9624642,9.8616667,0.9923664,0.9160305,1.9694656,-19.6131992,-0.9672526,3.9456241,63.8625946,-250.1374054,-250.1374054
7430,0.8427547,1.0031654,9.8712435,0.4503817,0.6259542,2.4503818,-19.6131992,3.8737986,4.9847026,56.2137413,-119.5267181,-166.6488495
7440,0.8403605,1.0318956,9.7922344,0.2442748,-0.8167939,2.7404580,-19.6131992,0.0885850,0.1915352,117.1679382,250.1297760,250.1297760
7450,1.0007712,0.9840119,9.8233595,-0.5725191,-1.1068702,2.8473282,-18.7943878,-0.7972651,-0.9241571,90.0992355,250.1297760,250.1297760
7460,0.9935886,0.9648584,9.7611103,-1.4351145,-0.1450382,2.4580152,-12.5359764,0.4309541,0.6057299,36.0228996,250.1297760,248.5572510
7470,0.9744351,0.8212070,9.8520899,-2.2213740,0.6183206,2.2671757,-9.6509781,2.3199697,2.9831600,-12.3816795,250.1297760,164.7480927
7480,1.0295014,0.8403605,9.8042059,-2.5648854,1.0000000,2.0610688,-7.0987716,3.6176202,4.3693957,-37.0076332,26.5267181,82.3358765
7490,1.0821736,0.7876883,9.9215212,-2.7099237,1.3587786,1.9160305,-4.6997938,4.2089849,4.8913293,-36.1755714,-115.2748108,17.3511448
7500,1.0869620,0.7972651,9.9789820,-2.0916030,1.6335878,1.0000000,-4.0366035,4.9583664,3.9121056,-28.4122143,-165.9847260,-27.4198475
7510,1.0438666,0.7517755,10.0148945,-1.4961832,1.1984733,0.1908397,-5.0038562,5.1307478,3.7493007,-14.4274807,-163.7099304,-48.0534363
7520,0.9864060,0.8451489,10.0460186,-0.6564885,1.4274809,-0.5496183,-5.6071916,4.9009056,3.2776453,2.0000000,-138.7404633,-54.7328262
7530,0.8307837,0.8331779,10.0412302,-0.0992366,0.3129771,-1.1221374,-6.0525107,4.3861551,2.5091105,15.9007635,-112.6335907,-57.3740463
7540,0.7110743,0.8690908,9.9310980,0.2061069,-0.4656489,-0.7099237,-6.7875271,3.9647777,1.8674678,23.6717548,-83.3206100,-55.1526718
7550,0.7469871,1.0318956,9.9047613,-0.1984733,-2.6641221,1.5343511,-7.3908629,3.3758070,1.1563935,38.5954208,5.4732823,-14.9312973
7560,0.8499373,0.8523315,9.9239149,0.0458015,-4.9541984,2.6259542,-7.2448173,3.0597742,0.5769997,33.9312973,8.2061071,-14.4503813
7570,1.0031654,0.8236012,9.9191265,0.6106870,-5.6870227,3.4809160,-7.5321202,2.8993635,0.5386927,26.2519093,-4.0076337,-21.9312973
7580,1.2665262,0.6224893,9.7611103,0.0839695,-4.6183205,4.2519083,-8.6478119,2.5306582,1.5011568,3.8244274,-42.8625946,-45.7709923
7590,1.4604555,0.5482694,9.8496952,-0.2519084,-4.0076337,4.2900763,-10.3213511,2.7102225,2.1116750,-3.5648854,-49.1603050,-55.0000000
7600,1.5729824,0.4788379,9.8616667,-0.2748092,-2.6870229,3.6564887,-12.8735571,2.6767037,2.6934631,-6.5267177,-38.5343513,-54.7251892
7610,1.5538290,0.5339043,9.8927908,-0.5877863,-1.0152671,2.6412213,-15.8878412,2.4324965,3.1052637,-4.7633586,-22.3435116,-45.5343513
7620,1.5107336,0.4596844,9.8281479,-0.8167939,3.1526718,0.4045801,-19.6131992,2.9209111,3.8690102,4.1984735,6.5954199,4.0458016
7630,1.3383518,0.5650287,9.8089943,-1.1221374,3.7862597,-0.2595420,-19.6131992,2.9616125,4.0557570,8.3511448,20.8778629,45.3664131
7640,1.0773853,0.7326220,10.0029240,-1.5496184,3.8854961,-0.1068702,-19.6131992,3.5960727,3.3590479,11.4351149,27.4656487,146.1145020
7650,0.9265513,0.8834559,10.0005293,0.3893130,1.7709924,0.2366412,-19.6131992,3.2225790,2.2433555,-11.1755724,54.0687027,250.1297760
7660,0.6751614,0.9983770,10.0460186,1.0152671,1.4274809,0.5954198,-19.6131992,2.4684093,2.3056045,-25.0152664,85.9618301,250.1297760
7670,0.6320660,1.1037214,9.8233595,1.3664122,1.3816794,1.0381680,-19.2540722,1.4580613,2.9209111,-33.1068687,113.6335907,250.1297760
7680,0.6272776,1.2665262,9.7874460,0.9389313,0.8778626,1.3435115,-15.6125097,0.6392486,3.4428444,-34.2671738,127.1221390,250.1297760
7690,0.7110743,1.3048333,9.7012558,-0.2977099,-0.1145038,1.6183206,-12.3779593,0.2896969,3.7085996,-30.0839691,124.1679382,250.1297760
7700,0.7541697,1.2737088,9.7658987,-0.7633588,-1.2519084,1.0610687,-9.2798786,-0.1771700,3.2656744,-25.6793900,112.7251892,250.1297760
7710,0.8475431,1.1611819,9.8377247,-0.9465649,-2.5954199,0.6412213,-6.3062949,-0.5123565,2.2313845,-23.4198475,99.1526718,250.1297760
7720,0.9289455,1.0223188,9.9717989,-0.7099237,-3.1221373,0.3435115,-3.7181761,-0.9528874,1.2761030,-28.0076332,84.1603088,250.1297760
7730,1.0390782,0.9480990,9.9813757,-0.3587786,-3.2442749,0.2366412,-1.6304430,-1.3958124,0.3280039,-38.3053436,79.5496216,250.1297760
7740,1.0917504,0.7733232,9.8568783,0.0152672,-3.1984732,0.1221374,-0.2681492,-1.9680238,-0.3423691,-50.9465637,84.4503784,250.1297760
7750,1.1420283,0.7038917,9.9263096,-0.0152672,-3.0839694,0.1603053,0.8307837,-2.6407909,-0.8906385,-65.2061081,92.4580154,250.1297760
7760,1.1755470,0.6368544,9.9287033,0.1450382,-3.3969467,-0.1832061,2.0685797,-3.4811516,-0.8930327,-79.1450348,101.5267181,250.1297760
7770,1.3335636,0.6057299,9.8832140,0.3206107,-2.3511450,-0.8244275,2.6264257,-4.2544746,-1.0031654,-93.4580154,102.8167953,250.1297760
7780,1.2689204,0.6536137,9.7850523,0.0839695,-1.3511450,-1.2595420,2.4923513,-5.0062504,-1.6807210,-112.2442780,89.5496216,250.1297760
7790,1.4556671,0.6296718,9.7874460,-0.5038168,-0.7480916,-1.9770992,2.5665710,-6.0477223,-2.7509236,-137.2671814,60.9847336,250.1297760
7800,1.3120158,0.6368544,9.8425131,-0.7099237,0.7633588,-2.5725191,3.7612717,-7.3238254,-3.5960727,-169.4351196,19.6717548,250.1297760
7810,1.1492109,0.6272776,9.9646168,-1.2366412,1.5725191,-2.2748091,6.3182659,-8.1498213,-2.3319404,-201.5267181,-18.2290077,250.1297760
7820,0.8906385,0.6895266,10.0196829,-0.8702290,1.8091604,-1.3664122,10.2471304,-7.9989872,0.6105183,-219.7709961,-59.2519073,250.1297760
7830,0.8643024,0.7062859,9.9837704,-0.0687023,0.9312977,-0.0305344,14.6907463,-7.2567883,4.1563129,-219.4885559,-83.7175598,250.1297760
7840,0.8786675,0.9241571,10.0292597,0.3053435,0.7633588,0.8702290,17.8271351,-5.8178802,8.0732069,-200.9923706,-81.7709961,235.5496216
7850,1.1228749,1.0199248,9.8137827,-0.8091603,2.0534351,1.1679389,19.6126022,-2.8610563,12.7083578,-156.9160309,-64.7099228,170.9694672
7860,1.2808913,1.1923064,9.5456333,-4.6641221,6.7404580,0.2290076,19.6126022,-0.6919208,16.5725803,-94.3129807,-32.2061081,89.2137375
7870,1.4580613,1.2545552,9.4402885,-9.0152674,10.9923668,-1.3893130,19.6126022,1.3910241,17.7026367,-23.8931293,7.3129773,-3.8931298
7880,1.3694763,1.2186425,9.2750902,-13.1068707,11.5419846,-3.7404580,19.6126022,2.1787124,16.0674057,39.1297722,44.5190849,-114.5877838
7890,0.8307837,1.0151364,9.5121145,-18.4503822,11.0152674,-3.1755726,19.6126022,2.1260402,12.8951044,85.1450348,68.2900772,-237.4198456
7900,0.9193687,0.7972651,9.6509781,-20.2824421,12.5343513,-1.5877863,19.6126022,1.4173602,9.8496952,114.9847336,65.0610657,-250.1374054
7910,0.7876883,0.5482694,9.7730818,-19.7251911,12.1526718,-2.2748091,19.6126022,-0.4070122,6.0668759,128.6106873,49.4961815,-250.1374054
7920,0.6057299,0.4716553,10.0555954,-17.4961834,11.8015270,-2.0152671,15.9812145,-3.3303175,3.0334380,129.7022858,39.6259537,-250.1374054
7930,0.6727672,0.2561783,10.3764172,-13.9389315,9.6259546,-1.1603054,10.3907824,-6.6893654,1.3048333,128.0458069,21.8931293,-250.1374054
7940,0.7733232,0.1915352,10.3620520,-9.7709923,6.5496182,-0.4198473,3.6966286,-9.7898407,0.3663110,120.6106873,-38.1603050,-250.1374054
7950,0.8762733,0.2059003,10.1729107,-6.6946564,2.8167939,-0.0763359,-1.6376256,-11.9134865,-0.7302278,92.7633591,-139.7862549,-250.1374054
7960,1.0055596,0.3303981,10.0627785,-3.8320611,1.2595420,-0.0610687,-4.2089849,-13.7929258,-1.1180865,36.8549614,-194.9541931,-250.1374054
7970,0.9959828,0.4070122,10.1106625,-0.5419847,0.0992366,-1.2977099,-5.8849177,-16.7329903,1.9871773,-19.6717548,-175.7709961,-250.1374054
7980,0.8786675,0.5123565,10.0891142,1.7022901,-0.3816794,-2.8549619,-11.2479019,-19.6131992,6.0596933,-33.0916023,-119.0457993,-250.1374054
7990,0.4740495,0.5458752,10.1489687,4.4427481,-3.9770992,-2.1145039,-18.3083668,-19.6131992,9.1553802,-6.6488547,-60.9236641,-250.1374054
8000,0.4596844,0.6751614,10.2016411,7.5038166,-4.9618320,-0.8854962,-19.6131992,-19.6131992,12.0212250,44.7938919,-14.2900763,-250.1374054
8010,0.4908088,0.7517755,10.1417866,9.0305347,-6.3893127,0.3511450,-19.6131992,-16.4121685,13.8432035,125.7557220,-67.4809189,-250.1374054
8020,0.5195391,0.8403605,9.8473015,8.9236641,-8.1679392,1.2900764,-19.6131992,-4.4244623,11.8009596,190.0229034,-200.1297760,-250.1374054
8030,0.5674229,0.8427547,9.8401184,8.3816795,-9.7404585,2.3893130,-19.6131992,1.8124014,5.8801293,196.4274750,-250.1374054,-250.1374054
8040,0.9672526,0.7445929,9.7395630,7.3587785,-9.4809160,2.8778627,-19.6131992,1.6017127,0.1244979,150.0152740,-232.9923706,-93.3053436
8050,1.0941446,0.7278336,9.7491398,5.2595420,-7.5877862,2.6717558,-19.6131992,1.7501525,-2.9999194,86.1908417,-123.0305328,50.6183205
8060,1.2186425,0.6440369,9.6868906,3.4122138,-5.8167939,1.7175573,-19.6131992,2.6790979,-3.3949606,22.6183205,14.6793890,124.6412201
8070,1.2665262,0.5937590,9.7275915,1.7099236,-4.3511453,0.4961832,-19.6131992,1.8052188,-0.5171449,-28.8244267,129.8396912,170.2290039
8080,1.2042773,0.5123565,9.8544836,0.8625954,-2.6488550,-0.3053435,-15.1240950,2.1835008,2.8227494,-48.3282433,191.0152740,197.6641235
8090,1.0534433,0.5003856,9.9119444,0.9694657,-1.5572519,-0.3816794,-9.3062143,3.0334380,5.9519548,-38.2137413,219.0152740,176.3206177
8100,0.9672526,0.6368544,9.9334917,1.1145039,-0.7862595,0.1374046,-9.2846670,3.7612717,7.3262196,-19.7709923,184.3206177,137.0610657
8110,0.8547257,0.6991033,9.8616667,1.6564885,-1.1221374,0.4274809,-9.7228031,5.0804701,7.5512733,1.2137405,117.4885483,115.0381699
8120,0.7589580,0.8475431,9.9622221,1.8167939,-1.5572519,0.3206107,-8.2575598,5.3127065,6.3158717,21.0687027,65.8549652,102.1984711
8130,0.7972651,0.8954269,9.9694052,2.2137403,-2.0687022,0.1221374,-6.3278427,4.6926112,4.4316444,34.8473282,46.2213745,88.1297684
8140,0.8188128,0.9073978,9.9885588,2.4427481,-2.6412213,-0.0305344,-5.3414369,4.2808108,2.6862805,39.8091621,43.2900772,72.5496216
8150,0.7469871,0.9145803,9.9047613,2.6412213,-3.5572519,-0.1145038,-5.0996237,4.0413918,1.3503228,36.9541969,46.2900772,57.5343513
8160,0.9002152,0.8714849,9.8999729,2.7633588,-3.9847329,-0.0763359,-5.1834202,3.4787574,0.4189832,28.0763359,56.8244286,44.2824440
8170,0.9361281,0.7421987,9.8281479,2.6870229,-3.9083970,-0.2671756,-6.0980005,2.8969693,0.2849085,16.8473282,67.2290039,31.5114498
8180,0.9337339,0.7206510,9.8449068,2.5954199,-3.9541984,-0.1984733,-7.8553357,2.8395088,0.8212070,7.0381680,70.0916061,19.9389305
8190,1.0199248,0.6392486,9.8616667,2.2748091,-4.2366414,0.0229008,-9.9310980,3.1172347,1.6400198,-0.0534351,63.0610695,14.5572519
8200,1.0845678,0.6105183,9.8688488,2.6106870,-4.1832061,0.3282443,-11.8105364,3.1699069,2.2529323,-4.8931298,50.7786255,15.6946564
8210,1.1300575,0.5913648,9.8712435,2.2671757,-4.0152674,0.5725191,-13.5678720,2.8802099,2.7413468,-6.2213740,32.5190849,20.4885502
8220,1.2545552,0.5650287,9.9382801,2.1068702,-3.8244274,0.9770992,-15.1336718,2.7174051,3.1651185,-5.3206105,8.9083967,25.3206100
8230,1.2976507,0.6895266,9.8233595,0.5954198,0.6030535,0.3053435,-18.5501804,2.8610563,3.1196289,-6.9083967,-17.2595425,70.1908417
8240,0.9600700,0.8595140,9.9694052,-1.2900764,2.7557251,0.3129771,-19.6131992,3.1363883,1.8890154,-19.9007626,47.0534363,242.5343475
8250,0.9169745,0.8116302,9.9287033,-0.6946565,2.0916030,0.3511450,-19.6131992,2.5737536,1.9033806,-29.0687027,61.3511467,250.1297760
8260,0.8858501,0.9361281,9.9598284,-0.5114504,1.7480916,-0.1221374,-19.1583042,1.7932479,1.8938038,-38.3282433,65.3053436,250.1297760
8270,0.8355721,0.9097920,9.9478569,-0.2290076,1.2290076,-0.3664122,-16.9173431,0.7565638,1.7597293,-47.6946564,63.0610695,250.1297760
8280,0.8499373,0.9145803,9.9717989,-0.1145038,1.0458015,-0.5725191,-13.9509420,-0.3710994,1.5514348,-57.0687027,62.3587799,250.1297760
8290,0.7374104,0.8738791,9.9406748,-0.2671756,0.2900763,-0.5725191,-10.9222927,-1.2306134,1.7309990,-65.3435135,69.2824402,250.1297760
8300,0.8188128,0.8068419,9.8664551,-0.1603053,-1.1374046,-0.7633588,-8.1593981,-1.8124014,2.1523764,-69.4961853,83.0381699,250.1297760
8310,0.9648584,0.8331779,9.9143381,0.4809160,-2.2595420,-0.8702290,-5.4012914,-2.3175755,2.5019281,-69.0992355,103.0152664,250.1297760
8320,0.9696468,0.7613522,9.9957409,1.2519084,-2.3969467,-0.9770992,-3.1268115,-3.0789278,2.9209111,-68.0076370,120.2290039,250.1297760
8330,1.0055596,0.7374104,9.9765873,2.1908398,-3.1068702,-0.7938932,-0.6200951,-3.8426740,3.4643922,-65.0076370,115.2137375,250.1297760
8340,1.1109039,0.7278336,9.9047613,3.0229008,-3.8320611,-0.7328244,2.0159075,-4.7189474,3.3207407,-61.6106873,83.7938919,250.1297760
8350,1.0965388,0.7038917,9.9430685,3.7251909,-4.6488547,-0.6106870,4.9775200,-5.5760674,2.8993635,-59.7480927,25.2213745,250.1297760
8360,1.1420283,0.7589580,9.8688488,4.1526718,-4.8473282,-0.3740458,9.6485834,-6.3733325,2.0542145,-66.3664093,-40.7175560,250.1297760
8370,1.1755470,0.6560079,9.8425131,3.7022901,-5.1068702,-0.7786260,16.7545376,-7.2184811,2.0111191,-81.4503784,-91.6793900,250.1297760
8380,1.1348459,0.7374104,9.6892843,3.1450381,-4.1450381,-0.7022901,19.6126022,-7.6494355,3.2776453,-85.4809189,-98.5954208,250.1297760
8390,1.1803354,0.7326220,9.6605549,2.0992367,-3.2290077,-0.7709923,19.6126022,-6.5361371,6.1674318,-63.2519073,-28.8702297,226.4503784
8400,1.2258250,0.8116302,9.7682934,0.8015267,-1.7022901,-0.7862595,19.6126022,-4.3310885,9.3110027,-11.2900763,75.3358765,91.9770966
8410,1.2234308,0.8020535,9.7898407,-0.1755725,-1.0076336,-1.1679389,19.6126022,-3.4165084,9.5456333,48.0228996,144.0305328,-63.7251892
8420,1.2162483,0.7996593,9.8688488,-0.2290076,-0.2213740,-1.4885496,19.6126022,-5.5593081,8.4036045,88.8549652,156.4198456,-234.4809113
8430,1.1755470,0.8547257,9.8927908,0.0458015,0.5343512,-1.5877863,19.6126022,-8.2767134,7.7930865,119.4656525,125.3206100,-250.1374054
8440,0.9935886,0.7398046,10.0053177,-0.0229008,0.1450382,-2.0992367,19.6126022,-11.4442253,7.5105724,146.7557220,69.3053436,-250.1374054
8450,0.9888002,0.8236012,9.8233595,0.1374046,-0.4503817,-2.2366412,19.6108055,-15.2390156,6.5552907,172.0458069,2.7557251,-250.1374054
8460,1.0127422,0.8188128,10.0412302,0.6183206,-1.2213740,-2.2519083,9.1074963,-18.8877602,5.4036856,188.2671814,-60.4122124,-250.1374054
8470,0.9121862,0.8666966,9.9287033,1.0381680,-2.5038168,-2.0610688,-2.2146254,-19.6131992,4.4699516,198.1984711,-143.4045868,-250.1374054
8480,0.9193687,0.8786675,9.9741936,1.5114504,-3.2061069,-1.8625954,-13.2709923,-19.6131992,1.7477583,185.3435059,-250.1374054,-250.1374054
8490,0.8810617,0.9145803,9.8999729,1.8244275,-3.8625953,-1.2442749,-19.6131992,-19.6131992,-1.3814473,141.2213745,-250.1374054,-250.1374054
8500,1.0366840,0.9289455,9.7946291,1.7175573,-3.8931298,-0.0992366,-19.6131992,-16.7066536,-4.6183915,75.7175598,-250.1374054,-250.1374054
8510,1.0702027,0.8906385,9.7706871,1.1145039,-3.0687022,0.0229008,-19.6131992,-7.8002691,-6.3589673,-15.1679392,-250.1374054,-250.1374054
8520,1.0127422,0.8068419,9.7826586,-0.0076336,-1.9312977,0.3740458,-19.6131992,0.3184272,-2.5881188,-94.0534363,-242.2366486,-250.1374054
8530,1.0486550,0.7852941,9.7443514,-0.6793893,-1.9847329,1.1297710,-19.6131992,2.4660151,4.4412212,-128.0534363,-44.3435097,-249.0229034
8540,1.1204807,0.7350162,9.7419567,-1.1984733,-3.8015268,1.6641221,-19.6131992,1.8195840,9.9813757,-103.6717529,92.5496216,-89.9465637
8550,1.0510491,0.5841822,9.8377247,-1.7480916,-8.1832066,0.7557252,-19.6131992,1.7501525,12.0691090,-48.9923668,132.8702240,14.9541988
8560,0.5410868,0.2920911,10.2878323,-1.0534351,-19.3206100,-0.9694657,-19.6131992,1.7022687,11.7339230,-0.2900763,124.8854980,59.4122124
8570,-0.5003856,-0.0742199,11.2359314,2.8931298,-44.2366409,-1.0000000,-19.0290184,1.6400198,9.9406748,29.2290077,94.7633591,59.2595406
8580,-1.1300575,-0.3734936,13.2135315,10.4809160,-86.5877838,1.5725191,-14.2071199,2.2098370,7.9965930,45.9312973,57.6030540,37.5190849
8590,-1.1085097,-0.7086801,16.9077663,38.6488533,-133.4427490,3.4656489,-11.8991213,3.0837159,5.5329719,52.5343513,14.5419846,9.5114508
8600,-1.6256547,-0.5267217,18.9691639,97.5801544,-172.6259613,13.8549614,-11.0467901,4.1515245,3.2800395,46.2290077,-18.8702297,-6.9160304
8610,-0.9911944,-2.3870070,18.8063583,170.8778687,-197.1450348,30.3664131,-9.9334917,4.8003497,1.9273225,34.4274826,-31.8396950,-13.1145039
8620,1.6280488,-2.9927368,17.3602676,238.7938995,-189.7786255,35.5114517,-9.1314383,4.9080882,1.6136837,22.4809170,-26.9694653,-11.6641226
8630,2.2409613,-2.4923513,13.7881374,250.1297760,-132.0076294,35.8702278,-8.3389616,4.6973996,1.5801650,14.5114508,-10.5496187,-7.4732823
8640,0.9935886,0.4548960,9.5336628,250.1297760,-102.2671738,44.2977104,-7.5823979,4.3550305,1.5705882,9.9541988,7.0458016,-4.2824426
8650,1.6615674,1.4077834,7.9223728,243.3435059,-87.0000000,60.6488533,-7.0508881,3.9192882,1.8267666,7.1450381,19.2137413,-4.5114503
8660,3.4524212,1.3742647,4.6926112,228.7938995,-53.3282433,65.8167953,-7.0197635,3.6678982,2.4229198,6.8854961,26.9694653,-7.7938933
8670,4.6638808,2.4947455,2.1499822,201.7328186,-9.6412210,59.8320618,-7.6781654,3.3853838,2.6647329,10.0381680,34.0076332,-11.5190840
8680,5.3629842,3.9599893,1.1563935,160.9313049,29.4427490,50.3816795,-9.3924055,2.6000898,2.7533178,15.4732828,39.9694672,-15.0076332
8690,5.7077475,4.8961172,2.1882892,118.7557220,57.5038185,43.9160309,-12.0834742,2.2792683,2.5450234,21.2061062,38.9541969,-19.9007626
8700,6.0788469,5.1762376,3.7612717,89.9465637,71.5877838,38.9007645,-15.7034883,2.2912393,2.2337787,23.7099228,25.7709923,-18.1374054
8710,4.9056940,4.9200592,6.0285692,63.8549614,72.8167953,34.4656487,-19.6131992,3.4165084,0.6631905,9.6412210,-14.4732828,16.2366409
8720,4.9511838,5.8130918,6.5121951,62.0458031,60.8091621,35.7022896,-19.6131992,3.7900019,0.0909792,-4.2977099,-17.1145039,60.5190849
8730,4.9056940,5.6263452,5.4874821,54.4580154,64.7709961,31.5954189,-19.6131992,4.0461802,-0.1628049,-19.4045811,-7.5038166,124.6106873
8740,2.5905130,5.8418221,4.2616572,37.6335869,79.4961853,29.3969460,-19.6131992,3.7612717,-0.1843526,-35.8931313,1.0000000,198.8091583
8750,3.3614421,5.5281835,4.8338685,16.9007626,81.4198456,31.3282452,-19.6131992,2.9161227,0.1436514,-51.4274826,16.7557259,250.1297760
8760,3.0621684,5.4491754,4.5848727,-4.0305343,90.1221390,30.6793900,-19.6131992,2.0398495,0.7086801,-61.9007645,26.5877857,250.1297760
8770,3.6295912,5.2935529,5.1738434,-25.3587780,107.9694672,27.6946564,-18.3490677,1.2617378,1.0318956,-68.7786255,18.5038166,250.1297760
8780,3.7062054,5.0565281,5.6311336,-47.3358765,132.4274750,25.4198475,-15.6484222,0.6272776,1.0893562,-74.5877838,-1.5114504,250.1297760
8790,3.9528067,4.9918852,6.2943239,-69.3587799,158.2824402,18.9465656,-13.4457684,0.4309541,0.9696468,-80.1374054,-22.9465656,250.1297760
8800,3.7277529,4.4962878,7.3980455,-85.4732819,172.4274750,11.4045801,-10.7762470,0.0430954,0.6464311,-88.0305328,-22.3053436,250.1297760
8810,3.8211265,4.4771342,8.6358414,-92.9007645,178.6488495,3.6335878,-7.9367380,-0.6320660,1.3479286,-93.7175598,5.2824426,250.1297760
8820,3.9192882,3.9671719,9.8065996,-94.9236679,184.5343475,-6.4427481,-5.6287394,-1.3742647,2.1427996,-91.6564865,39.1068687,250.1297760
8830,3.7038112,3.4763632,11.4849272,-90.3435135,207.4198456,-16.4427490,-3.5290353,-1.6950861,2.9951310,-81.5114517,69.8854980,250.1297760
8840,2.9328821,3.4596038,13.2207146,-73.1297684,235.8549652,-20.6106873,-1.9345051,-1.8100072,3.6056492,-68.0916061,89.6030502,250.1297760
