timestamp,rxacclX,rxacclY,rxacclZ,rxgyroX,rxgyroY,rxgyroZ,txacclX,txacclY,txacclZ,txgyroX,txgyroY,txgyroZ
0,0.0191535,-0.2154770,9.9646168,-0.6870229,-0.3740458,0.3740458,-2.0230901,5.4587522,8.6478119,6.5038166,20.9694653,47.7938919
10,-0.0478838,-0.1436514,9.9287033,-0.7709923,-0.0763359,0.1221374,-0.8786675,4.9104824,7.8433647,37.0076332,24.0763359,45.0000000
20,0.0502780,-0.1029501,9.8065996,-0.6335878,-0.4274809,0.2977099,-0.1556223,5.1762376,3.4811516,28.5877857,14.7786255,-12.2213745
30,0.0095768,-0.1867468,9.9454632,-0.5496183,0.0687023,0.3435115,-0.6607963,5.3174949,3.2560976,16.1984730,8.8167934,-13.7480917
40,0.1484398,-0.2011119,9.8616667,-0.6488550,-0.4045801,0.1374046,-1.1396341,5.5832496,3.9336534,3.0381680,8.2824430,-12.0229006
50,-0.0478838,-0.1005560,9.8664551,-0.6564885,-0.3129771,0.3358779,-1.8411317,5.4084740,5.3749552,-8.4656487,-3.7251909,-6.9541984
60,-0.1005560,-0.1316804,9.8065996,-0.8015267,-0.1908397,0.2213740,-1.7788827,5.3677726,5.4994531,-9.7404585,-10.2213745,-5.5648856
70,0.0287303,-0.1460456,9.8065996,-0.9236641,-0.0458015,0.2824427,-1.6926919,5.3941088,5.6957769,-10.5267172,-15.1679392,-4.4198475
80,-0.0119709,-0.2274480,9.9047613,-0.6106870,-0.2824427,0.3206107,-1.6926919,5.5928264,5.9711084,-12.0839691,-20.5419846,-5.2977099
90,0.0598547,-0.1867468,9.9143381,-0.8549618,-0.0152672,0.2290076,-1.6304430,5.5952206,5.9351954,-14.6870232,-21.5648861,-7.7022901
100,0.0335187,-0.1244979,9.9023676,-0.5954198,0.3511450,0.5572519,-1.8411317,5.6694407,6.1674318,-18.9007626,-24.0381680,-10.9618320
110,-0.0095768,-0.1604107,9.9694052,-0.6946565,-0.0229008,0.5877863,-1.9895715,5.8322453,6.2248926,-24.3129768,-31.6793900,-15.1679392
120,0.0670373,-0.1149211,9.9215212,-0.6183206,-0.0992366,0.3358779,-2.4947455,6.0118098,6.5505023,-30.2442741,-40.7862587,-17.0076332
130,0.0742199,-0.1651991,9.9047613,-0.7633588,-0.0381679,0.2671756,-2.8012016,6.1363077,6.6821828,-37.6946564,-51.6717567,-19.3053436
140,0.0000000,-0.0981618,9.9191265,-0.8167939,0.0381679,0.3129771,-3.0621684,6.1578555,7.0724359,-45.5725174,-62.1221390,-19.0610695
150,0.0287303,-0.1460456,9.9741936,-0.7404580,-0.4809160,0.4427481,-2.9304879,6.1123657,7.4866304,-51.9007645,-77.3511429,-21.2137413
160,0.0814024,-0.1508339,9.9239149,-0.7404580,0.0076336,0.0839695,-2.8921809,6.0908179,7.8720951,-55.7633591,-91.7099228,-23.0610695
170,-0.0981618,-0.1388630,9.8544836,-0.6793893,0.0076336,0.5343512,-2.8155668,6.1602492,8.4155760,-57.4274826,-101.4427490,-24.3587780
180,-0.0526722,-0.1628049,9.9454632,-0.5496183,-0.6335878,0.2366412,-2.7605004,6.1770086,8.6334467,-57.5954208,-108.3740463,-25.4122143
190,-0.0574605,-0.1604107,10.0340481,-0.7786260,-0.2900763,0.1450382,-2.5881188,6.1985564,8.8082228,-57.0000000,-112.1297684,-26.4427490
200,-0.0359128,-0.0885850,9.8568783,-0.5648855,-0.0763359,0.2061069,-2.3606708,6.2129216,9.1601686,-55.2137413,-113.6259537,-26.9923668
210,0.0359128,-0.1364688,9.9598284,-0.5648855,-0.3206107,0.1755725,-2.2242019,6.2584114,9.4067707,-50.9541969,-113.1755753,-28.0152664
220,-0.0526722,-0.1340746,9.9023676,-0.8320611,-0.3893130,0.3206107,-1.8914096,6.2009506,9.7467451,-45.1145020,-109.8320618,-30.7251911
230,-0.0646431,-0.1484398,9.8951855,-0.8473282,-0.0916031,0.3969466,-1.6639616,6.1171541,9.7443514,-37.7251892,-103.1984711,-34.0763359
240,-0.0215477,-0.1316804,9.9071560,-0.7328244,-0.2977099,0.5267175,-1.2138541,6.2727766,9.7850523,-31.0687027,-89.3053436,-46.5343513
250,-0.0071826,-0.1532281,9.8951855,-0.6641222,-0.1297710,0.2213740,-2.1835008,6.6462698,9.7539282,-21.3206100,-84.5954208,-47.3053436
260,-0.0478838,-0.1675933,9.9502516,-0.7557252,-0.2595420,0.1145038,-2.6024840,6.8186517,9.5911226,-11.5343513,-78.2061081,-40.9847336
270,0.0119709,-0.1005560,9.9502516,-0.7862595,-0.4503817,0.1374046,-2.7748656,6.8689294,9.3133974,-3.4580152,-66.0076370,-33.4503822
280,0.0359128,-0.1268920,9.8568783,-0.3740458,-0.0458015,0.2442748,-2.7772598,7.0221577,8.8776541,3.3816793,-51.9465637,-28.0687027
290,-0.0023942,-0.1628049,9.7970228,-0.6717557,-0.2748092,0.1908397,-2.9233053,7.2280579,8.6717539,8.8396950,-37.1297722,-23.2519093
300,-0.0191535,-0.1149211,9.7874460,-1.0000000,-0.1374046,0.4198473,-3.0382264,7.2376347,8.3940287,12.8625956,-21.0152664,-18.2061062
310,0.0047884,-0.1388630,9.9670105,-0.7175573,-0.3129771,0.1908397,-3.3614421,7.3405848,8.0899658,15.0992365,-3.5648854,-14.0992365
320,0.0430954,-0.1819584,9.8880024,-0.5725191,0.0687023,0.3053435,-3.7923961,7.5728211,7.8409705,16.4198475,20.3129768,-3.0839694
330,0.0095768,-0.1771700,9.8520899,-0.6259542,-0.2290076,0.4503817,-3.9216824,7.5464849,7.7260494,15.9160309,24.3816795,5.4885497
340,-0.0167593,-0.1436514,9.9334917,-0.7862595,-0.3206107,0.4198473,-3.8474624,7.6159167,7.5800037,16.0229015,22.9923668,10.4045801
350,0.0526722,-0.1987177,9.8640604,-0.7557252,0.0076336,0.3129771,-3.5793133,7.8385763,7.5632443,16.7557259,22.3893127,14.2977095
360,-0.0383070,-0.1244979,9.9622221,-0.7557252,-0.0152672,0.2748092,-3.3135581,8.0420828,7.3788919,17.2061062,25.7404575,18.2442741
370,0.1556223,-0.2346306,9.9191265,-0.0610687,0.0610687,0.5572519,-2.5713594,8.5424681,7.5369086,14.3893127,34.4427490,26.0305347
380,-0.2537841,-0.1532281,10.0053177,-0.6259542,-0.1374046,0.1908397,-1.8219782,8.0085640,7.4602942,12.7480917,52.5419846,28.3664131
390,-0.0095768,-0.1484398,9.9646168,-0.8244275,-0.6259542,0.4503817,-3.0047078,7.4124107,6.6845770,16.5267181,86.1908417,21.5496178
400,-0.0143651,-0.1843526,9.9167328,-0.7557252,-0.0610687,0.3816794,-3.2728570,7.6542239,6.2224984,12.8702288,85.7404556,21.1755733
410,0.1149211,-0.1364688,9.8544836,-0.7099237,-0.5190840,0.3129771,-4.0940638,7.9080076,5.6885943,2.2824428,85.0152664,23.9465656
420,0.0167593,-0.1197095,9.8520899,-0.7633588,-0.3206107,0.4122137,-4.5178356,7.6230993,5.7556314,-12.3206110,73.9542007,32.8931313
430,0.1388630,-0.2011119,9.9574337,-0.6412213,-2.2519083,-0.8549618,-4.2185616,7.5416965,5.6766233,-20.6183205,69.6793900,37.9389305
440,0.0981618,-0.1173153,9.8760319,-0.4045801,3.2824428,-8.2595415,-3.9168940,7.3525558,5.8513989,-29.9618320,67.7786255,42.2519073
450,0.4022238,-0.1149211,9.8880024,0.5877863,0.9236641,-15.7251911,-3.4117200,6.8952656,6.3469963,-36.9389305,65.6793900,43.1832047
460,-0.1747758,-0.3016679,9.9430685,1.0381680,-5.9770994,-21.0992374,-2.8347204,6.8617468,7.0293403,-41.8320618,64.2061081,43.1297722
470,-2.0063307,-0.5793939,10.0939026,0.2748092,-15.6946564,-23.4274807,-2.6886747,6.3565731,8.0061693,-42.8549614,69.6106873,42.5954208
480,-1.2282192,-1.4413021,9.7802639,-0.0992366,-12.8549614,-27.7862587,-2.5689652,5.8585815,8.9566631,-38.2290077,83.6183243,42.4732819
490,-0.5075682,-1.2210367,9.6054878,-1.6870229,-6.2824426,-32.6183205,-2.6072724,5.2839761,9.9957409,-29.0839691,102.4045792,45.4809151
500,1.6615674,-0.7230452,9.7515335,-1.0152671,1.7938931,-34.4427490,-2.8754215,5.0565281,10.7044210,-17.3358784,122.6564865,47.6946564
510,2.0063307,1.9847831,9.1745338,1.4274809,5.7099237,-14.5572519,-2.9256995,4.7117648,11.1760759,-4.7709923,137.0763397,52.4351158
520,0.8427547,-0.2753318,9.3756456,-6.9618320,-22.3206100,25.3282452,-2.7964132,4.6495161,11.6166077,20.0305347,147.9694672,58.5343513
530,-0.9289455,-1.1923064,10.1753054,-7.9770994,-24.9083977,25.6183205,-2.8514795,4.6543045,12.0667152,30.9389305,157.8854980,60.6488533
540,-0.7709290,-1.3694763,10.2806492,-8.7175570,-25.9007626,28.7022896,-2.9520357,4.5202298,12.3659887,41.8015251,166.1297760,64.7480927
550,-1.0318956,-0.7852941,10.6756907,-12.1679392,-39.5954208,37.1526718,-2.7341642,4.3454537,12.7514534,53.9312973,166.1145020,66.7251892
560,-0.4046180,-0.3974355,9.6701307,-9.3053436,-32.1832047,47.2061081,-2.4301023,4.1443419,12.5311880,66.4809189,158.5496216,64.8473282
570,-0.4812321,0.3303981,10.2734671,-4.4809160,-32.6259537,47.5496178,-2.1930776,4.0461802,12.3516235,76.6793900,150.0229034,62.5419846
580,-1.6184721,0.0622489,9.8712435,-2.0687022,-37.7251892,40.8778610,-1.6256547,4.0773048,11.9781294,85.1221390,139.3969421,58.9694672
590,-0.7326220,-1.3718705,10.5535870,-1.1526718,-27.8167934,33.7786255,-0.9744351,4.1587071,11.4346485,91.2061081,126.8778610,52.5572510
600,-0.4165890,-2.3247581,10.6780853,4.7862597,-20.7938938,31.1526718,-0.4453192,4.1275826,10.9462337,97.6335907,114.2748108,41.6793900
610,1.0390782,-1.5011568,10.6732969,15.1984730,-26.4961834,31.6488552,-0.2489957,4.2544746,10.6278067,102.1679382,100.7938919,30.5572510
620,1.9297167,0.0191535,10.2112179,22.8015270,-24.4503822,25.6335869,-0.1101327,4.2784166,10.3141680,107.2824402,86.4885483,18.4656487
630,0.9744351,0.7206510,9.1625633,19.7404575,-28.5572510,16.8625946,-0.2250538,4.5369892,9.8377247,111.7328262,72.8396912,6.6335878
640,0.8379663,0.2226596,8.7483683,3.5419848,-48.2824440,11.8702288,-0.3782819,4.8003497,9.1601686,115.9847336,58.0076332,-5.4885497
650,1.1851238,-0.1915352,8.8728657,-9.7557249,-60.8015251,14.0534353,-0.3447633,4.9559722,8.2958660,118.4427490,50.6259537,-15.0916033
660,1.4389079,-0.3950413,9.2104464,-17.1145039,-65.1908417,25.0687027,-0.5267217,5.0493455,7.4674768,119.9618301,48.1221390,-25.8549614
670,1.4628497,-0.3447633,10.1250277,-34.7022896,-108.4809189,29.5190830,-0.9528874,5.3486195,6.7468257,122.3053436,48.1755714,-34.5190849
680,3.6200144,-1.7669119,10.6613255,-46.9465637,-153.1145020,26.0534344,-1.7860653,5.6478930,6.1339135,125.7251892,47.1679382,-43.5954208
690,4.3334827,-1.8483143,17.8798065,17.0610695,-176.5572510,16.8320618,-3.0693510,5.9806852,5.2720051,132.1755676,42.7862587,-52.3893127
700,4.4986820,-2.1978660,8.1498213,2.9618320,-185.7022858,30.8167934,-4.2592630,7.0652533,3.2991931,136.8320618,54.6641235,-58.9541969
710,0.4908088,-0.7661406,9.3612804,7.8320613,-200.6641235,54.3893127,-6.3637557,7.8313937,0.1723816,140.2748108,58.2595406,-51.9160309
720,0.8834559,-0.0383070,10.1034794,18.3969460,-226.7938995,69.1984711,-7.7380204,8.9039907,-3.8067613,135.0458069,52.9618340,-36.4198456
730,3.2273674,0.1364688,8.9542685,30.4427490,-240.2900696,76.2137375,-7.7428088,10.1513634,-6.9910331,117.1145020,56.2366409,-16.6641216
740,4.5920553,1.1516051,6.4619174,33.8015251,-197.5038147,80.2366409,-7.2089043,11.0659437,-9.4666252,91.3435135,75.7099228,4.7709923
750,3.7804251,1.7525467,6.4930420,30.5190830,-136.3893127,81.7786255,-6.2392578,11.2814207,-10.8672256,64.6564865,93.2442780,23.2137413
760,2.4636209,3.3853838,7.5345144,7.8625956,-76.2137375,66.6793900,-5.1307478,11.9877062,-11.5471754,41.9694672,115.6412201,35.0458031
770,1.9345051,1.2593436,10.6996326,18.1297703,-54.5877876,50.3435097,-4.4436154,12.5072460,-12.2845860,22.7709923,135.0305328,43.0381660
780,1.6065011,-1.3144100,10.2088242,26.4885502,-65.3816757,71.2748108,-4.0222383,12.5479469,-12.8472204,3.7175572,143.3893127,49.1145020
790,7.1155310,-2.4396791,9.0308828,32.9236641,-74.1450348,118.8854980,-3.1148405,12.6820211,-13.3092995,-20.1374054,138.6030579,49.7938919
800,3.8378856,0.2011119,8.5472565,12.4656487,-14.8320608,149.8473358,-2.1092808,12.3133163,-13.4194317,-49.0152664,121.0000000,45.6793900
810,7.1921453,0.2992737,6.4978304,3.2442749,14.2900763,99.7404556,-1.0821736,11.5926657,-13.1441002,-84.1526718,92.9007645,33.6030540
820,8.2671366,-1.3742647,5.9687142,7.2519083,-8.2748089,18.0381680,-0.5841822,10.6685085,-11.8775740,-122.5419846,60.1755714,17.9312973
830,5.0589223,-1.7932479,8.1115141,1.2290076,-1.9541985,-1.9618320,-0.4477134,9.7323799,-9.7251978,-160.5801544,24.9694653,1.0534351
840,2.9304879,-0.1819584,9.8544836,-3.5190840,16.1145039,7.0381680,-0.9361281,8.5783806,-6.8569584,-191.6106873,-2.5954199,-12.3664122
850,2.4516499,0.7038917,10.3907824,1.1603054,-2.2824428,14.8931293,-1.8411317,7.6590118,-3.5050933,-210.9694672,-9.4961834,-18.7175579
860,3.2800395,0.1819584,9.4953556,1.9389313,5.5343513,25.6259537,-2.7389526,6.6893654,-0.1197095,-218.7557220,-6.8473282,-19.0000000
870,3.7349355,-0.6919208,9.4307127,0.4580153,25.2519093,29.3969460,-3.8714044,5.8657641,2.9831600,-216.3664093,4.2595420,-15.7938929
880,4.3358769,-0.6512195,10.5607700,3.5343511,39.8702278,23.0152664,-5.9998388,4.8841467,6.5050125,-201.9465637,35.1221390,-4.0992365
890,4.7381010,-0.1029501,10.7858238,16.7786255,51.1755714,17.6335869,-8.4227581,4.3095412,10.5511932,-175.3358765,89.3053436,19.6183205
900,5.4156566,0.4764437,11.0970678,31.2519093,52.0458031,9.2519083,-10.4530315,3.3542595,15.0714226,-137.2977142,155.2671814,50.8473282
910,5.8346395,0.4381367,10.7834291,39.2900772,62.1908379,-0.3206107,-11.2000179,2.1404054,19.3665981,-95.1679382,241.7633514,84.0152664
920,5.8083038,0.0119709,10.1417866,42.3053436,71.7786255,-18.5801525,-11.6190014,2.3798244,19.6126022,-53.6030540,250.1297760,108.8549652
930,2.6096666,-0.7014975,9.5671806,45.2671738,75.9312973,-22.9770985,-13.3092995,2.8371146,19.6126022,0.5877863,250.1297760,123.2824402
940,5.3270717,-0.2442073,8.8848372,37.4045792,85.7480927,-22.4885502,-14.2286682,3.2034254,19.6126022,64.2290039,250.1297760,133.4351196
950,4.0461802,0.2657550,9.7228031,30.2671757,75.2061081,-27.4503822,-14.6644106,3.2728570,19.6126022,127.4885483,250.1297760,143.5190887
960,4.3789725,-0.2585725,9.5552101,29.3282452,87.8778610,-41.5496178,-14.0371332,3.1770895,19.6126022,181.6717529,239.8244324,154.6259613
970,3.1579359,-0.5195391,8.9877872,21.9083977,101.7480927,-55.3587799,-12.4761209,3.2201848,17.7984047,218.2595367,215.8931274,162.5648804
980,2.7628946,-1.0390782,9.2463598,7.5801525,91.3511429,-71.3206100,-11.4250717,3.1531475,12.1098099,236.9541931,212.9465637,170.5954132
990,2.9280937,-1.1468167,9.4091644,-2.5496182,115.4122162,-79.8244247,-11.0850973,3.5242469,7.3980455,241.4198456,224.0992432,182.6488495
1000,2.6144550,-0.1843526,9.3971939,-8.2442751,150.0992432,-72.1068726,-9.6940727,4.2161674,3.2967989,233.5114441,233.9465637,198.5572510
1010,1.2976507,-0.6655847,11.2766323,-11.3587790,180.2137451,-65.1297684,-7.8529415,5.0373745,0.1005560,218.7557220,228.9770966,211.9160309
1020,1.3766589,-0.4477134,12.1457233,-8.5419846,189.7862549,-52.8396950,-5.6694407,5.2432747,-3.1483591,201.1679382,206.5496216,223.2900696
1030,2.1523764,0.3423691,13.0267849,5.4656487,210.8778687,-35.9160309,-2.4444675,5.8154860,-6.2631998,178.0686951,183.1221313,232.9694672
1040,2.8179610,0.2466015,13.3188763,28.2213745,231.0686951,-29.8702297,1.1252691,6.3685441,-9.1242561,148.7862549,161.5648804,238.6183167
1050,2.7150109,0.4070122,12.5455532,52.1526718,239.7175598,-32.9236641,4.5872669,6.5576849,-10.3572636,120.7328262,147.5572510,242.5877838
1060,2.4372849,0.6847382,11.0180597,66.6488571,232.3206177,-41.1832047,9.1481981,5.7221127,-11.6333666,101.1908417,146.6641235,237.9313049
1070,2.6551561,0.7517755,10.0340481,72.3282471,234.3740387,-55.2442741,14.3603487,5.3941088,-12.4258432,82.7175598,164.6030579,219.5419922
1080,2.3678534,0.5913648,9.3325500,75.5572510,234.4122162,-73.5954208,18.8111458,5.2576399,-13.0914278,58.5572510,183.8854980,181.3053436
1090,1.0390782,0.7278336,8.3724804,75.8320618,230.0152740,-88.5114517,19.6126022,5.2241216,-13.1417055,22.6412220,168.1603088,122.6335907
1100,0.4596844,-0.4764437,8.5999289,76.7404556,209.6183167,-104.5496216,19.6126022,5.5952206,-12.4545736,-16.4198475,103.1145020,49.4198456
1110,0.9169745,-1.1396341,8.6382351,85.7709961,174.7480927,-122.8931274,19.6126022,5.7340837,-11.4849272,-57.5419846,7.9847326,-31.4427490
1120,-0.0215477,-1.0941446,8.7196379,100.0381699,141.2900696,-145.6870270,19.6126022,5.6095858,-10.4075413,-97.7480927,-93.9770966,-107.4961853
1130,-3.0262554,-0.0359128,8.3748751,113.5038147,109.0610657,-159.0686951,19.6126022,5.3007355,-8.7986460,-134.0610657,-172.7328186,-171.4503784
1140,-3.7588775,0.9864060,8.2958660,124.4198456,82.6793900,-154.8625946,17.6715126,4.6758518,-6.6917596,-161.3282471,-218.6030579,-223.4809113
1150,-5.0756817,0.7589580,6.3230543,120.8015289,65.6793900,-147.8931274,14.8032732,3.9575951,-5.0493455,-179.5190887,-237.6183167,-250.1374054
1160,-4.2233500,1.4317253,4.8314743,97.8931274,53.6488533,-148.8320618,11.3532467,3.5242469,-3.5338237,-191.2595367,-240.6106873,-250.1374054
1170,-3.8019729,1.7453641,4.7309184,72.1526718,79.2137375,-151.1221313,7.2328463,3.1363883,-1.7166338,-198.8244324,-233.1145020,-250.1374054
1180,-4.4316444,1.6687500,4.4843168,34.8549614,107.4198456,-140.9541931,2.4684093,2.9472473,-0.0430954,-198.5648804,-211.6946564,-250.1374054
1190,-6.3733325,1.2018831,4.5082588,3.7862597,120.8854980,-117.8167953,-3.5410061,2.6407909,1.4628497,-186.3816833,-152.4732819,-250.1374054
1200,-6.9862447,0.9552816,5.4635406,-17.4732819,117.5343475,-94.3358765,-10.5847120,3.0525916,2.9041519,-162.8473358,-47.3816795,-250.1374054
1210,-6.5792327,1.2689204,6.4307928,-26.1603050,98.1603088,-78.9389343,-18.8733959,4.8889351,4.9200592,-134.4961853,89.6488571,-207.9770966
1220,-5.9447722,0.9744351,7.7332320,-23.0305347,78.9312973,-71.5190811,-19.6131992,7.5871863,7.4914188,-104.1297684,211.1832123,-122.4961853
1230,-6.0740585,1.1037214,8.6334467,-12.8625956,63.3740463,-68.6870193,-19.6131992,8.6956959,8.7363977,-75.8625946,250.1297760,-23.6030540
1240,-7.7763271,0.7757174,8.3988171,0.6946565,31.7480907,-64.1450348,-19.6131992,8.9614515,8.9039907,-52.3816795,245.9160309,73.0763321
1250,-6.8162575,1.7477583,8.3054428,12.6259546,-17.5496178,-60.9389305,-19.6131992,8.0540533,8.6118994,-33.5496178,204.9541931,147.7862549
1260,-5.4946647,2.5450234,8.6334467,22.2290077,-27.8320618,-61.0992355,-19.6131992,7.0724359,8.4467001,-15.5496187,194.8778687,196.9236603
1270,-5.1642666,2.0206959,7.9941988,28.1908398,-28.8931293,-62.4809151,-18.3011837,6.7061248,7.9223728,5.1984735,204.2290039,228.8931274
1280,-5.2025738,0.7948709,7.0125809,15.7480917,-47.2366409,-57.5725174,-13.8096848,7.3070664,6.5289545,25.4885502,194.6488495,245.9313049
1290,-5.1211715,0.0095768,6.6630292,-14.2442751,-44.0610695,-46.3969460,-10.1609402,7.8888540,4.4029145,38.8931313,164.3129730,250.1297760
1300,-5.2983413,-0.5458752,6.6510582,-46.4122124,-30.8931293,-27.5267181,-6.7587967,8.6789370,1.9153515,42.1297722,122.8625946,250.1297760
1310,-5.5186067,-0.7996593,7.4315639,-73.8091583,-14.6412210,-8.9923668,-3.5817075,9.6390066,-0.2059003,35.8244286,85.5572510,250.1297760
1320,-6.1291251,-0.3423691,8.5209198,-92.4732819,-8.9618320,9.6793890,-0.6033357,9.6773138,-1.7956421,24.5038166,56.4809151,250.1297760
1330,-6.3637557,0.2513899,9.1721401,-100.7938919,-13.9770994,32.7709923,2.4660151,9.2703018,-2.8395088,14.6946564,39.1526718,250.1297760
1340,-5.4755111,0.6655847,9.6390066,-99.4580154,-24.0916023,52.2137413,6.0692701,8.6502066,-3.8402798,6.5954199,30.7099228,248.4656525
1350,-4.7452836,0.9433106,9.4714136,-95.8702316,-23.4045811,60.3435097,10.3644457,7.7739329,-4.6519103,-1.4198474,32.5419846,236.0458069
1360,-3.9360476,1.0582317,9.7180147,-91.9923630,-24.3587780,57.3435097,14.9756546,6.9359670,-5.6981707,-8.9007635,45.1526718,209.8015289
1370,-3.0573800,1.1085097,9.6581602,-86.7022934,-32.8244286,45.8091621,19.6126022,6.4643116,-6.3900914,-20.7633591,56.3893127,162.1679382
1380,-3.0262554,1.0510491,9.6246414,-80.7022934,-49.1450386,32.6641235,19.6126022,6.2464404,-6.6103573,-38.5190849,56.5267181,92.5419846
1390,-3.1770895,1.0295014,9.1051025,-74.3969498,-68.0763321,23.5877857,19.6126022,6.1554613,-6.1722202,-59.9847336,38.0458031,9.1068707
1400,-3.3159523,0.6943150,9.0069408,-71.8473282,-78.8091583,18.4503822,19.6126022,6.1817970,-5.0613165,-81.7862625,0.6717557,-74.4656525
1410,-2.9256995,0.0383070,9.5384512,-71.6564865,-84.2977066,17.2213745,19.6126022,6.1075773,-3.6295912,-101.5954208,-46.7175560,-149.9465637
1420,-2.7533178,-0.4285599,9.6246414,-71.1526718,-77.7633591,26.0229015,17.7816448,5.6814117,-2.1691356,-118.7633591,-90.6259537,-211.3206177
1430,-2.2242019,-1.0749911,9.0883436,-67.1908417,-46.6030540,41.2366409,14.6356802,5.1259594,-0.9409165,-131.8396912,-116.1145020,-250.1374054
1440,-2.8921809,-1.7046629,8.4538832,-62.7938919,2.0916030,56.2519073,11.3197279,4.1371593,0.6655847,-138.9084015,-125.9694672,-250.1374054
1450,-3.2728570,-1.9464760,8.4371233,-59.5648842,21.6793900,65.0381699,7.7906923,3.3542595,1.8028246,-139.6030579,-125.9847336,-250.1374054
1460,-3.4763632,-2.1140692,8.6933022,-51.8015251,18.0381680,69.8091583,3.6655040,2.8083842,2.6695213,-133.3969421,-113.5038147,-250.1374054
1470,-3.8426740,-1.7190280,8.6741486,-41.4656487,12.7480917,73.8625946,-1.2545552,2.0135133,3.1076579,-121.2442780,-85.7938919,-250.1374054
1480,-3.7684543,-1.4676381,8.9159613,-27.9770985,15.8091602,79.4122162,-7.5153608,1.9273225,3.7660601,-101.3129807,-31.0992374,-250.1374054
1490,-3.9552009,-1.2856797,8.8968077,-14.2900763,27.1450386,87.6412201,-16.6491928,3.7301471,4.8913293,-75.5038147,57.7099228,-250.1374054
1500,-3.7588775,-0.9480990,9.4187412,2.4045801,37.9083977,93.9389343,-19.6131992,7.6901364,6.2129216,-50.8549614,150.2366486,-197.8854980
1510,-3.7828193,-0.5913648,9.4738073,19.4274807,45.3358765,100.3129807,-19.6131992,10.1753054,6.3757267,-39.0000000,183.1374054,-71.4198456
1520,-3.6248028,-0.3998296,9.3469152,34.0000000,47.8396950,100.1755753,-19.6131992,8.9470863,6.4188218,-37.4427490,142.4656525,58.8625946
1530,-2.8155668,-0.8403605,9.0524302,44.5725174,46.9236641,88.8473282,-19.6131992,7.0006099,7.6374645,-33.3358765,94.7786255,160.0305328
1540,-1.1587877,0.1292862,7.5919747,40.9618340,13.4198475,-4.3282442,-19.6131992,4.7285242,9.8161764,-18.4580154,79.9007645,216.0076294
1550,-2.7748656,1.3096216,7.7859039,36.0000000,-10.8473282,-51.3435097,-17.9899387,3.5864959,11.6429434,7.7633586,82.1603088,237.8091583
1560,-3.9288650,0.6440369,8.4730368,34.9618340,-20.9694653,-45.6717567,-13.6349087,3.9815371,12.1840305,38.2061081,78.5343475,236.2137451
1570,-4.5705075,-0.9433106,8.6909075,36.7022896,-30.9847336,-46.0610695,-10.9079275,4.4603748,11.2215662,65.7328262,54.8015251,223.8320618
1580,-5.1499014,-1.1587877,7.8385763,37.4351158,-38.0000000,-46.6717567,-8.8393478,5.1379304,9.3995876,83.5038147,15.5419846,209.1068726
1590,-5.5210009,-1.2162483,7.7428088,36.4732819,-47.9847336,-38.7175560,-6.8210459,5.7556314,7.3645267,91.5114517,-19.6030540,195.7557220
1600,-5.4108682,-0.7493813,7.4339581,31.9770985,-56.4198456,-31.0687027,-5.2121506,6.0357518,5.2432747,92.1221390,-45.1068687,187.3969421
1610,-5.4874821,-0.4764437,7.6470413,24.0610695,-61.9236641,-24.7251911,-3.4548154,6.1291251,3.1842721,91.5801544,-54.5801544,187.1603088
1620,-4.9104824,-0.2274480,8.1163025,14.9007635,-71.3206100,-18.7786255,-1.5035510,6.5337429,1.5801650,89.9160309,-42.8167953,194.3435059
1630,-4.0006905,-0.2226596,9.0979195,11.7862597,-79.3435135,-18.0458012,0.2777260,7.1634150,0.2801202,92.7480927,-20.3740463,207.4427490
1640,-3.8450682,-0.1628049,9.6198530,11.6793890,-84.5496216,-20.4198475,2.4827745,7.5632443,-0.9672526,94.5572510,-1.1068702,222.7022858
1650,-3.3901722,0.1244979,10.2207947,13.1145039,-86.0152664,-23.5496178,6.2679882,7.1610208,-2.2577207,95.7099228,12.4122133,233.9694672
1660,-2.9304879,0.3734936,11.3053627,12.5572519,-71.1755753,-27.4809170,11.1976242,6.7037306,-4.0940638,95.4732819,26.6641216,230.9465637
1670,-3.3877780,-0.1364688,11.7722292,17.3206100,-48.4427490,-25.6946564,16.1296539,6.4738884,-5.7460546,86.1374054,40.8473282,211.2061005
1680,-3.5218527,-0.6799498,11.5974541,24.1679382,-29.3511448,-17.8167934,19.6126022,5.9447722,-7.4866304,67.4198456,41.5572510,167.8854980
1690,-3.3255291,-0.6536137,10.6709023,27.0687027,-17.8625946,-10.7786255,19.6126022,6.0094156,-8.2024927,41.9389305,31.5496178,101.4809189
1700,-2.9089401,-0.2944853,9.8233595,27.1679382,-10.4274807,-7.8473282,19.6126022,6.3805151,-7.7619624,12.7480917,8.6183205,20.5877857
1710,-2.6312141,0.0047884,9.0859489,23.6106873,-7.8625956,-6.8854961,19.6126022,6.7157016,-6.7755561,-17.5877857,-32.2595406,-56.5572510
1720,-2.6838863,0.0550664,8.7196379,21.2519093,-8.1755724,-6.9160304,19.6126022,6.8114691,-5.4850879,-45.6717567,-84.6412201,-126.3435135
1730,-2.5378408,0.1053443,8.2384062,17.4503822,-15.1374044,-7.3740458,19.6126022,6.6342988,-3.7780309,-67.8625946,-125.5877838,-186.1526642
1740,-2.3558824,0.0790083,8.0684185,13.6717558,-21.2595425,-8.9541988,17.5182838,6.1315193,-2.1787124,-82.1145020,-147.3893127,-232.3587799
1750,-2.1619530,0.1364688,8.2096758,8.8244276,-28.3206100,-10.7022905,14.3411951,5.8035154,-0.6200951,-87.2442780,-154.1679382,-250.1374054
1760,-1.9081690,0.2585725,8.3533268,4.6183205,-30.9923668,-13.1908398,11.1760759,5.1666608,0.3447633,-87.0152664,-148.8549652,-250.1374054
1770,-1.9249283,0.3902529,8.4658537,1.4885496,-29.1908398,-17.1984730,7.7116842,4.6926112,0.9624642,-83.2824402,-140.6717529,-250.1374054
1780,-2.2098370,0.2944853,8.6693602,-2.8015268,-28.1832066,-21.0076332,3.5673423,4.2879934,1.1683644,-79.1526718,-118.9236679,-250.1374054
1790,-2.4588325,0.1292862,9.1003141,-4.1526718,-28.5648861,-23.5725193,-1.4628497,4.1778607,1.2761030,-70.1679382,-72.3053436,-250.1374054
1800,-2.7413468,0.0574605,9.3373384,-5.5496182,-26.7709923,-23.0381680,-8.4586716,4.6088147,2.0111191,-52.7404594,-3.0534351,-250.1374054
1810,-2.8682389,0.0311245,9.3876171,-8.5496187,-20.7709923,-20.7404575,-16.8838234,6.8090749,2.8490853,-33.0228996,80.5648880,-240.9236603
1820,-3.0597742,0.0502780,9.5959110,-9.4732828,-15.5267172,-18.2061062,-19.6131992,9.5911226,2.7389526,-15.7709923,151.0686951,-155.7633514
1830,-1.8554969,-0.4740495,9.8401184,6.9541984,-15.4351149,-0.5114504,19.6126022,-1.0797794,0.1292862,-72.0839691,-16.5572510,219.8320618
1840,-1.6448082,-0.3639168,10.1034794,8.7175570,-12.8702288,-2.4198472,19.6126022,0.1460456,-0.1723816,-78.7633591,-41.1679382,106.9312973
1850,-1.7788827,-0.3591284,10.3357162,11.5190840,-10.5572519,-4.9236641,19.6126022,1.0845678,-0.2968795,-98.8702316,-72.3053436,9.4198475
1860,-1.7070571,-0.3256098,10.3716288,16.7328243,-10.1603050,-6.7862597,19.6126022,1.1827296,0.7733232,-121.7480927,-97.8625946,-72.9618301
1870,-1.8722562,-0.1891410,9.8856087,20.8702297,-10.5725193,-7.5038166,19.6126022,0.9696468,2.8993635,-131.6412201,-112.7938919,-138.8931274
1880,-1.8674678,-0.1221037,9.2846670,20.5725193,-10.7099237,-7.6717558,19.6126022,0.7733232,5.3629842,-125.0839691,-110.3206100,-190.4122162
1890,-1.8459201,0.0047884,9.0691900,17.1832066,-8.2061071,-7.5419846,19.6126022,0.9026094,6.6678176,-105.8015289,-88.2061081,-232.4885559
1900,-2.0757623,0.1436514,9.2415714,14.8320608,-6.4045801,-6.9770994,16.8167858,0.6296718,7.0221577,-81.2137375,-59.2595406,-250.1374054
1910,-2.0159075,0.1915352,9.1793222,10.9618320,-2.3053436,-5.8625956,13.6923695,0.4333483,6.9144192,-57.1984749,-30.5877857,-250.1374054
1920,-2.0494261,0.4477134,9.1074963,8.1068707,1.5877863,-5.2671757,10.0316534,0.1149211,6.4331870,-35.7099228,-4.8244276,-250.1374054
1930,-2.1332228,0.5554519,9.2726955,5.0305343,3.4427481,-4.6412215,5.4731169,-0.1963235,6.1123657,-15.8778629,18.0152664,-250.1374054
1940,-2.1571648,0.5746055,9.2439651,1.8091604,4.6564884,-3.7328243,0.6607963,0.0933734,5.4060798,5.1297708,47.6106873,-250.1374054
1950,-2.1451938,0.6440369,9.2870607,0.8167939,6.0687022,-3.8244274,-5.8633699,1.2401901,4.8817525,30.1450386,93.1832047,-250.1374054
1960,-2.1404054,0.6392486,9.5049324,-0.0381679,5.3282442,-3.1908398,-14.3938665,3.6032550,3.4643922,56.7862587,161.8549652,-250.1374054
1970,-2.1332228,0.5985473,9.3900108,-0.4122137,5.3206105,-3.5038168,-19.6131992,7.1777802,0.9073978,77.4351120,239.0229034,-196.1908417
1980,-2.1787124,0.6655847,9.4115591,-0.7480916,5.1221375,-3.1755726,-19.6131992,11.3005743,-2.3486998,76.3587799,250.1297760,-70.5114517
1990,-2.2074428,0.4884146,9.4642305,-0.2366412,3.2061069,-2.9847329,-19.6131992,12.7251167,-3.7109938,46.5267181,250.1297760,69.6564865
2000,-2.1451938,0.4932030,9.5647869,0.1221374,1.0534351,-2.7709923,-19.6131992,12.6532917,-2.4851687,10.5038166,236.4580078,180.0381622
2010,-2.1164634,0.3280039,9.4331064,-0.6335878,0.3129771,-2.5954199,-19.6131992,11.3819771,0.6823440,-8.0000000,178.0152740,250.1297760
2020,-2.0518203,0.2920911,9.3253679,-2.2748091,0.0687023,-2.7251909,-18.5765152,9.4714136,3.6631098,-4.3206105,115.7633591,250.1297760
2030,-2.0853391,0.1364688,9.3493099,-3.8167939,-0.5877863,-2.8244274,-11.0898857,8.1713686,4.8769641,10.9236641,58.8549614,250.1297760
2040,-2.1619530,-0.0454896,9.5025377,-4.5648856,-2.1603053,-2.5267177,-4.0557570,7.9175844,4.4292507,27.5190830,12.2519083,250.1297760
2050,-2.0757623,-0.1244979,9.6629486,-4.3053436,-4.0916033,-2.6641221,1.5083394,7.3693151,3.1603301,39.7099228,-19.9770985,250.1297760
2060,-2.0805507,-0.0287303,9.5815458,-3.4351146,-6.2748094,-2.5877862,5.8466105,6.7707677,1.1851238,42.2900772,-40.2366409,250.1297760
2070,-2.0757623,-0.1436514,9.6174593,-2.7480917,-9.7404585,-2.0610688,10.3572636,6.1219425,-0.7230452,35.0916023,-45.7480927,249.1984711
2080,-1.8147956,-0.2537841,9.8185711,-1.5725191,-12.2442751,-1.3664122,14.7170830,5.2743993,-1.6567791,21.4961834,-50.3358765,208.4427490
2090,-1.7477583,-0.2082945,9.8018112,-0.5496183,-11.2061071,-1.7709924,18.7776279,4.3861551,-2.3486998,9.9618320,-57.2442741,157.1526642
2100,-1.7094513,-0.1723816,9.7156210,-0.5648855,-7.9160304,-1.9312977,19.6126022,4.1539187,-2.5857246,-0.4580153,-58.7938919,96.8473282
2110,-1.7956421,-0.1125269,9.5959110,-1.3053435,-4.1526718,-2.4045801,19.6126022,4.1515245,-2.6144550,-14.2671757,-63.3893127,35.1755714
2120,-1.7812769,-0.1316804,9.7874460,-2.0381680,-0.5801527,-2.2137403,19.6126022,4.3095412,-2.4612267,-33.2366409,-78.5801544,-29.5419846
2130,-1.8507085,0.0430954,9.6821022,-2.4122138,3.1526718,-1.7938931,19.6126022,3.9384418,-1.7645177,-55.8702278,-105.1526718,-104.5343475
2140,-1.8363433,0.0766141,9.5983057,-1.7633588,5.3587785,-1.2977099,19.6126022,3.4931223,-0.0023942,-75.6412201,-144.7786255,-182.4427490
2150,-1.7980363,0.1939293,9.5695753,-1.6335878,5.6717558,-1.2824427,19.6126022,2.7341642,1.4341195,-87.2824402,-185.4580078,-250.1374054
2160,-1.8866212,0.2178712,9.6030941,-1.9007634,5.3816795,-1.8320611,19.6126022,1.8004304,2.4827745,-93.6183243,-213.6793823,-250.1374054
2170,-1.8124014,0.3351865,9.6126709,-2.6412213,6.9770994,-2.9923663,19.6126022,1.0007712,3.0813217,-100.3053436,-223.5419922,-250.1374054
2180,-1.6759326,0.2729376,9.4115591,-4.2213740,9.8015270,-3.8778627,17.2740765,0.1364688,3.8139439,-106.6793900,-222.1068726,-250.1374054
2190,-1.9464760,0.3184272,9.6294298,-5.0458016,8.3206110,-5.2061067,13.2614155,-0.5650287,4.8434453,-110.9160309,-218.3740387,-250.1374054
2200,-2.0374553,0.3734936,9.7515335,-3.2671757,5.0992365,-5.7786260,8.7459745,-0.8236012,5.5210009,-110.8473282,-211.1679382,-250.1374054
2210,-1.9297167,0.4405309,9.7682934,-1.8320611,4.1450381,-6.7633586,2.9280937,-0.4548960,6.9120250,-103.3969498,-187.5190887,-250.1374054
2220,-1.9057748,0.3280039,9.5145092,-2.0229008,5.3282442,-7.9236641,-3.3422885,0.5841822,8.1186962,-83.8778610,-135.5114441,-250.1374054
2230,-1.9584470,0.3543400,9.3205795,-3.8702290,6.8778625,-8.1145039,-10.3907824,3.0334380,8.6693602,-49.2442741,-50.4885483,-250.1374054
2240,-2.0566087,0.2944853,9.1769285,-6.7251906,6.5267177,-8.3587790,-19.1199970,5.9591374,7.7188668,-9.3816795,61.5267181,-250.1374054
2250,-2.2122312,0.3663110,9.3181858,-7.9541984,4.6717558,-8.7328243,-19.6131992,9.2918491,5.2983413,25.9770985,165.6030579,-184.9007568
2260,-2.0733681,0.1364688,9.4833841,-6.2519083,1.9847329,-9.0076332,-19.6131992,10.8456783,2.4995339,44.0076332,224.4427490,-42.7557259
2270,-2.2313845,-0.0143651,9.6054878,-4.9847326,0.4580153,-7.9389315,-19.6131992,10.7882175,1.2258250,42.8778610,241.3206177,85.6564865
2280,-2.0829449,-0.1292862,9.5073261,-6.0305343,1.9312977,-6.7633586,-19.6131992,9.9287033,2.2840567,33.6412201,244.1450348,171.0458069
2290,-2.2744799,-0.1412572,9.4857788,-6.4961834,2.8244274,-5.8625956,-19.5030670,9.1218615,4.1970143,29.9847336,232.3511505,214.1526642
2300,-2.4037662,-0.2513899,9.6222477,-6.1068702,1.4961832,-4.8931298,-15.5718079,9.1673517,5.8035154,35.9465637,197.7862549,230.4351196
2310,-2.4277081,-0.1939293,9.7467451,-5.5343513,-1.0152671,-3.6641221,-11.4466200,9.5456333,6.8378053,45.8473282,154.7862549,229.3664093
2320,-2.3989778,-0.2873027,9.6892843,-4.9236641,-2.7404580,-2.2213740,-8.3796635,10.2375546,6.5169835,63.4274826,101.2290039,212.4656525
2330,-2.4181314,-0.1891410,9.6366129,-3.2213740,-4.8549619,-0.9236641,-6.0764527,10.8049774,4.5752959,77.7633591,50.1068687,188.6335907
2340,-2.0206959,-0.2442073,9.5240860,-2.7938931,4.1374044,-2.5190840,19.6126022,5.0493455,-1.3479286,-25.6946564,-39.8549614,-53.7480927
2350,-2.1691356,-0.2466015,9.6844959,-3.0763359,4.4961834,-2.2290077,19.6126022,4.8913293,-0.4692611,-40.2977104,-71.8854980,-112.8167953
2360,-2.3463056,-0.2633608,9.7060442,-1.9083970,2.5648854,-1.0610687,19.6126022,4.4891052,0.6440369,-50.7709923,-108.3053436,-166.3435059
2370,-2.3151813,-0.1556223,9.7036495,-0.1603053,1.1068702,0.0534351,18.3323078,4.4412212,1.5203103,-59.1755714,-133.8244324,-211.4885559
2380,-2.2912393,0.0239419,9.5312681,0.2595420,0.1526718,0.6183206,15.3611193,4.3095412,2.8347204,-62.6717567,-141.0152740,-246.3511505
2390,-2.2720859,0.0191535,9.4474716,-0.6030535,-0.6259542,1.2977099,13.6660337,2.8203552,3.9097114,-58.5572510,-130.5267181,-250.1374054
2400,-2.1858950,0.0742199,9.4905672,-0.9160305,-0.7099237,1.4503816,11.2455082,3.0908985,5.0756817,-40.0381660,-100.1908417,-250.1374054
2410,-2.0637913,0.1101327,9.4666252,-1.1832061,-0.7404580,1.1908396,6.7444315,2.5593886,5.3845320,-22.5572510,-83.4656525,-250.1374054
2420,-2.1164634,0.1292862,9.5456333,-1.3587786,-1.6717557,0.7786260,1.2138541,3.2417326,4.7404952,-7.5190840,-65.9160309,-250.1374054
2430,-2.1547706,0.0359128,9.5959110,-0.9465649,-3.6259542,0.6946565,-3.6415622,3.4308734,4.2185616,2.9465649,-41.1450386,-250.1374054
2440,-2.2098370,-0.0502780,9.5767574,-0.5038168,-5.3816795,0.3206107,-10.3979645,4.9296360,3.5553713,13.4580154,14.2595415,-250.1374054
2450,-2.1332228,-0.0526722,9.4187412,-1.0992366,-6.3129773,0.8396947,-19.5509510,7.0245519,2.2385671,28.1984730,85.0229034,-237.3435059
2460,-2.1499822,-0.1460456,9.3588867,-2.4961832,-7.1221375,1.6488550,-19.6131992,9.6414013,0.2442073,40.5877876,145.3358765,-140.2977142
2470,-2.0781565,-0.1915352,9.5528164,-3.3740458,-8.0000000,2.1603053,-19.6131992,11.1329813,-2.1906834,41.6488533,174.6641235,-30.6106873
2480,-1.8602852,-0.2059003,9.7347746,-2.9236641,-7.1679387,2.0076337,-19.6131992,11.1449518,-2.9256995,32.7938919,172.6183167,61.9618340
2490,-1.7788827,-0.1723816,9.8137827,-1.6564885,-6.4580154,1.1984733,-19.6131992,10.7810354,-2.4875629,21.2748089,157.4656525,124.3358765
2500,-1.9560528,-0.2202654,9.8544836,-0.1297710,-7.8702292,1.3129771,-19.6131992,10.2447367,-1.0606259,8.5267172,130.8244324,162.7404633
2510,-1.8674678,-0.2226596,9.7730818,1.1068702,-9.5419846,1.2748091,-17.9851513,9.6102762,0.8451489,3.4045801,87.0534363,181.0915985
2520,-1.8746504,-0.3615226,9.7443514,1.8931298,-11.1755724,0.9541985,-14.2980995,9.2846670,2.1044924,4.2977099,36.9083977,185.0152740
2530,-1.8866212,-0.2561783,9.6557665,1.7099236,-11.9160309,1.3893130,-11.3101511,8.8585014,2.5641768,11.4656487,-5.0916033,183.0152740
2540,-1.8818330,-0.2896969,9.6054878,1.4656489,-11.9236641,1.3053435,-9.0644016,8.7340031,1.9871773,19.4045811,-33.7557259,178.7938995
2550,-1.7740943,-0.1460456,9.7132263,1.1908396,-12.1221371,1.1679389,-7.3046722,8.6238708,0.9600700,21.2290077,-49.1221390,179.4885559
2560,-1.7573351,-0.1197095,9.5959110,1.0610687,-12.0000000,0.5877863,-5.7532372,8.2743187,0.0598547,18.8167934,-60.0152664,186.8244324
2570,-1.8722562,-0.1723816,9.6054878,0.8396947,-11.8396950,0.1145038,-3.7493007,8.1617918,-0.7469871,14.1832066,-67.6183243,198.4198456
2580,-1.9177457,-0.1604107,9.6366129,1.4961832,-13.3435116,0.2061069,-1.4867916,7.8577299,-1.3622938,9.3358774,-68.7175598,212.6488495
2590,-1.8100072,-0.1508339,9.5097208,1.7404580,-14.9160309,0.4732825,0.9696468,7.6542239,-1.3982066,5.7862597,-65.7862625,228.4122162
2600,-2.1978660,-0.3423691,9.8856087,1.4656489,-16.8625946,0.7404580,4.2472920,7.2041159,-1.3838415,6.9618320,-57.4274826,242.1145020
2610,-1.6615674,-0.1388630,9.3517036,1.7786260,-14.7862597,1.0076336,9.3517036,6.0596933,-1.7501525,12.9770994,-45.4580154,247.3587799
2620,-1.8076130,-0.2082945,9.7970228,1.1221374,-16.1984730,0.1145038,14.7769375,5.2169390,-2.4588325,20.4885502,-18.7099228,234.1832123
2630,-1.6711442,-0.2346306,9.9598284,2.4427481,-12.8549614,1.4656489,19.6126022,4.4507980,-3.2920105,27.8473282,6.4045801,200.2977142
2640,-1.5873476,-0.2178712,9.9047613,3.3435113,-11.2137403,1.2900764,19.6126022,3.8977404,-4.3909435,26.8320618,20.8625946,139.0458069
2650,-1.5418580,-0.1628049,9.7635050,4.6488547,-9.0610685,2.1755726,19.6126022,3.7253587,-5.0421629,13.1832066,20.0534344,49.1374054
2660,-1.5969244,-0.1388630,9.5671806,1.5801526,-8.3435116,2.3129771,19.6126022,3.4189026,-5.1594782,-10.2900763,0.8320611,-52.1679382
2670,-1.3287752,-0.0694315,9.7036495,1.9847329,-4.0152674,2.8854961,19.6126022,2.9975252,-4.0102673,-35.5954208,-29.4580154,-152.3129730
2680,-1.3958124,-0.0359128,9.6581602,1.5725191,-3.9541984,1.8167939,19.6126022,2.1978660,-3.0023136,-53.0228996,-73.1145020,-244.5343475
2690,-1.3048333,0.1604107,9.5456333,0.7404580,-3.1755726,0.7480916,19.6126022,1.1635761,-2.0135133,-63.2137413,-111.7404556,-250.1374054
2700,-1.3622938,0.0478838,9.5169029,-0.3053435,-1.4045801,0.0610687,19.6126022,0.8044477,-1.0725969,-71.1068726,-134.9007568,-250.1374054
2710,-1.3718705,0.0646431,9.6174593,-1.1603054,-0.3969466,-0.7328244,14.9780493,1.2497669,-0.4429250,-79.3282471,-153.9160309,-250.1374054
2720,-1.5250987,0.1604107,9.7467451,-1.7709924,0.2061069,-1.4045801,8.6621771,1.7525467,-0.2633608,-91.4732819,-169.2137451,-250.1374054
2730,-1.6352314,0.0861908,9.8640604,-1.7480916,1.2595420,-1.4427481,1.5873476,2.2289903,0.2609667,-102.9847336,-165.6488495,-250.1374054
2740,-1.8363433,0.0814024,9.7826586,-1.3969465,0.5038168,-0.9618320,-6.1363077,2.9664006,1.0127422,-106.0457993,-128.6946564,-250.1374054
2750,-2.0230901,0.0837966,9.7060442,-0.8473282,-1.2290076,0.1526718,-15.3012648,4.9894910,1.4053892,-97.2824402,-39.7938919,-250.1374054
2760,-2.0063307,0.0407012,9.6006994,0.0152672,-2.2366412,1.7862595,-19.6131992,8.0013809,1.6065011,-78.0076370,99.8931274,-250.1374054
2770,-1.9057748,0.0718257,9.4714136,-0.6488550,-2.6488550,3.0458016,-19.6131992,9.0380650,1.2306134,-64.8778610,215.8320618,-145.5496216
2780,-1.8674678,0.0981618,9.5145092,-1.1450381,-2.9923663,3.9770992,-19.6131992,8.2455883,1.4748207,-52.3053436,250.1297760,-2.5267177
2790,-1.7621235,0.0454896,9.5911226,-0.8625954,-2.9541984,4.5572519,-19.6131992,7.7021074,2.5234756,-36.8702278,250.1297760,102.2366409
2800,-1.5993185,-0.0167593,9.6629486,-1.1145039,-2.6335878,4.4656487,-19.6131992,7.9750452,3.1818779,-25.6793900,250.1297760,153.2442780
2810,-1.4724265,-0.1173153,9.6270361,-1.4198474,-2.4503818,4.2900763,-19.6131992,7.9894104,3.7014170,-23.1221371,208.6641235,174.0076294
2820,-1.3694763,-0.1125269,9.6821022,-1.6412214,-3.9312978,4.1145039,-19.6131992,8.0396881,4.5393834,-27.3435116,125.9465637,189.1374054
2830,-1.2737088,-0.1029501,9.7898407,-1.4732825,-5.2671757,3.9923663,-19.6131992,7.8194227,5.5640965,-27.7022896,53.3587799,199.2290039
2840,-1.1899122,-0.1364688,9.8927908,-0.9083970,-5.3358779,3.4580152,-17.4967365,7.6470413,5.8992829,-17.3435116,-4.1145039,206.1908417
2850,-1.2234308,-0.0430954,9.8760319,-0.6412213,-5.1297708,2.7633588,-14.7529955,7.1346846,5.5401545,-1.2137405,-44.6335869,215.0000000
2860,-1.2234308,-0.0335187,9.8880024,-0.2900763,-4.8854961,1.6259542,-12.1792421,6.8258343,4.9128766,14.8549614,-63.3740463,228.2671814
2870,-1.2641320,-0.1053443,9.7970228,-0.5801527,-5.0534353,0.3358779,-9.3971939,6.3709383,3.9599893,29.1145039,-66.3664093,246.1755676
2880,-1.2234308,0.0646431,9.4235296,-1.0000000,-4.5419846,-0.6641222,-6.2823529,5.8466105,2.8514795,41.4961815,-57.5877876,250.1297760
2890,-1.1420283,-0.1580165,9.6222477,-2.8167939,0.1221374,-0.3511450,-2.6192431,5.2911587,1.7118455,52.3587799,-36.7099228,250.1297760
2900,-1.4173602,-0.0718257,9.4546537,-5.0381680,-2.6106870,-2.3129771,2.3965836,4.7644372,0.8307837,64.6259537,-9.1526718,250.1297760
2910,-1.5203103,-0.0694315,9.6366129,-5.1679387,-1.7404580,-1.3740458,7.7715387,4.3239059,-0.3256098,75.8778610,24.6412220,250.1297760
2920,-1.5059452,-0.3830703,9.8209648,-5.2213740,-1.8015267,-1.4732825,13.7905312,3.6631098,-2.3798244,78.2061081,46.7862587,250.1297760
2930,-1.4843974,-0.3136388,9.9047613,-3.7709923,-2.5496182,-1.4809160,19.6126022,3.2297616,-4.0174499,69.0992355,58.6717567,250.1297760
2940,-1.5442522,-0.4022238,9.8784256,-2.7938931,-2.5343511,-0.7633588,19.6126022,3.2967989,-5.5210009,48.8854980,62.3969460,204.0686951
2950,-1.5250987,-0.3375807,10.0053177,-2.1908398,-0.8091603,0.1603053,19.6126022,3.5338237,-6.1506729,18.5877857,41.4656487,119.3206100
2960,-1.5203103,-0.3375807,9.8664551,-1.6564885,0.4732825,1.1755725,19.6126022,4.2832050,-5.3845320,-16.3740463,-4.6946564,27.2213745
2970,-1.3790531,-0.2585725,9.8209648,-1.2061069,1.2824427,1.2595420,19.6126022,4.9296360,-4.0102673,-50.3206100,-70.6106873,-55.4198456
2980,-1.3910241,-0.1915352,9.7826586,-0.4427481,2.4045801,1.2595420,19.6126022,5.1235652,-2.0135133,-74.5572510,-132.9389343,-122.7022934
2990,-1.3646880,-0.0957676,9.6653433,-0.3206107,2.5114503,0.8625954,19.6126022,4.9463954,0.0383070,-87.3587799,-166.4503784,-176.7938995
3000,-1.3527170,-0.0742199,9.7251978,-0.7938932,2.2900763,0.6183206,19.6126022,4.9368186,1.8219782,-87.7022934,-166.8244324,-218.0000000
3010,-1.3431402,-0.0407012,9.6485834,-1.0992366,2.9770992,0.2595420,16.4792061,4.8410511,3.0525916,-77.8244247,-148.7786255,-246.8854980
3020,-1.3862357,-0.0526722,9.6964674,-1.7022901,2.9389312,0.0687023,13.2063494,4.9511838,3.6990228,-60.4732819,-123.3282471,-250.1374054
3030,-1.4820032,-0.0215477,9.7180147,-2.2290077,3.3206108,-0.4503817,10.0747490,4.9248476,3.8354914,-41.8396950,-99.5648880,-250.1374054
3040,-1.5227045,0.0311245,9.7108326,-2.0992367,3.2442749,-0.6259542,6.9718795,4.6734576,3.0932927,-25.1068707,-81.3969498,-250.1374054
3050,-1.7118455,0.0047884,9.7012558,-2.0076337,1.8091604,-0.4351145,4.0916696,4.1946201,2.1978660,-13.8091602,-62.7099228,-250.1374054
3060,-1.8291607,0.0239419,9.7730818,-1.5648855,-0.6488550,0.2290076,0.4908088,3.7923961,1.3479286,-7.7862597,-39.5572510,-250.1374054
3070,-1.8722562,0.0167593,9.8592720,-0.2900763,-2.7862597,1.3587786,-4.5609307,4.2353210,0.7517755,-4.9007635,-8.7557249,-250.1374054
3080,-1.8219782,0.0191535,9.6557665,0.4503817,-3.8931298,2.1526718,-11.3915539,5.4467812,0.0119709,-3.1603053,43.2061081,-250.1374054
3090,-1.7573351,0.0407012,9.5791521,0.4732825,-3.2977099,2.6641221,-19.6131992,7.5440907,-0.9576758,1.0229008,118.6259537,-208.6183167
3100,-1.5825592,0.0000000,9.5312681,0.1145038,-2.4580152,2.8167939,-19.6131992,9.5049324,-1.3048333,4.7786260,182.7175598,-128.3206177
3110,-1.5634058,-0.0670373,9.5623922,0.3358779,-2.7709923,2.7328243,-19.6131992,10.9342632,-1.1779412,8.3740454,207.3587799,-35.6412201
3120,-1.4029950,-0.1077385,9.6701307,-0.9312977,-3.1526718,3.3740458,-19.6131992,11.1664991,-1.2497669,10.5496187,184.6717529,51.2595406
3130,-1.3287752,-0.0861908,9.7204094,-1.2213740,-3.2824428,3.4580152,-19.6131992,11.0060892,-0.9457048,8.6870232,138.6259613,116.4351120
3140,-1.2784972,-0.1197095,9.8305416,-1.5419847,-3.5725191,3.0229008,-19.6131992,10.0699606,0.3040621,2.6183207,92.4198456,159.5038147
3150,-1.3168042,-0.0502780,9.8664551,-1.3969465,-4.2061067,2.4656489,-19.1966114,8.9901810,1.7046629,-0.4045801,49.0916023,185.7175598
3160,-1.2090657,-0.0814024,9.9071560,-0.9694657,-5.0610685,1.5801526,-15.0762110,8.2479830,2.6671271,4.5648856,0.7557252,199.2137451
3170,-1.2832855,-0.0933734,9.8520899,-0.3206107,-6.3053436,0.9465649,-11.2814207,7.7835097,2.6958573,14.1908398,-48.4045792,202.6259613
3180,-1.3359578,-0.1268920,9.7730818,-0.0076336,-6.8778625,0.2748092,-7.8457589,7.5321202,1.9991482,22.5343513,-90.0763321,201.4580078
3190,-1.2928623,-0.1771700,9.6797075,0.0916031,-6.6564884,-0.3511450,-5.2552457,7.4507174,1.0773853,25.9541988,-111.6106873,202.2977142
3200,-1.3048333,-0.2489957,9.7084379,-0.2595420,-6.4580154,-0.6259542,-2.7796540,7.3381906,0.0023942,24.4580154,-109.8091583,208.8931274
3210,-1.4413021,-0.2226596,9.7012558,-0.1984733,-5.4427481,-1.2977099,-0.2274480,7.2256637,-0.6177009,22.9923668,-94.1908417,220.2671814
3220,-1.3982066,-0.4309541,9.7682934,-0.6412213,-4.8702292,-0.9236641,2.6336083,7.1849627,-0.9552816,25.0076332,-70.5496216,232.1832123
3230,-1.3934183,-0.3687052,9.7036495,-1.1526718,-3.6946564,-0.4045801,6.7875271,6.4691000,-1.0558375,31.7862587,-46.5343513,238.3511505
3240,-1.3982066,-0.4165890,9.8760319,-0.0381679,-3.3664122,-0.2213740,11.3436699,5.9304070,-1.8052188,40.9618340,-27.4961834,233.1832123
3250,-1.3096216,-0.3782819,9.8353300,0.5801527,-3.0229008,0.5954198,16.3523140,5.4276276,-2.8730273,45.3129768,-14.3664122,209.9084015
3260,-1.2210367,-0.2825144,9.7922344,1.2442749,-1.1068702,0.5725191,19.6126022,5.1331420,-4.4460096,39.6488533,-8.4961834,164.7786255
3270,-1.1755470,-0.1771700,9.7443514,1.0305344,1.3816794,0.6717557,19.6126022,5.5305777,-5.3079181,21.7709923,-17.9465656,102.3664093
3280,-1.0917504,-0.1364688,9.7778702,0.7557252,4.0763359,0.3893130,19.6126022,6.9287844,-5.4467812,-7.0763359,-57.7786255,32.8473282
3290,-1.0773853,-0.0790083,9.7874460,0.0916031,6.4809160,-0.6793893,19.6126022,7.8792777,-5.1522956,-42.8015251,-140.0229034,-36.6335869
3300,-1.1827296,0.0574605,9.7491398,-0.1526718,6.9083967,-1.6412214,19.6126022,8.1186962,-4.7548604,-79.6946564,-250.1374054,-108.2519073
3310,-1.2641320,0.0646431,9.7563219,0.7099237,6.0458016,-2.1526718,19.6126022,7.6973190,-5.0086441,-115.8625946,-250.1374054,-178.7328186
3320,-1.3527170,0.0766141,9.7682934,0.6641222,6.3587785,-2.6488550,18.9547977,6.8018923,-5.4755111,-154.4274750,-250.1374054,-244.5419922
3330,-1.4820032,0.1628049,9.6414013,-0.5038168,6.8778625,-2.6183207,17.5446205,5.7676024,-5.4587522,-193.7862549,-250.1374054,-250.1374054
3340,-1.6472024,0.1292862,9.7132263,-0.8167939,6.5419846,-1.8778626,15.4712524,4.7835903,-5.0349803,-229.3206177,-250.1374054,-250.1374054
3350,-1.8602852,0.1891410,9.6294298,-0.1221374,4.7709923,-1.2519084,13.3978844,3.6104376,-4.1251884,-250.1374054,-250.1374054,-250.1374054
3360,-1.9177457,0.2849085,9.6246414,-0.4961832,2.1832061,-0.1297710,10.4362717,2.0877333,-2.5234756,-250.1374054,-250.1374054,-250.1374054
3370,-1.8411317,0.2298422,9.4785957,-2.7175572,2.5114503,1.1374046,5.9974446,1.1109039,-0.5219333,-250.1374054,-250.1374054,-250.1374054
3380,-1.8147956,0.2609667,9.6102762,-2.2366412,3.8244274,2.0305343,0.3567342,1.1444225,2.7940190,-250.1374054,-217.9618378,-250.1374054
3390,-1.6735384,0.2082945,9.7180147,-1.0992366,3.7099237,2.2519083,-6.7276726,1.8219782,6.1578555,-216.6106873,2.7633588,-250.1374054
3400,-1.5250987,0.1843526,9.8425131,0.2366412,3.6946564,1.5572519,-13.7546186,3.3135581,8.7004843,-154.3206177,204.2595367,-212.4503784
3410,-1.4724265,0.2489957,9.8209648,1.2748091,2.6106870,1.3282443,-19.6131992,5.3222833,9.8113880,-88.1603088,250.1297760,-116.2213745
3420,-1.4796091,-0.0263361,9.8065996,1.6717557,0.5572519,1.2519084,-19.6131992,6.9455438,10.3740225,-28.2671757,250.1297760,-14.2900763
3430,-1.3694763,-0.0071826,9.7419567,1.1984733,-1.9770992,1.4274809,-19.6131992,7.7140784,10.4219065,15.8854961,250.1297760,72.8244247
3440,-1.1061156,-0.2035061,9.8137827,1.6641221,-2.9160306,1.1221374,-18.0761299,7.8337879,10.5176744,42.8549614,250.1297760,125.0457993
3450,-1.1085097,-0.2394189,9.7108326,1.3435115,-2.9694657,-0.0458015,-14.6021614,7.7739329,10.3213511,60.3893127,250.1297760,139.2366486
3460,-1.1324517,-0.2968795,9.6677370,-0.5725191,-1.7557251,-1.1908396,-12.6676559,8.4874020,9.4259243,72.3282471,201.2366486,130.9923706
3470,-1.2114599,-0.4501076,9.8233595,-1.6564885,-0.4809160,-2.3053436,-11.8081427,8.3796635,7.6542239,78.7022934,138.8549652,116.6259537
3480,-1.2761030,-0.4141948,9.8760319,-0.9923664,-2.4122138,-2.3587787,-11.8608141,8.4514885,6.0884237,78.3435135,94.0763321,108.4122162
3490,-1.2090657,-0.4932030,10.0603838,0.7251908,-3.0076337,-2.1221373,-11.8440552,8.5999289,4.8506279,73.8778610,69.1755753,108.0305328
3500,-1.3287752,-0.5291159,10.0579901,3.0000000,-3.0687022,-2.6030533,-11.4657736,8.5735922,3.8330972,69.0000000,55.5038185,113.0152664
3510,-1.4269369,-0.4955972,9.9813757,4.6793895,-2.2213740,-2.6030533,-10.7355452,8.3820572,3.7062054,65.0229034,43.4503822,122.8549652
3520,-1.5131277,-0.4644727,10.0436249,4.9083967,1.3206106,-2.5877862,-9.6677370,7.8577299,3.7109938,63.4198456,32.8167953,133.6106873
3530,-1.6088953,-0.5267217,9.9957409,6.2748094,4.4427481,-2.0000000,-7.6781654,8.3533268,3.6200144,63.6641235,21.6183205,144.4427490
3540,-1.7956421,-0.4094064,9.9095497,8.2442751,4.3511453,0.2137405,-6.3493905,8.3365679,3.3734128,66.8625946,2.1603053,152.8702240
3550,-1.4843974,-0.1364688,9.5935173,8.7786255,6.1603055,2.9618320,-2.1906834,8.7651272,1.8507085,72.6488571,-17.3206100,168.8244324
3560,-1.4939742,-0.0071826,9.4929609,6.9160304,9.8625956,3.1755726,-0.7493813,8.7675219,0.7733232,77.3282471,-24.2671757,174.0534363
3570,-1.5083394,0.0718257,9.5839405,5.1526718,12.3435116,3.1603053,1.0127422,8.6023226,-0.6057299,82.1984711,-27.3511448,179.8473358
3580,-1.5825592,0.0143651,9.9119444,5.2366414,11.2977095,3.3511450,3.0094962,8.5520449,-2.1164634,83.1603088,-20.8473282,182.5496216
3590,-1.8674678,0.1484398,10.3859940,8.2595415,6.9465647,3.9541984,5.1259594,8.3820572,-4.0030847,77.6259537,-10.3282442,180.7175598
3600,-1.6208663,0.1340746,11.7578640,20.9312973,-7.0992365,4.1145039,7.3501616,8.5472565,-5.7819676,65.3816757,-9.1068707,171.6183167
3610,-1.6256547,0.3782819,11.4801388,35.0763359,-13.9389315,2.7786260,9.8808203,8.5281029,-7.2903070,46.7786255,-26.0916023,153.9236603
3620,-2.1858950,0.2466015,11.8033543,47.6641235,-28.6259537,2.4656489,12.9621420,8.3245964,-8.5257082,21.5038166,-47.4427490,123.1603088
3630,-2.2696917,0.0790083,13.0890341,62.4885483,-78.5496216,4.2290077,15.6125097,8.1450329,-9.3397331,-7.2977099,-65.9236679,78.3129807
3640,-1.5370697,0.4333483,12.0906563,82.6870193,-101.2824402,3.8473282,17.0633888,7.9989872,-9.5025377,-36.8931313,-79.2595444,26.8473282
3650,-0.9026094,0.4740495,10.5200682,95.7099228,-92.3435135,-2.5190840,17.0609932,7.8433647,-8.7363977,-64.1832047,-89.4503784,-24.3511448
3660,-0.7589580,0.8666966,9.1601686,93.0610657,-91.7328262,-2.6564887,16.1559906,7.8361821,-7.5488791,-85.5801544,-94.5572510,-68.6717529
3670,-0.5195391,1.2713146,8.0109577,82.3129807,-83.2977066,-1.2137405,14.6476507,7.6254935,-6.2320752,-103.4274826,-98.5114517,-105.7938919
3680,-0.1771700,1.4748207,6.8114691,64.8931274,-63.1145020,-2.1297710,13.3667593,7.4124107,-5.1331420,-117.7786255,-108.4503784,-138.0152740
3690,-0.0167593,1.6519908,6.2751703,41.9160309,-38.1297722,-4.5267177,11.8249016,7.1251078,-3.8881636,-130.5725250,-111.5038147,-165.6106873
3700,-0.0143651,1.6280488,6.4762826,18.6183205,-17.6259537,-6.2061067,10.5416164,6.7109132,-2.9209111,-139.4351196,-108.3358765,-190.0763397
3710,0.0119709,1.4460905,6.8952656,-0.9541985,-1.6946565,-7.5114503,9.2080526,6.2631998,-1.7166338,-144.2366486,-100.8244247,-210.1908417
3720,-0.0909792,1.5274929,8.5161324,-13.3664122,6.5801525,-9.5801525,8.1115141,5.7699966,-0.9600700,-146.3206177,-92.5038147,-229.4274750
3730,-0.7565638,1.7525467,10.4769726,-14.3587790,3.2290077,-9.1068707,6.1410961,4.9775200,0.0167593,-144.4351196,-77.9694672,-244.9084015
3740,-0.8930327,1.5346755,12.1385403,-3.0381680,-11.8702288,-7.0381680,3.5026991,4.4316444,1.2090657,-136.8702240,-43.4961815,-250.1374054
3750,-0.4812321,1.0893562,12.8448267,14.9541988,-28.8473282,-9.1145039,0.4046180,4.3622131,2.4731977,-121.5419846,6.0687022,-250.1374054
3760,-0.2154770,1.1707586,12.4162664,31.6030540,-44.5038185,-10.7099237,-3.7205703,4.5800843,3.3135581,-99.9542007,61.5343513,-242.5038147
3770,0.2561783,0.9648584,10.9366570,39.4961815,-45.7404594,-10.7328243,-8.4562769,5.3677726,3.7181761,-75.1755753,119.3053436,-213.9923706
3780,1.6232605,0.5889706,9.6940727,39.1297722,-37.6564903,-16.3358784,-13.3428183,6.7779503,3.6846576,-53.1221390,169.1755676,-168.5954132
3790,1.3766589,0.8092360,8.5400734,33.1297722,-20.6793900,-23.8473282,-17.7289734,8.4850073,4.0222383,-38.8778610,203.2900696,-108.7633591
3800,0.7134684,1.2497669,7.3381906,17.0610695,-0.6717557,-28.5877857,-19.6131992,9.6988611,4.9775200,-33.5267181,217.6870270,-45.5648842
3810,-3.1268115,2.2505381,7.5608501,2.0610688,17.4351139,-19.3129768,-19.6131992,10.2327662,6.6486640,-32.1068687,209.7862549,8.0000000
3820,-1.6184721,2.0470319,8.9255381,-6.1908398,14.5419846,-1.5877863,-19.6131992,10.6349897,8.1593981,-28.5725193,166.9007568,50.1297722
3830,0.0502780,1.2138541,9.8544836,-5.5343513,8.9389315,-0.5572519,-19.6131992,10.5679522,9.5169029,-18.7328243,96.3053436,83.5572510
3840,0.4118006,1.2090657,9.3014259,-6.4503818,10.6106873,-2.5877862,-18.1311970,9.8425131,10.6038647,-1.9160305,23.2442741,109.4961853
3850,0.2896969,1.4820032,9.4378948,-11.8091602,16.2900772,-6.1679387,-15.7777081,9.1505919,10.9438400,21.1984730,-36.4732819,123.6183243
3860,-0.0478838,1.3838415,9.6318245,-16.3587780,25.4351139,-6.1221375,-13.3500004,8.5831690,10.2758608,41.8625946,-69.5877838,133.1526642
3870,-0.2920911,1.0845678,10.4482431,-18.1221371,27.1832066,-4.7786260,-11.3939476,8.3485384,9.3804340,63.7862587,-89.7022934,136.9236603
3880,0.9840119,0.9002152,10.6206245,-16.3358784,25.2061062,-9.3206110,-10.4482431,7.9822278,7.7404146,84.5114517,-103.5572510,141.3816833
3890,1.8626794,0.6775556,10.3764172,-15.1908398,33.5801544,-26.4351139,-9.1074963,7.5249376,5.7604198,98.4961853,-116.8931274,147.5725250
3900,-0.9313397,1.4867916,9.4977493,-15.7786255,39.1908379,-33.3358765,-7.5393028,7.3621325,3.9911139,105.8702316,-118.4427490,153.9084015
3910,-1.7429699,1.2641320,8.4634600,-20.9770985,35.9771004,-33.6259537,-6.0333576,7.2543941,2.4085546,109.7633591,-103.2213745,163.3511505
3920,-3.4931223,0.9145803,8.7962523,-25.5190830,30.7709923,-28.7557259,-4.5202298,7.2711535,0.7733232,109.1603088,-76.7709961,175.2595367
3930,-4.8649931,0.5003856,9.5695753,-22.4503822,18.4351139,-11.6793890,-2.9185169,7.3381906,-0.7062859,105.1908417,-48.4656487,190.6183167
3940,-3.9121056,0.3184272,10.0077124,-14.8931293,6.1679387,3.3969467,-0.9911944,7.4602942,-2.0757623,100.6946564,-28.7862587,202.6183167
3950,-3.1962428,0.5147507,10.0196829,-6.7175574,-5.5267177,13.5648851,1.4221486,7.4650826,-3.5625539,94.8015289,-22.4885502,210.7480927
3960,-2.5067163,0.5865764,10.3883877,-0.5267175,-24.1984730,17.8931293,4.3095412,7.3405848,-5.0110383,86.6946564,-18.4961834,210.7938995
3970,-2.7700772,1.0151364,11.3364868,9.3664122,-45.4274826,22.4198475,8.4826136,6.9000540,-6.4619174,76.0000000,-16.3587780,201.1984711
3980,-1.8363433,1.3215926,11.1329813,19.3664131,-57.5190849,25.6870232,12.6245613,6.8042865,-8.0253229,62.1068687,-24.4961834,176.3664093
3990,-0.6967092,1.6280488,10.6325951,25.6106873,-60.7099228,23.7557259,16.5079365,6.5696559,-9.2703018,45.2595406,-33.9007645,132.8167877
4000,-0.7541697,1.8243724,10.5727406,29.3664131,-63.4045792,20.3587780,19.0721130,6.4643116,-10.5942879,22.4732819,-33.3129768,78.3511429
4010,-0.8619082,1.6041069,10.7211800,33.8015251,-70.6641235,18.6259537,19.6126022,6.7085190,-11.3077564,-8.0839691,-29.9465656,20.3435116
4020,-0.8092360,1.3096216,10.6325951,41.3969460,-76.9694672,20.7557259,18.7345333,6.8856888,-10.8983507,-42.0687027,-33.2061081,-31.3969460
4030,-0.8427547,1.2784972,10.4578199,49.2366409,-85.0916061,25.0534344,17.1423969,7.1011658,-9.5216913,-74.1297684,-48.9312973,-75.2061081
4040,-0.5937590,1.3838415,10.6230183,56.5572510,-93.8473282,30.8931293,15.5861731,6.9000540,-7.8912482,-101.0457993,-70.5496216,-110.9083939
4050,0.1843526,1.5203103,10.7882175,64.2137375,-102.9542007,35.3282433,14.3651371,6.7516141,-5.8035154,-118.7633591,-86.4503784,-140.9618378
4060,0.9193687,1.8100072,10.8863792,72.8778610,-112.6106873,36.3435097,12.9453821,6.2943239,-4.1299767,-127.0763321,-89.0152664,-165.9007568
4070,1.5131277,1.8698620,10.6924505,81.3893127,-114.2442780,35.7557259,11.3484583,5.8753409,-2.8514795,-129.1221313,-80.2366409,-186.0458069
4080,1.9249283,2.0422437,10.2184010,86.2671738,-107.1984711,35.1068687,9.8042059,5.7771792,-1.8890154,-126.9542007,-62.7480927,-203.9694672
4090,2.4205256,2.3151813,9.5767574,86.7938919,-92.6030502,35.5496178,7.7906923,5.2911587,-1.1539993,-122.4274826,-40.8320618,-219.2977142
4100,2.9951310,2.5905130,9.3062143,84.6106873,-68.0000000,35.4809151,5.3581958,4.7955613,-0.4596844,-116.9770966,-15.9083967,-231.2366486
4110,3.9575951,3.1172347,8.1354561,75.5190811,-43.0458031,32.0000000,2.4372849,4.4579806,0.6536137,-109.7099228,11.5114508,-238.9007568
4120,4.0868812,3.4691806,7.4028339,59.8473282,-16.2519093,25.3206100,-0.8212070,4.2784166,1.5825592,-100.5877838,44.2900772,-239.7099304
4130,4.0294209,3.6008608,7.0628591,43.3206100,8.3435116,18.9618320,-4.9775200,4.4388270,2.7102225,-89.7022934,81.1221390,-230.4885559
4140,3.7301471,3.5984666,6.9718795,28.3816795,26.8320618,13.5801525,-9.6030941,5.3749552,4.0078731,-77.9160309,120.1068726,-206.3053436
4150,3.4117200,3.6176202,7.2950954,17.4656487,33.9236641,9.0000000,-14.2238798,6.3446021,5.3773494,-64.2519073,150.6183167,-169.6870270
4160,3.1723011,3.6104376,7.5680327,10.8549614,35.3435097,5.2213740,-18.7824154,7.6230993,6.7157016,-48.6030540,160.3816833,-121.5572510
4170,2.8538737,3.5194585,7.5464849,6.8396945,32.2595406,2.6564887,-19.6131992,8.6430235,7.5871863,-33.2595406,148.0000000,-67.8473282
4180,2.7796540,3.5122759,7.5991573,3.6946564,25.1603050,-0.1374046,-19.6131992,9.0763721,8.7004843,-16.8091602,113.4885483,-12.2442751
4190,2.7150109,3.5577655,7.5728211,0.5038168,17.3282452,-3.3053436,-19.6131992,9.0093346,9.4666252,2.9083970,63.7938919,36.8015251
4200,2.5976956,3.5481887,7.3286138,-4.3587785,12.3969469,-7.3053436,-18.4687767,8.6430235,9.6773138,23.9160309,23.0687027,67.3816757
4210,2.4612267,3.4931223,7.2280579,-11.2595415,8.4045801,-11.0763359,-15.4736462,8.0372944,9.3301563,44.3358765,-1.1679389,84.6259537
4220,2.3271523,3.4356618,7.2328463,-19.4732819,8.2213745,-14.5343513,-12.9334116,7.6685886,8.6023226,61.8549614,-13.9923668,96.4122162
4230,2.0661855,3.3351059,7.2328463,-28.6641216,10.1984730,-17.7480907,-10.8025827,7.7212610,7.7835097,77.2748108,-27.0076332,101.1145020
4240,1.8770446,3.1579359,7.2663651,-38.7328262,13.4198475,-20.5496178,-9.0739784,7.6470413,6.6797886,90.1145020,-40.9160309,102.0839691
4250,1.4221486,2.9975252,6.8114691,-50.3129768,21.2824421,-22.2061062,-7.3956513,7.8313937,5.1786318,95.4198456,-48.7099228,102.0457993
4260,0.8643024,2.7605004,6.4140334,-64.3053436,28.4351139,-20.5648861,-6.0596933,7.9151902,3.7684543,96.5954208,-54.1603050,103.8167953
4270,0.4788379,2.5115047,5.9639258,-79.0763321,32.3053436,-16.1908398,-4.8697815,8.0899658,2.6910689,93.6870193,-53.6564903,109.1984711
4280,0.2489957,2.2864509,5.7460546,-93.6488571,30.1450386,-11.1297712,-3.5697365,8.3748751,1.7381816,91.3664093,-49.1679382,113.5267181
4290,0.3998296,2.0757623,5.6957769,-108.4580154,19.8167934,-7.0000000,-2.3247581,8.7411861,0.9600700,89.6717529,-46.1679382,118.5572510
4300,0.7493813,1.8602852,6.2009506,-121.4427490,1.2137405,-5.6946564,-1.0318956,8.8465300,0.2442073,93.5801544,-43.3358765,123.5954208
4310,1.4269369,1.6112895,7.4986014,-130.4198456,-24.8396950,-8.7328243,0.3256098,9.1625633,-0.7924767,99.4427490,-36.9465637,130.6335907
4320,2.0805507,1.3168042,10.3333216,-127.8625946,-60.1526718,-16.2442741,2.1930776,9.4043760,-2.5330524,102.0610657,-29.0000000,132.9084015
4330,2.4348907,1.0342898,12.3995075,-112.4809189,-84.0000000,-25.8549614,4.4436154,9.4762020,-4.7524662,97.7251892,-21.6641216,134.0763397
4340,2.3103929,0.3112446,13.6636391,-91.5648880,-91.7938919,-31.7251911,6.9599090,9.5360565,-6.8401995,86.4351120,-26.3358784,126.9923630
4350,3.9073172,0.4189832,14.7290535,-80.2290039,-60.0763359,-32.3053436,10.4123297,9.2655134,-9.0236998,67.6030502,-32.3129768,107.8473282
4360,4.0605454,-0.0933734,16.9987450,-88.3206100,43.8167953,-30.5419846,12.9166517,8.8824425,-10.5918941,46.3816795,-33.1145020,77.7328262
4370,0.8595140,-0.4285599,17.4033623,-66.5725174,85.6488571,-24.7786255,14.7410240,8.7603388,-11.3867655,23.7786255,-24.2595425,41.9389305
4380,-0.7421987,-1.0486550,14.2909164,-21.8167934,73.0839691,-6.3893127,15.5837793,8.7076674,-11.3532467,-1.3664122,-7.8091602,0.7709923
4390,-0.5482694,-0.8044477,11.4777441,7.1908398,54.6946564,9.1908398,14.9924145,8.9255381,-10.9198980,-27.7938938,3.0534351,-39.0305328
4400,0.0407012,0.1843526,9.5216913,11.9618320,37.5343513,14.4351149,13.6540623,8.9662399,-9.8568783,-56.5725174,-0.9923664,-73.2290039
4410,0.6344602,0.6823440,8.3892403,3.9083970,34.5114517,15.2519083,12.7346935,8.7770987,-8.3054428,-82.0992355,-14.9694653,-104.9618301
4420,0.9050036,0.6200951,7.9918046,-8.9770994,39.6335869,15.0076332,11.5998478,8.2120695,-6.5768385,-101.5267181,-30.4122143,-134.7862549
4430,0.8954269,0.5817881,8.3317795,-20.8778629,50.6412201,13.3587790,10.1609402,7.7212610,-4.8147149,-114.9007645,-44.0152664,-161.7480927
4440,0.3208214,0.5315101,8.8058290,-30.3664131,62.3206100,13.0992365,8.3341732,7.1969333,-3.2393384,-122.7709961,-53.0916023,-183.8396912
4450,-0.3567342,0.4046180,9.4522600,-38.9771004,78.4580154,16.5343513,6.3469963,6.4571290,-2.2385671,-126.5572510,-50.7862587,-200.9694672
4460,-0.7733232,0.0742199,10.3189564,-48.8320618,102.7786255,23.9389305,3.5290353,5.9615316,-1.5250987,-124.7786255,-23.8167934,-210.2213745
4470,-1.0749911,-0.2035061,11.2215662,-53.8244286,129.1297760,32.2595406,0.1125269,5.7795734,-0.0622489,-116.3664093,24.3053436,-207.1297760
4480,-1.6879035,-0.3399749,11.6573086,-55.7175560,151.1526642,40.2671738,-3.8211265,5.8202744,1.2521610,-103.5190811,83.2290039,-191.1068726
4490,-2.6719155,-0.5051740,12.0308018,-53.8091621,144.4045868,52.6259537,-8.9039907,6.5481081,2.1427996,-89.4656525,137.5801544,-163.6259613
4500,-2.9496415,-0.8666966,12.5862541,-36.3816795,117.8702316,63.2290077,-13.1895895,7.4674768,2.9687948,-76.4274826,170.6412201,-125.7709961
4510,-4.3191175,-1.0390782,12.8711624,-5.7251906,77.6641235,73.1832047,-17.1591549,7.9295554,3.8211265,-65.2671738,194.1984711,-79.8778610
4520,-4.6758518,-0.9002152,12.7155399,23.7786255,35.8702278,83.2824402,-19.6131992,8.6358414,5.1810260,-54.9771004,206.3053436,-30.7557259
4530,-4.3526363,-1.0606259,12.1768475,44.4427490,4.8473282,92.4122162,-19.6131992,9.2128410,6.6654234,-44.6564903,195.8778687,20.8015270
4540,-3.5410061,-1.2377959,11.9829178,60.9465637,-14.0381680,101.0839691,-19.6131992,9.4977493,7.9989872,-32.6717567,164.6488495,69.9236679
4550,-3.2369442,-0.8738791,12.0810804,78.4961853,-31.2977104,107.2366409,-19.6131992,9.3564920,9.3612804,-16.9541988,121.0152664,116.2366409
4560,-2.4444675,-0.7565638,11.0036945,92.7633591,-34.3129768,113.1221390,-19.6131992,8.4802189,10.0986910,5.0152674,74.6183243,146.6946564
4570,-2.1499822,-0.4979914,9.5360565,96.7251892,-22.0458012,119.5877838,-18.7273502,8.0588417,9.9215212,27.0152664,49.2366409,172.7786255
4580,-1.9081690,0.0598547,7.7715387,87.8702316,-8.7175570,127.6870193,-15.4066095,7.3669209,9.0332766,47.4961815,40.7709923,193.6488495
4590,-1.6376256,0.3543400,6.7947097,71.5114517,0.6259542,136.0763397,-12.2821922,6.9096308,7.9439206,64.1526718,36.1984749,206.7557220
4600,-1.4484847,0.3734936,6.2991123,51.4198456,1.0916030,143.6183167,-9.4690189,6.6151457,6.5217719,75.5038147,31.7709923,212.5877838
4610,-1.0965388,0.5051740,6.6726060,35.6412201,-5.8702292,151.1984711,-6.8928714,6.6223278,4.9655490,82.1526718,23.0000000,215.9389343
4620,0.1723816,0.7733232,7.2711535,27.0839691,-15.0000000,153.9847260,-4.4747400,6.5864153,3.2608860,83.6488571,6.4732823,218.6488495
4630,0.9433106,1.2210367,7.6422529,23.8473282,-27.2977104,150.2977142,-1.7046629,6.8114691,1.8363433,80.9083939,-13.4580154,219.3511505
4640,1.6902977,1.6543850,8.3269911,24.4580154,-48.9847336,141.1832123,0.9600700,6.9886389,0.5530578,78.1068726,-25.7633591,219.0610657
4650,2.6503677,2.1116750,8.7268209,30.0381680,-72.9847336,126.5801544,3.5266411,6.9527264,-0.4285599,78.1450348,-30.9312973,216.9694672
4660,3.6056492,2.6096666,8.9303265,37.9007645,-94.9542007,108.2824402,6.2129216,6.7827387,-1.7046629,81.3358765,-23.4580154,215.1374054
4670,4.1658897,3.0094962,8.4826136,43.3740463,-108.7862625,87.2977066,9.8185711,6.3781209,-3.2824337,85.3740463,-5.6183205,209.5877838
4680,4.3646073,3.1914546,7.7643566,42.0992355,-114.9847336,67.7709961,14.3531656,5.8729467,-5.1906028,90.9923630,21.1068707,196.6030579
4690,4.4603748,3.2632802,7.1155310,34.2824440,-118.6717529,50.7251892,18.8710022,5.8921003,-7.2735476,90.5190811,56.2595406,167.3358765
4700,4.5920553,3.2417326,7.1514440,23.6641216,-125.4503784,33.3740463,19.6126022,5.6933827,-9.1051025,76.5038147,91.8244247,123.2824402
4710,4.5872669,3.0094962,8.1067257,17.3129768,-138.3893127,17.2748089,19.6126022,6.2248926,-9.9239149,46.6030540,106.7862625,62.9618340
4720,4.7811961,3.0310438,9.2679071,20.4427490,-153.3664093,-12.4961834,19.6126022,6.9599090,-8.7411861,-29.9770985,33.0305328,-52.3969460
4730,4.7261300,2.6934631,9.0476418,21.8549614,-154.2137451,-23.3969460,19.6126022,6.8138633,-6.9072366,-61.6946564,-17.9312973,-102.3587799
4740,4.6231799,2.6647329,8.9614515,20.6793900,-152.2748108,-31.3893127,18.8518486,6.2895355,-5.0445571,-84.2519073,-51.7862587,-147.1603088
4750,4.7309184,2.5929072,8.6549950,15.6030531,-141.6412201,-35.5801544,17.1830978,5.9280128,-3.4356618,-96.8167953,-62.0763359,-186.1526642
4760,4.8099265,2.5905130,8.3892403,5.2671757,-131.6717529,-37.9465637,14.7314482,5.4324160,-2.0494261,-101.3511429,-58.0916023,-218.4045868
4770,4.9080882,2.3319404,9.2774839,-2.7251909,-130.1908417,-41.4885483,12.3204985,5.0852585,-1.0247130,-100.9236679,-47.7480927,-246.9313049
4780,4.8793583,2.2768741,10.0484133,-2.6412213,-126.4885483,-44.8931313,9.7347746,4.8290801,-0.3280039,-98.1374054,-41.6870232,-250.1374054
4790,5.4611464,2.1787124,9.4690189,-18.6946564,-42.7175560,-44.9389305,6.9096308,4.3885493,-0.0909792,-97.7175598,-46.8167953,-250.1374054
4800,4.5393834,2.1332228,10.6158361,-26.4656487,0.2824427,-43.0610695,3.7540891,3.9552009,0.3327923,-98.8702316,-53.0992355,-250.1374054
4810,3.7421181,2.1811066,10.8935623,-23.3816795,18.3358784,-43.5801544,0.0143651,3.5457945,1.1085097,-99.6030502,-47.6641235,-250.1374054
4820,2.7150109,2.2146254,10.2806492,-13.1068707,14.1603050,-42.0992355,-4.6112089,3.5553713,1.8291607,-96.8854980,-24.2061062,-250.1374054
4830,2.5953014,2.4013720,9.2463598,-4.6488547,1.9847329,-38.1526718,-11.2167778,4.4771342,2.4851687,-89.0992355,25.5114498,-250.1374054
4840,3.0645626,2.6168492,8.5711985,-3.8778627,-1.4656489,-35.2595406,-19.1391506,6.4188218,3.3087699,-75.6106873,97.2519073,-231.2595367
4850,3.4835455,2.8849983,7.9151902,-10.0610685,6.8244276,-34.0076332,-19.6131992,8.5807753,4.5345950,-61.4045792,150.3358765,-145.8931274
4860,3.5026991,3.0478032,7.5488791,-21.2824421,20.1603050,-34.4351158,-19.6131992,9.4235296,6.1674318,-45.4122124,156.5877838,-44.4427490
4870,3.4739690,3.1028695,7.5632443,-32.2061081,31.2213745,-36.9160309,-19.6131992,9.4019823,7.5321202,-25.3587780,129.4198456,39.2748108
4880,3.5362179,3.1172347,7.5632443,-41.6183205,42.7251892,-38.6183205,-19.6131992,9.0524302,8.5807753,0.3587786,93.7480927,98.8625946
4890,3.5098817,2.9137285,7.6254935,-51.0305328,54.9236641,-40.2290077,-19.6131992,8.3820572,8.6597834,26.1145039,63.1984749,139.6946564
4900,3.1938488,2.7485294,7.9822278,-60.0305328,64.2290039,-41.3053436,-18.5429974,7.5201492,8.2623482,51.2900772,30.3435116,166.2595367
4910,2.9640064,2.4564383,8.3030491,-65.5648880,69.5038147,-41.5419846,-15.0905762,7.0413113,7.5033898,75.4732819,-8.1145039,181.2519073
4920,2.7676830,2.2050486,8.7340031,-67.8473282,73.8396912,-41.8473282,-12.0691090,6.7611909,6.0692701,91.7633591,-57.9007645,184.5648804
4930,2.5186872,1.9895715,8.6645718,-70.0305328,78.3893127,-41.3511467,-8.6741486,6.5888095,4.6351509,101.9465637,-94.8931274,178.9618378
4940,2.2002602,1.7262106,8.5831690,-73.3740463,82.4503784,-39.9923668,-5.6143742,6.4882536,2.9759774,103.1221390,-109.7328262,169.3816833
4950,2.0422437,1.4915800,8.9925756,-77.6030502,83.9847336,-38.1221390,-3.0908985,6.5169835,1.4676381,95.3893127,-101.5419846,161.8167877
4960,1.8650736,1.1875180,9.7084379,-77.9923630,83.4961853,-37.0992355,-1.4700323,6.6845770,0.3615226,84.3282471,-83.5954208,159.7480927
4970,1.7166338,1.1587877,10.2878323,-74.5496216,81.8931274,-36.8702278,0.2035061,7.0820122,-0.4668669,77.0916061,-66.2442780,162.6335907
4980,1.5610116,0.9624642,10.4985209,-68.7786255,79.5114517,-36.9771004,2.3343346,7.4770536,-1.5562232,75.6717529,-61.1221390,170.4045868
4990,1.3359578,0.8116302,10.4075413,-63.9847336,79.1450348,-36.7938919,5.4707227,7.9175844,-2.0542145,79.6641235,-46.4045792,174.7251892
5000,1.0127422,0.6943150,10.2495251,-60.9847336,80.4885483,-35.5648842,10.5224628,7.5153608,-3.2584918,92.2061081,-29.8473282,171.9313049
5010,0.8403605,0.6200951,10.1920643,-59.1068687,80.4656525,-33.8244286,15.7154598,6.8832946,-5.6622581,107.9770966,-18.7404575,155.1984711
5020,0.6009415,0.5075682,10.1369982,-57.1221390,79.9312973,-32.0000000,19.6126022,6.8018923,-8.6142941,110.8854980,6.3053436,119.0992355
5030,0.4548960,0.4237715,9.9813757,-54.7404594,77.9542007,-30.4580154,19.6126022,7.1035600,-11.5639353,88.8931274,38.4580154,65.4656525
5040,0.1747758,0.2537841,9.8353300,-53.0610695,75.5114517,-29.1832066,19.6126022,8.0995426,-12.8400383,45.1679382,52.7175560,4.4122138
5050,0.0383070,0.1460456,9.8329363,-51.4351158,70.9160309,-27.4961834,19.6126022,8.5831690,-12.5407648,-4.7938933,23.1984730,-49.1297722
5060,-0.1915352,0.1077385,9.8664551,-49.2519073,63.3435097,-25.7709923,19.3546276,8.3940287,-11.1234045,-52.0076332,-36.3053436,-96.3053436
5070,-0.1651991,0.0335187,9.9861641,-45.7328262,55.2671738,-24.2824421,18.0641594,7.9223728,-9.3995876,-87.4656525,-85.2900772,-139.3587799
5080,-1.3742647,-0.2322364,10.2782555,-2.8167939,9.6793890,-4.2671757,-19.6131992,8.0157461,3.1746953,-177.2748108,127.8854980,-77.4961853
5090,-1.3335636,-0.2106887,9.8640604,-0.1603053,3.9236641,-1.7786260,-19.6131992,7.8170285,6.8162575,-157.3969421,123.3969498,-17.8931293
5100,-1.3048333,-0.2178712,9.8089943,-0.0381679,1.0229008,0.4656489,-19.6131992,7.5704269,10.5368280,-125.3282471,100.7938919,35.6106873
5110,-0.9911944,-0.1460456,9.6581602,-0.6259542,-2.0381680,3.5038168,-19.6131992,6.8641410,15.8567171,-46.2061081,42.6106873,114.6030502
5120,-0.8906385,-0.0885850,9.7563219,-0.7175573,-3.9236641,4.5877862,-17.9229031,6.3134775,16.6851063,-1.9923664,18.0534344,138.4274750
5130,-0.7421987,-0.2035061,9.9334917,-0.6793893,-5.2824426,6.5877862,-15.3778791,5.8944945,16.3307667,40.6259537,-4.7175574,153.8931274
5140,-0.6009415,-0.1771700,9.9526453,-0.4503817,-6.7938933,7.8244276,-12.4426022,5.5018473,14.4704809,75.5190811,-27.4885502,160.3511505
5150,-0.3471575,-0.1963235,10.0891142,-0.0229008,-7.2671757,8.9312973,-9.9717989,5.3174949,12.3133163,101.0839691,-47.1221390,163.3053436
5160,-0.2298422,-0.1101327,10.0484133,0.9465649,-7.0687022,8.9770994,-7.6614060,5.0828643,10.2543135,121.4809189,-62.4198456,163.6412201
5170,-0.1460456,-0.0861908,9.9813757,1.8244275,-7.0458016,8.2748089,-5.5521255,5.2648225,8.1402445,136.8244324,-70.1297684,166.1450348
5180,-0.0837966,0.0502780,9.8808203,2.1068702,-6.2442746,7.9389315,-3.7157819,5.4443870,5.8394279,151.3129730,-70.8091583,171.0152740
5190,-0.0814024,0.0742199,9.8856087,1.3206106,-5.7099237,7.0381680,-1.8818330,6.0956063,3.0885043,162.8854980,-59.5725174,179.4122162
5200,-0.0191535,0.1292862,9.8544836,0.9465649,-5.4732823,5.8396945,-0.5434810,7.0772243,0.5147507,170.4809113,-42.8244286,194.8244324
5210,-0.0407012,0.0454896,9.8903971,0.3435115,-5.3587785,4.6946564,1.5681942,7.1993275,-1.9656296,176.5496216,-27.0305347,214.3816833
5220,-0.0790083,0.0478838,9.8616667,-0.0305344,-5.7557254,3.2977099,5.1738434,6.8641410,-4.9679432,180.8778687,-6.7480917,230.5190887
5230,-0.0526722,-0.0119709,9.9861641,-0.1068702,-7.1374044,2.5190840,9.8736372,6.6031747,-8.6669655,177.0000000,19.3587780,235.4580078
5240,-0.0598547,-0.0957676,10.1753054,0.1450382,-6.4885497,2.1832061,15.7346134,6.2296810,-12.2247314,159.0610657,44.4122124,221.8320618
5250,-0.0071826,-0.1532281,10.0077124,0.3282443,-5.8396945,1.9007634,19.6126022,6.1937680,-15.4568872,122.6717529,60.0305328,185.3206177
5260,-0.0550664,-0.2896969,9.8640604,0.4885496,-7.1603055,1.8625954,19.6126022,6.7947097,-17.3315372,64.9618301,56.8244286,123.6870193
5270,-0.1292862,-0.3303981,9.9406748,0.8015267,-8.9465647,1.9389313,19.6126022,7.5991573,-16.6563759,0.6641222,27.9847336,52.7251892
5280,-0.1292862,-0.3423691,10.0101061,1.9160305,-9.6641226,1.6870229,19.6126022,8.0181408,-13.4840746,-56.3511467,-23.4809170,-11.8702288
5290,-0.1077385,-0.3423691,9.9861641,2.9236641,-9.4732828,1.4732825,19.6126022,7.7452030,-10.3620520,-100.2290039,-80.3969498,-69.0305328
5300,-0.1580165,-0.2801202,9.9095497,3.5877862,-7.8931298,1.4809160,19.6126022,7.2160869,-7.8577299,-132.8396912,-114.4580154,-119.4732819
5310,-0.2489957,-0.1364688,9.7395630,3.3206108,-6.9389315,1.4809160,19.4072990,6.8138633,-5.5138183,-153.0229034,-116.2748108,-159.8244324
5320,-0.2035061,-0.1077385,9.7970228,3.1221373,-6.0763359,2.3282442,16.9077663,6.2608056,-3.3949606,-160.7328186,-96.4427490,-189.8091583
5330,-0.1436514,-0.0047884,9.8616667,2.7862597,-4.6335878,2.8473282,14.2621870,5.7460546,-1.7333932,-160.0458069,-76.3129807,-216.3664093
5340,0.0071826,0.1101327,9.7443514,1.6488550,-2.1297710,3.0763359,11.7889891,5.4874821,-0.7445929,-157.9389343,-61.3893127,-238.8167877
5350,0.0814024,0.1053443,9.6749191,-0.3893130,1.1221374,3.2290077,9.2319946,4.9463954,-0.2202654,-156.8702240,-52.8244286,-250.1374054
5360,0.1388630,0.1675933,9.8161764,-2.2061069,3.3053436,2.6641221,6.3613615,4.4460096,0.3687052,-155.8091583,-43.6183205,-250.1374054
5370,0.2896969,0.1963235,9.8353300,-3.2671757,3.7404580,1.3206106,3.1579359,4.0126615,1.2569494,-153.9389343,-23.6106873,-250.1374054
5380,0.1939293,0.2250538,9.9430685,-3.9160306,3.7099237,-0.8167939,-0.6081241,4.0270267,2.1547706,-148.0610657,9.0610685,-250.1374054
5390,0.0622489,0.1867468,10.1130562,-3.5038168,2.7709923,-2.6717558,-4.4891052,4.0533628,2.9424589,-137.1908417,37.5190849,-250.1374054
5400,-0.2154770,0.1125269,9.9957409,-2.5038168,1.8091604,-3.8167939,-8.8489246,4.4460096,3.7062054,-122.5648880,67.0610657,-232.8473358
5410,-0.4094064,0.0957676,10.0029240,-1.6870229,-0.4045801,-3.7633588,-13.6277266,5.3390427,4.4053087,-107.9007645,102.5801544,-192.7862549
5420,-0.6057299,0.1005560,9.9263096,-0.8778626,-1.7709924,-2.4885497,-17.9061432,6.3972740,5.7340837,-95.6641235,132.8244324,-138.3587799
5430,-0.6488253,0.0574605,9.8688488,-0.8778626,-3.4656489,-1.1221374,-19.6131992,7.0149751,7.5369086,-82.7404556,140.3282471,-80.4045792
5440,-0.6584021,0.0311245,9.7946291,-0.5267175,-5.5267177,1.0610687,-19.6131992,7.4363523,9.3229742,-64.4274826,120.7404556,-30.4427490
5450,-0.7086801,-0.1316804,9.9526453,0.5114504,-8.1603050,3.4580152,-19.6131992,7.9247670,10.8720140,-39.4274826,88.0610657,13.9312973
5460,-0.4022238,-0.2035061,10.0316534,1.2442749,-9.9694653,5.3435116,-19.6131992,7.8146343,11.7961712,-11.0305347,51.2061081,55.7938919
5470,-0.1747758,-0.1532281,10.0172882,2.3587787,-9.8549614,6.8167939,-18.3538570,7.6638002,12.0068598,17.3587780,18.5190830,88.3664093
5480,0.0454896,-0.1125269,9.8832140,3.1145039,-8.7938929,7.4732823,-15.5287132,7.9918046,11.6261835,43.5801544,-2.8625953,111.2900772
5490,0.2130829,-0.0430954,9.8137827,2.7175572,-7.5419846,7.0000000,-13.0914278,8.6142941,10.4793673,70.0534363,-18.5419846,128.8549652
5500,0.4165890,0.0837966,9.7251978,2.0916030,-6.6488547,5.7404580,-10.8289185,9.3612804,8.8513184,94.5038147,-29.5419846,148.2519073
5510,0.5482694,0.1891410,9.6725254,0.6564885,-3.9541984,4.1068702,-8.5017672,9.6270361,6.3302369,117.6106873,-28.8931293,169.5496216
5520,0.5865764,0.2226596,9.8233595,-1.2824427,-0.9465649,1.6335878,-5.6239510,9.5815458,3.1363883,133.8091583,-3.7404580,193.6335907
5530,0.5386927,0.1939293,9.8760319,-2.8244274,1.7480916,-0.1297710,-3.4189026,9.1505919,-0.3758878,140.7328186,28.7175579,220.5954132
5540,0.4046180,0.0430954,10.0029240,-3.6564887,3.1450381,-1.7251909,-0.5865764,8.8680773,-3.5745249,133.2442780,51.0534363,243.7786255
5550,0.2992737,0.0837966,10.0220766,-3.0458016,3.1145039,-3.2595420,3.2130022,8.5879574,-6.5648675,107.7404556,44.4656487,250.1297760
5560,0.0191535,-0.1029501,9.9239149,-2.3969467,1.5419847,-4.0076337,10.8384953,8.0396881,-10.2303715,25.5496178,-37.9312973,203.5496216
5570,-0.1316804,-0.2154770,9.9358864,-1.4885496,0.2595420,-3.5954199,14.1161413,7.7643566,-10.9127159,-17.9083977,-96.0916061,158.1450348
5580,-0.2729376,-0.2130829,9.9430685,-0.9847328,-1.0152671,-2.9389312,16.6276455,7.7452030,-10.7187862,-60.6183205,-154.8702240,103.0687027
5590,-0.3064562,-0.1795642,9.9406748,0.0152672,-1.8854961,-2.0458016,17.9636040,7.6566176,-9.7060442,-96.3282471,-197.7251892,44.5343513
5600,-0.2944853,-0.1388630,9.9454632,0.4885496,-1.9160305,-0.9236641,18.1958389,7.3501616,-8.0971489,-119.2595444,-213.8778687,-9.4809160
5610,-0.1939293,-0.1412572,9.8760319,0.6030535,-2.1908398,-0.2595420,17.3937855,7.3884687,-6.7875271,-136.9541931,-199.8778687,-55.1374054
5620,-0.1460456,-0.1125269,9.8377247,0.5496183,-1.7633588,0.2213740,15.7298250,7.4866304,-5.6862001,-157.2290039,-167.4427490,-89.2671738
5630,-0.1053443,-0.0430954,9.7204094,0.1908397,-1.8549619,0.4809160,14.2765512,7.2639709,-4.0485744,-173.0305328,-130.6488495,-115.1374054
5640,-0.0287303,0.0430954,9.8856087,-0.2290076,-1.4809160,0.2824427,12.7849712,6.7133074,-1.7836711,-180.6030579,-95.9923630,-138.8931274
5650,-0.0311245,0.0622489,9.8760319,0.0152672,-0.1450382,0.3053435,11.0970678,6.0142040,0.2537841,-180.3587799,-68.8015289,-162.7022858
5660,0.1221037,0.1292862,9.9095497,-0.2442748,0.1832061,0.1068702,9.2559366,5.4491754,1.7932479,-173.4274750,-50.7557259,-183.5801544
5670,0.1436514,0.1819584,9.8209648,-0.8702290,1.3206106,-0.4732825,7.5464849,4.8338685,2.8730273,-163.8625946,-37.0228996,-201.3969421
5680,0.1723816,0.1292862,9.8808203,-1.7022901,1.2595420,-0.6030535,5.5425487,4.0677280,3.8187323,-153.4809113,-16.7786255,-215.8167877
5690,0.1340746,0.1173153,9.9215212,-1.9312977,1.2900764,-1.3206106,2.9424589,3.5841017,5.0086441,-139.3435059,22.0458012,-222.9084015
5700,-0.0191535,0.0383070,9.9263096,-2.2061069,0.6641222,-1.4809160,-0.7398046,3.2465210,6.6271162,-118.5801544,74.2595444,-220.1068726
5710,-0.1460456,0.1053443,9.9454632,-1.7328244,0.3053435,-1.6259542,-4.5298066,3.1723011,7.8074517,-92.8244247,119.0610657,-207.7099304
5720,-0.2753318,0.0574605,9.9837704,-1.6106870,-0.3664122,-1.1221374,-8.1234846,3.3207407,8.7196379,-66.4961853,148.7404633,-187.9770966
5730,-0.3926471,-0.0550664,9.8449068,-1.0992366,-1.7633588,-0.1908397,-12.2582502,3.9504125,9.4115591,-44.7480927,174.3129730,-156.7328186
5740,-0.3519458,0.1436514,9.7706871,-0.7022901,-2.5496182,0.7709923,-16.9867744,4.9463954,10.9534168,-29.9847336,201.1526642,-111.7709961
5750,-0.3591284,-0.0837966,9.8640604,-0.3969466,-3.5267177,2.2595420,-19.6131992,5.5449429,13.1800127,-17.4732819,207.8244324,-53.8702278
5760,-0.2442073,-0.0502780,9.9957409,0.2824427,-4.3587785,3.2977099,-19.6131992,5.6598639,16.1440201,0.5190840,177.1450348,-1.2671756
5770,-0.0885850,0.0909792,9.9741936,0.1297710,-4.0839696,3.9694657,-19.6131992,5.6335278,18.4711723,32.6412201,115.1526718,39.1679382
5780,0.1340746,0.0191535,9.8903971,0.3053435,-2.3664122,3.9618320,-16.5725803,4.9009056,17.4584293,124.2748108,23.7557259,90.8167953
5790,0.2489957,0.0574605,9.7850523,-0.4198473,-1.9694656,3.6717558,-14.3316183,4.5920553,14.8631277,164.1221313,17.3206100,106.3358765
5800,0.4285599,0.0335187,9.8760319,-0.9541985,-0.4656489,3.1984732,-12.8280668,4.5561423,11.9158812,194.5114441,10.5801525,117.7862625
5810,0.4381367,0.0239419,9.9670105,-1.7251909,0.2137405,1.7480916,-11.5280218,4.4244623,8.4945841,211.9847260,-3.5496182,125.2595444
5820,0.3926471,0.0933734,9.9287033,-1.8625954,0.5038168,0.1832061,-9.9957409,4.7285242,5.0493455,214.3893127,-15.3969469,132.8244324
5830,0.2968795,-0.0383070,10.0268650,-1.4961832,0.7786260,-1.2366412,-8.3365679,5.5138183,2.1523764,206.0534363,-31.9465656,141.3740387
5840,0.2154770,-0.1077385,10.0053177,-1.5190840,0.7709923,-1.3740458,-6.4619174,6.3110833,-0.0359128,195.2519073,-46.7022896,152.5343475
5850,0.0981618,0.0287303,9.9741936,-0.9312977,0.4732825,-1.7175573,-4.5920553,6.8282285,-2.4684093,183.8473358,-45.9007645,168.2824402
5860,0.0933734,-0.0574605,9.9885588,-0.4198473,0.5038168,-2.2519083,-2.4037662,7.0915890,-4.6231799,171.9770966,-38.3816795,184.5190887
5870,0.0215477,-0.1173153,9.8544836,-0.2824427,0.1755725,-2.1145039,0.2442073,8.0636301,-6.7013364,160.9160309,-27.1755733,202.2748108
5880,0.0167593,-0.1077385,9.7658987,-0.2366412,0.9236641,-1.8778626,3.5745249,8.7268209,-8.6765423,154.9084015,-12.3129768,219.4809113
5890,-0.1340746,0.1005560,9.9717989,-1.4580153,1.5572519,-0.4885496,17.3842087,7.2376347,-6.0956063,-145.3893127,-100.7099228,-172.6793823
5900,-0.1939293,0.0837966,9.9239149,-1.3206106,0.9160305,-0.6564885,15.0259333,6.6917596,-4.3526363,-153.6946564,-90.8625946,-206.0458069
5910,-0.3208214,0.0383070,9.8760319,-1.3511450,-0.5496183,-0.6106870,12.2726154,6.1075773,-3.0382264,-157.8091583,-83.4274826,-233.8854980
5920,-0.4070122,0.0622489,9.8664551,-1.1679389,-1.9160305,-0.1450382,9.2703018,5.5808558,-1.9656296,-161.3435059,-79.9007645,-250.1374054
5930,-0.3854645,-0.0478838,9.9263096,-1.0839695,-2.7633588,0.7862595,6.2775645,4.9535780,-0.9265513,-165.7862549,-76.7938919,-250.1374054
5940,-0.4453192,-0.0478838,9.9119444,-0.2061069,-3.5419848,2.4732823,3.4045374,4.2281384,0.0694315,-168.6641235,-70.0381699,-250.1374054
5950,-0.3088504,-0.0694315,9.8305416,0.2824427,-3.1068702,4.2977099,0.3567342,3.7253587,1.0558375,-168.7328186,-64.2137375,-250.1374054
5960,-0.1221037,-0.0383070,9.8257532,0.3282443,-2.2366412,5.3664122,-2.5067163,3.5314295,2.1930776,-168.2595367,-55.5801544,-250.1374054
5970,0.1316804,0.0143651,9.7060442,-0.5725191,-0.7404580,5.5954199,-6.3853035,3.7397239,3.5625539,-164.8167877,-41.6564903,-250.1374054
5980,0.2753318,0.0454896,9.6964674,-1.6641221,1.6106870,4.8702292,-10.7834291,4.4651632,4.9607606,-156.6183167,-9.6793890,-247.8549652
5990,0.4596844,0.0311245,9.6557665,-3.1908398,3.7633588,3.3282442,-15.0379038,6.0046272,7.0484939,-140.5954132,35.1832047,-199.6335907
6000,0.4285599,-0.0430954,9.7611103,-4.4122138,5.2290077,1.6106870,-17.3243542,6.9263902,8.5113440,-117.2900772,61.7709923,-139.7251892
6010,0.3830703,-0.0215477,9.8449068,-5.5572519,6.9160304,-0.1755725,-16.3714676,7.2065101,9.4474716,-89.0229034,60.6335869,-85.8396912
6020,0.1532281,-0.0335187,9.9502516,-6.0458016,7.3129773,-1.5114504,-13.1105814,7.0460997,9.3756456,-57.4809151,43.7786255,-51.7786255
6030,-0.0071826,-0.1125269,10.0986910,-5.6030536,6.3282442,-1.3206106,-10.1681223,6.6462698,7.8601241,-28.4809170,26.7709923,-40.3358765
6040,-0.2202654,-0.1268920,10.0651722,-4.3053436,5.2290077,-0.9618320,-10.2782555,6.4164276,6.0022330,-12.7786255,29.1374054,-34.7633591
6050,-0.2442073,-0.1628049,10.1537571,-2.8091602,3.8549619,0.1526718,-13.1201582,7.0700417,5.4635406,-5.5190840,53.0076332,-19.0992374
6060,-0.3256098,-0.1508339,10.0148945,-1.4885496,2.7099237,1.0610687,-15.4066095,6.7516141,5.7508430,-2.0916030,75.9236679,13.0839691
6070,-0.2418131,-0.0550664,10.0508070,-0.5419847,-1.5419847,1.7786260,-18.1407738,7.1993275,8.0612354,10.3129768,101.8015289,87.1526718
6080,-0.1221037,-0.1316804,10.0436249,0.3129771,-3.3816793,1.3511450,-18.0066986,7.1945391,8.7938576,16.9160309,89.9236679,122.3053436
6090,-0.0191535,-0.0359128,10.0915089,0.9541985,-4.5343513,0.7175573,-16.4337158,7.0173693,9.5073261,23.9160309,67.7938919,153.2442780
6100,-0.0071826,-0.0814024,10.0891142,1.9694656,-5.4122138,-0.2442748,-14.0443153,6.3541789,10.2950144,35.8625946,49.6412201,177.5038147
6110,0.0335187,-0.0526722,10.0125008,2.7099237,-6.2366414,-0.7328244,-11.5280218,6.0022330,10.6900558,55.2977104,35.9389305,195.3206177
6120,0.0239419,-0.0790083,10.0316534,3.1297710,-6.2671757,-1.1984733,-8.9303265,5.8633699,10.2686787,77.7786255,25.1908398,206.4809113
6130,0.0359128,-0.0071826,9.7706871,3.0687022,-5.7480917,-1.6946565,-4.4340386,6.1578555,7.7092900,116.4274826,6.4045801,213.8549652
6140,0.0335187,-0.0023942,9.7874460,2.6870229,-5.1908398,-2.1984732,-2.3439114,6.2105274,5.2696109,128.5419922,-7.6870227,212.7175598
6150,-0.0119709,0.0550664,9.7204094,2.4809160,-3.9541984,-2.1374047,-0.5602403,6.4571290,3.0406206,132.8931274,-13.2137403,208.7938995
6160,0.0095768,0.0119709,9.7012558,1.8091604,-2.1679389,-2.2290077,1.0390782,6.8449879,1.0366840,130.8091583,-14.7938929,204.9847260
6170,-0.0143651,0.0311245,9.6126709,0.6259542,-0.0305344,-1.9083970,2.5162930,7.3334022,-0.7158626,124.0076370,-13.4122133,200.2824402
6180,-0.0119709,0.0383070,9.6030941,-0.4885496,1.6335878,-1.0687023,4.3693957,7.9391322,-2.3008161,113.1755753,-13.7480917,192.7709961
6190,-0.0359128,0.0742199,9.7012558,-2.1221373,1.8473282,-0.9312977,6.3853035,7.8218169,-3.9839313,100.1526718,-26.0381680,182.5496216
6200,0.0095768,0.1029501,9.8927908,-2.6106870,0.9007633,-0.6717557,9.6174593,7.8170285,-5.9878678,84.5877838,-57.5496178,165.5954132
6210,0.0718257,0.0981618,10.0651722,-2.1526718,0.1755725,-1.0916030,13.6061783,7.4459291,-8.0348997,65.7633591,-78.6946564,133.8778687
6220,0.0047884,0.0191535,10.0388365,-0.8931298,-0.3435115,-1.7480916,16.8957958,7.6159167,-9.3660688,46.0076332,-75.0305328,85.9007645
6230,-0.1651991,-0.1987177,9.9287033,-0.0839695,-1.1526718,-2.0000000,18.6363716,7.7428088,-9.8257532,22.8244267,-65.0381699,28.7786255
6240,-0.1915352,-0.2370248,9.8137827,0.2061069,-1.4656489,-1.5801526,18.9164906,7.9151902,-9.8784256,-5.8931298,-65.0687027,-28.4809170
6250,-0.1747758,-0.2753318,9.6773138,-0.2748092,0.4656489,-0.2824427,17.9109306,8.3629036,-9.0907373,-40.5190849,-74.8473282,-83.3435135
6260,-0.1771700,-0.2561783,9.7467451,-1.5114504,2.0839694,0.8396947,16.0267048,8.2431946,-7.5225434,-74.8396912,-96.2977066,-130.4656525
6270,-0.0359128,-0.0718257,9.7228031,-2.6641221,3.4885497,1.0000000,14.0395269,7.9008250,-5.5928264,-103.6717529,-123.5496216,-169.3282471
6280,0.0526722,0.0167593,9.8903971,-2.7862597,5.1145039,0.9160305,12.1505117,7.4626884,-3.3351059,-122.8091583,-146.0992432,-201.3969421
6290,0.0885850,0.0263361,10.0053177,-2.6106870,5.3740458,0.5496183,10.4865494,7.0844064,-1.3072275,-133.5954132,-145.6793823,-226.8625946
6300,0.0718257,0.1173153,10.1130562,-1.8625954,5.2900763,-0.2290076,8.3700867,6.5002246,0.5626345,-134.0992432,-132.6564941,-245.7633514
6310,0.0814024,0.2154770,10.1202393,-0.7633588,4.6641221,-0.9083970,6.1003947,5.9687142,1.6328372,-126.5725174,-113.5572510,-250.1374054
6320,0.0287303,0.1771700,10.1178446,0.0229008,4.6946564,-1.4732825,3.7732425,5.4635406,2.0326669,-117.4961853,-93.7557220,-250.1374054
6330,-0.0359128,0.1723816,9.9502516,0.2061069,4.0763359,-1.7099236,1.1875180,5.1594782,1.9345051,-109.5801544,-80.8549652,-250.1374054
6340,-0.0837966,0.1364688,9.8496952,-0.0610687,4.1450381,-1.9465649,-1.4748207,4.9320302,1.8578910,-104.0992355,-67.1374054,-250.1374054
6350,-0.1628049,-0.0071826,9.8784256,-0.8931298,3.5572519,-2.1755726,-4.7404952,5.0086441,2.3510940,-98.7557220,-42.2366409,-250.1374054
6360,-0.2705434,0.0023942,9.8520899,-1.7938931,3.0916030,-1.6335878,-8.1378498,5.6670465,3.0238612,-92.8015289,-12.7862597,-234.1221313
6370,-0.3256098,-0.0071826,9.8760319,-2.3816793,2.1679389,-0.9923664,-11.5615406,6.0980005,4.0126615,-84.5496216,12.0229006,-198.9007568
6380,-0.3471575,-0.0742199,9.9598284,-2.1526718,1.0076336,-0.1755725,-14.0921993,6.4475522,4.7740140,-74.3435135,31.4274807,-158.6870270
6390,-0.3208214,-0.0407012,10.0292597,-1.6106870,-0.2977099,0.9236641,-16.0506458,6.7803445,5.5497313,-63.2061081,51.4656487,-117.0763321
6400,-0.3256098,-0.1197095,10.0148945,-0.6335878,-1.4732825,1.3740458,-17.9420567,6.8952656,6.3900914,-50.5114517,70.1297684,-74.3664093
6410,-0.2681492,-0.0933734,10.0005293,0.1068702,-2.8549619,1.8244275,-19.3235035,7.0317345,7.3046722,-37.4503822,82.2748108,-30.6564884
6420,-0.1556223,-0.0981618,10.0316534,0.6488550,-3.3740458,1.7633588,-19.6131992,7.2448173,8.5161324,-22.8625946,84.9542007,14.2061071
6430,-0.0814024,-0.0598547,9.9694052,1.0610687,-3.9160306,1.6641221,-19.4240589,7.2184811,9.6916790,-8.1221371,74.4427490,52.0610695
6440,0.0766141,-0.1364688,9.9574337,1.1297710,-5.2290077,1.5267175,-15.6915178,6.6726060,11.2838144,27.9694653,43.9847336,110.6641235
6450,0.0574605,-0.0383070,10.0077124,1.7557251,-4.8015265,0.9847328,-13.2997227,6.2655940,11.5471754,52.3664131,34.9389305,125.2137375
6460,0.0861908,-0.0454896,9.9239149,1.6717557,-4.4885497,0.5114504,-11.4585905,6.3829093,10.7163916,77.4045792,21.3511448,133.4580078
6470,-0.0478838,0.0383070,9.7658987,1.1221374,-3.4961832,-0.2366412,-8.7292147,6.5121951,8.5568333,114.9923630,13.2748089,146.9618378
6480,0.0311245,0.0430954,9.8425131,0.6946565,-2.7557251,-0.1679389,-7.5800037,6.3972740,7.2759418,127.7404556,13.9389315,153.9465637
6490,0.0215477,0.0766141,9.8616667,0.4961832,-1.8931298,-0.0763359,-5.7292953,6.4762826,5.5904322,137.5496216,11.8854961,160.3435059
6500,0.0478838,0.0837966,9.8544836,-0.3282443,-0.3282443,-0.3358779,-2.7269819,7.0269461,2.6312141,146.2977142,-1.5877863,161.7175598
6510,0.0000000,0.1460456,9.7251978,-0.7099237,0.5725191,-0.3129771,-1.3527170,7.3477674,0.8379663,145.9160309,-10.5496187,159.4809113
6520,-0.0167593,0.0861908,9.8233595,-1.3206106,1.4503816,-0.2900763,-0.5027798,7.8529415,-0.5913648,141.4045868,-18.9312973,157.6870270
6530,0.0454896,0.0814024,9.8161764,-1.9312977,2.4656489,-0.2290076,0.5746055,8.2791071,-2.0374553,136.1679382,-25.3129768,158.5190887
6540,-0.0191535,0.0861908,9.8209648,-2.3206108,2.9618320,-0.5801527,1.9153515,8.6406298,-3.1770895,130.9923706,-31.2061062,158.6030579
6550,-0.0885850,0.0646431,9.8903971,-2.5419848,2.5877862,-0.5496183,3.2537034,8.7483683,-4.3406653,126.0076370,-32.0076332,157.6793823
6560,-0.0502780,0.0407012,9.9287033,-2.6870229,2.0534351,-0.2824427,4.8625989,8.8034344,-5.3007355,119.5343475,-34.2977104,154.5267181
6570,-0.2011119,-0.0215477,9.9598284,-2.6488550,1.6564885,-0.0916031,6.9239960,9.0428534,-6.0237808,111.7786255,-43.5954208,144.6564941
6580,-0.2489957,-0.0215477,10.0340481,-2.1374047,0.3664122,0.2519084,9.3421268,9.1098909,-6.7611909,101.3282471,-56.0076332,125.8702316
6590,-0.3663110,-0.2011119,9.9502516,-0.9312977,-0.4351145,1.2671756,11.8775740,8.8034344,-8.1593981,86.1603088,-66.4503784,99.5190811
6600,-0.5123565,-0.2035061,9.9598284,-0.2595420,-2.1832061,4.1068702,14.1568422,8.3485384,-9.7850523,68.3282471,-71.2061081,64.8244247
6610,-0.2849085,-0.1412572,9.9406748,0.4580153,-3.1068702,7.2824426,16.0865593,7.9032192,-10.8121595,49.5572510,-60.2290077,22.9465656
6620,0.1508339,0.0478838,10.0651722,0.8702290,-2.0763359,7.9236641,16.7545376,7.7667508,-11.5040808,30.5267181,-33.8549614,-22.9770985
6630,0.4022238,0.1651991,9.8880024,1.5877863,0.6870229,6.3358779,15.9141769,7.7452030,-11.9565821,6.8396945,-7.2213740,-67.7862625
6640,0.4596844,0.1364688,9.7419567,1.0916030,3.2290077,4.1603055,13.9174232,7.9606800,-11.6668854,-22.7862587,0.5648855,-107.5267181
6650,0.4501076,0.0622489,9.5767574,-0.7786260,6.4122138,1.8396946,11.6453371,7.8888540,-11.3221216,-56.0076332,-17.5725193,-142.1908417
6660,0.3232156,-0.0526722,9.5887289,-3.3282442,8.8167934,-0.1221374,9.6222477,7.7571740,-10.2064295,-89.7099228,-50.4961815,-170.4427490
6670,0.1388630,-0.0598547,9.7036495,-5.0916033,11.3511448,-1.2290076,7.5991573,7.3573442,-8.5831690,-120.0992355,-86.4580154,-193.1908417
6680,0.0335187,-0.1436514,9.9071560,-5.6946564,12.4503813,-1.5572519,6.2009506,7.0437055,-6.8282285,-143.6870270,-115.1679382,-209.0076294
6690,-0.0263361,-0.1436514,10.0196829,-5.6106873,11.8549614,-2.1603053,4.4699516,6.5505023,-5.1259594,-161.3816833,-130.2137451,-221.3358765
6700,-0.2250538,-0.1364688,10.1441803,-4.7709923,11.1908398,-1.9083970,2.1499822,6.1075773,-3.3398943,-171.4656525,-126.9542007,-225.9160309
6710,-0.3375807,-0.0766141,10.1441803,-3.1297710,9.5267172,-2.2366412,-0.6727672,5.8250628,-1.6065011,-173.6641235,-100.9770966,-223.2442780
6720,-0.3902529,-0.0718257,10.0603838,-1.6717557,6.9618320,-1.9541985,-3.7900019,5.8897061,0.3160330,-168.9923706,-60.2824440,-210.0686951
6730,-0.3495516,-0.0023942,9.9813757,-1.0534351,5.4198475,-2.4274809,-6.7851329,5.8921003,1.8578910,-160.8091583,-14.1984730,-187.7633514
6740,-0.3974355,0.0454896,9.8496952,-1.5801526,5.1526718,-2.8702290,-10.0484133,5.8250628,3.7038112,-146.7709961,39.2977104,-158.4503784
6750,-0.5913648,0.0430954,9.8760319,-1.9541985,3.3664122,-2.9160306,-13.3691540,6.2248926,5.7029591,-126.8396912,96.1603088,-123.5419846
6760,-0.6895266,-0.0239419,9.8951855,-1.5954199,1.1526718,-2.2824428,-17.6116581,6.9766679,8.2192526,-102.8473282,155.2671814,-80.5801544
6770,-0.7637464,-0.0167593,9.8353300,-1.3587786,-2.3206108,-1.4198474,-19.6131992,7.8457589,10.4003592,-76.4961853,191.4580078,-29.8931293
6780,-0.7398046,-0.2394189,10.0603838,-0.4656489,-4.5496182,0.0992366,-19.6131992,8.0803890,12.2678270,-49.8854980,185.3893127,21.4351139
6790,-0.6895266,-0.1005560,10.1968527,1.2290076,-5.9389315,1.6335878,-19.6131992,7.7092900,13.6588507,-19.6488552,140.4274750,68.5343475
6800,-0.4692611,-0.1699875,9.9406748,2.6564887,-6.9618320,2.9236641,-19.6131992,6.8545642,14.1424770,13.1450386,83.7862625,106.0916061
6810,-0.3256098,-0.1747758,9.9071560,3.3053436,-6.6259542,3.7557251,-16.7521439,6.5145893,13.3595772,47.4427490,49.0076332,131.9847260
6820,-0.0502780,-0.0335187,9.6964674,2.7404580,-5.3129773,4.0381680,-13.6780043,5.8585815,11.9901009,75.3282471,32.5954208,143.6793823
6830,0.0670373,0.0095768,9.7443514,1.2213740,-3.8015268,3.4732823,-11.0827026,5.7197185,10.2638903,98.1526718,22.0229015,149.7557220
6840,0.1484398,-0.0023942,9.8065996,-0.1908397,-2.5725191,2.8320611,-9.1362267,5.7221127,8.3892403,114.7557220,6.6641221,149.4351196
6850,0.1819584,-0.0622489,9.8880024,-0.4961832,-1.4198474,1.8625954,-7.5632443,6.0070214,6.4475522,122.1145020,-13.7251911,147.5801544
6860,0.1723816,0.0047884,10.0723553,-0.2748092,-1.0763359,0.9389313,-5.7269011,6.4475522,4.4962878,124.0534363,-35.0381660,147.0229034
6870,0.1628049,-0.0383070,10.1848822,1.2748091,-0.0458015,0.3893130,-4.3215117,6.8449879,2.8610563,124.0381699,-48.4198456,147.1068726
6880,0.1268920,-0.0191535,10.3668404,3.9236641,1.6717557,-0.0992366,-2.8275378,7.1969333,1.3551112,123.5801544,-56.7022896,147.6183167
6890,-0.0191535,-0.1125269,10.4219065,8.5572519,2.4045801,-0.8167939,-1.4101776,7.5536675,-0.4596844,123.3969498,-58.2900772,152.0839691
6900,-0.2442073,-0.0981618,10.3045912,11.8167934,0.3435115,-0.9236641,0.5099624,8.2288294,-2.2529323,122.7022934,-46.9083977,156.6793823
6910,-0.3878587,-0.1843526,9.9334917,12.5419846,-0.8702290,0.0610687,2.8993635,8.3150196,-4.4986820,120.8167953,-31.9618320,160.4351196
6920,-0.5051740,0.0167593,9.5288744,11.0610685,-1.9541985,1.3282443,6.5265603,7.9798336,-7.4219875,116.2290039,-26.4045811,156.6641235
6930,-0.4932030,0.0502780,9.4067707,8.0076332,-2.4122138,2.8931298,11.0324249,7.7787213,-10.6014709,103.9770966,-17.8396950,135.1832123
6940,-0.2968795,0.1005560,9.3924055,4.4427481,-2.3587787,3.6106870,14.7386303,7.7763271,-12.9094696,82.8091583,-1.6717557,95.4885483
6950,-0.0718257,0.2274480,9.6677370,-0.1145038,0.6106870,1.8778626,15.9955797,8.6861191,-14.4249916,13.0000000,-5.7251906,-1.0916030
6960,0.0119709,0.2202654,9.7012558,-1.4732825,1.7786260,0.3358779,14.8152447,9.2224178,-13.1895895,-30.2671757,-39.1374054,-44.6717567
6970,0.0119709,0.1915352,9.7706871,-2.6335878,2.1526718,-0.3740458,13.6492739,9.1577749,-11.4011297,-69.9389343,-86.9389343,-83.2061081
6980,0.0023942,0.0837966,9.8305416,-3.8015268,3.0076337,-0.9312977,12.5886478,8.8513184,-9.5647869,-101.7786255,-125.8091583,-115.6641235
6990,-0.0909792,0.1747758,9.6940727,-4.9083967,3.7557251,-1.5114504,11.3484583,8.2862902,-7.1729918,-123.8015289,-144.0992432,-142.9847260
7000,-0.1675933,0.1580165,9.7970228,-6.0992365,4.1068702,-1.6641221,9.9502516,7.8170285,-5.2552457,-134.6946564,-143.9465637,-165.5496216
7010,-0.1723816,0.1292862,9.8353300,-7.1755724,4.1297708,-1.4885496,8.1833391,7.3741035,-3.6655040,-138.3511505,-133.4885559,-184.5648804
7020,-0.2777260,0.1723816,9.8065996,-7.6412215,3.7786260,-1.5190840,5.9304070,6.8473821,-2.4396791,-139.1832123,-118.9694672,-198.7404633
7030,-0.3710994,0.1029501,9.9741936,-7.0687022,3.4580152,-1.5038168,3.4691806,6.2655940,-1.4891858,-137.7557220,-100.4351120,-207.0915985
7040,-0.5003856,0.0191535,10.0196829,-6.3129773,2.8015268,-1.1297710,0.6775556,5.5712790,-0.5099624,-135.0686951,-74.9465637,-210.9541931
7050,-0.5315101,0.0215477,10.0172882,-5.2900763,1.7633588,-0.2748092,-2.3917952,5.1690550,0.6392486,-131.6412201,-44.0076332,-206.8854980
7060,-0.5195391,0.0119709,9.9885588,-4.0076337,1.1374046,0.9923664,-6.2129216,5.5664907,1.9033806,-125.0687027,-2.5954199,-193.6412201
7070,-0.4333483,0.0502780,9.9933472,-3.1908398,1.2900764,1.6564885,-10.5655584,6.0932121,3.2896163,-115.4885483,45.1374054,-164.3053436
7080,-0.2106887,0.0742199,9.9287033,-2.8091602,1.5801526,2.0458016,-14.9732609,6.9048424,5.1379304,-103.8549652,93.9312973,-121.3435135
7090,-0.1604107,0.0861908,9.8999729,-2.6106870,1.8473282,1.9083970,-18.0282459,7.4938130,6.8354111,-89.6335907,128.2748108,-68.3282471
7100,-0.1173153,0.0837966,9.9167328,-2.7709923,2.3969467,1.7328244,-19.6131992,7.7164726,8.7196379,-70.7709961,138.5038147,-15.8473282
7110,-0.1125269,0.0191535,9.8975792,-3.1145039,2.0000000,1.1221374,-19.6131992,7.6063399,10.3405046,-46.1755714,123.1145020,28.8396950
7120,-0.0047884,-0.0143651,10.0268650,-3.0687022,1.7175573,0.7328244,-18.8997307,7.4339581,11.4178896,-15.6412210,90.6946564,62.3740463
7130,-0.0598547,-0.0718257,9.9119444,-2.9007633,1.5343511,0.1068702,-16.8311520,7.2735476,11.5399933,16.4885502,60.0305328,85.2290039
7140,-0.0430954,-0.1292862,10.0316534,-2.4198472,0.7480916,-0.6030535,-15.0474806,7.3788919,10.9845409,42.8091621,38.0610695,103.4503784
7150,-0.0933734,-0.2130829,10.0196829,-1.9236641,0.2748092,-0.8091603,-13.5319586,7.2376347,10.2184010,65.9236679,18.3893127,117.1221390
7160,-0.1005560,-0.2035061,9.9167328,-1.2900764,0.0687023,-1.3893130,-11.8129311,6.8306227,9.0356712,86.2519073,0.5572519,126.5954208
7170,-0.0718257,-0.2801202,9.9239149,-0.9465649,-0.0534351,-1.9465649,-9.8544836,6.9072366,7.6757712,101.6106873,-16.4351139,133.0763397
7180,-0.2178712,-0.2537841,9.9310980,-0.7633588,1.3129771,-1.7862595,-7.5871863,6.8042865,5.9830794,111.1450348,-27.7022896,134.4198456
7190,-0.2035061,-0.2705434,9.7754755,-1.1374046,2.5419848,-1.6259542,-5.9974446,6.9335728,4.4747400,114.4045792,-30.3358784,137.2290039
7200,-0.2274480,-0.1244979,9.8042059,-1.6106870,3.0000000,-1.5877863,-4.5561423,7.1442614,3.2177906,114.8473282,-32.1145020,139.0229034
7210,-0.2944853,-0.2154770,9.8856087,-2.0000000,3.7022901,-1.3893130,-3.2010312,7.4626884,1.8195840,115.4503784,-38.1526718,138.8244324
7220,-0.3734936,-0.1388630,9.8185711,-2.5801528,6.6106873,-0.7328244,-1.8674678,7.7859039,0.5602403,116.6488571,-41.1603050,139.9694672
7230,-0.4620786,-0.1388630,9.9646168,-3.1450381,9.0534353,0.1221374,-0.6727672,8.3748751,-1.0103480,118.5114517,-38.6412201,142.9541931
7240,-0.5171449,-0.1436514,9.9861641,-3.2366412,8.9923668,1.3053435,0.8140244,8.5209198,-2.7796540,121.1679382,-20.7328243,147.5419922
7250,-0.4764437,-0.1053443,9.8473015,-2.4885497,7.8091602,2.0152671,2.5546002,8.6358414,-5.0277977,119.8625946,5.8320613,152.9084015
7260,-0.5865764,-0.1197095,9.9023676,-1.9923664,7.6717558,3.0763359,5.4108682,8.9087791,-7.5488791,110.4885483,32.2748108,151.3740387
7270,-0.9816177,-0.3615226,10.0867205,-2.4274809,5.2290077,5.6793895,8.6741486,8.5281029,-10.3333216,93.4656525,48.4274826,140.7938995
7280,-1.8195840,-0.6943150,10.4554253,-0.2900763,-0.8931298,11.5190840,11.8703909,8.6549950,-12.3061342,65.3511429,41.2137413,115.0229034
7290,-2.1116750,-0.6703730,10.7786407,6.7862597,-9.9465647,19.9618320,14.1951494,8.6956959,-13.3069048,30.8473282,13.0992365,74.1297684
7300,-2.1978660,-0.5985473,10.6876621,15.2824430,-19.6030540,28.4809170,15.2078915,8.7387915,-13.6085730,-4.9389315,-25.6946564,27.3053436
7310,-2.0302727,-0.4525018,10.3285332,21.2366409,-26.4045811,36.0076332,15.6125097,8.9853926,-12.9549589,-40.4351158,-57.3206100,-16.3129768
7320,-1.8363433,-0.2801202,9.7060442,22.5114498,-30.1908398,42.4885483,14.8822813,9.1410151,-11.3484583,-74.5038147,-74.3587799,-57.1755714
7330,-1.6567791,-0.0837966,9.3732519,20.8549614,-31.3816795,47.8320618,13.6684275,8.8465300,-9.4211359,-101.8549652,-93.2519073,-93.0000000
7340,-1.2832855,0.1364688,9.2726955,17.8625946,-31.5648861,51.9541969,12.3037395,8.4874020,-7.8433647,-121.3206100,-113.3053436,-123.6183243
7350,-0.8283895,0.3184272,9.3277617,14.9236641,-30.9847336,54.5648842,10.9701757,8.0827837,-6.3613615,-135.9541931,-123.9542007,-148.4809113
7360,-0.4716553,0.4141948,9.3756456,12.6335878,-30.8702297,55.5954208,9.1529865,7.5967631,-4.7237358,-147.0686951,-126.6793900,-169.4961853
7370,-0.0718257,0.3639168,9.6414013,11.0534353,-30.6870232,55.8473282,7.5153608,7.2424231,-3.5841017,-155.3740387,-125.4809189,-185.9084015
7380,0.2944853,0.4692611,9.7443514,10.6793890,-31.4503822,55.7404594,5.7053533,6.6606350,-2.3271523,-162.3206177,-119.6259537,-198.5572510
7390,0.6440369,0.4836263,10.0172882,11.1755724,-33.1297722,54.1603050,3.4117200,6.0309634,-0.7350162,-163.2748108,-105.0992355,-206.2290039
7400,1.0199248,0.5147507,10.0029240,12.5954199,-35.7709923,51.2824440,0.9792235,5.4635406,1.0749911,-156.7404633,-79.9923630,-207.4580078
7410,1.4843974,0.5841822,10.0508070,14.6335878,-37.2671738,47.4961815,-1.7549409,5.0493455,2.7461352,-143.8015289,-47.0152664,-202.5954132
7420,1.7190280,0.6224893,9.9095497,15.6412210,-37.6259537,42.9541969,-4.4891052,5.2336984,4.1802549,-128.2900696,-11.1450386,-191.6946564
7430,2.0302727,0.6967092,9.7946291,15.3358774,-34.6412201,37.7480927,-7.5823979,5.2121506,5.5640965,-110.9694672,27.2137413,-172.1297760
7440,2.1858950,0.8331779,9.5480280,12.8931293,-29.1068707,31.8625946,-10.4386663,5.3318601,6.8904772,-89.1297684,69.7862625,-144.5496216
7450,2.3056045,0.8116302,9.3971939,9.1297712,-22.6488552,25.4809170,-13.5056229,5.6478930,8.4467001,-64.0000000,118.7404556,-112.0534363
7460,2.2984219,0.7900825,9.2966375,4.4122138,-15.7938929,18.5343513,-17.2094345,6.2608056,9.8233595,-36.2137413,171.0610657,-71.4274826
7470,2.1763182,0.7398046,9.3804340,0.0610687,-9.7175570,11.7480917,-19.6131992,7.1035600,10.7331514,-10.6030531,195.5114441,-25.4198475
7480,2.1427996,0.7062859,9.4498653,-3.7633588,-3.9923663,5.5190840,-19.6131992,7.2256637,11.3676119,11.0229006,184.8091583,21.7099228
7490,1.8219782,0.5362985,9.7180147,-6.0763359,0.9541985,-0.7862595,-19.6131992,7.3788919,11.5998478,30.9083977,147.2290039,61.2824440
7500,1.4724265,0.4644727,9.9287033,-6.7328243,4.0152674,-5.6106873,-19.5748920,7.0891948,11.4011297,50.4885483,94.7938919,93.1984711
7510,1.1444225,0.3064562,10.0364418,-6.4503818,6.0610685,-8.5038166,-16.4169579,6.7707677,10.5990763,68.2671738,60.0534363,114.9083939
7520,0.8355721,0.1675933,10.1082678,-5.4427481,5.9465647,-9.1984730,-13.6444855,6.5169835,9.8832140,84.4122162,49.0992355,127.1068726
7530,0.5386927,-0.0023942,10.2327662,-4.2137403,2.5954199,-8.5267172,-11.5830889,6.5696559,8.9925756,102.8549652,42.5877876,136.0992432
7540,0.2585725,-0.1651991,10.9031391,-0.4961832,-7.2900763,-7.3969464,-9.5599985,6.5552907,7.6230993,122.0381699,33.3664131,142.0229034
7550,-0.0071826,-0.3256098,11.6980095,9.0076332,-21.2366409,-7.0610685,-7.9606800,6.9982157,5.5856438,136.5114441,24.5725193,147.9084015
7560,-0.2322364,-0.5315101,12.9980545,25.5114498,-43.4122124,-7.0992365,-6.0165982,7.3956513,3.1004753,144.5114441,22.5419846,158.0305328
7570,-0.3040621,-0.7158626,14.4968176,51.1221390,-72.7557220,-9.6030531,-3.7804251,7.6494355,0.2873027,146.7938995,25.4503822,168.2748108
7580,-1.3120158,-0.3519458,14.2861280,82.4274826,-101.9389343,-10.3282442,-1.8147956,7.8194227,-2.4564383,142.6183167,41.4427490,177.9389343
7590,-2.2385671,-0.0526722,12.1409349,103.0534363,-121.1832047,-4.5572519,0.4333483,8.2360115,-4.8721757,132.3435059,72.7251892,187.8320618
7600,-3.2153964,-0.0814024,9.5671806,103.5877838,-137.4732819,8.6183205,3.2369442,8.2982607,-7.1682034,120.3893127,101.8549652,194.9541931
7610,-3.2920105,0.0335187,8.0779953,99.3664093,-150.5190887,29.7022896,6.9335728,8.0612354,-9.1505919,105.8702316,116.5877838,191.6488495
7620,-2.2529323,0.5841822,7.7906923,83.7175598,-159.3587799,52.1832047,10.6278067,8.3581152,-10.9582052,86.0992355,117.2519073,174.1297760
7630,-0.4165890,1.0749911,8.0109577,66.8778610,-151.7557220,71.4198456,13.8862991,8.5568333,-12.1385403,58.4809151,104.9694672,140.4656525
7640,0.9552816,1.3048333,8.3245964,52.9847336,-131.6793823,83.1755753,16.2828827,8.7675219,-12.8520088,22.7633591,76.6259537,94.6793900
7650,2.2050486,1.5753766,8.7196379,44.3129768,-116.8473282,88.3816757,17.4895535,8.7818871,-12.2151546,-17.0000000,34.5419846,42.1145020
7660,3.7900019,2.0542145,8.9446917,42.0076332,-104.7099228,87.7404556,17.5925045,8.7914639,-10.7499104,-53.0763359,-13.7938929,-11.4961834
7670,5.2576399,2.6455793,8.6933022,42.6106873,-86.5648880,78.0457993,17.0993004,8.6741486,-9.0500364,-82.9465637,-55.1374054,-62.1603050
7680,5.9328012,3.1028695,8.1043310,41.8625946,-69.2519073,62.6106873,15.7585554,8.2216463,-7.5752153,-104.3816757,-81.4885483,-105.3740463
7690,6.2991123,3.2800395,7.1490498,36.9160309,-56.8931313,46.3206100,14.1137466,7.7739329,-5.8992829,-119.2748108,-90.0229034,-142.2213745
7700,6.3517847,3.0980811,6.2871413,27.3358784,-47.5572510,31.7786255,11.8249016,7.5057840,-4.3670015,-126.4809189,-83.7251892,-171.5725250
7710,6.1889796,2.9807658,5.9112539,15.7328243,-38.2900772,20.8320618,9.1697454,7.3788919,-3.1411765,-129.3358765,-79.8015289,-194.2671814
7720,5.9639258,2.8395088,5.8178802,3.7251909,-27.9007626,13.6946564,6.5433197,7.2041159,-2.2409613,-130.9389343,-83.3587799,-211.4351196
7730,5.7436604,2.7221935,5.7101417,-7.5496182,-19.2213745,9.6793890,4.2879934,6.5696559,-1.6759326,-133.0992432,-89.7862625,-222.9084015
7740,5.5138183,2.5306582,5.8729467,-17.0305347,-14.1145039,7.1984735,1.1659702,5.8274570,-1.2689204,-134.5343475,-84.4656525,-228.2900696
7750,5.5760674,2.3199697,6.0572991,-24.1068707,-5.2290077,4.6259542,-2.2816625,5.7604198,-0.3663110,-132.7328186,-56.3053436,-224.4045868
7760,5.8226686,2.1571648,6.5648675,-33.7633591,17.5343513,3.3816793,-6.5074067,6.0094156,1.2282192,-128.1068726,-12.7022905,-206.2595367
7770,6.0381460,1.9704180,7.5608501,-39.2442741,40.7557259,0.9923664,-11.6549139,6.2009506,2.2194135,-118.1068726,41.4885483,-173.4045868
7780,5.9567432,1.7932479,8.1043310,-42.0992355,64.1450348,-2.8320611,-17.5853214,7.0077925,3.7636659,-104.2213745,109.5496216,-123.3435135
7790,5.7460546,1.6376256,8.3533268,-44.0152664,83.3435135,-7.4656487,-19.6131992,8.1186962,5.7292953,-88.6106873,166.3206177,-55.3511467
7800,5.3941088,1.4891858,8.6023226,-45.7175560,96.5038147,-12.4274807,-19.6131992,7.7859039,7.1538382,-72.0457993,175.5648804,14.4503813
7810,4.8865409,1.2928623,8.8010406,-46.7099228,107.1832047,-17.4503822,-19.6131992,7.8074517,8.1881275,-53.6183205,140.3358765,66.7862625
7820,4.3215117,1.1109039,8.8561068,-47.9694672,113.6335907,-21.9694653,-19.6131992,7.7859039,9.3397331,-33.4503822,103.0457993,106.3893127
7830,3.7397239,0.9097920,8.9949694,-49.1221390,111.7022934,-26.2290077,-19.6131992,7.3310080,9.8065996,-14.0916033,83.5572510,139.0000000
7840,3.5314295,0.6607963,9.8449068,-50.2213745,103.0305328,-29.5190830,-17.2381649,7.2974896,10.0747490,7.8396945,81.2290039,167.9084015
7850,3.3398943,0.7254394,11.4083128,-49.3511467,96.6183243,-33.4732819,-15.1145182,7.6398587,9.4833841,34.1755714,87.9847336,193.3129730
7860,2.6743097,0.3471575,12.7251167,-41.1755714,86.9694672,-34.6870232,-13.1201582,7.9391322,8.1881275,58.6793900,99.8778610,221.2213745
7870,2.2385671,0.3088504,13.0459385,-26.4885502,75.0152664,-31.6488552,-11.0300312,8.4107876,6.0429344,77.3358765,121.6946564,250.1297760
7880,1.4341195,0.4333483,12.6269550,-9.8931293,58.6793900,-28.2442741,-8.0995426,8.5783806,3.7181761,89.5038147,146.9007568,250.1297760
7890,0.9840119,0.6057299,11.3891592,4.1297708,39.4198456,-24.0076332,-5.2217274,8.4083929,1.5250987,92.6870193,162.9160309,250.1297760
7900,0.6224893,0.8571198,9.8592720,10.6106873,23.5267181,-20.0381680,-1.7142396,7.9391322,-0.2370248,91.8244247,178.0686951,250.1297760
7910,0.4046180,0.9792235,8.8345594,7.8091602,15.2366409,-16.3587780,2.4013720,7.1442614,-1.8746504,82.1374054,180.8320618,250.1297760
7920,0.3016679,1.0606259,8.4658537,-1.2213740,11.0992365,-12.1221371,7.1801744,6.4140334,-3.1028695,67.1755753,168.8854980,250.1297760
7930,0.2250538,1.1252691,8.6310530,-8.7709923,11.7404585,-8.0839691,12.5647058,5.4539638,-4.2329268,49.2213745,146.0000000,250.1297760
7940,0.4309541,1.1013272,9.1673517,-13.0076332,15.9923668,-4.2595420,17.4584293,4.8697815,-5.2983413,28.3206100,129.0915985,250.1297760
7950,0.5339043,1.0342898,9.7371683,-14.6030531,19.3740463,-0.4961832,19.6126022,4.9368186,-5.9519548,4.7938933,112.5572510,246.5877838
7960,0.7374104,1.0007712,10.1010857,-13.9694653,18.1603050,3.0381680,19.6126022,5.1499014,-5.5257893,-19.7633591,92.9770966,176.4427490
7970,1.0271072,0.8427547,10.5631638,-11.0000000,12.3893127,6.0152674,19.6126022,5.3605900,-4.7333126,-42.2366409,61.5572510,104.4274826
7980,1.3718705,0.8714849,10.6493549,-5.7328243,5.1145039,8.3969469,19.6126022,5.6095858,-3.6224086,-61.7557259,11.1221371,34.3587799
7990,1.5777708,0.8858501,10.5368280,0.2290076,-0.6335878,10.0916033,19.6126022,5.8226686,-2.4157372,-79.9312973,-41.9465637,-31.6183205
8000,1.9297167,0.8259954,10.2998028,4.3129773,-4.0687022,10.7175570,18.9524040,5.7149301,-1.4915800,-94.8244247,-83.4274826,-87.3740463
8010,2.0973101,0.9480990,9.7826586,5.5725193,-4.6564884,10.1450386,16.8934002,5.4228392,-0.2513899,-102.8396912,-110.6793900,-132.7862549
8020,2.2529323,0.9504932,9.4690189,4.1068702,-3.0076337,7.5877862,14.3268299,5.3151007,1.0821736,-103.2519073,-120.2519073,-168.6106873
8030,2.2625091,1.0366840,9.2918491,1.0229008,-0.4656489,4.3206105,11.8991213,5.0565281,2.0685797,-99.5496216,-114.7251892,-196.2824402
8040,2.2218077,1.0199248,9.3636751,-2.2290077,1.5190840,0.1984733,9.4355011,4.7788019,2.6120608,-93.6412201,-104.6870193,-217.3511505
8050,2.0254843,1.0917504,9.5863342,-4.3969464,2.1221373,-2.7786260,6.7540083,4.6112089,3.0166788,-87.1755753,-96.6717529,-233.9236603
8060,1.8435259,1.0271072,9.9095497,-4.0000000,2.4045801,-4.7099237,4.0677280,4.2951760,3.3877780,-79.4961853,-88.0305328,-243.3206177
8070,1.6831152,0.9097920,10.0101061,-2.8473282,2.1679389,-4.2900763,0.9337339,4.2496862,3.8905578,-70.7251892,-76.4274826,-246.0229034
8080,1.7046629,0.8834559,9.8880024,-1.2900764,1.4961832,-2.9083970,-2.4875629,4.2855992,4.3981261,-59.9541969,-56.9312973,-241.0915985
8090,1.6807210,0.8044477,9.8018112,-0.1908397,1.6412214,-1.1679389,-6.9527264,4.3646073,4.8506279,-48.4885483,-26.9923668,-223.4656525
8100,1.8052188,0.8690908,9.7204094,0.0000000,2.1145039,0.2061069,-12.2869806,5.0684991,5.6047974,-36.0839691,20.3206100,-188.5572510
8110,1.8650736,0.9145803,9.6773138,-0.6793893,3.6335878,0.4732825,-18.0569763,6.5433197,6.3446021,-23.3587780,74.3435135,-132.3816833
8120,1.9680238,0.9265513,9.5336628,-1.5877863,5.2366414,0.1297710,-19.6131992,7.7691450,6.8258343,-11.8931293,105.1068726,-59.1908379
8130,1.9225341,1.0199248,9.5935173,-2.7862597,6.2213740,-0.6564885,-19.6131992,7.8146343,7.3357964,-1.0839695,104.0076370,14.0687027
8140,1.7381816,1.0079538,9.7850523,-4.4198475,6.7557254,-2.5648854,-17.6068687,7.2184811,8.3413563,30.4351139,74.9083939,105.8625946
8150,1.6160779,1.0438666,9.7874460,-4.4427481,6.5038166,-3.3282442,-15.1815557,7.2903070,8.1043310,48.9465637,65.9465637,129.6106873
8160,1.5610116,0.8978211,9.8784256,-3.8091602,6.4198475,-3.2900763,-13.0866394,7.4411407,7.3525558,66.2748108,51.5572510,148.8015289
8170,1.5155219,0.9361281,9.8760319,-3.1297710,6.0381680,-3.0610688,-10.9677820,7.6590118,6.2392578,79.6259537,39.4885483,167.8549652
8180,1.4963684,0.8738791,9.8951855,-1.5267175,4.0458016,-1.1832061,-1.4006008,7.4986014,1.7645177,84.0457993,-33.9847336,193.2061005
8190,1.2377959,0.6177009,10.0053177,-2.7099237,-1.8549619,-2.0687022,18.2748489,7.5656385,-5.2001796,-59.6564903,-133.4198456,-167.9160309
8200,1.0534433,0.6081241,9.9789820,-1.4427481,-5.4427481,-1.2137405,15.9046001,7.3621325,-4.1611013,-68.4045792,-135.0763397,-197.0381622
8210,0.9911944,0.6153067,10.0029240,0.0687023,-8.6946564,0.1221374,13.1369171,7.3836803,-3.1196289,-73.3740463,-124.3664093,-219.0152740
8220,1.0654143,0.6200951,10.0148945,1.7099236,-11.5267172,1.3282443,10.4434547,7.2519999,-2.6216373,-74.5801544,-103.8549652,-234.1221313
8230,1.2042773,0.7350162,9.9358864,3.0229008,-13.6946564,2.3893130,7.6015515,7.1251078,-2.0230901,-74.3893127,-82.9007645,-241.8015289
8240,1.2569494,0.7852941,9.9382801,4.6793895,-14.1068707,3.1526718,4.8625989,7.2232695,-1.2880739,-72.7251892,-61.4274826,-244.5648804
8250,1.4173602,0.7661406,9.8688488,5.3587785,-14.3893127,4.4503818,2.1044924,7.1921453,-0.7230452,-68.4809189,-39.1755714,-240.8320618
8260,1.6519908,0.9720409,9.8161764,5.6259542,-13.6717558,5.4274807,-0.3663110,7.2615767,-0.4572902,-63.6488533,-22.7404575,-232.8625946
8270,1.9345051,0.9864060,9.6821022,5.3129773,-11.3969469,5.9236641,-2.6934631,7.3118544,-0.3256098,-60.0152664,-11.3282442,-223.1603088
8280,2.1547706,1.0917504,9.6270361,4.5725193,-8.3206110,5.5572519,-5.3103123,7.6111283,-0.4429250,-58.2824440,0.9847328,-209.9236603
8290,2.3247581,1.2210367,9.5240860,3.2977099,-4.6946564,4.2519083,-8.0181408,7.8194227,-0.2106887,-58.7404594,6.6183205,-189.7175598
8300,2.5402350,1.2473727,9.4714136,1.5496184,-0.8778626,2.7786260,-10.4027529,8.2144642,0.3112446,-61.2900772,9.5190840,-164.1221313
8310,2.5330524,1.2090657,9.4307127,-0.6946565,2.7022901,0.2442748,-12.3133163,8.2216463,1.1587877,-63.6183205,5.7938933,-134.1984711
8320,2.3606708,1.2354017,9.4546537,-2.9236641,5.6183205,-1.9618320,-13.5846310,7.9271612,2.1284344,-63.0076332,2.5267177,-104.9694672
8330,2.1260402,1.2641320,9.5911226,-4.5496182,7.7786260,-3.7022901,-15.1767673,8.1977043,3.7684543,-57.2061081,14.8167934,-74.6641235
8340,1.8483143,1.2234308,9.6581602,-5.2595420,8.9694653,-4.5190840,-17.0442352,8.5520449,5.2791877,-46.5190849,34.9389305,-38.4427490
8350,1.2593436,1.1013272,9.8832140,-5.4045801,8.2900763,-3.2442749,-18.0450058,8.9710283,8.5328913,-13.1984730,47.4580154,39.2213745
8360,1.1468167,0.9504932,9.9861641,-5.0381680,5.6183205,-1.4656489,-17.1591549,8.5424681,8.9566631,6.3206105,30.4274807,71.6946564
8370,1.0558375,0.8188128,10.0460186,-2.7862597,-0.7022901,2.0152671,-12.3612003,7.6470413,8.5496502,45.0000000,-2.5725191,115.8854980
8380,1.1947005,0.7565638,9.9717989,-1.3587786,-4.5572519,3.1832061,-10.4626083,7.1275020,7.5536675,63.6641235,-16.9694653,127.4198456
8390,1.2737088,0.7182568,10.0101061,0.2290076,-7.8396945,3.6564887,-8.7962523,6.8904772,6.4523406,78.6946564,-30.8015270,136.2442780
8400,1.4532729,0.6703730,9.7922344,2.7633588,-10.9236641,4.5725193,-5.0325861,6.5959921,3.9264708,95.2900772,-53.7328262,144.8549652
8410,1.6591733,0.7613522,9.7970228,3.2290077,-10.9618320,4.9007635,-3.3614421,6.9263902,2.8873925,98.4961853,-59.2366409,146.8091583
8420,1.8052188,0.7134684,9.6629486,3.3740458,-9.5954199,4.9923663,-1.5801650,7.1155310,1.6088953,101.7862625,-61.7786255,148.8854980
8430,2.0781565,0.8331779,9.6102762,2.8015268,-7.4503818,4.5725193,-0.1340746,7.4459291,0.3495516,107.3053436,-60.3358765,151.9465637
8440,2.3223639,0.8738791,9.5360565,2.0458016,-5.0610685,3.7328243,1.4676381,7.7475972,-1.1132981,113.3816757,-50.7099228,158.7099304
8450,2.4612267,0.8595140,9.6246414,0.8473282,-2.0534351,2.1221373,3.3398943,7.9223728,-2.5881188,117.6793900,-35.2748108,166.0610657
8460,2.5474176,1.0007712,9.5887289,-0.2977099,0.7251908,-0.1450382,5.8250628,8.1163025,-4.6806402,117.7328262,-18.3740463,172.0915985
8470,2.4851687,0.9840119,9.6414013,-1.5038168,2.5343511,-2.9312978,7.8433647,8.2144642,-6.4307928,110.6106873,-3.7328243,171.9389343
8480,1.9416877,0.9648584,9.7515335,-3.0687022,3.0458016,-6.9160304,13.7570124,8.3006544,-10.0555954,72.4580154,-16.7175579,151.1755676
8490,1.7501525,0.9313397,9.8449068,-2.7175572,3.1908398,-7.4961834,16.6276455,7.7715387,-10.7810354,44.2366409,-45.8091621,121.4732819
8500,1.3982066,0.9026094,9.8784256,-2.3206108,2.2671757,-6.6641221,18.8901539,7.8720951,-11.1210098,13.5114508,-67.6488571,77.3893127
8510,1.2569494,0.9337339,9.9167328,-1.7251909,1.0305344,-5.3740458,19.1104202,7.8816719,-11.2957859,-19.3587780,-86.5190811,32.3893127
8520,1.1348459,0.9026094,9.9239149,-1.0229008,-0.3664122,-3.7099237,18.3179436,8.0803890,-10.7570934,-53.6335869,-108.2519073,-11.4885492
8530,1.1683644,0.9217629,9.9334917,-0.1755725,-2.3358779,-1.9389313,16.8311520,8.1402445,-9.7515335,-85.8091583,-131.6870270,-48.9694672
8540,1.2210367,0.9983770,9.8999729,0.9694657,-3.0839694,0.3893130,15.2390156,8.1378498,-8.5376797,-112.4732819,-144.5267181,-78.1908417
8550,1.3239868,1.0031654,9.8305416,1.3511450,-3.5954199,1.6641221,13.5463238,7.7571740,-6.1458845,-129.7022858,-148.1374054,-101.3206100
8560,1.5298871,0.9864060,9.7515335,1.4732825,-4.0229006,3.1603053,12.1409349,7.6135225,-4.3478479,-137.5877838,-135.9084015,-119.5877838
8570,1.6711442,1.0055596,9.6509781,1.2442749,-3.9465649,3.9541984,9.9957409,7.5225434,-2.5569944,-135.5801544,-108.7938919,-134.2366486
8580,1.8195840,1.0199248,9.6749191,1.0076336,-3.2366412,3.8167939,7.5943689,7.1155310,-1.0558375,-124.4961853,-70.9312973,-141.0229034
8590,2.0254843,1.0318956,9.7443514,0.5114504,-2.1526718,3.3587787,4.6112089,7.0891948,0.2561783,-106.2977066,-18.2748089,-141.6870270
8600,1.7190280,0.5769997,9.6629486,-0.8244275,4.6335878,5.8396945,-2.4229198,6.9718795,2.7628946,-52.1984749,129.9007568,-115.5114517
8610,1.9105632,0.6248835,9.9095497,-1.8091604,9.3816795,8.0839691,-7.4914188,8.0756006,4.1874375,-15.1526718,232.8702240,-85.2671738
8620,1.7645177,0.6105183,10.0340481,-1.8854961,15.0000000,8.6488552,-12.4641504,9.5767574,4.3334827,23.0229015,250.1297760,-41.3053436
8630,1.8052188,0.6009415,10.0843258,-0.3358779,14.8167934,7.4656487,-16.7760849,10.8768024,3.9097114,50.7938919,250.1297760,13.4045801
8640,1.7118455,0.7876883,9.8736372,1.7938931,10.6106873,5.5190840,-18.2772427,11.8584204,3.7995787,63.9236641,250.1297760,67.6793900
8650,1.7573351,0.8523315,9.7228031,2.8015268,7.0076337,3.6717558,-17.4656124,12.1624823,3.8211265,63.8473282,250.1297760,111.2748108
8660,1.6663558,0.9935886,9.6940727,2.6259542,4.0534353,2.3358779,-14.9349537,11.9924946,3.6152260,56.3511467,206.6870270,136.9236603
8670,1.6017127,1.1109039,9.6916790,2.0152671,0.9312977,1.1908396,-11.6477318,11.3173332,3.6271970,46.9312973,129.6870270,144.6641235
8680,1.5562232,1.3694763,9.7946291,0.6870229,-6.0076337,-1.5725191,-4.3717899,8.9734221,1.7381816,37.9923668,-30.0076332,129.8702240
8690,1.5634058,1.3455344,9.8736372,0.7328244,-6.9541984,-1.5267175,-2.9783716,8.7052727,0.4620786,33.0000000,-63.5419846,125.9160309
8700,1.5322813,1.2377959,9.8401184,0.8244275,-7.1145039,-1.0000000,-1.2234308,8.2862902,-0.4740495,24.8167934,-85.3053436,125.0992355
8710,1.6256547,1.1707586,9.6868906,0.7251908,-7.0763359,0.0229008,0.8451489,7.8553357,-1.0773853,16.5954189,-101.4732819,125.1984711
8720,1.6639616,1.0893562,9.6701307,-0.0076336,-6.4122138,1.0076336,2.6336083,7.4866304,-1.3958124,12.2671757,-114.3816757,125.2748108
8730,1.8315549,1.0055596,9.6030941,-0.7022901,-5.1374044,1.8396946,5.3246775,6.8401995,-1.4963684,15.7175570,-130.5496216,119.8167953
8740,1.9536586,0.9911944,9.6437950,-1.3206106,-4.2366414,1.8854961,8.7004843,6.2440462,-2.3846128,26.6183205,-151.1297760,105.0839691
8750,2.0877333,0.9600700,9.6725254,-1.6641221,-2.5343511,1.2595420,13.0626974,5.7604198,-4.4148855,38.3129768,-149.6335907,87.0916061
8760,2.1212518,0.8283895,9.6509781,-2.2977099,-1.2061069,0.6259542,17.4608231,5.1499014,-6.7947097,42.1984749,-123.2671738,64.9312973
8770,2.1835008,0.8786675,9.7347746,-2.1908398,0.7480916,-0.5267175,19.6126022,5.3079181,-9.3469152,34.4198456,-79.9923630,32.2824440
8780,2.1571648,0.7709290,9.6892843,-2.7557251,3.1679389,-2.3053436,19.6126022,6.1746144,-11.0324249,8.3053436,-43.8015251,-9.8473282
