timestamp,rxacclX,rxacclY,rxacclZ,rxgyroX,rxgyroY,rxgyroZ,txacclX,txacclY,txacclZ,txgyroX,txgyroY,txgyroZ
0,3.4332676,11.2886028,0.9169745,-20.5114498,-21.6946564,4.8778625,-0.1604107,4.3598189,2.9017577,103.2442780,50.5496178,36.1450386
10,3.5553713,11.3197279,1.1659702,-14.7480917,-24.7709923,1.2137405,-0.3782819,4.7141590,2.2912393,93.1297684,50.2137413,31.7557259
20,3.5003049,11.2383251,1.3575054,-8.0305347,-28.6717548,-3.8854961,-0.4548960,5.2336984,2.0422437,78.2290039,45.7404594,27.6564884
30,3.0861101,11.1138277,1.1923064,-1.3587786,-30.4198475,-6.8549619,-0.3710994,5.9016771,1.9009864,61.6183205,34.3435097,22.2824421
40,2.7102225,10.9103212,1.2042773,4.0458016,-31.8396950,-7.3282442,-0.5123565,6.2129216,1.9105632,44.4122124,21.2748089,14.9007635
50,2.3271523,10.7163916,1.1061156,9.0229006,-34.3740463,-6.9312978,-0.7565638,6.6750002,2.0613971,28.0992374,9.0916033,6.6412215
60,2.3056045,10.5057030,1.1492109,13.9236641,-36.2824440,-6.0076337,-1.2042773,7.0963774,2.5689652,15.0305347,0.0916031,-2.2137403
70,2.3941894,10.4793673,1.2306134,20.1908398,-36.8320618,-6.6564884,-1.6232605,7.7260494,3.6583214,7.2900763,-4.6183205,-6.3664122
80,2.3223639,10.3692341,1.1755470,27.1450386,-36.7557259,-9.0687027,-2.0613971,8.5137377,4.7261300,5.8702292,-5.0000000,-7.4732823
90,1.9129574,10.3237448,0.6943150,32.4427490,-34.3129768,-10.1068707,-2.5115047,9.0644016,5.3965030,10.4274807,-3.2977099,-8.7633591
100,1.5346755,10.2088242,0.0622489,33.4122124,-31.0229015,-9.1832066,-3.0789278,9.2008705,5.5640965,16.9160309,-3.1145039,-8.1603050
110,1.4293311,10.2231894,-0.2537841,30.8549614,-29.0839691,-7.0687022,-3.3279233,9.6198530,5.5210009,22.8473282,-1.7328244,-6.2442746
120,1.5059452,10.1441803,-0.1436514,28.8854961,-28.1374054,-5.1221375,-3.4260850,9.9813757,5.4467812,27.9007626,2.2900763,-2.1908398
130,1.6208663,10.1130562,-0.1628049,27.7557259,-25.6793900,-3.3282442,-3.4165084,10.3883877,5.5377603,33.1450386,9.4045801,2.0381680
140,1.7166338,9.8544836,-1.8554969,-13.6717558,8.1145039,-19.1221371,-2.5617826,9.4594421,4.0677280,42.9083977,20.9160309,7.3129773
150,1.5011568,9.6653433,-1.4508789,-19.3969460,2.3587787,-18.1984730,-2.5881188,9.1386213,4.1563129,40.4732819,18.6641216,4.7175574
160,1.4532729,9.5647869,-0.9433106,-21.1908398,-5.1297708,-16.2900772,-2.5450234,8.9159613,4.1946201,38.6183205,17.0534344,3.3129771
170,1.6280488,9.5432396,-0.3160330,-19.0381680,-12.7480917,-14.9389315,-2.8179610,8.7579451,4.5154414,38.3358765,14.4961834,2.2137403
180,1.7381816,9.4666252,-0.1364688,-14.9694653,-18.2519093,-14.8473282,-3.0765336,8.5855637,4.6566987,39.0000000,11.1679392,2.3816793
190,1.6998745,9.4594421,0.1029501,-12.4580154,-21.1450386,-14.7786255,-3.3351059,8.4658537,4.8075323,40.8473282,7.6259542,4.4274807
200,1.5849534,9.4905672,0.3710994,-10.7557249,-21.9847336,-14.5725193,-3.3470769,8.0995426,4.5537481,43.9236641,3.7786260,7.7709923
210,1.6184721,9.5073261,0.5315101,-9.3740454,-20.2137413,-14.2595415,-3.0885043,7.9702568,4.0844874,45.7251892,-0.6793893,8.3282442
220,1.4173602,9.4618368,0.5410868,-8.6259546,-15.0687027,-14.0992365,-2.8203552,7.9175844,3.5194585,44.9083977,-1.5877863,8.4122133
230,-0.8523315,8.8752604,-0.1580165,-31.2213745,9.9694653,10.6412210,-2.1930776,7.6063399,2.8466914,22.6717548,-5.5954199,14.3282442
240,-0.6631905,8.7770987,0.2202654,-33.7862587,8.3129768,20.4045811,-1.8483143,7.5584559,2.8610563,19.4045811,-13.1603050,12.0458012
250,-0.1508339,8.8034344,0.8140244,-31.2061062,4.6335878,29.8244267,-1.7070571,7.6733770,2.6862805,15.8702288,-14.6030531,9.0152674
260,0.6224893,8.7603388,1.1970947,-23.3206100,-0.5419847,36.5343513,-1.4628497,7.6446471,2.6647329,12.2366409,-10.9694653,7.9465647
270,1.5610116,8.7579451,1.2521610,-13.4274807,-6.3511453,40.2137413,-1.6041069,7.4890246,2.8682389,9.3969469,-5.7404580,6.8549619
280,2.4803803,8.6765423,1.2521610,-4.4045801,-10.6412210,40.6106873,-1.7621235,7.6063399,2.9616125,6.4122138,-4.6106873,4.6106873
290,2.9951310,8.6214762,0.8236012,3.5114503,-12.9465647,39.1908379,-1.9129574,7.7691450,2.7581062,2.9541984,-3.9694657,3.0916030
300,3.6080434,8.4826136,0.2154770,8.1145039,-10.9694653,37.3206100,-1.9823889,7.8960366,2.4636209,-1.4809160,-0.1908397,1.5877863
310,4.0126615,8.3629036,-0.3878587,8.4198475,-6.0152674,36.6335869,-2.2529323,8.1474266,2.6910689,-6.2061067,2.4045801,1.3740458
320,4.3167233,8.2120695,-0.8331779,6.1526718,-0.1679389,36.4809151,-2.6527619,8.0732069,3.0023136,-9.2977095,2.7022901,2.8320611
330,4.4651632,8.1857338,-1.1324517,2.7557251,3.7404580,36.4580154,-2.7581062,8.2024927,3.3327117,-10.8931293,2.3511450,4.0839696
340,4.5513539,8.1498213,-1.3168042,-2.1755726,3.1374047,36.2824440,-2.5761478,8.2695303,3.6678982,-10.5572519,2.0839694,4.2748094
350,4.7716198,8.2862902,-1.1156923,-6.6488547,-0.4885496,34.4503822,-2.2265961,8.6286592,4.0102673,-9.2900763,3.7328243,3.3129771
360,4.9990678,8.3940287,-0.8930327,-8.9694653,-3.8015268,29.8167934,-2.0709739,8.9542685,4.2353210,-7.0534353,6.0610685,0.7251908
370,4.1251884,8.5951405,-1.2473727,-12.7099237,3.8244274,2.3664122,-2.0446377,10.1920643,4.0198441,-0.9389313,3.4503818,-12.0152674
380,3.0047078,8.7914639,-1.5921360,-20.4961834,10.7938929,-2.4351146,-2.4420733,10.5679522,3.8857694,-2.3206108,-2.7633588,-15.3816795
390,2.0398495,8.8225880,-1.5610116,-29.2213745,17.2213745,-3.3893130,-2.8706331,11.0827026,3.7828193,-4.4351144,-12.2900763,-18.3206100
400,1.3287752,9.0380650,-1.3503228,-36.2366409,23.3816795,-0.9236641,-3.2321558,11.2933912,3.9647777,-5.8549619,-20.9694653,-17.5648861
410,0.7972651,9.2391768,-1.2234308,-41.3358765,25.9312973,3.8702290,-3.4715748,11.2191715,4.0796990,-5.1984735,-25.4809170,-15.2900763
420,0.8595140,9.4163475,-0.7805058,-43.3358765,23.9312973,9.2671757,-3.5864959,11.2646618,4.1227942,-1.8854961,-26.2290077,-12.5038166
430,0.9385223,9.7012558,-0.5099624,-43.0839691,21.2213745,13.9236641,-3.6607156,11.0850973,4.2089849,2.9541984,-24.0687027,-8.6793890
440,1.3287752,10.1896706,-0.1987177,-42.7709923,20.1755733,16.4656487,-3.7014170,10.8289185,4.1898317,9.2824430,-20.4122143,-3.3893130
450,1.8004304,10.8073711,0.2537841,-42.2213745,21.9923668,15.9160309,-3.4236910,10.8097658,4.0892754,16.5954189,-13.6717558,1.5419847
460,2.3151813,11.3508520,0.5769997,-41.8473282,28.5877857,12.2748089,-3.0573800,10.6756907,3.7995787,23.8091602,-4.1908398,5.0229006
470,2.4684093,12.7849712,0.4979914,-47.8702278,46.2900772,1.1526718,-2.6719155,9.9670105,2.8347204,32.2061081,10.6335878,11.8625956
480,2.4779861,13.4170380,0.8379663,-53.7175560,52.0228996,-4.6259542,-2.5809362,9.7587166,2.3894010,31.7633591,12.7633591,13.2442751
490,2.3486998,13.7067347,1.3886299,-58.1221390,54.1603050,-8.8702288,-2.3008161,9.4259243,1.9464760,28.0916023,12.8702288,14.7557249
500,1.9752063,14.2310619,2.4157372,-57.6488533,45.4122124,-10.4427481,-1.9297167,9.0308828,1.6472024,22.4198475,10.1145039,14.7633591
510,2.2194135,14.5063934,3.3686244,-49.3053436,31.6335869,-11.4198475,-1.4389079,8.6956959,1.7812769,15.4351149,8.2900763,12.4580154
520,3.1794837,14.4585104,4.3765783,-25.5190830,-0.5648855,-20.1374054,-1.5227045,8.3461447,2.7461352,6.1374044,11.5572519,6.5725193
530,3.7325413,14.3531656,4.7548604,-11.0687027,-9.1526718,-27.3053436,-1.7238164,8.0253229,3.1220231,5.4045801,13.0000000,3.8549619
540,4.2808108,13.5870247,4.7141590,15.0992365,-10.5419846,-44.1221390,-2.0278785,7.6039457,3.4356618,6.0152674,10.6564884,1.1908396
550,4.4986820,12.6173782,3.7684543,26.2061062,7.2061067,-60.3511467,-1.8866212,7.3741035,3.2560976,5.5343513,9.2671757,-1.3435115
560,3.4045374,10.3500814,2.3702476,18.2442741,29.5496178,-75.9465637,-1.8076130,7.2256637,3.3327117,-0.5954198,8.6030531,-7.0000000
570,3.1052637,9.5791521,1.8866212,15.2977095,33.2595406,-77.0610657,-1.8435259,7.1346846,3.3566537,-1.9389313,8.1221371,-10.0381680
580,2.7820482,8.5257082,1.8339491,12.2748089,32.7251892,-83.4961853,-2.1906834,7.2256637,3.2441268,-4.0381680,7.0229006,-11.1450386
590,0.7876883,6.9814563,1.4915800,7.3587785,16.8625946,-85.7938919,-2.2984219,7.2065101,3.0501974,-11.7786255,-0.2519084,-12.2290077
600,0.7278336,6.0094156,1.2377959,7.8167939,15.6488552,-81.6793900,-2.0781565,7.1490498,3.0430148,-15.1755724,-3.4045801,-14.3129768
610,0.0359128,5.3988972,1.3263810,8.6335878,8.0687027,-77.5267181,-2.0398495,7.2783360,3.1579359,-16.6335869,-1.8167939,-17.3053436
620,-0.5530578,4.9296360,1.3383518,9.7404585,3.5038168,-73.0763321,-2.3271523,7.4842362,3.0525916,-16.9618320,2.2366412,-20.0000000
630,-0.9528874,4.2544746,1.1061156,10.5496187,3.8549619,-65.4656525,-2.6503677,7.8385763,2.9616125,-17.0534344,4.6717558,-21.1755733
640,-1.4365137,3.8043671,0.9983770,10.8625956,5.5572519,-55.2442741,-2.7652888,8.0133524,2.7868366,-17.7022896,4.4122138,-21.2900772
650,-1.8411317,3.5769191,0.6320660,9.1984730,3.5038168,-41.4351158,-2.5905130,8.3102312,2.7054341,-18.8625946,3.9160306,-23.7938938
660,-2.0925217,3.2656744,0.2920911,4.8931298,2.2595420,-24.3664131,-2.6264257,8.6142941,2.7006457,-19.4885502,5.4732823,-25.2137413
670,-1.7022687,3.0142846,-0.1221037,-3.0992367,6.9465647,-5.2366414,-2.8610563,8.9375095,2.7126167,-19.2290077,10.9083967,-25.9389305
680,-1.2832855,2.8251436,-0.2082945,-12.9083967,7.3893127,9.3587790,-3.1842721,9.2391768,2.8778157,-17.5877857,18.7404575,-24.2290077
690,-0.7278336,2.8442972,0.0550664,-21.1679382,5.3740458,18.4503822,-3.5457945,9.3924055,3.1651185,-14.6335878,25.2442741,-22.4656487
700,-0.2154770,3.0430148,0.4333483,-26.2900772,6.7099237,25.2366409,-3.9025288,9.3349447,3.2249732,-11.8702288,28.9389305,-21.7786255
710,0.3878587,3.5625539,0.7182568,-30.2595425,15.7938929,31.8396950,-3.9360476,9.2655134,3.8450682,-9.6106873,30.1450386,-24.8244267
720,1.0534433,4.1587071,1.0079538,-32.8702278,31.2366409,38.7328262,-4.0413918,9.5312681,4.4962878,-6.4503818,33.4122124,-30.0000000
730,1.5849534,5.1906028,1.1923064,-32.9236641,48.0763359,44.6335869,-4.0916696,9.5432396,5.0661049,-0.4122137,38.6335869,-35.4122124
740,1.7214222,6.6797886,0.9840119,-31.6793900,58.1297722,48.2213745,-4.5322008,9.6461897,5.4826937,6.9770994,42.9541969,-40.6641235
750,1.6998745,8.0827837,0.5722113,-33.1526718,61.7022896,50.1221390,-5.0852585,9.9095497,5.5640965,13.9923668,44.7557259,-45.5496178
760,1.3622938,9.7563219,0.3375807,-39.3816795,63.2290077,53.7251892,-5.4731169,10.1322098,5.6766233,21.4045811,41.2213745,-48.5114517
770,1.7022687,11.3173332,0.6440369,-47.3053436,60.6412201,58.4961815,-6.0046272,10.3548698,5.4132624,28.4274807,36.2824440,-48.1908379
780,2.7964132,12.5599174,1.3455344,-49.7709923,53.6717567,57.4809151,-6.6055689,10.6852674,4.5896611,35.4885483,36.7480927,-41.4580154
790,3.8450682,13.5295649,2.0661855,-43.3129768,44.5801544,47.1145020,-6.4020624,10.9965124,3.7708483,39.5343513,46.5419846,-30.0839691
800,4.1108232,14.1951494,2.3774302,-32.1297722,29.2977104,30.8091602,-5.6646523,11.3843708,3.4548154,41.9083977,61.3435097,-17.0000000
810,4.0078731,14.5734310,2.9831600,-16.9541988,8.7404585,15.3129768,-4.4100971,11.4178896,3.4811516,46.1374054,79.7328262,-7.7099237
820,4.0677280,14.5566721,3.4835455,1.9847329,-14.8167934,-0.5496183,-3.5003049,11.4059181,4.1826491,57.1145020,99.8931274,-3.7175572
830,3.8091555,14.2478218,4.0461802,22.9312973,-34.8625946,-16.2748089,-2.8610563,11.7219515,4.9152708,76.6717529,120.7862625,-3.5267177
840,3.4165084,13.7402534,4.2664456,44.5496178,-46.7938919,-28.7633591,-2.5019281,11.8344784,4.5920553,101.8625946,139.1526642,-3.1374047
850,2.8802099,12.7634239,3.8714044,61.3358765,-47.9083977,-37.4885483,-1.8602852,11.7937775,3.7229645,126.3587799,153.2977142,-2.9007633
860,2.3798244,11.6956158,3.4811516,70.4198456,-38.9847336,-42.7251892,-0.9289455,11.7171631,2.3223639,146.8625946,166.5496216,-3.9160306
870,1.8626794,10.7379398,3.1914546,73.0076370,-27.0000000,-44.6641235,0.1149211,11.6261835,1.0678085,163.1679382,177.9847260,-9.1526718
880,1.2258250,9.6916790,2.9352763,72.5725174,-13.4351149,-43.7404594,1.4365137,11.4202833,0.0383070,176.3740387,183.9618378,-19.5114498
890,0.7062859,8.8201942,2.7221935,70.0152664,-2.5267177,-41.3282433,2.7030399,11.0683374,-1.0462608,186.4503784,188.9007568,-36.4961815
900,0.1651991,7.8313937,2.3127871,65.4885483,2.5038168,-37.8549614,3.0310438,11.0036945,-2.6312141,191.3664093,192.6106873,-57.2366409
910,-0.3734936,7.0604649,2.4660151,63.0000000,0.6793893,-33.7175560,2.0398495,11.2574787,-4.1108232,188.9770966,187.9160309,-74.0992355
920,-0.6200951,6.4212160,2.1236460,62.1297722,-2.1450381,-28.7709923,0.8451489,11.2909975,-4.7309184,180.8473358,174.9541931,-82.5419846
930,-1.0390782,5.6239510,1.4700323,59.7022896,-6.1221375,-22.4656487,0.4094064,10.8983507,-5.1570840,170.4580078,157.5267181,-83.8091583
940,-1.7166338,5.5018473,0.7852941,55.3282433,-8.0763359,-13.1755724,0.8499373,10.7451220,-5.3318601,159.0915985,137.8854980,-88.3358765
950,-2.4109488,5.7867560,0.1628049,49.0763359,-8.9465647,-0.3129771,1.0606259,10.8456783,-5.8083038,144.8854980,118.6183243,-92.6335907
960,-2.6383967,6.0740585,-0.8475431,38.2748108,-8.8244276,14.2900763,1.1516051,10.7642756,-5.7077475,127.8854980,99.7786255,-95.3740463
970,-2.5929072,6.4212160,-1.3455344,23.0000000,-8.6793890,27.5877857,1.1875180,10.4314833,-5.1666608,113.4656525,86.7480927,-97.2290039
980,-2.3558824,6.6941538,-1.5370697,5.3664122,-8.6030531,39.8167953,1.6232605,9.9119444,-4.1563129,106.7099228,81.4885483,-97.9847336
990,-1.7740943,6.9599090,-1.1204807,-10.4427481,-9.5877867,48.0000000,2.5115047,9.3732519,-3.5457945,105.8244247,84.2748108,-101.0305328
1000,-0.4501076,7.4076223,-0.1651991,-19.5801525,-8.7022905,50.0152664,3.2776453,8.8728657,-3.1435707,107.7251892,90.4198456,-107.6335907
1010,0.2873027,8.0109577,0.3495516,-22.7022896,-3.4809160,45.8473282,3.7612717,8.3748751,-2.4253139,112.3206100,95.1755753,-116.1832047
1020,0.3734936,8.4107876,-0.0430954,-27.0458012,3.2061069,41.7404594,4.0030847,7.7499914,-1.8267666,121.2900772,100.4427490,-126.7557220
1030,0.7374104,9.1481981,-0.0430954,-33.2748108,8.8778629,38.2366409,4.2233500,7.0772243,-1.3742647,138.2366486,105.7022934,-140.3129730
1040,0.8379663,9.7994175,-0.1053443,-38.4198456,13.7099237,33.9847336,3.4883339,6.7731619,-1.5370697,158.9923706,107.5801544,-155.8244324
1050,0.9768293,10.4290895,-0.5386927,-44.4809151,14.1450386,30.4961834,1.9273225,7.1107426,-3.2632802,175.2519073,105.2213745,-165.7099304
1060,0.9409165,10.7858238,-0.6224893,-52.3206100,11.1908398,26.9847336,0.7996593,6.9623032,-5.6957769,181.7328186,98.5725174,-168.7709961
1070,0.9911944,10.9366570,-0.4429250,-58.8854980,6.2748094,25.0763359,0.6751614,7.1705976,-7.4483232,175.2595367,84.2519073,-171.2213745
1080,1.0366840,11.0372133,0.1771700,-61.6488533,3.2290077,24.5267181,0.7805058,7.2328463,-8.8680773,158.5114441,70.1908417,-177.4961853
1090,1.0582317,11.1784706,0.7661406,-60.4580154,3.0229008,24.7480907,0.6607963,7.1682034,-9.8760319,136.2977142,61.3816795,-184.3435059
1100,1.1683644,11.5016861,1.1061156,-58.7099228,4.0076337,24.6030540,0.6272776,7.1538382,-10.4985209,112.5877838,64.0152664,-189.0229034
1110,1.2354017,11.5328102,1.6017127,-55.6488533,5.1221375,23.9694653,0.3758878,6.8689294,-10.4051476,89.3816757,78.0076370,-192.2137451
1120,1.3383518,11.6764622,1.8985922,-51.4809151,5.8244276,23.7099228,0.2585725,6.1626434,-9.6677370,71.5954208,94.3740463,-194.9007568
1130,1.3024391,11.7482872,2.2194135,-45.7557259,5.1145039,23.4351139,-0.0335187,4.5154414,-8.7747040,60.0687027,110.8091583,-198.9236603
1140,1.2784972,11.8632088,2.5258698,-38.4656487,3.1526718,22.9389305,-0.3399749,2.3558824,-7.8026633,54.6335869,121.4885483,-204.9389343
1150,1.2713146,11.9039097,2.6336083,-32.1603050,2.2442749,22.4885502,-0.7661406,0.0454896,-7.0077925,54.1984749,121.7404556,-212.5648804
1160,1.1707586,11.7842007,2.6503677,-27.2519093,2.7480917,21.9236641,-0.9935886,-2.5953014,-6.7037306,55.0992355,113.0992355,-222.1068726
1170,0.9840119,11.7961712,2.8730273,-23.2137413,4.5496182,22.0992374,-1.6400198,-5.6526814,-6.8449879,54.5954208,102.1068726,-233.0915985
1180,0.8403605,11.6620970,2.8251436,-19.3282452,6.2061067,22.9465656,-2.0901275,-9.0213060,-7.4243813,52.8854980,96.7862625,-245.0534363
1190,0.7421987,11.4849272,2.5402350,-17.5419846,7.2290077,24.8396950,-2.7605004,-12.5431585,-7.8888540,49.8473282,97.8167953,-250.1374054
1200,0.9145803,11.2119894,2.5450234,-17.5343513,6.9236641,25.9160309,-4.0940638,-15.8806591,-8.1378498,46.4045792,102.1908417,-250.1374054
1210,1.1444225,10.8768024,3.0262554,-14.7175570,5.5648856,24.3587780,-5.6646523,-19.1990051,-8.3988171,42.1526718,105.4885483,-250.1374054
1220,1.3024391,10.7116032,3.1627243,-9.1603050,4.9770994,22.4961834,-7.6685886,-19.6131992,-8.4371233,35.8625946,102.9312973,-250.1374054
1230,1.3742647,10.5057030,3.0430148,-4.4122138,6.4656487,19.9465656,-10.4506369,-19.6131992,-7.9439206,28.7633591,93.1374054,-250.1374054
1240,1.2761030,10.3955708,2.6838863,-2.7022901,8.6488552,17.0152664,-13.6612453,-19.6131992,-7.4602942,21.5954189,75.6183243,-250.1374054
1250,1.4197544,10.1705170,2.3750360,-3.4274809,10.5419846,13.8854961,-17.3985748,-19.0194416,-6.7779503,9.7938929,45.0687027,-250.1374054
1260,1.3215926,9.9167328,2.0949159,-6.5801525,12.3816795,10.5877867,-19.6131992,-13.5535069,-4.8434453,-4.9312978,3.3129771,-250.1374054
1270,1.3144100,9.8425131,1.9847831,-11.7328243,13.2977095,8.4732828,-19.6131992,-8.0756006,-3.2991931,-32.5114517,-36.2137413,-250.1374054
1280,1.3934183,9.3517036,2.3079987,-15.1603050,11.1603050,7.0992365,-19.6131992,-3.0382264,-0.6200951,-61.9771004,-88.9236679,-240.1297760
1290,1.8794388,9.0308828,3.2249732,-13.9160309,8.0381680,5.4732823,-19.6131992,0.7661406,3.7516949,-71.3969498,-135.0610657,-166.2061005
1300,2.4013720,8.7459745,3.9743545,-6.0610685,4.8473282,3.1908398,-19.6131992,2.5354466,7.4148049,-45.4580154,-169.2442780,-73.5877838
1310,2.7389526,8.4012108,4.1850433,5.0076337,1.5572519,0.9770992,-19.6131992,1.8554969,7.1466556,8.3893127,-196.0763397,34.7328262
1320,2.9017577,8.1498213,3.7397239,14.3664122,-1.2748091,0.8244275,-19.6131992,-0.1508339,2.9448531,59.6335869,-222.2442780,136.0915985
1330,3.1746953,8.0923605,3.5026991,21.4351139,-4.9923663,2.3893130,-19.6131992,-2.9161227,-2.7820482,82.6870193,-245.4656525,215.1603088
1340,3.6487448,7.8816719,3.4117200,27.9465656,-8.8320608,3.3893130,-19.1104202,-6.7803445,-8.3724804,76.9847336,-250.1374054,250.1297760
1350,4.0389977,7.8026633,2.6814921,32.1679382,-10.8549614,4.0076337,-13.7139168,-10.2231894,-12.7921543,47.1221390,-250.1374054,250.1297760
1360,4.4914994,7.8625183,2.3199697,32.7862587,-12.7480917,1.4198474,-9.4929609,-11.8703909,-14.4202032,6.4351144,-250.1374054,250.1297760
1370,5.0517397,7.7930865,2.0853391,32.2595406,-13.8778629,-3.5954199,-7.6757712,-11.8679972,-13.7210999,-31.6641216,-250.1374054,250.1297760
1380,5.6263452,7.9989872,2.0781565,32.4122124,-13.4122133,-13.9923668,-7.5704269,-11.7219515,-11.3125448,-53.6717567,-250.1374054,236.7709961
1390,5.5449429,8.1426382,1.6998745,31.3358784,-7.0763359,-28.6259537,-7.9989872,-11.1186161,-8.7148495,-57.7022896,-250.1374054,226.0000000
1400,4.6207857,7.9271612,0.9600700,26.6793900,5.1603055,-40.9541969,-7.9965930,-9.6749191,-6.3924856,-50.5267181,-250.1374054,218.3740387
1410,3.6152260,8.1306677,0.1604107,16.4503822,19.2900772,-49.1068687,-8.0971489,-7.8697009,-4.2089849,-36.6717567,-250.1374054,208.7938995
1420,2.4205256,8.1905222,-0.1699875,5.1068702,33.7404594,-54.6183205,-8.1402445,-6.3661499,-2.8754215,-19.2824421,-250.1374054,197.2290039
1430,1.3000449,8.2599535,-0.3734936,-3.9541984,43.8167953,-55.0458031,-8.1210909,-4.8865409,-2.3439114,-2.2366412,-250.1374054,181.0152740
1440,0.1963235,8.3772688,-0.6153067,-11.3664122,49.5648842,-50.3969460,-8.1186962,-3.4476328,-2.2433555,15.9694653,-250.1374054,160.3053436
1450,-0.5722113,8.8537130,-0.6105183,-16.6030540,51.6564903,-43.5877876,-8.3150196,-1.2665262,-2.5976956,28.5343513,-250.1374054,134.7175598
1460,-1.1180865,9.2056589,-0.4812321,-18.8473282,45.1832047,-35.8167953,-9.3636751,1.1300575,-2.9999194,35.2366409,-250.1374054,107.1755753
1470,-1.4197544,9.6509781,-0.0981618,-17.2290077,33.8549614,-26.0992374,-11.4226780,2.8371146,-3.2297616,36.2595406,-250.1374054,85.3206100
1480,-1.7429699,10.2830439,0.3543400,-11.3435116,20.4503822,-15.2824430,-13.5870247,4.3310885,-2.8778157,34.2519073,-250.1374054,72.3435135
1490,-1.5897418,10.9749641,0.6679789,-2.7786260,6.8015265,-3.1450381,-14.4321737,5.7173243,-2.3726418,32.3816795,-250.1374054,70.4274826
1500,-0.9073978,11.8320847,0.8595140,6.4961834,-1.4732825,6.4198475,-14.5686426,7.3334022,-1.6950861,33.1755714,-250.1374054,74.2366409
1510,-0.2585725,12.6461086,0.9480990,15.1755724,-7.2366414,11.0992365,-13.5726604,8.6549950,-0.7996593,38.3816795,-250.1374054,82.5572510
1520,-0.0071826,13.1632538,0.7996593,21.8931293,-11.4580154,14.3282442,-12.4904861,9.2607250,0.0335187,48.9847336,-250.1374054,89.8244247
1530,0.4644727,13.6205435,0.6967092,24.7022896,-15.0763359,17.9618320,-11.8416615,9.4690189,0.5003856,62.0000000,-224.7709961,96.7175598
1540,1.3144100,13.9293938,0.8427547,25.1755733,-19.9465656,17.6564884,-11.7243462,9.4953556,1.1085097,73.4427490,-154.1297760,105.3129807
1550,2.3846128,14.1807842,1.7094513,27.1755733,-24.7022896,12.9541988,-12.3372583,9.1170731,1.5155219,81.2137375,-91.4351120,119.4885483
1560,2.9496415,14.1879663,2.6719155,33.4885483,-28.1374054,4.7099237,-11.7004042,8.5161324,1.9440818,85.3435135,-41.3511467,137.2977142
1570,3.2513094,14.1137466,3.4883339,44.8854980,-30.8854961,-5.1526718,-10.4626083,7.8553357,1.9656296,85.5114517,-8.9618320,150.0305328
1580,3.2896163,13.9485474,3.7493007,58.4961815,-32.0992355,-15.2671757,-9.3205795,7.2879128,2.0733681,80.7022934,5.2900763,156.7557220
1590,3.3015873,13.7546186,3.4715748,70.8549652,-31.4885502,-25.4885502,-8.0995426,6.8497758,2.1404054,72.8854980,5.8015265,157.9160309
1600,3.2201848,13.5032282,2.8826041,80.9312973,-27.7480907,-36.7328262,-6.6031747,6.2631998,2.3391230,66.4427490,-1.7786260,154.6641235
1610,2.6383967,13.3212700,2.0015423,87.3053436,-23.7709923,-47.0763359,-4.7500720,5.5880380,2.9209111,64.8015289,-8.3282442,147.0839691
1620,1.7094513,12.7155399,0.9983770,89.0229034,-24.1755733,-53.1908379,-3.2393384,5.1259594,3.0861101,69.0763321,-8.4503813,135.1755676
1630,1.2641320,12.1768475,-0.1053443,83.6946564,-28.6335869,-56.2671738,-2.1835008,4.7404952,2.7916248,76.1832047,-1.2290076,121.8625946
1640,1.4628497,12.1433287,0.5410868,80.4427490,-30.1984730,-62.2671738,-2.2864509,4.6303625,2.1595588,82.2977066,10.6488552,111.9007645
1650,1.4149660,10.8361015,0.5530578,81.3893127,-30.9007626,-72.0076370,-2.8945751,4.6997938,1.2761030,83.4045792,20.1679382,109.8931274
1660,0.5506636,9.8808203,-0.1723816,81.5496216,-35.1755714,-79.4961853,-3.4548154,4.8985114,0.3663110,78.4427490,23.7938938,115.4045792
1670,-0.1675933,9.5145092,-0.8499373,75.2061081,-40.3358765,-83.3587799,-3.8857694,5.0637107,-0.6033357,67.9389343,21.5801525,125.2595444
1680,-0.2968795,8.6238708,-0.6344602,70.0381699,-36.4427490,-85.3816757,-3.4572096,4.7644372,-1.5442522,52.5954208,16.1908398,138.0000000
1690,-0.8451489,7.8050575,0.0766141,74.3435135,-30.0916023,-87.2900772,-2.2361729,4.1275826,-1.9632354,34.1755714,10.6488552,145.9541931
1700,-1.2521610,7.2065101,0.1149211,75.8854980,-30.5343513,-83.4198456,-0.3040621,3.6511390,-1.7717001,16.0534344,5.3664122,144.1755676
1710,-2.2026544,6.3374195,0.2418131,76.2137375,-28.7175579,-73.4122162,1.5155219,3.1459649,-1.0654143,2.2366412,3.7938931,130.7480927
1720,-2.4253139,5.5545197,-0.2226596,73.0229034,-33.0152664,-60.8091621,2.3463056,2.7078283,-0.0718257,-4.5572519,4.1374044,109.9542007
1730,-2.1140692,5.0230093,-0.3327923,68.0229034,-37.7786255,-48.6717567,2.6192431,2.7437410,0.9433106,-5.1679387,1.5419847,86.7480927
1740,-1.7549409,4.7213416,-0.0335187,64.1755753,-43.0534363,-38.7022896,2.3726418,3.0597742,1.7214222,-3.1679389,-5.7557254,63.2519073
1750,-1.2473727,4.8721757,0.1795642,58.6488533,-45.1984749,-30.3435116,1.3191984,3.5601597,1.6663558,-0.7175573,-15.3893127,45.6259537
1760,-1.4293311,5.1283536,0.2106887,53.1526718,-41.8320618,-23.1374054,-0.1484398,4.1227942,1.1109039,-2.0229008,-27.9160309,35.2061081
1770,-1.6208663,5.1403246,0.7158626,49.2900772,-30.7709923,-15.0534353,-1.1755470,5.0637107,0.3734936,-10.0076332,-44.8320618,32.7786255
1780,-1.8554969,4.9655490,0.8738791,45.2824440,-17.0458012,-3.4045801,-1.2976507,5.5257893,-0.1747758,-24.0305347,-61.3129768,33.4961815
1790,-1.4963684,4.6590929,0.8714849,39.9923668,-5.0763359,11.4885492,-1.3551112,5.7652082,-0.3806761,-41.5190849,-73.2900772,32.2900772
1800,-0.9528874,4.7045822,0.9911944,32.7099228,5.9236641,27.2900772,-1.3910241,6.2224984,-0.0526722,-57.1450386,-77.6641235,29.8091602
1810,0.0861908,5.0062504,1.1635761,24.5648861,12.9389315,37.7022896,-2.0111191,6.6007805,0.9385223,-67.6717529,-71.2671738,29.2748089
1820,1.2808913,5.2600341,1.1156923,19.5038166,21.0610695,37.1984749,-2.2864509,6.8330169,2.0326669,-71.8778610,-60.1526718,29.9236641
1830,2.0135133,5.2672167,0.7661406,16.3816795,29.5801525,27.4885502,-2.4301023,7.3286138,3.3782012,-69.2290039,-49.2061081,30.1068707
1840,1.8507085,5.6454988,0.1604107,12.5801525,40.4351158,18.0534344,-2.8275378,7.8050575,3.7349355,-65.8015289,-36.2748108,29.3816795
1850,1.3838415,6.0740585,-0.7852941,6.5954199,53.4427490,14.0534353,-3.0023136,7.7643566,4.3765783,-60.4732819,-28.5496178,27.0000000
1860,0.6296718,6.8761120,-1.7453641,-2.7328243,68.9160309,16.4198475,-3.1723011,8.5161324,5.1187773,-53.4809151,-24.6183205,24.7480907
1870,0.1029501,8.0109577,-2.8323262,-15.6717558,81.8320618,18.4045811,-3.0956869,9.3014259,5.4922705,-46.0610695,-25.3435116,22.1984730
1880,-0.8331779,9.2918491,-3.6583214,-31.1755733,92.0000000,20.4732819,-2.9951310,9.7850523,5.7149301,-37.4656487,-26.2366409,18.4885502
1890,-1.5562232,10.2614956,-3.8929520,-45.1908379,96.8015289,23.9541988,-2.7916248,10.4123297,5.7819676,-28.4045811,-27.9465656,12.4351149
1900,-2.0542145,11.2838144,-3.6822634,-53.8244286,96.7633591,29.7022896,-2.6671271,10.9558105,5.5425487,-21.0763359,-28.4656487,6.2290077
1910,-2.1739240,11.9302464,-2.9113343,-53.9771004,84.1374054,34.6641235,-2.6455793,11.1329813,4.9847026,-16.5267181,-30.7251911,-0.7251908
1920,-1.7046629,12.2678270,-2.2672975,-45.0000000,64.0229034,37.3206100,-2.8897867,11.0443964,4.6973996,-16.3893127,-33.1450386,-8.4732828
1930,-1.1228749,12.3803539,-1.6567791,-30.0916023,42.2137413,37.8320618,-3.1363883,11.3795824,4.5872669,-19.1984730,-36.2748108,-14.3740454
1940,-0.5027798,12.4617558,-1.4317253,-13.2748089,21.7557259,35.4885483,-3.9839313,11.3364868,4.8793583,-20.9312973,-35.0610695,-15.7251911
1950,0.1891410,12.5048513,-1.1875180,1.8549619,2.4198472,29.6641216,-4.3406653,11.2479019,5.2815819,-20.3053436,-32.5267181,-11.3053436
1960,0.8164186,12.1385403,-1.0821736,13.0610685,-12.8625956,21.0229015,-3.9097114,11.3604288,5.6000090,-18.8702297,-30.3969460,-5.9694657
1970,1.1013272,11.6812506,-0.9217629,20.2213745,-21.7862587,12.5725193,-3.5577655,11.0300312,6.3158717,-14.2137403,-26.7175579,-2.6488550
1980,1.2306134,10.8648319,-0.7517755,24.9312973,-25.0458012,6.6106873,-3.1842721,10.6541433,6.5289545,-7.3053436,-19.9770985,-2.0152671
1990,1.5801650,10.1393919,-0.6033357,27.1068707,-23.3969460,2.5725191,-3.2680686,10.4985209,6.6342988,0.1908397,-12.3816795,-0.9236641
2000,2.0494261,9.3828287,-0.5698171,26.8167934,-15.6946564,-0.4045801,-3.4069316,10.3716288,6.2081332,4.9236641,-7.4885497,1.2290076
2010,2.3630650,8.9806042,-0.6703730,23.7786255,-2.7099237,-2.4809160,-3.3494711,9.5169029,5.8035154,8.1526718,-4.7328243,4.4045801
2020,2.4708035,8.5281029,-0.9768293,20.2442741,13.2748089,-3.4045801,-3.0765336,9.2391768,5.6766233,9.8702288,-2.0076337,6.0687022
2030,2.2888451,8.0947542,-1.4843974,14.8854961,28.7175579,-5.0687022,-2.9017577,8.8561068,5.7245069,13.2977095,1.7022901,6.6412215
2040,2.2002602,7.8505473,-2.0829449,5.6106873,42.4351158,-7.3816795,-2.8897867,8.4323349,5.5904322,17.0381680,4.0152674,5.4274807
2050,1.4939742,7.6470413,-2.4731977,-18.2442741,65.4122162,-12.7328243,-2.4708035,7.6925306,5.0254035,25.1221371,3.8015268,3.3816793
2060,1.0941446,7.6614060,-2.5665710,-29.4732819,74.9083939,-13.3358774,-2.2553265,7.5033898,4.2832050,26.6183205,4.6564884,1.4580153
2070,0.8619082,7.9223728,-2.6527619,-40.3282433,82.3816757,-12.3435116,-2.3582766,7.2879128,3.4212968,22.7175579,0.4580153,-1.0916030
2080,0.3232156,8.7818871,-2.7365584,-49.6564903,89.0534363,-9.6412210,-2.2505381,7.0197635,2.7197993,14.8473282,-7.9160304,-2.8625953
2090,-0.1580165,9.5456333,-2.6192431,-56.6641235,91.0305328,-4.1526718,-1.9847831,6.9168134,2.1811066,4.5877862,-17.4961834,-4.0839696
2100,-0.1484398,10.3381100,-2.6168492,-61.3587799,85.5190811,0.8167939,-1.7094513,6.7204900,1.9416877,-5.5343513,-26.0839691,-5.0458016
2110,-0.1197095,10.8241301,-2.2505381,-63.5114517,72.9770966,3.6412213,-1.4963684,6.7180958,1.3383518,-17.3511448,-34.9847336,-7.1450381
2120,0.1771700,11.0180597,-1.4365137,-60.7633591,55.9694672,3.1450381,-1.3479286,6.7037306,0.8403605,-31.9541988,-44.7557259,-8.6564884
2130,0.3280039,11.0108776,-0.6057299,-51.2748108,37.1603050,0.5419847,-1.2162483,6.7492199,0.3543400,-48.0381660,-54.3893127,-10.6870232
2140,0.1532281,11.2479019,-0.0526722,-35.8778610,18.9618320,-2.0229008,-0.9624642,6.7444315,0.2130829,-65.3358765,-64.2824402,-12.9618320
2150,-0.4213773,11.4298601,-0.1268920,-19.4351139,2.3511450,-3.3816793,-0.8595140,6.7348547,0.2609667,-81.7175598,-72.6183243,-16.9389305
2160,-0.7948709,11.6046362,-0.5219333,-8.7633591,-8.0000000,-2.8320611,-1.1516051,7.3190370,0.5362985,-95.7633591,-79.3587799,-19.8473282
2170,-0.5913648,11.3101511,-0.8259954,-6.0610685,-15.9465647,-2.8473282,-1.4484847,7.8936424,0.5482694,-108.1832047,-84.7633591,-19.5954189
2180,-0.2250538,10.6421719,-0.8810617,-8.4961834,-21.8625946,-5.3511453,-1.4532729,8.4107876,0.3280039,-122.6488571,-89.5877838,-17.7786255
2190,-0.3208214,10.0220766,-0.7134684,-13.9541988,-20.5496178,-3.6259542,-1.2928623,8.9710283,0.2920911,-138.3435059,-89.9542007,-15.8396950
2200,-0.4668669,9.3971939,-0.5099624,-21.3816795,-14.8702288,3.6870229,-1.3958124,9.4522600,0.6248835,-151.9847260,-78.5954208,-10.4045801
2210,-0.4572902,9.0189114,-0.1077385,-29.0000000,-7.1832061,12.8625956,-1.7286048,10.1154509,1.5083394,-161.0610657,-60.8091621,-2.1374047
2220,-0.0837966,8.8824425,0.3710994,-34.8015251,-0.1297710,18.4732819,-1.5634058,10.4745789,2.6383967,-163.5725250,-37.5648842,7.3435116
2230,0.3303981,8.5688038,0.6823440,-38.9465637,4.9618320,20.4045811,-0.6727672,10.5464048,4.1922259,-158.0610657,-9.0992365,11.2366409
2240,0.5554519,8.5448618,1.1947005,-39.3969460,9.9847326,25.5725193,0.6224893,11.4274664,6.1219425,-145.2061005,22.9923668,6.3282442
2250,0.8643024,8.4275465,1.9656296,-33.3664131,14.1145039,36.4427490,0.9911944,12.5168228,7.9558916,-123.7175598,53.9771004,-5.2442746
2260,1.6017127,8.6885138,2.6575503,-20.5954189,14.5114508,44.8625946,0.3327923,13.3883076,9.8018112,-94.2061081,80.0839691,-20.0152664
2270,2.1068866,9.1074963,2.6096666,-2.6564887,14.8549614,46.2061081,-0.4357425,14.2430334,10.4099360,-59.8931313,96.0229034,-35.5114517
2280,2.0925217,9.7611103,1.6783268,11.3969469,13.6641226,42.1908379,-1.0510491,15.0498753,9.9550400,-24.9694653,100.0916061,-51.4656487
2290,1.7046629,10.1944590,0.3519458,17.6793900,10.9312973,36.2519073,-1.8866212,15.3443604,8.6430235,2.9618320,92.1679382,-67.0000000
2300,1.3311694,10.4410601,-0.3351865,17.3816795,6.8091602,30.4656487,-2.5282640,15.9836092,6.2679882,18.0305347,79.0457993,-79.0000000
2310,0.9576758,10.6756907,-0.7350162,14.7099237,4.2213740,26.6412220,-3.0334380,16.4480820,3.8043671,18.1984730,68.4122162,-86.2671738
2320,0.8834559,10.6948442,-0.7948709,12.4274807,3.4503818,25.1068707,-3.7397239,16.5965214,1.7357874,3.7633588,61.9312973,-82.8320618
2330,1.1348459,10.8313131,-0.5841822,12.9160309,4.5725193,22.9083977,-3.8426740,16.4600525,-0.0430954,-21.9007626,52.6106873,-77.2519073
2340,1.3646880,11.0300312,-0.7613522,14.4885492,6.3664122,16.9770985,-3.1268115,15.7178535,-1.4987626,-58.2290077,41.7328262,-76.6335907
2350,1.5011568,11.0372133,-1.1085097,15.7480917,8.1984730,8.5419846,-2.3606708,14.5806141,-1.6088953,-97.0152664,29.2519093,-84.4122162
2360,1.6400198,10.9749641,-1.4365137,15.1679392,11.2290077,0.7175573,-2.0446377,13.4673157,-0.2753318,-130.3587799,22.9465656,-94.1450348
2370,1.6615674,10.9270811,-1.7429699,12.5419846,14.2137403,-6.7175574,-2.9089401,12.2247314,1.4149660,-152.6488495,23.1984730,-99.4809189
2380,1.7932479,10.8217363,-1.9512644,8.8396950,14.7557249,-14.5725193,-3.2441268,11.0850973,2.5426292,-165.1145020,22.8549614,-102.4045792
2390,1.7429699,10.5440102,-2.1858950,4.8320613,13.4122133,-23.0916023,-3.6367738,9.7108326,3.2632802,-170.5038147,24.4503822,-101.9160309
2400,1.6663558,10.0172882,-2.2242019,0.6717557,9.4274807,-30.7251911,-3.8402798,8.1809454,3.4428444,-171.7938995,30.0916023,-101.6717529
2410,1.3982066,9.4331064,-1.9273225,-1.9083970,6.3282442,-35.6717567,-4.0030847,6.6103573,3.2537034,-171.0076294,34.5648842,-103.5877838
2420,0.9672526,8.7459745,-1.8219782,-2.1374047,2.9465649,-37.1374054,-5.0014620,4.8937230,2.4372849,-173.1450348,35.5725174,-107.4198456
2430,0.4668669,8.0564480,-2.1020982,-1.6641221,-1.8854961,-32.9771004,-5.8130918,2.8107784,1.0007712,-182.2824402,27.2748089,-110.0687027
2440,0.1101327,7.6111283,-2.3247581,-1.4274809,-9.5725193,-23.7938938,-7.2615767,0.2561783,-0.4644727,-198.2366486,11.6030531,-112.6183243
2450,0.1747758,7.2974896,-2.4277081,-0.9847328,-19.2290077,-11.6259546,-9.3301563,-2.5593886,-1.6974803,-222.1450348,-3.5877862,-111.3053436
2460,0.6560079,7.1969333,-2.4564383,-0.0152672,-30.2900772,-1.1908396,-11.9350348,-5.9040713,-2.7078283,-250.1374054,-19.6030540,-102.5496216
2470,1.1372399,7.4076223,-2.4229198,0.5114504,-36.9923668,7.8702292,-14.3340120,-9.0308828,-2.5569944,-250.1374054,-35.5267181,-81.8778610
2480,1.8674678,7.8026633,-2.1858950,0.5267175,-38.6564903,12.7786255,-16.7665081,-11.8871508,-1.3191984,-250.1374054,-39.3435097,-45.9847336
2490,2.4636209,8.2479830,-2.3079987,-1.1755725,-37.5114517,12.5267172,-19.6131992,-15.0426922,0.7589580,-250.1374054,-26.9923668,7.5496182
2500,3.0501974,8.4227581,-2.2170193,-4.7557254,-28.3129768,6.3816795,-19.6131992,-18.3107605,3.3063757,-250.1374054,-7.8854961,77.6870193
2510,2.3271523,9.1553802,-1.9345051,-10.6106873,-25.5343513,0.5038168,-19.6131992,-19.6131992,5.0062504,-250.1374054,10.7709923,156.7557220
2520,1.9919657,9.2703018,-1.7956421,-16.5267181,-11.9770994,-0.8167939,-19.6131992,-19.6131992,5.6287394,-250.1374054,6.5114503,236.0534363
2530,1.3000449,9.6414013,-1.7645177,-23.9694653,-9.6946564,1.4732825,-19.6131992,-19.6131992,6.6319046,-250.1374054,-17.0763359,250.1297760
2540,0.9433106,9.7850523,-1.4006008,-28.0992374,-3.7328243,4.1450381,-13.0076313,-19.6131992,8.4969788,-250.1374054,-46.5648842,250.1297760
2550,0.7733232,9.9765873,-1.0007712,-28.9694653,-4.7175574,4.8702292,-1.4341195,-19.6131992,12.8615856,-250.1374054,-46.6488533,250.1297760
2560,0.4836263,10.2471304,-0.6823440,-26.3206100,-6.2061067,3.2748091,8.7076674,-19.6131992,18.4759598,-250.1374054,24.3740463,250.1297760
2570,0.3351865,10.3955708,-0.1939293,-20.1908398,-4.8854961,-0.7709923,13.6851873,-19.6131992,19.6126022,-245.7633514,126.4732819,250.1297760
2580,-0.2442073,10.9534168,-0.2035061,-13.0687027,-0.7709923,-4.6183205,15.9022064,-19.6131992,19.6126022,-157.3358765,180.3969421,245.7022858
2590,-1.0989330,11.4945040,-0.5075682,-9.3511448,2.5496182,-5.5877862,14.0347385,-15.2509871,19.6126022,-65.6412201,138.7022858,131.8854980
2600,-1.7214222,12.1888189,-1.0534433,-11.6412210,10.3435116,-5.0000000,10.8648319,-14.3100700,19.6126022,11.8473282,41.2595406,18.4580154
2610,-2.2218077,12.7921543,-1.2401901,-20.8244267,23.0305347,-2.5725191,7.1346846,-14.1807842,19.6126022,95.4961853,-60.1603050,-89.4351120
2620,-2.2026544,13.2278967,-0.9480990,-33.1374054,35.8854980,1.3206106,1.6567791,-13.7713776,18.2125988,166.7633514,-133.5190887,-179.9160309
2630,-1.6519908,13.2805691,0.1125269,-39.3893127,44.2061081,3.8244274,-4.6830344,-12.2630386,12.6030130,212.1145020,-177.7557220,-237.8473358
2640,-0.8786675,13.3787308,1.4006008,-33.8320618,46.7557259,6.1984735,-11.4466200,-10.8552551,7.0053983,226.2213745,-203.8473358,-250.1374054
2650,-0.8188128,13.5415354,2.2122312,-18.5877857,40.9771004,11.5648851,-16.1128960,-9.5456333,3.6894460,212.2519073,-206.4351196,-241.9770966
2660,-0.2394189,13.6899757,2.5929072,1.6641221,26.7022896,20.2290077,-18.2628765,-8.1210909,1.8243724,183.4122162,-194.9389343,-202.3511505
2670,0.8116302,14.1329002,2.8347204,23.0000000,12.0916033,24.6793900,-17.9061432,-6.6175399,1.4796091,151.8549652,-180.1526642,-152.5267181
2680,1.2761030,14.6524391,2.6767037,41.9312973,8.9389315,25.8702297,-15.4257622,-4.9583664,2.5091105,127.4503784,-165.3893127,-108.0076370
2690,1.9680238,14.7242651,1.8938038,51.2519073,13.9694653,24.3358784,-11.7961712,-3.1459649,4.3981261,108.6183243,-147.3893127,-77.6412201
2700,2.9304879,14.1376886,1.4700323,51.9007645,23.4351139,19.7328243,-8.8537130,-1.9297167,6.2320752,97.2977066,-125.0000000,-62.3511467
2710,3.7373297,13.5104113,1.3287752,50.4809151,35.7099228,9.0839691,-7.0125809,-1.0989330,7.8361821,89.2061081,-101.5114517,-59.4580154
2720,3.3279233,12.8663740,1.0725969,49.6946564,48.4580154,-1.2213740,-6.0884237,-0.5746055,9.2918491,84.9847336,-85.6106873,-63.2137413
2730,2.8371146,11.9230633,0.2896969,46.2061081,58.8702278,-9.5267172,-5.8274570,-0.0215477,10.5176744,81.4427490,-80.4656525,-72.8625946
2740,2.3630650,11.2502966,-0.1101327,41.4045792,62.1145020,-17.5496178,-6.5600791,0.3208214,11.6453371,77.4198456,-79.1755753,-83.1679382
2750,1.8626794,10.4219065,0.2777260,40.1603050,52.4809151,-25.6488552,-7.4076223,0.9073978,13.0770626,74.9847336,-79.5496216,-89.0992355
2760,1.4269369,9.2152348,0.8020535,45.5954208,32.4274826,-31.7862587,-7.8433647,1.7309990,14.9325600,78.6030502,-79.8549652,-90.1755753
2770,1.1348459,7.9774394,0.8212070,53.5572510,13.2977095,-34.5114517,-7.8050575,2.4229198,16.8239689,91.5190811,-75.4198456,-87.0992355
2780,1.0295014,6.9910331,0.6224893,59.3664131,0.1374046,-35.4809151,-7.6039457,2.8562679,18.3035774,115.3129807,-60.7175560,-75.9389343
2790,0.9002152,6.1171541,0.5578461,62.9160309,-6.9541984,-36.2671738,-7.4914188,3.5266411,19.2540722,149.6335907,-35.4809151,-65.0534363
2800,0.5339043,5.4108682,0.3974355,65.6870193,-8.7709923,-35.6641235,-8.0899658,3.3518653,18.8710022,190.0610657,-10.5419846,-49.4656487
2810,0.3256098,4.7859845,-0.0287303,65.9312973,-6.3282442,-33.6030540,-9.1074963,2.7102225,17.3937855,227.1755676,6.1145039,-28.9465656
2820,-0.1125269,4.1563129,-0.7206510,62.5343513,-1.3358779,-30.5877857,-9.3062143,2.6288199,15.6172981,250.1297760,10.6259546,-6.4503818
2830,-0.4094064,3.8570392,-1.3814473,56.7862587,2.6793892,-25.6793900,-8.5352850,3.1315999,13.3404236,250.1297760,10.0152674,12.2213745
2840,-0.7182568,3.6152260,-1.8961980,49.8091621,5.6717558,-19.4580154,-7.0820122,3.6559272,10.8672256,250.1297760,4.4503818,24.4427490
2850,-0.8762733,3.5505829,-2.4420733,40.6106873,9.0763359,-11.6717558,-6.2105274,4.0366035,8.9710283,250.1297760,-0.6335878,31.4274807
2860,-0.4908088,3.5290353,-2.8059900,30.6793900,11.6641226,-5.6946564,-5.0876527,4.2951760,7.0724359,250.1297760,-4.0610685,35.6793900
2870,0.1101327,3.6271970,-2.9352763,19.5725193,14.8854961,-3.9160306,-3.9839313,4.8458395,6.1003947,240.6335907,-7.7557254,35.3893127
2880,0.4716553,3.8642218,-3.0047078,6.6106873,21.5572510,-6.9770994,-3.3422885,5.1929970,5.6454988,222.5038147,-7.3587785,33.9236641
2890,0.7565638,4.3071470,-3.0310438,-7.7786260,31.1832066,-13.2519083,-3.5649481,5.1092005,5.1882086,207.2824402,-3.8854961,35.7328262
2900,0.7733232,4.8913293,-3.2082138,-21.3587780,42.3511467,-20.5267181,-3.9887197,4.8266859,5.2145448,196.1603088,1.4045801,44.2824440
2910,0.4812321,5.7819676,-3.6655040,-37.8473282,57.3740463,-26.5648861,-3.6870518,4.9463954,5.2815819,190.1221313,7.2442746,56.4351158
2920,-0.2035061,6.9527264,-3.8977404,-57.2748108,74.7862625,-29.2519093,-3.0932927,4.8266859,5.3534074,190.2900696,16.9236641,67.4885483
2930,-1.2497669,8.3461447,-3.6655040,-75.5877838,85.9389343,-28.1679382,-2.5617826,4.3981261,4.9607606,193.7404633,27.9618320,77.7786255
2940,-2.1571648,9.3900108,-2.4468615,-85.6641235,85.4122162,-21.7633591,-1.4484847,3.9552009,4.1036406,195.2671814,35.9694672,83.0534363
2950,-2.0661855,10.2327662,-0.7805058,-82.2366409,72.3587799,-10.1068707,-0.3926471,3.9264708,3.2417326,193.8244324,38.5496178,81.4198456
2960,-0.7206510,10.8504667,1.0199248,-64.5801544,54.0916023,-0.9923664,0.1388630,3.9264708,2.4085546,190.3053436,41.4274826,76.0457993
2970,0.4405309,11.4585905,1.6950861,-39.0610695,39.9694672,2.7557251,0.0574605,4.0509686,1.5322813,184.8625946,44.3587799,70.8778610
2980,0.9121862,12.0595322,1.0438666,-17.0381680,29.8396950,3.5496182,-0.1628049,4.0030847,0.8259954,177.8473358,46.5419846,67.9160309
2990,1.0438666,12.3683825,0.2274480,-2.6488550,21.6641216,4.2595420,-0.2609667,4.1443419,-0.1843526,167.3129730,44.0458031,66.7709961
3000,1.4053892,12.2726154,-0.4261657,4.1832061,14.3969469,4.0229006,0.1292862,4.4053087,-0.9983770,151.8854980,37.1908379,64.8091583
3010,1.7717001,12.0331964,-0.6344602,5.5419846,12.5114508,2.6870229,0.4309541,4.7117648,-1.8554969,131.0686951,29.9465656,61.5954208
3020,1.9033806,11.8919392,-0.5793939,5.4045801,16.2900772,0.8473282,0.5530578,4.7404952,-2.2457497,107.1450348,24.3511448,58.9541969
3030,1.8818330,11.5208397,-0.6320660,5.9083967,24.1145039,-2.7404580,0.3974355,5.0277977,-2.2553265,83.3053436,21.6641216,58.4427490
3040,1.4245427,11.6980095,-1.1013272,5.6793895,35.2061081,-6.0687022,0.6679789,5.5425487,-1.7477583,60.2977104,21.2061062,59.5038185
3050,1.2377959,11.6620970,-1.6160779,2.1679389,45.5496178,-9.6488552,0.9433106,5.6981707,-0.8140244,41.9771004,21.0763359,58.5419846
3060,1.2641320,11.3293047,-2.0087249,-4.0000000,52.7480927,-15.9007635,0.7972651,5.7053533,0.1484398,29.3282452,22.0916023,55.3664131
3070,1.2832855,10.8504667,-2.1188576,-11.1145039,58.1603050,-23.7404575,0.5817881,6.2105274,0.9026094,20.7328243,19.5267181,51.0000000
3080,1.0390782,10.1226330,-2.0302727,-17.2671757,59.2824440,-32.0839691,0.5506636,6.7300668,1.2521610,13.3206110,13.1450386,44.6106873
3090,-0.1628049,8.7124557,-1.4197544,-21.8702297,45.1297722,-35.4961815,0.5195391,7.8577299,1.4724265,-0.8931298,-5.4274807,28.9083977
3100,-0.6991033,8.3629036,-1.0965388,-19.5114498,34.1908379,-28.8167934,0.2657550,8.2312231,1.8052188,-6.4351144,-12.0916033,21.1297703
3110,-0.9050036,8.1115141,-0.7014975,-13.3129768,21.4198475,-18.4885502,0.4644727,8.9159613,1.5921360,-13.6564884,-13.6335878,14.1908398
3120,-0.7398046,8.2144642,-0.4788379,-4.3740458,8.7022905,-6.1984735,0.4333483,9.5240860,1.5825592,-24.6259537,-17.9694653,7.8244276
3130,0.2011119,8.9063845,-1.0127422,9.5877867,-10.0534353,8.3740454,-0.2585725,10.0939026,2.6168492,-47.4656487,-33.5267181,-0.6488550
3140,0.7781116,9.2463598,-1.4843974,9.4732828,-15.1297712,7.8167939,-0.4213773,10.3620520,3.2752512,-53.4045792,-33.3587799,-3.0458016
3150,0.9888002,9.4762020,-1.8363433,4.4274807,-17.6030540,4.7175574,-0.4979914,10.8768024,4.0222383,-54.0687027,-27.8702297,-3.3358779
3160,1.0510491,9.4283180,-1.7501525,-3.4198472,-17.7022896,1.3816794,-0.8762733,10.8504667,5.0277977,-49.0534363,-16.0610695,-0.1603053
3170,0.7948709,9.3205795,-1.2880739,-9.8549614,-16.5954189,0.1679389,-1.1372399,10.9845409,5.7819676,-38.5648842,-1.0534351,4.0839696
3180,0.5315101,9.1817169,-0.6775556,-12.1679392,-15.0687027,2.4122138,-1.2569494,11.0898857,5.7819676,-27.5114498,13.7709923,10.0458012
3190,0.4620786,9.1673517,-0.3998296,-11.3282442,-13.0763359,8.0381680,-1.2018831,10.9486284,5.6024032,-19.1984730,24.1374054,14.1221371
3200,0.4644727,9.3971939,-0.5147507,-9.5419846,-12.6641226,15.5419846,-0.9720409,10.8001890,5.0445571,-15.1374044,33.0305328,17.4503822
3210,0.9073978,9.6797075,-0.6272776,-7.5648856,-14.3816795,21.2213745,-0.7685348,10.5871058,4.4962878,-16.5038166,40.2213745,17.9923668
3220,1.5346755,9.9670105,-0.6967092,-5.5190840,-17.6488552,23.2824421,-0.4525018,10.4362717,4.3454537,-22.3969460,42.5954208,17.4580154
3230,1.9656296,10.0579901,-0.6895266,-3.9465649,-20.7938938,21.2213745,-0.1651991,10.0939026,4.4651632,-32.1603050,38.5267181,12.7709923
3240,2.1930776,10.2974091,-0.7589580,-3.1221373,-22.1755733,14.9694653,-0.0742199,9.8065996,5.0493455,-41.7022896,28.3511448,5.4122138
3250,2.0733681,10.3452930,-0.9816177,-4.8320613,-21.9389305,5.8549619,-0.0430954,9.8305416,5.6000090,-50.2366409,17.8854961,-3.0076337
3260,1.5155219,10.0508070,-1.1204807,-9.4503813,-17.8549614,-2.3816793,-0.1508339,9.3373384,6.3996682,-53.8015251,7.2748094,-13.6870232
3270,0.7134684,9.8760319,-0.9983770,-16.4732819,-11.1374044,-7.2595420,-0.4261657,9.2846670,7.2687593,-54.3511467,-0.2824427,-22.5648861
3280,-0.0766141,9.5911226,-0.7062859,-23.1221371,-4.0916033,-6.4198475,-0.9433106,9.1434097,7.8625183,-50.9312973,-8.0992365,-29.6641216
3290,-0.5817881,9.6126709,-0.0766141,-25.8015270,1.7480916,-1.3969465,-1.6208663,8.8968077,8.1378498,-41.7938919,-10.3206110,-35.5038185
3300,-0.6488253,9.7682934,0.6105183,-23.0992374,3.5877862,4.8625956,-2.0446377,8.7268209,7.9846220,-32.3511467,-7.4045801,-36.1908379
3310,-0.5410868,10.2782555,1.0151364,-14.5648851,2.8015268,9.3358774,-2.2601149,8.8177996,8.0468712,-20.8396950,2.1450381,-32.2595406
3320,-0.3758878,10.6565371,1.0366840,-3.8320611,-1.5496184,10.7328243,-2.6216373,8.8225880,7.9726510,-7.4427481,18.9923668,-24.9389305
3330,0.0047884,10.8456783,0.7110743,4.4885497,-8.2595415,8.3358774,-2.8778157,8.7172441,7.5584559,4.8473282,33.7175560,-15.4885492
3340,0.5889706,10.6302013,0.2035061,6.8778625,-19.3664131,-11.0152674,-1.8387375,9.0260944,5.9950504,20.0992374,47.2137413,-4.8473282
3350,0.6440369,10.4099360,0.3495516,4.6870227,-19.2213745,-17.2137413,-1.5921360,8.9542685,5.5353661,23.0152664,46.1374054,-6.3664122
3360,0.6967092,10.0771437,0.6392486,3.9770992,-16.2977104,-22.6793900,-1.3335636,9.2200232,5.0589223,23.4274807,44.4045792,-8.0992365
3370,0.5626345,9.5671806,0.7110743,4.2519083,-11.8473282,-24.9083977,-1.0223188,9.2846670,4.2640514,21.1068707,40.1679382,-10.0610685
3380,0.4548960,9.3086090,0.5961532,5.7786260,-8.0763359,-24.0534344,-0.5722113,9.1625633,3.6104376,14.6183205,35.0534363,-13.9007635
3390,0.1556223,8.8417416,0.0574605,13.6259546,-9.8320608,-17.7480907,-0.3208214,9.4235296,3.4524212,-3.7633588,30.3816795,-18.9541988
3400,0.3088504,8.7890692,-0.5171449,17.8778629,-18.9312973,-14.4732828,-0.3758878,9.5815458,3.9767487,-10.6412210,30.3893127,-20.3129768
3410,0.7230452,8.5089493,-0.8619082,20.6259537,-31.1755733,-11.0763359,-0.1651991,9.5791521,4.4891052,-14.9160309,28.4580154,-19.8244267
3420,1.0725969,8.2982607,-1.0941446,23.5190830,-42.7557259,-8.3587790,0.3160330,9.6222477,4.8123207,-17.7404575,22.6946564,-23.5801525
3430,1.3862357,8.3461447,-1.6807210,25.3893127,-54.9694672,-6.0916033,0.7398046,9.6485834,4.9775200,-19.9618320,15.7328243,-31.6946564
3440,1.6663558,8.3629036,-2.2888451,24.5954189,-65.0152664,-3.8091602,1.0702027,9.8353300,4.6782460,-24.0534344,6.8091602,-42.5954208
3450,1.8076130,8.6286592,-2.7772598,21.3664131,-71.2137375,-0.2595420,1.2473727,9.9622221,3.9288650,-31.0381680,-3.8473282,-57.2137413
3460,2.0901275,8.9542685,-3.3782012,14.8091602,-72.3435135,2.3893130,1.3958124,9.9909525,3.3901722,-40.1068687,-11.8778629,-72.1221390
3470,2.5043221,9.2679071,-3.9456241,3.5725191,-69.0839691,-0.3816794,1.2880739,9.8784256,2.8778157,-53.5267181,-17.0916023,-87.9694672
3480,2.9376705,9.6294298,-4.4340386,-13.5496187,-63.2977104,-10.6183205,0.7230452,9.5743637,2.7485294,-68.4503784,-23.4656487,-103.8167953
3490,2.3247581,9.9574337,-4.5537481,-33.4580154,-61.4961815,-26.7480907,-0.0718257,9.4211359,3.1196289,-83.2290039,-30.7022896,-117.6106873
3500,0.9959828,10.0555954,-3.9264708,-49.0687027,-62.7175560,-41.3358765,-0.8379663,9.4498653,3.5601597,-94.9007645,-37.4351158,-128.8320618
3510,-0.6607963,9.4498653,-2.4684093,-57.5038185,-62.1984749,-48.2442741,-1.0247130,9.5408449,4.1491303,-102.4351120,-38.1755714,-137.8778687
3520,-2.2840567,9.5863342,-1.2138541,-56.6030540,-64.9389343,-46.5801544,-0.7637464,9.8065996,4.9320302,-104.1145020,-30.8473282,-143.5725250
3530,-3.6367738,9.2870607,-0.1843526,-46.8244286,-67.5954208,-40.9465637,-0.6655847,10.4123297,6.0189924,-99.2442780,-14.5648851,-147.5343475
3540,-4.4938936,9.2272062,0.3974355,-33.3893127,-68.6335907,-31.8167934,-0.3974355,11.0060892,7.0365229,-86.0992355,11.1679392,-148.4580078
3550,-4.7931671,9.2774839,0.7350162,-21.8167934,-58.4580154,-19.8549614,-0.2920911,11.5471754,7.6877422,-65.3358765,43.8167953,-145.0992432
3560,-4.7788019,9.5911226,0.5889706,-13.9007635,-42.2442741,-9.7557249,-0.0526722,11.9781294,8.0540533,-37.9007645,81.9389343,-140.8854980
3570,-4.5896611,10.1537571,0.1484398,-10.6564884,-28.6946564,-4.0992365,-0.1173153,12.0595322,7.6183109,-6.4045801,121.6335907,-140.4961853
3580,-4.6973996,10.7594872,-0.1987177,-11.4580154,-16.2595425,-0.1297710,-1.3024391,12.5431585,6.5193777,22.2671757,151.5801544,-139.8091583
3590,-4.4316444,11.1257982,-0.7254394,-16.8702297,-7.7099237,1.8549619,-2.0302727,12.8137016,4.0988522,37.8167953,164.7251892,-137.6335907
3600,-3.7780309,10.9103212,-0.7613522,-24.4427490,2.1450381,1.5801526,-1.7094513,12.7155399,1.6448082,34.7786255,159.5572510,-137.2977142
3610,-3.2082138,9.9023676,-0.6464311,-31.8702297,15.0916033,-0.6335878,-0.8786675,12.0284081,-0.2609667,17.6106873,144.7938995,-146.8167877
3620,-4.6543045,11.0396080,-0.0335187,-36.7709923,34.7404594,4.1679387,-0.1125269,10.7714586,-1.2114599,-6.7022901,128.6335907,-166.7709961
3630,-5.0541339,11.4753504,0.6727672,-35.4274826,45.9236641,16.6183205,0.4070122,9.2056589,-1.6017127,-27.8320618,120.7328262,-193.5343475
3640,-4.5609307,10.9127159,1.2234308,-28.6106873,50.0000000,27.9465656,1.1539993,6.5481081,-1.3766589,-35.8778610,122.4427490,-232.5267181
3650,-3.1962428,10.6254129,1.8961980,-14.6870232,51.3664131,34.5190849,3.2058196,5.3174949,-1.8339491,-29.0152664,145.4656525,-250.1374054
3660,-1.7118455,10.5727406,2.2672975,4.6870227,50.7557259,36.4809151,2.5474176,2.5857246,-4.9583664,-13.9312973,194.9923706,-250.1374054
3670,-0.8236012,10.6541433,2.2840567,24.9923668,44.2137413,35.8091621,-2.9568241,-1.3527170,-10.2519188,-19.0458012,234.9923706,-250.1374054
3680,0.2777260,11.1425581,1.9009864,44.9923668,28.5496178,34.1603050,-12.0212250,-5.7269011,-14.7960911,-83.4503784,210.3511505,-250.1374054
3690,1.5897418,11.3771887,1.1923064,60.0534363,11.2137403,27.3129768,-19.6131992,-8.5807753,-13.3380299,-193.2900696,93.8320618,-250.1374054
3700,2.2816625,11.1712875,0.5698171,68.2442780,-1.7862595,16.2900772,-19.6131992,-8.7747040,-5.4922705,-250.1374054,-26.4656487,-203.7022858
3710,2.3750360,10.7283630,0.1843526,70.7862625,-11.3740454,5.4809160,-19.6131992,-10.8121595,1.7142396,-250.1374054,-22.8167934,-68.5648880
3720,2.4636209,10.3333216,-0.1340746,68.9923630,-21.4351139,-3.4809160,-19.6131992,-15.5622311,4.3789725,-250.1374054,53.9847336,50.4351158
3730,2.7964132,9.6509781,-0.1628049,65.7099228,-30.3129768,-12.3893127,-18.5118732,-19.6131992,6.4858594,-250.1374054,147.6488495,155.7404633
3740,2.8993635,8.8992023,-0.3160330,61.6564903,-34.0610695,-21.5648861,-11.4777441,-19.6131992,10.2519188,-250.1374054,250.1297760,197.0534363
3750,2.5138988,8.2192526,-0.6320660,54.9083977,-30.9465656,-28.4732819,-9.2607250,-19.6131992,14.9038296,-235.9084015,250.1297760,184.3053436
3760,1.5849534,7.7643566,-0.7182568,48.3969460,-25.0687027,-30.5954189,-8.2575598,-19.6131992,17.4392757,-203.3511505,197.7862549,152.6641235
3770,0.9983770,7.3214312,-0.9696468,44.1603050,-26.0381680,-26.0610695,-6.3254485,-15.4999828,17.7241840,-185.5648804,51.9541969,117.1908417
3780,1.0989330,7.1682034,-1.3862357,42.8778610,-36.5954208,-15.6183205,-3.4787574,-12.6317434,16.5151196,-182.3587799,-90.4274826,88.7099228
3790,1.9464760,7.1275020,-1.6974803,43.6488533,-51.6412201,-4.9541984,0.0981618,-11.2598734,16.7808743,-174.9160309,-165.0915985,57.5114517
3800,2.7964132,6.9790621,-1.9512644,43.9541969,-63.8549614,-0.1297710,1.8578910,-11.2502966,19.6126022,-142.3511505,-168.8167877,10.4961834
3810,3.0885043,7.0053983,-2.2505381,42.0228996,-66.0763321,-2.9465649,-1.2952565,-10.5679522,19.6126022,-69.7175598,-139.0152740,-39.6641235
3820,2.4923513,7.3286138,-2.6192431,35.6641235,-64.8778610,-9.8778629,-8.0085640,-9.4642305,19.6126022,29.9770985,-108.5496216,-68.5801544
3830,1.6687500,7.3621325,-2.7940190,22.4809170,-67.6564865,-15.6183205,-14.6332855,-7.9654684,19.4982796,120.1984711,-94.6412201,-69.5038147
3840,0.8475431,7.1418672,-2.3989778,6.3511453,-68.8320618,-16.6717548,-19.4910965,-6.7755561,12.0188313,175.4809113,-101.1755753,-49.5114517
3850,-0.3854645,6.9263902,-1.5346755,-6.3282442,-69.0381699,-13.1603050,-19.6131992,-5.9256191,5.9375896,194.7251892,-109.1984711,-17.3435116
3860,-1.9895715,6.9910331,-0.8020535,-10.6259546,-73.9083939,-3.2519083,-19.6131992,-5.4970589,1.4245427,184.2748108,-117.1603088,15.0458012
3870,-2.7461352,7.4219875,-0.4118006,-8.7633591,-84.2442780,12.0610685,-18.6603127,-5.3965030,-0.4118006,159.5725250,-127.3282471,40.0381660
3880,-2.4540441,7.8026633,-0.1987177,-6.7786260,-94.1679382,25.6412220,-16.1703548,-4.9918852,-0.3950413,137.1984711,-132.3358765,58.4351158
3890,-1.8794388,8.6406298,0.4070122,-2.8396947,-99.7557220,34.0228996,-12.9741125,-3.7828193,0.2466015,117.8244247,-136.0458069,63.8778610
3900,-1.3646880,9.4283180,0.5195391,3.2595420,-100.5877838,34.7557259,-11.3316984,-2.6838863,1.1683644,97.2442780,-147.5267181,56.9618340
3910,-1.3718705,10.0101061,-0.0430954,5.3206105,-97.7709961,31.0458012,-10.3859940,-1.6280488,2.4971397,80.6488571,-158.7175598,48.2442741
3920,-1.8243724,10.6756907,-0.4620786,1.1526718,-90.6641235,25.1832066,-9.8281479,-0.2705434,4.1251884,68.9083939,-163.4351196,41.3893127
3930,-2.4660151,10.9701757,-0.7254394,-6.9236641,-82.2671738,20.3511448,-9.6916790,0.8020535,5.8322453,65.0457993,-162.1374054,34.0381660
3940,-2.9783716,11.0970678,-0.5362985,-15.8167934,-72.3969498,17.4503822,-9.8544836,1.4245427,7.1873569,69.0076370,-158.3969421,27.7938938
3950,-3.4332676,10.8983507,-0.1723816,-20.9770985,-60.9694672,18.1755733,-9.8449068,2.4109488,7.6877422,76.3740463,-155.4885559,21.9923668
3960,-3.8163381,10.7666702,0.0909792,-20.3740463,-49.6793900,24.3435116,-10.1010857,3.5218527,7.6757712,83.4427490,-147.7557220,18.9618320
3970,-3.7828193,10.8959560,0.0861908,-15.4809160,-41.6793900,33.0534363,-10.1058741,5.0206151,7.5536675,86.8396912,-134.5419922,20.9847336
3980,-3.1220231,10.9941177,-0.0430954,-7.3206105,-36.9236641,39.9083977,-9.7371683,6.6797886,7.8050575,90.0687027,-117.9160309,25.2137413
3990,-2.4109488,10.9893293,-0.3303981,1.7404580,-33.4961815,42.0534363,-9.3780403,7.8888540,8.1378498,93.2977066,-90.7786255,31.1984730
4000,-1.5538290,11.0850973,-0.8259954,10.2748089,-30.4122143,38.3282433,-9.7180147,8.7531567,8.2455883,96.7328262,-67.2137375,39.0687027
4010,-1.1803354,11.1234045,-1.1420283,16.3282452,-27.3358784,30.9847336,-9.9981356,9.6150646,8.1378498,97.7709961,-48.6488533,48.2977104
4020,-0.7900825,10.7954006,-1.5203103,20.1145039,-23.3893127,22.1221371,-10.3812056,10.1824875,7.7332320,92.4045792,-41.2061081,56.5801544
4030,-0.8403605,10.6302013,-1.9201399,20.5267181,-18.9312973,14.0992365,-9.9885588,10.3740225,7.6709828,82.7022934,-45.9083977,61.0228996
4040,-0.9672526,10.3835993,-2.2194135,17.9923668,-15.6564884,8.7328243,-8.7052727,10.5200682,8.3605099,73.9847336,-51.1755714,60.0992355
4050,-1.2521610,10.1537571,-2.1212518,14.8854961,-14.4809160,6.3740458,-7.9750452,10.2399483,8.5688038,72.0916061,-45.6183205,56.4503822
4060,-1.2162483,9.9813757,-2.0685797,11.8320608,-13.4885492,5.3435116,-7.5273318,10.4219065,8.8704720,77.1374054,-39.8091621,50.9160309
4070,-1.1396341,9.8042059,-2.0039365,8.4045801,-12.5343513,2.3664122,-7.5704269,9.9837704,8.9351149,88.6488571,-30.6717548,43.5038185
4080,-1.0438666,9.6629486,-1.7070571,5.7938933,-11.0687027,-1.3893130,-8.0564480,9.5001440,8.3509331,98.9007645,-22.0839691,44.3587799
4090,-0.7781116,9.5887289,-1.2162483,4.0458016,-6.6488547,-6.3969464,-8.1067257,8.8848372,7.4387465,110.5496216,-15.3587790,49.6641235
4100,-0.7230452,9.4187412,-0.9935886,3.1145039,1.4427481,-11.2900763,-7.5919747,8.4107876,6.6295104,119.4580154,-9.4503813,58.8167953
4110,-0.7637464,9.3110027,-0.7134684,3.4732823,10.8854961,-14.0763359,-6.9359670,7.9439206,5.4731169,123.6793900,-4.7099237,65.9694672
4120,-1.0271072,9.1841106,-0.7996593,3.0916030,21.3435116,-15.3664122,-6.3110833,7.3405848,4.4531922,122.7480927,1.6870229,74.1755753
4130,-1.3383518,9.1553802,-0.9528874,0.8854962,29.9618320,-15.3816795,-5.4419928,6.6007805,3.6774750,117.0457993,9.0916033,81.0534363
4140,-1.4580613,9.0739784,-1.0366840,-1.3816794,35.7938919,-14.0610685,-4.3813667,5.9902620,3.1315999,108.1221390,13.7328243,86.5038147
4150,-1.5083394,9.0284882,-0.8690908,-2.4427481,39.8931313,-11.0305347,-3.5122759,5.2839761,2.9687948,98.1755753,15.0916033,89.2748108
4160,-1.4843974,9.0404596,-0.8738791,-1.7633588,41.9160309,-6.8931298,-2.5522060,4.6973996,2.7628946,88.2366409,12.8931293,89.2977066
4170,-1.2808913,9.2200232,-0.9073978,-0.3358779,40.9160309,-2.2442749,-1.6807210,4.1371593,2.7676830,81.8854980,8.1068707,84.6564865
4180,-0.8786675,9.4522600,-0.7421987,1.8931298,37.6030540,0.6641222,-1.0845678,3.6439564,2.6479735,74.3740463,1.8625954,77.3053436
4190,-0.2801202,9.4570484,-0.6177009,9.4580154,27.5038166,1.6335878,-0.0981618,2.9544299,2.5330524,62.4351158,-11.6488552,58.4274826
4200,-0.0957676,9.4307127,-0.8068419,12.6641226,21.9847336,2.4045801,0.1460456,2.7197993,2.4827745,59.1603050,-13.2824430,47.6030540
4210,0.3950413,9.2415714,-0.9457048,16.2137413,15.2442751,4.3893127,-0.3256098,2.8059900,1.9345051,52.9312973,-14.4198475,30.3511448
4220,0.5482694,9.3421268,-1.2617378,15.6335878,12.8549614,5.0152674,-0.9289455,3.0454090,1.4389079,48.6488533,-14.6106873,28.0152664
4230,0.7493813,9.3540983,-1.4460905,12.3816795,11.1297712,5.4961834,-1.2330076,3.2967989,1.0486550,41.4427490,-16.1145039,27.2671757
4240,0.4525018,9.1410151,-1.6400198,-6.6717558,21.8702297,-3.7862597,-1.1348459,4.6423335,3.2249732,-22.3664131,-31.4809170,25.4045811
4250,0.0502780,9.1122847,-1.9680238,-10.5038166,24.5496178,-1.6870229,-1.3742647,5.3486195,4.0342093,-19.5038166,-26.7022896,19.3129768
4260,-0.3136388,9.3612804,-2.1643472,-14.7633591,25.2824421,1.9847329,-1.7190280,5.9328012,4.4077029,-15.2595415,-25.1603050,14.0076332
4270,-0.4285599,9.5959110,-2.2265961,-17.0458012,20.8625946,6.2977099,-2.1404054,6.7420373,4.3502421,-11.8854961,-27.7786255,8.5572519
4280,-0.3280039,9.7706871,-1.9440818,-16.1984730,12.8625956,10.4351149,-2.4851687,7.6446471,3.9935081,-12.6183205,-32.2213745,4.0305343
4290,-0.0119709,9.9095497,-1.8147956,-11.3969469,1.3053435,13.0305347,-2.7988074,8.4012108,3.7923961,-17.1297703,-38.1145020,0.5267175
4300,0.5195391,10.1561518,-1.7693061,-4.9847326,-11.1374044,12.7175570,-3.0094962,8.9183559,3.7684543,-24.0076332,-42.6412201,-2.1145039
4310,1.0271072,10.5009146,-2.0206959,0.6870229,-20.4351139,8.8244276,-3.1531475,9.4355011,3.8761928,-31.0229015,-43.4885483,-3.7557251
4320,1.2042773,10.5583754,-2.3079987,3.0076337,-22.9007626,3.4809160,-3.3877780,10.1082678,4.2568688,-35.6641235,-37.4809151,-5.5725193
4330,1.0390782,10.5296450,-2.6910689,1.4045801,-22.2213745,-1.6412214,-3.6535332,10.3524752,4.5585365,-40.5954208,-29.2061062,-5.7251906
4340,0.8978211,10.4410601,-2.7892308,-3.1526718,-20.1908398,-6.9236641,-4.0629396,10.9198980,5.6454988,-40.0458031,-19.9007626,2.2977099
4350,0.8283895,10.2710724,-2.7605004,-8.5648851,-17.1984730,-12.3129768,-4.1802549,10.9893293,5.9902620,-39.7099228,-5.8778625,14.7557249
4360,0.6392486,10.0891142,-2.7461352,-14.6946564,-14.6564884,-17.2366409,-3.8761928,10.6397781,6.4619174,-39.3893127,8.2824430,26.7557259
4370,0.3399749,9.7754755,-2.2840567,-19.0000000,-13.6106873,-20.4274807,-3.2704628,9.8712435,7.1658092,-36.2290077,22.7022896,35.1908379
4380,0.1460456,9.5552101,-1.7932479,-19.3893127,-16.0381680,-21.2977104,-3.0693510,9.0572186,7.8266053,-27.8625946,38.5267181,38.6870232
4390,0.0861908,9.2798786,-1.4867916,-16.7022896,-18.0076332,-22.0992374,-2.7605004,8.5281029,8.4467001,-15.5877867,50.8549614,39.0305328
4400,-0.1412572,9.1697454,-1.4532729,-12.9618320,-20.8778629,-22.6946564,-2.5067163,8.2527714,8.7603388,-2.8167939,56.9847336,35.7709923
4410,-0.1651991,8.9542685,-1.6687500,-9.9083967,-24.8167934,-23.7251911,-2.0422437,7.9918046,8.3844519,9.3664122,56.9618340,27.9007626
4420,-0.2992737,8.7340031,-1.9273225,-9.7328243,-28.7022896,-26.5038166,-1.5442522,7.6135225,7.7930865,19.3129768,53.0763359,16.0916023
4430,-0.5722113,8.4323349,-1.7836711,-11.3969469,-36.0916023,-28.3511448,-1.6208663,7.5440907,7.0915890,24.8473282,46.0076332,1.4809160
4440,-0.9313397,8.2958660,-1.1970947,-11.3435116,-45.7862587,-26.0381680,-2.0494261,7.7188668,6.2272868,26.2366409,37.7404594,-12.1068707
4450,-1.1611819,8.2264347,-0.6584021,-9.3816795,-52.6717567,-21.3740463,-2.7700772,7.9367380,5.3222833,23.6412220,27.7557259,-22.5496178
4460,-1.1204807,8.4371233,-0.3088504,-7.8396945,-55.7251892,-15.6641226,-3.4619980,8.2000990,4.4005203,16.6870232,14.2595415,-28.1221371
4470,-0.9193687,8.5759869,-0.1795642,-8.9236641,-53.2824440,-11.3893127,-3.5864959,8.2120695,3.7804251,5.6412215,2.4045801,-29.6183205
4480,-0.6416427,8.8489246,-0.0478838,-11.9389315,-47.4198456,-10.0381680,-3.2249732,7.9175844,3.7636659,-2.9618320,7.3129773,-29.7938938
4490,-0.5817881,9.1290445,-0.0023942,-16.5267181,-38.7709923,-11.0610685,-3.3949606,7.6973190,4.0581512,-5.0916033,25.7480907,-28.3358784
4500,-0.8236012,9.2846670,-0.1005560,-23.7480907,-31.2824421,-13.7938929,-4.0437860,7.4579000,4.8218975,-0.9389313,46.8167953,-23.6564884
4510,-1.0725969,9.4881725,0.1484398,-29.9694653,-25.9923668,-19.3893127,-4.3574247,7.3334022,5.1714492,5.8931298,64.2519073,-19.0152664
4520,-1.1683644,9.4331064,0.4884146,-34.2519073,-22.9770985,-27.5419846,-5.0086441,7.5704269,5.4874821,14.1297712,75.1221390,-13.6030531
4530,-1.5298871,9.2607250,0.7398046,-36.1374054,-20.1526718,-34.9923668,-5.3629842,7.5464849,5.2336984,19.5267181,73.5572510,-5.9389315
4540,-2.1739240,9.0452480,0.7374104,-36.4427490,-17.4732819,-38.1984749,-5.0780759,7.7260494,4.6997938,18.1297703,59.0687027,-1.2290076
4550,-2.7772598,8.8704720,0.6081241,-36.0305328,-14.6030531,-37.0610695,-4.3861551,8.0037756,4.3358769,11.3282442,39.1679382,-1.7709924
4560,-3.2728570,8.6190825,0.4884146,-34.9312973,-11.7022905,-31.3816795,-3.8019729,7.6925306,4.0078731,1.9160305,21.8854961,-6.2213740
4570,-3.4284792,8.3964224,0.4094064,-32.6488533,-10.4198475,-22.9160309,-3.1986370,7.3932571,3.9312592,-7.4732823,9.9847326,-12.2977095
4580,-3.1363883,8.2767134,0.2825144,-29.5114498,-8.5725193,-13.8549614,-2.9113343,7.3310080,4.2736282,-13.9618320,5.1374044,-19.3511448
4590,-3.0358322,8.2719250,0.1580165,-24.5267181,-5.7862597,-4.6259542,-2.8131726,7.5321202,4.9559722,-16.9694653,2.2671757,-23.3129768
4600,-2.7605004,8.4538832,-0.2537841,-19.1526718,-1.7022901,4.2213740,-2.7940190,7.6302819,5.4755111,-15.5725193,0.9389313,-24.7022896
4610,-2.4205256,8.7435799,-0.7230452,-16.1297703,4.7022901,10.0992365,-2.3343346,8.0779953,5.9471664,-10.9083967,1.4503816,-25.8778629
4620,-2.0446377,9.1386213,-1.4221486,-16.9007626,13.9312973,12.1526718,-1.2545552,8.7866755,5.9687142,-5.2977099,3.2748091,-26.7022896
4630,-1.9129574,9.2487535,-1.7573351,-20.3740463,24.9465656,11.9007635,-0.2035061,9.6246414,5.7197185,-0.3282443,6.4503818,-27.7175579
4640,-1.9009864,9.4163475,-2.0063307,-25.6564884,35.1374054,9.5801525,1.2737088,10.8289185,5.0254035,3.3816793,3.3129771,-30.0610695
4650,-2.5186872,9.5145092,-2.3223639,-32.5725174,42.4732819,8.4351149,2.9352763,12.1457233,3.9911139,5.3969464,-0.8091603,-35.2519073
4660,-2.9807658,9.5911226,-1.8315549,-37.5114517,42.5954208,10.7251911,4.6279683,12.9980545,2.3798244,4.4885497,-0.5496183,-43.4351158
4670,-3.2513094,9.7970228,-1.0821736,-35.8931313,34.7099228,14.3740454,6.8809004,14.1783895,0.6943150,1.8778626,6.7862597,-56.7938919
4680,-3.2106080,10.0244713,-0.2777260,-26.9618320,22.4961834,17.8854961,8.3222027,14.3028879,-0.8164186,-7.6488547,18.1984730,-79.9847336
4690,-2.9113343,10.1585455,0.1675933,-14.4656487,10.7480917,19.9694653,8.6095057,14.3818960,-1.5274929,-24.2366409,41.4122124,-111.8931274
4700,-2.7197993,10.3117743,0.2920911,-2.9618320,2.2671757,21.2748089,7.1442614,14.3531656,-0.7062859,-38.0992355,68.9847336,-149.9847260
4710,-2.5857246,10.5057030,0.1340746,4.5038166,-0.9236641,23.4580154,3.3351059,14.3627424,1.0007712,-43.0687027,94.8473282,-179.6106873
4720,-2.5282640,10.7666702,-0.0215477,7.7022901,0.4045801,26.2824421,-1.8339491,15.2150736,2.2146254,-39.6564903,111.9694672,-194.0763397
4730,-2.0470319,11.0348196,-0.1197095,7.4045801,5.0458016,28.2061062,-6.5050125,15.4664640,1.8267666,-35.5725174,114.7404556,-187.6564941
4740,-1.8459201,11.3029680,-0.0550664,5.6488547,10.9541988,28.3511448,-8.7770987,15.1695843,0.5219333,-35.9160309,105.2519073,-167.1221313
4750,-1.7190280,11.4226780,-0.0478838,2.8702290,15.8702288,27.2519093,-8.6166878,14.8487625,-1.7669119,-41.4732819,98.6717529,-145.4198456
4760,-1.5059452,11.5399933,0.0766141,-0.0763359,19.7022896,25.3816795,-7.8289995,13.9557304,-4.4843168,-54.6717567,114.2595444,-128.3740387
4770,-1.2737088,11.5328102,0.3806761,-1.3511450,23.7633591,22.4045811,-7.0269461,12.3157110,-6.9335728,-74.1374054,144.6564941,-113.1450348
4780,-1.1779412,11.6309719,0.7493813,0.4503817,28.1755733,19.5114498,-7.3597383,10.1130562,-8.3102312,-95.6564865,187.1068726,-100.1679382
4790,-1.2497669,11.6429434,0.6177009,3.1679389,31.5190830,16.2213745,-8.2479830,6.9168134,-8.5951405,-117.7633591,232.7328186,-89.3816757
4800,-1.2713146,11.7865944,0.3639168,4.5038166,33.6183205,13.3282442,-9.0165176,3.2704628,-8.3533268,-135.7251892,250.1297760,-88.1603088
4810,-1.3215926,11.6261835,0.2801202,3.9389312,36.7633591,10.7404585,-10.4602137,-1.1731528,-8.1402445,-147.8625946,250.1297760,-89.9465637
4820,-1.4365137,11.4992924,0.4860204,3.9770992,38.5114517,7.9847326,-12.6293497,-5.9663200,-8.3245964,-158.2442780,250.1297760,-98.2977066
4830,-1.7573351,11.4561968,0.2298422,7.7786260,26.3587780,4.6870227,-15.2701406,-10.8313131,-9.1051025,-175.7251892,250.1297760,-106.5038147
4840,-1.1923064,11.0563669,1.1109039,13.1526718,27.2748089,0.3053435,-18.2532997,-15.1863441,-8.7459745,-202.6259613,250.1297760,-109.6793900
4850,-1.1899122,10.4099360,0.9552816,19.8854961,29.6412220,-0.1908397,-19.6131992,-18.6435528,-6.9910331,-231.3358765,250.1297760,-104.0992355
4860,-1.1300575,10.2231894,1.1228749,28.4732819,23.2748089,1.7709924,-19.6131992,-19.6131992,-2.4564383,-247.0381622,250.1297760,-85.2213745
4870,-0.2968795,9.7491398,1.4197544,40.7404594,13.3969469,0.7633588,-19.6131992,-19.6131992,1.9728121,-240.9313049,250.1297760,-62.7404594
4880,0.1963235,9.1098909,1.1659702,53.0992355,1.8625954,-3.4961832,-19.6131992,-17.0346584,7.3597383,-208.2748108,250.1297760,-38.9694672
4890,0.0622489,8.6693602,0.3926471,60.1679382,-5.2366414,-6.0916033,-19.6131992,-11.9709473,13.6229382,-154.3358765,250.1297760,5.1221375
4900,0.0981618,8.2767134,-0.5171449,59.2442741,-13.8625956,-6.8625956,-19.6131992,-7.3453732,19.4384251,-95.8320618,250.1297760,68.1068726
4910,0.2274480,7.8194227,-0.8714849,54.6183205,-19.4503822,-7.1755724,-19.6131992,-4.8290801,19.6126022,-45.3587799,250.1297760,121.2824402
4920,0.3351865,7.4171991,-0.8547257,48.5572510,-22.4809170,-6.2366414,-16.8934002,-4.5322008,19.6126022,12.0839691,214.5496216,129.5190887
4930,0.9050036,7.1251078,-0.6631905,42.0305328,-22.9541988,-5.2595420,-13.9485474,-4.4316444,19.6126022,78.0000000,56.1984749,110.4503784
4940,1.4101776,6.9120250,-0.6967092,35.0458031,-18.5572510,-7.3053436,-11.5711174,-4.2712340,15.7465839,123.3587799,-93.4885483,78.3206100
4950,1.6472024,6.7875271,-0.5985473,28.4274807,-11.9007635,-11.4656487,-10.3381100,-4.9152708,8.3437500,139.4656525,-197.7786255,52.4198456
4960,1.5921360,6.4714942,-0.7781116,20.0381680,-6.0305343,-15.7099237,-8.6214762,-5.2743993,1.8195840,141.8854980,-245.2900696,21.7022896
4970,1.3431402,6.0740585,-1.0725969,11.2519083,-1.4351145,-18.4045811,-9.5935173,-4.6303625,-2.1667414,132.2519073,-250.1374054,-6.0152674
4980,1.1372399,5.8537931,-1.3718705,1.4656489,3.0763359,-18.6793900,-12.7394819,-3.7181761,-4.2760224,119.4732819,-247.2900696,-11.4274807
4990,0.9816177,6.0046272,-1.5131277,-7.7633586,8.8625956,-18.2900772,-15.0570574,-3.4165084,-4.8649931,109.1221390,-240.1679382,5.2977099
5000,0.7038917,6.0405402,-1.6855093,-16.9847336,13.0152674,-19.7786255,-15.7896795,-3.2489152,-5.2097564,99.3664093,-231.6030579,31.8244267
5010,0.2513899,5.9639258,-1.8866212,-28.0229015,16.0381680,-21.0381680,-14.6500454,-3.3422885,-4.9296360,92.0916061,-221.1374054,57.4045792
5020,-0.6009415,6.2895355,-2.1284344,-39.5954208,21.9694653,-18.3206100,-12.6101961,-3.6224086,-4.5298066,85.9083939,-204.4809113,75.9923630
5030,-1.3982066,6.7851329,-1.9991482,-50.6488533,26.8473282,-9.7480917,-10.4673967,-2.9161227,-4.5274124,79.3282471,-190.1145020,80.1526718
5040,-2.7437410,11.4897156,5.3629842,51.7709923,-40.8473282,16.5648861,-14.0538921,9.3924055,2.9304879,35.0916023,-89.8396912,39.5572510
5050,-1.3790531,10.0412302,1.3790531,105.9465637,-70.4122162,29.1603050,-13.3092995,8.8489246,2.7605004,38.1984749,-61.4274826,74.9389343
5060,-0.3998296,9.3325500,-0.7757174,102.4274826,-63.3893127,29.6717548,-12.0164366,8.1905222,2.2625091,34.0610695,-59.8091621,88.1755753
5070,0.3615226,7.3860745,-2.2625091,13.5801525,-1.5114504,15.2519083,-6.9144192,6.4164276,3.1268115,-3.2595420,-49.6106873,105.9770966
5080,0.1221037,7.0724359,-1.7788827,-3.3664122,8.6564884,11.2213745,-5.1546898,6.5217719,4.6734576,-3.7786260,-33.1679382,110.6412201
5090,-0.0407012,6.9407554,-1.2641320,-14.6870232,15.0152674,8.1908398,-3.7397239,6.1746144,6.2272868,8.3740454,-6.5877862,113.5801544
5100,-0.0694315,6.7875271,-0.9073978,-21.5267181,18.6793900,5.7022901,-2.8873925,5.5880380,7.0915890,29.5343513,18.7328243,113.5725174
5110,-0.3064562,6.8018923,-0.4644727,-25.6030540,19.0076332,3.8854961,-2.3175755,5.5640965,6.7204900,53.1374054,34.0458031,108.5801544
5120,-0.3998296,7.0796180,-0.0790083,-25.9770985,16.7480907,3.4580152,-2.0039365,5.8059096,5.5210009,72.9236679,43.0228996,99.5572510
5130,-0.3495516,7.3286138,0.1508339,-23.8015270,13.4122133,3.2977099,-2.1164634,6.0261750,3.8690102,83.9236679,47.4809151,89.8091583
5140,-0.1987177,8.1306677,0.2370248,-19.5954189,10.6488552,1.6641221,-2.4492557,6.4140334,2.5019281,84.8320618,44.4580154,81.4885483
5150,-0.1723816,8.6765423,-0.0478838,-16.3664131,8.2900763,-2.6259542,-2.9233053,6.8689294,1.3934183,75.8091583,31.4122143,73.8931274
5160,-0.2250538,9.2726955,-0.3160330,-14.6412210,8.4274807,-7.8167939,-2.9568241,7.0891948,0.6440369,60.6870232,11.0076332,67.2366409
5170,-0.5339043,9.8042059,-0.7829000,-15.5343513,8.4198475,-12.1374044,-2.7892308,6.9144192,0.2298422,42.4961815,-8.9083967,60.0458031
5180,-0.8283895,10.3548698,-0.9935886,-20.0152664,7.7862597,-13.7328243,-2.9448531,6.7707677,0.3495516,25.3129768,-26.4656487,51.5038185
5190,-1.0438666,10.7427282,-0.8259954,-24.5648861,5.9923663,-13.8015270,-3.0023136,6.8186517,1.0678085,11.8091602,-36.3053436,44.7938919
5200,-1.0797794,10.9510221,-0.3591284,-26.0687027,4.1832061,-13.1374044,-3.1579359,6.5098009,2.1356170,6.0916033,-33.5725174,41.9389305
5210,-1.1707586,11.2095947,0.2011119,-23.9618320,2.0000000,-12.6946564,-3.4572096,6.6366930,3.5984666,9.8244276,-20.9083977,40.3206100
5220,-1.3287752,11.4298601,0.5913648,-19.0610695,-0.1908397,-11.4503813,-3.4907281,6.7875271,4.3741841,23.4045811,-0.2748092,38.4885483
5230,-1.2856797,11.3700056,0.7709290,-13.4503813,-1.6030535,-9.2748089,-4.0485744,6.5433197,3.9049230,40.8778610,21.1908398,36.5267181
5240,-1.2282192,11.4945040,0.8044477,-8.9236641,-2.7862597,-7.0992365,-5.5377603,6.5050125,2.3822186,51.6412201,35.9236641,42.3893127
5250,-1.1037214,11.3460636,0.8762733,-4.6641221,-3.3969467,-5.8167939,-6.5002246,6.6079631,1.0055596,47.7175560,36.8167953,54.6564903
5260,-1.0797794,11.1545286,1.1492109,-0.6793893,-4.4961834,-4.5190840,-6.4619174,6.3829093,-0.1077385,30.8854961,19.7480907,68.0381699
5270,-1.0749911,11.0755205,1.3215926,3.7099237,-5.0687022,-2.1450381,-5.4372044,6.2967181,-0.1580165,2.3206108,-2.9618320,73.3664093
5280,-0.9217629,10.8169479,1.4700323,8.8091602,-6.4732823,0.2595420,-5.1762376,5.8801293,0.2513899,-28.9694653,-33.4580154,73.0152664
5290,-0.7493813,10.5272512,1.3718705,14.0610685,-7.9541984,2.3511450,-3.9168940,6.1554613,1.2521610,-55.1755714,-62.2290077,72.1908417
5300,-0.6416427,10.4027529,1.3215926,19.0458012,-9.2137403,3.9083970,-1.6639616,6.6247220,2.4899571,-72.4351120,-77.3893127,65.0305328
5310,-0.5961532,10.1609402,0.9121862,22.2366409,-10.6870232,5.9389315,-0.0837966,6.5074067,3.5673423,-81.4351120,-79.3969498,54.4198456
5320,-0.5578461,9.8329363,0.5434810,23.2900772,-13.2519083,8.3740454,0.4213773,6.4260044,4.6040263,-81.1221390,-71.4961853,42.1984749
5330,-0.2753318,9.6078825,0.2442073,23.2366409,-16.9465656,10.1832066,0.3447633,6.7276726,5.5114241,-71.2595444,-53.5343513,29.8549614
5340,0.0000000,9.3876171,0.1747758,22.2748089,-21.2519093,10.7633591,-0.4405309,6.9814563,6.1746144,-54.9236641,-28.1145039,21.5419846
5350,0.4525018,9.0428534,0.2226596,21.3664131,-25.7175579,9.1374044,-1.5370697,7.3238254,6.0094156,-38.3206100,-10.2290077,17.7099228
5360,0.7398046,8.7531567,0.1628049,20.3435116,-28.1755733,5.5267177,-2.8419030,7.8601241,5.3294659,-27.4045811,-1.9465649,17.4351139
5370,0.6464311,8.4443064,0.0191535,18.8778629,-27.9389305,1.2977099,-4.1874375,8.2934723,4.5417776,-25.4809170,-1.5267175,20.4885502
5380,0.3375807,8.3198080,-0.2753318,15.3816795,-25.8473282,-2.2366412,-4.8649931,8.4514885,3.9384418,-31.3435116,-8.1832066,25.3206100
5390,0.0191535,8.2671366,-0.7086801,8.3587790,-20.6870232,-4.9541984,-4.6064205,8.5304966,3.7540891,-41.3435097,-16.2061062,28.0229015
5400,-0.3950413,8.1977043,-0.9289455,-1.1297710,-13.2977095,-6.9007635,-4.0892754,8.5041609,4.0437860,-53.5267181,-24.4732819,27.5343513
5410,-0.7278336,8.0875721,-0.8882443,-10.7099237,-6.8625956,-8.3587790,-3.9767487,8.1665802,4.8123207,-63.1221390,-28.4656487,23.4503822
5420,-1.2210367,8.1881275,-0.7206510,-18.2977104,-2.5954199,-8.0305347,-3.9121056,7.9271612,6.0285692,-62.7938919,-20.6412220,21.2519093
5430,-1.5466464,8.1378498,-0.3758878,-21.3206100,-0.6259542,-4.9312978,-4.2712340,7.6733770,7.1251078,-50.8702278,-3.0763359,21.0687027
5440,-1.6065011,8.3485384,-0.2035061,-20.6793900,-0.6488550,-1.1603054,-4.5705075,7.3669209,7.5656385,-31.6259537,16.1145039,21.6793900
5450,-1.5849534,8.6573887,-0.2513899,-18.2366409,-2.2137403,1.2213740,-4.8099265,7.3549500,7.3310080,-11.3282442,30.2977104,21.5725193
5460,-1.5466464,9.1003141,-0.4477134,-16.5343513,-4.4274807,2.3206108,-5.3222833,7.5943689,6.4020624,6.1450381,36.8167953,19.6335869
5470,-1.4724265,9.6701307,-0.8643024,-16.9923668,-6.4656487,1.9160305,-5.4683285,7.8002691,5.3558016,16.4732819,34.9771004,19.4809170
5480,-1.3096216,10.1298151,-0.6799498,-19.8244267,-7.5877862,-0.9312977,-5.7221127,8.1210909,4.0820932,17.1832066,28.4427490,18.2748089
5490,-1.0773853,10.3979645,-0.4046180,-23.3206100,-5.9389315,-5.8015265,-6.3254485,8.5903521,2.9903426,7.4122138,21.6183205,20.9847336
5500,-0.9528874,10.4626083,-0.3184272,-27.4732819,-2.1832061,-11.0534353,-6.3422079,8.7124557,2.7509236,-7.7099237,14.2061071,24.8931293
5510,-1.0007712,10.4506369,0.0263361,-31.4656487,0.8473282,-15.9770994,-5.9399838,8.6621771,3.3494711,-22.1297703,9.5496187,31.4351139
5520,-0.9097920,10.2806492,0.4501076,-34.0305328,3.0305343,-20.1755733,-5.2265158,8.6166878,4.7237358,-30.4427490,9.8854961,36.8473282
5530,-0.9289455,10.0101061,0.7948709,-34.2748108,3.8320611,-21.6564884,-4.6782460,8.4562769,5.9639258,-29.5496178,14.8167934,42.3358765
5540,-1.1635761,9.7180147,1.0175306,-31.5038166,1.3435115,-20.2671757,-3.8761928,8.2743187,6.8018923,-20.3053436,18.4885502,46.3206100
5550,-1.2952565,9.4738073,1.2138541,-26.4274807,-5.6259542,-16.3282452,-2.9280937,8.1354561,6.9718795,-7.8320613,20.3740463,46.5267181
5560,-1.4101776,9.2080526,1.2377959,-19.4732819,-15.7099237,-9.5725193,-2.2672975,8.2575598,7.1514440,4.4809160,21.9770985,41.1755714
5570,-1.0989330,9.0476418,1.2737088,-11.0992365,-26.6946564,-0.5267175,-2.0278785,8.4874020,6.9096308,16.8778629,21.6564884,33.3129768
5580,-0.6296718,8.9375095,1.2784972,-3.1450381,-35.6412201,8.9007635,-2.3079987,8.6478119,6.9407554,30.2061062,19.0916023,24.6870232
5590,-0.0287303,9.0021524,1.0390782,4.2213740,-42.8702278,17.0916023,-2.9879484,9.1122847,6.3374195,44.3664131,14.8320608,16.8473282
5600,1.5705882,9.5145092,0.3351865,7.0763359,-48.4656487,25.6030540,-3.6391680,10.0292597,4.8242917,63.2366409,9.4198475,9.5572519
5610,1.8267666,9.4259243,0.3543400,-8.7328243,-25.3664131,1.2213740,-4.4675574,10.3045912,2.2792683,36.1068687,12.6946564,33.1068687
5620,0.6320660,9.0644016,0.0215477,-13.3969469,-16.2824421,-3.3358779,-4.4005203,10.1226330,2.8419030,26.3664131,13.8702288,41.6641235
5630,-0.5386927,8.7962523,-0.2059003,-18.4885502,-8.4961834,-2.4045801,-3.9192882,9.5599985,3.4093258,20.6106873,13.5725193,49.7251892
5640,-1.6591733,8.7938576,-0.2011119,-21.1984730,-3.0992367,4.0839696,-3.2082138,8.9758167,3.7995787,19.0076332,11.9923668,54.3053436
5650,-2.5138988,8.9399033,-0.1460456,-18.7328243,-0.8854962,13.9083967,-2.5162930,8.5999289,4.0605454,20.4198475,10.3511448,55.3969460
5660,-2.8562679,9.4618368,-0.3184272,-14.6030531,-2.0534351,23.4732819,-1.9033806,8.3557215,4.3574247,22.6564884,7.8015265,52.4045792
5670,-2.7221935,10.0125008,-0.5889706,-11.6717558,-8.5954199,29.3893127,-1.6591733,8.1977043,4.3119354,23.2442741,4.0992365,46.1832047
5680,-2.4540441,10.5128860,-0.4572902,-10.4045801,-15.6641226,31.0229015,-1.7717001,8.2264347,4.2401094,23.2519093,-3.7099237,38.9312973
5690,-1.8985922,10.8313131,-0.1628049,-9.0992365,-20.9618320,28.1832066,-1.7070571,8.3964224,4.0389977,22.5419846,-12.4809160,33.8396950
5700,-1.6041069,11.1808643,0.2489957,-9.2824430,-22.0916023,22.5038166,-1.4532729,8.5903521,3.8881636,20.8473282,-22.9236641,29.4274807
5710,-1.4556671,11.4346485,0.8403605,-9.6259546,-19.0687027,15.5725193,-0.9289455,8.7675219,3.7038112,18.4351139,-33.7633591,26.3587780
5720,-1.4245427,11.6237898,1.3886299,-9.3282442,-13.2824430,9.6259546,0.2466015,9.1697454,3.7660601,18.0687027,-40.1374054,21.7480907
5730,-1.5729824,11.6453371,1.7046629,-9.6488552,-6.9312978,6.0916033,1.5059452,9.8233595,3.7828193,21.5190830,-41.9618340,13.6717558
5740,-1.4413021,11.5543585,2.1116750,-9.3816795,-0.8702290,4.0610685,3.0669568,10.6852674,3.8905578,28.0229015,-39.3511467,0.9465649
5750,-1.2449785,11.4753504,2.7126167,-6.1908398,5.2137403,2.7480917,4.4603748,11.8129311,3.6655040,36.6717567,-28.9618320,-17.6946564
5760,-1.1013272,11.4178896,2.9520357,-0.5267175,10.6030531,2.7557251,5.3007355,12.8927097,3.4189026,46.2900772,-12.9694653,-38.4809151
5770,-0.6272776,11.2933912,2.6982515,13.1374044,15.3511448,3.0534351,4.5681133,14.1017761,2.5091105,68.5038147,24.5877857,-76.3435135
5780,-0.4094064,11.1832590,2.4109488,17.2900772,14.2290077,1.3740458,2.8778157,14.6548338,2.1858950,78.0229034,31.0458012,-83.5496216
5790,0.0119709,11.0731258,2.4013720,20.4351139,12.5343513,-1.5725191,1.5825592,15.2246504,1.7836711,85.8625946,30.1145039,-77.4427490
5800,0.3160330,10.9749641,2.4037662,24.1679382,12.5343513,-6.1832061,1.3120158,15.3036594,0.9385223,90.3740463,27.5190830,-66.7709961
5810,0.3926471,10.7738523,2.1212518,27.4885502,14.3511448,-10.2366409,2.5976956,15.1504307,-0.2561783,90.2442780,25.3587780,-58.5343513
5820,0.4261657,10.4817610,1.9895715,30.2519093,15.6717558,-11.9465647,4.0629396,14.9277716,-0.9911944,93.0076370,29.2213745,-62.5725174
5830,0.4860204,10.2327662,2.0015423,33.0916023,16.7709923,-12.3893127,4.4579806,14.6428623,-1.6902977,92.3816757,37.6641235,-73.7022934
5840,0.4812321,9.9741936,1.8315549,37.1603050,16.8625946,-12.8931293,3.8378856,14.7529955,-1.8004304,89.6717529,46.4351158,-81.0381699
5850,0.2681492,9.8113880,1.4125718,40.6946564,16.9923668,-12.3893127,2.9352763,14.6356802,-1.3910241,89.8702316,57.6106873,-81.0839691
5860,0.3639168,9.5576038,0.9121862,42.3358765,16.8702297,-12.2213745,1.9153515,13.8886929,-1.3407460,90.1221390,68.3511429,-74.8702316
5870,0.2657550,9.3971939,0.3830703,41.3969460,16.7175579,-12.4961834,1.0821736,13.4266148,-1.6208663,91.5419846,71.0457993,-66.9083939
5880,0.0574605,8.3102312,-0.2154770,32.2595406,1.7404580,-12.7709923,8.7483683,9.9454632,-4.2903876,3.4961832,7.0763359,-147.2442780
5890,-0.0550664,8.1091194,-0.1244979,31.4503822,-2.1221373,-12.8702288,7.6997132,8.5879574,-4.0174499,17.8625946,82.8473282,-166.0000000
5900,-0.1460456,7.9367380,-0.2657550,30.9923668,-5.7709923,-11.7022905,5.4587522,7.2448173,-4.3478479,45.6030540,168.7786255,-177.0763397
5910,-0.2154770,7.8816719,-0.4932030,28.0000000,-8.0458012,-10.3740454,3.0478032,5.5425487,-5.6646523,71.9007645,241.2900696,-185.1450348
5920,-0.2154770,7.7667508,-0.5650287,22.8549614,-9.1450386,-8.9847326,1.0247130,3.0525916,-7.4171991,83.9312973,250.1297760,-198.6412201
5930,-0.1987177,7.6877422,-0.4477134,17.0152664,-8.5877867,-7.8702292,-1.6400198,0.6727672,-8.9949694,79.5648880,250.1297760,-215.2824402
5940,-0.1867468,7.6015515,-0.3375807,10.8549614,-6.7022901,-7.6106873,-4.2784166,-2.0015423,-9.6461897,59.8244286,250.1297760,-232.7099304
5950,-0.4429250,7.5728211,-0.2394189,4.7938933,-3.1297710,-7.5954199,-7.0460997,-4.6399393,-9.1888990,32.2900772,239.2519073,-250.1374054
5960,-0.6512195,7.6566176,-0.1963235,-1.5801526,1.4732825,-7.7786260,-10.4793673,-7.9056134,-8.6310530,2.1297710,188.5954132,-250.1374054
5970,-0.9959828,7.7021074,-0.2920911,-8.0381680,6.0076337,-6.3282442,-14.7290535,-10.7714586,-8.4658537,-28.1068707,132.6717529,-250.1374054
5980,-1.3646880,8.1234846,-0.2705434,-14.3129768,9.1450386,-2.0687022,-19.2277355,-13.0172081,-8.4826136,-59.0228996,72.1984711,-250.1374054
5990,-1.5825592,8.5759869,-0.3040621,-19.2366409,11.8778629,3.4809160,-19.6131992,-14.2741575,-7.8026633,-89.6793900,24.0534344,-220.6793823
6000,-1.6639616,9.1697454,0.1268920,-20.8396950,13.1908398,7.9465647,-19.6131992,-15.4161863,-6.7396431,-121.7251892,5.9541984,-193.4732819
6010,-1.6352314,9.8042059,0.4357425,-17.6717548,13.1908398,11.7557249,-18.3730106,-15.7441902,-5.4228392,-159.3053436,9.9312973,-188.8244324
6020,-1.7597293,10.4650021,0.5051740,-11.8320608,11.8473282,16.3893127,-16.9556503,-14.3651371,-2.8227494,-207.7251892,16.5419846,-201.6106873
6030,-1.5945302,11.1281929,0.4285599,-4.9847326,10.6564884,21.1374054,-17.0585995,-11.2239599,1.5705882,-250.1374054,25.9160309,-212.9618378
6040,-0.9983770,11.6477318,0.2729376,2.4198472,9.8625956,22.4580154,-18.4496231,-7.8266053,8.5544386,-250.1374054,40.7786255,-206.8396912
6050,-0.6655847,11.9015160,0.0742199,9.5725193,8.9618320,20.6030540,-19.6131992,-5.2743993,16.4720230,-250.1374054,51.5877876,-174.0000000
6060,-0.3519458,12.0738974,-0.3399749,14.3206110,8.4351149,17.8625946,-19.6131992,-3.4931223,19.6126022,-239.9084015,37.1526718,-123.3816757
6070,-0.0598547,11.7626524,-0.7757174,16.4809170,8.0687027,14.6259546,-19.6131992,-1.4365137,19.6126022,-164.3893127,6.0610685,-72.9312973
6080,0.1077385,11.6836443,-0.8571198,16.0000000,8.0839691,11.2977095,-19.6131992,-0.8116302,19.6126022,-75.1755753,-124.3358765,-2.8931298
6090,0.3184272,11.3724003,-0.8619082,16.4580154,7.1374044,5.9694657,-19.6131992,-3.8283088,19.6126022,24.9389305,-235.2442780,85.4885483
6100,0.3375807,10.9366570,-0.8523315,16.9083977,6.2671757,2.5419848,-18.0593719,-5.6742291,14.9565020,94.1755753,-250.1374054,132.4351196
6110,0.2513899,10.4266949,-0.7326220,17.5114498,5.9923663,0.4732825,-12.1672707,-7.1849627,7.4962072,131.2061005,-250.1374054,137.1984711
6120,0.2561783,10.0053177,-0.8834559,17.8473282,5.5648856,-1.0381680,-8.3437500,-7.6638002,1.6160779,145.6641235,-250.1374054,115.2824402
6130,0.1556223,9.5384512,-0.8307837,17.7786255,5.0381680,-2.5419848,-7.9511032,-6.3230543,-1.9680238,144.7938995,-222.0610657,83.6335907
6140,0.0670373,9.1481981,-1.0223188,16.9389305,4.5648856,-3.5038168,-10.0101061,-3.9408360,-4.0940638,129.0000000,-183.7251892,59.4809151
6150,-0.0718257,8.7723103,-1.0510491,14.8091602,4.0458016,-4.0152674,-12.9046812,-2.1954718,-4.8242917,101.6030502,-179.7862549,56.3664131
6160,-0.2298422,8.3988171,-1.0223188,12.4961834,3.0076337,-3.6946564,-14.3675308,-0.7733232,-4.8649931,72.9236679,-188.8473358,69.4732819
6170,-0.2729376,8.1234846,-1.0318956,9.4580154,2.0839694,-2.4427481,-13.4242201,0.9600700,-4.1419477,45.9312973,-202.0229034,82.0839691
6180,-0.3830703,7.9080076,-0.9576758,6.3129773,1.1374046,-0.9465649,-11.6956158,1.6902977,-2.6862805,30.3740463,-212.1526642,87.3435135
6190,-0.4381367,7.6949248,-0.9289455,2.6335878,0.1145038,0.5343512,-9.7611103,2.5186872,-1.7621235,24.0763359,-213.8625946,81.7557220
6200,-0.3710994,7.5416965,-0.9169745,-1.3816794,-1.2519084,1.9770992,-8.1402445,3.8857694,-1.2569494,21.3893127,-210.5343475,68.2977066
6210,-0.3495516,7.4698710,-0.8738791,-5.6488547,-2.2290077,3.9236641,-7.0676475,5.0828643,-0.7589580,19.9923668,-202.7480927,52.0992355
6220,-0.4141948,7.3477674,-0.6847382,-9.7862597,-2.5267177,6.1068702,-6.8234401,6.2751703,-0.2944853,21.1526718,-189.2748108,33.8167953
6230,-0.3112446,7.4818420,-0.5506636,-12.8931293,-1.9618320,9.1374044,-7.2783360,7.2041159,0.2130829,24.5877857,-169.2595367,17.3358784
6240,-0.1987177,7.8529415,-0.4165890,-15.3664122,-0.5114504,12.2442751,-9.0428534,8.0875721,0.7302278,28.7862587,-151.7557220,7.4274807
6250,-0.0598547,8.2910776,-0.6368544,-17.8549614,1.7557251,13.7404585,-11.1162214,8.8130112,1.0055596,31.6259537,-138.1679382,7.1832061
6260,0.1101327,8.6693602,-0.7685348,-21.7480907,3.2824428,14.0687027,-12.4497852,9.3373384,1.1085097,33.0610695,-134.9694672,15.7633591
6270,0.1316804,9.1027079,-0.7158626,-25.2748089,4.5877862,13.0839691,-12.6485033,9.9167328,0.8427547,30.8473282,-134.9770966,27.7251911
6280,0.0526722,9.6294298,-0.6009415,-27.2290077,5.1679387,11.5114508,-12.6006193,10.0316534,0.3208214,20.1832066,-134.8167877,39.0458031
6290,-0.0957676,10.0819321,-0.5099624,-28.0763359,4.8015265,10.1221371,-11.5280218,10.2878323,0.3351865,1.6106870,-135.3282471,48.8320618
6300,-0.1268920,10.4362717,-0.3064562,-26.8625946,2.8091602,9.0000000,-9.6509781,10.8001890,1.5634058,-15.7175570,-132.9389343,56.9389305
6310,-0.1771700,10.6876621,-0.1101327,-22.5038166,0.0610687,8.8015270,-8.2743187,10.4075413,3.3590479,-21.0076332,-112.2671738,63.5725174
6320,-0.1795642,10.8959560,-0.1029501,-16.4961834,-4.2519083,9.4961834,-7.4866304,9.5384512,5.0421629,-14.0305347,-80.0992355,69.7404556
6330,0.0023942,10.8863792,-0.0215477,-9.9389315,-8.8473282,9.8396950,-7.1442614,8.8824425,6.2871413,0.3053435,-49.5572510,73.8854980
6340,0.1053443,11.2670555,-0.2825144,-3.3740458,-12.1374044,10.8473282,-6.7659793,8.5448618,7.2208753,19.2061062,-25.6183205,77.8854980
6350,0.3734936,11.0779142,-0.5554519,0.2137405,-16.0381680,8.0992365,-6.9048424,8.2695303,7.3525558,36.6488533,-9.0610685,80.8625946
6360,0.3495516,11.1425581,-0.9265513,-0.6641222,-16.2671757,6.7709923,-6.9335728,8.2288294,6.9000540,49.0076332,-2.9160306,83.0687027
6370,0.2130829,10.9462337,-1.0654143,-2.9770992,-15.8702288,4.8778625,-6.7157016,8.1665802,6.3446021,54.2213745,-5.7709923,83.6717529
6380,-0.1628049,10.6900558,-0.8427547,-6.4427481,-15.1068707,3.1450381,-6.4619174,7.6111283,5.6263452,50.8854980,-4.3587785,83.4580154
6390,-0.4572902,10.2734671,-0.5698171,-10.0458012,-13.3206110,3.3282442,-6.4499464,7.1634150,5.9256191,44.0534363,3.4351146,79.8015289
6400,-0.7158626,9.8305416,-0.0263361,-11.9007635,-11.8625956,6.4503818,-6.8952656,7.0556765,7.0197635,41.4732819,7.0229006,79.6259537
6410,-0.7709290,9.5719690,0.6129125,-8.3893127,-10.8244276,11.3816795,-7.1682034,6.6151457,8.0468712,46.9923668,10.7786255,83.8702316
6420,-0.5769997,9.5576038,1.0534433,-0.3435115,-10.4580154,16.3053436,-6.5744443,6.2320752,8.4371233,61.2900772,10.6030531,90.9770966
6430,0.0622489,9.7515335,0.0430954,13.4656487,-14.3511448,20.6946564,-3.8929520,5.9351954,6.1339135,98.8320618,4.0458016,101.2213745
6440,0.4692611,9.8353300,-0.4596844,12.8244276,-17.1603050,18.4351139,-2.5426292,5.6598639,3.9408360,108.8625946,6.1145039,102.5725174
6450,0.9050036,9.9909525,-0.5961532,9.5114508,-19.6335869,14.4351149,-1.3646880,5.4707227,2.1787124,111.9160309,9.6870232,101.6335907
6460,1.3263810,9.9263096,-0.5003856,5.4045801,-21.3740463,7.7633586,-0.0718257,5.7652082,0.7038917,110.1450348,14.8549614,98.5496216
6470,1.4221486,9.8353300,-0.4022238,-0.0687023,-21.1526718,-0.1068702,0.9289455,5.9711084,-0.6033357,105.1374054,17.7557259,93.3587799
6480,1.4341195,9.5312681,-0.1484398,-5.2824426,-20.1908398,-6.3893127,1.7214222,6.2775645,-1.6950861,94.5343475,20.2137413,86.0152664
6490,1.3383518,9.3205795,0.1628049,-9.5114508,-18.3358784,-11.5572519,2.0590029,6.3829093,-2.5234756,81.0839691,19.7251911,74.1374054
6500,1.0438666,9.0500364,0.1699875,-13.6030531,-17.0687027,-14.1832066,2.0206959,6.7133074,-3.2153964,62.8473282,15.6793890,60.6564903
6510,0.7565638,8.8345594,0.3040621,-17.2366409,-17.5190830,-16.3969460,1.4652439,7.3573442,-3.2848279,41.2442741,5.6717558,49.4809151
6520,0.4118006,8.6549950,0.3854645,-20.2900772,-19.5190830,-18.9007626,0.7924767,7.6183109,-3.0334380,17.9923668,-6.5725193,43.5496178
6530,-0.0885850,8.5281029,0.3160330,-22.8702297,-21.3435116,-20.3206100,0.5650287,7.9750452,-2.4540441,-2.7786260,-21.6335869,39.4351158
6540,-0.7565638,8.6238708,0.4237715,-24.4656487,-20.2137413,-20.7938938,0.5650287,8.3054428,-1.9345051,-19.9770985,-33.7251892,37.5038185
6550,-1.4053892,9.0500364,0.4237715,-24.7022896,-16.0916023,-18.9694653,0.7038917,8.4514885,-1.0366840,-34.6641235,-39.7938919,35.4961815
6560,-1.8171898,9.5839405,-0.0143651,-24.9770985,-9.7480917,-16.9618320,0.6560079,8.6669655,0.2035061,-46.4580154,-43.6259537,32.5114517
6570,-1.7070571,9.9071560,-0.3639168,-28.0687027,-5.2519083,-17.4351139,0.4812321,9.2224178,1.7980363,-50.0458031,-42.5572510,27.5190830
6580,-1.7908537,10.1226330,-0.7829000,-34.7175560,-3.5114503,-20.2366409,-0.0430954,9.6844959,3.3015873,-45.6106873,-35.6946564,23.3129768
6590,-1.6639616,10.1681223,-0.8331779,-44.1374054,-5.8854961,-23.5419846,-0.5746055,9.7802639,4.3646073,-33.6946564,-31.4274807,21.0839691
6600,-1.5873476,9.9430685,-0.1412572,-52.5343513,-10.2900763,-25.5725193,-1.1396341,10.1058741,5.1546898,-16.1145039,-33.0992355,20.8931293
6610,-1.5729824,9.5671806,0.8499373,-56.4198456,-15.7938929,-23.9847336,-1.5203103,10.3237448,5.4156566,3.7022901,-31.2519093,18.8473282
6620,-1.6759326,9.1266499,1.8818330,-54.0152664,-22.8167934,-16.3282452,-2.1332228,10.4817610,4.9128766,20.7633591,-26.8854961,16.2213745
6630,-1.5011568,8.7028790,2.8012016,-45.7862587,-29.8320618,-1.7480916,-2.6024840,10.6158361,4.3310885,31.6793900,-24.8854961,12.5343513
6640,-0.9552816,8.6334467,3.3470769,-31.9923668,-33.0458031,15.0839691,-2.8706331,10.5847120,4.1299767,34.8396950,-21.2061062,8.2671757
6650,0.0814024,8.4850073,3.4691806,-16.0000000,-31.6106873,30.5648861,-2.9568241,10.6828737,3.9935081,34.0763359,-19.8702297,2.8091602
6660,0.8714849,8.6214762,3.1938488,0.7099237,-29.6183205,42.2671738,-3.1339941,10.5559816,4.2018023,33.9312973,-19.6488552,-3.9007633
6670,1.8674678,8.8177996,2.4229198,13.6412210,-28.7557259,49.8473282,-3.5290353,10.1705170,4.3598189,33.8015251,-19.0000000,-9.2595415
6680,2.7437410,8.9183559,1.4197544,19.7786255,-31.4274807,50.6870232,-4.2401094,9.9071560,4.5178356,32.7022896,-17.1603050,-12.0610685
6690,3.1555417,9.2224178,0.5698171,18.8473282,-34.1908379,44.2671738,-5.3605900,9.3804340,4.8673873,30.9618320,-17.5801525,-13.6717558
6700,2.8107784,9.2846670,0.0694315,13.7786255,-34.2977104,32.8244286,-6.1027889,9.1386213,5.2935529,30.9694653,-22.0229015,-10.4503813
6710,-0.3710994,10.2399483,0.8858501,11.0763359,16.5572510,-6.1603055,-1.8124014,8.6933022,3.0310438,-43.9465637,-0.2366412,-8.9847326
6720,-0.1244979,9.8664551,1.0678085,10.6488552,16.8549614,-7.6259542,-2.2577207,9.1601686,3.3590479,-43.5038185,4.9465647,-9.3587790
6730,0.0287303,9.6749191,1.2258250,10.3664122,17.4885502,-7.5267177,-2.6383967,9.7228031,3.5793133,-43.0839691,2.5572519,-10.6106873
6740,0.2537841,9.4259243,1.4604555,11.2748089,18.6488552,-6.7022901,-2.4372849,10.1609402,3.9480183,-40.9541969,-1.7862595,-11.8931293
6750,0.5817881,9.2942438,1.3766589,13.0763359,20.3206100,-6.0305343,-2.2146254,10.4338779,4.0749106,-36.4122124,-3.1526718,-14.8778629
6760,0.8331779,9.2056589,1.4077834,14.4122133,22.6412220,-6.7251906,-2.0709739,10.8265247,4.0342093,-29.3129768,0.6335878,-19.4580154
6770,0.8547257,9.1027079,0.9385223,14.0229006,24.5038166,-8.2137403,-2.4324965,11.1593170,4.1802549,-21.4580154,5.9541984,-22.8931293
6780,0.8259954,9.0452480,0.4596844,9.9770994,25.9160309,-9.9465647,-2.8490853,11.6453371,4.3071470,-12.2442751,10.7938929,-22.7862587
6790,0.6727672,8.9662399,0.2849085,3.4427481,27.3511448,-11.7099237,-3.1890604,11.9996777,4.6902170,-1.9160305,14.8549614,-18.7557259
6800,0.4501076,8.7220325,0.3902529,-2.0305343,28.3587780,-12.1908398,-3.2991931,12.2367020,4.6997938,8.3816795,16.4503822,-10.5954199
6810,0.3280039,8.6837254,0.4501076,-5.8931298,27.9160309,-11.3358774,-2.7940190,12.1529055,4.8865409,17.2519093,7.0076337,-1.9007634
6820,0.2418131,8.5664101,0.6177009,-8.9312973,24.9236641,-10.1297712,-1.4389079,11.9996777,4.5537481,22.8778629,-24.8396950,-1.9923664
6830,0.2873027,8.5041609,0.8547257,-10.4885492,19.6106873,-8.8549614,1.3168042,11.2886028,3.5026991,23.6259537,-74.8778610,-19.5877857
6840,0.4884146,8.3605099,1.1851238,-10.7633591,12.3969469,-7.6106873,3.1675127,10.4027529,2.6168492,24.8396950,-120.1374054,-54.2748108
6850,0.7948709,8.3461447,1.4029950,-9.8931293,5.7480917,-7.4885497,2.4684093,10.1920643,2.3702476,32.3053436,-145.9694672,-90.4045792
6860,0.8068419,8.2934723,1.5753766,-9.2595415,1.3282443,-7.2213740,0.9648584,10.2782555,1.7980363,40.2977104,-141.0610657,-118.0534363
6870,0.8499373,8.2288294,1.5801650,-9.7709923,0.1832061,-6.0152674,-0.8403605,9.7970228,0.6871324,49.1984749,-125.7022934,-133.3893127
6880,0.9480990,8.2192526,1.4843974,-11.7709923,1.1908396,-4.0763359,-2.6479735,9.7228031,-0.7924767,58.4198456,-99.6412201,-136.1679382
6890,1.0151364,8.3844519,1.3742647,-14.9618320,4.8473282,-2.2366412,-3.7900019,9.9885588,-1.9201399,65.7633591,-61.9618340,-129.1297760
6900,0.7110743,8.7770987,1.2545552,-19.5038166,9.3053436,0.3206107,-4.3382711,10.3141680,-2.9496415,67.5954208,-26.5190830,-117.2748108
6910,0.4357425,9.1697454,1.2138541,-22.5725193,12.9312973,4.7633586,-3.5194585,10.4386663,-3.6343796,62.4732819,4.0152674,-110.5267181
6920,0.1795642,9.6366129,1.5011568,-21.8778629,15.0839691,10.5419846,-2.6575503,10.7020273,-3.8857694,52.2137413,27.5877857,-111.3206100
6930,0.0909792,10.0340481,1.6065011,-17.6564884,15.2671757,17.7480907,-2.2553265,11.2455082,-3.4763632,37.7175560,40.0228996,-115.7022934
6940,-0.0023942,10.8049774,1.5681942,-10.8091602,13.3511448,24.8854961,-2.2050486,11.7004042,-3.4979107,19.2595425,39.4580154,-123.0000000
6950,0.1580165,11.4418316,1.1899122,-3.0687022,8.5267172,29.1679382,-2.2170193,11.7339230,-3.9959023,0.7251908,29.2519093,-130.8854980
6960,0.3256098,11.9302464,0.8283895,3.0000000,2.5725191,30.3053436,-2.1188576,11.7722292,-4.5441718,-16.2671757,23.8167934,-135.8702240
6970,0.4668669,12.2103662,0.6967092,7.2213740,-4.1068702,29.4274807,-1.4101776,12.0906563,-4.7883787,-31.0610695,29.5648861,-138.2671814
6980,0.8523315,12.3061342,0.7589580,10.1832066,-11.5954199,26.1755733,-1.3024391,12.4234495,-4.9224534,-44.9694672,49.1832047,-139.8320618
6990,1.1468167,12.2151546,1.0869620,13.4961834,-18.3129768,21.0916023,-1.9033806,12.3635941,-4.8554163,-57.6870232,73.7022934,-140.3969421
7000,1.4221486,11.8991213,1.4053892,17.0610695,-23.3206100,14.7862597,-3.3231349,12.1672707,-4.2592630,-68.2977066,94.8931274,-138.0763397
7010,1.5131277,11.5447817,1.6687500,20.6717548,-26.1526718,8.4732828,-4.2855992,12.0475616,-3.5410061,-75.7862625,107.6030502,-132.5419922
7020,1.5753766,11.0276365,1.8818330,24.2900772,-26.4580154,3.6106870,-4.1251884,11.4226780,-2.8682389,-79.9923630,116.6183243,-127.9618301
7030,1.4652439,10.5847120,1.8243724,26.5648861,-24.6564884,-0.8625954,-3.1124463,10.1274214,-2.1667414,-79.6412201,128.6335907,-129.6183167
7040,1.3910241,10.0915089,1.6184721,26.5725193,-20.6717548,-5.1297708,-1.7884595,9.0260944,-2.1835008,-74.4351120,142.3511505,-139.1908417
7050,1.1899122,9.6222477,1.4436963,25.2061062,-15.7786255,-8.8396950,-1.4365137,7.4100165,-2.4875629,-69.1526718,156.2900696,-156.1755676
7060,0.8547257,9.1170731,1.2186425,23.2824421,-11.5496187,-11.7251911,-1.9297167,5.4707227,-3.0118904,-66.1145020,157.9770966,-176.1755676
7070,0.5698171,8.6717539,1.0055596,21.2366409,-7.8549619,-13.9389315,-2.9759774,3.4643922,-3.3518653,-65.7022934,149.2977142,-194.9465637
7080,0.0837966,8.2192526,0.7110743,18.4351139,-5.8015265,-14.1526718,-5.0301919,1.0342898,-4.0533628,-70.5725174,138.2519073,-210.8015289
7090,-0.1723816,7.8242111,0.5626345,15.4351149,-3.9770992,-12.3358774,-7.7882981,-1.1204807,-5.0469513,-83.3740463,123.4351120,-216.8702240
7100,-0.3830703,7.5704269,0.4620786,12.6335878,-3.6564887,-9.2366409,-10.1226330,-3.2345500,-6.1315193,-108.9542007,109.7633591,-208.7328186
7110,-0.4596844,7.3286138,0.3519458,10.1755724,-3.4580152,-6.1221375,-11.9805241,-5.8011212,-6.5744443,-148.3664093,97.5267181,-186.0000000
7120,-0.4884146,7.3022780,0.2226596,7.8167939,-3.7709923,-3.1297710,-13.9054527,-8.5065556,-6.5840211,-190.7022858,89.0381699,-151.8167877
7130,-0.5291159,7.2280579,0.1340746,5.2137403,-4.0763359,-0.3206107,-14.7410240,-12.0810804,-6.1913738,-237.0915985,100.1679382,-108.5801544
7140,-0.3495516,7.2807302,-0.0694315,2.0992367,-3.8702290,1.6335878,-14.4417505,-15.9788208,-4.5920553,-250.1374054,135.1832123,-69.4885483
7150,-0.3040621,7.4842362,-0.1867468,-3.0229008,-2.5496182,4.3893127,-13.0746689,-19.4456062,-1.1635761,-250.1374054,174.6183167,-43.7862587
7160,-0.1173153,7.7284436,-0.4381367,-10.0687027,-0.6717557,6.0000000,-11.8177195,-19.6131992,2.9065459,-250.1374054,219.8473358,-45.5267181
7170,0.0023942,8.0109577,-0.3423691,-17.5114498,2.2671757,7.1297708,-11.2311430,-19.6131992,8.3629036,-250.1374054,250.1297760,-73.1908417
7180,0.1963235,8.3126259,-0.1149211,-23.2519093,4.5114503,7.5496182,-11.2862091,-16.7234135,14.1329002,-250.1374054,237.1526642,-122.5877838
7190,0.3040621,8.7723103,0.0454896,-27.0687027,6.2213740,8.0152674,-16.1033192,-11.4801388,19.6126022,-250.1374054,121.2519073,-156.9618378
7200,0.4644727,9.1960821,0.2992737,-28.6412220,5.3816795,7.8244276,-19.4408188,-8.9925756,19.6126022,-250.1374054,-16.1984730,-146.2366486
7210,-0.4932030,8.3006544,0.7565638,16.9847336,-4.8015265,-3.4961832,-10.8361015,5.3222833,8.4969788,60.8396950,-120.6946564,32.8091621
7220,-0.2777260,8.0923605,0.6631905,17.6259537,-7.6412215,-1.8931298,-10.0915089,5.8897061,7.3022780,63.4503822,-115.7022934,40.2213745
7230,-0.3016679,8.0253229,0.4572902,16.3053436,-9.8549614,-1.1984733,-9.2990322,6.0501165,6.7731619,57.0534363,-110.3816757,46.0839691
7240,-0.0598547,7.8984308,0.3423691,13.1679392,-10.8167934,0.6946565,-8.5137377,6.1075773,6.8425937,49.9007645,-102.6106873,49.5267181
7250,0.1747758,7.9271612,0.3375807,9.0381680,-9.7022905,1.6106870,-8.0899658,5.8585815,7.0413113,43.8702278,-93.9618301,50.0381660
7260,0.1843526,7.9822278,0.4237715,4.8396945,-8.1832066,1.9007634,-7.7571740,5.4611464,7.4339581,40.3816795,-85.7099228,49.6106873
7270,0.2537841,8.1043310,0.4405309,0.5038168,-5.8778625,3.0916030,-7.8098459,5.0996237,7.7571740,38.7328262,-80.4580154,48.6412201
7280,0.7541697,8.8561068,0.9672526,-12.3053436,-5.2824426,10.7862597,-7.5153608,4.5729017,8.8393478,49.0381660,-69.6259537,59.4732819
7290,1.3598996,8.9638453,1.6567791,-11.2442751,-10.5419846,13.5190840,-6.8569584,4.3478479,8.8920193,57.3358765,-60.8015251,65.5496216
7300,1.9153515,9.1960821,2.0973101,-5.2824426,-19.1832066,15.2748089,-5.9998388,4.4986820,8.6693602,66.0839691,-51.7709923,71.1145020
7310,2.6886747,9.1481981,2.3295465,1.8244275,-28.1832066,16.2977104,-5.6071916,4.4412212,8.6023226,74.9694672,-37.3587799,77.9694672
7320,3.1555417,9.1266499,2.0829449,7.2519083,-34.7786255,15.0610685,-5.3127065,4.1611013,8.2958660,82.8702316,-20.1908398,84.6412201
7330,3.1148405,8.7459745,1.5274929,5.7328243,-42.6259537,6.7709923,-4.6088147,4.0725164,7.7475972,95.6717529,-6.8244276,89.3435135
7340,2.7533178,8.5185261,1.2162483,-1.3511450,-37.5038185,3.0839694,-4.2712340,3.9647777,7.0365229,100.2595444,-9.8244276,86.9083939
7350,2.0613971,8.1402445,0.9935886,-12.0229006,-28.1145039,2.1450381,-3.6726866,3.9935081,6.6989422,102.1908417,-17.8320618,81.4656525
7360,1.3527170,8.0660238,0.9959828,-23.8625946,-16.4427490,4.3053436,-2.9424589,4.0964580,6.1841912,103.0916061,-29.5801525,73.5648880
7370,0.7757174,7.9918046,1.3239868,-35.2900772,-6.6793895,8.2595415,-2.2218077,4.6878228,5.3486195,100.7251892,-43.7557259,59.8854980
7380,0.7948709,8.0947542,1.8866212,-41.0687027,0.4885496,11.8854961,-1.9991482,4.9942794,4.4029145,93.8854980,-61.6259537,44.7938919
7390,0.8331779,8.3293848,2.1499822,-41.3435097,4.7480917,14.7099237,-2.0877333,5.2025738,3.4117200,82.6717529,-78.4198456,31.6106873
7400,0.9289455,8.7818871,1.7621235,-40.9312973,5.6183205,15.6106873,-2.1092808,5.5569139,2.9975252,70.8396912,-91.3969498,23.1297703
7410,1.1156923,9.2607250,1.2665262,-44.9312973,4.6412215,12.0763359,-2.4181314,5.8873119,2.9999194,62.4809151,-95.2366409,19.0458012
7420,1.1659702,10.0268650,1.7645177,-55.3206100,2.6946564,-3.3511450,-3.5122759,6.4116392,2.8730273,59.6030540,-79.7175598,28.2366409
7430,0.6344602,10.0436249,1.9560528,-54.6335869,-1.0534351,-12.8625956,-4.0366035,6.7013364,2.6120608,60.3358765,-68.8244247,40.3282433
7440,-0.0095768,10.0077124,1.8722562,-54.2595406,-1.8091604,-20.0992374,-3.7684543,7.1394730,2.2170193,57.2977104,-60.1908379,55.6564903
7450,-0.9289455,9.8089943,2.0446377,-53.8778610,1.0381680,-22.5267181,-2.8562679,7.1466556,2.1739240,50.4351158,-49.5801544,70.5114517
7460,-1.6400198,9.6102762,2.2816625,-50.7404594,8.0076332,-18.5648861,-1.8363433,7.2711535,2.3463056,43.9618340,-39.3893127,80.7557220
7470,-2.1499822,9.6509781,2.5019281,-43.5954208,16.6717548,-7.8473282,-1.2401901,7.4746594,2.7102225,37.4503822,-29.7175579,85.8320618
7480,-2.6072724,10.1250277,2.1787124,-32.6106873,24.4351139,6.5190840,-0.6224893,7.4339581,3.3327117,31.2671757,-23.9007626,86.4885483
7490,-2.6336083,10.9869356,1.4963684,-21.5572510,27.0381680,19.9923668,-0.0861908,7.5440907,3.8714044,28.0076332,-23.1145039,82.8702316
7500,-3.1675127,12.1576939,0.7110743,-13.8396950,26.2061062,31.4351139,0.1484398,7.8074517,4.4077029,28.3587780,-22.2824421,74.9694672
7510,-3.4979107,13.5918131,0.4788379,-9.0458012,18.5038166,36.8091621,0.7158626,8.2671366,4.4436154,29.9541988,-19.8473282,64.5343475
7520,-2.8371146,13.6708221,1.1970947,-4.2061067,3.8396947,33.6030540,1.0007712,8.7052727,4.2113791,28.4427490,-18.8244267,50.0610695
7530,-1.4867916,12.6868095,2.4253139,8.6106873,-0.8778626,28.4732819,0.6560079,9.0093346,3.8546450,21.4122143,-23.1450386,37.4732819
7540,-0.9121862,11.9182749,2.4133430,25.0458012,3.0916030,30.3129768,0.8307837,9.5240860,3.9264708,10.7633591,-25.9007626,25.6870232
7550,0.9385223,11.1257982,0.5937590,38.6793900,5.1755724,32.7404594,0.3256098,9.5360565,5.3390427,1.9389313,-23.1297703,7.2519083
7560,2.1739240,10.7954006,0.1364688,36.6946564,3.5190840,27.3053436,-0.1699875,9.6366129,5.8202744,5.8549619,-17.4274807,0.9083970
7570,2.9328821,10.4650021,-0.1340746,32.6870232,1.4809160,17.1145039,-0.5434810,9.7299862,6.3493905,13.4427481,-11.7022905,-2.4198472
7580,3.3686244,10.2782555,-0.4213773,26.0610695,-3.0687022,2.4961832,-1.0079538,9.6198530,6.6175399,24.1450386,-3.2900763,-3.7709923
7590,3.1100521,9.9167328,-0.7062859,16.1908398,-4.2137403,-14.9389315,-1.3694763,9.4331064,6.5361371,35.6870232,6.4656487,-3.8091602
7600,1.4748207,8.8632889,-0.6105183,-13.8473282,11.1679392,-33.4732819,-1.9608412,9.2894554,5.4635406,50.0076332,20.8244267,-3.8778627
7610,0.5147507,8.5304966,-0.1556223,-26.3893127,20.8854961,-36.0687027,-2.4995339,9.1290445,4.6854286,48.5190849,17.8473282,-4.1832061
7620,-0.6248835,8.2719250,0.2609667,-34.4045792,27.0229015,-34.2442741,-2.8849983,9.0667953,4.5082588,42.7862587,12.3435116,-1.9083970
7630,-1.4628497,8.0875721,0.6823440,-38.0305328,27.1526718,-29.5190830,-2.9831600,8.8561068,4.3358769,36.4580154,5.1221375,1.3816794
7640,-1.9919657,8.1617918,1.2306134,-37.6870232,24.3740463,-22.1145039,-2.7868366,8.5879574,4.1395535,28.9007626,-2.1755726,4.2748094
7650,-2.3247581,8.1761570,1.6831152,-34.2824440,19.6717548,-13.0152674,-2.4229198,8.2743187,4.0078731,21.6412220,-9.6870232,5.9389315
7660,-2.4420733,8.4155760,2.1882892,-28.0992374,12.8625956,-2.4122138,-1.9249283,7.9846220,4.1515245,15.1068707,-14.6106873,5.7862597
7670,1.8315549,12.1289635,4.3574247,4.4351144,15.3816795,10.6793890,-1.4532729,6.8306227,3.8809812,1.7862595,5.1603055,3.0152671
7680,2.0518203,12.3013458,4.7620430,15.3206110,12.4198475,5.4351144,-1.5274929,6.5768385,4.2855992,-4.4656487,-0.7862595,0.2671756
7690,2.3606708,12.1768475,4.8027439,27.7862587,10.4732828,-0.5343512,-1.5825592,6.7013364,4.4747400,-10.8854961,-4.9236641,-0.4656489
7700,2.5737536,11.9063044,4.6447277,40.1832047,8.7251911,-7.5343513,-1.5897418,6.6103573,4.5800843,-16.4809170,-10.5877867,-2.9770992
7710,2.5546002,11.6644907,3.9839313,51.0534363,7.6946564,-14.1221371,-1.5873476,6.5935979,4.8721757,-21.2137413,-17.9083977,-5.6488547
7720,2.3008161,11.4633789,3.1148405,56.8091621,5.6183205,-19.2671757,-1.5346755,6.5121951,5.0349803,-24.8396950,-24.8778629,-9.9312973
7730,2.3798244,11.0827026,2.4085546,58.6412201,3.9236641,-25.2900772,-1.5418580,6.4930420,5.0134325,-28.1832066,-30.8015270,-14.9618320
7740,2.1020982,10.7283630,1.9776005,58.3282433,2.9541984,-30.6793900,-1.8004304,6.6797886,5.5162125,-30.0534344,-34.4809151,-18.6717548
7750,1.7597293,10.3835993,1.8004304,57.5877876,2.8473282,-33.7938919,-2.1308286,6.9623032,5.4946647,-29.6564884,-32.0687027,-20.6717548
7760,1.3862357,10.0005293,1.4006008,57.0458031,3.7938931,-36.2519073,-2.6886747,7.1897511,5.7795734,-27.3053436,-25.7328243,-18.4503822
7770,1.0127422,9.7419567,1.1587877,55.9007645,4.8625956,-37.5877876,-3.0741394,7.4938130,5.9639258,-23.4961834,-17.7633591,-13.0610685
7780,0.6488253,9.5408449,0.7206510,53.5954208,5.6870227,-37.1908379,-2.9137285,7.7643566,6.0333576,-19.8244267,-10.0305347,-7.7175574
7790,0.3232156,9.4355011,0.4429250,50.2061081,6.8931298,-36.3435097,-2.6383967,8.1282730,6.0812411,-15.3816795,-3.7786260,-3.1145039
7800,0.1604107,9.3062143,0.1651991,46.3206100,6.4503818,-35.4809151,-2.1882892,8.4514885,5.8106980,-12.0305347,-0.1679389,-3.4274809
7810,0.0574605,9.3038206,0.2298422,42.0916023,4.4122138,-34.3893127,-1.9919657,8.9614515,5.6957769,-11.2442751,-0.5954198,-5.6488547
7820,-0.0239419,9.0787668,0.4932030,38.5343513,1.0229008,-33.4961815,-1.8483143,9.5192976,5.6359220,-11.1145039,-4.5572519,-9.7175570
7830,-0.0550664,8.9303265,0.9888002,37.9007645,-2.6106870,-32.9923668,-1.7573351,9.9358864,5.6287394,-12.0916033,-6.9694657,-11.7709923
7840,-0.2394189,8.8201942,1.2066715,40.0458031,-5.1832061,-32.1450386,-1.7812769,11.1281929,5.5281835,-15.3511448,-9.6564884,-12.4198475
7850,-0.4237715,8.5640154,1.0366840,42.5954208,-6.9618320,-30.8015270,-1.1468167,12.5120344,5.9687142,-18.8778629,-17.9770985,-9.3816795
7860,-0.4932030,8.3652983,0.6823440,42.2442741,-7.9312978,-29.6717548,-0.9624642,14.2166967,7.1490498,-16.3511448,-29.1984730,-3.8778627
7870,-0.7014975,8.0708122,0.5291159,39.4580154,-8.2366409,-27.6717548,-0.2657550,15.1240950,7.8002691,-2.4732823,-36.3511467,3.3587787
7880,-0.7924767,7.8050575,0.6033357,36.8320618,-7.5496182,-25.5496178,1.4987626,15.2749290,7.9439206,22.0458012,-29.5190830,6.0458016
7890,-0.9337339,7.4674768,0.5362985,34.2824440,-7.3053436,-23.0687027,3.4667864,15.1312771,7.0652533,52.2366409,-5.7557254,-8.3053436
7900,-1.1324517,7.2017217,0.6177009,31.3740463,-7.9007635,-18.9007626,3.6152260,14.6835642,5.0780759,78.8549652,25.4961834,-35.8396950
7910,-1.1204807,7.0077925,0.6871324,29.3893127,-8.3893127,-13.2824430,2.4133430,14.3340120,2.5665710,90.7328262,47.4198456,-65.9465637
7920,-0.8786675,6.9359670,0.6967092,27.3129768,-7.8015265,-8.4198475,0.5578461,14.0419216,0.0766141,88.2290039,56.2900772,-89.2824402
7930,-0.5817881,6.8234401,0.6057299,25.5496178,-5.9694657,-5.6106873,-1.2234308,13.9198179,-1.5298871,69.8091583,62.8396950,-97.3282471
7940,-0.3591284,6.8497758,0.4429250,23.1679382,-3.1374047,-3.7786260,-2.2577207,13.2087431,-1.7357874,44.2748108,73.5648880,-93.9618301
7950,-0.2777260,6.8234401,0.2250538,18.3435116,1.3816794,-2.0458016,-2.4205256,12.4258432,-0.9480990,19.0687027,82.9923630,-87.9847336
7960,-0.5003856,6.9000540,-0.2154770,11.8931293,6.9694657,1.2824427,-2.5043221,11.7554703,0.0957676,-4.5038166,76.2595444,-87.8778610
7970,-0.6320660,7.2089043,-0.4118006,5.2671757,12.4503813,7.4427481,-2.0398495,10.9462337,0.8523315,-26.4732819,55.0534363,-87.7404556
7980,-0.7350162,7.6805596,-0.8020535,-1.5496184,16.8931293,14.3587790,-0.3615226,10.1226330,1.8124014,-41.5190849,32.4961815,-93.8244247
7990,-0.6200951,8.5161324,-1.0773853,-8.9312973,20.0000000,19.5419846,1.6950861,9.9023676,2.3726418,-46.4885483,18.3511448,-108.5954208
8000,-0.3471575,9.3756456,-1.2784972,-17.1221371,21.5572510,22.7557259,2.6599445,9.8089943,1.8985922,-45.1297722,13.9160309,-127.9389343
8010,0.0119709,10.0867205,-1.0223188,-23.1755733,23.0152664,22.9389305,3.6176202,10.9965124,0.8164186,-40.6488533,5.4580154,-143.9465637
8020,0.2250538,10.8265247,-0.6272776,-24.1068707,21.7251911,20.2213745,5.6239510,12.2438850,-1.6088953,-39.0916023,9.9465647,-154.1526642
8030,0.2920911,11.4992924,-0.2370248,-21.5419846,18.9312973,16.3053436,8.7747040,14.0395269,-2.9999194,-36.0534363,40.0610695,-160.3435059
8040,0.2489957,11.8943329,0.0383070,-15.4580154,14.8396950,11.6717558,9.3062143,16.0243092,-3.5122759,-21.5267181,86.7709961,-170.8625946
8050,0.2274480,11.9996777,0.1316804,-6.9236641,9.6870232,7.3587785,7.9271612,15.3084478,-6.1195483,-4.1526718,153.9007568,-177.3511505
8060,0.1436514,12.0691090,0.0574605,1.2213740,4.3129773,4.3282442,5.7556314,13.9653072,-8.4969788,1.1374046,211.1679382,-183.7633514
8070,0.1316804,12.0020714,-0.3088504,7.4427481,0.6183206,2.8167939,2.0590029,11.6549139,-10.2926207,-9.6870232,248.7557220,-193.6412201
8080,0.1460456,11.8416615,-0.4213773,11.5114508,-2.2519083,1.1068702,-1.2473727,8.2862902,-11.6309719,-38.3511467,250.1297760,-201.5725250
8090,0.1604107,11.6836443,-0.6536137,14.2519083,-3.9389312,-0.7328244,-8.8321648,5.4755111,-13.1656475,-83.8625946,250.1297760,-201.7709961
8100,0.2920911,11.3245163,-0.8020535,15.8702288,-4.5801525,-3.5725191,-16.0458584,2.7628946,-14.0036144,-146.3893127,250.1297760,-170.7251892
8110,0.2226596,10.9246864,-0.8523315,15.5648851,-4.9465647,-6.9847326,-18.7824154,-2.4420733,-12.8352499,-215.6183167,250.1297760,-120.5725174
8120,0.1867468,10.4171181,-0.7086801,14.4809160,-5.1755724,-10.2290077,-18.7201672,-8.1522150,-8.5137377,-250.1374054,250.1297760,-84.6488571
8130,0.0143651,9.9885588,-0.3519458,13.7022905,-5.6335878,-12.7099237,-17.9564209,-12.6245613,-3.2345500,-250.1374054,250.1297760,-71.0610657
8140,-0.2106887,9.4187412,-0.0742199,14.1755724,-6.5801525,-14.1908398,-19.1008434,-16.8287582,1.6855093,-250.1374054,250.1297760,-77.0229034
8150,-0.5458752,8.8752604,-0.0837966,15.0610685,-8.0381680,-14.8778629,-19.6131992,-19.5677109,4.8027439,-223.5267181,250.1297760,-90.0687027
8160,-0.8547257,8.4012108,0.0430954,16.2290077,-9.5114508,-13.8473282,-19.6131992,-19.6131992,5.8490047,-184.5648804,250.1297760,-108.1526718
8170,-1.1324517,7.9295554,-0.0407012,16.6106873,-11.4045801,-11.4656487,-19.6131992,-19.6131992,6.0740585,-158.0381622,250.1297760,-126.0229034
8180,-1.3144100,7.5776095,-0.0550664,16.3282452,-12.4198475,-7.9770994,-19.6131992,-16.4959660,6.0429344,-154.0152740,210.6793823,-125.8091583
8190,-1.4843974,7.3046722,-0.1029501,15.4503813,-12.2748089,-3.8473282,-19.6131992,-10.8504667,4.8218975,-186.4351196,114.0916061,-86.4274826
8200,-1.5729824,7.0460997,-0.2059003,13.4122133,-11.8778629,0.6412213,-19.6131992,-6.6821828,5.6119800,-245.0686951,23.0839691,-15.1908398
8210,-1.5203103,6.8976598,-0.2777260,9.5725193,-9.7709923,5.6641221,-15.9716377,-6.5912037,11.2048063,-250.1374054,-38.2671738,38.4580154
8220,-1.3048333,6.8473821,-0.2011119,5.1068702,-7.2977099,9.4427481,-8.1426382,-8.0660238,19.6126022,-250.1374054,-55.7022896,43.9007645
8230,-1.0678085,6.6917596,-0.3710994,0.1526718,-4.9083967,11.0763359,-4.9559722,-7.9151902,19.6126022,-170.2748108,-63.2824440,11.5877867
8240,-0.9121862,6.7707677,-0.3926471,-5.6870227,-2.6259542,11.1603050,-6.1123657,-6.8258343,19.6126022,-34.2442741,-94.1984711,-29.3435116
8250,-0.7637464,6.8162575,-0.4046180,-12.0000000,0.7557252,10.1755724,-8.5568333,-7.1322904,19.6126022,102.1832047,-142.0152740,-55.2748108
8260,-1.0510491,6.9766679,-0.4548960,-18.7709923,4.9847326,10.4809160,-9.7275915,-6.6989422,14.7290535,190.2137451,-170.6259613,-69.3587799
8270,-0.8547257,7.2687593,-0.6296718,-25.6030540,10.4961834,15.0687027,-10.5009146,-5.6359220,6.2799587,226.6106873,-162.7404633,-80.3664093
8280,-0.6368544,7.8864598,-0.7637464,-32.2900772,14.6793890,20.9007626,-13.3380299,-4.0533628,0.7781116,230.8091583,-138.2290039,-80.5038147
8290,-0.3495516,8.9063845,-0.7948709,-38.6259537,17.0763359,26.8854961,-17.1974621,-2.8897867,-2.8490853,216.8702240,-118.5572510,-61.2442741
8300,0.2035061,9.8520899,-0.6440369,-44.0381660,18.4122143,29.8167934,-19.5054607,-2.3391230,-4.7572546,195.8625946,-114.2748108,-24.5496178
8310,0.7182568,10.5966825,-0.3327923,-45.9389305,17.3435116,27.5648861,-19.4120884,-1.6950861,-5.9902620,166.7938995,-118.5267181,20.9160309
8320,0.9983770,11.2215662,-0.1173153,-44.3740463,14.4198475,22.9618320,-16.7090473,-1.5825592,-6.6007805,130.9389343,-123.9847336,62.0534363
8330,1.2784972,11.6740675,0.1891410,-40.6946564,10.3893127,17.5114498,-12.7586355,-1.3766589,-5.5904322,94.7557220,-130.2137451,84.2977066
8340,1.4293311,12.0523500,0.4189832,-35.8778610,5.2290077,11.6106873,-9.1841106,-1.2665262,-3.4212968,68.0076370,-131.8244324,87.2137375
8350,1.5969244,12.0140429,0.4668669,-30.3282452,0.4045801,6.0000000,-6.9192076,-0.7805058,-1.1013272,52.5114517,-127.3816757,76.3969498
8360,1.3886299,11.9948893,0.5530578,-24.9847336,-2.9007633,1.2061069,-6.0070214,-0.1436514,0.9241571,46.2213745,-122.9007645,57.7251892
8370,1.2401901,11.8751793,0.6679789,-20.6870232,-5.6870227,-1.4580153,-5.9758968,0.5410868,2.2720859,45.2442741,-123.3664093,34.7022896
8380,1.1348459,11.5711174,0.8236012,-17.3969460,-7.6335878,-2.9083970,-6.7564025,1.0702027,3.2082138,46.7099228,-128.2290039,12.9236641
8390,1.0247130,11.3005743,0.8930327,-14.5038166,-8.3129768,-4.6335878,-8.4443064,2.0111191,3.6702924,47.5572510,-137.7328186,-4.6564884
8400,0.9720409,10.9486284,1.1348459,-11.4732828,-8.7251911,-5.5419846,-9.7443514,3.2537034,3.7014170,46.4885483,-153.3816833,-15.3816795
8410,0.8954269,10.6469603,1.2401901,-8.7633591,-9.4274807,-6.1450381,-9.9406748,4.6016321,3.2776453,42.0076332,-165.4656525,-21.4351139
8420,0.8116302,10.3524752,1.3622938,-5.7251906,-10.5038166,-6.3053436,-9.9741936,5.8633699,3.2177906,36.3435097,-166.9236603,-23.8091602
8430,0.7014975,10.0484133,1.5155219,-2.3206108,-11.3282442,-6.1526718,-10.1226330,6.7228842,3.4141142,32.9847336,-152.5877838,-19.7786255
8440,0.6248835,9.8353300,1.3670821,0.2290076,-12.4885492,-6.8702292,-10.7092094,7.0939832,3.9456241,34.3053436,-126.2900772,-7.5725193
8450,0.4046180,9.6030941,1.1252691,1.4503816,-13.4656487,-7.8015265,-11.3269100,6.8928714,4.5178356,40.2519073,-96.1679382,9.7786255
8460,0.1292862,9.4019823,0.8068419,0.5725191,-14.4656487,-8.3435116,-11.6788559,6.6151457,4.8171091,47.2671738,-67.8396912,30.1984730
8470,-0.1364688,9.1027079,0.7589580,-1.3664122,-15.6106873,-8.7480917,-11.5615406,6.5840211,4.8889351,54.3664131,-46.1297722,51.0610695
8480,-0.2920911,8.8010406,0.9433106,-4.0076337,-17.3435116,-8.8549614,-10.8983507,6.5098009,4.0988522,52.1908379,-35.4198456,68.3587799
8490,-0.5003856,8.3916340,1.1348459,-5.6641221,-18.5801525,-8.0916033,-9.7275915,6.0261750,3.5553713,43.1374054,-39.8167953,76.0000000
8500,-0.6631905,8.1857338,1.1731528,-6.1221375,-18.0458012,-5.3282442,-8.2886839,6.2751703,3.8187323,32.0076332,-47.9771004,79.6183243
8510,-0.8666966,8.0684185,1.1827296,-6.3893127,-16.9923668,-2.0839694,-6.6582408,6.5121951,4.1874375,21.6564884,-48.0916023,84.0229034
8520,-0.9169745,7.9941988,0.9792235,-7.4503818,-16.0687027,0.9618320,-4.9344244,6.2416520,4.8985114,15.7404585,-41.9771004,84.6870193
8530,-0.9744351,7.9534974,0.6679789,-10.0381680,-15.2748089,2.0687022,-3.5697365,5.7699966,5.8298512,17.3053436,-31.2824421,79.1145020
8540,-1.0438666,8.0301113,0.4812321,-13.9770994,-14.1603050,1.4656489,-2.7605004,5.4300218,6.9383612,26.4198475,-15.3282442,66.8167953
8550,-1.3072275,8.0037756,0.5506636,-18.9541988,-14.5038166,0.1374046,-2.9664006,5.4300218,7.4770536,42.0458031,1.2137405,53.5343513
8560,-1.5394639,8.1426382,0.6368544,-22.8473282,-12.8167934,-0.0076336,-4.1060348,5.4204450,7.3836803,59.5954208,10.9389315,42.6641235
8570,-1.5705882,8.9327211,0.1867468,-31.4045811,-2.9236641,3.1221373,-5.5257893,5.8849177,4.9272418,69.7328262,-2.7404580,32.0000000
8580,-1.4676381,9.3804340,0.0119709,-39.1526718,4.3282442,3.1374047,-5.2025738,6.7875271,3.6176202,59.3664131,-20.1145039,24.3511448
8590,-1.4293311,9.9191265,-0.0191535,-46.5877876,10.4427481,2.9923663,-5.4252334,7.1418672,2.8107784,41.3511467,-39.0076332,17.5725193
8600,-1.2258250,10.3907824,0.2298422,-52.5801544,15.8931293,2.5038168,-5.4587522,7.2472115,2.5138988,19.4274807,-61.8778610,11.1832066
8610,-0.9600700,10.7834291,0.6607963,-56.1450386,19.4351139,0.3969466,-5.1810260,7.6661944,3.0956869,0.0458015,-81.3206100,8.7786255
8620,-0.8283895,11.0731258,1.0893562,-56.8549614,20.5267181,-2.0687022,-4.7165532,7.6398587,4.2257442,-9.6793890,-87.0610657,9.1221371
8630,-0.6033357,11.2479019,1.7956421,-52.4274826,18.2213745,-4.0229006,-4.3598189,7.2663651,5.4659348,-6.6870227,-78.0839691,12.2442751
8640,-0.5506636,11.3053627,2.5569944,-43.1984749,11.9923668,-4.3282442,-4.1802549,6.9910331,6.1746144,5.5190840,-62.5801544,15.1832066
8650,-0.3399749,11.1712875,3.0501974,-30.2290077,2.8244274,-1.9083970,-4.0389977,7.4411407,6.2584114,20.5114498,-49.6717567,15.9847326
8660,-0.0861908,11.1353750,3.2321558,-16.0152664,-7.4885497,2.4274809,-3.9815371,8.2336178,5.7412663,31.1297703,-42.2519073,15.7404585
8670,0.3280039,11.0156660,3.4021432,-0.5725191,-16.6488552,7.1526718,-4.3071470,9.1242561,5.0517397,33.5038185,-41.2137413,15.9847326
8680,0.9026094,10.8384953,3.3758070,16.2366409,-24.0839691,10.7251911,-4.5465660,9.9334917,4.1012464,26.1374054,-45.8625946,17.8702297
8690,1.1539993,10.4745789,2.6312141,30.9694653,-29.3664131,13.5954199,-4.4484038,10.3213511,3.8714044,14.3664122,-52.3816795,20.3053436
8700,1.2976507,10.3788109,1.6687500,39.2137413,-31.4809170,15.8167934,-4.2233500,10.4051476,4.3430595,4.2595420,-54.6870232,21.6793900
8710,1.4556671,10.2112179,0.8020535,41.6030540,-29.7328243,16.7099228,-4.1706781,10.2495251,5.3605900,0.2137405,-50.8778610,22.5877857
8720,1.6208663,10.0986910,0.1867468,40.6641235,-25.6412220,13.6870232,-4.0725164,9.8808203,6.0189924,2.8778627,-42.4885483,23.3664131
8730,1.5394639,9.9382801,-0.5362985,35.3664131,-19.4427490,9.5038166,-4.0006905,9.5025377,6.7133074,11.0687027,-30.3664131,23.7099228
8740,1.1994889,9.7180147,-1.3287752,26.2519093,-11.0763359,3.8320611,-4.3502421,9.1242561,6.8066807,22.4274807,-15.0992365,23.7328243
8750,0.7661406,9.6557665,-1.7501525,14.0076332,-0.9618320,-1.3435115,-4.4675574,8.8872309,6.5481081,32.7328262,-1.4503816,25.7022896
8760,0.0909792,9.3971939,-1.8866212,0.6259542,9.3893127,-6.6335878,-4.5992379,8.6621771,6.2105274,39.3969460,8.7480917,28.0763359
8770,-0.5746055,9.1601686,-1.8363433,-10.8167934,16.0076332,-9.5801525,-4.8602047,8.4179697,5.7245069,42.0763359,15.2824430,30.0763359
8780,-1.3168042,8.9853926,-1.5250987,-19.8167934,19.0763359,-10.7786255,-5.0038562,8.0636301,5.4132624,41.7480927,18.5267181,31.4732819
8790,-1.9033806,8.8585014,-1.0462608,-25.7022896,19.6030540,-10.3358774,-5.0301919,7.7284436,5.3222833,40.3206100,20.0458012,33.9236641
