timestamp,rxacclX,rxacclY,rxacclZ,rxgyroX,rxgyroY,rxgyroZ,txacclX,txacclY,txacclZ,txgyroX,txgyroY,txgyroZ
0,4.8147149,8.1498213,3.6655040,2.4045801,-7.3129773,3.8015268,-5.6383162,7.4028339,6.7971039,-7.2977099,-9.5572519,-7.2213740
10,4.6806402,8.2910776,3.7469065,1.9465649,-7.3587785,3.7938931,-5.5880380,7.3286138,6.8737178,-5.4732823,-12.1068707,-3.6946564
20,4.5489597,8.3533268,3.8043671,1.3816794,-6.6641221,3.0763359,-5.4132624,7.1394730,6.9551206,-3.4503818,-14.8778629,-0.6870229
30,4.3023586,8.3437500,3.8259149,0.9923664,-5.3206105,3.2595420,-5.2097564,7.0317345,6.7396431,-1.2977099,-15.3511448,2.0610688
40,4.2425036,8.3940287,3.9504125,0.5801527,-4.7862597,3.0839694,-5.0684991,7.1131368,6.1937680,-1.7862595,-15.2595415,4.8167939
50,4.2161674,8.4012108,4.0222383,0.8931298,-4.0381680,2.9770992,-4.7213416,6.9335728,5.7771792,-5.5648856,-16.0305347,8.5572519
60,4.1084290,8.4107876,4.1419477,1.0458015,-3.0305343,2.6412213,-4.3981261,6.7420373,5.8825235,-9.1221371,-14.4885492,9.9847326
70,4.0509686,8.4347296,4.2544746,1.4045801,0.0305344,1.9618320,-3.7971845,6.6989422,6.4595232,-10.5496187,-12.0534353,10.4427481
80,4.0653338,8.4083929,4.3670015,2.0839694,1.5343511,2.1374047,-3.6942344,6.5193777,6.4427638,-9.8244276,-8.8702288,11.8549614
90,4.1371593,8.4730368,4.4699516,3.1603053,2.5343511,2.2442749,-3.6176202,6.3446021,6.4427638,-8.9770994,-4.5190840,12.1450386
100,4.2161674,8.3988171,4.6064205,4.0763359,4.2519083,2.7328243,-3.4835455,6.3900914,6.2703824,-9.2595415,-0.8320611,12.3435116
110,4.3670015,8.3413563,4.5489597,5.3053436,4.0763359,3.0839694,-3.3494711,6.3637557,6.3996682,-9.6030531,0.2366412,10.8091602
120,4.6016321,8.1210909,4.5130472,6.1068702,2.2977099,3.4580152,-3.3686244,6.3733325,6.4547348,-9.5114508,-1.1068702,10.2213745
130,4.8961172,7.9750452,4.5322008,7.0305343,0.0763359,3.8702290,-3.3949606,6.4164276,6.2631998,-10.3893127,-3.7328243,8.6183205
140,5.2624283,7.7978749,4.7237358,8.7251911,-2.3587787,4.4122138,-3.3614421,6.2608056,6.4092450,-11.3435116,-5.4885497,6.7938933
150,5.6024032,7.6542239,4.6590929,11.6717558,-2.3435113,3.7557251,-3.3758070,6.1913738,6.5002246,-11.8931293,-7.1297708,3.5419848
160,5.9304070,7.5225434,4.6614871,14.6259546,-0.0839695,1.9694656,-3.4572096,6.2272868,6.6941538,-11.8244276,-8.3816795,0.8091603
170,5.9615316,6.7180958,3.0023136,18.6488552,16.8473282,-6.5725193,-4.0533628,6.4164276,6.8258343,-11.7480917,-9.2137403,-5.2061067
180,5.7915444,6.4068508,2.5785420,17.9389305,17.0916023,-5.8167939,-4.1754665,6.5457139,6.7109132,-12.1526718,-9.1984730,-4.3511453
190,5.6766233,6.2799587,2.3941894,18.2137413,13.0000000,-4.0381680,-4.3047528,6.6342988,6.4260044,-13.9083967,-8.8320608,-3.2213740
200,3.0932927,7.6997132,0.8188128,-13.3206110,16.1832066,-4.7709923,-4.0844874,6.7085190,7.1083484,-8.2137403,-14.5038166,-6.5801525
210,2.3103929,8.0923605,1.4532729,-16.8015270,0.0992366,9.1297712,-4.5705075,6.9263902,6.8330169,-10.3511448,-20.8473282,-5.0687022
220,2.4899571,8.3341732,1.8554969,-16.1450386,-12.7862597,16.9389305,-4.7357068,6.8952656,6.5313487,-12.0687027,-21.9694653,-2.7938931
230,3.0813217,8.7004843,2.3175755,-14.9465647,-24.9694653,22.6030540,-4.8290801,6.9192076,6.5098009,-15.6564884,-25.7862587,1.3129771
240,3.8498566,8.8561068,2.5522060,-13.9847326,-34.3740463,25.9465656,-4.7764082,6.9742737,6.5145893,-18.2290077,-26.7938938,6.3587785
250,4.6590929,8.9734221,2.9640064,-14.6641226,-38.9771004,25.5343513,-4.3263001,6.6893654,6.8497758,-18.8396950,-23.0687027,9.9694653
260,5.4012914,9.0763721,3.1890604,-16.1908398,-39.3664131,22.3664131,-3.9528067,6.5169835,7.2974896,-15.8320608,-13.6412210,10.9007635
270,5.8585815,9.0452480,3.5553713,-19.2137413,-36.9541969,17.2290077,-3.6391680,6.4882536,7.5369086,-10.6564884,-3.4045801,11.2824430
280,6.2727766,8.7220325,4.6112089,-21.7404575,-27.9847336,5.6030536,-3.4236910,6.4068508,7.3621325,-2.7862597,9.6412210,7.6488547
290,6.0070214,8.4251528,5.1570840,-20.4656487,-7.3511453,-7.1145039,-3.4308734,6.3398137,7.0053983,-7.0916033,5.3511453,0.3740458
300,5.2289100,8.0301113,5.4826937,-10.9923668,3.2061069,-13.0534353,-3.5098817,6.4403696,7.5584559,-2.5190840,-2.6183207,-5.2595420
310,4.8841467,7.9606800,4.7141590,-0.4045801,5.4198475,-15.9923668,-3.7109938,6.4475522,7.6829538,-3.4656489,-16.4274807,-7.1984735
320,4.5298066,7.8697009,3.5146701,6.9389315,10.1603050,-18.1221371,-3.1723011,7.6302819,8.2623482,-2.5343511,-23.2290077,-16.1984730
330,4.3310885,7.9630742,3.4715748,6.5877862,10.0152674,-17.8854961,-3.4165084,7.8361821,7.9343438,-2.7633588,-27.9160309,-18.8396950
340,4.2113791,8.0205345,3.3446827,6.0152674,9.5648851,-17.5114498,-3.5625539,8.1354561,7.8864598,-3.8778627,-34.5267181,-22.3282452
350,4.0509686,7.9391322,3.3686244,5.5801525,8.7099237,-16.9236641,-3.7301471,8.3150196,7.6159167,-6.4885497,-41.4580154,-25.0381680
360,3.9168940,8.0253229,3.3063757,5.0916033,7.7328243,-15.6412210,-3.7612717,8.4658537,7.8026633,-8.2671757,-45.2519073,-28.8625946
370,3.8378856,8.0827837,3.1292057,4.0229006,8.0534353,-13.7480917,-3.8761928,8.7459745,7.7763271,-8.3740454,-46.1145020,-32.2519073
380,3.7445123,8.2072811,3.0549858,3.1450381,7.6488547,-11.1526718,-4.1611013,8.7459745,7.7523856,-8.7709923,-43.5496178,-32.8320618
390,3.7995787,8.1115141,3.3135581,2.3358779,1.1679389,-1.0229008,-3.2465210,8.4634600,7.9630742,5.3435116,-7.4045801,-31.0305347
400,3.9504125,8.0732069,3.3901722,2.6946564,0.2595420,1.5877863,-2.7676830,8.3126259,8.3437500,10.2595415,-0.0839695,-32.5419846
410,4.0581512,8.1881275,3.3758070,3.3053436,0.2213740,4.3435116,-2.3510940,8.1546097,8.3581152,18.2213745,4.3664122,-36.1068687
420,4.1227942,8.0732069,3.3782012,3.8854961,-0.2366412,6.1984735,-1.9153515,8.6118994,8.3629036,27.0152664,10.4122133,-40.0916023
430,4.3406653,8.0157461,3.4572096,4.0610685,-0.2824427,8.5343513,-1.3766589,8.5137377,7.5201492,35.8473282,21.8931293,-46.0152664
440,4.6183915,8.0732069,3.5697365,4.8244276,-2.2519083,9.7404585,-1.1300575,8.7507620,6.7492199,41.1984749,37.3511467,-53.1908379
450,4.8602047,8.1091194,3.5960727,6.7938933,-3.4656489,9.9923668,-1.2856797,9.6940727,6.0189924,42.0076332,48.8167953,-58.8396950
460,5.3677726,8.0636301,3.6008608,7.1679387,-6.0000000,7.7328243,-1.4843974,12.4042959,3.5912843,9.3969469,53.6030540,-79.4961853
470,5.4084740,8.1091194,3.5793133,7.6641221,-3.9312978,4.2977099,-1.4532729,12.0068598,4.0270267,-23.2671757,43.6106873,-103.0992355
480,5.3318601,8.0947542,3.4548154,7.3816795,-2.2748091,2.5114503,-1.9560528,11.8392668,5.5664907,-36.5038185,29.4351139,-111.7557220
490,5.2001796,8.0420828,3.3398943,6.7175574,-1.1908396,0.7709923,-1.4389079,11.9901009,7.0389171,-31.0687027,28.6641216,-116.2442780
500,4.9870968,7.9151902,3.3494711,5.4122138,-1.1603054,0.0000000,-0.6584021,12.0044661,7.3046722,-16.2519093,47.8015251,-119.7633591
510,4.8386569,7.9822278,3.4452386,4.5801525,-2.2671757,-0.5267175,-0.0598547,11.9206696,6.9335728,5.0152674,78.0992355,-122.9312973
520,4.7596488,7.8673067,3.5625539,5.0076337,-2.0839694,-0.6412213,0.2609667,11.4298601,6.2344694,27.6106873,106.8244247,-130.0152740
530,4.7596488,7.9846220,3.5146701,5.8167939,-2.4809160,-0.9007633,-0.2274480,10.7139978,4.8195033,49.3435097,126.9542007,-139.9160309
540,4.7596488,8.0085640,3.3398943,6.2748094,-1.1221374,-1.5038168,-1.1396341,9.9047613,2.8921809,66.4732819,126.4351120,-149.5648804
550,4.5250182,8.1809454,3.1531475,5.3053436,1.3435115,-2.0305343,-0.8690908,8.4945841,-0.3136388,69.3053436,117.1984711,-161.6183167
560,4.3598189,8.2910776,3.0597742,3.8015268,3.1526718,-2.4427481,-0.0550664,6.7013364,-3.5026991,54.7480927,116.1603088,-178.2900696
570,4.1395535,8.2527714,3.0789278,1.6183206,4.4885497,-2.3358779,-0.6248835,4.4196739,-7.0939832,25.5648861,132.7480927,-197.9847260
580,4.0892754,8.3652983,3.1124463,0.1832061,5.2671757,-2.2061069,-3.1651185,1.6902977,-9.0859489,-18.6793900,146.6641235,-213.7938995
590,3.9240766,8.3796635,3.2489152,-0.6717557,5.4656487,-2.0610688,-7.2448173,-0.2489957,-8.3293848,-68.7099228,138.6030579,-217.4198456
600,3.8522508,8.4036045,3.4093258,-0.8702290,6.1984735,-1.4580153,-10.9246864,-1.6663558,-6.7540083,-113.1679382,110.7786255,-200.2595367
610,3.7612717,8.6406298,3.2513094,-0.9083970,6.2900763,-1.1603054,-12.5048513,-3.9623835,-5.0373745,-148.9389343,84.0457993,-169.1068726
620,3.6200144,8.7890692,3.1770895,-1.9160305,7.0076337,-0.5496183,-12.7466650,-6.6989422,-3.3494711,-173.2671814,72.2290039,-135.6335907
630,3.4141142,8.8896255,3.0406206,-2.8931298,6.8854961,0.7938932,-13.6468801,-9.6821022,-1.9440818,-194.3893127,62.7099228,-102.4427490
640,3.2537034,9.0524302,3.0382264,-3.9770992,6.3206105,2.8549619,-13.2422619,-12.0499554,-0.6296718,-216.6641235,46.6641235,-72.6335907
650,3.1794837,9.2846670,2.9592183,-5.5190840,4.8625956,5.5114503,-13.0411501,-14.3052816,0.9911944,-238.9465637,28.8778629,-48.1603050
660,3.3782012,9.2966375,2.9687948,-7.4045801,4.4198475,7.8778625,-12.6101961,-16.3044300,3.0621684,-250.1374054,17.5114498,-26.7480907
670,3.7349355,9.2679071,2.9640064,-9.6488552,4.2595420,9.7938929,-11.4274664,-17.7553082,6.2512288,-250.1374054,17.4656487,-12.1984730
680,4.3861551,9.0644016,2.9328821,-11.5114508,5.4045801,11.5496187,-11.4226780,-17.5039196,12.0619268,-250.1374054,31.6870232,-1.2137405
690,5.0206151,8.9063845,3.1986370,-12.9541988,5.6412215,11.3282442,-11.8895445,-16.4193516,18.2221756,-232.5572510,53.3053436,12.5572519
700,5.7149301,8.9255381,3.2225790,-12.4732828,5.8473282,8.9541988,-13.0363617,-14.8391867,19.6126022,-172.9694672,62.0763359,29.4961834
710,6.2775645,8.9399033,2.9616125,-12.1832066,11.3511448,3.6488550,-13.6660337,-13.4002781,19.6126022,-99.9312973,43.7022896,52.6030540
720,6.2943239,8.7699156,2.4971397,-13.2213745,19.6259537,-2.9541984,-12.7634239,-12.8184900,19.6126022,-28.4732819,-2.0229008,70.3893127
730,6.0932121,8.3676920,1.9919657,-17.0076332,26.2900772,-7.9312978,-9.9957409,-12.2893744,19.6126022,32.2519073,-62.3511467,73.4961853
740,5.7005649,7.7116842,1.9440818,-22.2061062,25.1068707,-8.7633591,-7.9247670,-12.6317434,16.4720230,72.7862625,-120.8091583,59.6793900
750,5.5018473,7.3717093,2.8395088,-24.3969460,7.6335878,-5.9312978,-6.3374195,-12.2486734,12.2007895,102.8778610,-161.3587799,36.4427490
760,6.0094156,7.5536675,3.9839313,-17.8549614,-19.8396950,-3.7709923,-5.8011212,-10.9438400,8.4275465,119.1908417,-182.2900696,10.1145039
770,6.8617468,7.5201492,4.6231799,-8.1755724,-44.7633591,-5.2748094,-6.8521700,-9.5480280,6.2847471,125.9083939,-195.4198456,-13.6946564
780,7.6949248,8.0420828,5.2073622,1.2137405,-54.7786255,-13.7328243,-8.2384062,-7.6422529,5.0373745,131.0381622,-206.5190887,-26.4961834
790,7.8888540,8.4083929,5.3988972,8.0000000,-48.8320618,-27.0076332,-8.8561068,-5.5688848,3.4284792,133.7404633,-213.3587799,-30.3511448
800,7.2591825,8.3533268,4.9032998,9.5419846,-31.1221371,-39.1526718,-10.0986910,-4.4627690,2.4301023,129.4503784,-211.5496216,-27.4198475
810,5.9447722,8.2862902,4.4603748,6.4274807,-9.1603050,-47.4045792,-10.4147243,-2.7413468,1.1516051,119.5038147,-207.3816833,-18.1908398
820,4.3717899,8.2192526,4.3885493,3.7328243,10.3816795,-49.8702278,-9.7036495,-1.2306134,0.7278336,102.8473282,-201.3969421,-7.4427481
830,3.2034254,8.1689749,4.6016321,4.9923663,24.0229015,-47.4503822,-8.7914639,-0.4357425,1.5370697,90.2366409,-183.4961853,2.8625953
840,2.4372849,8.3030491,4.7548604,10.6793890,27.1374054,-42.9771004,-7.3525558,0.5841822,2.7676830,86.5267181,-159.8702240,7.8244276
850,2.2984219,8.4299412,4.8099265,19.8625946,22.0076332,-39.1374054,-6.5959921,1.8961980,3.6822634,81.3816757,-134.8320618,8.5648851
860,2.2936335,8.6142941,4.6519103,31.0534344,11.7862597,-36.1908379,-6.3685441,2.6671271,4.8218975,81.0992355,-113.2061081,6.1755724
870,2.4061604,9.0907373,4.1682839,39.5801544,-1.6030535,-33.1450386,-6.7540083,3.5266411,5.9351954,85.3358765,-93.6335907,3.8854961
880,3.1315999,9.3205795,3.7660601,44.5801544,-12.7938929,-31.4656487,-7.3453732,4.1251884,6.1243367,88.2748108,-82.8702316,5.0076337
890,3.9121056,9.8808203,3.6008608,46.9007645,-18.9618320,-32.7251892,-8.1546097,4.7237358,5.7005649,83.4274826,-84.6946564,7.9083967
900,4.6303625,10.4578199,3.5817075,47.6870232,-19.9923668,-37.6412201,-8.3700867,5.2360926,4.7979555,72.1603088,-97.3206100,12.9007635
910,5.1953912,10.9318695,3.3590479,45.3587799,-15.7251911,-45.9312973,-8.0085640,5.5329719,4.4579806,55.1221390,-109.3435135,19.2748089
920,5.1618724,10.9869356,3.2082138,40.0687027,-5.7328243,-54.4274826,-6.9263902,5.3486195,5.2839761,42.5801544,-107.9389343,24.9618320
930,4.9056940,10.8935623,3.0214672,33.3740463,5.6488547,-60.9771004,-5.5688848,5.6167684,6.3613615,41.4351158,-88.4732819,29.9770985
940,4.4723458,10.7427282,3.0765336,27.4427490,14.7938929,-65.0000000,-4.6399393,6.1937680,6.9646969,46.0305328,-54.1755714,35.4809151
950,4.0725164,10.5703468,3.2441268,24.8320618,19.9160309,-66.0610657,-4.1946201,6.2296810,7.9223728,54.4122124,-16.1068707,39.8778610
960,3.8809812,10.5320396,3.4404502,25.2900772,20.8091602,-66.3282471,-4.2448978,6.3972740,8.3844519,65.4351120,11.8091602,42.7328262
970,3.5984666,10.5703468,3.4212968,27.4885502,18.2671757,-66.4885483,-4.7165532,6.3110833,7.8170285,71.8549652,29.0763359,43.1984749
980,3.2920105,10.3668404,3.4380560,30.2824421,14.5801525,-65.7633591,-6.0213866,6.1865854,6.9766679,68.6259537,31.9236641,47.1679382
990,2.9927368,10.3812056,3.2369442,32.2977104,10.6030531,-64.0000000,-6.2655940,6.0668759,6.4930420,56.7786255,22.0076332,52.6488533
1000,2.2529323,7.9511032,2.6240315,49.8625946,-9.2137403,-41.9007645,-3.5098817,7.4962072,6.6989422,48.4122124,20.2366409,51.3664131
1010,1.8961980,7.4148049,2.4420733,53.0305328,-8.3587790,-45.9160309,-3.2584918,8.0013809,6.5409255,45.3893127,20.2977104,49.9007645
1020,1.2928623,6.7085190,2.5569944,55.7633591,-8.7404585,-46.7328262,-3.4165084,8.5161324,6.4451580,42.4045792,13.1984730,46.1755714
1030,-0.2130829,5.4012914,1.1827296,58.7938919,-12.0381680,-28.4503822,-3.4236910,8.9590569,5.6335278,29.9694653,-6.5572519,35.9541969
1040,-0.2849085,5.2767935,0.7876883,52.8778610,-15.1603050,-17.5801525,-3.6415622,9.0476418,5.2504573,23.9694653,-10.2213745,31.8015270
1050,0.2705434,5.1882086,0.8259954,45.5267181,-16.9083977,-7.4885497,-4.0677280,9.1194677,5.1307478,17.8473282,-9.9770994,30.1603050
1060,0.7876883,4.9775200,0.8882443,39.3664131,-15.4656487,-1.4656489,-4.4005203,9.3253679,5.4228392,14.9312973,-2.0381680,32.0610695
1070,1.9967541,5.0325861,1.2234308,33.5190849,-9.2977095,0.2977099,-4.7333126,9.1027079,6.1075773,20.3358784,23.1221371,39.4045792
1080,2.2433555,5.0158267,0.4548960,25.7099228,6.7251906,-8.6030531,-4.5824785,9.0691900,6.0142040,23.6717548,32.8702278,39.6259537
1090,1.8483143,5.1068063,-0.1364688,19.5114498,13.9465647,-11.0305347,-4.4555864,8.9255381,5.9280128,23.6641216,31.6641216,38.1450386
1100,1.0869620,5.3414369,-0.7421987,11.0534353,18.5190830,-9.4351149,-4.4627690,8.7723103,5.7029591,21.3435116,25.7709923,35.0076332
1110,0.0909792,6.6390872,-1.2354017,-9.0610685,23.3969460,6.9618320,-3.9001346,8.2838955,5.5928264,11.0000000,8.0458012,22.3206100
1120,-0.0622489,7.5440907,-1.4149660,-18.8320618,22.3740463,17.4427490,-3.4739690,7.9582858,5.8490047,7.5496182,3.6717558,13.0687027
1130,0.2274480,8.7651272,-1.1803354,-27.7633591,17.2519093,26.5496178,-3.3255291,7.8074517,6.0453281,5.9083967,4.1603055,2.5877862
1140,2.5833304,11.2766323,0.3471575,-29.3893127,6.9465647,27.4656487,-4.1634955,7.5871863,6.7755561,12.4656487,11.7938929,-15.5419846
1150,2.8993635,11.8177195,0.3591284,-25.1679382,3.5801528,22.0610695,-4.1802549,7.6685886,6.6366930,15.9770994,19.7557259,-18.4122143
1160,2.8730273,12.3276815,0.2992737,-21.3358784,-1.1221374,15.9160309,-4.3526363,7.9391322,6.4810710,18.2519093,31.0381680,-19.7404575
1170,2.6024840,12.5958309,0.1364688,-18.3053436,-8.0152674,12.0000000,-4.5106530,8.3605099,6.5313487,20.4427490,42.1068687,-20.7022896
1180,2.5450234,12.5048513,-0.0071826,-17.0305347,-15.0381680,10.2442751,-4.4029145,8.9494801,6.9359670,24.5648861,51.9083977,-20.7022896
1190,2.4899571,12.3564119,-0.0359128,-17.5038166,-20.6335869,9.5954199,-4.2089849,9.5384512,7.1945391,32.2137413,60.9465637,-20.4580154
1200,2.4755919,11.9661589,-0.0047884,-19.4503822,-24.8778629,10.8091602,-3.6750808,10.1489687,7.0891948,41.9694672,68.9618301,-21.5572510
1210,2.6264257,11.5256281,0.2777260,-23.1297703,-27.7480907,12.4885492,-2.9975252,10.6613255,6.0405402,49.8702278,74.0000000,-25.6946564
1220,2.7389526,11.0635490,0.9504932,-25.0229015,-28.6259537,13.9770994,-2.1547706,11.1664991,4.6806402,52.0076332,76.5801544,-33.0916023
1230,2.9065459,10.5799236,1.4006008,-25.3435116,-28.8320618,15.7633591,-1.5825592,11.5112629,3.7900019,51.2137413,78.5954208,-43.0305328
1240,3.0765336,10.2471304,1.6759326,-25.8320618,-27.3206100,16.4351139,-1.1803354,12.4306316,2.4205256,44.6641235,81.6641235,-51.4503822
1250,3.2967989,9.9406748,1.9776005,-25.7709923,-26.1755733,15.5267172,-0.7589580,12.6508970,1.3359578,31.9160309,79.0229034,-64.7328262
1260,3.2082138,9.6916790,2.2337787,-24.5801525,-26.8015270,13.8549614,-1.4676381,13.0962162,0.8331779,15.8702288,69.1908417,-78.7557220
1270,3.0286496,9.4570484,2.3343346,-22.8854961,-30.7786255,12.2061071,-2.1308286,13.4840746,0.8379663,-1.0305344,59.4503822,-87.2366409
1280,2.7772598,9.2463598,2.4181314,-20.8702297,-34.8549614,11.5267172,-2.9687948,13.5128050,1.2856797,-13.4656487,54.2900772,-91.9770966
1290,2.5450234,8.8920193,2.5138988,-18.1679382,-39.8625946,11.7786255,-3.4524212,14.1568422,1.2282192,-20.0534344,56.3206100,-95.4809189
1300,2.6120608,8.7938576,2.5091105,-15.9465647,-44.8320618,12.2213745,-3.8881636,14.8990412,0.9097920,-21.7786255,65.6641235,-94.4045792
1310,2.8275378,8.7818871,2.6096666,-13.4656487,-47.5648842,10.7709923,-3.8809812,15.4999828,-0.0502780,-23.4656487,75.9083939,-90.8854980
1320,2.9352763,8.7818871,2.7700772,-12.0152674,-47.4580154,7.9770994,-3.0597742,15.6484222,-1.4867916,-27.8625946,88.3664093,-88.2137375
1330,2.9376705,8.8992023,2.6814921,-12.1679392,-44.5114517,4.7175574,-2.0733681,14.8990412,-2.5737536,-33.8167953,106.9160309,-89.8167953
1340,3.2489152,9.1027079,2.9520357,-13.3129768,-40.5419846,-0.8549618,-1.2904681,13.6923695,-3.3135581,-40.1450386,128.0839691,-98.7251892
1350,3.5936785,9.2870607,3.3662305,-12.6564884,-34.5114517,-9.1679392,-0.9313397,12.2869806,-3.8714044,-43.4122124,150.0686951,-110.8625946
1360,3.6559272,9.0883436,3.7469065,-9.1526718,-25.3129768,-19.2595425,-1.1851238,9.7036495,-4.4148855,-45.2977104,168.1603088,-125.3740463
1370,3.1435707,8.5137377,3.6295912,-6.9312978,-17.4122143,-26.6717548,-2.5546002,6.3302369,-5.1666608,-48.2366409,168.2900696,-143.9847260
1380,3.2417326,8.0803890,4.6519103,0.3053435,-11.7633591,-33.2748108,-4.7883787,3.0454090,-6.8306227,-59.8702278,141.3969421,-160.5648804
1390,2.8897867,7.7499914,4.9296360,14.1221371,-5.5648856,-37.2290077,-6.6558466,-1.2928623,-8.4107876,-89.6870193,105.9770966,-168.0458069
1400,1.8602852,7.4411407,3.8139439,25.8549614,-4.9770994,-35.7938919,-8.2312231,-6.2751703,-8.7651272,-131.0915985,66.9007645,-171.7633514
1410,1.1779412,7.4890246,2.8849983,31.9389305,-7.1526718,-27.8549614,-11.2335367,-10.5487986,-7.3597383,-170.1603088,38.9771004,-167.5343475
1420,0.5769997,7.6901364,1.5562232,33.6564903,-7.1297708,-16.2977104,-15.4856176,-14.5997677,-5.1977854,-202.5419922,32.9007645,-141.6641235
1430,0.5195391,7.7954807,0.6320660,30.4732819,-1.0076336,-0.6946565,-18.8159351,-17.8989601,-3.6224086,-230.5496216,36.1832047,-93.1221390
1440,1.4341195,7.9391322,0.8547257,27.9923668,11.8244276,12.8167934,-19.6131992,-19.6131992,-1.1875180,-250.1374054,47.2137413,-36.0916023
1450,2.3702476,8.4610653,0.9097920,30.6564884,18.9923668,19.5267181,-18.2197819,-19.6131992,2.8586621,-250.1374054,65.7862625,12.4198475
1460,3.4811516,8.9973640,0.1843526,33.9923668,22.9847336,18.3587780,-14.7865143,-19.6131992,9.7730818,-250.1374054,106.1984711,41.0916023
1470,3.8426740,10.2207947,-1.0582317,31.0687027,27.4885502,11.3358774,-12.0044661,-19.6131992,19.6126022,-250.1374054,181.2824402,47.1755714
1480,3.9456241,11.1114330,-1.7022687,22.7862587,33.6335869,0.1603053,-13.7785606,-19.6131992,19.6126022,-231.5954132,250.1297760,42.8778610
1490,3.2896163,11.5208397,-2.1906834,11.0839691,37.9847336,-11.2977095,-17.7816448,-17.1615505,19.6126022,-108.5572510,250.1297760,47.7022896
1500,2.3247581,11.5232334,-1.9752063,-1.2977099,37.4503822,-19.4732819,-19.6131992,-14.1807842,19.6126022,30.5801525,172.0000000,68.3435135
1510,1.5083394,11.4346485,-1.2976507,-8.3969469,31.2290077,-24.1984730,-19.6131992,-12.6772327,19.6126022,150.8854980,25.3587780,96.2519073
1520,0.7134684,11.0204544,-0.0694315,-7.5572519,18.7175579,-26.1374054,-19.5006733,-13.0483322,19.2061882,220.4351196,-123.9465637,117.9160309
1530,0.1005560,10.6302013,0.6392486,0.7862595,2.5114503,-25.3664131,-13.8575687,-14.0107965,5.5545197,228.5343475,-243.8320618,112.9389343
1540,-0.1005560,10.4697905,0.9193687,12.7404585,-10.4351149,-22.4427490,-9.0763721,-13.5654774,-3.9097114,195.1297760,-250.1374054,79.7786255
1550,-0.1436514,10.4554253,0.4548960,20.7480907,-15.6412210,-19.2137413,-8.0708122,-11.2502966,-6.5313487,153.5877838,-250.1374054,42.1603050
1560,0.0574605,10.5871058,-0.0742199,21.7938938,-15.4045801,-16.6259537,-9.2176294,-7.4028339,-5.7891502,135.2900696,-250.1374054,33.9389305
1570,0.2561783,11.0156660,-0.2657550,19.0916023,-11.0992365,-16.6793900,-10.8480721,-3.7828193,-4.1156116,124.3740463,-188.1679382,51.2061081
1580,0.3256098,11.3963413,-0.5554519,13.0610685,-5.3893127,-18.0839691,-11.5950594,-1.8171898,-1.9608412,123.8015289,-136.1908417,83.5572510
1590,0.3471575,11.4585905,-0.5626345,4.4198475,0.3740458,-19.9618320,-10.3788109,-1.3096216,-1.3814473,124.9236679,-106.7709961,110.5648880
1600,0.4118006,11.1521349,-0.2394189,-4.1908398,6.8320613,-22.3511448,-8.5352850,-0.8690908,-1.4532729,117.6183243,-92.0381699,123.1297684
1610,-0.2035061,11.7818060,0.3543400,-9.5954199,12.2366409,-24.7022896,-6.4619174,0.3399749,-1.2904681,103.0610657,-81.8549652,125.2290039
1620,-0.5386927,12.3516235,1.2330076,-10.7251911,18.1984730,-22.5267181,-5.3318601,0.8475431,0.0622489,90.4122162,-74.7480927,114.8244247
1630,-0.2657550,11.7865944,1.8985922,-6.7862597,23.6412220,-22.2366409,-4.4771342,2.6719155,1.3814473,79.3816757,-82.5725174,96.7404556
1640,-0.3758878,12.3204985,2.0111191,-0.7251908,26.0687027,-21.6259537,-4.6638808,4.4891052,2.2768741,67.8702316,-96.9923630,74.9847336
1650,-0.4477134,13.0770626,2.1739240,7.4274807,23.7328243,-21.2824421,-6.0165982,5.8609757,3.3686244,59.3053436,-112.0839691,57.2900772
1660,-0.1699875,12.7873659,2.0350611,18.3053436,16.0610695,-21.0992374,-7.3645267,7.3477674,3.6415622,52.0687027,-126.4274826,48.8625946
1670,0.2825144,13.0555153,1.5634058,27.9770985,11.5038166,-22.7404575,-8.1067257,8.4993725,4.0030847,43.8854980,-132.4503784,48.5725174
1680,0.5937590,12.7538471,1.2952565,35.4274826,9.8167934,-24.0458012,-8.3820572,9.5552101,5.4180508,42.7938919,-122.6030502,55.8931313
1690,0.8236012,12.3037395,0.7374104,38.0839691,8.7557249,-26.5572510,-8.4562769,9.9143381,6.4188218,54.0687027,-97.0305328,69.0534363
1700,0.7876883,11.9877062,0.5243275,36.3358765,9.8091602,-28.5267181,-8.2024927,9.4953556,6.4810710,71.4809189,-61.2061081,84.2290039
1710,0.5985473,11.5352049,0.8307837,33.7709923,13.4656487,-28.1832066,-8.0636301,9.2248116,5.9160423,89.2900772,-22.1145039,96.9694672
1720,0.8834559,10.9175043,1.1276633,32.5954208,18.1908398,-27.1068707,-8.5041609,10.1178446,4.9368186,97.0152664,8.1145039,110.9770966
1730,1.1468167,10.6086531,1.1300575,33.2366409,20.4198475,-27.7557259,-7.8242111,11.2143831,4.2592630,95.7099228,25.3664131,127.6717529
1740,1.3527170,10.0962973,0.7996593,32.7175560,20.8473282,-30.4503822,-6.6175399,11.2622671,4.5154414,92.7404556,35.1984749,141.1221313
1750,1.4460905,9.5911226,0.5434810,29.2748089,22.3282452,-33.9847336,-4.8745699,10.7810354,4.7021880,89.6564865,40.5572510,144.7557220
1760,1.2258250,8.8752604,0.6081241,24.8244267,24.1832066,-37.2748108,-3.5649481,10.3213511,4.6902170,87.2671738,37.6335869,136.2900696
1770,0.7469871,8.0947542,0.8451489,21.2748089,23.7786255,-38.2595406,-3.1699069,10.0340481,4.2472920,84.4809189,31.6259537,125.0534363
1780,0.3543400,7.4746594,0.8092360,18.9389305,22.3206100,-37.2061081,-2.9735832,9.7204094,4.2568688,80.7862625,21.7175579,112.0305328
1790,-0.1077385,6.8258343,0.7996593,17.9770985,19.0687027,-33.4427490,-2.7485294,9.8784256,4.2784166,78.9770966,10.6335878,98.7328262
1800,-0.5602403,6.2224984,0.8714849,18.6564884,12.8320608,-25.9083977,-2.9161227,9.8832140,3.8666160,78.6488571,4.1450381,86.8167953
1810,-0.9217629,5.6622581,0.9433106,19.8931293,3.5877862,-14.5572519,-3.4428444,10.0292597,3.5769191,78.2977066,4.6564884,79.7404556
1820,-0.6344602,5.2720051,1.1970947,23.8167934,-5.1526718,-3.6106870,-4.1850433,10.3333216,3.7397239,80.9465637,7.1755724,79.7099228
1830,0.0526722,5.0541339,1.3048333,29.4580154,-12.6259546,5.3511453,-4.6136031,10.2591019,3.4021432,86.5954208,11.1679392,85.1450348
1840,1.1659702,4.8817525,0.9337339,33.2595406,-14.5725193,10.1679392,-4.9607606,10.2207947,2.3391230,86.2748108,15.1603050,100.0152664
1850,2.1308286,4.9870968,0.3950413,33.5267181,-12.6793890,9.1297712,-3.4524212,9.8568783,1.7381816,90.0687027,21.4427490,103.4961853
1860,2.5402350,5.1307478,-0.2705434,29.0458012,-10.1679392,4.8320613,-3.2249732,9.4426832,0.4764437,88.8778610,23.2824421,104.3358765
1870,2.5593886,5.0948353,-0.9792235,20.0229015,-2.7633588,0.4656489,-2.8754215,9.1098909,0.0909792,81.2824402,24.8244267,107.3358765
1880,0.7014975,5.4348102,-1.5801650,-20.4732819,24.8167934,3.6793892,-2.3271523,7.6949248,0.2035061,69.2748108,30.9618320,117.2824402
1890,-0.0095768,5.9375896,-1.4197544,-32.0228996,30.2061062,11.6335878,-1.5801650,7.0652533,-0.0143651,63.0916023,27.1984730,119.9847336
1900,-0.1053443,6.5050125,-1.4173602,-41.8167953,35.3511467,22.1984730,-0.5626345,6.2488346,-0.1963235,55.1145020,20.4961834,116.5801544
1910,-0.0837966,7.4267755,-1.2593436,-51.3206100,39.9160309,33.1450386,0.3567342,5.7316895,-0.3758878,44.4885483,11.4961834,107.1603088
1920,0.1795642,8.2886839,-0.8882443,-57.2748108,40.3358765,43.5496178,1.1396341,5.3438311,-0.4501076,32.4809151,1.9312977,94.6412201
1930,1.2952565,9.4259243,-0.2753318,-59.0839691,35.6488533,49.3206100,1.5203103,5.0469513,-0.0598547,22.5496178,-0.6335878,84.5114517
1940,3.5817075,11.2048063,0.9217629,-46.5877876,16.2061062,38.5877876,2.0111191,5.1044121,1.3383518,16.2366409,14.0305347,71.1297684
1950,3.4236910,12.1481171,0.8427547,-35.6183205,-10.1145039,18.5343513,2.5306582,4.8123207,1.1755470,16.4045811,17.4656487,51.2900772
1960,3.2441268,12.1864243,1.0534433,-35.5954208,-15.7786255,13.0076332,2.6360025,5.1690550,0.8523315,15.4580154,16.4274807,38.4122124
1970,2.9185169,11.8656025,1.4221486,-35.9618340,-17.7022896,11.2137403,2.8179610,5.5305777,0.2418131,10.3511448,15.6259546,22.4122143
1980,2.8299320,11.5854826,1.9009864,-34.9083977,-18.6412220,11.9312973,2.4157372,6.0357518,-0.1556223,1.1374046,11.4961834,7.2519083
1990,2.7389526,11.0994625,2.2744799,-32.1145020,-20.7328243,15.0839691,1.8698620,6.6869712,0.1699875,-7.2137403,6.0152674,-5.3816795
2000,2.7293761,10.6349897,2.4660151,-28.6793900,-23.8549614,18.6259537,1.1204807,7.3142486,0.3782819,-14.6030531,-1.8473282,-15.2900763
2010,2.6719155,10.3500814,2.6096666,-24.4198475,-29.7328243,22.3282452,0.1173153,8.0947542,0.3232156,-22.2061062,-14.2595415,-22.3740463
2020,2.7485294,10.2495251,2.7700772,-19.4503822,-35.9541969,26.1755733,-0.8451489,8.9111729,0.2992737,-30.1603050,-25.5801525,-22.4503822
2030,3.1627243,10.0651722,2.7126167,-15.1526718,-43.8396950,27.6183205,-0.9696468,9.6892843,0.3567342,-36.6793900,-30.7786255,-20.2519093
2040,3.5266411,9.8089943,2.8179610,-11.6717558,-53.1755714,27.0687027,-0.7852941,10.4626083,0.7469871,-39.5419846,-26.3893127,-19.3206100
2050,4.0389977,9.5528164,3.0430148,-8.9312973,-61.7786255,22.6564884,-0.3471575,11.2000179,1.2258250,-38.5038185,-17.2900772,-19.6641216
2060,4.0389977,9.3229742,3.3135581,-6.4503818,-66.2824402,17.2671757,0.1316804,12.2223368,1.5346755,-34.5954208,-4.3206105,-22.3893127
2070,3.7540891,9.0093346,3.2369442,-6.8167939,-63.1297722,11.8778629,0.2657550,13.2853575,1.8985922,-29.1679382,9.3664122,-26.4351139
2080,3.3063757,8.8249826,3.2608860,-10.4351149,-52.0228996,8.5114508,0.4141948,14.7122946,1.8267666,-21.5038166,23.9389305,-30.7938938
2090,2.8466914,8.6765423,3.1339941,-17.3816795,-37.5343513,4.9160304,0.6200951,14.8990412,1.2521610,-16.8625946,29.7480907,-35.3435097
2100,1.8698620,8.5520449,3.0717452,-24.6870232,-21.7633591,1.0839695,0.9265513,15.1576138,1.3120158,-7.1832061,30.0992374,-41.6259537
2110,0.9888002,8.3916340,3.1531475,-28.6488552,-5.9465647,1.1526718,1.7932479,16.1344433,0.0359128,-0.5954198,29.1603050,-50.5954208
2120,-0.2849085,9.1410151,2.1858950,-33.8396950,11.8778629,10.4732828,4.7285242,15.7992563,-4.9224534,-27.9312973,-9.7022905,-85.6335907
2130,-0.9145803,9.9215212,1.8124014,-35.9236641,15.1908398,15.8473282,5.6598639,15.5933561,-5.4180508,-51.7557259,-18.6870232,-109.9542007
2140,-1.1228749,11.2670555,1.4245427,-38.3435097,15.7251911,19.4580154,5.5736732,15.1073351,-4.8099265,-74.1145020,-19.4198475,-134.2824402
2150,-1.0127422,12.2319136,1.1851238,-41.3206100,15.2213745,19.0229015,4.7309184,14.3747139,-2.3822186,-85.5343475,-11.8396950,-153.3282471
2160,-0.7757174,12.8376436,1.3455344,-42.8854980,16.1908398,16.0610695,3.6511390,13.8527803,0.2346306,-82.3206100,4.8625956,-167.5343475
2170,-0.8283895,12.8998928,1.3694763,-40.0458031,18.0763359,13.2137403,2.8778157,13.5535069,2.0590029,-67.0000000,23.0076332,-175.7862549
2180,-0.9097920,12.8041248,1.6112895,-31.4351139,18.6106873,12.5038166,2.5641768,13.0674858,3.1842721,-43.2213745,40.9847336,-182.1297760
2190,-0.8930327,12.4593620,1.6065011,-16.4503822,15.1297712,13.9007635,3.2489152,12.6700506,2.8778157,-17.7251911,59.3358765,-189.1068726
2200,-0.6655847,11.8775740,1.5370697,3.9465649,8.0610685,16.8778629,4.2496862,12.4042959,1.9632354,6.8091602,87.5343475,-197.7633514
2210,-0.0742199,11.5280218,1.1300575,25.9541988,1.2671756,20.4351139,5.2121506,12.7897596,0.9600700,30.2290077,135.4961853,-208.4656525
2220,0.6153067,11.3652172,0.1819584,44.8015251,-2.9083970,22.0916023,5.3965030,12.4761209,0.0095768,50.2595406,191.4961853,-222.7557220
2230,1.5729824,11.2838144,-1.2976507,55.6183205,-6.2671757,19.0458012,3.9264708,12.3635941,-0.6751614,66.7022934,236.4656525,-237.9770966
2240,2.2313845,11.1664991,-2.4492557,56.1984749,-6.7328243,10.4198475,0.2035061,12.7466650,-2.5067163,72.1984711,250.1297760,-247.3893127
2250,2.7676830,10.9031391,-3.2201848,49.7862587,-1.5725191,-3.0229008,-2.0063307,13.0698805,-4.8769641,54.8091621,227.5801544,-248.3969421
2260,2.8012016,10.7068148,-3.5122759,38.2213745,7.0687022,-18.7709923,-3.1220231,12.0691090,-6.3637557,19.6183205,180.5343475,-250.1374054
2270,2.2577207,10.0986910,-3.2513094,24.5190830,15.0229006,-33.7099228,-3.4021432,10.6278067,-6.4236102,-19.2977104,120.5725174,-250.1374054
2280,1.3479286,9.1769285,-2.2792683,15.1068707,21.4809170,-44.3511467,-4.3071470,8.6597834,-6.4738884,-53.8167953,68.2519073,-250.1374054
2290,0.1197095,8.5137377,-1.5873476,11.6412210,23.4885502,-47.4809151,-4.9727316,6.5576849,-6.4547348,-81.0992355,46.6793900,-250.1374054
2300,-0.7541697,8.0827837,-1.1132981,12.4961834,21.6412220,-43.5572510,-5.8083038,3.3614421,-5.7484488,-98.2290039,44.4274826,-237.7786255
2310,-1.5825592,8.1785507,-0.9361281,14.7786255,18.0458012,-34.7938919,-6.4595232,-1.2210367,-5.9016771,-104.7175598,63.0763359,-219.4580078
2320,-1.8626794,8.2791071,-1.0175306,16.0381680,11.3511448,-23.2748089,-7.4363523,-5.7077475,-5.5090299,-103.0992355,96.9694672,-205.1603088
2330,-1.6567791,8.4993725,-1.1563935,14.5954199,5.0534353,-11.6183205,-10.0747490,-10.5152798,-4.8099265,-97.0305328,123.1832047,-192.8778687
2340,-1.0486550,8.9829988,-1.1587877,9.8015270,-1.3129771,-2.6946564,-13.0363617,-15.0833931,-4.7883787,-97.5419846,115.5801544,-182.1832123
2350,-0.4525018,9.3038206,-0.8547257,3.8320611,-5.0229006,2.2442749,-14.6380739,-19.4336357,-4.9727316,-113.9312973,80.6335907,-174.6793823
2360,0.0502780,9.6222477,-0.4165890,-2.4045801,-7.0458016,3.9847329,-15.8495340,-19.6131992,-4.3239059,-134.5725250,50.2290077,-169.7328186
2370,0.5793939,9.9287033,0.1819584,-7.9770994,-6.8854961,4.0000000,-16.1392307,-19.6131992,-3.5601597,-152.8167877,40.8778610,-169.1145020
2380,0.9050036,10.1178446,0.8523315,-13.2137403,-4.2595420,3.0992367,-14.3651371,-19.6131992,-2.7748656,-174.0610657,65.4198456,-179.9847260
2390,1.1228749,10.2112179,1.3407460,-17.9694653,1.9312977,3.6641221,-15.0977583,-19.6131992,0.0095768,-201.7099304,119.5725174,-198.6641235
2400,1.2401901,10.3452930,1.7357874,-22.4885502,9.4351149,5.8091602,-19.4647598,-15.1384602,6.1746144,-220.6106873,161.2519073,-198.3358765
2410,1.4987626,10.2327662,2.1427996,-26.2977104,15.4580154,8.0152674,-19.6131992,-9.9789820,13.0459385,-221.6793823,156.5801544,-160.7709961
2420,2.0973101,10.1034794,2.8730273,-26.6870232,20.8091602,8.8167934,-19.6131992,-6.0261750,19.6126022,-199.9236603,107.2061081,-93.9847336
2430,2.6743097,10.0723553,3.5697365,-20.4656487,22.8931293,6.6106873,-19.6131992,-2.9855542,19.6126022,-140.6412201,23.2748089,-9.2748089
2440,2.9640064,9.9694052,3.9025288,-9.6564884,20.0305347,1.1526718,-19.6131992,-2.8586621,19.6126022,-46.7099228,-73.9847336,79.7709961
2450,2.9783716,9.8975792,3.8211265,3.2748091,14.9541988,-4.5419846,-19.6131992,-6.9239960,19.6126022,64.3740463,-150.1145020,149.2061005
2460,2.5689652,9.8832140,3.4260850,16.2519093,9.7786255,-8.7328243,-14.9373484,-11.2981796,15.0235386,156.4045868,-189.2213745,175.6259613
2470,2.1667414,9.9957409,2.4133430,25.1374054,6.4809160,-10.6335878,-9.1051025,-13.8096848,3.3135581,196.5114441,-206.1755676,156.6106873
2480,1.7573351,10.0412302,1.5274929,27.9083977,4.3282442,-10.5954199,-7.8313937,-13.3380299,-4.0844874,185.3816833,-205.8549652,126.9923630
2490,1.5322813,10.2064295,1.1276633,26.8091602,3.3511450,-9.4198475,-8.3533268,-11.2646618,-6.9048424,148.1679382,-195.5572510,105.7557220
2500,1.4269369,10.4769726,0.7493813,24.5877857,4.3893127,-7.6488547,-9.3588867,-8.6358414,-6.3589673,112.8091583,-189.6030579,97.9847336
2510,1.3910241,10.9222927,0.4692611,20.9465656,6.5572519,-6.1374044,-10.4099360,-6.9263902,-4.3741841,92.1450348,-190.0305328,101.1374054
2520,1.2689204,11.0731258,0.3782819,15.1908398,9.1908398,-5.7328243,-10.2878323,-5.3725610,-2.7389526,84.0229034,-192.8854980,108.8396912
2530,1.2234308,11.0108776,0.5291159,8.7251911,11.4809160,-4.4122138,-9.3804340,-4.2472920,-1.7860653,80.6106873,-196.8396912,112.0992355
2540,1.3838415,10.8289185,0.9959828,5.0763359,13.0305347,-3.1526718,-7.3549500,-3.0765336,-1.9584470,76.0763321,-200.6412201,106.7862625
2550,1.5059452,10.6349897,1.5250987,4.7862597,12.7251911,-2.7404580,-5.3605900,-1.3694763,-2.0925217,66.3740463,-196.5190887,94.0610657
2560,1.5562232,10.3500814,1.7238164,6.1526718,9.4809160,-2.8167939,-4.5896611,-0.0454896,-1.6184721,53.8320618,-179.9313049,78.7633591
2570,1.6711442,7.6039457,0.8427547,22.9847336,-6.0229006,-18.8015270,-9.3924055,10.1585455,5.6047974,10.0610685,-67.6564865,80.2213745
2580,1.4006008,7.2927012,1.1492109,20.3816795,-10.0381680,-17.5954189,-10.1513634,10.6900558,6.6630292,24.6183205,-38.3816795,89.7709961
2590,1.2569494,6.9766679,1.1180865,19.5419846,-13.1450386,-16.2748089,-10.6182299,11.0946741,6.6103573,38.3511467,-20.9694653,98.2137375
2600,1.0055596,6.7899213,0.9552816,18.6717548,-14.7480917,-14.8091602,-10.1944590,11.2431135,5.7412663,45.7404594,-20.1755733,100.7022934
2610,0.8092360,6.6797886,0.6033357,15.8549614,-11.3282442,-11.9007635,-9.4905672,11.7650471,4.6303625,42.7709923,-40.5343513,94.9083939
2620,0.6584021,6.7468257,0.3040621,11.0000000,-4.8854961,-8.3511448,-8.9638453,12.0499554,3.7014170,33.8549614,-60.0763359,89.8320618
2630,0.4309541,7.0053983,-0.1053443,5.1297708,3.3206108,-4.2977099,-8.7531567,12.2582502,3.7684543,26.6259537,-64.3969498,90.5343475
2640,0.1029501,7.1921453,-0.5889706,-2.6259542,10.1450386,1.1755725,-8.6478119,11.7027979,4.0653338,24.8778629,-51.6488533,97.3282471
2650,0.0191535,7.5823979,-0.9600700,-11.1374044,12.9541988,6.2290077,-8.3389616,10.8815908,4.3550305,28.7251911,-28.6793900,106.3358765
2660,-0.1867468,7.9702568,-1.1013272,-20.5114498,12.0000000,12.1068707,-8.2288294,10.2662840,4.4531922,32.4045792,-5.3511453,115.5572510
2670,-0.1556223,8.3988171,-0.8643024,-28.4351139,8.7175570,18.3664131,-8.1857338,9.6102762,4.4100971,34.6793900,11.7633591,127.2900772
2680,0.4070122,8.9255381,-0.1221037,-32.0534363,5.1603055,23.3664131,-7.2232695,9.0596132,4.6926112,34.9083977,17.0687027,137.0381622
2690,0.7948709,9.3301563,0.3615226,-31.6106873,1.4809160,27.5267181,-5.7843618,8.6861191,4.9296360,38.1374054,17.1526718,142.5343475
2700,1.2569494,9.8042059,0.5554519,-29.6641216,-1.4656489,30.1297703,-4.2879934,8.0420828,4.7979555,45.3511467,20.1908398,144.9618378
2710,1.8004304,10.2184010,0.8164186,-26.4809170,-2.7709923,31.3053436,-2.8826041,7.3908629,4.1299767,51.3587799,20.7480907,143.1755676
2720,2.2170193,10.5847120,1.0318956,-22.3358784,-4.1832061,30.8473282,-1.6735384,6.8138633,3.3782012,53.3358765,19.1603050,135.5496216
2730,2.6838863,10.8863792,0.9648584,-18.2671757,-6.3664122,28.8473282,-0.7134684,6.4188218,2.8706331,53.9923668,15.5954199,125.4351120
2740,3.1651185,11.0827026,0.9480990,-15.1984730,-7.9770994,25.2213745,-0.0502780,6.0980005,2.2672975,54.3664131,13.8625956,114.2213745
2750,3.3901722,11.2670555,0.9026094,-12.9389315,-9.4427481,20.7938938,0.1819584,5.8705525,1.2976507,52.3206100,13.9618320,103.4122162
2760,3.5194585,11.2933912,0.8762733,-11.5954199,-10.9770994,15.7328243,0.4118006,5.9160423,0.7278336,46.8015251,10.8244276,93.0457993
2770,3.4691806,11.2479019,0.8547257,-11.1374044,-12.4122133,10.7022905,0.6751614,6.0046272,0.4165890,41.2671738,8.7786255,84.1450348
2780,3.2034254,10.8791971,1.2473727,-10.8473282,-17.9312973,2.5114503,1.4006008,6.3326311,0.1580165,30.2061062,12.9618320,67.1908417
2790,2.9065459,10.6038647,1.4436963,-10.2213745,-20.1908398,0.1984733,1.3958124,6.3134775,0.4453192,27.1755733,18.6870232,59.5877876
2800,2.5665710,10.4506369,1.4987626,-9.4274807,-22.6412220,-0.6717557,1.4987626,6.3230543,0.5913648,25.5725193,22.5114498,52.8931313
2810,2.3654592,10.3213511,1.4053892,-9.5267172,-24.2366409,-1.2366412,1.3670821,6.4331870,0.3830703,23.1526718,25.6793900,45.7633591
2820,2.1308286,10.1729107,1.5107336,-10.4961834,-24.6641216,-1.2290076,1.1276633,6.5505023,0.0454896,17.9847336,24.0229015,39.9694672
2830,2.0039365,9.8281479,1.3742647,-11.6717558,-24.9770985,-1.6335878,0.9121862,6.6510582,-0.1651991,10.1603050,18.9236641,33.5114517
2840,1.7309990,9.5336628,1.2737088,-14.1984730,-23.6717548,-1.9618320,0.9768293,6.9934273,-0.1053443,2.1755726,14.3206110,28.1450386
2850,1.2808913,9.1386213,1.2042773,-17.5725193,-21.7022896,-0.8702290,0.9480990,7.6039457,-0.0383070,-5.8473282,7.4656487,21.6641216
2860,0.1388630,8.5975342,1.2282192,-26.8778629,-14.5801525,5.0000000,0.9026094,8.2743187,0.8906385,-14.7251911,2.6641221,7.7022901
2870,-0.3878587,8.4371233,1.2784972,-29.5877857,-10.0076332,11.8396950,0.5410868,8.8968077,1.2569494,-15.7480917,1.3129771,-0.4809160
2880,-0.8236012,8.2982607,1.3024391,-29.3664131,-5.3740458,21.8931293,0.2202654,9.3995876,1.4053892,-17.1526718,-4.6030536,-8.6106873
2890,-0.8427547,8.3581152,1.1013272,-28.2061062,-6.3053436,32.5572510,0.0694315,10.0388365,1.3766589,-19.9465656,-12.3740454,-16.7557259
2900,-0.0861908,8.5640154,0.8786675,-26.2900772,-10.5648851,40.0076332,-0.0335187,10.9534168,1.5945302,-23.5496178,-17.8320618,-24.8244267
2910,0.9050036,8.8896255,0.9385223,-24.9007626,-16.5877857,42.1984749,-0.1556223,11.7291346,2.0877333,-26.4198475,-17.6412220,-29.7251911
2920,1.6304430,9.2726955,0.7900825,-22.5267181,-24.2442741,39.8167953,-0.4333483,12.5383701,2.7437410,-23.7786255,-10.3206110,-32.9847336
2930,3.0980811,9.3397331,0.8068419,-24.7862587,-33.6870232,19.1603050,3.0382264,14.8104563,-0.9552816,14.7633591,-14.7786255,-38.4427490
2940,2.9161227,9.1218615,0.9385223,-22.9160309,-29.3969460,17.5038166,5.3869262,15.4113979,-3.5314295,0.6259542,-37.3816795,-55.0152664
2950,2.7365584,8.8225880,0.9026094,-20.0763359,-25.8091602,18.4045811,7.8409705,15.2749290,-5.6574697,-24.7709923,-51.3969460,-80.3435135
2960,2.8562679,8.7603388,0.8236012,-18.1526718,-26.3358784,21.1145039,9.0189114,14.3340120,-6.0860295,-51.7480927,-45.5648842,-111.3511429
2970,3.2991931,8.8585014,1.1755470,-14.3587790,-25.2137413,21.0152664,8.2838955,13.5271702,-4.7404952,-70.2366409,-21.8167934,-145.0534363
2980,3.5553713,9.1625633,1.2497669,-9.2213745,-20.6564884,17.3893127,6.1051831,12.8304615,-2.6575503,-75.8167953,5.0152674,-172.2748108
2990,3.3758070,9.5719690,0.8762733,-6.4427481,-12.3740454,12.1068707,3.3662305,12.3037395,-0.9696468,-72.6641235,35.2595406,-185.9694672
3000,2.7413468,9.9358864,0.3710994,-7.2519083,-2.0763359,7.1374044,2.2936335,12.1840305,0.8475431,-61.6641235,67.0534363,-189.7786255
3010,2.2960277,10.0627785,0.0526722,-10.7557249,5.1603055,3.5419848,2.1595588,11.8057480,1.9177457,-45.0458031,108.2137375,-194.7480927
3020,1.9871773,9.9981356,0.0526722,-14.3664122,7.8854961,1.0076336,1.3742647,12.1768475,2.6982515,-25.6488552,148.6946564,-200.5572510
3030,1.7669119,9.8880024,0.4525018,-15.8015270,4.5877862,-1.4809160,0.2729376,12.9477768,2.8586621,-9.4274807,172.1679382,-207.4961853
3040,1.6950861,9.8137827,1.0079538,-14.1832066,-3.4351146,-4.0229006,-1.3694763,13.3523941,2.1691356,-4.6335878,166.7022858,-215.3358765
3050,1.7118455,9.7204094,1.4843974,-9.7404585,-13.2519083,-6.3282442,-2.0398495,13.2326851,1.4149660,-11.4045801,130.8778687,-225.7175598
3060,1.7309990,9.7539282,1.6974803,-4.3435116,-20.6564884,-8.4503813,-2.6862805,12.3157110,0.7278336,-20.9770985,91.3511429,-237.8625946
3070,1.6232605,9.9741936,1.5681942,0.2442748,-18.7404575,-12.8625956,-2.3271523,8.1713686,-1.5705882,-33.4198456,59.6106873,-250.1374054
3080,1.2952565,10.1226330,1.4413021,-3.7022901,-13.4122133,-12.9770994,-2.6240315,4.6758518,-3.0717452,-36.5801544,65.2442780,-250.1374054
3090,1.0725969,10.0675669,1.6879035,-9.2977095,-6.0534353,-11.7480917,-2.9999194,0.0670373,-4.3837609,-39.9160309,74.8167953,-250.1374054
3100,0.9097920,10.1130562,2.1427996,-13.2137403,-1.7862595,-8.8015270,-4.1874375,-6.2943239,-6.0070214,-44.5801544,81.2442780,-250.1374054
3110,0.8619082,10.1130562,2.6695213,-13.3129768,-0.5572519,-5.1450381,-7.7045016,-12.3707771,-7.5680327,-57.5725174,80.4351120,-250.1374054
3120,0.9576758,10.1753054,3.2393384,-10.4045801,-0.3969466,-1.9923664,-14.2071199,-18.3227310,-9.0045462,-88.0916061,55.1450386,-250.1374054
3130,1.1851238,10.0627785,3.4955165,-6.1526718,0.8931298,0.4274809,-19.6131992,-19.6131992,-9.6198530,-142.6030579,-4.2442746,-224.0152740
3140,1.3886299,9.9837704,3.3111639,-3.0687022,3.2900763,1.6488550,-19.6131992,-19.6131992,-8.5209198,-202.8702240,-59.7022896,-175.5038147
3150,1.6160779,9.8736372,3.2752512,-1.5572519,8.8244276,1.6717557,-16.4361115,-19.6131992,-6.1051831,-250.1374054,-50.2442741,-150.8931274
3160,1.6998745,9.9310980,3.4308734,0.4198473,15.0992365,0.2824427,-12.3444405,-19.6131992,-2.3846128,-250.1374054,41.2290077,-171.7557220
3170,1.5753766,9.7515335,3.4380560,3.5267177,21.0000000,-0.9007633,-15.8447456,-19.6131992,5.5353661,-250.1374054,135.9923706,-188.8167877
3180,1.3359578,9.6318245,3.4452386,6.9847326,25.4503822,-0.1068702,-19.6131992,-17.0035343,16.8598824,-250.1374054,183.4274750,-162.1221313
3190,1.3000449,9.5719690,3.1914546,11.4503813,26.2137413,2.4427481,-19.6131992,-11.3029680,19.6126022,-250.1374054,188.7709961,-105.1297684
3200,1.4173602,9.3924055,2.7844424,15.2137403,24.3053436,5.6870227,-19.6131992,-7.4890246,19.6126022,-195.0458069,145.3435059,-34.0534363
3210,1.8746504,9.3038206,2.8012016,19.2061062,19.4580154,6.9618320,-19.6131992,-3.4021432,19.6126022,-23.2977104,41.7022896,46.3358765
3220,2.3439114,9.3325500,2.6671271,23.9007626,14.0381680,5.9694657,-19.6131992,-5.1906028,19.6126022,140.6488495,-81.0457993,125.3969498
3230,2.5881188,9.3540983,2.3870070,27.5267181,11.4580154,3.8473282,-14.6859579,-8.9375095,17.6451759,241.2748108,-144.3587799,163.9847260
3240,2.6838863,9.4331064,1.8722562,28.0992374,10.9694653,1.0992366,-8.2551651,-12.1337519,3.5793133,250.1297760,-173.5801544,152.0305328
3250,2.7868366,9.3253679,1.5466464,26.2061062,12.6412210,-1.3664122,-6.0213866,-12.4378138,-6.1530671,236.3282471,-165.6564941,115.8549652
3260,2.8131726,9.0835552,1.2282192,22.4885502,14.5496187,-3.3664122,-7.8744893,-9.6078825,-10.2231894,174.8702240,-145.4351196,86.4732819
3270,2.9328821,9.0763721,1.1204807,17.7633591,15.8854961,-4.8778625,-11.1904411,-6.4236102,-8.2719250,116.6412201,-139.0305328,82.4198456
3280,3.0334380,8.7962523,1.1228749,14.0839691,16.5114498,-6.7480917,-13.9700956,-5.4683285,-3.7516949,83.8854980,-155.8473358,94.3435135
3290,2.9376705,8.6765423,1.1683644,11.3740454,15.9160309,-7.6870227,-14.7506008,-5.1044121,-0.7733232,74.6564865,-179.9236603,107.2061081
3300,2.7700772,8.4658537,1.0318956,8.5114508,15.7251911,-6.8015265,-13.2255030,-4.4316444,0.5554519,77.2061081,-196.0839691,111.2671738
3310,2.7437410,8.4203644,0.9888002,5.1526718,16.3511448,-4.8015265,-11.5447817,-4.4196739,1.1085097,80.7786255,-204.9389343,105.3664093
3320,2.6551561,8.3700867,1.1085097,2.5801528,17.3816795,-2.6259542,-10.3500814,-3.9144998,1.0007712,83.0229034,-207.7862549,93.6717529
3330,2.5258698,8.6118994,1.0773853,-0.0687023,17.8091602,-0.1832061,-10.0148945,-2.3750360,1.4484847,86.5572510,-185.5496216,87.9160309
3340,2.4923513,8.6286592,1.0462608,-2.6793892,17.5038166,2.6717558,-10.3405046,-1.4939742,2.5186872,98.9923630,-136.4503784,91.7862625
3350,2.6910689,8.6693602,1.1420283,-4.8015265,16.2442741,4.8015265,-10.8983507,-1.2856797,3.0525916,116.2595444,-84.4045792,99.3969498
3360,2.7437410,8.7866755,1.3527170,-6.4122138,14.7022905,5.3053436,-11.3197279,-0.7445929,1.9823889,124.6870193,-49.7175560,106.4122162
3370,2.9759774,9.0380650,1.3048333,-7.3664122,14.2061071,5.3893127,-10.7307568,0.6488253,1.0558375,117.0610657,-36.9007645,112.3129807
3380,2.9017577,9.0500364,1.4317253,-8.1755724,13.4580154,5.3816795,-9.5432396,2.7269819,0.5482694,98.1374054,-38.2213745,116.4961853
3390,2.9400647,9.2248116,1.4484847,-8.7022905,13.2824430,5.7022901,-7.9989872,4.3981261,0.8331779,73.4961853,-44.4503822,118.4351120
3400,3.0454090,9.3038206,1.5634058,-8.7938929,11.7938929,6.3053436,-5.6838059,5.7963328,2.0542145,52.6717567,-42.8778610,118.6412201
3410,3.2680686,9.4881725,1.6974803,-5.8854961,5.9541984,7.8473282,-4.5298066,6.4212160,6.3158717,60.8015251,11.8167934,111.5114517
3420,3.3183465,9.6414013,1.7070571,-4.6564884,3.3740458,7.2519083,-5.3558016,6.1243367,6.4667058,81.8549652,41.1679382,108.9923630
3430,3.3183465,9.7467451,1.5658000,-3.9389312,1.0305344,6.1221375,-5.9711084,6.0572991,5.2935529,97.9160309,56.4580154,107.1908417
3440,3.2896163,10.0986910,1.8961980,-8.1068707,0.7480916,-2.3664122,-6.6917596,7.8313937,0.1963235,61.6641235,-14.2748089,91.9083939
3450,2.0135133,9.6174593,2.4061604,-6.2366414,1.4351145,-8.2977095,-4.8961172,9.4163475,3.4811516,3.0534351,-49.8015251,77.2366409
3460,1.6807210,9.3852224,2.3846128,-4.7251906,1.9160305,-6.6793895,-5.2408805,9.6940727,4.0749106,8.9160309,-40.4656487,78.1526718
3470,1.4772149,9.3493099,2.2888451,-2.2061069,1.1832061,-2.3435113,-4.9799142,10.0843258,3.4260850,19.4656487,-13.1984730,84.6641235
3480,1.3646880,9.5480280,2.0685797,0.1908397,2.0763359,-3.2442749,-4.1467361,11.9996777,5.1762376,15.0763359,-0.6564885,86.8320618
3490,1.8387375,9.8185711,1.5705882,-2.1832061,4.8015265,-8.0152674,-3.4787574,10.2854376,-0.5985473,61.3893127,-3.2977099,71.9160309
3500,2.1236460,9.1601686,1.2138541,-3.2290077,3.7786260,-9.4732828,-2.1595588,8.4419117,-0.3567342,33.5954208,8.7251911,80.2290039
3510,2.2984219,8.1378498,1.1180865,1.9160305,-12.0839691,1.0610687,-1.0869620,7.2472115,0.4596844,24.0381680,16.3053436,80.5648880
3520,2.8538737,8.1881275,1.1563935,6.3053436,-20.7175579,8.7404585,-0.2801202,6.6678176,0.4525018,19.4198475,14.7251911,75.5801544
3530,4.3550305,8.9231443,0.4788379,14.2519083,-25.5496178,14.9694653,1.2066715,5.9639258,0.4141948,8.6488552,11.9007635,58.7862587
3540,4.9200592,9.3349447,0.0742199,14.3053436,-21.2061062,10.6030531,1.4843974,5.8777351,0.3495516,2.0916030,11.5190840,46.9847336
3550,5.0469513,9.7036495,-0.5650287,9.8244276,-13.1984730,1.6641221,1.3120158,5.9878678,0.5362985,-3.7862597,11.9083967,35.9847336
3560,4.7045822,9.6557665,-1.2018831,0.3587786,-3.0076337,-9.9465647,1.2856797,6.3613615,0.7589580,-7.2595420,13.5954199,26.8473282
3570,3.9049230,9.4929609,-0.7541697,-8.3129768,2.8549619,-20.8778629,0.9840119,6.6821828,0.8738791,-12.0381680,14.5954199,18.7099228
3580,2.5761478,9.2008705,0.2968795,-9.8931293,3.7633588,-28.4503822,0.5769997,7.0939832,0.9265513,-18.0534344,7.0534353,10.5877867
3590,1.6017127,8.7986460,0.7924767,-6.0687022,-0.0305344,-31.1221371,0.3950413,7.3764977,1.0917504,-25.1450386,-6.2290077,-0.0458015
3600,0.6440369,8.5975342,1.2377959,-0.3587786,-6.2366414,-28.4961834,0.2681492,7.7835097,1.2354017,-31.5267181,-16.6106873,-9.9389315
3610,0.5937590,8.5568333,1.7788827,8.9618320,-12.1374044,-24.0610695,0.1412572,8.2503767,1.4413021,-36.0916023,-24.2213745,-18.8015270
3620,2.2601149,9.3493099,2.2696917,21.2595425,-22.3511448,-29.3358784,-0.1939293,8.7483683,1.7812769,-37.5572510,-27.1755733,-26.7480907
3630,-0.4309541,9.9119444,1.7932479,32.5648842,-24.3740463,-27.5267181,-0.5339043,9.0548248,1.8531027,-36.3587799,-25.8854961,-31.1908398
3640,-0.5746055,10.2136126,0.0598547,32.0000000,-26.3358784,-19.4045811,-0.9768293,9.3876171,2.1930776,-32.9389305,-19.0839691,-34.1908379
3650,0.2154770,10.8337069,-1.2401901,16.3587780,-20.9160309,-17.6793900,-1.4891858,9.4498653,2.1811066,-29.9083977,-10.1832066,-36.9541969
3660,-0.1197095,11.2048063,-0.8499373,-3.3740458,-13.0992365,-17.9923668,-2.2146254,9.6773138,2.3510940,-29.1297703,-3.0534351,-40.6030540
3670,0.1340746,11.0779142,0.2370248,-19.7709923,-3.9541984,-17.8702297,-2.9831600,9.9981356,2.5306582,-30.8625946,-3.0152671,-43.0763359
3680,1.0175306,9.9382801,1.4245427,-30.6106873,4.5572519,-22.8167934,-3.1962428,10.1465750,2.8562679,-32.9847336,-6.3282442,-45.1755714
3690,0.4094064,10.7714586,2.7605004,-34.0839691,12.5114508,-26.0381680,-3.2106080,10.3237448,3.6415622,-33.2671738,-6.7099237,-48.4503822
3700,0.1915352,10.5942879,3.7660601,-31.9618320,21.3053436,-25.4503822,-3.2441268,10.4841557,4.1180058,-29.9694653,-4.5190840,-51.9771004
3710,-0.0814024,10.2758608,3.9001346,-27.3511448,29.6183205,-24.7557259,-3.2608860,10.7954006,4.6375451,-22.7404575,-1.7404580,-56.1450386
3720,-0.5554519,9.8951855,3.8354914,-22.0992374,30.9160309,-22.7175579,-1.7932479,10.8815908,4.3334827,-9.4045801,6.4809160,-61.4656487
3730,-1.0749911,10.0532017,4.0677280,-14.3129768,30.1603050,-15.8625956,0.6081241,11.3508520,2.5761478,8.7786255,28.0534344,-72.7099228
3740,-1.3575054,10.3165627,3.8690102,-4.2442746,29.6335869,-5.6564884,3.8163381,11.8584204,-1.5658000,21.6030540,52.4122124,-91.2213745
3750,-1.4341195,10.3500814,3.4931223,3.8167939,27.7328243,9.7480917,6.2751703,12.2654324,-6.2631998,14.3358774,79.7557220,-123.0687027
3760,-0.8858501,10.4195127,3.4931223,11.6488552,25.9083977,25.6564884,5.9088597,12.6508970,-8.8058290,-18.1603050,97.7251892,-155.6641235
3770,0.4572902,10.8456783,3.5793133,21.9847336,25.6564884,37.8702278,2.7221935,12.5311880,-7.3094602,-64.7862625,64.8320618,-177.1374054
3780,1.9440818,11.6309719,3.2106080,33.8778610,24.2900772,42.6106873,-0.7781116,12.2630386,-2.6934631,-102.5954208,0.3893130,-184.6335907
3790,2.9783716,12.3731709,2.1811066,40.3587799,20.0458012,39.2977104,-2.2649033,12.2247314,1.9536586,-116.5038147,-54.4809151,-180.9160309
3800,3.9504125,12.5814657,1.3790531,40.0610695,19.9160309,30.4656487,-1.9105632,11.6453371,4.1563129,-107.2977066,-69.2748108,-170.9465637
3810,4.5250182,12.3348637,1.2282192,36.0228996,19.3893127,18.1450386,-0.7996593,11.7961712,4.9751258,-80.1450348,-29.7099228,-162.2213745
3820,4.7261300,12.0738974,1.4556671,31.1679382,20.7938938,3.5419848,-0.2466015,12.7179346,4.1491303,-44.5572510,45.3893127,-159.4885559
3830,4.5082588,11.4585905,1.8339491,28.0534344,25.0687027,-10.1755724,-1.1372399,14.6739874,1.9392935,-15.7786255,121.3969498,-160.0152740
3840,3.9264708,10.7211800,1.9153515,26.4656487,30.7938938,-21.4198475,-2.0949159,16.6132812,0.1029501,-2.4656489,178.8473358,-156.9084015
3850,3.0238612,9.8161764,1.5418580,24.8396950,39.5038185,-26.8091602,-2.4396791,16.9915619,-0.7900825,1.5648855,222.7328186,-157.2748108
3860,2.1954718,9.0045462,1.4652439,24.1297703,49.5343513,-26.3282452,-2.2242019,16.5606079,-0.6655847,3.7786260,250.1297760,-160.4198456
3870,1.4987626,8.4419117,1.2377959,24.5267181,55.1221390,-22.5954189,-2.3774302,15.6867294,-0.8283895,6.5725193,250.1297760,-171.1221313
3880,1.4125718,7.9894104,0.9911944,24.9770985,57.9541969,-18.4503822,-2.5498118,14.3316183,-1.1468167,2.7557251,243.3511505,-182.7175598
3890,1.3263810,7.5560617,0.6895266,24.8625946,56.1374054,-14.5267172,-1.7118455,11.7961712,-1.7501525,-4.8778625,203.2671814,-198.3740387
3900,1.2330076,7.0341287,0.4189832,23.8167934,42.7938919,-10.5572519,-0.1005560,6.9718795,-3.6535332,-10.2977095,162.7633514,-225.8015289
3910,1.4867916,6.5217719,0.2609667,23.8167934,21.3282452,-9.2748089,0.6679789,2.1332228,-6.0046272,-17.8702297,134.2137451,-250.1374054
3920,1.2234308,5.8418221,0.4572902,23.1221371,-0.5648855,-8.2442751,-1.5873476,-2.9496415,-7.9774394,-32.5496178,108.2824402,-250.1374054
3930,1.2282192,5.6095858,-0.0598547,21.8320618,-29.5954189,-5.6793895,-5.9735026,-7.8218169,-10.2614956,-60.0228996,63.3893127,-250.1374054
3940,1.6974803,5.0014620,0.2250538,16.9847336,-57.2519073,-8.6183205,-9.1745338,-13.1704359,-12.7514534,-114.0534363,13.8702288,-250.1374054
3950,1.6519908,4.4460096,0.8714849,9.2824430,-68.6106873,-6.9923663,-11.5280218,-19.6131992,-13.8168669,-182.0229034,1.6564885,-250.1374054
3960,1.5227045,3.8953462,2.0015423,2.5190840,-52.5343513,-2.9389312,-14.1281118,-19.6131992,-10.7355452,-226.7022858,39.3053436,-250.1374054
3970,1.1587877,4.0078731,1.9201399,-1.5190840,-30.8015270,4.7022901,-17.9851513,-19.6131992,-5.9016771,-238.0000000,91.9923630,-230.7786255
3980,0.8786675,4.4124913,1.5322813,-4.9770994,-9.6488552,15.6259546,-18.5022964,-19.6131992,-2.6048782,-222.7404633,136.6564941,-205.9770966
3990,1.0654143,4.9320302,1.0749911,-8.6259546,8.7862597,27.5267181,-16.9245243,-19.6131992,-0.4213773,-205.4885559,183.9770966,-208.9847260
4000,1.5203103,6.2512288,0.4333483,-12.9618320,19.1603050,37.8931313,-19.6131992,-19.6131992,6.3015065,-212.0992432,230.2290039,-210.1374054
4010,1.7956421,7.5895805,-0.6153067,-20.1908398,20.2290077,42.1450386,-19.6131992,-13.6588507,16.0817699,-225.8625946,207.2137451,-157.2061005
4020,2.0183017,8.7651272,-1.1587877,-31.7938938,12.3740454,45.1297722,-19.6131992,-8.6095057,19.6126022,-203.4274750,124.7557220,-68.1450348
4030,2.2218077,9.8760319,-1.6376256,-45.4274826,0.5419847,43.4961815,-19.6131992,-5.6143742,19.6126022,-109.2748108,55.4351158,14.8015270
4040,2.5234756,10.6589317,-1.2449785,-59.6870232,-13.9312973,38.9847336,-19.6131992,-5.7029591,19.6126022,27.5343513,-14.4351149,83.0534363
4050,3.0908985,11.1377697,-0.1628049,-70.7251892,-29.6259537,31.6106873,-19.5174332,-8.9351149,19.6126022,142.9084015,-91.8244247,132.9313049
4060,3.2417326,11.5328102,1.2234308,-74.7251892,-44.3587799,23.3587780,-13.3954897,-11.9637651,11.0204544,207.8244324,-135.7862549,153.4656525
4070,3.3710186,11.6764622,2.2696917,-72.3435135,-53.2213745,16.8625946,-11.6980095,-14.4465389,1.2880739,220.4732819,-169.4580078,146.5572510
4080,3.4548154,11.7219515,2.9376705,-66.8320618,-53.8320618,12.8396950,-12.6365318,-14.6045561,-5.1187773,200.5954132,-204.8320618,142.0000000
4090,3.6248028,11.6213961,3.2848279,-60.9771004,-51.3587799,9.7480917,-13.4960461,-14.1448717,-8.0372944,166.0000000,-240.7633514,149.5267181
4100,3.3925664,11.5591469,4.0749106,-53.2290077,-46.7786255,8.5114508,-12.3324699,-12.7131462,-8.4802189,136.3893127,-250.1374054,168.6717529
4110,3.4452386,11.4107065,4.1251884,-43.9160309,-46.8091621,8.9923668,-10.7211800,-11.7363167,-7.9918046,116.4885483,-250.1374054,185.8320618
4120,3.5936785,11.3388815,4.5274124,-33.8854980,-49.9694672,7.8244276,-8.4467001,-11.3364868,-7.1969333,104.2748108,-242.0610657,195.3282471
4130,3.6726866,11.1521349,4.7835903,-21.3053436,-54.3129768,4.9083967,-6.4643116,-10.7403336,-6.5217719,95.9847336,-226.6564941,189.6717529
4140,3.3518653,10.9055328,4.4436154,-9.1145039,-55.4122124,1.5877863,-5.5090299,-10.4985209,-5.5521255,89.4885483,-206.9465637,173.4503784
4150,2.3295465,10.5918941,3.1268115,4.5419846,-47.8778610,-1.9770992,-4.1898317,-4.6399393,-1.9895715,74.4274826,-161.7099304,120.8015289
4160,2.0206959,10.4362717,2.4827745,5.0076337,-40.9389305,-3.4351146,-5.6383162,-2.7557120,1.1563935,77.3206100,-142.3435059,101.9160309
4170,1.4796091,10.2638903,1.9392935,3.8015268,-31.8549614,-3.2671757,-7.5009956,-1.1252691,2.1571648,87.4809189,-140.9541931,87.7328262
4180,1.3335636,10.2423429,1.6112895,2.3740458,-24.8778629,-2.3587787,-8.9207497,0.1316804,1.3694763,89.4885483,-145.7557220,78.5801544
4190,1.2234308,10.4362717,1.2377959,-0.4274809,-19.0152664,-3.3740458,-9.1577749,1.2808913,0.4668669,82.0687027,-147.5877838,74.6183243
4200,1.2114599,10.5104914,0.9121862,-4.1603055,-13.2442751,-5.8015265,-8.6286592,2.2864509,0.5243275,74.1297684,-135.3587799,73.0076370
4210,1.0702027,10.6373835,0.8092360,-9.0916033,-9.4961834,-11.6488552,-9.0117292,3.7971845,0.4884146,67.3511429,-105.8396912,74.6106873
4220,0.8834559,10.6014709,0.8140244,-14.3129768,-8.4580154,-19.0458012,-9.2750902,6.5457139,1.1587877,59.7480927,-73.2442780,85.1679382
4230,0.5674229,10.4027529,0.8930327,-19.3282452,-7.8473282,-26.2213745,-8.6406298,9.1553802,2.6072724,51.0000000,-32.0381660,105.0457993
4240,0.1029501,10.0292597,1.1851238,-23.6564884,-6.9160304,-31.3893127,-7.4052281,10.0125008,4.4148855,46.3816795,6.2595420,121.6641235
4250,-0.4333483,9.5576038,1.5849534,-25.6564884,-6.0916033,-31.9694653,-7.0389171,9.5145092,5.9040713,49.0992355,32.0610695,128.2061005
4260,-0.5434810,9.1338329,1.9321109,-23.6259537,-5.3358779,-28.1068707,-7.7404146,9.7946291,6.2129216,53.0458031,32.8320618,128.4885559
4270,-0.4046180,8.6502066,2.3750360,-17.9770985,-3.3282442,-21.0992374,-7.1634150,10.3309278,5.4802995,53.2137413,12.6870232,125.0457993
4280,-0.2274480,8.2623482,2.5953014,-9.3740454,-1.3816794,-11.6412210,-6.5289545,10.2902260,4.1227942,52.7099228,-11.8931293,116.2213745
4290,0.2968795,8.2072811,2.5426292,0.5725191,1.0687023,-2.0152671,-5.8298512,10.3668404,2.1811066,48.7938919,-30.5114498,102.9007645
4300,0.8331779,8.5065556,1.9871773,8.0152674,3.0687022,5.4580154,-5.1115947,11.0563669,0.2657550,37.1832047,-42.1450386,91.3893127
4310,1.4293311,8.8321648,1.3862357,9.3740454,6.5877862,10.0839691,-4.5465660,11.4992924,-0.7661406,18.5801525,-46.9312973,81.7328262
4320,1.8626794,9.0308828,1.1109039,7.1679387,12.2213745,11.3282442,-4.9056940,11.7411051,-0.4644727,-3.1679389,-42.9923668,76.7786255
4330,2.2385671,9.2487535,0.9864060,4.4732823,18.7175579,9.5954199,-5.9208307,11.4298601,0.6775556,-19.8244267,-32.3740463,80.7557220
4340,2.1284344,9.2487535,0.9145803,1.7175573,23.4961834,6.5954199,-6.1291251,11.4274664,2.4636209,-26.3358784,-10.6564884,96.7251892
4350,1.7645177,9.1888990,1.0127422,1.1755725,23.3740463,4.5572519,-5.2049680,10.6373835,3.9982965,-20.7709923,19.7022896,114.3664093
4360,1.3431402,9.1817169,1.0366840,1.6946565,20.1297703,4.4580154,-3.8642218,9.9239149,4.7644372,-7.3053436,44.6641235,122.8396912
4370,0.8810617,9.2583303,1.1683644,3.7175572,14.3816795,6.4122138,-2.7221935,9.8425131,3.8905578,6.4198475,53.9694672,118.1755753
4380,0.6919208,9.2296000,1.2282192,5.6259542,7.1145039,10.1374044,-2.0661855,9.4163475,2.5809362,12.9007635,54.5496178,108.1603088
4390,0.7517755,9.3588867,1.2258250,6.6564884,0.0839695,13.7862597,-1.6017127,9.5480280,1.4173602,11.6946564,47.0534363,92.4656525
4400,1.0821736,9.3804340,1.3814473,6.2213740,-4.9389315,16.3511448,-1.5849534,9.6629486,0.6584021,6.0000000,32.8854980,79.6641235
4410,1.3311694,9.4474716,1.4125718,4.9618320,-7.3664122,17.0610695,-1.6472024,9.2535419,0.2130829,-2.8778627,23.0305347,67.8931274
4420,1.6352314,9.6461897,1.8674678,-1.0534351,-6.7938933,15.1984730,-2.5617826,9.1553802,0.8523315,-18.4351139,13.5267172,56.5954208
4430,1.8650736,9.5863342,2.5713594,-7.8473282,0.5038168,12.9694653,-1.8985922,8.5640154,1.1731528,-29.1755733,7.1679387,58.6870232
4440,2.1667414,8.8034344,3.1842721,-1.7099236,16.8778629,12.1755724,-1.6615674,11.0396080,2.2960277,-19.5801525,-31.1068707,-41.4809151
4450,2.3032103,8.8608952,3.1220231,0.8473282,16.0381680,13.2290077,-1.5418580,11.4681673,2.1595588,-23.0687027,-48.8167953,-47.5190849
4460,2.3774302,9.0260944,3.1052637,3.6793892,14.8320608,13.6946564,-1.2114599,12.0236197,2.4899571,-22.9770985,-51.4656487,-52.6412201
4470,2.4851687,9.3086090,2.8083842,6.1068702,13.8015270,13.5877867,-1.2593436,12.7299051,3.2967989,-16.4885502,-40.1374054,-55.7938919
4480,2.4660151,9.4402885,2.4372849,6.5801525,12.9541988,13.1068707,-1.6136837,13.5080166,3.8881636,-5.4198475,-20.9389305,-57.5267181
4490,2.6862805,9.5719690,2.1044924,2.5038168,11.4427481,10.7022905,-2.9113343,13.8192616,4.9009056,20.4198475,-0.6412213,-67.0381699
4500,2.5833304,9.2056589,2.5761478,-1.0305344,11.8625956,8.8931293,-4.9727316,14.9205885,3.4524212,43.9694672,-12.3587790,-84.6259537
4510,2.6264257,9.1865053,2.7174051,-0.6870229,11.7709923,9.6412210,-5.3581958,15.4712524,2.1691356,42.4274826,-28.5648861,-89.4656525
4520,2.7078283,9.2583303,2.7461352,1.1221374,11.0839691,11.0839691,-5.3534074,16.1727505,1.7956421,34.6564903,-41.5114517,-93.8854980
4530,2.7054341,9.2343884,2.8586621,2.9083970,10.8244276,12.5267172,-4.7285242,16.8766422,1.9680238,29.0610695,-50.5114517,-97.5725174
4540,2.8586621,9.4426832,2.6958573,4.3129773,11.4656487,13.3740454,-3.8043671,17.5589848,1.9776005,26.5801525,-49.7175560,-103.6641235
4550,3.0525916,9.4833841,2.5522060,5.2290077,12.2061071,13.6488552,-3.0118904,18.3490677,1.6759326,25.2977104,-37.4656487,-108.6946564
4560,3.2608860,9.5049324,2.5043221,5.8625956,12.1297712,13.3511448,-2.5737536,19.4623661,0.5243275,25.7786255,-12.4122133,-106.6412201
4570,3.2297616,9.4522600,2.5115047,7.3282442,9.8473282,12.8167934,-2.3103929,19.6126022,-0.8116302,22.9847336,31.2900772,-94.7175598
4580,3.3279233,9.4474716,2.4205256,8.8549614,6.7480917,12.3664122,-1.7286048,19.6126022,-1.1539993,18.3587780,86.0229034,-81.3129807
4590,3.5864959,9.3540983,2.4612267,10.7786255,3.7557251,12.0229006,-1.5969244,19.5557404,-1.4436963,17.7175579,138.9770966,-70.4656525
4600,3.6343796,9.2942438,2.3391230,12.9389315,0.4274809,12.0916033,-0.6009415,18.5789108,-2.6120608,15.5648851,182.3206177,-64.4656525
4610,3.6224086,9.3373384,2.2649033,14.5343513,-2.2671757,11.6259546,0.6703730,16.5246964,-3.8594334,6.5572519,212.9923706,-65.5343475
4620,3.5649481,9.5145092,2.1475880,14.5114508,-2.5038168,10.3511448,1.6160779,14.0514975,-4.5944495,-8.2290077,221.7175598,-74.9618301
4630,3.3734128,9.7060442,2.0159075,11.9618320,-0.5572519,8.4351149,2.7102225,10.8121595,-4.8889351,-26.5114498,208.8854980,-91.8320618
4640,3.1675127,9.7228031,2.0278785,7.4274807,2.9465649,5.8396945,3.5529771,6.5624733,-5.2313042,-44.5725174,177.7862549,-116.5267181
4650,2.8251436,9.4522600,2.4181314,3.4503818,5.4045801,3.4503818,4.2448978,1.0534433,-6.0046272,-60.3358765,138.0763397,-151.6030579
4660,2.5498118,9.2798786,2.9161227,3.1068702,6.9465647,2.0534351,3.2441268,-5.5186067,-6.1841912,-72.5725174,108.0229034,-194.0305328
4670,2.1619530,9.1841106,3.0238612,6.1297708,9.1145039,2.1450381,-0.1340746,-11.2479019,-5.4683285,-78.7862625,83.5419846,-232.9465637
4680,1.8483143,9.2200232,2.7102225,8.9465647,12.1984730,4.0229006,-4.8985114,-16.5199070,-5.0732875,-80.1450348,57.8244286,-250.1374054
4690,1.7333932,9.5408449,2.2337787,9.9160309,15.2442751,5.9770994,-9.5312681,-19.6131992,-5.0373745,-81.1450348,22.3129768,-250.1374054
4700,1.5921360,9.7539282,1.7262106,8.4885492,17.8549614,7.7022901,-15.6963062,-19.6131992,-5.5497313,-88.2519073,-23.6488552,-250.1374054
4710,1.7238164,9.8377247,1.5562232,6.7633586,16.1068707,9.1526718,-19.6131992,-19.6131992,-8.3389616,-124.9618301,-71.6183243,-244.4656525
4720,2.9999194,9.8137827,1.6663558,10.0763359,-10.5419846,1.0229008,-19.6131992,-15.6484222,14.9636841,-250.1374054,133.3129730,-150.1755676
4730,2.6599445,8.4802189,0.7302278,1.0458015,6.7786260,-3.7709923,-13.4194317,-16.1009235,19.6126022,227.7404633,-151.4274750,250.1297760
4740,2.4085546,7.9175844,0.4381367,1.4961832,7.2748094,-1.5114504,-5.8537931,-18.8590298,6.1985564,250.1297760,-187.2595367,244.6564941
4750,2.1835008,7.7021074,0.0742199,1.7480916,4.2061067,3.2748091,-3.4955165,-17.4249115,-4.8625989,250.1297760,-170.6946564,190.7175598
4760,2.3032103,7.4986014,0.1244979,2.3587787,-3.5114503,10.0076332,-4.7931671,-14.7051115,-9.4881725,217.9694672,-141.1908417,140.9160309
4770,3.5098817,8.5472565,-0.4477134,1.0152671,-13.7175570,10.0076332,-13.4457684,-6.8114691,-4.7835903,100.2213745,-184.0839691,142.5877838
4780,3.1268115,8.9183559,-0.6488253,-7.5190840,-5.4580154,4.0992365,-11.3149395,-5.1235652,-3.0908985,88.9847336,-185.8549652,163.7633514
4790,2.6886747,9.0189114,-0.5985473,-18.6259537,2.8854961,-0.8015267,-8.8441362,-4.9679432,-1.6759326,87.4351120,-161.3511505,178.1068726
4800,2.0781565,8.9470863,0.1316804,-27.7099228,8.2290077,-4.7480917,-5.8130918,-3.1507533,-0.8595140,88.6946564,-127.0916061,179.6946564
4810,1.5179161,8.8824425,0.9792235,-30.9923668,6.8091602,-7.2595420,-3.8809812,-1.1755470,0.7230452,90.9312973,-88.3053436,172.3893127
4820,1.1109039,8.6885138,1.3838415,-30.7328243,2.3969467,-6.5419846,-3.4907281,-0.1819584,2.4588325,102.4045792,-61.1984749,157.7633514
4830,0.6943150,8.6095057,1.9153515,-28.3816795,-3.3358779,-2.1755726,-4.4077029,1.1204807,2.6024840,118.8625946,-49.6412201,142.6564941
4840,0.5746055,8.7675219,2.3367288,-24.6793900,-8.1832066,5.0076337,-4.5202298,2.3295465,1.0749911,130.4503784,-47.7022896,133.0610657
4850,0.9241571,8.8896255,2.3774302,-20.6488552,-11.1755724,11.9007635,-3.9025288,3.7349355,-1.3359578,131.0992432,-47.0458031,122.6717529
4860,1.5227045,9.2008705,2.4755919,-17.1450386,-11.7404585,17.0992374,-2.9831600,5.7532372,-3.7876077,114.2748108,-53.4351158,107.5343475
4870,2.0494261,9.6892843,2.4660151,-15.5343513,-12.1221371,19.4809170,-2.7054341,7.8409705,-5.1115947,80.5038147,-69.2290039,89.3893127
4880,2.6910689,9.9047613,2.2098370,-16.3816795,-11.2290077,18.6641216,-3.0382264,10.0627785,-4.5513539,39.4732819,-85.1068726,77.1297684
4890,3.2776453,10.0364418,2.2744799,-19.6412220,-9.1450386,14.8473282,-3.4093258,11.7578640,-2.0613971,11.4427481,-90.0610657,77.5801544
4900,3.6224086,10.1106625,2.5115047,-22.1068707,-7.3893127,9.7480917,-3.0310438,12.1361465,0.5793939,5.7480917,-71.4274826,86.1832047
4910,3.8115497,9.9622221,2.9520357,-22.4656487,-5.0076337,4.4961834,-2.8179610,11.8967276,2.2696917,17.3435116,-39.1908379,91.4351120
4920,3.7540891,9.7754755,3.3063757,-21.9160309,-3.2061069,-0.8091603,-2.5857246,11.9589767,1.6208663,31.9160309,-12.1603050,91.0229034
4930,3.7421181,9.6749191,3.6224086,-19.4961834,0.0152672,-5.8244276,-2.1499822,12.6652622,0.3040621,36.5725174,-1.7862595,84.8473282
4940,3.4811516,9.6821022,3.8187323,-16.4503822,3.9160306,-10.5801525,-1.9488702,13.7115231,-0.8068419,30.4961834,-6.3435116,69.6412201
4950,3.1507533,9.6198530,3.5050933,-14.1374044,6.8549619,-14.2290077,-2.5378408,15.0235386,-1.6017127,14.7251911,-27.1526718,53.1374054
4960,2.9233053,9.4953556,3.4955165,-12.6717558,9.1679392,-18.2137413,-3.4667864,16.0434628,-1.7788827,-5.8244276,-48.7175560,44.4427490
4970,2.7796540,9.3900108,3.3662305,-10.6946564,7.0229006,-22.5190830,-4.1850433,16.4337158,-0.9648584,-23.5496178,-61.4580154,43.5572510
4980,2.3870070,9.0236998,3.4093258,-8.2977095,4.2366414,-26.8244267,-4.0868812,16.4361115,0.9648584,-31.0763359,-59.0381660,47.4274826
4990,1.8818330,8.6837254,3.4643922,-5.8167939,3.4427481,-28.6183205,-4.1467361,15.9764261,2.4851687,-24.7786255,-41.3435097,52.4122124
5000,0.7685348,8.1737623,4.0006905,-3.0763359,16.0610695,-24.4961834,-4.1970143,15.3299952,3.4308734,-9.6870232,-20.3511448,56.5572510
5010,1.1228749,8.3413563,3.9336534,1.0458015,21.7862587,-18.7251911,-3.9815371,14.4656925,3.6678982,8.3435116,0.2366412,59.9694672
5020,0.9552816,8.6573887,3.7756367,7.9236641,24.4961834,-14.3587790,-3.7923961,13.6564569,3.1292057,24.3587780,17.3358784,61.5267181
5030,1.1348459,8.7914639,3.1268115,14.0610685,22.4961834,-9.8549614,-3.6104376,12.9118633,2.2816625,34.0458031,27.9618320,63.0763359
5040,0.9840119,8.8345594,2.5905130,17.9083977,17.8015270,-4.6488547,-3.1890604,11.9326401,1.6591733,37.4351158,31.7862587,62.4580154
5050,0.9600700,9.2679071,2.3870070,16.6335869,27.7709923,11.7175570,-1.9967541,10.0675669,1.1372399,35.9618340,32.9160309,48.6946564
5060,2.8179610,10.2998028,1.9991482,7.0687022,23.3587780,13.2213745,-2.5091105,7.8960366,1.6855093,19.0152664,8.9541988,22.9007626
5070,2.8586621,10.6493549,1.6974803,2.4732823,20.0534344,10.0839691,-2.6312141,7.3645267,1.6639616,16.7786255,3.8473282,20.5801525
5080,3.0214672,10.5607700,1.5634058,-3.9389312,16.8854961,7.4198475,-2.4205256,6.8162575,1.5083394,14.3740454,3.6564887,21.3358784
5090,2.7365584,10.3835993,2.0111191,-9.4656487,16.7022896,7.7022901,-1.9632354,6.3948798,1.6352314,11.4732828,6.3129773,22.4809170
5100,2.6934631,10.2830439,2.4301023,-12.8625956,17.2061062,11.1221371,-1.5083394,5.9184365,1.8315549,9.0229006,10.9389315,22.6106873
5110,2.9017577,10.0819321,2.9280937,-12.5572519,17.8778629,15.1755724,-1.2042773,5.5688848,1.9177457,6.8625956,16.8854961,21.2900772
5120,3.0478032,9.9813757,3.3973548,-8.8320608,18.2366409,19.5114498,-1.0821736,5.5353661,1.9105632,4.6564884,20.2824421,19.6488552
5130,3.3398943,9.9598284,3.4524212,-3.4809160,17.4427490,23.0992374,-0.5961532,5.3198891,1.8267666,2.3816793,22.0992374,16.4351139
5140,3.6295912,10.1585455,3.3303175,1.3816794,14.5877867,24.9389305,-0.4477134,5.2911587,1.8195840,-1.0610687,19.8473282,8.0000000
5150,4.0389977,10.1633339,3.3135581,5.0839696,12.6183205,23.9389305,-0.3926471,5.5473371,1.5969244,-5.2061067,9.4580154,-3.4885497
5160,4.4579806,10.1441803,3.3518653,8.6259546,10.0305347,21.3740463,-0.4979914,6.0237808,1.3766589,-11.3587790,-4.3358779,-14.6488552
5170,4.7428894,9.9909525,3.3159523,13.8625956,6.5038166,16.7251911,-0.7541697,6.6989422,1.1947005,-17.8396950,-18.6564884,-24.3358784
5180,4.9631548,9.9191265,3.4045374,19.4045811,2.9389312,10.5496187,-0.8044477,7.4459291,1.2497669,-23.6946564,-30.4732819,-30.3358784
5190,5.0373745,10.0005293,3.1866663,24.9312973,-0.8625954,3.4656489,-0.8307837,8.2575598,1.3239868,-27.0381680,-36.0305328,-34.8167953
5200,5.0206151,9.8329363,2.6407909,28.2137413,-3.9618320,-3.8167939,-0.7829000,9.2511482,1.3239868,-27.5419846,-32.5496178,-36.9236641
5210,4.7309184,9.7084379,2.1811066,27.3587780,-5.3816795,-9.8625956,-0.7278336,10.3500814,1.1276633,-25.6259537,-21.0229015,-38.1297722
5220,4.3526363,9.4929609,1.8746504,24.2290077,-6.2137403,-13.8778629,-0.8714849,11.4442253,1.0295014,-22.9770985,-8.3129768,-40.9389305
5230,3.9647777,9.1553802,1.9440818,21.6106873,-8.4809160,-15.3664122,-1.4580613,12.2031832,1.1348459,-20.9007626,-2.3740458,-43.0916023
5240,3.8043671,8.8968077,2.0422437,20.9847336,-10.5267172,-15.5267172,-1.8291607,12.9908724,1.4173602,-18.7862587,0.6793893,-45.6564903
5250,3.5745249,8.5807753,1.9536586,20.4351139,-12.6641226,-15.2977095,-1.8914096,13.3332415,1.7932479,-15.5725193,0.9770992,-48.0839691
5260,3.5242469,8.3964224,2.0781565,19.7633591,-14.3206110,-14.9236641,-1.7022687,13.1560707,2.3295465,-9.0000000,-1.4885496,-54.5496178
5270,3.3566537,8.2288294,1.9560528,19.8320618,-15.7480917,-14.7633591,-1.6711442,13.2231083,2.2146254,-1.6870229,-2.9847329,-65.6183243
5280,3.1986370,7.9175844,1.9057748,19.3740463,-16.7557259,-14.9770994,-1.7597293,13.3571825,1.8866212,4.6870227,-1.2748091,-77.3206100
5290,2.9328821,7.7212610,2.0230901,19.1526718,-17.9618320,-13.9541988,-2.0733681,13.4266148,1.1923064,10.4503813,11.0916033,-88.2442780
5300,2.5953014,7.4387465,2.0781565,19.3358784,-18.6488552,-11.8473282,-2.3367288,13.7115231,0.0742199,12.6564884,21.4427490,-95.6641235
5310,2.2170193,7.2974896,1.8746504,18.8396950,-18.6717548,-8.8015270,-2.7605004,14.0467091,-0.9792235,7.3435116,26.2519093,-100.9542007
5320,2.0949159,7.3070664,1.8674678,17.3053436,-16.7022896,-4.7862597,-2.3439114,14.0945930,-1.2832855,-2.2519083,25.4351139,-104.9007645
5330,2.0997043,7.4650826,1.6088953,13.7480917,-12.0916033,-1.4274809,-1.2258250,13.9270000,-1.3096216,-9.6641226,25.0839691,-109.8091583
5340,1.9991482,7.5177550,1.5250987,8.5725193,-5.9541984,1.0458015,-0.0885850,14.1041698,-1.7477583,-14.0687027,33.9007645,-120.0076370
5350,1.8602852,7.7763271,1.4580613,2.5801528,1.0839695,2.9618320,-0.2418131,14.7122946,-1.6807210,-20.8931293,46.5496178,-131.1908417
5360,1.6448082,7.8433647,1.4724265,-3.7480917,5.7175574,5.5114503,-0.9983770,15.6077213,-0.9217629,-30.7175579,48.0228996,-139.8931274
5370,1.5250987,7.9247670,1.7142396,-8.7480917,8.6793890,8.9007635,-1.8459201,16.1033192,-0.2849085,-45.4580154,31.6106873,-145.8244324
5380,1.6065011,8.0923605,2.0733681,-11.3587790,10.1832066,13.5725193,-1.3575054,15.9261484,0.7110743,-62.8473282,4.3816795,-152.0839691
5390,1.8626794,8.3293848,2.4995339,-11.3587790,10.9312973,17.9694653,-0.4740495,15.7681322,1.1731528,-75.2366409,-22.0305347,-160.5419922
5400,2.1763182,8.6502066,2.6479735,-8.7175570,11.8702288,21.2595425,1.7980363,15.7992563,0.2250538,-83.4122162,-36.4045792,-169.9313049
5410,2.4731977,8.9997578,2.5833304,-6.0458016,13.1526718,23.6335869,3.6463506,14.5135765,-1.0725969,-90.0534363,-24.2595425,-181.4045868
5420,2.7221935,9.2679071,2.3079987,-4.4580154,13.7328243,25.4656487,4.4627690,12.0547438,-2.0398495,-91.7862625,11.8625956,-195.1374054
5430,2.9400647,9.5504217,2.2433555,-4.0992365,13.5801525,26.8702297,4.5513539,8.9303265,-2.4899571,-85.3664093,64.5038147,-207.4809113
5440,3.3877780,9.8018112,2.1739240,-5.6030536,14.5267172,26.9923668,4.3765783,3.7253587,-3.5122759,-70.6641235,125.5267181,-225.3129730
5450,3.6750808,9.9550400,2.3989778,-7.1145039,14.2519083,25.7022896,3.1387823,-2.2122312,-6.1482787,-56.4503822,189.8244324,-250.1374054
5460,4.0294209,10.2016411,2.6360025,-7.5877862,10.9083967,23.0152664,-2.7676830,-8.1570034,-9.9143381,-57.6564903,220.0610657,-250.1374054
5470,4.2329268,10.3117743,2.8754215,-6.7022901,7.3664122,19.0763359,-8.1067257,-14.3795023,-13.3835192,-92.5419846,193.5343475,-250.1374054
5480,4.3885493,10.2734671,3.1004753,-5.2595420,3.2595420,15.6183205,-13.2877512,-19.6131992,-13.6660337,-143.8473358,137.8549652,-250.1374054
5490,4.4579806,9.9095497,3.5098817,-0.6641222,1.4427481,12.5648851,-18.0928898,-19.6131992,-11.7075863,-194.0763397,71.7480927,-250.1374054
5500,4.3430595,9.8496952,3.4739690,6.1297708,2.7099237,11.4427481,-19.6131992,-19.6131992,-8.8848372,-234.2061005,21.0992374,-250.1374054
5510,4.0916696,9.7658987,3.0956869,12.3053436,6.1450381,11.9083967,-19.5820751,-19.6131992,-4.6207857,-249.9694672,30.3664131,-239.5877838
5520,3.8402798,9.8951855,2.3295465,16.4961834,10.3893127,11.5419846,-19.6131992,-19.6131992,0.8690908,-250.1374054,108.3129807,-238.7480927
5530,3.5386121,9.9287033,1.7214222,17.3587780,13.7862597,10.6030531,-19.6131992,-19.6131992,9.1936874,-250.1374054,191.9465637,-210.1603088
5540,3.1818779,10.0148945,1.0582317,16.2366409,14.1526718,9.0000000,-19.6131992,-13.5199881,19.6126022,-239.0686951,226.7709961,-127.0000000
5550,2.9879484,9.9861641,0.7852941,13.2366409,11.2213745,6.4656487,-19.6131992,-7.8026633,19.6126022,-177.9007568,195.5419922,-11.7633591
5560,2.7437410,10.0101061,0.5841822,9.5801525,8.4198475,3.8091602,-19.6131992,-6.1339135,19.6126022,-54.9541969,114.7251892,96.8702316
5570,2.4779861,10.0148945,0.5985473,6.2748094,5.1832061,1.3435115,-19.6131992,-9.2439651,19.6126022,103.4122162,-4.8702292,174.7557220
5580,2.2936335,9.8233595,0.6847382,3.5572519,3.0916030,0.4427481,-17.4488525,-13.1464939,18.8733959,213.9313049,-100.4503784,203.9694672
5590,2.1308286,9.7730818,0.8571198,2.0916030,1.3969465,0.9083970,-9.9717989,-16.0314922,4.3693957,236.7557220,-165.4885559,194.5496216
5600,2.0542145,9.6677370,1.0199248,1.5877863,-0.7404580,2.2366412,-7.2735476,-17.0011387,-4.4364328,209.3740387,-210.5496216,159.1984711
5610,2.2218077,9.6246414,1.1300575,2.1832061,-3.0610688,3.7938931,-5.6359220,-14.5159702,-7.9582858,178.7709961,-225.2748108,126.3358765
5620,2.5641768,9.4881725,1.4149660,3.2366412,-5.4198475,4.6259542,-5.7628140,-11.5519638,-7.9487090,147.8396912,-221.2977142,105.7480927
5630,2.9352763,9.5025377,1.5059452,5.8549619,-7.3282442,5.0381680,-6.8114691,-8.8561068,-5.4419928,135.7328186,-205.1450348,101.6564865
5640,3.7660601,8.7124557,1.2737088,13.1374044,-10.4732828,6.2137403,-5.8657641,-5.2025738,-5.6646523,132.6488495,-164.5038147,104.9236679
5650,4.0701222,8.3629036,1.2234308,14.5572519,-11.4427481,7.3435116,-4.1012464,-3.4117200,-5.9136481,111.0839691,-164.7938995,89.6412201
5660,4.2927818,8.1426382,1.0678085,16.6259537,-11.1755724,8.4503813,-3.5026991,-0.7182568,-4.4867110,86.0229034,-164.0839691,68.9389343
5670,4.3909435,8.1546097,0.7637464,17.7557259,-8.9770994,8.3358774,-4.1802549,0.5123565,-1.9129574,66.2213745,-156.7938995,50.9694672
5680,4.4723458,8.1929159,0.3926471,17.0305347,-5.4274807,6.9236641,-5.5138183,1.5729824,0.8475431,64.0076370,-147.4045868,37.1450386
5690,4.3957319,8.3365679,0.0143651,15.4045801,-0.6412213,3.7480917,-6.7276726,2.5210814,1.6495966,73.1145020,-134.2824402,28.2061062
5700,3.9863255,8.3964224,-0.5746055,8.6259546,3.7862597,-1.0610687,-8.3629036,2.9496415,1.0989330,83.7480927,-118.2824402,27.6106873
5710,3.4667864,8.5209198,-0.7876883,0.1374046,9.6488552,-6.3435116,-9.1003141,3.5984666,-0.6129125,83.3129807,-113.7175598,31.0916023
5720,2.8347204,8.5161324,-0.9026094,-9.0839691,14.8549614,-10.1679392,-8.7531567,5.4874821,-1.7669119,64.8244247,-114.3358765,33.6641235
5730,2.0805507,8.5304966,-0.8834559,-18.1145039,18.6793900,-12.4885492,-8.8608952,7.1298962,-1.1444225,36.6259537,-108.5648880,39.8549614
5740,1.1970947,8.4706421,-0.2106887,-24.4885502,20.6717548,-11.4351149,-8.8082228,7.3741035,1.0438666,16.6259537,-97.1603088,51.5572510
5750,0.6248835,8.3437500,0.1915352,-26.4961834,17.5190830,-6.5190840,-7.6853480,7.5033898,2.6120608,9.4732828,-76.8015289,62.2900772
5760,0.2609667,8.1785507,0.7469871,-24.4122143,10.4351149,1.8091604,-6.7204900,8.2719250,3.5745249,12.4885492,-55.5496178,67.4656525
5770,0.1771700,8.1426382,1.0869620,-19.2366409,1.3969465,12.8549614,-6.0142040,8.2551651,3.0980811,18.9236641,-39.4427490,70.5725174
5780,0.4572902,8.4730368,1.3551112,-12.4198475,-8.7099237,23.5648861,-5.1786318,8.3676920,1.9273225,19.1984730,-36.9541969,66.3358765
5790,1.0678085,8.8369532,1.1085097,-6.6488547,-17.1755733,31.5725193,-4.8937230,8.3868456,0.9720409,9.2595415,-45.2290077,56.4961815
5800,1.6807210,9.2583303,0.8188128,-4.4427481,-20.6870232,36.5114517,-4.6303625,8.7794924,0.5554519,-8.6335878,-63.3511467,45.4045792
5810,2.2768741,9.5384512,0.7182568,-6.6946564,-19.7633591,38.6946564,-4.4579806,9.3995876,1.1468167,-27.9847336,-76.5419846,36.3511467
5820,2.6671271,9.7922344,0.6823440,-10.9694653,-15.9236641,39.6106873,-4.8338685,9.8664551,2.8610563,-40.0076332,-74.2442780,31.8778629
5830,3.0597742,9.8736372,0.9337339,-16.5572510,-11.3053436,38.4351158,-5.2241216,9.9574337,4.2999644,-39.0152664,-61.0763359,31.6641216
5840,3.4284792,9.8496952,1.4173602,-21.3740463,-7.6030536,36.0610695,-5.4850879,10.1561518,4.9511838,-32.2595406,-35.5114517,36.6488533
5850,3.8211265,9.8185711,1.6879035,-24.4045811,-6.7633586,32.2595406,-5.5090299,10.3021975,5.7221127,-23.5267181,-4.9770994,43.4580154
5860,4.1060348,9.6461897,2.3295465,-26.4580154,-7.5038166,27.2977104,-5.4324160,10.3165627,6.3062949,-13.2671757,20.3740463,48.0458031
5870,4.3095412,9.5384512,2.9256995,-25.8549614,-8.0076332,22.1297703,-5.1139889,10.6709023,6.5098009,-4.4427481,33.5877876,47.2442741
5880,4.3095412,9.3229742,3.3973548,-22.5419846,-7.9389315,17.8320618,-5.3821378,11.0755205,6.4882536,0.3358779,30.5038166,40.4122124
5890,4.2544746,9.2056589,3.6295912,-18.4656487,-5.1068702,14.6870232,-5.3629842,11.5352049,6.3062949,1.8778626,11.8702288,31.1755733
5900,3.8714044,9.0093346,2.9424589,-12.9312973,13.9847326,10.5725193,-4.5274124,11.4849272,4.8386569,9.1450386,-23.2977104,-4.4809160
5910,3.8043671,8.9446917,2.9376705,-11.1450386,16.4961834,9.4427481,-5.0325861,11.7961712,4.7788019,11.2061071,-23.4961834,-14.6870232
5920,3.7349355,8.9111729,2.8227494,-8.7099237,15.7786255,8.0992365,-6.1674318,11.9110928,4.7548604,13.3282442,-27.3129768,-20.2366409
5930,3.5769191,8.8393478,2.6695213,-5.7175574,13.0076332,6.3282442,-6.8186517,12.1457233,4.4507980,13.4122133,-33.3893127,-21.8244267
5940,3.3614421,8.8106174,2.4923513,-3.0381680,9.9465647,5.4122138,-6.5935979,12.1002331,3.9240766,10.5877867,-35.8320618,-19.5877857
5950,3.3758070,8.8177996,1.9392935,-2.0992367,7.4427481,9.3053436,-3.6463506,11.8272963,3.8594334,7.0610685,22.8015270,-11.6564884
5960,3.6367738,8.8728657,1.9704180,-1.9236641,7.1297708,10.0992365,-3.6104376,12.1145983,4.1395535,13.3358774,47.3053436,-13.5496187
5970,5.2025738,9.1027079,2.5498118,-4.1603055,1.3129771,-11.1908398,-3.6798692,18.0785236,2.0039365,-19.4198475,37.0152664,-82.6793900
5980,5.2145448,9.1769285,2.6144550,-3.7251909,2.1603053,-14.6030531,-4.7428894,18.0138817,1.0199248,-20.9618320,44.6259537,-83.0229034
5990,5.0613165,9.1841106,2.4851687,-4.8625956,4.7633586,-17.6488552,-5.2073622,17.2237988,-0.7326220,-28.7480907,45.7862587,-78.4732819
6000,5.0062504,9.1458035,2.4684093,-6.6030536,8.7175570,-20.4503822,-4.8793583,15.2701406,-2.6671271,-45.9083977,44.3358765,-76.7099228
6010,5.2528515,9.1051025,2.7102225,-7.3587785,12.2519083,-25.4427490,-4.2879934,12.6652622,-4.2736282,-70.0229034,45.0534363,-77.6335907
6020,5.0996237,9.2655134,3.1196289,-4.0458016,12.5725193,-32.0228996,-4.2568688,10.1489687,-4.5609307,-92.2137375,56.8931313,-76.6412201
6030,4.8266859,9.2008705,3.2249732,0.2213740,10.5572519,-37.0152664,-4.4627690,7.1634150,-3.9121056,-106.8702316,82.1526718,-74.5038147
6040,4.5729017,9.2224178,3.3446827,5.4351144,10.3893127,-39.5648842,-5.1307478,3.6248028,-3.0980811,-112.6793900,106.3129807,-70.8244247
6050,4.4029145,9.3828287,3.2441268,10.3282442,12.2824430,-40.8702278,-6.3134775,-0.2873027,-2.5162930,-111.5877838,116.0763321,-68.4885483
6060,4.4316444,9.5384512,3.3542595,16.3282452,13.3435116,-42.7786255,-7.4195933,-4.4962878,-2.3750360,-109.2290039,105.6106873,-65.2519073
6070,4.1467361,9.8065996,3.3231349,23.7938938,14.4045801,-44.0687027,-8.5257082,-9.2990322,-2.5785420,-107.9770966,77.8015289,-62.4503822
6080,3.8283088,9.9287033,2.6144550,27.3435116,14.6870232,-44.2748108,-9.7515335,-13.6827927,-2.8251436,-108.6564865,42.9847336,-58.1908379
6090,3.4428444,10.2327662,2.0613971,26.4885502,15.7251911,-43.0916023,-10.8145542,-18.2221756,-3.1746953,-119.1450348,3.7328243,-54.0305328
6100,3.1483591,10.4530315,1.6112895,21.5801525,16.3893127,-41.7557259,-10.7690639,-19.6131992,-3.7373297,-151.4122162,-35.7633591,-57.5801544
6110,2.8634505,10.6948442,1.2449785,14.2519083,13.6412210,-39.9847336,-9.8018112,-19.6131992,-3.3279233,-203.2900696,-59.3358765,-67.1374054
6120,3.1651185,10.7714586,1.3527170,6.5038166,9.3893127,-40.2671738,-7.1921453,-19.6131992,-0.1987177,-250.1374054,-38.0228996,-85.7328262
6130,3.3853838,10.7977943,1.8794388,2.6412213,3.2977099,-43.3893127,-6.6534524,-19.6131992,5.4180508,-250.1374054,41.1297722,-109.9160309
6140,3.3303175,10.7427282,2.3175755,2.6030533,-0.5114504,-47.1984749,-9.4809904,-18.9595871,13.6085730,-250.1374054,127.5877838,-122.0152664
6150,2.9664006,10.8504667,2.2457497,3.0687022,-0.9083970,-50.2824440,-13.7354650,-15.2988710,19.6126022,-238.2824402,182.4885559,-109.8854980
6160,2.3486998,11.0036945,1.9273225,0.3053435,4.4809160,-51.7938919,-17.7026367,-10.9582052,19.6126022,-154.4274750,191.9007568,-71.1221390
6170,1.8698620,11.0611553,1.6328372,-5.6793895,11.5190840,-52.7099228,-19.6131992,-7.1179252,19.6126022,-47.9618340,145.8778687,-12.8778629
6180,1.4413021,10.9390516,1.5394639,-14.4351149,16.6030540,-53.6870232,-19.6131992,-6.0788469,19.6126022,58.8244286,39.9465637,51.3969460
6190,1.1109039,10.6397781,1.8291607,-23.0839691,18.3206100,-54.5343513,-17.9085369,-7.9511032,19.6126022,153.7328186,-79.7099228,98.6793900
6200,0.8140244,10.3668404,2.3989778,-28.8625946,17.5954189,-55.6488533,-12.6987810,-10.9701757,15.8255920,221.9160309,-149.3435059,115.7862625
6210,0.6200951,10.0364418,3.0621684,-29.8931293,13.4122133,-57.5267181,-7.9271612,-12.4186611,6.5409255,250.1297760,-182.2900696,101.1450348
6220,0.5889706,9.6725254,3.9719603,-26.0381680,9.5267172,-58.6717567,-6.2775645,-12.8352499,-0.9792235,250.1297760,-178.7022858,72.0076370
6230,0.4477134,9.4881725,4.3670015,-18.7557259,8.2366409,-58.1374054,-6.4451580,-11.0874910,-5.6191626,226.9465637,-160.2213745,44.6259537
6240,0.4548960,9.0691900,4.3574247,-11.6412210,8.2366409,-56.9923668,-7.4483232,-8.7244263,-7.1227136,174.1679382,-160.2595367,25.3969460
6250,0.2513899,8.8393478,4.1682839,-5.8320613,9.9770994,-54.7709923,-9.0189114,-7.0245519,-5.4994531,127.0152664,-178.5114441,17.5572510
6260,-0.0766141,8.5017672,3.9192882,-1.8854961,10.4351149,-49.9007645,-9.8161764,-5.9471664,-2.4157372,100.0000000,-195.1984711,18.8778629
6270,-0.4668669,8.0348997,3.9528067,1.0458015,8.7862597,-40.1450386,-9.6844959,-4.6662750,0.1316804,93.3969498,-200.3664093,21.0916023
6280,-0.4812321,7.5752153,4.2353210,5.7786260,2.7022901,-26.1374054,-9.4307127,-4.2089849,1.2665262,93.3969498,-197.7557220,22.0229015
6290,-0.0407012,7.1873569,4.8051381,16.2137413,-7.4656487,-10.2213745,-8.8201942,-3.3231349,1.4221486,94.4351120,-195.4351196,19.6259537
6300,1.0295014,6.8952656,5.0469513,32.5725174,-20.4732819,4.6106873,-8.4203644,-2.3247581,1.1156923,90.3740463,-195.1908417,14.3435116
6310,2.1547706,6.5169835,4.8721757,50.3740463,-31.8854961,15.1145039,-8.8417416,-1.4556671,1.1755470,84.3282471,-187.2824402,10.9465647
6320,3.2082138,6.2919297,3.8737986,63.7709923,-38.5190849,21.4274807,-9.5647869,0.1987177,1.6280488,79.1221390,-165.8778687,16.8931293
6330,4.0054789,6.2727766,2.8275378,70.1679382,-37.7862587,23.6030540,-9.7060442,2.0087249,1.8219782,72.5725174,-137.1832123,29.3664131
6340,4.5896611,6.2775645,1.8195840,70.4809189,-29.0305347,21.6564884,-9.3780403,3.4931223,2.4444675,60.5419846,-103.0610657,47.4656487
6350,4.6183915,6.4236102,0.8259954,67.3969498,-15.3206110,17.8244267,-9.3924055,4.5369892,4.3909435,53.7022896,-61.4580154,68.1221390
6360,4.3119354,6.4619174,-0.5027798,57.0381660,4.5190840,13.1450386,-9.3253679,5.1499014,6.4403696,60.1068687,-19.7938938,89.5038147
6370,3.5888901,6.8689294,-1.5250987,42.3435097,26.3587780,6.8396945,-8.9997578,4.9511838,7.3286138,73.3053436,10.6488552,106.6106873
6380,2.5929072,7.0413113,-2.0925217,27.1984730,43.4885483,2.6488550,-8.5855637,4.9128766,6.6127515,80.5190811,21.8549614,115.8931274
6390,1.2737088,7.3190370,-2.5282640,11.0839691,51.9618340,0.9694657,-8.2910776,5.5736732,5.8873119,77.3053436,12.6564884,115.3893127
6400,-0.0215477,7.7284436,-2.4540441,-3.4732823,52.7633591,3.2824428,-8.2288294,5.9830794,4.9990678,67.2595444,-10.2213745,108.9465637
6410,-0.9361281,7.6973190,-2.0853391,-15.0839691,49.9694672,8.7022905,-7.8888540,7.4602942,4.2688398,51.2977104,-33.2748108,104.1068726
6420,-1.7908537,8.0325060,-1.4748207,-21.6106873,42.9007645,18.4427490,-7.6949248,9.1458035,4.2879934,35.1603050,-40.9007645,109.2977066
6430,-2.1380112,8.2791071,-0.7637464,-22.1450386,29.7175579,32.2900772,-7.0556765,9.6940727,5.0445571,23.3053436,-30.7557259,121.5267181
6440,-1.5370697,8.5999289,0.0335187,-17.3664131,10.2061071,46.5190849,-6.5505023,10.3021975,6.2153158,18.6793900,-9.7633591,137.7251892
6450,-0.5578461,8.9686337,0.6727672,-8.8473282,-9.3435116,56.9847336,-5.9735026,10.6948442,7.8146343,28.3129768,20.8396950,159.3587799
6460,0.8834559,9.4426832,0.9337339,-0.9923664,-26.5190830,61.5343513,-4.5968437,10.0053177,8.0396881,45.7786255,49.8167953,178.3893127
6470,2.4899571,9.6677370,1.0630201,3.2290077,-36.9847336,59.4885483,-2.9400647,9.6509781,7.3764977,58.8778610,65.6106873,185.5267181
6480,3.6056492,10.0555954,1.3718705,4.3129773,-40.3969460,51.8320618,-1.8914096,9.6964674,5.7436604,61.0305328,63.7328262,185.5343475
6490,4.1180058,10.5128860,1.5346755,1.8167939,-40.4809151,42.1832047,-0.6464311,9.7275915,4.8434453,56.6259537,54.6183205,183.6259613
6500,4.3406653,10.7235746,1.4556671,-4.6717558,-36.2519073,32.6412201,1.2521610,9.8257532,4.4220681,51.6793900,43.3816795,174.1603088
6510,4.4148855,11.0779142,1.4580613,-14.4580154,-27.3053436,23.6870232,2.9879484,10.1537571,4.3143296,50.5648842,33.3587799,153.5267181
6520,4.3789725,11.0874910,1.6160779,-26.6564884,-15.2748089,14.7938929,4.1970143,10.6732969,3.5936785,52.3893127,28.1297703,125.7404556
6530,4.2616572,10.9246864,2.2074428,-37.8244286,-2.3282442,5.5343513,4.3622131,11.2095947,2.4420733,50.5648842,30.0610695,95.9618301
6540,3.9863255,10.6493549,3.1794837,-43.3129768,9.6870232,-3.0381680,3.9647777,11.2694502,1.4843974,42.1297722,32.0534363,64.7862625
6550,3.4236910,10.2806492,3.8211265,-42.9694672,16.9694653,-9.5877867,2.6671271,11.4514084,0.6081241,28.4274807,25.5343513,34.2748108
6560,2.7437410,10.0532017,4.3622131,-37.3664131,18.8931293,-13.5267172,1.1755470,11.8033543,0.3734936,10.9083967,20.9847336,9.9465647
6570,2.1427996,9.9622221,4.4579806,-28.7175579,17.7099228,-14.4351149,-0.4620786,12.2869806,0.4979914,-7.3282442,20.0000000,-5.4198475
6580,1.7357874,9.9502516,4.2425036,-19.9007626,16.8091602,-13.5725193,-2.1499822,12.7155399,1.6711442,-22.3206100,16.7328243,-12.1068707
6590,1.5227045,9.9167328,4.0868812,-11.7938929,16.0687027,-11.5496187,-3.5098817,12.8137016,3.1339941,-30.7328243,11.3511448,-11.0458012
6600,1.3646880,9.8999729,3.8498566,-5.0229006,14.6793890,-8.6946564,-4.2736282,12.5934362,4.4220681,-32.5496178,5.4885497,-3.5496182
6610,1.4125718,9.8496952,3.6463506,0.9083970,14.1450386,-6.0229006,-4.5633249,12.1145983,5.6526814,-27.7709923,4.8549619,3.9083970
6620,1.7070571,9.8903971,3.4404502,5.2748094,14.1526718,-3.6183207,-4.8099265,11.6429434,6.8066807,-15.0458012,13.1068707,11.0305347
6630,1.8459201,9.9694052,3.2225790,8.8854961,14.5725193,-2.7480917,-5.0900469,11.4442253,7.3070664,2.7404580,23.6030540,14.7862597
6640,1.9799947,9.8880024,3.0382264,11.6259546,14.2748089,-2.4809160,-4.3478479,10.7379398,7.0772243,20.4656487,25.9007626,13.1755724
6650,1.9776005,9.7563219,2.7174051,13.1603050,14.8473282,-2.0000000,-5.2887645,12.1265697,6.1363077,30.3893127,37.1374054,12.1755724
6660,2.0087249,9.5647869,2.6455793,13.7786255,15.1755724,-0.8854962,-5.8801293,11.8608141,5.8035154,37.3282433,37.8549614,17.7938938
6670,2.2481439,9.5240860,2.4899571,14.0076332,15.0610685,-0.1450382,-5.8633699,11.3771887,5.2073622,41.3129768,34.1603050,22.4580154
6680,1.4891858,12.1385403,0.4237715,34.7557259,11.0839691,27.6717548,-2.0757623,5.8729467,3.3351059,36.8320618,24.2290077,22.4809170
6690,3.2776453,12.3276815,0.8451489,43.0000000,-2.8015268,32.1984749,-1.2689204,5.4922705,3.1986370,24.8778629,23.7633591,11.9618320
6700,4.3095412,12.1912127,1.3048333,49.9389305,-10.3893127,25.7938938,-1.0630201,5.1882086,3.2824337,18.1221371,15.8473282,4.4503818
6710,5.2289100,11.8919392,1.2090657,58.1450386,-18.6564884,13.9694653,-1.0725969,5.1355362,3.2656744,12.5267172,6.5419846,-3.1603053
6720,5.3414369,11.4514084,0.8499373,63.4961815,-24.7175579,-0.1908397,-1.3455344,5.0541339,3.3446827,7.5954199,-2.1450381,-8.6183205
6730,5.0158267,10.9582052,-0.0119709,62.2519073,-23.9236641,-13.2519083,-1.1683644,4.9583664,3.3351059,3.4809160,-10.4732828,-12.7251911
6740,4.6088147,10.1776991,-0.5769997,54.3740463,-15.1297712,-24.3282452,-0.8978211,5.0900469,3.1914546,-1.0763359,-18.5114498,-18.8702297
6750,3.8977404,9.5121145,-0.6727672,43.4122124,-2.1068702,-32.0992355,-0.5985473,5.5784616,2.8514795,-7.6564884,-28.6564884,-27.0839691
6760,3.0885043,8.6669655,-0.4955972,32.7328262,7.1374044,-35.7099228,-0.5985473,6.1794028,2.5617826,-16.2900772,-39.0381660,-34.5419846
6770,2.2672975,7.9223728,-0.2466015,24.8549614,9.1603050,-35.5877876,-0.2561783,6.6271162,2.2122312,-24.9465656,-48.4809151,-43.1068687
6780,1.7309990,7.2903070,0.0670373,20.5190830,4.7862597,-32.2824440,0.1580165,7.6494355,1.5945302,-35.1832047,-53.9160309,-54.5648842
6790,1.5658000,6.8593526,0.5027798,19.3129768,-3.2977099,-28.5267181,0.3447633,8.7124557,1.2689204,-48.9236641,-55.9694672,-66.5038147
6800,1.6591733,6.5744443,0.8068419,20.1679382,-13.2824430,-25.1450386,-0.2801202,9.3780403,1.9704180,-60.4809151,-50.1908379,-75.1679382
6810,1.6495966,6.2608056,0.7852941,20.6106873,-21.5801525,-22.8320618,-0.9624642,10.0172882,2.9664006,-63.9465637,-41.0763359,-80.0992355
6820,1.8746504,6.0860295,0.6081241,18.5343513,-24.5114498,-21.5648861,-1.4604555,11.0396080,4.0892754,-59.3206100,-30.6106873,-83.9923630
6830,1.9345051,6.0213866,0.5027798,13.9618320,-21.2977104,-21.3129768,-2.5186872,11.7722292,4.9823084,-50.1755714,-21.1984730,-84.4198456
6840,1.7956421,5.9040713,0.1484398,5.7633586,-13.9465647,-21.1221371,-3.4859397,12.4761209,4.8051381,-38.6183205,-17.7862587,-81.6335907
6850,1.4939742,5.9304070,-0.0646431,-4.2671757,-1.8854961,-20.1679382,-4.0461802,12.9956608,3.9049230,-32.1374054,-19.7175579,-78.0534363
6860,0.8547257,6.0644817,-0.2968795,-14.8778629,9.2290077,-17.1755733,-4.1946201,12.8927097,2.9975252,-31.7022896,-16.4351139,-74.4351120
6870,0.2370248,6.0836353,-0.4165890,-24.6946564,14.8320608,-11.4122133,-3.7852135,13.0674858,2.5091105,-32.0839691,2.5496182,-71.3740463
6880,-0.1891410,6.3134775,-0.2442073,-33.0916023,13.6335878,-3.0458016,-3.8235207,13.5175934,2.7341642,-30.6793900,29.4961834,-70.5572510
6890,-0.2489957,6.7324610,0.0215477,-39.1068687,8.7328243,7.3282442,-4.1371593,13.7067347,3.3398943,-27.2213745,52.1374054,-69.5496216
6900,0.1556223,7.0556765,0.4309541,-41.5190849,3.5572519,16.5267181,-4.2353210,14.4393568,4.1180058,-20.1984730,73.2366409,-71.9847336
6910,0.7134684,7.6853480,0.7829000,-41.9312973,-0.9312977,23.4809170,-4.1539187,14.6404686,4.6040263,-11.3206110,84.5496216,-74.0534363
6920,1.2904681,8.3006544,0.7230452,-42.2366409,-3.7480917,28.8320618,-3.4907281,15.5861731,5.0206151,-2.0916030,88.4503784,-80.2137375
6930,1.8602852,8.9662399,0.5985473,-44.1526718,-3.7938931,32.9007645,-2.8371146,15.7298250,5.0325861,8.4274807,90.1526718,-90.1603088
6940,2.2768741,9.7419567,0.5746055,-48.1374054,-3.3664122,35.6488533,-2.0039365,16.1152897,4.0150557,19.0534344,92.6030502,-101.6183243
6950,2.7676830,10.4075413,0.3663110,-54.5648842,-2.7557251,36.5725174,-2.0422437,16.3571014,2.6790979,23.7633591,97.0916061,-114.1297684
6960,3.3327117,11.1473465,0.3782819,-62.8625946,0.0458015,35.0152664,-2.2481439,16.2062683,1.0127422,17.6030540,87.3664093,-125.4427490
6970,3.9384418,11.6213961,0.9217629,-70.1679382,2.5648854,29.9541988,-2.5330524,15.8950233,-0.5937590,-0.5877863,66.9160309,-137.1450348
6980,4.4531922,11.9589767,1.5610116,-73.9923630,1.7938931,20.7328243,-2.3965836,15.3276005,-1.4604555,-25.4122143,51.5343513,-143.6412201
6990,4.7333126,12.2319136,2.1787124,-73.2137375,-1.3816794,6.8396945,-2.0230901,14.0060081,-0.8786675,-45.7557259,46.9847336,-150.9007568
7000,4.4484038,12.3540173,2.9113343,-68.1755753,-4.8091602,-8.6488552,-1.3455344,12.0260134,-0.5243275,-55.4122124,61.9847336,-158.0610657
7010,3.7876077,12.1696653,3.0765336,-61.7099228,-7.5801525,-21.5648861,-1.0965388,9.6294298,-0.7230452,-55.6793900,94.9694672,-165.4198456
7020,2.9879484,12.0308018,2.7245877,-57.8854980,-9.5648851,-30.6106873,-1.5466464,6.8282285,-1.1444225,-48.9007645,136.6259613,-174.9694672
7030,2.2074428,11.5519638,2.5737536,-57.0916023,-10.9007635,-35.6259537,-2.0422437,4.0701222,-1.7214222,-39.0610695,169.0076294,-185.9084015
7040,1.5849534,11.2862091,2.8873925,-55.8931313,-12.9389315,-37.9771004,-2.6360025,0.6105183,-2.7389526,-31.9236641,184.2213745,-199.0915985
7050,1.1252691,10.9869356,3.2010312,-52.4122124,-17.3358784,-39.2977104,-3.5026991,-3.1746953,-3.4356618,-26.9312973,186.2595367,-214.2977142
7060,0.8068419,10.5296450,3.4165084,-46.3358765,-23.5496178,-39.9160309,-4.8290801,-7.2735476,-4.3143296,-23.3511448,170.9618378,-229.1450348
7070,0.5626345,10.0460186,3.3638363,-39.7099228,-28.8015270,-39.4885483,-6.8449879,-11.5783005,-5.5736732,-30.1297703,133.2977142,-243.8244324
7080,0.1484398,9.6437950,3.2896163,-34.8549614,-32.1145020,-36.5496178,-9.7036495,-15.6579990,-6.6366930,-57.7938919,73.4503784,-250.1374054
7090,-0.0790083,9.2511482,3.3973548,-30.4885502,-32.2900772,-30.5190830,-12.9908724,-19.0050755,-7.0484939,-105.6259537,-1.7251909,-250.1145020
7100,-0.4285599,9.0691900,3.4332676,-24.9389305,-29.6946564,-22.2900772,-15.7034883,-19.6131992,-6.1626434,-167.8244324,-85.0534363,-230.7862549
7110,-0.4094064,8.7076674,3.2297616,-19.1297703,-27.6870232,-11.8854961,-16.0362816,-19.6131992,-4.4029145,-230.8625946,-135.0458069,-199.3358765
7120,-0.1292862,8.1306677,3.3566537,-12.4503813,-27.7938938,-0.2595420,-14.8631277,-19.6131992,-0.2489957,-250.1374054,-119.1297684,-162.0763397
7130,0.4668669,7.6470413,3.7277529,-1.4580153,-31.2748089,11.9236641,-14.3603487,-19.4815197,5.6622581,-250.1374054,-33.5954208,-125.9312973
7140,1.2377959,7.3812861,4.0342093,14.4274807,-35.8778610,23.7328243,-15.5287132,-16.5031471,12.4186611,-250.1374054,80.3129807,-86.5343475
7150,1.8411317,7.6470413,3.5242469,28.9083977,-38.7557259,33.2442741,-18.4065285,-12.0403786,18.5980644,-211.1984711,165.1145020,-37.7786255
7160,2.6000898,8.0061693,2.6144550,37.6030540,-33.8549614,39.2900772,-19.6131992,-8.4514885,19.6126022,-143.7786255,199.9923706,22.4351139
7170,3.2441268,8.3844519,1.5586174,39.0381660,-21.8167934,39.5343513,-19.6131992,-6.0453281,19.6126022,-68.2290039,178.2137451,79.2442780
7180,3.3949606,8.9255381,0.5626345,33.4732819,-4.0381680,34.3358765,-18.5836983,-5.6071916,19.6126022,4.8549619,100.4580154,124.9542007
7190,3.2608860,9.5360565,-0.0885850,22.5190830,14.6488552,25.5038166,-15.2581692,-6.7564025,19.6126022,64.7404556,0.9007633,152.0229034
7200,2.8730273,9.7754755,-0.6440369,8.7557249,29.8549614,12.7862597,-11.2862091,-8.6023226,15.3922443,108.3816757,-84.1145020,156.1908417
7210,2.1643472,9.8425131,-0.6991033,-6.0992365,38.0152664,0.1450382,-7.5919747,-9.3110027,9.3301563,133.6641235,-135.0229034,139.8015289
7220,1.1492109,9.6605549,-0.2801202,-17.3740463,38.5419846,-9.8091602,-5.8370337,-9.8712435,5.1044121,154.2213745,-165.1832123,113.8396912
7230,-0.0598547,9.4091644,0.3351865,-22.5572510,31.5267181,-14.2824430,-6.1123657,-9.5049324,1.3311694,157.3893127,-172.3893127,84.0992355
7240,-0.8930327,8.9925756,1.2784972,-21.3358784,18.5343513,-10.4198475,-7.5991573,-8.6502066,-0.8427547,150.8396912,-178.4580078,65.2442780
7250,-1.2521610,8.6789370,2.2385671,-12.8091602,4.1603055,-0.0763359,-8.4993725,-7.1179252,-2.0063307,141.3664093,-191.3816833,57.2977104
7260,-0.9768293,8.6765423,2.9256995,0.2595420,-11.6412210,13.0610685,-9.0739784,-6.2703824,-2.7748656,130.1526642,-199.0839691,53.8244286
7270,-0.2513899,9.0069408,2.6934631,11.9847326,-26.6488552,24.7862587,-9.2990322,-4.9799142,-3.0789278,117.5725174,-197.0686951,54.8778610
7280,0.6200951,9.5647869,2.3989778,17.5496178,-33.8473282,33.5648842,-8.5807753,-3.9480183,-2.3822186,103.9083939,-190.1526642,58.6564903
7290,1.6735384,9.7587166,2.1882892,16.5343513,-32.5877876,38.4961815,-6.6342988,-2.1356170,-1.5849534,92.6717529,-179.0076294,57.6488533
7300,2.5617826,9.9358864,2.2601149,11.9923668,-27.5114498,39.8549614,-5.4395986,-0.5674229,-0.4429250,88.8778610,-158.5419922,51.5114517
7310,3.4715748,10.1250277,2.5641768,6.6793895,-20.6870232,37.0763359,-5.2720051,0.5937590,0.9935886,87.8244247,-131.5267181,44.4045792
7320,4.1227942,10.1130562,2.8873925,2.4351146,-13.9770994,30.3129768,-5.5569139,1.2018831,2.1547706,94.1297684,-106.1755753,35.7709923
7330,4.6088147,10.2351599,3.2249732,-0.7328244,-7.1908398,21.2519093,-6.2416520,1.7669119,2.5665710,100.0534363,-93.0381699,25.4580154
7340,4.5178356,10.0795374,3.5936785,-1.1755725,-2.1832061,11.1755724,-6.9790621,2.4660151,2.5833304,104.3206100,-90.6946564,13.6946564
7350,3.7588775,10.0292597,3.4500270,0.2442748,6.8854961,-6.5419846,-9.5073261,4.8099265,0.9145803,96.9770966,-109.7786255,-6.7251906
7360,3.3303175,9.9478569,3.3805954,1.3740458,12.9694653,-13.5572519,-10.4099360,5.9064655,0.3615226,79.5496216,-130.2748108,-9.0000000
7370,2.7796540,9.8401184,3.3087699,2.6030533,17.9923668,-19.3587780,-10.8600435,6.9599090,0.3639168,59.7633591,-148.5954132,-5.0534353
7380,2.3319404,9.7682934,3.1315999,3.9465649,22.5648861,-23.5038166,-10.7235746,7.8768835,0.7326220,40.8778610,-156.7404633,4.5343513
7390,1.9608412,9.8377247,2.9664006,5.4961834,25.6335869,-26.8702297,-10.4745789,7.8361821,2.0039365,28.6259537,-141.3740387,21.3893127
7400,1.5897418,9.7251978,2.9640064,8.3816795,25.8473282,-29.3129768,-10.2519188,7.4531116,3.6798692,27.8702297,-111.0687027,39.5114517
7410,1.1683644,9.6844959,2.7628946,12.6412210,24.4732819,-30.3587780,-9.7682934,6.7276726,4.3933377,32.8244286,-80.3053436,54.5725174
7420,0.7134684,9.6390066,2.3870070,15.8931293,21.6412220,-29.2595425,-9.0428534,6.0429344,4.6854286,39.2213745,-53.7709923,65.0839691
7430,0.4141948,9.5312681,1.8698620,16.9083977,20.7709923,-26.5877857,-8.1115141,5.5186067,4.5250182,46.1908379,-29.4045811,70.2824402
7440,0.1412572,9.6174593,1.8770446,17.3358784,21.2900772,-22.1832066,-7.0652533,5.5257893,3.7564833,48.1374054,-6.4656487,67.7709961
7450,-0.1508339,10.0532017,1.8914096,19.6564884,21.7480907,-16.0000000,-6.6702118,6.3900914,2.9089401,39.6106873,1.7480916,60.4732819
7460,-0.3519458,10.4434547,1.5897418,22.7557259,19.1832066,-9.2900763,-6.7037306,7.6015515,2.9759774,20.5038166,-7.9083967,54.1832047
7470,-0.1173153,10.5464048,1.3024391,23.9618320,15.1145039,-3.2595420,-6.7564025,7.9056134,3.9144998,1.3358779,-22.2213745,52.8091621
7480,0.2035061,10.4602137,1.3958124,24.8167934,10.9770994,1.3664122,-6.9120250,7.4315639,4.9511838,-10.6564884,-31.4274807,54.3129768
7490,0.6248835,10.3907824,1.6543850,27.8854961,6.3206105,4.7175574,-6.5720501,7.1729918,5.6454988,-16.8931293,-34.8931313,54.9236641
7500,0.9457048,10.1776991,1.9488702,31.9541988,0.9541985,7.0534353,-6.2081332,6.6606350,6.2272868,-18.2137413,-28.6641216,56.6335869
7510,1.3120158,9.9310980,1.8985922,35.3893127,-2.5877862,9.3816795,-5.8873119,6.2320752,6.7635851,-13.0839691,-14.4732828,59.8244286
7520,1.5681942,9.7587166,1.9464760,38.4274826,-5.3129773,10.9694653,-5.7436604,6.0285692,6.8521700,-3.9007633,2.4885497,61.1832047
7530,1.8339491,9.5911226,1.8435259,40.1145020,-7.3740458,11.9236641,-5.6862001,5.7364779,6.5935979,6.0992365,21.4274807,61.6488533
7540,2.5665710,9.2008705,1.6783268,39.2213745,-10.0763359,10.8702288,-5.4707227,6.0261750,5.3510137,11.9236641,41.9083977,57.9923668
7550,2.8490853,8.9877872,1.5634058,36.9847336,-9.0381680,7.6488547,-5.2504573,5.7843618,4.6878228,3.6488550,28.7175579,51.7022896
7560,3.1172347,8.8896255,1.3790531,33.1374054,-5.6412215,1.9083970,-5.0182209,5.7388721,4.5274124,-9.2671757,4.9160304,41.4198456
7570,3.2130022,8.6861191,1.1635761,27.4580154,-0.3893130,-5.7480917,-4.4364328,5.9447722,4.9080882,-20.4503822,-18.3816795,32.0305328
7580,2.7557120,8.3102312,0.7948709,19.3893127,6.7938933,-14.4580154,-3.6271970,6.2727766,5.1427188,-24.8625946,-35.4809151,23.4809170
7590,2.1044924,7.9918046,0.5099624,9.6412210,14.3816795,-21.0000000,-3.0693510,6.5528965,4.9176650,-23.9618320,-36.9160309,15.7328243
7600,1.7309990,7.7284436,0.4548960,-1.0687023,21.8396950,-25.8320618,-3.1124463,7.1801744,4.6088147,-23.3358784,-25.0534344,7.1221375
7610,1.3766589,7.5057840,0.5243275,-10.8854961,31.6870232,-29.8549614,-3.8354914,7.9439206,4.6279683,-24.7786255,-11.6488552,3.1526718
7620,0.6799498,7.3094602,0.6631905,-18.1374054,38.3206100,-32.8778610,-4.3286943,8.8249826,5.0637107,-27.7557259,-3.6870229,2.1297710
7630,-0.0430954,7.0676475,0.6751614,-23.0992374,39.4503822,-33.3282433,-5.0158267,9.0979195,5.9399838,-29.7633591,-0.3664122,3.0916030
7640,-0.1675933,7.0748301,0.9935886,-25.3129768,37.3740463,-32.5725174,-5.5353661,9.7682934,6.8665352,-28.9694653,-3.4885497,4.8015265
7650,-0.3806761,7.0484939,1.0941446,-24.5267181,32.0839691,-31.5114498,-5.2911587,10.4697905,7.5057840,-22.6564884,-9.6641226,7.8778625
7660,-0.5147507,7.4243813,1.0725969,-23.4351139,25.9618320,-25.7175579,-4.4148855,10.5080976,7.4315639,-10.1526718,-6.1832061,10.2671757
7670,-0.3399749,7.8170285,0.9073978,-22.7175579,23.4656487,-17.2137413,-3.5625539,10.6637201,7.1131368,5.4351144,7.5572519,6.6106873
7680,-0.3136388,8.3437500,0.9816177,-21.3129768,19.9694653,-7.1755724,-3.6511390,10.9677820,6.6390872,16.7480907,21.0458012,-0.5572519
7690,-0.1795642,9.0691900,1.0175306,-19.0687027,13.7862597,4.1145039,-4.6614871,11.0755205,5.9112539,21.3358784,27.1450386,-7.0763359
7700,0.2729376,9.8113880,0.8882443,-16.5190830,7.0229006,15.8625956,-5.2097564,11.6860390,6.1315193,23.0687027,27.9541988,-12.6793890
7710,0.8810617,10.3740225,0.7781116,-15.1755724,-0.9312977,24.5572510,-5.9256191,12.1361465,6.3254485,27.0381680,27.5954189,-14.6412210
7720,1.6543850,11.0084829,0.8882443,-14.4351149,-7.1908398,29.0458012,-5.8202744,12.4402084,5.6047974,30.8625946,30.8778629,-14.0610685
7730,2.3726418,11.6716738,1.0438666,-12.9541988,-12.9923668,27.6412220,-5.5784616,13.0219965,5.0732875,30.5496178,35.9083977,-14.8396950
7740,2.6479735,11.6094246,0.7421987,-12.7709923,-15.6030531,23.0000000,-5.2193332,13.3739424,5.0493455,30.2442741,42.3129768,-16.0305347
7750,2.8131726,11.7243462,0.6584021,-14.8473282,-15.8244276,18.5496178,-4.9104824,13.4529505,5.0732875,33.5954208,51.6793900,-15.5954199
7760,2.7748656,11.8177195,0.9002152,-15.4961834,-13.9923668,15.1221371,-4.3143296,13.5989962,4.8602047,40.9771004,68.8244247,-15.3893127
7770,2.4875629,11.7985659,0.8858501,-15.8625956,-15.4503813,14.4732828,-3.8618276,13.9270000,4.3263001,50.0381660,90.4503784,-15.7938929
7780,2.4612267,11.8871508,1.1228749,-15.8320608,-17.1984730,15.5648851,-3.6631098,15.0091734,3.0837159,56.3206100,115.4122162,-19.7022896
7790,2.4109488,11.8775740,1.5322813,-14.0992365,-19.7328243,17.6106873,-4.0581512,15.1552191,2.5546002,55.0381660,128.0000000,-20.3969460
7800,2.4324965,12.0547438,1.9416877,-9.4580154,-24.4427490,19.7099228,-3.8115497,16.5510311,1.6424140,46.2061081,128.9770966,-22.8244267
7810,2.3486998,12.1050215,2.2840567,-2.5801528,-30.8244267,21.4656487,-3.8881636,16.7760849,1.5562232,34.2366409,118.2213745,-26.5725193
7820,2.2553265,12.1648769,2.1619530,3.9618320,-37.3511467,24.0610695,-2.9999194,17.4296989,1.6328372,22.2671757,104.2900772,-33.5114517
7830,2.3391230,12.4665442,2.1260402,8.6717558,-42.6870232,26.1068707,-1.9009864,17.8822002,1.7717001,13.0458012,92.1755753,-45.0458031
7840,2.2936335,12.7514534,1.7573351,11.0076332,-46.8473282,27.7862587,-1.4652439,18.4328651,1.5250987,6.5725193,83.3053436,-58.5801544
7850,2.1380112,12.9549589,1.3527170,8.4427481,-49.6259537,28.8854961,-1.2066715,19.3043499,0.2944853,-1.6717557,79.9465637,-68.6412201
7860,2.1739240,12.9118633,1.2641320,1.2824427,-49.3893127,31.7557259,-1.3215926,19.3689919,-1.4125718,-16.3435116,83.0610657,-72.8625946
7870,2.4181314,12.7322998,1.8770446,-7.2442746,-45.1679382,35.1450386,-0.7110743,18.3586445,-3.6559272,-40.5267181,84.7175598,-76.2213745
7880,2.8466914,12.4497852,2.3151813,-13.2671757,-38.4580154,36.3587799,-0.2466015,16.2541523,-4.5034704,-72.6946564,85.7709961,-80.6488571
7890,3.4380560,12.2486734,2.7964132,-16.9923668,-30.2061062,34.5572510,-0.1149211,12.6293497,-4.3454537,-100.4656525,90.1374054,-86.5801544
7900,3.8211265,12.0858688,3.1770895,-19.0763359,-23.5267181,29.3664131,0.2106887,8.4778252,-3.4619980,-117.4961853,103.4503784,-94.9618301
7910,4.1084290,11.6190014,3.3398943,-19.4351139,-17.1297703,21.6641216,0.9983770,3.7971845,-2.0853391,-117.5954208,125.3893127,-105.3435135
7920,4.1467361,11.1329813,3.4069316,-19.1908398,-11.8854961,13.4656487,1.3598996,-0.8236012,-1.9680238,-101.7938919,154.3511505,-122.8473282
7930,3.7660601,10.3931761,3.4572096,-19.7251911,-11.3511448,7.6412215,0.7421987,-6.1506729,-2.7102225,-82.7938919,175.8931274,-146.1450348
7940,3.4787574,9.7563219,3.8019729,-18.8549614,-16.0839691,5.2137403,-0.7374104,-12.0427732,-3.4212968,-66.3511429,168.3969421,-177.6793823
7950,3.1986370,9.4809904,4.0677280,-15.0687027,-22.6564884,2.3129771,-3.7349355,-18.3155499,-4.8147149,-58.4351158,134.8549652,-210.7709961
7960,2.8586621,9.2128410,3.9144998,-10.9847326,-26.3358784,-1.1755725,-12.7203283,-19.6131992,-7.3573442,-75.0763321,65.7633591,-235.2900696
7970,2.4229198,8.8537130,3.5745249,-9.7557249,-25.5496178,-3.7862597,-16.6084919,-19.6131992,-11.0396080,-149.8396912,-33.1145020,-246.4809113
7980,1.9799947,8.3844519,3.3853838,-9.9312973,-21.5038166,-3.5725191,-17.3578739,-19.6131992,-9.8664551,-250.1374054,-113.4198456,-250.1374054
7990,1.6352314,8.0947542,3.1220231,-9.4809160,-16.3893127,-0.7938932,-19.6131992,-19.6131992,0.3567342,-250.1374054,-143.9770966,-228.0381622
8000,1.3431402,7.7547798,2.9592183,-9.0687027,-14.3664122,3.4198472,-19.6131992,-19.6131992,12.7658186,-250.1374054,-136.2824402,-141.2977142
8010,1.5442522,7.5393028,2.8299320,-9.5801525,-15.5038166,9.4732828,-19.6131992,-18.9643745,19.6126022,-250.1374054,-107.0457993,-9.3129768
8020,2.2361729,7.4195933,3.3039815,-7.6717558,-17.8702297,13.6412210,-19.6131992,-16.6156750,19.6126022,-175.8854980,-70.2748108,117.2595444
8030,2.8275378,7.3477674,3.2177906,-3.6259542,-19.7022896,14.9389315,-17.0585995,-18.1288033,19.6126022,9.4045801,-47.7786255,196.3206177
8040,3.1148405,7.3070664,2.6024840,-1.3969465,-19.7480907,14.8320608,-7.5033898,-19.5988350,19.6126022,168.5725250,-13.8473282,217.2519073
8050,3.2058196,7.3573442,2.0685797,-4.3282442,-18.9465656,15.3587790,-2.5809362,-18.8901539,11.3628235,250.1297760,7.0687022,197.1526642
8060,3.6846576,7.1849627,1.6998745,-10.8931293,-15.5267172,15.9923668,-1.2425843,-16.6970768,0.4788379,250.1297760,0.3053435,161.7328186
8070,4.2137733,6.9958215,1.7812769,-19.3282452,-10.5190840,17.1832066,-1.7621235,-13.9246063,-6.3158717,214.6106873,-43.5038185,115.5954208
8080,4.9823084,6.8569584,2.3199697,-27.0992374,-5.3740458,17.5114498,-3.5888901,-10.4937325,-7.6063399,152.8931274,-118.3816757,72.0534363
8090,5.7819676,6.5816269,2.8371146,-29.7862587,0.2748092,14.0839691,-3.7684543,-5.9639258,-6.5720501,99.8015289,-194.2290039,43.9007645
8100,6.0285692,6.4643116,3.1746953,-28.6412220,4.8015265,8.7328243,-2.5378408,-2.8107784,-3.9025288,66.0152664,-233.5801544,22.8854961
8110,5.8897061,6.6630292,2.9855542,-24.6564884,10.4045801,1.6870229,-1.7190280,-0.8307837,-0.7637464,64.1221390,-224.6488495,4.6106873
8120,5.0780759,7.0604649,2.1356170,-22.5114498,15.1755724,-4.4503818,-3.3422885,0.2944853,0.8116302,79.7251892,-182.9847260,-9.1221371
8130,4.2209558,7.2160869,1.5179161,-24.1221371,19.4580154,-7.6106873,-6.0237808,1.0247130,0.7637464,91.9083939,-147.4198456,-15.7404585
8140,3.2489152,7.3310080,0.9600700,-28.2977104,21.3664131,-7.4427481,-8.4658537,2.6599445,-0.5339043,95.0229034,-130.3587799,-14.3511448
8150,2.5043221,7.5009956,0.7757174,-33.5114517,18.8091602,-3.3129771,-9.8473015,3.6678982,-1.6591733,84.0457993,-118.5419846,-5.2366414
8160,2.2840567,7.3645267,0.7398046,-39.0839691,14.3358774,1.9236641,-9.9310980,5.1882086,-2.0566087,64.3129807,-108.0381699,3.0763359
8170,2.4731977,7.3669209,1.4867916,-39.8091621,4.6259542,6.8931298,-10.9246864,5.5640965,-1.3670821,39.0076332,-101.1755753,13.1526718
8180,2.7605004,7.2950954,2.2218077,-33.8778610,-11.4351149,11.6183205,-10.2614956,6.6558466,0.0287303,12.2519083,-101.7709961,20.0076332
8190,3.3590479,7.2496057,2.6910689,-22.3740463,-27.7557259,16.1755733,-10.3883877,7.1394730,2.0087249,-10.4961834,-100.5114517,27.7175579
8200,3.8666160,7.2831244,2.5450234,-11.3282442,-40.6946564,18.8396950,-10.5033092,6.6558466,4.6758518,-20.7633591,-90.2824402,39.5648842
8210,4.2041965,7.2687593,2.4085546,-1.9465649,-48.2137413,20.2824421,-10.7116032,6.2631998,6.5672617,-15.9923668,-68.7404556,56.8549614
8220,4.2879934,7.4483232,2.0518203,4.7557254,-50.5114517,21.2442741,-10.1393919,5.4276276,7.2879128,-3.1832061,-37.8091621,77.1145020
8230,4.1634955,7.6278877,1.6041069,7.4809160,-49.4885483,21.0229015,-8.6095057,4.4507980,7.2041159,9.9694653,-5.2824426,93.0381699
8240,2.6934631,8.1593981,1.2497669,-11.7022905,-52.3129768,21.3587780,-7.5991573,6.1937680,9.7515335,-46.3664131,-35.8549614,76.2137375
8250,3.1770895,8.2719250,1.6519908,-13.2977095,-51.4122124,21.3435116,-7.2903070,6.3493905,11.7219515,-41.4045792,-41.3129768,80.1526718
8260,3.4476328,8.5281029,1.9847831,-12.0534353,-46.5038185,19.0076332,-7.2280579,6.1961622,12.6652622,-24.9007626,-36.7480927,87.3053436
8270,3.5362179,9.0667953,1.9177457,-10.6030531,-40.8015251,15.3358774,-6.6342988,6.2775645,12.2869806,-3.2671757,-25.0458012,96.2977066
8280,3.4907281,9.3373384,1.4939742,-13.2061071,-35.0687027,12.2748089,-5.3988972,6.0836353,10.8337069,16.5419846,-6.7557254,102.1679382
8290,3.5673423,9.5240860,1.3168042,-19.5343513,-29.8244267,9.5267172,-4.1395535,6.6031747,9.8113880,32.5648842,17.9083977,105.8167953
8300,3.6894460,9.7658987,1.4724265,-27.3282452,-27.4885502,6.3435116,-3.1172347,7.6709828,8.4874020,45.7175560,37.3969460,107.3816757
8310,3.8714044,9.9334917,1.7309990,-34.7557259,-28.1526718,1.7938931,-2.0566087,8.4921904,6.9934273,53.0687027,50.6106873,107.1984711
8320,3.8809812,10.0316534,2.1811066,-40.7709923,-29.0763359,-3.7862597,-1.0127422,9.1362267,5.6502872,51.1755714,55.3358765,98.9083939
8330,3.7516949,9.8425131,2.8969693,-43.9694672,-27.2748089,-8.4503813,0.0119709,9.8520899,4.7548604,43.5954208,47.7633591,83.5038147
8340,3.7062054,9.6414013,3.6798692,-43.6488533,-24.3816795,-11.6488552,0.3303981,10.6134415,4.2425036,33.5801544,34.0000000,62.6488533
8350,3.9049230,9.3995876,4.3550305,-39.5648842,-21.9541988,-13.7938929,-0.6512195,10.7020273,4.2185616,22.1450386,17.0381680,41.4198456
8360,3.9073172,9.3445215,4.7764082,-31.2137413,-20.7633591,-15.2519083,-1.9871773,11.0156660,4.3310885,11.4351149,-4.8702292,26.0458012
8370,4.0629396,9.2248116,5.0349803,-20.4503822,-20.4427490,-15.8702288,-3.3734128,11.3221216,4.7644372,2.5954199,-28.0916023,16.4656487
8380,4.3646073,9.2080526,4.7979555,-10.3206110,-19.5801525,-17.7022896,-3.8761928,10.9653873,5.0661049,-1.7099236,-46.9160309,14.1679392
8390,4.5345950,9.3277617,4.4579806,-1.7557251,-17.5648861,-21.2213745,-3.8690102,10.3093796,5.2289100,-0.6870229,-48.0839691,13.9694653
8400,4.4292507,9.3469152,3.8857694,3.6564887,-14.9312973,-25.3816795,-4.3861551,10.1872759,5.6191626,5.2061067,-34.3053436,16.8167934
8410,4.2161674,9.3756456,3.3638363,6.6412215,-10.4351149,-29.5496178,-5.1570840,10.2064295,5.8298512,13.9083967,-13.9160309,27.1908398
8420,3.9695661,9.3014259,3.1723011,8.5954199,-6.5038166,-32.3511467,-5.4587522,9.8209648,5.9687142,23.4122143,6.5114503,40.5267181
8430,3.7349355,9.2104464,3.1986370,11.2748089,-4.0610685,-34.0992355,-4.9009056,9.3708572,5.8921003,32.3053436,24.6106873,52.3282433
8440,3.3853838,9.0548248,3.0908985,15.6030531,-2.1755726,-34.3206100,-4.3286943,9.0811605,5.7197185,38.5267181,38.9847336,55.9160309
8450,3.0310438,8.8680773,2.6383967,18.3435116,-1.3740458,-32.7022896,-4.1706781,9.1960821,5.5808558,41.4503822,48.0228996,54.0458031
8460,3.0980811,8.7603388,2.4396791,19.7404575,-0.5114504,-30.2137413,-4.2185616,9.3684635,5.6550756,40.9160309,48.4503822,47.0305328
8470,3.1124463,8.7579451,2.2002602,22.6335869,1.2748091,-28.3969460,-4.8817525,10.2423429,6.1243367,33.7022896,17.4732819,25.9083977
8480,3.0142846,8.7747040,1.9105632,22.7786255,3.2900763,-28.5648861,-5.0541339,10.7762470,6.1650376,30.9618320,-0.2061069,20.0229015
8490,2.8658447,8.8848372,1.5011568,21.0687027,3.8167939,-28.5648861,-4.9440012,11.4322548,5.8705525,27.6717548,-13.0687027,17.0305347
8500,2.7844424,8.9949694,1.2497669,17.9770985,4.4885497,-29.1755733,-4.8865409,11.1832590,5.5281835,24.4580154,-21.6106873,18.4503822
8510,2.6743097,9.1266499,1.2066715,13.4580154,4.7251906,-30.4885502,-4.3933377,10.3764172,5.4491754,26.3740463,-21.9312973,20.7633591
8520,2.4420733,9.2272062,1.2617378,9.2900763,6.4122138,-32.0381660,-4.0820932,9.7611103,5.2480631,32.4351158,-7.6641221,21.7328243
8530,2.2768741,9.3157911,1.3239868,5.2137403,8.5038166,-32.9083977,-4.2113791,9.0476418,5.2696109,42.8320618,13.7480917,26.4961834
8540,2.3223639,10.7499104,2.5186872,27.2213745,11.9236641,-18.6259537,-5.7987270,5.1906028,2.3774302,42.1755714,68.9465637,34.6870232
8550,2.3606708,11.1641054,2.4181314,25.8167934,18.3435116,-17.5496178,-5.7580256,4.7572546,2.7916248,32.8320618,52.7786255,31.3740463
8560,2.0805507,11.6094246,2.0470319,23.2519093,23.7404575,-16.8473282,-5.5257893,4.4603748,3.0358322,25.1679382,35.2977104,28.2366409
8570,2.1643472,11.6620970,2.2601149,21.8931293,24.0381680,-16.1755733,-4.9607606,4.2041965,3.1076579,19.4732819,24.4122143,24.3816795
8580,2.0039365,11.5735121,2.2577207,20.2061062,23.6870232,-15.5190840,-4.4340386,4.1084290,3.0621684,15.5572519,21.2824421,21.4045811
8590,1.6879035,11.3819771,2.5833304,19.2595425,22.8396950,-12.9389315,-3.9935081,4.2329268,2.9783716,12.7328243,22.8854961,21.5877857
8600,1.4867916,10.5320396,3.1315999,32.8931313,14.9236641,-3.4427481,-1.5274929,5.1068063,2.1212518,-0.4961832,29.8473282,22.2748089
8610,1.4077834,10.0723553,2.3151813,36.2824440,7.3206105,3.9541984,-0.1484398,6.6414814,2.0422437,-19.4732819,15.7328243,7.2671757
8620,1.7070571,9.6892843,2.2792683,36.2137413,4.2595420,6.4274807,0.6967092,7.3453732,1.9680238,-30.7938938,1.3740458,-4.7709923
8630,3.3111639,8.2407999,2.5019281,37.6564903,23.7633591,-3.6870229,1.8818330,11.7123747,5.4850879,-53.2442741,-51.4045792,-79.8778610
8640,2.9280937,7.8888540,2.0805507,36.4351158,31.6030540,-8.1755724,1.1252691,12.5503407,6.6390872,-42.3206100,-57.7709923,-95.1374054
8650,2.5426292,7.5967631,1.7477583,33.7175560,36.6870232,-10.4427481,0.7182568,13.4457684,7.1777802,-23.9389305,-55.6717567,-106.6946564
8660,2.0781565,7.3022780,1.3910241,29.8396950,39.0000000,-9.6946564,0.1053443,14.5399122,7.2615767,-0.1679389,-43.2595406,-114.7099228
8670,1.9345051,6.9910331,1.2425843,26.0152664,39.0381660,-7.4961834,-0.2777260,15.5167418,6.1698260,25.0305347,-19.8473282,-117.7557220
8680,2.0757623,6.7492199,1.1947005,22.6259537,37.9694672,-5.3129773,-0.3303981,16.7425671,4.0916696,49.0916023,13.1679392,-118.3664093
8690,2.3103929,6.5481081,1.3072275,22.3587780,35.6488533,-4.0152674,-0.4285599,18.2365417,1.9440818,65.6793900,58.6259537,-115.4122162
8700,2.5186872,6.5098009,1.0773853,22.8854961,32.4198456,-3.4732823,-0.9648584,19.6126022,0.2106887,73.7175598,103.9007645,-109.8091583
8710,2.6551561,6.5816269,0.7805058,22.0458012,29.3816795,-3.2977099,-2.1858950,19.6126022,-0.8619082,74.6641235,138.6106873,-101.0687027
8720,2.6695213,6.7587967,0.4812321,19.7709923,26.7786255,-3.5419848,-3.1986370,19.6126022,-2.0997043,70.2290039,155.9007568,-91.1603088
8730,2.7437410,7.0365229,0.0550664,16.1221371,25.1908398,-3.7328243,-3.5601597,19.6126022,-3.9695661,57.4274826,152.3206177,-84.3969498
8740,2.5976956,7.4890246,-0.2992737,10.1755724,26.0687027,-3.6335878,-2.3702476,19.6126022,-5.9687142,31.9923668,134.9236603,-83.5801544
8750,2.3439114,7.9630742,-0.5362985,2.7557251,25.6564884,-2.2519083,-0.6679789,19.6126022,-6.7348547,-0.9312977,114.5267181,-89.9770966
8760,2.3822186,8.4251528,-0.5219333,-4.5572519,22.4122143,-0.7022901,0.3782819,19.2780132,-6.4714942,-31.7862587,101.6335907,-100.2137375
8770,2.3056045,9.0811605,-0.4118006,-9.9083967,15.9236641,0.4580153,1.0342898,16.9125538,-5.4635406,-54.2137413,96.6793900,-114.5877838
8780,2.3103929,9.6150646,-0.2274480,-14.0763359,7.0000000,1.7099236,1.0510491,13.8910875,-4.8266859,-67.4122162,104.1526718,-130.4274750
8790,2.4995339,10.0627785,-0.1053443,-18.3587780,-2.5877862,2.9007633,1.0007712,10.1537571,-4.8506279,-72.8549652,117.5877838,-146.2061005
8800,2.7796540,10.5799236,0.2082945,-22.0839691,-11.0305347,3.9694657,1.1707586,5.7819676,-5.5233951,-74.7099228,132.2290039,-163.9847260
8810,3.1818779,10.9821472,0.7182568,-24.9465656,-14.4885492,4.7175574,0.8259954,0.5650287,-6.5672617,-73.4809189,152.7786255,-185.4732819
8820,3.4500270,11.2909975,1.2018831,-27.0534344,-14.6641226,4.5419846,-0.8978211,-5.0948353,-7.9151902,-72.4503784,173.3435059,-207.5801544
