timestamp,rxacclX,rxacclY,rxacclZ,rxgyroX,rxgyroY,rxgyroZ,txacclX,txacclY,txacclZ,txgyroX,txgyroY,txgyroZ
0,3.4045374,-1.4053892,9.7850523,8.5419846,4.7099237,-0.4732825,-4.7811961,2.1284344,8.8920193,2.5114503,-2.0839694,-1.1908396
10,3.4619980,-1.3263810,9.7204094,10.3893127,7.1145039,0.5572519,-4.6614871,2.1380112,8.8513184,2.4198472,-1.7328244,-1.4503816
20,3.4619980,-1.4436963,9.4402885,12.3740454,10.0305347,1.8015267,-4.7740140,2.1667414,8.9159613,2.0534351,-2.3053436,-1.7557251
30,3.4859397,-1.4029950,9.1266499,12.9770994,13.0305347,3.5038168,-4.8673873,2.1116750,8.9279327,1.5877863,-4.9389315,-2.0152671
40,3.5290353,-1.3383518,8.7411861,11.0687027,17.0229015,5.5648856,-4.8027439,2.1451938,8.6765423,0.8778626,-6.0534353,-2.8320611
50,3.5074875,-1.3359578,8.2719250,6.3358779,19.4732819,7.2595420,-4.8099265,2.0925217,8.7196379,-0.6488550,-4.5190840,-2.7862597
60,3.3422885,-1.1994889,7.7739329,-24.3893127,10.8702288,9.3206110,-4.9583664,1.9440818,8.9877872,-2.7938931,-7.7022901,-1.9541985
70,3.2082138,-1.2330076,7.9630742,-31.1068707,8.2595415,10.2061071,-4.8769641,1.8961980,9.1338329,-2.4809160,-6.9847326,-1.3816794
80,3.1723011,-1.5274929,7.8792777,-36.9312973,7.8931298,12.9083967,-4.8865409,1.7621235,9.0189114,-1.9694656,-6.8473282,-1.2748091
90,2.8945751,-1.8459201,7.6614060,-44.3969460,6.7938933,17.9312973,-4.8003497,1.8028246,9.2104464,-1.4809160,-7.2442746,-1.9541985
100,2.5569944,-2.1451938,7.5584559,-55.2900772,7.0152674,25.6412220,-4.7189474,1.8890154,9.1697454,-1.2519084,-6.8244276,-2.3893130
110,3.3782012,-1.9656296,10.2351599,-56.0228996,-22.6641216,57.6106873,-4.9224534,1.9177457,9.2439651,3.7862597,-1.5572519,-0.3511450
120,4.3215117,-1.7812769,10.4745789,-48.7557259,-31.2977104,52.6030540,-4.9056940,1.9249283,9.1386213,4.4351144,-0.4198473,0.1603053
130,4.8673873,-1.8985922,10.2998028,-43.1450386,-32.7938919,43.1832047,-4.8482337,1.9081690,8.9494801,4.8702292,0.5190840,0.7328244
140,4.8889351,-1.7956421,10.1753054,-41.1908379,-32.2977104,33.2977104,-4.7476778,1.8770446,9.0236998,4.8549619,0.8854962,0.6259542
150,4.7692256,-1.8554969,10.2016411,-39.5267181,-30.8091602,25.3816795,-4.6734576,1.9584470,8.8680773,4.4045801,1.1145039,-0.0916031
160,4.7692256,-2.2265961,10.0675669,-37.0839691,-27.3664131,19.1603050,-4.7500720,2.0350611,9.0596132,4.6335878,0.7480916,-0.5190840
170,4.6327567,-2.4324965,9.7323799,-34.7862587,-24.7633591,13.8854961,-4.7620430,2.0111191,9.1170731,5.1145039,1.0763359,-0.2977099
180,4.3215117,-2.5067163,9.2152348,-35.5725174,-24.3435116,10.3053436,-4.8362627,2.0350611,9.2224178,6.4809160,1.8625954,-0.4656489
190,4.3263001,-2.4851687,8.9303265,-38.6793900,-23.3129768,8.1679392,-5.0182209,2.0278785,9.3014259,7.9618320,2.6870229,0.1908397
200,4.3957319,-2.6048782,8.8345594,-43.4732819,-20.8396950,5.5190840,-5.1115947,2.1092808,9.1553802,9.4809160,3.3282442,0.7480916
210,4.3957319,-2.6934631,9.0715837,-48.0534363,-18.0305347,1.9694656,-5.1068063,2.1092808,8.9686337,9.9618320,3.4885497,2.1908398
220,4.2305326,-2.9017577,9.7706871,-46.3053436,-17.7404575,-4.7404580,-4.9392128,2.0326669,8.8632889,10.5954199,3.1908398,3.9923663
230,4.1323709,-2.9807658,9.9813757,-40.6335869,-18.5038166,-7.8244276,-5.0110383,2.1739240,8.7220325,10.2442751,3.2519083,4.4732823
240,3.8426740,-3.3877780,9.7730818,-30.0305347,-16.7709923,-10.4885492,-4.9248476,2.2601149,8.5783806,6.8702292,0.1221374,3.2595420
250,3.7062054,-3.4212968,9.5671806,-26.2671757,-16.7862587,-10.3358774,-4.8865409,2.3343346,8.7986460,5.3740458,-1.0000000,3.4580152
260,3.6559272,-3.4045374,9.5839405,-23.5648861,-16.0839691,-8.9770994,-5.0158267,2.2433555,8.5783806,3.6793892,-1.8549619,3.2595420
270,3.7349355,-3.3853838,9.3277617,-21.1603050,-12.9847326,-8.3893127,-5.1331420,2.2792683,8.6166878,2.5801528,-3.7022901,3.7938931
280,3.0693510,-3.3997490,8.8106174,-14.5038166,-11.2595415,15.3893127,-5.2648225,2.4851687,8.3509331,-3.4045801,-0.3358779,13.3740454
290,3.2010312,-3.3997490,8.7100611,-14.0381680,-11.8931293,19.1526718,-5.1834202,2.6886747,8.0636301,-6.1068702,5.6183205,16.0152664
300,3.2225790,-3.2944047,8.6118994,-15.0458012,-10.4809160,22.7328243,-5.2456689,2.7868366,7.0700417,-9.0763359,26.6641216,20.0000000
310,3.0238612,-3.3805954,8.5041609,-17.0000000,-8.7328243,26.3282452,-5.7891502,3.0861101,6.5121951,-14.9312973,40.7099228,28.9541988
320,2.8826041,-3.4548154,8.5759869,-19.1450386,-7.5190840,30.5572510,-6.6342988,3.2106080,5.7173243,-26.4503822,56.7328262,39.7022896
330,2.5522060,-3.5912843,8.6023226,-20.3206100,-5.4809160,36.4580154,-7.4219875,3.3111639,5.6287394,-42.5343513,65.8778610,52.4656487
340,2.5210814,-3.7780309,8.7268209,-20.2137413,-3.7786260,43.2824440,-7.5919747,2.9376705,6.7324610,-59.3664131,53.2366409,63.8091621
350,2.6527619,-3.6894460,8.8968077,-18.7175579,-4.7557254,50.2290077,-6.8856888,2.3965836,8.1737623,-72.9618301,37.6412201,68.4885483
360,3.1890604,-3.5888901,9.0907373,-14.8396950,-7.1755724,55.2519073,-5.4731169,1.9033806,9.7850523,-75.0534363,28.6641216,70.6106873
370,3.6343796,-3.6032550,9.1074963,-9.6564884,-8.3358774,56.6183205,-4.0102673,1.4532729,11.2622671,-67.5725174,30.4045811,67.6793900
380,3.8330972,-3.6176202,8.9111729,-5.7175574,-10.8320608,55.8702278,-3.6511390,1.2282192,12.4856977,-50.1221390,41.4732819,59.8473282
390,4.0006905,-3.6367738,8.7699156,-3.3053436,-13.8167934,54.0305328,-4.0366035,1.3000449,12.7251167,-24.4198475,52.6641235,52.6183205
400,4.1922259,-3.7947903,8.7579451,-2.1068702,-15.9083967,52.2671738,-4.4484038,1.3958124,11.6190014,-0.3511450,56.8625946,45.8015251
410,4.3670015,-3.8139439,9.0117292,-0.5877863,-16.4274807,50.6183205,-4.5489597,1.5538290,10.2255831,11.8625956,52.2366409,37.3129768
420,4.5992379,-3.8929520,9.0620070,1.1832061,-14.7557249,46.8702278,-4.8051381,1.7238164,8.9566631,15.0916033,49.1908379,28.4427490
430,4.6543045,-3.9336534,9.1601686,2.8015268,-11.2519083,42.6335869,-5.2576399,2.2696917,8.0851774,13.4427481,51.6106873,23.9923668
440,4.5633249,-4.1634955,9.2655134,7.2748094,-5.2137403,35.5725174,-7.0748301,2.5258698,7.8146343,4.9618320,61.5572510,28.1526718
450,4.5776901,-4.1850433,8.7507620,21.2748089,-2.4122138,26.9083977,-9.3828287,3.1938488,9.2415714,19.8167934,71.7938919,75.3129807
460,4.6758518,-4.0366035,8.4131813,22.6412220,-2.0534351,24.5343513,-10.1393919,3.5984666,9.3780403,28.6335869,59.3282433,85.5267181
470,4.7620430,-3.9839313,8.1593981,22.9847336,-2.1908398,21.9465656,-9.3373384,3.8642218,8.7172441,33.5648842,50.3206100,93.6335907
480,4.8003497,-4.0030847,8.0037756,22.9618320,-3.3969467,17.6030540,-8.3748751,3.9336534,8.1929159,33.0305328,50.0534363,98.0839691
490,4.9344244,-3.9719603,7.6494355,19.8473282,-1.7099236,13.4351149,-7.5129666,4.6710634,8.0277176,29.2671757,49.2824440,99.1450348
500,4.8985114,-3.7493007,7.5129666,13.5954199,1.5648855,8.8778629,-7.1418672,4.7213416,7.7978749,26.9541988,46.2824440,97.1908417
510,4.7189474,-3.6678982,7.5536675,7.5267177,4.3740458,4.9389315,-6.7013364,4.7452836,7.3645267,26.4656487,44.1374054,92.1526718
520,4.5465660,-3.7038112,7.8050575,3.1374047,5.7862597,1.4427481,-6.3565731,5.4060798,6.2512288,22.7633591,48.2290077,84.6564865
530,4.3813667,-3.8785870,7.9822278,1.2671756,6.4274807,-1.4961832,-6.1578555,5.4874821,5.5760674,18.1297703,52.7862587,77.1984711
540,4.1994085,-3.9288650,7.9199786,0.8931298,5.1450381,-3.5572519,-6.4691000,5.8011212,5.7269011,12.1221371,57.2519073,73.4427490
550,3.9504125,-3.9647777,8.0013809,0.5190840,2.8473282,-4.6870227,-7.0915890,5.8298512,6.5624733,10.1832066,60.1221390,74.9694672
560,3.8378856,-4.1108232,7.9511032,-0.5572519,1.1221374,-4.5419846,-7.1179252,5.8059096,6.9000540,9.8778629,62.5572510,77.0076370
570,3.6870518,-4.0557570,7.8768835,-2.2366412,-1.5343511,-4.3893127,-7.1682034,5.6047974,7.1275020,11.3893127,63.2671738,76.9465637
580,3.5697365,-3.9935081,7.9965930,-4.0076337,-5.0381680,-4.1526718,-7.1538382,5.5210009,6.5337429,11.7099237,59.5496178,74.6793900
590,3.6391680,-4.0749106,8.4850073,-10.4656487,-4.4580154,-4.2442746,-7.6111283,5.8490047,4.5393834,-14.2290077,34.4198456,64.6412201
600,3.5864959,-4.1036406,8.6573887,-10.4885492,-3.4580152,-3.4809160,-8.0564480,6.1626434,4.6854286,-21.2748089,33.6564903,66.9389343
610,3.3877780,-4.0485744,8.8106174,-8.8625956,-4.1832061,-2.4198472,-8.0684185,6.3039007,4.8218975,-23.8320618,40.4427490,71.1832047
620,3.6032550,-4.1467361,8.8489246,-6.2671757,-5.4961834,-1.6793894,-8.5616217,6.3230543,5.0182209,-19.2824421,71.3053436,82.0000000
630,3.7564833,-4.2113791,8.7196379,-4.2290077,-5.3358779,-1.1984733,-7.8912482,6.0908179,4.8458395,-18.0687027,84.7404556,94.3740463
640,3.7636659,-4.0222383,8.6095057,-3.8091602,-5.4427481,-1.1603054,-7.0341287,5.8777351,4.4747400,-26.6641216,74.9007645,96.7786255
650,3.8091555,-3.9504125,8.7028790,-3.7404580,-6.0229006,-1.6564885,-6.7300668,5.9543490,5.0230093,-34.1984749,51.9923668,90.5114517
660,3.9982965,-3.9408360,8.7124557,-3.0916030,-5.4122138,-3.0916030,-7.5033898,5.8561873,5.4084740,-36.5343513,33.9236641,82.4809189
670,3.9695661,-4.0868812,8.7340031,-2.8854961,-2.4503818,-4.5343513,-7.8266053,6.1794028,5.3198891,-37.8931313,31.0534344,88.3129807
680,3.8354914,-4.0246325,8.6909075,-3.2137403,-0.6335878,-4.9923663,-7.4962072,6.0070214,5.4252334,-41.3206100,41.0763359,99.8244247
690,3.8618276,-4.0389977,8.7435799,-2.2748091,-0.0763359,-4.9847326,-7.2160869,5.5545197,5.7364779,-44.7404594,56.1832047,110.0839691
700,3.9887197,-4.0222383,8.8273764,0.0839695,-0.2213740,-5.5877862,-7.1107426,4.9392128,6.3398137,-44.8931313,65.9389343,117.7022934
710,4.0246325,-4.0150557,8.8225880,2.5267177,0.4656489,-6.2290077,-6.9335728,4.6423335,6.7947097,-42.0305328,66.9083939,118.8320618
720,3.9049230,-3.9240766,8.4706421,3.8320611,0.6946565,-6.5877862,-6.7109132,4.0246325,7.4722652,-39.3435097,63.1297722,119.9312973
730,3.8067613,-3.8761928,8.2407999,3.3816793,-0.3969466,-6.4580154,-5.8777351,3.3375001,8.7172441,-37.8854980,51.6106873,116.9312973
740,3.8642218,-3.9384418,8.1402445,2.4580152,-0.4885496,-6.1832061,-5.2336984,2.4564383,11.1377697,-34.2213745,12.6259546,94.4503784
750,3.7157819,-3.9911139,7.9391322,0.3511450,-1.4732825,-5.3282442,-4.4077029,2.0685797,12.0906563,-31.9160309,-48.1068687,67.0381699
760,3.6152260,-3.7516949,7.8673067,-2.3129771,-4.1526718,-4.4427481,-3.4476328,1.5346755,12.3444405,-35.8320618,-96.7862625,42.5343513
770,3.5673423,-3.6415622,8.0732069,-4.7938933,-7.7022901,-3.7251909,-5.5305777,1.6304430,14.2789459,-35.7480927,-112.4809189,46.1374054
780,3.6104376,-3.7516949,8.3150196,-5.4885497,-7.9847326,-3.1297710,-5.5664907,0.0000000,16.3810444,-4.5572519,-64.6564865,80.7404556
790,3.4619980,-3.8354914,8.4850073,-5.7862597,-6.7022901,-1.9083970,-3.8737986,-2.2912393,18.3011837,53.4122124,44.2671738,102.1908417
800,3.4356618,-3.8019729,8.4107876,-6.0305343,-6.5801525,-0.1145038,-4.3502421,-3.3135581,19.1918221,118.7709961,167.0076294,110.7404556
810,3.4548154,-3.8522508,8.4706421,-5.5343513,-7.2290077,1.9618320,-6.9742737,-2.9256995,18.9308567,171.9160309,250.1297760,123.7328262
820,3.5697365,-3.9623835,8.5448618,-4.5725193,-6.8320613,3.2671757,-9.6940727,-1.9488702,17.4799767,199.5267181,250.1297760,142.1603088
830,3.6343796,-3.9480183,8.5807753,-4.1068702,-6.0000000,4.2442746,-10.6373835,-1.4891858,16.1416245,206.7938995,250.1297760,161.4122162
840,3.7397239,-3.8594334,8.6430235,-3.5114503,-6.4961834,4.4045801,-9.7036495,-1.6974803,14.8703108,204.6870270,206.4122162,174.5877838
850,3.9719603,-3.9360476,8.5616217,-2.3969467,-7.3282442,3.9770992,-8.0971489,-1.6376256,13.9054527,208.2213745,173.6106873,179.7557220
860,4.0222383,-3.9839313,8.4538832,-2.0381680,-8.0305347,3.3435113,-6.6893654,-1.2689204,12.5144281,218.7328186,167.1908417,180.9007568
870,4.0198441,-3.9887197,8.4993725,-2.5038168,-8.1908398,2.5877862,-5.4922705,-0.6679789,10.6756907,228.4427490,167.5954132,179.6030579
880,4.1251884,-4.0437860,8.5544386,-2.6030533,-7.4961834,1.6335878,-5.2456689,-0.1651991,9.1362267,234.4351196,168.0305328,176.9694672
890,4.1874375,-4.2832050,8.5927458,-2.1297710,-6.4427481,1.1068702,-5.0828643,0.5578461,7.4459291,237.8167877,163.1068726,175.7480927
900,4.1395535,-4.1994085,8.6549950,-1.4198474,-5.3816795,1.1145039,-4.3430595,0.9433106,5.5760674,236.6946564,149.5419922,172.0305328
910,4.1802549,-4.2113791,8.5903521,-0.4503817,-5.4885497,0.6488550,-3.4619980,1.2042773,3.9647777,231.3893127,127.6717529,163.2137451
920,4.2425036,-4.0246325,8.5831690,1.1145039,-6.0534353,-0.5877863,-2.4755919,1.5753766,2.4540441,224.4427490,99.7862625,149.8473358
930,4.2712340,-4.0701222,8.3796635,2.3893130,-4.7022901,-1.3664122,-2.5186872,2.4947455,1.2090657,217.5267181,76.8854980,137.8396912
940,4.2113791,-4.1275826,8.3796635,2.5038168,-3.1297710,-1.7404580,-2.5450234,3.3063757,-0.2226596,211.2442780,56.5801544,131.2137451
950,4.2592630,-4.0940638,8.2000990,2.2061069,-2.0610688,-1.9694656,-2.1236460,3.9456241,-1.9177457,202.8244324,38.0381660,128.3206177
960,4.2113791,-4.1012464,8.2168579,2.2671757,-1.2519084,-2.6488550,-1.4269369,4.6088147,-3.6080434,193.7557220,31.0763359,127.3816757
970,4.3095412,-4.0725164,8.2288294,1.9160305,-0.4122137,-3.5496182,-0.9504932,5.3438311,-4.8697815,186.2671814,39.7709923,129.9007568
980,4.2568688,-4.1180058,8.1522150,1.6335878,1.7099236,-3.9312978,-0.5339043,6.1099715,-6.2560172,180.1068726,58.2900772,135.2213745
990,4.3047528,-4.0916696,8.1378498,1.9236641,1.8854961,-4.6412215,0.2753318,6.8138633,-7.5321202,172.3282471,64.8549652,141.9770966
1000,4.2951760,-4.0725164,8.1689749,2.4809160,2.4732823,-5.8244276,1.5514348,7.4962072,-9.3373384,156.9160309,52.0381660,144.5648804
1010,4.3047528,-4.1180058,7.9319496,2.4656489,3.0839694,-6.7099237,3.1292057,8.0037756,-11.5280218,129.7633514,33.0152664,142.9465637
1020,4.0796990,-4.0533628,7.8936424,0.6870229,3.3587787,-6.8091602,4.5537481,8.4993725,-12.6580801,94.2442780,17.5114498,138.3740387
1030,3.9144998,-3.9719603,7.6566176,-1.3816794,1.9694656,-6.3740458,5.5210009,8.7986460,-12.9645357,63.3129768,6.4961834,132.9313049
1040,3.9121056,-3.9935081,7.8601241,-3.1145039,-0.6488550,-5.5801525,6.4691000,9.0500364,-12.7777891,37.7709923,6.4351144,129.2061005
1050,3.8642218,-4.0174499,7.8912482,-4.5877862,-3.2748091,-4.7022901,8.3030491,9.5599985,-12.3851423,21.2824421,12.5419846,125.7328262
1060,3.8283088,-3.9695661,7.9534974,-5.5114503,-5.5648856,-3.9541984,9.9095497,9.3062143,-12.6580801,4.8396945,29.0076332,119.4885483
1070,3.8522508,-3.9049230,8.1665802,-6.3893127,-6.6183205,-3.3358779,10.7499104,9.7395630,-11.9350348,-7.3664122,45.0839691,112.2900772
1080,3.8737986,-3.9097114,8.3365679,-7.2213740,-7.0992365,-2.5114503,11.9374285,9.8520899,-11.6668854,-21.4274807,58.3282433,102.9923630
1090,3.8953462,-3.8953462,8.3724804,-7.7328243,-7.6793895,-1.9312977,12.8208847,9.5671806,-11.1449518,-34.4274826,69.9770966,90.1450348
1100,3.9959023,-3.8977404,8.5113440,-7.3358779,-8.2900763,-1.8244275,13.8001080,9.5073261,-10.5176744,-45.8396950,79.5343475,72.6106873
1110,4.0964580,-3.9623835,8.5951405,-6.2900763,-8.4122133,-2.4503818,14.3340120,9.4139528,-9.7874460,-54.2366409,81.1984711,48.2137413
1120,4.0677280,-3.9575951,8.5903521,-5.0000000,-7.7328243,-3.2671757,14.2957048,9.3540983,-9.1912937,-62.1145020,73.4045792,20.5801525
1130,4.1108232,-4.0725164,8.5376797,-4.8244276,-6.7328243,-3.8778627,14.1017761,9.0979195,-8.5999289,-70.5877838,60.6717567,-11.5725193
1140,4.0677280,-4.1060348,8.5544386,-4.9389315,-5.0381680,-3.7862597,13.4361916,8.7938576,-7.9175844,-79.3358765,43.8015251,-43.8015251
1150,4.1108232,-4.1395535,8.6980906,-4.9007635,-3.4961832,-3.7709923,12.0667152,8.7411861,-7.3717093,-88.1908417,26.6717548,-76.0687027
1160,4.1467361,-4.2233500,8.6933022,-3.5801528,-2.3129771,-3.7557251,10.3189564,8.5281029,-6.6726060,-97.3816757,12.0000000,-101.0839691
1170,4.1658897,-4.1802549,8.7507620,-1.7022901,-1.1908396,-3.9770992,9.0572186,8.3126259,-5.9232249,-105.0076370,5.1679387,-120.7633591
1180,4.1682839,-4.2568688,8.6645718,0.0839695,-1.0381680,-3.9236641,7.7691450,7.9343438,-5.1475072,-109.2671738,3.9389312,-137.0915985
1190,4.1706781,-4.1634955,8.4945841,1.2824427,-1.5343511,-4.2977099,6.1889796,7.8912482,-4.7859845,-109.9694672,11.3129768,-148.1603088
1200,4.2113791,-4.0749106,8.3916340,1.9083970,-1.7862595,-4.5801525,4.8147149,7.5776095,-4.4962878,-109.3664093,19.3893127,-155.4427490
1210,4.2209558,-4.0246325,8.4969788,2.2137403,-0.4045801,-5.2977099,3.0501974,7.5416965,-4.3957319,-109.7328262,28.9160309,-157.9541931
1220,4.1611013,-3.9887197,8.4993725,2.8778627,1.5496184,-5.3664122,1.0654143,7.3357964,-4.1658897,-111.1374054,43.7022896,-155.7099304
1230,4.0820932,-4.0342093,8.2910776,3.5038168,2.1450381,-4.9083967,-0.5027798,7.3310080,-3.9743545,-113.2290039,58.4656487,-147.7709961
1240,3.9647777,-3.8833754,8.1617918,4.1450381,1.9541985,-3.9923663,-1.6615674,7.2615767,-3.4165084,-115.8015289,67.6488571,-139.2061005
1250,4.0749106,-3.8809812,8.0229292,3.7022901,0.1984733,-2.9770992,-2.3175755,6.9359670,-2.9352763,-118.8778610,70.7022934,-132.3206177
1260,4.0940638,-3.8474624,7.8792777,2.5038168,-1.0534351,-1.9770992,-2.7485294,6.4307928,-2.2242019,-122.3969498,73.5114517,-128.6335907
1270,3.9575951,-3.8307030,7.7523856,-0.0458015,-2.7099237,-1.2900764,-3.7445123,6.2751703,-1.3359578,-124.9694672,74.9923630,-126.5343475
1280,3.9719603,-3.6894460,7.8457589,-2.8778627,-4.2366414,0.2366412,-5.0110383,6.0118098,-0.2705434,-125.3893127,71.9847336,-123.3053436
1290,3.9312592,-3.7852135,7.9726510,-4.3511453,-5.5267177,2.0152671,-6.0285692,6.1171541,0.7637464,-125.0839691,62.9236641,-117.7786255
1300,3.9623835,-3.7301471,8.1713686,-5.0229006,-7.0916033,3.3587787,-6.6462698,6.2655940,1.6543850,-123.6335907,54.2595406,-111.4656525
1310,4.0461802,-3.7493007,8.2144642,-4.5648856,-7.3664122,3.8015268,-7.2256637,6.2967181,2.4708035,-121.1068726,42.5114517,-104.6793900
1320,4.0701222,-3.7516949,8.3868456,-4.0076337,-7.5954199,3.9770992,-7.7428088,6.2129216,2.9185169,-119.3206100,36.0305328,-98.3816757
1330,4.1060348,-3.7660601,8.3222027,-4.0458016,-6.9770994,4.3816795,-8.3174143,6.1985564,3.4332676,-113.4198456,41.9465637,-93.0992355
1340,4.0437860,-3.8666160,8.3126259,-4.0229006,-7.7022901,4.4274807,-9.6581602,6.1123657,4.3454537,-104.3282471,50.6106873,-80.3511429
1350,3.9959023,-3.9049230,8.2838955,-3.8015268,-7.0152674,5.1450381,-10.1776991,6.0764527,4.7955613,-95.1221390,57.9389305,-64.9847336
1360,4.0844874,-4.0629396,8.3317795,-4.4045801,-6.4503818,6.7633586,-11.0300312,6.0501165,5.5018473,-87.5343475,68.7175598,-50.8167953
1370,4.2089849,-4.0964580,8.4251528,-4.3435116,-6.0687022,7.4732823,-12.4210548,6.1602492,6.0884237,-79.3358765,80.2442780,-34.1450386
1380,4.3095412,-4.1754665,8.5113440,-3.5877862,-6.3053436,6.7328243,-13.7857428,6.2655940,6.8569584,-68.6183243,87.4809189,-14.5419846
1390,4.3646073,-4.1539187,8.6430235,-2.1145039,-5.6106873,6.5038166,-14.8966465,6.3254485,7.3788919,-55.9465637,89.2748108,6.6564884
1400,4.4531922,-4.1563129,8.5855637,-1.2671756,-4.0610685,6.6412215,-15.7130651,6.4499464,7.8361821,-43.4961815,82.8396912,27.4961834
1410,4.5106530,-4.2065907,8.6310530,0.0229008,-3.0610688,5.5343513,-15.9261484,6.4619174,8.2958660,-32.1450386,68.3664093,47.8702278
1420,4.5872669,-4.2353210,8.5424681,1.4274809,-2.5954199,4.3129773,-15.5646257,6.3254485,8.4036045,-21.8167934,52.7328262,66.0916061
1430,4.6159973,-4.1395535,8.3772688,3.0687022,-2.1450381,3.2824428,-15.0594521,6.2416520,8.6597834,-10.9694653,40.1755714,82.2595444
1440,4.6064205,-4.2592630,8.2575598,3.5419848,-1.6183206,2.8778627,-14.4465389,6.0381460,8.7962523,1.2671756,27.5954189,96.9847336
1450,4.6088147,-4.2401094,8.1737623,3.5725191,-1.5877863,2.6641221,-13.5247765,5.9280128,8.7747040,13.8473282,12.5954199,108.8473282
1460,4.7093706,-4.1395535,8.1593981,3.2137403,-1.4885496,1.5190840,-12.6461086,5.8298512,8.5711985,25.5954189,-3.4885497,120.8473282
1470,4.7452836,-4.0796990,8.1665802,2.8778627,-2.0839694,-0.0305344,-11.4035244,5.6263452,8.1857338,37.5572510,-15.0839691,132.3206177
1480,4.7428894,-3.9863255,8.2288294,3.1908398,-1.8015267,-1.7633588,-10.3189564,5.4228392,7.7308378,51.1068687,-20.8778629,141.6564941
1490,4.7093706,-4.0006905,8.1761570,3.4885497,-0.6106870,-3.4427481,-9.1793222,5.3725610,7.2232695,67.1297684,-29.4885502,148.8015289
1500,4.5752959,-3.9336534,8.0756006,4.1297708,0.9618320,-4.7022901,-7.7164726,5.3414369,6.0740585,80.9923630,-39.2519073,153.2290039
1510,4.5058646,-3.9264708,7.9606800,3.6564887,3.0839694,-4.6946564,-6.7348547,5.4012914,5.0134325,90.9312973,-49.0076332,155.6106873
1520,4.3191175,-3.9312592,7.7930865,3.0076337,4.7480917,-4.3129773,-5.7292953,5.5377603,3.6870518,100.6564865,-56.8854980,158.7251892
1530,4.1012464,-3.9839313,7.8409705,1.9007634,5.0992365,-3.2442749,-4.3861551,5.6646523,2.4875629,108.2748108,-61.1832047,161.3587799
1540,4.0629396,-3.9623835,7.6805596,0.6870229,4.1068702,-1.8320611,-3.0885043,5.7460546,1.1563935,114.2824402,-63.9541969,161.7404633
1550,4.1706781,-3.9025288,7.7763271,0.1221374,2.7709923,-0.5419847,-2.0159075,6.1458845,-0.2992737,117.2061081,-66.3206100,160.0458069
1560,4.0796990,-3.8642218,7.7356262,-1.2748091,1.8320611,0.0229008,-0.9959828,6.5337429,-1.7070571,118.5038147,-70.8702316,160.6335907
1570,4.0318151,-3.8139439,7.7547798,-3.0076337,1.1145039,0.8167939,0.4213773,6.9000540,-3.5122759,114.8091583,-75.7709961,162.6641235
1580,3.9743545,-3.9073172,7.8194227,-4.7938933,1.5114504,1.7404580,2.5330524,7.2903070,-5.3318601,106.5496216,-73.3282471,163.0229034
1590,3.9384418,-3.9001346,7.9080076,-6.2442746,1.1221374,2.6870229,4.4891052,7.4555058,-6.7899213,93.8396912,-67.4351120,158.9923706
1600,3.9360476,-3.9982965,7.9798336,-7.2137403,-0.6259542,4.3435116,6.5959921,7.8577299,-8.2120695,77.3740463,-63.0763359,152.5343475
1610,4.0342093,-4.0773048,8.2886839,-7.1374044,-2.9618320,5.6183205,8.3150196,8.4490948,-9.1697454,57.7175560,-53.0610695,144.5572510
1620,4.1658897,-4.1251884,8.3150196,-7.0992365,-4.9312978,6.3053436,9.4498653,8.9135675,-9.9334917,35.9007645,-43.9541969,136.7557220
1630,4.3143296,-4.0916696,8.4682484,-6.6183205,-5.2290077,5.8396945,10.6613255,9.1505919,-10.0220766,14.8702288,-39.6717567,130.7633514
1640,4.4244623,-4.1251884,8.5496502,-6.0458016,-4.0381680,4.9007635,12.2510672,9.2655134,-9.9430685,-5.4045801,-34.9618340,122.6793900
1650,4.5657191,-4.1227942,8.8106174,-4.9389315,-2.6564887,3.7709923,13.3404236,9.4043760,-9.4187412,-24.4580154,-27.7404575,114.7557220
1660,4.7309184,-4.1275826,9.1888990,-2.3511450,-1.4274809,2.0763359,14.5973730,9.6006994,-8.6238708,-41.0076332,-21.2137413,107.3969498
1670,4.8242917,-4.2496862,9.4809904,3.2061069,-0.7251908,0.0458015,16.1200771,9.6174593,-7.3094602,-51.8778610,-13.6717558,94.9847336
1680,4.6495161,-4.2640514,9.8544836,10.9465647,0.0687023,-1.4122137,17.7624912,9.4378948,-6.8473821,-58.1984749,-6.3587785,76.3282471
1690,4.5369892,-4.2568688,10.4003592,22.3587780,-1.4122137,-1.9618320,19.3139267,9.4283180,-6.2679882,-64.4427490,-0.1297710,48.3664131
1700,4.3933377,-4.2855992,10.6254129,36.4580154,-1.9160305,-1.1221374,19.6126022,9.2535419,-5.5880380,-71.3816757,5.6412215,13.6946564
1710,4.2520804,-4.2161674,10.9103212,50.9083977,-2.9160306,-0.0687023,19.6126022,9.0620070,-4.8410511,-77.8931274,12.8015270,-23.9465656
1720,4.8386569,-4.0605454,10.4410601,65.3282471,1.9389313,-1.3435115,18.8997307,8.6909075,-3.9982965,-82.9007645,11.0916033,-64.1068726
1730,5.0277977,-3.6463506,9.2056589,71.0000000,7.8320613,-5.4885497,17.5781384,8.2527714,-3.4260850,-87.7862625,6.7251906,-103.7938919
1740,5.4348102,-3.0861101,8.0540533,64.5954208,13.8091602,-12.4961834,15.5119534,7.9702568,-2.7485294,-91.3816757,6.0687022,-138.4122162
1750,5.7915444,-2.7748656,7.7428088,50.9618340,19.6183205,-23.0916023,13.5750542,7.5009956,-2.0709739,-93.0534363,7.8549619,-167.8167877
1760,5.2408805,-2.7413468,8.9087791,41.1297722,15.8015270,-32.8015251,11.5926657,6.8665352,-1.5634058,-94.3435135,12.6106873,-193.2137451
1770,5.2336984,-2.7700772,10.3979645,48.5496178,2.5038168,-38.7175560,9.5192976,6.4810710,-1.0055596,-93.8244247,13.7022905,-213.9389343
1780,4.6758518,-2.5450234,10.7163916,65.4885483,-16.2900772,-41.3740463,7.5847921,6.1267309,-0.7829000,-93.0839691,12.7786255,-229.8167877
1790,4.1227942,-1.5921360,9.4833841,65.4045792,-85.2137375,-38.0228996,5.8083038,5.8130918,-0.6153067,-93.1832047,9.1145039,-242.0534363
1800,6.2943239,-2.3702476,8.3293848,63.0381660,-99.7633591,-41.6641235,3.9216824,5.4443870,-0.5243275,-94.7862625,1.4198474,-250.1374054
1810,7.3741035,-3.0525916,7.8242111,64.2595444,-60.9771004,-57.3435097,2.3917952,5.0469513,-0.1699875,-99.3358765,-7.2900763,-250.1374054
1820,6.5121951,-2.7748656,7.7260494,61.5648842,-27.0839691,-69.7328262,0.8475431,4.6902170,0.5554519,-104.3664093,-18.0305347,-250.1374054
1830,5.1906028,-2.4253139,7.8529415,55.8931313,-11.4274807,-73.8473282,-0.3112446,4.3550305,1.4125718,-108.0381699,-29.0992374,-250.1374054
1840,4.2448978,-2.5498118,7.8218169,46.6259537,-9.7480917,-69.5801544,-1.2808913,4.0629396,2.4133430,-108.0992355,-31.5801525,-250.1374054
1850,4.4843168,-2.5019281,7.4315639,37.3129768,-1.0458015,-61.4351158,-2.7724714,4.0509686,3.2824337,-104.5267181,-27.5419846,-250.1374054
1860,4.6279683,-2.4324965,7.2136927,29.4809170,19.1526718,-55.1984749,-3.9097114,3.8402798,3.7612717,-97.3893127,-26.8549614,-249.9236603
1870,4.1108232,-2.3079987,7.1562324,22.0076332,33.6946564,-50.7938919,-4.7811961,3.8283088,3.1866663,-92.8549652,-31.4580154,-242.2137451
1880,3.4428444,-2.0135133,7.7691450,16.9541988,27.3358784,-44.3587799,-5.0158267,3.9264708,2.8802099,-94.6793900,-34.1297722,-235.5725250
1890,3.4955165,-2.0159075,8.0109577,17.2748089,13.9312973,-35.4961815,-6.8689294,3.7732425,2.6288199,-102.8091583,-18.3282452,-223.6183167
1900,3.9144998,-2.0422437,8.0085640,21.1908398,3.3358779,-28.2137413,-10.4482431,4.1323709,3.8187323,-105.3664093,24.7404575,-195.1297760
1910,4.2472920,-2.0518203,7.7882981,23.9236641,-4.2595420,-23.9465656,-12.8735571,4.8745699,5.1499014,-100.6335907,54.6030540,-155.1068726
1920,4.3095412,-1.9919657,7.5033898,24.2442741,-7.1068702,-20.3816795,-14.6141329,5.3366485,6.4571290,-90.3206100,79.6030502,-112.5419846
1930,4.5776901,-1.7333932,7.1801744,19.0076332,-7.4732823,-18.7022896,-16.8096046,5.4755111,7.6374645,-75.4885483,103.5038147,-66.1221390
1940,4.6854286,-1.5490406,7.1705976,10.7404585,-6.0534353,-18.3893127,-17.9492378,5.6311336,8.5592270,-55.2748108,110.3740463,-18.6564884
1950,4.7835903,-1.6280488,7.1442614,1.5648855,-1.1374046,-18.2748089,-17.5470142,5.1451130,8.7723103,-35.1526718,109.2290039,18.7557259
1960,4.8338685,-1.7645177,7.1969333,-8.0229006,2.9236641,-16.9923668,-17.0442352,5.1858144,8.6573887,-22.5496178,100.5648880,46.5190849
1970,4.9918852,-1.6328372,7.4650826,-17.6717548,6.3053436,-16.7633591,-17.1759148,5.0684991,8.8537130,-13.9007635,91.4427490,68.6793900
1980,5.2504573,-1.3910241,7.7068958,-26.6030540,9.5038166,-19.1221371,-16.8646698,5.0445571,9.2750902,-7.6564884,82.2137375,86.5267181
1990,5.3055239,-1.3407460,8.2048874,-33.9083977,11.9236641,-22.8702297,-16.3834381,5.2049680,9.9119444,0.5954198,74.0839691,96.9389343
2000,4.7859845,-1.5562232,9.3756456,-35.3740463,8.0000000,-23.6335869,-16.5989151,5.1115947,10.4434547,12.1450386,60.8625946,105.5419846
2010,4.7883787,-1.7094513,10.1824875,-27.5801525,2.4656489,-20.8549614,-16.8886127,5.3893204,10.6876621,27.1755733,45.1374054,115.1374054
2020,5.0684991,-1.7597293,10.4123297,-13.7709923,0.5267175,-18.9007626,-17.0298691,5.5257893,10.7187862,44.7099228,30.0610695,129.2137451
2030,5.0469513,-1.6136837,10.1274214,-0.0381679,-0.9312977,-18.7251911,-16.5175133,5.4348102,10.2399483,62.7480927,20.3435116,147.7175598
2040,4.7333126,-1.3958124,9.5623922,9.0152674,-4.4122138,-17.7862587,-15.2916880,5.1020179,9.5240860,81.0229034,16.1755733,165.9236603
2050,4.6973996,-1.3168042,9.0213060,11.9236641,-7.0687022,-15.5038166,-13.8647509,4.7620430,8.8010406,98.6564865,13.2290077,183.7251892
2060,4.9272418,-1.1611819,8.7770987,10.7633591,-5.7557254,-14.2824430,-12.3085279,4.7117648,7.7380204,113.0610657,7.5725193,199.6259613
2070,5.3797436,-0.9433106,8.5089493,6.9312978,-1.8931298,-15.6183205,-10.7403336,4.4699516,6.9263902,124.4732819,1.5877863,213.1679382
2080,5.3246775,-0.7996593,8.2886839,2.1297710,-0.0305344,-18.9618320,-8.8585014,4.3406653,5.8178802,133.8778687,-6.1832061,224.2900696
2090,5.2360926,-0.8140244,8.0851774,-2.8167939,-2.4885497,-21.4580154,-6.9407554,4.1539187,4.6566987,141.6030579,-13.7557249,230.5877838
2100,5.2336984,-0.8283895,7.9271612,-8.3206110,-7.4427481,-23.7709923,-5.1475072,4.0940638,3.3901722,147.9389343,-25.2595425,233.6946564
2110,5.0900469,-0.9361281,8.1354561,-14.1145039,-15.4656487,-25.3511448,-3.0693510,4.1084290,2.2481439,152.5648804,-35.4503822,230.4122162
2120,5.1738434,-1.2904681,8.5999289,-19.9083977,-27.0839691,-27.4885502,-1.3527170,4.2927818,1.0318956,156.2900696,-35.6870232,222.2137451
2130,5.5305777,-1.5370697,9.0524302,-23.5190830,-39.3206100,-28.9770985,0.1436514,4.3813667,-0.4070122,158.2366486,-34.9312973,212.7633514
2140,5.8274570,-1.3886299,9.5049324,-25.8549614,-46.9847336,-32.3740463,1.7405758,4.6686692,-1.9153515,155.8625946,-34.9771004,199.6030579
2150,6.0932121,-1.1899122,9.9143381,-28.4351139,-52.2290077,-38.9541969,2.8993635,5.2624283,-3.2800395,149.6717529,-38.7175560,186.6030579
2160,6.1195483,-1.1683644,10.5535870,-30.9541988,-53.9923668,-46.7709923,3.9935081,6.0405402,-4.4220681,138.9541931,-41.1603050,176.9389343
2170,6.2943239,-1.4317253,11.0827026,-30.3358784,-49.4045792,-54.1679382,5.4946647,6.1339135,-5.1475072,128.2824402,-36.4351158,168.1145020
2180,6.4595232,-1.5729824,11.3125448,-26.8015270,-40.9007645,-61.3435097,6.5600791,6.7396431,-5.6311336,120.5725174,-28.6870232,160.0381622
2190,6.4667058,-1.5777708,11.4561968,-21.0992374,-42.0228996,-67.9923630,8.3581152,6.9599090,-6.7420373,110.0229034,-24.2519093,153.6946564
2200,6.3422079,-1.8028246,11.8608141,-11.4732828,-49.2442741,-78.3969498,10.1346035,7.3022780,-7.6566176,95.2137375,-11.9236641,143.2595367
2210,6.0405402,-2.0973101,12.3516235,5.6870227,-61.2900772,-87.0763321,11.0324249,7.6183109,-8.5855637,74.0076370,-10.1221371,130.8473358
2220,5.3988972,-2.1954718,12.0523500,27.1145039,-66.4580154,-88.0000000,11.7291346,8.2719250,-9.0667953,49.0228996,-17.9389305,119.8015289
2230,5.2408805,-1.8219782,11.0659437,45.1755714,-69.5190811,-87.8396912,12.4928808,8.4012108,-9.2822723,23.6183205,-33.6488533,109.7480927
2240,4.6471219,-1.8602852,11.1186161,60.7862587,-88.5877838,-88.3816757,14.3028879,8.4419117,-9.3660688,-1.0839695,-45.8854980,99.4122162
2250,2.8179610,-0.7876883,12.2821922,79.0916061,-120.5419846,-84.0381699,15.7585554,8.2216463,-8.7268209,-21.3893127,-40.7938919,85.5877838
2260,2.5737536,-0.8188128,12.8041248,107.4580154,-164.4809113,-67.7022934,16.8167858,8.1282730,-7.8984308,-36.1603050,-29.3893127,69.3893127
2270,3.2728570,-0.6823440,10.9246864,138.5801544,-160.5190887,-48.8931313,17.3650570,8.2455883,-7.1753860,-48.3053436,-18.6564884,51.4427490
2280,4.3143296,-0.0909792,7.9199786,154.8167877,-112.4198456,-39.8167953,18.0569763,8.1522150,-6.1027889,-58.3893127,-9.7480917,29.2748089
2290,5.3198891,-0.0550664,3.6583214,139.5190887,-55.0534363,-32.4274826,18.6842537,7.9870162,-5.2600341,-65.6793900,-2.8931298,3.1755726
2300,5.9351954,-0.1125269,1.9536586,101.2824402,-10.0152674,-36.4580154,18.7704449,7.9032192,-3.8809812,-68.1603088,11.1450386,-29.7709923
2310,5.4683285,-1.2018831,1.3263810,15.1068707,86.9389343,-46.8625946,16.9748039,7.6901364,-2.3774302,-63.2900772,9.2748089,-99.8778610
2320,5.3653784,-1.9129574,2.0997043,-8.8854961,133.0305328,-43.8702278,15.5167418,7.2232695,-2.1116750,-63.7175560,4.9083967,-135.0992432
2330,4.7309184,-2.7820482,3.6439564,-18.5725193,134.4274750,-51.2671738,13.9581242,6.8521700,-1.6711442,-63.0992355,4.7709923,-167.4427490
2340,3.3303175,-0.2035061,5.6167684,-7.9618320,100.6641235,-57.7709923,11.9182749,6.6199336,-1.4197544,-60.2366409,7.0458016,-196.0076294
2350,3.3470769,2.0159075,5.6024032,10.7480917,62.2519073,-49.1068687,9.8065996,6.3182659,-1.4796091,-57.4732819,5.4351144,-218.9923706
2360,5.1355362,2.2529323,5.3462253,21.5572510,17.9847336,-47.8854980,7.9606800,6.1889796,-1.5897418,-58.2977104,2.0229008,-238.0992432
2370,6.9287844,2.4277081,5.2863703,27.6412220,-12.2442751,-58.4122124,5.6790175,5.7867560,-1.4484847,-59.8015251,-1.0000000,-250.1374054
2380,7.4674768,2.6575503,4.9679432,30.6946564,-19.5572510,-71.2366409,3.4476328,5.5664907,-0.8451489,-59.9847336,-0.7557252,-250.1374054
2390,6.6342988,2.6168492,4.5513539,37.3664131,-35.6946564,-78.8549652,1.0199248,5.4874821,-0.3519458,-57.6259537,3.3358779,-250.1374054
2400,8.7914639,2.8059900,2.9304879,32.3511467,-24.2290077,-92.1908417,-1.3598996,5.5952206,-0.0526722,-53.7099228,4.0610685,-250.1374054
2410,9.5049324,2.6958573,1.5418580,13.2977095,20.8320618,-118.7557220,-3.3303175,6.0046272,-0.1963235,-50.7022896,-0.4427481,-242.5496216
2420,7.0724359,2.5881188,1.0989330,-5.0992365,46.3511467,-136.8854980,-4.3861551,6.3278427,-0.4572902,-49.9083977,-1.2290076,-226.0610657
2430,5.9806852,2.5785420,1.3096216,-19.6717548,39.9389305,-137.9770966,-5.0349803,6.3446021,-0.9145803,-50.5496178,5.4885497,-210.3893127
2440,5.5664907,2.1930776,2.1906834,-32.7022896,39.2519073,-127.2748108,-6.0189924,6.5026188,-1.0582317,-52.1450386,13.7633591,-194.0305328
2450,5.8011212,2.3103929,3.2704628,-42.5114517,38.6946564,-108.9312973,-7.0724359,6.7923155,-1.2090657,-56.2824440,21.3587780,-173.8625946
2460,6.9910331,3.0118904,4.2113791,-49.1068687,38.5038185,-94.6259537,-8.0181408,7.2160869,-0.7374104,-61.2595406,33.8931313,-150.3969421
2470,8.1402445,3.6128318,4.4172797,-55.2977104,59.4351158,-89.2748108,-8.7986460,7.9415264,0.2178712,-62.8015251,45.7480927,-121.9465637
2480,8.2791071,4.1491303,3.9575951,-62.5343513,95.2366409,-83.4885483,-8.8632889,8.2934723,1.1252691,-60.5190849,51.2977104,-91.8778610
2490,8.0372944,3.6918402,3.5936785,-77.6488571,135.2061005,-80.4885483,-8.0253229,8.2815018,1.3144100,-58.8167953,47.9694672,-65.7786255
2500,6.9144192,3.2082138,4.5034704,-106.2442780,133.8778687,-84.4656525,-6.3829093,8.1809454,0.8259954,-60.0687027,41.0076332,-50.3358765
2510,5.3988972,2.5162930,7.1682034,-131.8702240,106.9083939,-81.5572510,-4.7381010,8.2264347,0.7517755,-58.4045792,53.5190849,-44.4580154
2520,4.4531922,1.6017127,8.3222027,-147.6030579,99.9694672,-64.2213745,-3.6511390,7.2615767,0.5339043,-55.5114517,83.4122162,-48.8931313
2530,3.9192882,1.3287752,9.3660688,-156.5877838,74.0457993,-41.4732819,-4.6423335,7.2831244,0.7350162,-50.6412201,111.4274826,-60.7022896
2540,3.6607156,0.1005560,10.1800938,-159.4427490,57.0839691,-19.6412220,-7.1370788,7.6638002,1.2832855,-47.6259537,122.0076370,-67.1603088
2550,4.5178356,0.2226596,11.1329813,-153.2900696,54.7557259,4.2137403,-10.1130562,7.7284436,1.9321109,-48.6183205,122.0457993,-65.2977066
2560,4.7500720,0.4357425,12.1433287,-140.4809113,64.8549652,15.4274807,-13.5223818,7.9702568,3.0621684,-51.2061081,120.0457993,-52.5267181
2570,4.8769641,0.9552816,13.0459385,-129.8244324,47.5877876,7.6793895,-17.3626614,8.4347296,4.6303625,-49.3816795,112.7862625,-28.4198475
2580,5.4611464,0.8044477,13.2638092,-123.1374054,30.0992374,-15.0916033,-19.4743366,8.3820572,5.8202744,-40.9771004,93.4809189,3.8015268
2590,4.9966736,0.3998296,14.9924145,-110.9618301,34.7251892,-38.3969460,-19.6131992,8.2120695,6.6965480,-27.5801525,71.7175598,37.4809151
2600,5.0110383,-0.2250538,18.0378227,-123.6641235,204.4961853,-48.1603050,-19.0481720,7.8098459,6.9407554,-13.7480917,60.4885483,68.3129807
2610,-0.1029501,-1.2401901,19.1702747,-116.8091583,217.1603088,-23.7480907,-17.8438931,7.5129666,7.0915890,-0.2442748,55.2061081,93.4580154
2620,-0.1843526,-1.8219782,17.6284161,-54.6259537,161.7480927,3.5343511,-16.4265347,7.2735476,7.0796180,13.4351149,45.4045792,114.0152664
2630,-0.1268920,-0.8714849,15.9309368,21.9389305,161.1603088,13.4427481,-14.6596222,6.8665352,6.9383612,25.9694653,25.4122143,125.7251892
2640,0.1675933,0.3112446,13.0076313,59.7099228,99.7022934,15.6106873,-12.9597473,6.5696559,6.3206601,35.5114517,1.8549619,132.2213745
2650,1.7286048,0.6512195,13.1369171,66.5190811,46.4427490,6.3816795,-11.2670555,6.2847471,5.8106980,41.0076332,-19.2137413,135.0381622
2660,2.5617826,1.2880739,11.2790270,72.3282471,5.6412215,-5.8549619,-9.9765873,6.1698260,5.4587522,45.6030540,-37.0381660,136.1755676
2670,1.9847831,1.1061156,10.1992474,86.2213745,-21.7633591,-12.8015270,-8.8704720,5.9351954,5.2336984,52.3893127,-52.6183205,136.7175598
2680,1.7453641,1.1923064,9.0332766,92.5190811,-53.0839691,-15.3129768,-7.8625183,5.8777351,4.7596488,62.0610695,-63.9694672,135.3969421
2690,2.0374553,1.3144100,8.5688038,83.8091583,-53.4274826,-14.8625956,-7.1514440,5.8298512,4.2736282,73.7709961,-71.9160309,135.1221313
2700,2.1882892,1.0247130,8.3198080,66.5572510,-43.1221390,-7.7862597,-6.4978304,5.9112539,3.3494711,85.4122162,-76.9389343,136.6335907
2710,2.2337787,1.1683644,8.1593981,51.4198456,-22.1221371,2.7862597,-5.7245069,6.0908179,2.3343346,95.9847336,-76.0916061,140.1450348
2720,2.2912393,1.2808913,8.0444765,35.9389305,-1.0763359,11.8931293,-4.5824785,6.0860295,0.8762733,106.0534363,-72.4427490,144.6412201
2730,2.5833304,1.8291607,7.8385763,23.7709923,30.3740463,16.7633591,-3.4500270,6.0812411,-0.4644727,112.2290039,-68.8931274,146.8854980
2740,2.7102225,1.6376256,7.9271612,8.7633591,59.2137413,17.4732819,-2.3870070,5.9735026,-1.8291607,113.5038147,-72.4122162,145.0458069
2750,2.6982515,1.6879035,7.7475972,-9.6030531,76.9083939,16.1068707,-1.3455344,6.3493905,-3.3734128,106.8931274,-83.7404556,140.0763397
2760,2.5881188,1.0702027,8.0372944,-24.9847336,87.6564865,13.1984730,-0.3136388,6.5840211,-4.6447277,90.3511429,-100.4732819,133.0534363
2770,2.5833304,1.1731528,8.5328913,-33.1526718,91.0000000,9.6259546,0.8044477,6.9287844,-5.3222833,73.2595444,-117.0305328,126.1526718
2780,2.3558824,0.6703730,9.0476418,-37.1603050,89.6488571,6.7557254,1.7022687,7.2759418,-5.4108682,59.7404594,-131.3740387,120.6870193
2790,2.2313845,0.8714849,9.2439651,-37.5725174,85.9236679,2.0305343,2.8395088,7.8720951,-5.4108682,52.1221390,-138.9236603,120.9389343
2800,1.9776005,0.7014975,9.8568783,-37.3511467,80.5343475,-5.5496182,4.6399393,8.0588417,-5.5593081,50.1526718,-127.8854980,123.9618301
2810,1.6687500,0.5362985,9.8808203,-36.0458031,72.2213745,-11.8473282,6.5265603,8.1402445,-6.1722202,52.0076332,-105.4809189,124.6412201
2820,1.2066715,0.1053443,10.0795374,-33.0839691,65.7480927,-16.0305347,8.3245964,8.2886839,-7.3286138,51.3816795,-78.5648880,122.9847336
2830,0.5123565,-0.1388630,9.9382801,-31.3587780,59.6946564,-16.8778629,10.0771437,8.5975342,-8.3317795,43.0992355,-55.1755714,117.3893127
2840,-0.0023942,-0.2944853,10.0747490,-29.1755733,52.5114517,-15.3358774,11.7291346,8.7651272,-8.6262646,28.0229015,-41.2061081,105.8931274
2850,-0.2920911,-0.2154770,10.2231894,-29.5114498,44.0305328,-13.4580154,12.6054077,9.0021524,-8.7244263,10.2595415,-41.4885483,90.2595444
2860,-0.5075682,-0.2226596,10.7690639,-27.5648861,36.1908379,-12.2595415,13.5678720,9.1051025,-8.2695303,-8.3435116,-47.4732819,74.2824402
2870,-0.6512195,-0.2681492,11.5040808,-19.8702297,27.3893127,-10.0000000,14.6739874,9.1074963,-7.5297260,-24.0763359,-50.1603050,57.6030540
2880,-0.6272776,-0.1771700,12.0499554,-5.6335878,17.8625946,-7.5725193,15.4353390,8.9446917,-6.6055689,-33.8549614,-47.2824440,39.5648842
2890,-0.6655847,-0.1604107,11.9733410,8.9160309,10.0916033,-4.3435116,16.1512012,8.9973640,-5.9806852,-40.1908379,-41.7099228,19.6030540
2900,-0.8020535,0.1699875,11.3197279,20.1755733,3.9007633,-0.1832061,16.6228580,8.6717539,-5.4132624,-43.9923668,-31.9541988,-2.6183207
2910,-0.9552816,0.3351865,10.2160063,23.4122143,-1.3129771,6.3435116,16.5151196,8.3174143,-4.7572546,-46.5572510,-21.0534344,-28.2519093
2920,-0.7900825,0.5530578,9.5552101,20.4351139,-3.5496182,11.5496187,15.9357252,8.1210909,-4.1826491,-48.4885483,-10.3816795,-54.7938919
2930,-0.6320660,0.8427547,8.9183559,13.3053436,-4.7328243,15.3740454,14.6907463,7.9678626,-3.4859397,-48.6793900,-4.5648856,-82.3435135
2940,-0.6847382,0.7469871,8.5041609,3.2824428,-0.9847328,19.2213745,13.3739424,7.7140784,-2.9903426,-48.0992355,-2.7251909,-107.8167953
2950,-1.4628497,0.8427547,8.0971489,-7.9312978,-4.7404580,25.1526718,12.1576939,7.4842362,-2.4516499,-47.3740463,-1.2366412,-130.9160309
2960,-0.9289455,0.5243275,7.7308378,-18.7328243,-16.1755733,34.9541969,10.3835993,7.2424231,-2.3630650,-45.6946564,0.3206107,-152.3969421
2970,-0.5458752,0.5267217,8.1905222,-31.3816795,-25.5343513,45.6259537,8.8225880,7.0245519,-2.5929072,-46.2900772,-1.7022901,-172.0152740
2980,-0.0790083,0.7254394,8.9614515,-35.6641235,-29.5801525,46.7251892,7.1346846,6.8545642,-2.6360025,-49.4351158,-8.8625956,-188.4809113
2990,-0.0454896,0.4477134,9.5216913,-38.5114517,-29.0076332,46.3435097,5.6981707,6.6750002,-2.7461352,-55.8244286,-16.4351139,-201.9160309
3000,-0.2106887,0.1604107,10.2279778,-37.8015251,-20.6488552,47.9541969,4.1850433,6.3302369,-2.6264257,-62.9236641,-25.2519093,-214.0305328
3010,-0.5219333,-0.3208214,10.5679522,-34.3969460,-10.3893127,53.0763359,2.4277081,6.1554613,-2.4492557,-69.6106873,-33.0687027,-223.1374054
3020,-0.7781116,-0.5769997,10.6828737,-29.3053436,-7.7022901,59.8091621,0.9864060,6.0956063,-1.7525467,-74.9847336,-35.1450386,-227.4885559
3030,-0.7134684,-0.8140244,10.6445665,-23.0000000,-18.1068707,65.5877838,-0.5003856,6.1530671,-0.8451489,-77.0916061,-32.3587799,-226.3053436
3040,0.1029501,-0.1388630,10.6445665,-15.5419846,-35.0152664,67.7022934,-2.1332228,6.2344694,-0.2274480,-74.0076370,-21.7175579,-221.4732819
3050,1.1061156,0.1173153,10.1705170,-7.9923663,-49.7328262,64.3358765,-3.6918402,6.4427638,0.3615226,-66.8091583,-5.4274807,-210.4427490
3060,1.5562232,0.2298422,9.7850523,-4.1832061,-55.7633591,57.8396950,-5.3701668,6.6989422,0.6368544,-55.5114517,10.2442751,-195.1297760
3070,1.5825592,0.1771700,9.3900108,-4.8396945,-55.0992355,53.8473282,-5.8849177,6.8138633,0.2825144,-45.1374054,19.5190830,-180.8091583
3080,2.1380112,0.4094064,9.0165176,-8.7251911,-51.3129768,51.5038185,-6.3086891,6.8928714,-0.3160330,-38.5801544,28.8473282,-168.8396912
3090,2.6599445,0.5291159,8.8944139,-12.4656487,-46.5038185,45.8778610,-6.9479380,6.9000540,-1.0223188,-36.8091621,34.1908379,-159.0763397
3100,3.7301471,0.8307837,9.0308828,-16.9618320,-46.2977104,35.2366409,-7.3046722,6.6558466,-1.5298871,-40.3358765,30.4656487,-152.2748108
3110,5.0206151,1.1468167,9.9478569,-18.1832066,-37.5877876,18.8167934,-8.1163025,6.4379754,-1.8961980,-48.5114517,26.6030540,-147.9618378
3120,5.8418221,1.1851238,10.4386663,-16.1297703,-25.7938938,-1.0458015,-9.5791521,6.3565731,-1.3814473,-58.0610695,28.3206100,-138.2748108
3130,5.7029591,0.8547257,10.8863792,-9.3129768,-19.8625946,-21.5190830,-11.2119894,6.2727766,-0.3160330,-65.7938919,35.4809151,-121.3893127
3140,5.0325861,0.5003856,11.1377697,-2.1908398,-14.2519083,-36.7099228,-12.8687687,6.3326311,1.1851238,-67.7099228,54.5267181,-97.8473282
3150,4.4986820,0.1891410,11.0491848,6.7633586,-12.3511448,-48.7786255,-14.2885227,6.2368636,2.7916248,-62.1068687,72.1374054,-70.8015289
3160,3.9001346,-0.1628049,10.8528605,14.0229006,-12.5648851,-58.6870232,-15.1073351,6.0740585,4.1347651,-54.0228996,78.1221390,-44.5419846
3170,3.0573800,-0.3615226,10.9127159,20.8167934,-23.8396950,-63.6946564,-14.7290535,5.9088597,4.8338685,-48.4427490,75.2824402,-24.3816795
3180,2.5330524,-0.2992737,10.9941177,30.2366409,-34.4122124,-64.7251892,-15.4832230,6.3446021,6.1051831,-39.1984749,68.0229034,-7.6946564
3190,2.1427996,-0.4261657,10.6732969,36.3816795,-35.5648842,-62.3282433,-15.4999828,5.8394279,7.2304521,-28.4274807,54.3435097,9.6793890
3200,1.8459201,-0.5243275,10.0699606,37.8625946,-28.2366409,-57.5267181,-14.9804430,5.9375896,7.9056134,-17.1221371,40.2977104,23.0610695
3210,1.1683644,-0.3327923,9.1529865,33.5114517,-26.1450386,-48.4122124,-14.9325600,5.8322453,8.7387915,-4.1908398,26.5038166,35.4351158
3220,0.3064562,-0.7517755,8.9853926,28.7709923,-37.9465637,-38.6335869,-14.5351238,5.9543490,9.1194677,10.7404585,13.8091602,48.9236641
3230,1.0318956,-0.0574605,9.0236998,27.6259537,-43.4351158,-29.0458012,-13.8120794,5.6838059,9.2966375,28.1755733,3.0916030,61.9771004
3240,1.9967541,0.4453192,8.8058290,24.0076332,-34.6183205,-25.7557259,-12.8759508,5.7843618,8.8944139,47.1984749,-6.5877862,72.9160309
3250,2.1068866,0.4237715,9.0165176,17.5267181,-27.7022896,-26.7633591,-11.9924946,5.8178802,8.0732069,64.8931274,-13.0687027,82.8015289
3260,2.0566087,0.4429250,9.9454632,15.1603050,-24.8167934,-29.0229015,-11.0515785,5.7532372,7.3142486,79.7557220,-14.4427481,91.8167953
3270,1.8818330,0.3543400,10.5320396,16.9083977,-13.9083967,-30.3129768,-10.3883877,5.7652082,6.4355812,93.5190811,-20.0381680,99.8167953
3280,1.4963684,-0.2561783,11.1257982,27.0152664,-3.1145039,-30.3511448,-9.7204094,5.9543490,5.4443870,105.8931274,-32.6183205,104.8549652
3290,1.2617378,-0.0383070,11.8703909,39.7404594,-5.8396945,-26.4122143,-9.0835552,6.1410961,4.2425036,113.7938919,-49.7099228,108.4274826
3300,1.9680238,0.2059003,12.2989511,46.7404594,2.2748091,-19.8549614,-8.2120695,6.3110833,2.9233053,118.0992355,-61.1755714,110.5648880
3310,2.2050486,0.3112446,12.9358053,54.0381660,11.9312973,-15.0839691,-7.6015515,6.5217719,1.8578910,120.1526718,-70.7099228,111.8091583
3320,2.5043221,0.5099624,12.5862541,58.7022896,31.4732819,-9.0381680,-6.6726060,6.8114691,1.0127422,121.0534363,-82.1297684,112.3206100
3330,2.0997043,0.3663110,11.4107065,61.8854980,54.5343513,1.2595420,-5.6933827,7.0460997,0.1005560,120.7175598,-94.4274826,111.9694672
3340,1.7860653,0.3830703,9.6677370,59.8931313,79.6793900,17.6564884,-4.5752959,7.4746594,-0.9911944,118.7709961,-102.7175598,110.2519073
3350,2.5450234,1.3000449,7.1490498,38.4198456,112.3969498,25.2442741,-3.5553713,7.7284436,-2.0613971,116.7557220,-109.5343475,107.2977066
3360,2.7676830,1.9823889,6.6103573,9.5343513,125.2671738,16.8396950,-2.3894010,8.1809454,-3.1148405,114.7251892,-114.0229034,105.4656525
3370,2.4660151,2.7269819,7.0963774,-3.6106870,106.3969498,0.4351145,-1.5610116,8.9614515,-4.2855992,111.9312973,-118.4351120,104.5190811
3380,1.2689204,2.5641768,7.6709828,-6.7480917,75.8320618,-12.5267172,-0.3016679,9.7587166,-5.6814117,109.0152664,-118.4809189,107.7022934
3390,1.6735384,2.2074428,7.9104018,-9.4045801,45.3282433,-14.0152674,1.3742647,10.2279778,-7.4387465,105.2366409,-110.0305328,112.5572510
3400,0.8738791,1.8578910,8.9638453,-8.5419846,39.8549614,-16.5801525,3.6631098,10.7762470,-9.5623922,98.9160309,-92.7862625,117.1068726
3410,0.7182568,1.8722562,9.1505919,-2.9847329,15.7251911,-16.9618320,6.0740585,10.8959560,-11.5208397,88.9083939,-69.4809189,117.3282471
3420,0.9768293,2.2337787,8.5735922,-0.7099237,-13.7099237,-17.0763359,8.7459745,10.7882175,-13.3140879,72.0992355,-46.8625946,110.2137375
3430,1.8531027,2.3870070,8.2791071,-1.1908396,-50.1145020,-21.7709923,10.8313131,10.9749641,-14.6261034,47.5038185,-23.0839691,94.2137375
3440,2.5641768,1.6759326,9.4019823,-3.7633588,-31.4961834,-31.7786255,12.0499554,11.1664991,-15.4066095,14.3206110,-8.3511448,72.9465637
3450,2.1044924,2.0039365,8.2360115,-13.8931293,-9.3435116,-39.9312973,12.5575237,11.1377697,-14.9780493,-24.1832066,-12.1374044,50.2595406
3460,1.7645177,1.6591733,7.5177550,-32.8320618,22.4961834,-40.5725174,12.8232784,10.7618818,-13.5606890,-61.6793900,-28.4732819,23.4351139
3470,1.2449785,1.9560528,7.8768835,-49.2442741,41.9236641,-37.8549614,13.1417055,10.1585455,-11.6668854,-91.9694672,-48.9007645,-3.4122138
3480,0.9744351,2.3774302,8.4203644,-60.9618340,37.6641235,-35.8091621,13.6325150,9.3900108,-9.7275915,-114.3511429,-64.5954208,-30.8244267
3490,0.9840119,1.4149660,9.5767574,-65.1374054,8.2442751,-43.6793900,13.5678720,8.6621771,-7.9487090,-130.4656525,-62.9847336,-60.1526718
3500,0.4429250,0.6440369,10.5487986,-67.2519073,-35.7175560,-55.6564903,12.5383701,7.9511032,-6.0309634,-139.8244324,-53.3816795,-89.8396912
3510,0.3088504,0.4453192,10.8624372,-67.1832047,-67.3129807,-61.1984749,11.5591469,7.4219875,-4.6088147,-145.0458069,-44.0763359,-116.1832047
3520,0.4261657,-0.1029501,10.4147243,-64.0839691,-45.3053436,-54.5954208,10.0603838,6.7276726,-3.0837159,-146.9313049,-36.0687027,-143.2824402
3530,1.0534433,-1.0606259,9.7036495,-67.8702316,-5.3435116,-44.8854980,8.4323349,6.2464404,-1.6065011,-146.8473358,-36.7938919,-169.1297760
3540,1.1348459,-1.2425843,9.7778702,-78.2137375,19.1755733,-40.9465637,6.5361371,5.5832496,-0.2849085,-146.1526642,-39.5954208,-192.0458069
3550,1.0821736,-0.5147507,10.0675669,-87.2900772,23.4961834,-36.3816795,4.1060348,4.5633249,1.0414724,-144.1908417,-37.3206100,-211.1145020
3560,0.6200951,0.4333483,10.1681223,-92.3587799,26.9770985,-30.1145039,0.9457048,3.3853838,2.2936335,-140.0839691,-14.2824430,-225.3893127
3570,0.6272776,0.7374104,10.2112179,-90.3893127,29.0381680,-20.7175579,-3.5218527,2.9041519,4.5800843,-132.5954132,30.9389305,-227.3206177
3580,0.6919208,0.4429250,10.5368280,-79.2595444,29.0839691,-12.6793890,-10.0867205,3.1100521,7.8840661,-114.8854980,92.5877838,-213.7938995
3590,0.7948709,-0.2011119,10.4769726,-64.4351120,31.1374054,-7.7480917,-18.8949432,4.0581512,11.4561968,-83.1068726,129.3358765,-177.1068726
3600,1.0486550,-0.7589580,10.5607700,-44.9847336,33.0839691,-5.3358779,-19.6131992,5.5784616,14.0945930,-46.4580154,113.9083939,-113.4351120
3610,0.8690908,-1.0175306,10.3452930,-27.2595425,34.1221390,-2.7786260,-19.6131992,6.0764527,15.5406837,-1.0534351,70.9007645,-36.9389305
3620,-0.3471575,-0.9552816,10.0819321,-15.2595415,35.9618340,5.1755724,-19.6131992,4.8195033,15.1432486,40.4427490,35.5496178,36.8778610
3630,-1.7740943,-1.7357874,9.7658987,-15.8931293,22.2595425,21.5725193,-19.6131992,4.4053087,13.8839045,82.6030502,37.2977104,92.1297684
3640,-1.7764885,-1.3455344,10.1681223,-16.6717548,7.7175574,39.6564903,-19.6131992,3.9121056,12.1696653,123.7099228,41.9160309,128.5190887
3650,-0.6392486,-0.5578461,10.1058741,-10.6183205,4.7557254,42.6259537,-18.2461185,4.1539187,9.5983057,160.3587799,28.9160309,145.6030579
3660,0.8978211,0.2968795,10.0939026,-12.4580154,3.9236641,26.7709923,-15.3012648,4.9487896,6.1482787,181.9465637,1.8702290,151.9236603
3670,0.7469871,-0.3256098,9.6844959,-21.2061062,13.4732828,21.1297703,-12.5072460,5.9088597,2.6144550,185.3358765,-25.5954189,156.5801544
3680,0.6440369,-1.6519908,10.0651722,-26.2137413,19.5190830,23.7938938,-9.8760319,6.8545642,-0.6631905,173.9160309,-48.8549614,165.5267181
3690,0.9193687,-1.0558375,10.3812056,-22.4274807,19.3435116,22.9236641,-7.0772243,7.9965930,-3.3231349,156.3740387,-59.7175560,177.6717529
3700,1.1396341,-0.5650287,10.8672256,-13.1526718,13.2977095,17.4961834,-2.9185169,9.2032642,-5.4755111,145.7328186,-49.2213745,195.2748108
3710,1.0558375,-0.5291159,10.9701757,-3.1450381,4.2900763,10.9312973,2.8873925,9.9813757,-7.7428088,154.7633514,-3.6564887,217.1221313
3720,0.7014975,-0.9241571,11.6190014,10.8320608,-6.0076337,10.4351149,11.6549139,10.8935623,-12.2534618,178.5190887,96.3053436,230.6259613
3730,1.2593436,-1.1061156,10.5799236,19.3129768,-5.9618320,8.5114508,19.6126022,8.7818871,-18.8590298,186.9313049,220.0534363,214.6335907
3740,0.7541697,-0.6967092,10.1226330,18.9541988,3.7786260,9.5954199,19.6126022,9.4115591,-19.6131992,135.5954132,250.1297760,149.5801544
3750,0.5650287,-0.7613522,10.0555954,16.1679382,11.3129768,10.6106873,19.6126022,10.8408899,-19.6131992,21.3282452,243.2213745,64.5114517
3760,0.5817881,-0.5219333,10.0148945,15.4809160,9.2061071,9.3740454,19.6126022,10.3812056,-19.6131992,-87.7022934,110.8091583,-2.1068702
3770,0.6248835,-0.5746055,10.3045912,20.1145039,3.1374047,6.7557254,19.6126022,8.3629036,-18.3586445,-166.9694672,1.4274809,-63.5419846
3780,0.6679789,-0.5315101,10.0460186,23.8625946,-2.7862597,3.5801528,19.6126022,6.0980005,-13.0770626,-212.7938995,-42.6030540,-131.0000000
3790,1.7884595,-1.3958124,10.0771437,25.8167934,-6.9236641,-3.4351146,19.6126022,4.4316444,-7.6470413,-233.6564941,-45.5419846,-192.8778687
3800,0.7421987,-0.5147507,9.5145092,26.4809170,-3.9465649,-8.5572519,13.9222116,3.5817075,-3.2225790,-237.6946564,-31.7022896,-238.1679382
3810,0.4285599,-0.5267217,9.8257532,24.1297703,-25.7480907,-11.5496187,7.4722652,3.1555417,0.7158626,-226.9236603,-3.8931298,-250.1374054
3820,0.4453192,-0.0215477,9.9981356,23.3664131,-31.8167934,-12.3358774,1.6735384,2.4875629,4.0509686,-205.7709961,31.1068707,-250.1374054
3830,0.3016679,0.0407012,10.5344334,26.6488552,-21.8931293,-11.8854961,-4.6973996,1.7238164,6.6223278,-177.1679382,58.5877876,-250.1374054
3840,0.4022238,-0.2442073,10.5727406,32.9694672,-18.7862587,-11.8702288,-11.5830889,1.3694763,8.8848372,-149.0229034,65.0305328,-241.8091583
3850,0.4118006,-0.4381367,10.5033092,40.9083977,-28.7480907,-13.0839691,-18.3155499,2.8562679,10.3883877,-117.1145020,58.0381660,-202.6946564
3860,0.4501076,-0.3782819,10.4290895,49.4351158,-41.1297722,-15.0916033,-19.6131992,2.9855542,11.3676119,-88.7862625,59.9083977,-138.9389343
3870,0.4932030,0.0215477,9.8329363,51.5267181,-46.1145020,-16.6335869,-19.6131992,3.2584918,12.7299051,-64.2824402,61.4503822,-81.4885483
3880,0.4501076,0.0191535,9.5599985,49.0076332,-44.1755714,-16.4732819,-19.6131992,3.5074875,13.7809544,-34.7709923,54.9312973,-35.0076332
3890,0.3303981,0.3495516,9.1218615,43.4732819,-42.4198456,-13.8854961,-19.6131992,3.7277529,14.2669754,-4.0152674,39.4351158,2.0687022
3900,0.5027798,0.2346306,8.5855637,33.9389305,-32.0152664,-10.3587790,-19.6131992,3.7109938,14.2980995,26.9160309,12.0000000,35.8091621
3910,-0.0023942,-0.1628049,8.7052727,20.4885502,-17.7709923,-6.5114503,-19.6131992,3.5529771,13.9557304,55.9618340,-22.7557259,59.2977104
3920,-0.3136388,-0.4740495,9.6198530,11.5801525,-10.4885492,2.3740458,-19.0385952,3.2034254,12.9190464,85.2137375,-48.8625946,74.3587799
3930,-0.2059003,-0.3232156,10.4051476,11.5343513,-5.7709923,12.5114508,-16.8550930,2.8610563,11.1234045,113.6030502,-58.9007645,85.5114517
3940,0.1580165,-1.0582317,11.4705620,19.6717548,-3.2748091,19.4656487,-14.6859579,2.8395088,8.9279327,135.3435059,-68.7557220,94.9465637
3950,0.4381367,-0.9480990,11.9206696,37.6030540,4.3587785,21.5190830,-12.5335817,2.9041519,7.1203194,149.8473358,-75.3129807,101.7557220
3960,1.0151364,-0.0167593,11.6716738,57.2595406,12.9923668,23.1145039,-10.4650021,2.7700772,5.2193332,158.8396912,-82.7404556,105.7099228
3970,1.2737088,1.0390782,10.8791971,69.5572510,19.8778629,24.5954189,-8.3700867,3.0717452,3.3303175,163.0534363,-91.8854980,105.1450348
3980,1.3120158,1.2904681,10.0029240,73.7328262,18.4351139,21.3282452,-6.4236102,3.3494711,1.8315549,164.1526642,-105.9847336,97.4809189
3990,0.8523315,1.1180865,8.7148495,69.2442780,16.2137413,21.3282452,-5.1403246,3.7923961,0.2896969,163.1832123,-125.8549652,84.8549652
4000,-0.0239419,1.1851238,8.0492649,54.5725174,23.0839691,30.8473282,-4.1922259,4.4747400,-0.9648584,161.1374054,-141.6488495,70.7938919
4010,-0.6488253,1.3024391,7.1275020,20.4503822,20.0381680,48.0916023,-4.0342093,5.0708933,-2.5665710,158.7251892,-151.0458069,59.2671738
4020,-0.0646431,0.8930327,7.1059542,-14.1832066,24.6870232,62.8854980,-4.1156116,6.0118098,-3.9216824,155.4656525,-152.0076294,55.0763359
4030,0.5362985,1.0079538,7.8553357,-28.1603050,38.2900772,60.6030540,-3.8474624,6.9024482,-5.5688848,151.7633514,-144.2748108,57.0458031
4040,0.1125269,1.2545552,7.6254935,-32.2977104,28.6412220,58.1832047,-3.0430148,7.6949248,-7.3094602,145.8396912,-125.8091583,64.3206100
4050,-0.1819584,1.0917504,7.2041159,-40.5038185,0.6183206,59.7938919,-2.3127871,8.7890692,-8.5855637,144.5343475,-92.4274826,76.7251892
4060,0.1795642,1.1779412,7.1155310,-54.3969460,-16.4274807,62.2137413,-1.2713146,9.7204094,-10.3428984,140.2824402,-56.8931313,90.9007645
4070,0.4788379,0.5482694,7.5177550,-70.4732819,-16.6641216,64.4656525,-0.3471575,10.4290895,-12.1553001,127.8931274,-28.6030540,107.7251892
4080,0.3926471,-0.0742199,8.6095057,-84.3053436,-16.1526718,69.1984711,1.5059452,10.7594872,-13.9748840,107.3893127,-6.7328243,122.2595444
4090,0.7852941,-0.3591284,9.8520899,-92.9694672,-10.0916033,73.9312973,3.6032550,11.0180597,-15.2270451,79.2061081,8.4045801,129.5038147
4100,1.1204807,-0.4620786,11.0731258,-93.1068726,-1.9923664,74.8167953,5.0182209,11.1066446,-15.6987000,45.0687027,11.4122133,130.7557220
4110,1.3718705,-0.8307837,11.6213961,-83.7175598,0.7022901,73.8244247,6.1315193,11.2790270,-15.0163565,10.2519083,4.5496182,128.0305328
4120,1.4580613,-0.8188128,12.0403786,-68.6870193,-2.9236641,71.3893127,7.6757712,11.3795824,-13.5032282,-13.8167934,2.8854961,125.3282471
4130,1.9081690,-0.5123565,12.2223368,-51.6030540,-9.9389315,66.1297684,9.7467451,10.9342632,-12.2127600,-26.3511448,18.2671757,121.6717529
4140,2.5282640,-0.2729376,12.2319136,-34.0763359,-16.3969460,56.5419846,12.0882626,10.4937325,-11.6860390,-31.7938938,51.0687027,110.6870193
4150,2.8203552,-0.0981618,12.0762920,-17.4732819,-20.6564884,45.8549614,13.2925396,10.1705170,-11.5352049,-37.5648842,78.6641235,92.3740463
4160,3.1363883,0.0407012,11.6740675,-3.3282442,-20.7786255,34.5114517,13.3188763,10.0172882,-11.1617117,-49.2595406,92.6488571,69.8778610
4170,3.4236910,0.2585725,11.1473465,6.0458016,-17.7404575,23.1832066,12.9022865,9.7611103,-10.3452930,-64.7251892,91.3664093,44.2824440
4180,3.5745249,0.5123565,10.7116032,10.9312973,-12.5725193,10.9618320,12.2558556,9.3421268,-9.3756456,-80.3282471,78.7709961,17.7786255
4190,3.7038112,0.5386927,10.1729107,13.3511448,-8.6412210,-2.0534351,11.7434988,8.9135675,-8.3174143,-93.9923630,66.2824402,-8.6259546
4200,3.6535332,0.5339043,10.0819321,14.2442751,-8.3129768,-14.0687027,10.7499104,8.5664101,-7.1490498,-103.6259537,58.7786255,-32.1297722
4210,3.4691806,0.1221037,11.7626524,18.3358784,-21.3664131,-26.9847336,9.4977493,8.3772688,-5.9758968,-108.8549652,60.3969460,-51.1755714
4220,3.4619980,0.1843526,14.7721491,40.7557259,-40.4961815,-41.3129768,8.1546097,8.2623482,-4.7859845,-108.4580154,66.8702316,-65.0992355
4230,3.2944047,-0.5410868,16.5246964,81.6412201,-57.7557259,-53.8778610,6.7300668,8.1977043,-3.9456241,-104.5343475,68.6183243,-74.7862625
4240,3.2489152,-0.7182568,15.8040447,123.9389343,-58.3740463,-67.3893127,5.8035154,8.0085640,-3.6942344,-98.4427490,68.8931274,-82.9618301
4250,3.0262554,-0.1939293,12.7969427,150.4198456,-46.6641235,-72.1526718,5.0756817,7.9319496,-3.7085996,-93.0457993,73.7328262,-87.8778610
4260,2.8634505,0.2274480,9.2822723,152.7022858,-27.9770985,-75.0534363,4.7285242,7.9127960,-3.7253587,-88.8091583,82.5343475,-94.3816757
4270,2.0326669,0.3998296,6.6438756,133.3969421,-15.5038166,-74.0534363,4.2137733,7.5991573,-4.3023586,-87.5038147,85.3282471,-104.0000000
4280,1.5825592,0.2753318,4.2640514,102.0839691,20.8702297,-67.3511429,3.4739690,7.3812861,-4.7788019,-93.1374054,78.8931274,-114.7938919
4290,0.1077385,1.4245427,5.3965030,64.1984711,23.4885502,-56.6946564,2.9711890,7.0796180,-4.6495161,-105.2442780,62.9236641,-127.3587799
4300,1.1228749,2.0542145,9.1170731,47.7175560,1.1068702,-50.9236641,2.4660151,6.8976598,-3.7923961,-117.2366409,43.3511467,-143.0839691
4310,1.6495966,1.4580613,10.9175043,60.2824440,-10.8320608,-56.6641235,1.8914096,6.5576849,-2.6599445,-125.1984711,24.2824421,-158.1984711
4320,1.0773853,1.1180865,10.2279778,75.1221390,-26.1908398,-60.3587799,1.2425843,6.3924856,-1.4676381,-128.9084015,11.2442751,-174.9847260
4330,0.6560079,1.4006008,8.3078375,71.6412201,-35.0000000,-55.6030540,-0.2729376,5.8561873,-0.3854645,-129.2595367,5.9236641,-187.8778687
4340,0.6584021,2.0422437,7.2160869,55.6106873,-32.1526718,-48.9694672,-2.3486998,6.1458845,0.2585725,-126.5038147,18.7786255,-190.0686951
4350,0.8858501,2.2553265,6.9359670,37.7480927,-23.1984730,-43.4732819,-4.4244623,5.8226686,1.6352314,-114.9618301,32.4732819,-191.2595367
4360,0.8690908,2.2074428,6.6271162,20.5725193,-10.5648851,-37.4885483,-7.2663651,5.7077475,2.0733681,-103.3664093,34.5572510,-183.0076294
4370,0.5219333,1.9081690,6.9646969,5.1908398,-3.2061069,-30.4580154,-9.5719690,5.7867560,2.1380112,-99.0076370,34.8396950,-166.1832123
4380,0.6344602,1.9680238,7.0508881,-8.0305347,0.5725191,-23.5496178,-11.7434988,5.7556314,2.4827745,-101.6641235,37.8473282,-143.2671814
4390,0.6823440,1.9201399,6.8809004,-22.3740463,11.8320608,-16.6335869,-13.3236647,5.7963328,3.6631098,-104.7862625,39.1450386,-119.8778610
4400,0.4261657,1.8052188,6.8832946,-40.4351158,23.3358784,-9.2137403,-15.2438040,5.5305777,4.8602047,-103.2290039,38.0000000,-93.0992355
4410,0.5147507,1.6232605,7.3405848,-56.7557259,30.5572510,-2.5572519,-16.4696293,5.1307478,6.4283986,-98.5801544,41.9160309,-62.6106873
4420,0.5458752,1.6304430,8.0564480,-68.4809189,37.2748108,2.8091602,-17.4153347,5.2241216,8.3030491,-89.9694672,47.3282433,-29.9160309
4430,0.6799498,1.5155219,8.6526003,-75.4732819,38.2748108,6.1221375,-17.8606529,5.0206151,10.2136126,-75.3358765,50.4198456,3.0381680
4440,0.9959828,1.4915800,8.9686337,-80.3206100,40.9771004,6.7786260,-17.6212349,4.8458395,11.8320847,-54.3969460,51.7099228,33.6793900
4450,1.0558375,1.4101776,8.9494801,-85.7480927,47.5267181,6.9160304,-16.5869446,4.6231799,13.0052376,-26.7709923,51.7709923,58.2748108
4460,1.0199248,1.1994889,8.8130112,-91.1755753,52.5496178,6.8244276,-15.2797174,4.3646073,13.6492739,6.3969464,46.0228996,74.0381699
4470,0.8643024,1.0845678,8.8249826,-98.6564865,56.6717567,7.1145039,-14.1209297,4.3502421,13.5056229,41.6030540,36.6259537,81.5725174
4480,1.1875180,0.7014975,8.7531567,-104.0305328,59.3206100,5.8473282,-13.8408089,4.6662750,12.3492289,74.7938919,29.5114498,90.4274826
4490,0.8666966,1.0295014,9.2846670,-109.5190811,61.8931313,3.9847329,-13.5702658,4.8075323,10.6589317,102.7022934,19.6946564,100.5648880
4500,0.5913648,0.9528874,10.6182299,-111.1068726,43.1526718,2.5954199,-13.1129761,4.9320302,8.7675219,122.5954208,4.9236641,112.3816757
4510,0.8930327,0.5602403,11.6477318,-100.4885483,23.7099228,-1.9923664,-12.5599174,4.9559722,6.7731619,135.3282471,-9.4198475,124.5114517
4520,1.1635761,0.1340746,11.8751793,-84.3587799,12.7938929,-6.2900763,-11.6597023,4.9056940,4.8961172,140.4198456,-25.3969460,136.9084015
4530,1.1587877,-0.1244979,12.0068598,-69.8931274,6.6870227,-9.7175570,-10.1705170,4.8147149,3.4404502,140.4274750,-43.7938919,146.3816833
4540,0.7062859,-0.2394189,12.2055779,-57.0839691,-1.7175573,-12.4656487,-8.6118994,4.8386569,2.5210814,138.4274750,-61.4274826,151.8091583
4550,0.6368544,-0.3663110,12.4641504,-42.2290077,-12.4961834,-13.8396950,-7.0700417,4.5896611,1.5729824,136.8320618,-77.1755753,152.5725250
4560,0.7900825,-0.4955972,12.1265697,-26.5496178,-15.1526718,-13.5038166,-5.6311336,4.9296360,0.7613522,136.2595367,-87.6870193,151.1526642
4570,0.4979914,-0.5075682,11.3293047,-13.8473282,-16.9618320,-12.1908398,-4.1251884,5.2839761,-0.5075682,136.2519073,-100.3664093,146.8778687
4580,0.3016679,-0.7254394,11.0228481,-5.7251906,-19.3969460,-9.4656487,-2.9089401,5.4419928,-1.8722562,134.2061005,-110.1145020,141.1374054
4590,0.3758878,-0.6177009,10.4458485,-4.4885497,-14.1221371,-7.1679387,-1.7980363,5.9926562,-3.0094962,130.8625946,-116.7938919,135.4198456
4600,0.2537841,-0.6655847,10.2423429,-4.1526718,-9.5267172,-2.9312978,-0.5099624,6.5385313,-4.2927818,126.0534363,-121.8244247,129.1221313
4610,0.1268920,-0.8427547,10.1417866,-2.8854961,-7.3358779,2.1450381,0.8499373,7.2687593,-6.0740585,120.0000000,-124.8931274,124.3664093
4620,0.2825144,-0.5674229,9.9263096,-3.4198472,-5.2213740,6.4732823,2.4684093,7.9582858,-7.7523856,111.5877838,-125.1221390,121.6412201
4630,0.5961532,-0.3878587,9.9789820,-3.5267177,-4.1755724,8.9618320,4.8123207,8.9375095,-9.6964674,102.2824402,-112.1068726,121.3969498
4640,0.5099624,-0.4070122,10.1465750,-2.9770992,-3.6488550,9.1679392,7.0341287,8.9758167,-10.7738523,96.1297684,-82.1221390,121.8167953
4650,0.6057299,-0.2944853,10.1082678,-2.1221373,-3.8931298,8.8244276,10.1489687,9.3349447,-12.3612003,90.9770966,-38.8473282,118.6412201
4660,1.0007712,-0.1819584,9.8568783,-1.6259542,-4.1145039,8.4809160,12.4785156,10.0939026,-14.2717638,75.0916061,2.5267177,108.1297684
4670,0.9433106,-0.0454896,9.8736372,-1.1832061,-4.1908398,7.9083967,13.9724894,10.6637201,-15.7130651,48.0228996,24.8549614,93.6335907
4680,0.9864060,-0.0119709,9.9119444,-0.4732825,-5.5801525,6.8473282,14.5327301,11.1688938,-15.8255920,10.4885492,21.4351139,74.0000000
4690,0.8882443,-0.1197095,9.8616667,-0.6488550,-5.2442746,6.0839696,15.3299952,11.0467901,-14.5758257,-24.6488552,-1.7175573,54.4427490
4700,0.8930327,-0.1819584,10.0627785,-1.1145039,-4.1603055,5.8778625,16.6156750,10.4865494,-12.9214401,-51.3664131,-15.5419846,32.2519073
4710,1.1180865,-0.0790083,10.0771437,-0.4427481,-2.3587787,5.3969464,17.5111008,10.0915089,-10.9773588,-70.5190811,-11.3587790,4.2061067
4720,1.1875180,-0.1029501,9.9167328,-0.5496183,0.1832061,4.7480917,16.9317074,9.6797075,-8.9183559,-82.2061081,-0.0992366,-24.9618320
4730,1.1132981,-0.2011119,9.9430685,-0.3587786,1.7175573,3.9694657,15.8375635,9.2439651,-7.1490498,-88.6793900,9.6793890,-53.1221390
4740,1.0558375,-0.2082945,9.8018112,-0.3053435,2.5648854,3.8702290,14.0275564,8.9039907,-5.5904322,-91.6183243,11.9618320,-82.0076370
4750,1.0295014,-0.1628049,9.8496952,-0.4274809,2.8549619,3.4503818,12.2462788,8.4778252,-4.5106530,-93.1221390,4.7328243,-107.4961853
4760,1.0702027,-0.2226596,9.8496952,-1.2137405,3.8320611,2.9923663,10.5775290,7.9846220,-3.5601597,-93.7251892,0.7633588,-129.7480927
4770,0.9911944,-0.2920911,9.7611103,-2.1374047,4.8244276,2.6641221,8.8656836,7.4794478,-2.6264257,-91.0229034,1.7786260,-148.4274750
4780,1.0031654,-0.4070122,9.7347746,-3.0610688,6.7099237,3.0000000,7.0484939,6.8713236,-2.1547706,-85.7099228,4.8854961,-163.7862549
4790,1.0295014,-0.3447633,9.7994175,-3.9236641,7.9389315,2.8320611,5.1522956,6.4451580,-1.8243724,-80.6488571,8.0229006,-174.7862549
4800,0.9959828,-0.3208214,9.9382801,-4.2671757,7.9465647,2.0610688,3.3327117,5.9950504,-1.6639616,-77.9465637,12.5114508,-182.7328186
4810,0.9289455,-0.4548960,9.8305416,-4.1297708,7.0992365,1.7938931,1.3766589,5.7460546,-1.3503228,-76.7175598,15.8702288,-187.2824402
4820,0.9002152,-0.4525018,9.9741936,-4.2977099,6.3511453,1.6564885,-0.5075682,5.4419928,-0.7469871,-76.1068726,16.1908398,-187.7786255
4830,0.9433106,-0.4453192,10.1058741,-4.2595420,6.2290077,1.9694656,-2.1523764,5.3845320,0.0095768,-74.9312973,18.1908398,-186.6106873
4840,0.9720409,-0.5386927,10.0603838,-3.9465649,6.9694657,1.5801526,-3.7229645,5.2360926,0.6033357,-70.3053436,16.3358784,-182.9541931
4850,0.8882443,-0.4908088,9.9957409,-3.5496182,6.6106873,1.1603054,-5.2073622,5.1427188,1.2306134,-63.7480927,12.2977095,-177.6793823
4860,0.7900825,-0.4788379,9.9550400,-2.9160306,3.6564887,0.5725191,-6.5169835,5.5497313,1.3551112,-56.9160309,15.0534353,-168.3816833
4870,0.8738791,-0.4309541,9.9813757,-2.0076337,0.6412213,-0.2442748,-8.1665802,5.5281835,1.3551112,-48.3893127,21.5572510,-158.2213745
4880,0.8044477,-0.4285599,9.9550400,-1.4045801,-1.2366412,-1.3740458,-9.8688488,5.6287394,1.1228749,-44.6259537,33.7480927,-139.7557220
4890,0.8188128,-0.4429250,9.9191265,-1.2366412,-1.8244275,-2.3358779,-11.4298601,6.0357518,1.3527170,-43.2748108,54.4961815,-119.0229034
4900,0.6967092,-0.4046180,9.9334917,-1.5267175,-1.3969465,-2.4274809,-12.7777891,6.0549049,2.2122312,-41.9236641,63.7709923,-94.4580154
4910,0.7948709,-0.3639168,10.0268650,-1.1679389,-0.8091603,-2.2900763,-13.3188763,6.1291251,3.0334380,-40.1755714,66.2137375,-72.9312973
4920,0.6871324,-0.3471575,10.0196829,-0.3511450,-0.5648855,-1.7251909,-13.8958759,6.2081332,4.1347651,-39.1221390,65.2442780,-53.2595406
4930,0.6320660,-0.3471575,9.9406748,0.4045801,-1.1297710,-2.2442749,-14.1472654,6.2751703,5.6383162,-35.9007645,56.6564903,-37.4427490
4940,0.5961532,-0.3782819,9.8473015,-0.2748092,-0.4961832,-0.7862595,-14.2621870,6.3206601,6.7611909,-28.5801525,41.1679382,-24.1145039
4950,0.7565638,-0.2777260,9.8137827,-1.4045801,1.0305344,-0.0152672,-14.4752693,6.4068508,7.7523856,-18.2824421,23.3587780,-10.0992365
4960,0.7374104,-0.3399749,9.9047613,-2.0992367,1.2442749,0.2595420,-14.1736012,6.4762826,8.5688038,-4.1450381,6.8625956,3.0610688
4970,0.7637464,-0.3256098,9.8353300,-2.4656489,1.0458015,0.0687023,-12.8927097,6.5050125,8.8680773,35.8625946,-17.4198475,21.8167934
4980,0.6775556,-0.3471575,9.9861641,-2.6106870,0.9312977,0.0229008,-12.5647058,6.4930420,8.1641865,57.8549614,-21.4656487,30.4732819
4990,0.6368544,-0.3926471,10.0436249,-2.1145039,0.4732825,-0.0992366,-12.1457233,6.6893654,6.9096308,75.2519073,-22.0610695,41.2671738
5000,0.6751614,-0.3256098,9.9957409,-1.9236641,-0.5419847,-0.4580153,-11.6908274,6.8809004,5.7771792,87.0381699,-22.8091602,52.5877876
5010,0.6129125,-0.3854645,9.9023676,-1.5343511,-2.3206108,-0.1374046,-10.8169479,6.9862447,4.4220681,95.1374054,-29.4045811,63.6793900
5020,0.5674229,-0.4118006,9.9550400,-1.1068702,-3.5572519,0.1832061,-10.0532017,7.0604649,3.4619980,99.9923630,-38.5267181,72.1603088
5030,0.6536137,-0.4357425,9.9789820,-0.3816794,-4.7709923,0.6793893,-8.8896255,7.1131368,2.4444675,101.8473282,-50.8015251,78.3435135
5040,0.6727672,-0.4261657,9.9813757,-0.0839695,-5.8473282,0.7328244,-7.8816719,7.2065101,1.4676381,100.4503784,-62.4961815,80.7022934
5050,0.7445929,-0.4118006,9.8712435,-0.0687023,-6.0916033,1.1297710,-6.8641410,7.3908629,0.7685348,98.6717529,-73.5572510,80.7786255
5060,0.7445929,-0.4525018,10.0053177,-0.4427481,-5.8931298,1.7557251,-6.1291251,7.4626884,0.0574605,97.4809189,-82.4274826,78.6946564
5070,0.7086801,-0.3471575,10.0340481,-0.2824427,-6.5496182,2.2824428,-5.4324160,7.6997132,-0.6799498,97.4351120,-87.3740463,77.2137375
5080,0.8092360,-0.4453192,9.9837704,0.3358779,-7.0610685,2.2519083,-4.7285242,7.8840661,-1.5011568,96.9312973,-91.7328262,73.8167953
5090,0.7996593,-0.4261657,9.9909525,0.6106870,-7.3893127,2.2213740,-4.0725164,8.2024927,-2.2601149,93.6946564,-95.2213745,69.8931274
5100,1.0007712,-0.4189832,10.0651722,0.8549618,-8.4961834,2.0763359,-3.5721307,8.6669655,-3.1172347,87.5343475,-102.3587799,65.4122162
5110,1.0295014,-0.4309541,9.9765873,1.1068702,-8.7328243,1.7328244,-3.6655040,9.0260944,-3.2920105,85.4503784,-112.9160309,63.7633591
5120,1.0199248,-0.3950413,9.8927908,1.0992366,-8.1832066,1.1068702,-2.8754215,9.4977493,-4.2544746,82.2213745,-118.8396912,64.6106873
5130,1.0486550,-0.4381367,9.8065996,1.2671756,-8.0229006,0.3435115,-2.0470319,9.8377247,-5.3821378,77.4961853,-122.0534363,65.2290039
5140,1.0079538,-0.3854645,9.8305416,0.4351145,-8.8625956,0.0229008,-1.2138541,10.2303715,-6.0836353,72.5648880,-120.3969498,69.1068726
5150,0.9888002,-0.3974355,9.7970228,-0.5648855,-8.9923668,-0.2137405,0.0574605,10.6637201,-7.2543941,68.0305328,-113.4656525,70.4351120
5160,0.9193687,-0.4453192,9.8951855,-0.7938932,-8.7480917,-0.5648855,1.0007712,10.9103212,-8.4993725,60.2977104,-110.0229034,71.8091583
5170,0.8571198,-0.4261657,9.9287033,-0.0916031,-8.8778629,-0.3282443,2.0494261,11.2646618,-9.4809904,48.5496178,-105.5038147,72.1755753
5180,0.8116302,-0.3902529,10.0340481,0.5038168,-7.6335878,0.3587786,2.9161227,11.8129311,-9.8401184,37.5725174,-96.4351120,72.8244247
5190,0.7445929,-0.4525018,9.9430685,0.4580153,-4.3816795,1.0916030,3.9312592,11.8536320,-10.3907824,28.7938938,-81.8702316,74.5954208
5200,0.7206510,-0.3639168,9.9813757,0.0000000,1.4809160,2.7633588,4.8985114,11.9805241,-10.9246864,20.8015270,-64.5419846,76.1832047
5210,0.5961532,-0.2801202,9.8018112,-1.6030535,7.3053436,4.7251906,5.4060798,12.2630386,-11.6525202,8.3664122,-50.2366409,75.7099228
5220,0.7278336,-0.3423691,9.8927908,-2.7480917,13.7404585,7.5877862,5.7364779,12.1122046,-11.9853125,-7.2671757,-42.1145020,76.8931274
5230,0.7230452,-0.2896969,9.9191265,-2.7938931,15.4732828,10.5343513,6.3015065,11.8416615,-12.0044661,-23.5038166,-36.4122124,77.4122162
5240,0.9600700,-0.2250538,9.9789820,-1.9007634,15.5267172,12.4809160,6.8234401,11.5375986,-11.1329813,-38.1450386,-31.0381680,74.3206100
5250,1.2401901,-0.0837966,9.9670105,-0.7709923,13.7175570,11.5343513,7.3381906,11.1784706,-10.1250277,-50.1679382,-33.1068687,67.0916061
5260,1.4628497,-0.1029501,9.8137827,-0.2671756,11.7786255,8.9389315,8.3700867,10.6038647,-9.6892843,-62.2442741,-43.6106873,52.7633591
5270,1.4700323,-0.1436514,9.7395630,-0.7938932,9.0916033,5.5954199,9.2272062,10.1369982,-9.4211359,-75.9847336,-52.9236641,31.5190830
5280,1.4293311,-0.2585725,9.6437950,-2.7480917,4.2442746,0.0610687,9.5480280,8.9973640,-8.7387915,-103.8091583,-38.8549614,-18.9007626
5290,1.2330076,-0.3495516,9.6725254,-2.8931298,0.0076336,-2.0076337,8.5209198,8.4921904,-7.9080076,-114.6946564,-18.8396950,-43.5648842
5300,1.2593436,-0.3974355,9.6773138,-2.6259542,-4.5572519,-4.1679387,6.8785062,8.3676920,-6.8090749,-122.4351120,-2.9007633,-65.7175598
5310,1.2162483,-0.5195391,9.6821022,-3.1068702,-9.5343513,-6.0610685,5.5257893,7.9822278,-5.7747850,-127.5343475,0.3587786,-82.8015289
5320,1.0582317,-0.5698171,9.8113880,-3.5877862,-14.0839691,-7.6641221,4.6279683,7.7045016,-4.9990678,-132.6564941,2.6717558,-98.1297684
5330,0.9457048,-0.5698171,10.0005293,-2.6412213,-17.5496178,-8.9083967,3.4117200,7.4315639,-3.7971845,-137.1374054,6.5038166,-111.1068726
5340,1.0199248,-0.6009415,9.9765873,-2.7938931,-16.2290077,-9.5954199,2.1308286,7.1251078,-2.6431851,-139.2977142,13.1374044,-121.2366409
5350,0.9433106,-0.6248835,10.1609402,-5.2366414,-8.1679392,-9.5114508,0.7086801,6.8114691,-1.6974803,-138.0763397,17.4427490,-127.6335907
5360,0.8188128,-0.5913648,9.8832140,-1.1755725,-1.7938931,0.4427481,-8.8201942,4.7213416,6.8545642,-95.8091583,36.0152664,-63.8778610
5370,0.7110743,-0.5099624,9.9287033,-1.6412214,-1.8702290,1.7862595,-8.8489246,4.7213416,7.2615767,-92.9923630,27.6946564,-59.1374054
5380,0.7517755,-0.5027798,9.9071560,-1.4656489,-3.3969467,2.6183207,-9.2272062,4.4029145,7.8697009,-89.3740463,21.7709923,-53.4198456
5390,0.8116302,-0.4764437,9.8233595,-1.6717557,-4.0076337,3.3358779,-9.6844959,4.2496862,8.5951405,-84.7251892,24.6946564,-42.1679382
5400,0.7493813,-0.4572902,9.9334917,-1.4274809,-4.6564884,3.5190840,-10.0412302,4.2041965,9.7156210,-75.8778610,32.2977104,-30.3358784
5410,0.8714849,-0.4309541,9.9263096,-1.2366412,-6.1679387,3.4885497,-10.0053177,4.1730723,10.6134415,-62.0152664,35.4503822,-19.3053436
5420,0.9888002,-0.4548960,10.0101061,-1.0534351,-6.9541984,3.2671757,-9.6868906,4.0749106,11.2167778,-44.2519073,32.8702278,-10.6870232
5430,1.1109039,-0.4357425,10.0148945,-0.4122137,-6.3664122,2.6335878,-9.4498653,4.1539187,11.6429434,-25.5954189,27.2900772,-5.3664122
5440,1.0725969,-0.4788379,9.8951855,-0.5419847,-5.6259542,2.1984732,-9.0787668,4.2257442,11.6166077,-8.6335878,21.5572510,-1.3511450
5450,1.0606259,-0.4309541,9.9095497,-0.1908397,-6.5801525,2.1221373,-8.8201942,4.3310885,11.3077564,6.8091602,16.9694653,2.0534351
5460,1.1420283,-0.4333483,9.9502516,0.3740458,-8.9236641,1.8167939,-8.1330614,4.6566987,10.6493549,34.0381660,3.7786260,8.9618320
5470,1.2904681,-0.4453192,9.8880024,0.5267175,-8.0076332,1.2748091,-7.1298962,4.9990678,9.5097208,57.3740463,-8.9007635,11.7404585
5480,1.3766589,-0.3064562,9.8473015,-0.1526718,-6.3206105,0.8778626,-7.0030041,5.1642666,8.9973640,67.3053436,-12.7175570,12.2061071
5490,1.3359578,-0.3280039,9.9023676,-1.0152671,-4.6183205,0.1526718,-6.7587967,5.3534074,8.4490948,76.8473282,-19.0992374,13.7480917
5500,1.3934183,-0.3806761,9.8377247,-1.7022901,-2.9389312,-0.2824427,-6.5361371,5.4395986,7.8673067,84.7022934,-24.8702297,14.2519083
5510,1.3790531,-0.2920911,9.8281479,-2.0839694,-0.8931298,-1.3816794,-6.3517847,5.4683285,7.3884687,91.6412201,-31.6793900,14.6717558
5520,1.2569494,-0.3112446,9.9119444,-1.6106870,0.4427481,-2.2366412,-6.1722202,5.6024032,7.0125809,99.7328262,-37.3893127,14.5114508
5530,1.1994889,-0.3351865,9.8281479,-2.1068702,2.0687022,-2.1603053,-5.9902620,5.6933827,6.4451580,106.7633591,-43.6183205,13.2671757
5540,1.0869620,-0.3040621,9.7587166,-3.0305343,4.3969464,-1.5648855,-5.8561873,5.8681583,5.9758968,112.7251892,-51.7022896,10.4045801
5550,1.0127422,-0.3208214,9.7347746,-4.0076337,6.9923663,-0.5877863,-5.9950504,6.0453281,5.3797436,117.8015289,-64.3129807,6.1450381
5560,1.0534433,-0.4812321,9.7874460,-5.5572519,10.5496187,0.0458015,-6.2703824,6.1794028,4.8123207,122.3587799,-77.9312973,2.9923663
5570,1.1013272,-0.4213773,9.9119444,-7.1984735,14.2824430,1.2061069,-6.3326311,6.2775645,4.1251884,125.8931274,-93.4732819,1.1984733
5580,1.0821736,-0.5219333,9.9837704,-8.4045801,16.8931293,2.2824428,-6.3781209,6.3422079,3.3973548,127.3893127,-105.9312973,1.3282443
5590,0.9864060,-0.5267217,10.1465750,-8.0610685,16.8320618,2.1297710,-6.5169835,6.3637557,2.7581062,127.5877838,-110.6946564,2.0610688
5600,1.0510491,-0.4022238,10.1298151,-6.3358779,13.4503813,0.6641222,-6.7013364,6.3422079,1.9392935,127.6488571,-111.2137375,6.0152674
5610,1.1587877,-0.5793939,10.1561518,-4.8091602,11.1297712,-0.7709923,-6.3374195,6.7013364,1.0893562,124.3282471,-107.0229034,10.5648851
5620,1.0486550,-0.5913648,9.8951855,-3.7633588,7.4351144,-2.3587787,-6.1315193,6.2943239,1.3335636,122.2366409,-103.8854980,14.1068707
5630,0.8475431,-0.5913648,9.8712435,-3.2366412,4.3282442,-3.6412213,-5.4132624,6.4020624,1.2521610,121.7633591,-105.1374054,13.2824430
5640,0.7326220,-0.6512195,9.8688488,-3.1908398,2.4809160,-3.4427481,-4.8865409,6.6295104,1.0773853,121.6412201,-112.7099228,4.7480917
5650,0.5722113,-0.6607963,9.9191265,-3.0458016,0.0305344,-2.9160306,-4.6950054,6.7276726,0.8595140,120.7633591,-125.7480927,-4.9083967
5660,0.5099624,-0.6200951,10.0101061,-2.6641221,-2.0305343,-2.0000000,-4.5130472,6.9766679,0.2178712,119.5190811,-134.2366486,-14.3816795
5670,0.5913648,-0.6392486,9.9885588,-2.0992367,-3.3969467,-0.7251908,-4.7740140,7.0604649,0.2825144,118.2061081,-138.8167877,-23.1374054
5680,0.6057299,-0.6799498,10.0029240,-1.3740458,-4.1068702,0.3893130,-4.8937230,7.5057840,-0.2873027,118.4122162,-141.5725250,-29.8244267
5690,0.6991033,-0.6584021,10.0316534,-0.5801527,-4.7633586,1.5496184,-5.2336984,8.0899658,-0.7326220,121.1984711,-144.2671814,-31.6335869
5700,0.8523315,-0.6057299,10.0340481,0.5877863,-5.6641221,2.4656489,-5.5018473,8.4610653,-1.5562232,126.0457993,-139.8015289,-28.4961834
5710,1.0366840,-0.4788379,9.8736372,1.3664122,-6.0534353,2.6717558,-5.6550756,9.3924055,-2.3391230,132.6030579,-126.0763321,-21.1374054
5720,1.1947005,-0.4501076,9.8520899,0.7022901,-4.8778625,1.7938931,-5.7604198,10.0962973,-3.8354914,142.0229034,-105.8396912,-8.3129768
5730,1.2234308,-0.4357425,9.7850523,0.4503817,-3.8778627,0.8473282,-5.5593081,10.5823174,-5.8274570,151.2213745,-78.3664093,7.9236641
5740,1.2497669,-0.4596844,9.8113880,-0.3816794,-2.9923663,-0.2595420,-5.0397687,10.9103212,-7.8505473,152.9618378,-50.0076332,23.8778629
5750,1.2306134,-0.4572902,9.8257532,-1.2213740,-2.4656489,-1.5419847,-4.1634955,11.0228481,-10.3285332,142.7862549,-31.4961834,36.4503822
5760,1.1132981,-0.4453192,9.7970228,-1.9541985,-2.0000000,-2.5267177,-3.1148405,11.7506819,-12.3683825,118.1450348,-27.5801525,42.2748108
5770,1.0271072,-0.5147507,9.9167328,-2.4656489,-1.2290076,-2.6793892,-2.4372849,11.9613705,-13.1225519,85.8854980,-32.8473282,43.5038185
5780,0.8786675,-0.5362985,9.8281479,-2.7709923,0.3587786,-2.2519083,-1.5586174,12.0595322,-12.7418766,52.3129768,-48.0916023,41.1603050
5790,0.8403605,-0.5793939,9.9263096,-2.9389312,0.7633588,-1.2748091,-0.8188128,12.1553001,-11.6980095,24.8320618,-60.3587799,35.1832047
5800,0.7757174,-0.5434810,9.9358864,-2.9007633,1.5419847,0.0992366,-0.1819584,12.2223368,-10.8528605,5.4580154,-61.6106873,28.9007626
5810,0.7972651,-0.5674229,9.9670105,-2.4656489,1.2519084,1.3664122,0.4501076,11.9326401,-10.0915089,-7.9312978,-55.0152664,23.1374054
5820,0.8259954,-0.5530578,10.0316534,-2.3816793,1.1374046,2.1832061,0.9145803,11.6716738,-9.7539282,-19.7862587,-41.7786255,15.4885492
5830,0.8882443,-0.5530578,9.9765873,-2.3664122,2.3740458,2.8625953,1.0486550,11.3125448,-9.2463598,-33.1832047,-29.9389305,7.8244276
5840,0.9313397,-0.5410868,9.9430685,-3.3664122,4.9389315,3.3816793,1.0079538,10.9031391,-8.7004843,-47.4198456,-23.4885502,-1.5343511
5850,1.0079538,-0.5099624,9.9215212,-3.8320611,7.9236641,3.9389312,0.7421987,10.5751352,-7.9175844,-61.4122124,-20.9465656,-11.1374044
5860,1.0654143,-0.5722113,9.7682934,-4.5648856,9.5190840,4.0687022,0.3950413,10.0675669,-6.8785062,-75.0839691,-22.1526718,-20.5496178
5870,1.1420283,-0.4453192,9.8377247,-4.7404580,8.4274807,2.8320611,-0.1963235,9.8377247,-6.1434903,-87.6641235,-24.9618320,-29.0305347
5880,1.1516051,-0.5003856,9.8568783,-4.7786260,7.5038166,0.9694657,-0.6823440,9.4498653,-5.0230093,-97.7786255,-27.9694653,-35.3587799
5890,1.0917504,-0.5315101,9.8640604,-4.3740458,6.7709923,-0.7633588,-0.9744351,9.1290445,-4.2903876,-104.6641235,-25.2290077,-40.2900772
5900,1.0295014,-0.4836263,9.8856087,-4.3587785,5.8625956,-2.0687022,-1.2138541,8.8369532,-3.7397239,-109.0839691,-15.7099237,-44.5725174
5910,0.9289455,-0.5817881,9.9574337,-4.2595420,5.3740458,-3.0076337,-1.8650736,8.3533268,-3.1627243,-111.8778610,0.6717557,-48.4045792
5920,0.7517755,-0.6177009,9.9598284,-4.4885497,4.0000000,-3.3053436,-2.5402350,8.2144642,-2.6360025,-112.1450348,22.8244267,-49.1984749
5930,0.6967092,-0.6129125,9.9119444,-4.3511453,1.9923664,-2.5954199,-3.3159523,8.1522150,-2.0613971,-110.0839691,44.8931313,-47.4122124
5940,0.6105183,-0.6105183,10.0508070,-3.6946564,-0.6946565,-1.6335878,-4.1036406,8.2048874,-1.7908537,-107.1297684,65.8702316,-43.8931313
5950,0.6248835,-0.7278336,10.0867205,-2.4503818,-1.7251909,-0.8091603,-4.6231799,8.4299412,-1.3479286,-103.9923630,85.1221390,-37.3053436
5960,0.6799498,-0.7469871,10.0292597,-1.6412214,-1.1984733,0.3893130,-5.2480631,8.1570034,-1.1755470,-99.9618301,101.2977066,-30.7404575
5970,0.7733232,-0.6895266,9.9861641,-1.0229008,0.6641222,1.5496184,-5.7101417,7.9726510,-1.1611819,-97.0076370,113.7099228,-24.6335869
5980,0.7757174,-0.6440369,9.8281479,-1.1145039,1.7480916,2.1221373,-6.0501165,7.8002691,-1.4915800,-99.1832047,117.1526718,-19.9694653
5990,0.8690908,-0.5961532,9.8568783,-1.6564885,3.8854961,2.0916030,-6.4044566,7.6302819,-1.7238164,-106.0305328,120.2519073,-14.8931293
6000,0.9840119,-0.5722113,9.8449068,-2.6870229,5.6870227,2.0000000,-7.0149751,7.5273318,-1.2282192,-112.7328262,131.4122162,-7.4198475
6010,0.9624642,-0.5769997,9.8520899,-3.6412213,6.0305343,1.1755725,-7.7260494,7.4148049,-0.3423691,-114.5419846,147.0229034,2.2366412
6020,1.0031654,-0.5482694,9.9167328,-3.7633588,5.0229006,0.2137405,-8.2886839,7.2879128,0.2920911,-113.2671738,165.5877838,12.6412210
6030,0.9409165,-0.6727672,10.0029240,-3.4274809,3.7633588,-0.6641222,-8.6885138,7.2831244,0.9983770,-110.3358765,183.1374054,23.9389305
6040,0.8499373,-0.5985473,9.9526453,-3.1679389,4.3435116,-1.0610687,-8.9638453,7.1514440,1.6136837,-105.4961853,194.1450348,34.3893127
6050,0.9002152,-0.7278336,9.9861641,-2.8167939,5.3969464,-1.0610687,-9.4570484,7.0820122,1.5897418,-101.6870193,209.4580078,44.1374054
6060,0.8475431,-0.8307837,9.9646168,-3.1374047,6.1145039,-1.0381680,-10.5416164,7.0149751,2.2385671,-98.4580154,243.9007568,59.3893127
6070,1.0031654,-0.8140244,10.1034794,-3.6030533,8.8396950,-0.2977099,-11.2933912,6.8904772,2.7413468,-94.6870193,250.1297760,78.1908417
6080,0.7924767,-1.0582317,9.9957409,-4.1603055,14.5725193,1.8320611,-11.9853125,6.6678176,3.7229645,-90.6412201,250.1297760,94.4961853
6090,0.7924767,-0.9672526,9.7323799,-6.0839696,21.8473282,5.6412215,-12.6461086,6.6151457,5.1666608,-87.0381699,250.1297760,108.7404556
6100,0.7278336,-0.8523315,9.4594421,-10.8931293,30.4198475,8.9465647,-12.6461086,6.1937680,6.4762826,-83.6030502,250.1297760,118.5496216
6110,0.8786675,-0.5985473,9.5145092,-15.0992365,33.9771004,10.4198475,-12.5814657,5.9615316,7.8337879,-77.1221390,250.1297760,126.0839691
6120,0.9888002,-0.4812321,9.4953556,-17.2137413,36.4122124,9.4732828,-11.7315283,5.9950504,9.0548248,-67.9389343,238.8854980,125.2824402
6130,0.6536137,-0.7086801,9.0739784,-18.6259537,35.0381660,6.5419846,-11.6884327,5.4946647,10.0532017,-54.3664131,212.0534363,120.9542007
6140,0.8140244,-0.4644727,9.4785957,-21.6183205,35.4656487,4.2213740,-12.1912127,5.6024032,10.6709023,-40.5419846,190.6106873,123.0687027
6150,0.9409165,-0.5147507,9.8473015,-20.6030540,30.5267181,-1.0229008,-12.0092545,5.4276276,11.8560257,-16.6717548,160.1145020,121.2442780
6160,0.6584021,-0.5123565,10.3213511,-19.8244267,25.9694653,-6.9618320,-11.6118193,5.5521255,11.4442253,6.0305343,138.5267181,124.0152664
6170,0.3112446,-0.7996593,10.6038647,-14.8091602,20.9083977,-11.1068707,-11.3077564,5.7245069,10.8624372,26.8549614,119.2900772,129.1068726
6180,-0.1699875,-1.1659702,9.8305416,-0.7328244,-7.1679387,5.0992365,-2.8658447,6.3039007,0.4716553,96.2137375,-49.2290077,137.0152740
6190,0.0933734,-1.1013272,10.1130562,0.1297710,-8.0152674,6.1221375,-2.3415172,6.6414814,-0.6105183,94.5496216,-45.8015251,133.1984711
6200,0.3687052,-1.0271072,10.1082678,1.7328244,-8.0534353,6.3511453,-1.9177457,7.1753860,-1.4700323,89.2748108,-49.4045792,131.6793823
6210,0.6272776,-0.9337339,10.0053177,2.5648854,-5.3969464,6.0000000,-1.5729824,7.5464849,-2.4061604,84.0916061,-57.5801544,132.2519073
6220,0.8547257,-0.8331779,9.8760319,2.4122138,-2.7175572,4.8625956,-0.6177009,7.8146343,-2.9472473,77.8854980,-64.6030502,135.1603088
6230,0.9720409,-0.7829000,9.7778702,0.7633588,-1.3969465,2.7480917,0.3902529,7.8888540,-3.4596038,74.0457993,-67.5572510,140.1297760
6240,0.9457048,-0.8164186,9.7802639,-0.1374046,-0.7633588,-0.1297710,1.4700323,7.9582858,-4.4412212,71.3282471,-65.4122162,145.3358765
6250,0.7589580,-0.8547257,9.6988611,-0.7175573,-0.4809160,-2.5190840,2.7940190,8.0516596,-5.3749552,66.0610657,-56.6717567,150.1297760
6260,0.5698171,-0.8786675,9.6581602,-2.4656489,1.0229008,-4.0763359,4.0820932,8.4945841,-6.3685441,58.5725174,-49.8473282,155.8854980
6270,0.4572902,-0.9672526,9.8856087,-3.4809160,2.9083970,-4.5419846,5.6790175,8.6478119,-7.0317345,49.6030540,-41.2137413,160.8320618
6280,0.2035061,-1.0007712,9.8927908,-4.0152674,4.3129773,-4.5877862,7.4171991,8.6526003,-7.4962072,41.5954208,-27.9694653,161.8167877
6290,0.0837966,-1.0342898,9.8544836,-4.1832061,5.1221375,-3.9770992,9.3397331,8.8417416,-8.2240410,32.2290077,-13.5114508,158.2213745
6300,-0.0023942,-1.0965388,10.0819321,-3.9236641,3.7404580,-3.5801528,10.8863792,8.5568333,-8.2264347,25.1068707,5.3435116,149.6412201
6310,-0.1005560,-1.0797794,10.0101061,-2.6259542,2.5954199,-2.9618320,12.3085279,8.7172441,-8.6669655,15.3740454,26.3664131,135.6183167
6320,-0.2394189,-1.1156923,9.9765873,-1.0839695,1.0076336,-2.1297710,13.8599625,8.6789370,-9.1074963,1.7786260,45.5954208,116.6030502
6330,-0.2561783,-1.1396341,9.9646168,-0.3740458,-0.2442748,-1.5038168,14.8750992,8.5304966,-9.3708572,-14.7480917,54.1908379,92.6946564
6340,-0.2585725,-1.1324517,9.7850523,-0.1984733,-0.8244275,-0.1832061,15.5646257,8.5304966,-9.2319946,-35.7404594,42.8931313,63.4503822
6350,-0.2489957,-1.1156923,9.7802639,-0.8015267,-1.2900764,1.1603054,15.9213600,8.4778252,-8.5448618,-58.7175560,22.1450386,29.4274807
6360,-0.1604107,-1.0702027,9.8832140,-1.0992366,-3.5038168,1.8549619,16.0506458,8.2791071,-7.1945391,-78.0992355,-2.1068702,-5.4351144
6370,-0.0430954,-1.0079538,9.9310980,-0.3740458,-5.8702292,2.1755726,16.0338860,7.9439206,-5.8705525,-91.3206100,-16.5267181,-41.2595406
6380,0.1699875,-1.1132981,9.9981356,0.3587786,-7.0687022,2.0763359,15.5861731,7.6542239,-4.5465660,-99.8167953,-21.6335869,-76.5801544
6390,0.2250538,-1.0342898,10.0196829,1.2366412,-7.7938933,1.9465649,14.5255470,7.4195933,-3.6678982,-104.8549652,-23.4503822,-111.1603088
6400,0.3040621,-0.9720409,10.0244713,1.8778626,-7.5038166,1.5954199,12.9238348,6.9575148,-2.8610563,-108.0763321,-22.4122143,-141.4198456
6410,0.3184272,-0.9337339,9.9191265,2.2900763,-8.2442751,1.3740458,11.3891592,6.8306227,-2.2433555,-110.9083939,-24.5496178,-167.8625946
6420,0.3639168,-0.9480990,9.8353300,2.3511450,-8.6030531,1.1526718,9.9167328,6.3230543,-1.6759326,-114.3587799,-28.3206100,-191.4961853
6430,0.3878587,-0.8906385,9.7778702,2.1145039,-8.6335878,0.7404580,8.4083929,6.0309634,-0.8738791,-116.5343475,-28.4961834,-212.4503784
6440,0.4764437,-0.9241571,9.7874460,1.2442749,-5.9160304,0.8931298,6.7324610,5.7269011,-0.4405309,-116.9236679,-26.6717548,-227.1984711
6450,0.5195391,-0.9528874,9.7994175,0.6335878,-2.9389312,0.5801527,4.6926112,5.6790175,0.5841822,-114.1450348,-23.4503822,-236.4503784
6460,0.4668669,-0.8164186,9.7898407,-0.3053435,-0.7251908,0.4580153,2.7078283,5.6431046,1.0438666,-107.2977066,-22.9465656,-240.8778687
6470,0.4165890,-0.9217629,9.8113880,-0.9465649,0.2671756,0.2442748,1.0295014,5.7364779,0.7781116,-101.0000000,-22.5648861,-240.0915985
6480,0.4525018,-0.9265513,9.8975792,-1.2213740,0.5038168,-0.0381679,-0.9145803,5.9639258,0.8068419,-97.7709961,-17.4885502,-233.4732819
6490,0.4357425,-0.9313397,9.9646168,-1.4274809,0.6106870,-0.2213740,-2.8251436,6.1458845,1.1348459,-93.8091583,-14.4045801,-221.2213745
6500,0.3208214,-0.9600700,9.9047613,-1.3969465,-0.6641222,-0.8778626,-4.1946201,6.3709383,1.6639616,-86.9694672,-14.4656487,-204.7175598
6510,0.2202654,-1.0103480,9.9837704,-1.5648855,-0.7251908,-0.9923664,-5.4108682,6.6271162,2.0422437,-78.3969498,-17.2900772,-186.6183167
6520,0.2298422,-0.9935886,9.8927908,-1.0687023,-0.7251908,-0.7175573,-6.1865854,6.9814563,2.2672975,-70.9083939,-22.6488552,-168.3664093
6530,0.1699875,-1.0199248,9.9694052,-0.8396947,-1.3206106,-0.2213740,-6.6390872,7.2855186,2.6934631,-64.2595444,-28.7862587,-149.1832123
6540,0.3088504,-1.1396341,9.8999729,-0.5419847,-2.0839694,0.4656489,-6.7444315,7.3381906,2.7150109,-57.7633591,-38.3816795,-132.6335907
6550,0.2513899,-1.0103480,9.9119444,-0.6335878,-2.0305343,1.0229008,-6.5002246,7.6063399,2.4085546,-55.2900772,-40.7328262,-116.8702316
6560,0.3998296,-0.9672526,9.8018112,-0.2519084,-1.7328244,0.8625954,-5.9136481,7.8697009,1.7453641,-60.0152664,-19.4122143,-100.3053436
6570,0.4764437,-0.8762733,9.8520899,-0.6259542,-0.7328244,0.3587786,-6.6845770,7.9271612,1.8507085,-65.0381699,29.7862587,-83.0687027
6580,0.5075682,-0.9073978,9.7778702,-1.2595420,-0.1755725,-0.2595420,-8.7747040,7.8888540,2.8035958,-67.1526718,81.4580154,-58.5343513
6590,0.3519458,-0.8762733,9.9167328,-1.1984733,-0.6717557,-0.9083970,-11.2862091,8.0277176,4.6710634,-60.5343513,127.6412201,-27.6335869
6600,0.2633608,-0.8978211,9.8903971,-1.0000000,-2.4809160,-0.9389313,-14.4321737,7.8218169,6.4379754,-44.9771004,177.0839691,4.5038166
6610,0.2992737,-0.9361281,9.9382801,-0.7862595,-3.2213740,-0.9160305,-18.7824154,7.8002691,8.1210909,-26.3282452,207.6946564,44.1145020
6620,0.1891410,-1.0247130,9.8880024,-0.4045801,-2.9389312,-0.8778626,-19.6131992,7.9582858,9.3924055,-7.0992365,193.5877838,86.4580154
6630,0.2346306,-1.0534433,9.8880024,-0.2900763,-2.5954199,-0.2824427,-19.6131992,7.7021074,10.0053177,7.9312978,145.4503784,119.4809189
6640,0.1723816,-1.0941446,9.8520899,-0.4732825,-2.9312978,0.3893130,-18.3897686,7.2759418,10.0627785,18.1755733,92.3740463,139.7251892
6650,0.3639168,-1.1587877,9.8664551,-0.5877863,-2.7251909,0.6793893,-15.9189653,6.9000540,10.1058741,28.1679382,58.3282433,151.8473358
6660,0.4525018,-1.1180865,10.0220766,-0.4809160,-3.4885497,0.7938932,-14.1759958,6.3326311,10.0316534,44.4961815,40.0228996,161.0076294
6670,0.5171449,-1.1731528,9.9813757,-0.4198473,-2.6488550,0.7328244,-12.4737272,6.1434903,9.3732519,67.3358765,25.4732819,169.0458069
6680,0.5171449,-1.1132981,10.0316534,-0.3053435,-2.3358779,0.2977099,-10.9246864,5.8418221,7.7452030,89.0076370,8.7862597,173.8244324
6690,0.5674229,-1.0031654,10.0077124,0.0916031,-2.3129771,-0.5267175,-9.5336628,5.6431046,6.0932121,105.8091583,-3.3664122,175.3893127
6700,0.5339043,-0.9816177,9.9646168,0.4198473,-2.8015268,-1.1526718,-8.5376797,5.4515696,4.3191175,114.5877838,-8.5801525,178.4503784
6710,0.5458752,-0.8978211,9.8065996,0.5419847,-2.8320611,-1.8167939,-7.9008250,5.2887645,2.8969693,118.6335907,-9.9923668,185.1068726
6720,0.4644727,-0.9121862,9.8305416,0.1374046,-2.0687022,-2.1526718,-6.8354111,4.9176650,1.5897418,120.5572510,-19.0229015,194.3129730
6730,0.4453192,-0.8619082,9.7275915,-0.6183206,-0.9847328,-2.2213740,-5.2815819,4.9152708,0.1795642,116.5877838,-32.2137413,201.6412201
6740,0.3519458,-0.8786675,9.7682934,-1.1755725,-0.3969466,-2.5725191,-3.9743545,5.1666608,-0.6081241,108.4809189,-39.8167953,207.3740387
6750,0.2489957,-0.8403605,9.8832140,-1.4122137,-0.5954198,-2.2213740,-2.6575503,5.2959471,-1.1276633,103.7557220,-47.2137413,215.0458069
6760,0.1388630,-0.8499373,9.9406748,-1.3053435,-1.1374046,-1.1221374,-0.7182568,5.2911587,-1.8722562,104.1603088,-49.7633591,225.5496216
6770,0.0790083,-0.9169745,9.8712435,-1.1755725,-1.4045801,0.0610687,1.5490406,5.1834202,-2.6599445,107.5954208,-44.3206100,235.9084015
6780,0.0933734,-0.9792235,9.8257532,-1.1374046,-2.3206108,1.1755725,4.0629396,4.9870968,-3.8091555,112.3664093,-26.2671757,243.2824402
6790,0.1388630,-0.8882443,9.8903971,-0.9618320,-2.3664122,2.1221373,6.7947097,4.8506279,-4.8745699,113.2061081,-1.2824427,242.9389343
6800,0.3232156,-0.9433106,10.0244713,-0.6030535,-1.2748091,2.8167939,9.2080526,5.0469513,-5.9926562,105.7022934,18.4427490,232.3511505
6810,0.3232156,-1.0318956,9.9215212,-0.4503817,0.7022901,3.5954199,11.0803089,5.3127065,-7.3932571,87.8931274,16.6488552,212.4656525
6820,0.3710994,-0.9648584,9.8233595,-0.8015267,1.8702290,4.1603055,12.3875360,5.8466105,-8.1186962,61.9694672,-12.5496187,184.8015289
6830,0.5386927,-0.9888002,9.7323799,-1.1832061,1.7862595,4.0229006,13.3930960,6.2967181,-8.4467001,33.0916023,-49.6335869,153.0839691
6840,0.5937590,-1.0678085,9.8473015,-1.3969465,1.9694656,3.3206108,13.7857428,6.7923155,-8.3222027,5.6946564,-79.9465637,121.2900772
6850,0.7014975,-1.0606259,9.8760319,-1.3740458,2.0458016,2.5496182,14.0826225,7.1275020,-8.0181408,-14.2519083,-107.5343475,95.3053436
6860,0.6823440,-1.1204807,9.9502516,-2.0610688,2.0458016,1.4656489,15.3611193,7.2879128,-8.1857338,-22.8167934,-119.7099228,77.3969498
6870,0.7350162,-1.0869620,9.9454632,-2.0152671,0.9160305,-0.1832061,16.8957958,7.9343438,-8.3988171,-31.2824421,-95.8854980,60.4885483
6880,0.7445929,-1.0606259,10.0053177,-1.8320611,0.2595420,-1.5190840,16.3379498,8.2791071,-7.9415264,-37.6106873,-63.5419846,49.6106873
6890,0.6081241,-1.0869620,9.8951855,-1.4351145,-0.1908397,-2.5877862,18.1024666,7.2496057,-7.5871863,-43.8931313,-26.7557259,31.6183205
6900,0.4333483,-1.0941446,9.9909525,-1.3587786,-1.1068702,-3.0687022,19.1008434,7.3286138,-7.2567883,-48.9618340,0.8854962,-3.2290077
6910,0.3687052,-1.0175306,10.0627785,-0.7709923,-2.3969467,-2.7404580,19.6126022,7.1155310,-7.1801744,-54.3740463,17.2519093,-43.2290077
6920,0.2585725,-1.0342898,9.9023676,-0.0610687,-2.9847329,-2.5114503,19.6126022,7.2687593,-6.9192076,-63.4274826,16.3358784,-88.6641235
6930,0.1604107,-1.0845678,9.8329363,0.2748092,-3.0229008,-1.9160305,19.2277355,7.0676475,-6.8186517,-80.6030502,7.8396945,-136.3129730
6940,0.2250538,-1.1109039,9.7730818,0.0229008,-3.2900763,-0.9389313,17.7385502,6.6199336,-5.8968887,-99.9542007,2.0076337,-179.3740387
6950,0.2059003,-1.0845678,9.8760319,0.1908397,-3.0534351,-0.2290076,15.4975882,6.0285692,-4.2089849,-114.7862625,-5.0305343,-219.2824402
6960,0.2059003,-1.0223188,9.8161764,0.1755725,-3.0992367,0.4503817,13.0387554,5.6335278,-2.2912393,-122.9694672,-9.1679392,-250.1374054
6970,0.2705434,-1.0079538,9.8760319,-0.0534351,-2.6259542,1.0381680,10.6685085,5.0038562,-0.8834559,-123.2290039,-9.7709923,-250.1374054
6980,0.3112446,-0.9504932,9.8951855,-0.3816794,-2.9618320,1.4198474,8.3820572,4.6495161,0.1460456,-118.0076370,-7.8854961,-250.1374054
6990,0.2681492,-0.9313397,9.9622221,-0.1145038,-3.8702290,1.5419847,5.8011212,4.3047528,0.6967092,-109.6030502,-10.7786255,-250.1374054
7000,0.3495516,-0.8619082,10.0005293,0.5572519,-3.1755726,1.3893130,3.5673423,4.2161674,0.6895266,-103.0610657,-17.4732819,-250.1374054
7010,0.3351865,-0.8643024,9.9646168,0.9007633,-2.1068702,1.5114504,2.0302727,4.3885493,0.8212070,-98.9389343,-14.3053436,-250.1374054
7020,0.3040621,-0.9241571,9.8832140,0.6946565,-2.1755726,1.9694656,0.6368544,3.9432299,0.7876883,-96.5496216,-17.0000000,-250.1374054
7030,0.3327923,-0.8978211,9.7922344,0.4122137,-3.2061069,2.3587787,-0.7182568,3.8402798,0.9097920,-96.4351120,-25.2977104,-250.1374054
7040,0.3591284,-0.8762733,9.7611103,0.0992366,-2.8396947,2.6717558,-2.3606708,3.8785870,0.8307837,-98.8167953,-42.7709923,-250.1374054
7050,0.3878587,-0.9050036,9.9191265,-0.3969466,-1.5877863,3.0916030,-3.9025288,4.0533628,0.4429250,-106.9618301,-81.6946564,-250.1374054
7060,0.5171449,-0.9864060,9.8664551,-0.9618320,0.6335878,3.6870229,-4.3933377,4.0126615,0.0047884,-124.9007645,-117.2671738,-250.1374054
7070,0.5817881,-1.0271072,9.8880024,-1.6259542,2.6793892,4.2290077,-5.1235652,3.6248028,0.8403605,-146.0992432,-134.7328186,-250.1374054
7080,0.6727672,-0.9983770,9.9957409,-1.7938931,4.2519083,4.1526718,-6.7779503,3.4715748,2.2529323,-157.8015289,-139.0763397,-250.1374054
7090,0.7852941,-1.0462608,9.8640604,-1.7786260,3.9770992,3.4122138,-9.2343884,3.3327117,3.1675127,-161.4503784,-132.4503784,-250.1374054
7100,0.8714849,-1.0007712,9.8784256,-1.8167939,2.9618320,1.9618320,-12.4162664,3.5745249,4.5010762,-161.5419922,-107.9389343,-250.1374054
7110,0.8355721,-0.9935886,9.9119444,-1.8244275,1.2748091,0.2442748,-14.5710373,4.5824785,6.5121951,-154.0763397,-94.7786255,-216.2671814
7120,0.8212070,-1.0079538,9.9933472,-1.3664122,-0.2824427,-1.5725191,-13.9341822,4.0461802,7.6805596,-141.6259613,-94.6335907,-179.4274750
7130,0.6607963,-1.1109039,9.9263096,-1.2061069,-0.4809160,-2.9160306,-12.6485033,3.3686244,8.4012108,-127.6412201,-88.7022934,-157.8091583
7140,0.5410868,-1.0414724,9.9143381,-1.1068702,-1.0763359,-3.6870229,-14.1065645,3.1818779,8.5233145,-117.1145020,-70.2290039,-139.2137451
7150,0.3663110,-1.1037214,9.8712435,-0.9770992,-2.4351146,-3.9312978,-19.6131992,4.5848727,9.4498653,-107.8473282,-21.7404575,-94.9389343
7160,0.3303981,-1.0917504,9.9502516,-0.4503817,-3.0687022,-3.6641221,-19.6131992,5.3055239,11.1018562,-93.1221390,15.3206110,-19.4656487
7170,0.2513899,-0.9959828,9.8975792,-0.4503817,-3.1526718,-3.2900763,-19.6131992,5.0732875,12.2726154,-72.1145020,38.2213745,57.7862587
7180,0.2657550,-0.9576758,9.8640604,-0.4274809,-3.0610688,-2.6335878,-19.6131992,4.6183915,13.7019463,-42.7251892,58.6564903,121.1450348
7190,0.1580165,-0.9217629,9.8664551,-0.2824427,-1.8167939,-2.0534351,-19.3211098,3.8115497,14.1281118,-8.3435116,58.0076332,167.0229034
7200,0.0981618,-0.8475431,9.8592720,0.2213740,-0.4351145,-0.8320611,-15.0235386,3.3662305,13.7641954,25.1297703,57.1221390,191.3969421
7210,0.1412572,-0.9002152,9.7060442,-0.5954198,0.9770992,1.1603054,-12.9980545,3.4045374,13.2733860,53.6488533,62.7099228,205.2442780
7220,0.3303981,-0.8595140,9.8951855,-1.6488550,1.7557251,2.2977099,-12.1624823,3.6966286,12.9142580,81.7633591,70.2366409,222.9313049
7230,0.3998296,-0.9313397,9.8784256,-1.5343511,1.7251909,2.8625953,-10.3668404,3.9623835,12.0858688,110.9465637,72.7328262,238.8091583
7240,0.5386927,-0.8499373,9.9813757,-1.7022901,1.4427481,2.6793892,-8.4610653,4.3741841,10.5966825,137.0229034,76.5801544,250.1297760
7250,0.6847382,-0.9744351,9.9909525,-1.1526718,1.1450381,1.7938931,-6.9838505,4.4484038,9.1960821,157.9389343,88.1984711,250.1297760
7260,0.6655847,-1.0438666,9.9741936,-1.1984733,0.3893130,0.7404580,-6.0908179,4.6231799,7.5991573,174.2900696,103.3511429,250.1297760
7270,0.5889706,-0.9744351,9.8784256,-1.1145039,-0.3282443,0.0992366,-5.3414369,4.7045822,5.9232249,186.4198456,117.6488571,250.1297760
7280,0.5339043,-1.0486550,9.8808203,-0.7251908,-1.3664122,-0.3969466,-3.9073172,4.8051381,3.6535332,190.8854980,121.9694672,250.1297760
7290,0.4213773,-1.1324517,9.8664551,-0.6564885,-1.4732825,-0.5114504,-2.0925217,4.8793583,0.8355721,183.3511505,120.8549652,250.1297760
7300,0.3280039,-1.1563935,9.9071560,-0.5190840,-0.8091603,0.2290076,-0.9241571,4.7979555,-1.0821736,166.5038147,121.2213745,250.1297760
7310,0.2585725,-1.1803354,9.9454632,-0.4732825,-0.5496183,1.3587786,0.4261657,4.5537481,-2.2122312,145.9084015,114.8167953,250.1297760
7320,0.1987177,-1.1420283,9.8137827,-0.9083970,-0.1603053,2.5954199,2.5689652,4.5369892,-2.7533178,126.8854980,107.6946564,250.1297760
7330,0.3902529,-1.0654143,9.9095497,-0.9236641,-0.8244275,3.3587787,5.2241216,4.0485744,-3.0741394,110.2213745,104.0534363,250.1297760
7340,0.4453192,-1.0390782,9.9406748,-0.3816794,-1.9694656,3.3206108,7.9175844,4.0485744,-3.2824337,95.6183243,102.9542007,250.1297760
7350,0.5195391,-0.9768293,9.9310980,-0.1450382,-2.8320611,2.6030533,9.9334917,4.4364328,-3.6726866,78.4732819,89.3358765,250.1297760
7360,0.6368544,-0.9169745,9.9382801,0.1450382,-2.9312978,1.8244275,12.3396521,4.7764082,-3.6056492,58.3511467,62.1068687,250.1297760
7370,0.6991033,-0.8858501,9.8808203,0.2671756,-3.4885497,0.7938932,14.6261034,5.1642666,-4.0006905,37.1984749,28.9236641,248.6488495
7380,0.6584021,-0.9193687,9.7826586,0.2061069,-3.2061069,-0.4503817,16.6539822,5.5066357,-4.1946201,15.5801525,-0.3053435,203.1908417
7390,0.7110743,-0.8690908,9.8233595,0.0687023,-2.2595420,-1.2061069,19.0840836,5.5305777,-4.1132174,-1.3740458,-19.8549614,152.1908417
7400,0.6464311,-0.8882443,9.9215212,-0.4198473,-1.7862595,-1.7862595,19.6126022,5.7580256,-3.7612717,-12.8854961,-24.5954189,96.2137375
7410,0.5937590,-0.9504932,9.8760319,-0.9847328,-1.4809160,-2.2061069,19.6126022,6.0764527,-3.5936785,-22.1603050,-21.0534344,38.7175560
7420,0.5243275,-0.9792235,9.8760319,-1.2366412,-1.2671756,-2.3435113,19.6126022,6.3541789,-3.2201848,-33.7786255,-23.3740463,-20.0458012
7430,0.4692611,-1.0103480,9.8425131,-1.1145039,-1.6870229,-2.1755726,19.6126022,6.4307928,-2.6814921,-46.1908379,-38.5954208,-76.7175598
7440,0.3447633,-0.9983770,9.9167328,-1.2748091,-1.5114504,-1.6717557,19.5461636,6.3661499,-2.2409613,-59.1755714,-49.5343513,-130.2748108
7450,0.3495516,-0.9959828,9.9478569,-1.0458015,-1.2900764,-0.9847328,17.0825424,6.6534524,-1.4006008,-69.9694672,-55.5114517,-175.3816833
7460,0.2992737,-0.9552816,9.8999729,-0.9312977,-0.8625954,-0.1526718,15.7250366,5.2217274,-0.8643024,-80.1755753,-66.9618301,-212.0381622
7470,0.2418131,-0.9337339,9.8927908,-0.7862595,-0.9541985,0.6335878,12.7873659,5.7747850,-0.2513899,-89.5572510,-84.8015289,-248.7786255
7480,0.2657550,-0.9720409,9.9358864,-0.9007633,-1.2748091,1.3053435,10.0579901,5.7077475,0.5386927,-98.4961853,-102.2137375,-250.1374054
7490,0.3184272,-0.9744351,9.8760319,-0.3511450,-2.0534351,2.0839694,8.4203644,5.3917146,1.5155219,-103.7938919,-112.5801544,-250.1374054
7500,0.4620786,-0.9648584,9.8712435,-0.2824427,-3.0229008,2.3969467,6.9982157,5.0828643,2.3965836,-101.4122162,-114.5038147,-250.1374054
7510,0.5434810,-0.9696468,9.9239149,-0.3053435,-3.6488550,2.0763359,5.1092005,4.9607606,2.5761478,-93.3511429,-121.8473282,-250.1374054
7520,0.6847382,-0.9864060,9.9813757,0.2900763,-3.5801528,2.0000000,3.6822634,4.7668314,2.2720859,-88.5877838,-124.9694672,-250.1374054
7530,0.7421987,-1.0390782,9.9430685,0.3511450,-2.2977099,1.8473282,2.2074428,4.5537481,1.8124014,-90.2442780,-127.7328262,-250.1374054
7540,0.7757174,-1.0678085,9.8257532,-0.3206107,-1.5572519,1.7328244,0.8762733,4.3717899,2.1260402,-96.7480927,-132.8778687,-250.1374054
7550,0.8116302,-1.0175306,9.8592720,-0.7022901,-0.6335878,0.7557252,-0.6584021,4.1754665,2.5426292,-104.0687027,-141.1297760,-250.1374054
7560,0.8307837,-0.9959828,9.9047613,-1.3206106,1.1679389,-0.0458015,-2.8155668,3.9456241,2.8682389,-110.0152664,-152.4732819,-250.1374054
7570,0.7900825,-0.9409165,9.9047613,-1.5190840,1.4580153,-1.0305344,-5.5952206,4.0605454,3.4308734,-114.7022934,-149.2290039,-250.1374054
7580,0.6631905,-0.9480990,9.9526453,-1.3664122,0.6870229,-1.8625954,-9.0883436,4.5417776,4.7213416,-114.0000000,-127.2748108,-250.1374054
7590,0.5889706,-0.9648584,9.9167328,-0.9236641,-1.0839695,-2.4503818,-13.0267849,4.8961172,5.7508430,-105.8091583,-82.4351120,-250.1374054
7600,0.3998296,-0.9624642,10.0675669,-0.5190840,-2.3587787,-2.8091602,-19.6131992,6.1794028,7.7667508,-87.5343475,11.7022905,-218.6183167
7610,0.3375807,-0.9624642,9.9239149,-0.4045801,-3.2137403,-2.6412213,-19.6131992,7.8146343,10.0244713,-55.3816795,97.0763321,-106.0000000
7620,0.3351865,-1.0486550,9.9095497,-0.5877863,-3.0076337,-2.1145039,-19.6131992,9.3708572,11.2766323,-9.5877867,129.0000000,27.7557259
7630,0.3016679,-1.0414724,9.8664551,-0.4045801,-3.2366412,-1.2824427,-19.6131992,7.4435349,10.8073711,38.8702278,144.9618378,143.6946564
7640,0.2202654,-1.0079538,9.8903971,0.1450382,-4.0458016,-0.3282443,-19.6131992,6.4762826,9.4953556,79.6106873,175.2290039,217.9923706
7650,0.2035061,-1.0486550,9.8137827,0.1374046,-5.2213740,0.7099237,-17.1974621,5.8322453,7.6135225,104.3129807,191.1908417,250.1297760
7660,0.3088504,-1.0390782,9.8042059,0.2137405,-5.3664122,1.6946565,-13.8886929,6.2440462,4.9511838,105.8549652,171.7251892,250.1297760
7670,0.4620786,-1.0151364,9.8496952,0.2977099,-5.5343513,2.4656489,-11.9637651,6.5457139,2.7533178,84.0687027,127.6412201,250.1297760
7680,0.8523315,-0.9361281,9.8808203,-1.0610687,-0.6564885,-1.1603054,4.1251884,5.4731169,-1.2401901,88.5038147,33.3206100,250.1297760
7690,0.6775556,-0.9480990,9.8329363,-0.8931298,-0.8167939,-1.5648855,6.8378053,5.0182209,-2.7293761,77.0229034,40.6106873,250.1297760
7700,0.5722113,-0.8978211,9.9334917,-0.8854962,-0.7251908,-1.5496184,9.6557665,4.6136031,-3.4380560,64.0992355,48.2213745,250.1297760
7710,0.5315101,-0.9792235,9.8640604,-0.8854962,-0.0687023,-1.0076336,12.3779593,4.5776901,-3.8522508,49.9847336,48.9312973,250.1297760
7720,0.4477134,-0.9935886,9.8449068,-0.7938932,-0.7099237,-0.2061069,14.7458124,5.0158267,-4.2975702,31.6793900,39.6717567,230.3358765
7730,0.4381367,-0.9313397,9.9430685,-0.7099237,-0.8702290,0.5801527,15.8638992,5.4587522,-4.2520804,8.2977095,12.8702288,184.8778687
7740,0.4788379,-0.9217629,9.8856087,-0.7709923,-1.2519084,0.8320611,15.6915178,6.0860295,-4.0366035,-16.0916023,-28.5572510,137.7480927
7750,0.4716553,-0.9648584,9.9454632,-0.5267175,-1.7328244,1.1297710,15.1743727,6.4020624,-4.0509686,-40.0610695,-69.2748108,97.3816757
7760,0.5075682,-0.8906385,9.9358864,0.0381679,-2.6946564,1.0076336,15.1240950,6.5169835,-3.4284792,-61.5954208,-91.3816757,65.3129807
7770,0.5793939,-0.9696468,9.9765873,0.6488550,-3.7022901,1.0305344,16.1440201,6.1027889,-2.1691356,-70.9236679,-89.0305328,34.0992355
7780,0.6224893,-0.9840119,9.9215212,0.6106870,-4.6946564,0.9236641,17.2214050,5.9351954,-0.8978211,-65.6717529,-62.6106873,-0.8320611
7790,0.5722113,-0.9600700,9.8760319,0.7480916,-5.6793895,1.2900764,17.3219604,6.0908179,-0.6272776,-54.2213745,-31.3206100,-38.0992355
7800,0.6488253,-0.9983770,9.8113880,0.3969466,-5.6793895,1.7175573,17.8367119,6.1099715,-1.3168042,-54.2442741,-28.0992374,-79.8396912
7810,0.7541697,-1.0079538,9.9478569,0.6412213,-5.3664122,1.9160305,17.4895535,6.2320752,-1.2593436,-64.5496216,-38.1679382,-128.4427490
7820,0.7565638,-0.9911944,9.9263096,0.7404580,-5.1603055,2.2137403,16.4049854,6.0980005,-0.3998296,-75.3511429,-50.0992355,-172.9923706
7830,0.9313397,-0.9888002,9.9263096,0.8473282,-3.9923663,2.2595420,15.3611193,5.7436604,0.4764437,-81.1526718,-59.1145020,-212.9007568
7840,0.9624642,-0.9121862,9.8329363,0.5877863,-2.4274809,2.0763359,13.6995516,5.3127065,1.4748207,-82.9007645,-60.4656487,-250.1374054
7850,1.0582317,-0.8020535,9.7491398,0.4274809,-1.3587786,1.5343511,12.0427732,4.9080882,2.3103929,-81.5496216,-62.1526718,-250.1374054
7860,1.0534433,-0.8978211,9.7204094,0.0687023,-0.2977099,0.7938932,10.1776991,4.4675574,2.8490853,-78.3435135,-60.3587799,-250.1374054
7870,1.0989330,-0.7829000,9.8305416,-0.8931298,0.9923664,-0.4656489,7.9822278,3.9121056,3.2273674,-73.1984711,-53.4122124,-250.1374054
7880,1.0247130,-0.7637464,9.8832140,-1.6717557,2.8473282,-1.5114504,5.6502872,3.3734128,3.3853838,-66.7557220,-46.2977104,-250.1374054
7890,0.9097920,-0.7924767,9.8377247,-2.5801528,4.6717558,-1.8244275,2.5522060,3.1220231,3.6726866,-59.0000000,-33.4885483,-250.1374054
7900,0.7589580,-0.8738791,9.8281479,-2.7786260,5.9618320,-1.8396946,-0.6847382,3.2369442,4.0030847,-49.0228996,-22.6488552,-250.1374054
7910,0.6081241,-0.9121862,9.8377247,-3.1755726,5.6412215,-1.6870229,-4.0054789,3.5410061,4.5920553,-36.6412201,-25.6717548,-250.1374054
7920,0.5291159,-0.9504932,9.8903971,-3.2290077,5.8778625,-1.0458015,-7.0484939,4.1994085,4.7141590,-22.8167934,-40.6946564,-250.1374054
7930,0.4644727,-1.0414724,9.8544836,-2.8320611,4.8549619,-0.3893130,-9.8113880,5.2073622,4.5298066,-9.4656487,-46.2900772,-250.1374054
7940,0.4812321,-1.0414724,9.9598284,-3.2977099,4.3282442,0.5877863,-12.9166517,6.3374195,4.7285242,6.0229006,-20.6106873,-250.1374054
7950,0.4309541,-1.0199248,9.9885588,-2.8244274,3.5496182,1.2137405,-16.9724083,7.3214312,5.5281835,30.3435116,41.3206100,-207.8473358
7960,0.5147507,-1.0654143,9.9694052,-2.2824428,1.6259542,1.2519084,-19.6131992,9.1410151,6.1985564,67.4045792,120.0916061,-121.2442780
7970,0.6248835,-1.0103480,10.0747490,-0.7480916,-0.5267175,0.7938932,-19.6131992,10.4003592,6.2009506,106.8702316,165.0229034,-14.0610685
7980,0.6560079,-1.0223188,10.0268650,0.0992366,-2.1984732,0.2977099,-19.6131992,10.3333216,4.9296360,138.9465637,175.0992432,87.6106873
7990,0.7517755,-1.0199248,9.9263096,0.1755725,-2.3740458,0.0076336,-19.6131992,9.6797075,2.4708035,159.6946564,182.3511505,170.4580078
8000,0.7445929,-1.0366840,9.8616667,0.4580153,-2.5801528,-0.3587786,-17.4680061,9.8544836,-0.5602403,166.9541931,193.2519073,225.7404633
8010,0.8164186,-1.0654143,9.8161764,0.4274809,-3.7251909,-0.7862595,-12.9214401,9.0931320,-2.9687948,153.2290039,200.9313049,250.1297760
8020,0.7445929,-0.9983770,9.8616667,0.5419847,-3.8931298,-1.3511450,-9.6725254,9.1673517,-5.3342543,120.2213745,190.6641235,250.1297760
8030,0.7781116,-0.9888002,9.9646168,0.5725191,-3.3893130,-1.2290076,-7.0915890,9.0596132,-6.7994981,76.6488571,137.0076294,250.1297760
8040,0.7565638,-1.0630201,9.8425131,0.3358779,-2.2595420,-1.3206106,-4.6279683,8.7531567,-6.4212160,31.6870232,69.9312973,250.1297760
8050,0.6655847,-0.9720409,9.9622221,-0.0305344,-1.4274809,-1.0992366,-1.7908537,8.1905222,-5.6287394,-3.7786260,6.5725193,250.1297760
8060,0.6392486,-0.9935886,9.8257532,-0.0992366,-0.8931298,-0.9236641,0.7805058,7.6183109,-4.8051381,-28.7251911,-41.5267181,249.8854980
8070,0.5626345,-0.9313397,9.8520899,-0.2671756,-0.9694657,-0.7251908,3.1627243,7.2567883,-3.5912843,-45.6946564,-58.6793900,236.3893127
8080,0.5554519,-0.9193687,9.8185711,-0.6259542,-0.8854962,-0.1755725,5.0996237,7.0868006,-2.2601149,-55.1832047,-54.2519073,223.9923706
8090,0.5698171,-0.8786675,9.8377247,-1.0000000,-0.7786260,0.0763359,6.3230543,6.9455438,-1.0462608,-57.7480927,-40.7938919,212.2595367
8100,0.5410868,-0.8690908,9.9574337,-1.0687023,-1.0152671,0.6488550,7.4195933,6.6486640,-0.2992737,-55.1145020,-31.7175579,199.1221313
8110,0.5482694,-0.8834559,9.8425131,-1.0610687,-1.0381680,0.9465649,8.5257082,6.4236102,0.1843526,-49.2366409,-27.4503822,184.1832123
8120,0.6751614,-0.8666966,9.9694052,-0.8244275,-1.6717557,1.1450381,10.4051476,6.2823529,-0.0526722,-45.3282433,-37.7251892,161.3893127
8130,0.6440369,-0.9073978,9.9646168,-0.8091603,-2.3587787,1.0381680,12.9812956,6.0716643,-0.6607963,-45.3893127,-52.6335869,128.0686951
8140,0.5817881,-0.8331779,10.0077124,-0.2137405,-3.2519083,1.1068702,14.8128500,6.1506729,-0.8930327,-46.2442741,-47.9007645,87.1603088
8150,0.5793939,-0.8810617,9.9550400,0.5114504,-4.6030536,1.2290076,15.9309368,6.3422079,-1.1683644,-45.5267181,-31.8320618,43.1984749
8160,0.5793939,-0.9624642,9.9310980,1.1450381,-6.0229006,1.0916030,16.4959660,6.4954362,-1.4197544,-49.5725174,-22.5038166,-4.4122138
8170,0.5674229,-1.0007712,9.9263096,1.2748091,-7.5419846,1.3435115,16.2756996,6.6342988,-1.4915800,-59.8778610,-20.6946564,-52.4503822
8180,0.6392486,-1.0175306,9.8568783,1.3358779,-7.8778625,1.7938931,15.2031031,6.5457139,-0.5626345,-70.8244247,-28.7709923,-99.1068726
8190,0.6344602,-0.9504932,9.8592720,1.3511450,-7.6412215,2.3511450,14.2980995,6.4547348,0.4764437,-78.1374054,-40.0610695,-143.7786255
8200,0.7565638,-0.9385223,9.9167328,1.9312977,-7.3664122,2.6030533,12.9477768,6.2129216,1.4652439,-80.3282471,-45.4580154,-183.7099304
8210,0.7972651,-0.9624642,9.9095497,2.3358779,-6.4656487,3.0000000,11.3676119,5.8968887,2.1571648,-78.4885483,-43.2977104,-218.0763397
8220,1.0007712,-0.8882443,9.9167328,2.1450381,-6.7480917,3.3435113,9.3684635,5.6095858,2.8419030,-73.5954208,-41.4656487,-248.0839691
8230,1.1468167,-0.8978211,9.7491398,1.7022901,-4.5801525,3.1068702,7.4148049,5.2911587,3.0262554,-67.0229034,-35.4809151,-250.1374054
8240,1.2521610,-0.7996593,9.7587166,0.9923664,-2.8625953,2.7022901,4.6734576,5.1355362,2.9951310,-59.2442741,-26.8244267,-250.1374054
8250,1.3718705,-0.7613522,9.7658987,-0.3053435,-0.6870229,1.6488550,1.6831152,5.1020179,2.9161227,-52.3129768,-27.1755733,-250.1374054
8260,1.2952565,-0.8020535,9.8473015,-0.5572519,0.3129771,-0.1755725,-1.7645177,5.0613165,2.7126167,-47.9465637,-27.7786255,-250.1374054
8270,1.2306134,-0.8690908,9.8281479,-1.3511450,0.8854962,-1.5725191,-8.0492649,5.9687142,2.9616125,-40.0916023,-2.4809160,-250.1374054
8280,1.1420283,-0.8044477,9.8065996,-2.2366412,1.0610687,-3.1221373,-15.7753143,7.7332320,3.2728570,-24.1526718,45.4961815,-234.5190887
8290,0.9768293,-0.9050036,9.8065996,-3.6335878,2.3511450,-4.0000000,-19.6131992,9.8640604,3.5146701,-4.8854961,87.4198456,-146.4580078
8300,0.8475431,-0.9624642,9.8832140,-4.7404580,4.0610685,-4.2061067,-19.6131992,11.4202833,3.9528067,13.0534353,110.8702316,-30.5801525
8310,0.7398046,-0.8930327,9.7898407,-4.1526718,5.6717558,-4.6030536,-19.6131992,11.5615406,4.4507980,29.2595425,116.9618301,89.3206100
8320,0.6272776,-0.9409165,9.7587166,-4.0458016,7.1526718,-4.0992365,-19.6131992,10.5871058,5.5640965,46.8320618,120.7099228,190.2977142
8330,0.7757174,-0.8786675,9.7347746,-4.5343513,11.7404585,-3.2213740,-19.1678810,9.4067707,6.3469963,69.0534363,125.3358765,250.1297760
8340,0.5003856,-0.8978211,9.7491398,-6.7480917,12.4580154,-2.9083970,-13.7282820,8.4945841,6.4499464,92.0381699,113.5725174,250.1297760
8350,0.5722113,-0.9169745,9.8425131,-7.2748094,9.9389315,-2.4656489,-8.3198080,7.7691450,5.4946647,108.8854980,86.2290039,250.1297760
8360,0.6703730,-0.9648584,9.7730818,-6.5038166,9.6488552,-2.1755726,-3.4093258,7.5105724,3.5026991,113.9923630,50.9007645,250.1297760
8370,0.7014975,-0.9840119,9.9574337,-6.0992365,7.3282442,-2.2748091,0.6009415,7.4148049,1.1563935,104.6183243,18.9618320,250.1297760
8380,0.6560079,-1.1348459,9.9741936,-5.2137403,4.0381680,-2.0000000,3.2058196,7.4028339,-0.8092360,86.7938919,-11.9770994,250.1297760
8390,0.6320660,-1.1156923,10.0579901,-4.2366414,2.2137403,-1.5343511,4.8865409,7.5369086,-2.1954718,64.3129807,-43.8549614,220.4274750
8400,0.6847382,-1.1396341,10.0675669,-3.0458016,-0.3587786,-1.2366412,5.8466105,7.5081782,-3.4763632,38.8473282,-69.5572510,187.7938995
8410,0.6775556,-1.2282192,9.9861641,-1.7938931,-2.2748091,-1.5038168,6.3206601,7.4555058,-4.0749106,13.7022905,-84.6335907,163.8473358
8420,0.5602403,-1.1372399,10.0077124,-0.3282443,-4.6183205,-1.6793894,6.6366930,7.0939832,-3.9408360,-5.4656487,-94.1221390,146.9770966
8430,0.5147507,-1.2042773,9.9047613,0.0610687,-6.0000000,-1.0916030,7.2256637,6.8138633,-3.2704628,-14.9847326,-92.4351120,137.5648804
8440,0.4644727,-1.0989330,9.8449068,0.7251908,-6.9770994,-0.5801527,8.4610653,6.6079631,-2.8969693,-16.1297703,-83.7633591,132.1374054
8450,0.5793939,-1.0414724,9.8832140,1.3587786,-9.0992365,0.1145038,10.6493549,6.4714942,-3.0214672,-14.0916033,-76.4351120,123.1679382
8460,0.6200951,-1.0773853,9.9239149,1.7709924,-10.0687027,0.2137405,13.3308468,6.3900914,-3.5314295,-14.1221371,-74.9389343,103.7480927
8470,0.6344602,-0.9504932,9.8688488,1.7404580,-10.7633591,0.1450382,16.3642845,6.6007805,-4.2425036,-17.9618320,-72.5038147,72.9618301
8480,0.7206510,-0.9313397,9.9095497,1.9007634,-10.7480917,0.0000000,18.7058029,6.6295104,-5.1211715,-26.2519093,-67.5343475,32.6564903
8490,0.6991033,-0.8858501,9.9502516,1.8854961,-9.5038166,0.1755725,19.6126022,6.6534524,-5.7939386,-39.9007645,-51.8625946,-15.5190840
8500,0.7134684,-0.8307837,9.8305416,1.7099236,-8.1068707,0.7786260,19.6126022,6.7899213,-5.5018473,-56.4427490,-35.8015251,-63.2290077
8510,0.7517755,-0.8906385,9.8568783,0.8931298,-7.3969464,1.6183206,18.3203373,6.7516141,-4.5729017,-73.5725174,-39.0839691,-108.5572510
8520,0.7014975,-0.9552816,9.8856087,0.8702290,-6.9694657,2.3587787,16.8048153,6.5720501,-3.6271970,-87.7633591,-47.6106873,-151.2061005
8530,0.7876883,-0.9337339,9.9454632,0.6106870,-6.1832061,3.2213740,14.9780493,6.3876977,-2.7700772,-99.3358765,-43.5877876,-186.8549652
8540,0.8666966,-0.8978211,9.7946291,-0.1679389,-5.2442746,3.8778627,13.2039547,5.9687142,-1.6041069,-103.1984711,-29.0152664,-215.2061005
8550,1.0031654,-0.9361281,9.8951855,-0.3129771,-4.8473282,3.8854961,11.3173332,5.6694407,-0.7805058,-100.5496216,-13.4961834,-240.6488495
8560,1.0797794,-0.9504932,9.9382801,0.1145038,-3.7938931,3.4961832,8.7914639,5.2528515,0.0550664,-95.6946564,-0.3969466,-250.1374054
8570,1.2234308,-0.9361281,9.9023676,0.1526718,-2.0458016,2.7480917,5.8992829,5.1307478,0.7469871,-89.6488571,10.7022905,-250.1374054
8580,1.1827296,-0.9696468,9.8808203,-0.2824427,-0.5496183,2.3893130,2.3056045,5.2193332,1.5370697,-82.6641235,24.7786255,-250.1374054
8590,1.2330076,-0.9385223,9.8760319,-0.4274809,0.9007633,1.6564885,-2.4660151,5.6239510,2.5043221,-72.5114517,46.0992355,-250.1374054
8600,1.2330076,-0.9959828,9.7563219,-0.5190840,1.0152671,0.4809160,-8.1665802,6.5696559,3.2584918,-55.9389305,69.6259537,-250.1374054
8610,1.2761030,-0.9169745,9.7682934,-1.1832061,1.2900764,-0.8167939,-14.7984848,8.2024927,3.8450682,-37.7557259,80.5496216,-208.3511505
8620,1.1563935,-0.9361281,9.8401184,-1.8244275,0.7404580,-2.1145039,-19.6131992,9.4666252,4.2305326,-20.4351139,82.3816757,-137.0000000
8630,0.9816177,-0.9145803,9.8616667,-2.5648854,0.4045801,-2.8931298,-19.6131992,10.3979645,4.3861551,-6.4274807,78.1374054,-47.7480927
8640,0.9480990,-1.0438666,9.9526453,-2.6030533,0.4503817,-3.1755726,-19.6131992,10.4913378,5.2624283,9.2977095,74.0610657,41.9083977
8650,0.6560079,-1.0462608,9.9119444,-2.0839694,-0.0381679,-2.7404580,-18.7848110,10.1369982,6.2991123,31.5190830,77.5267181,116.3358765
8660,0.5698171,-1.0702027,9.9694052,-1.5648855,-1.0916030,-1.7786260,-14.1041698,9.6030941,6.7779503,61.1603050,85.8167953,167.8778687
8670,0.6536137,-1.0678085,9.9358864,-1.3282443,-2.7404580,-0.7938932,-10.0101061,9.0548248,6.0213866,88.4351120,79.4732819,193.7328186
8680,0.6560079,-1.0079538,9.8640604,-0.8091603,-3.3511450,0.0152672,-5.6981707,8.9015961,4.4340386,110.0763321,53.8320618,199.9465637
8690,0.6775556,-1.0678085,9.9215212,-0.4351145,-4.0381680,0.7022901,-1.9967541,9.0811605,1.6567791,115.8396912,26.9923668,191.4656525
8700,0.7733232,-1.0318956,9.8999729,0.5648855,-4.1908398,0.4503817,0.3495516,9.2032642,-1.1300575,104.5419846,10.7480917,176.3664093
8710,0.7757174,-1.0318956,9.9167328,0.9160305,-3.5267177,1.0610687,4.4268565,8.7004843,-4.8266859,56.0000000,-25.4427490,146.7404633
8720,0.7589580,-1.0318956,9.8329363,0.1297710,-3.2061069,1.9541985,7.5464849,8.1977043,-5.1163831,35.5648842,-31.8167934,127.3969498
8730,0.8619082,-0.9528874,9.8520899,-0.2824427,-2.9770992,2.6183207,11.3819771,7.6422529,-5.0301919,23.4961834,-16.1145039,99.5190811
8740,1.0534433,-0.8283895,9.9310980,1.9236641,-7.6412215,0.7328244,17.0633888,7.6805596,-3.6583214,-70.1221390,-39.9007645,-99.8549652
8750,1.0486550,-0.8643024,9.8329363,1.8320611,-7.1068702,0.0152672,16.1895084,7.3166428,-1.2090657,-85.6488571,-58.9694672,-143.3816833
8760,0.9026094,-0.9433106,9.7706871,1.3664122,-7.0687022,0.3053435,14.4609041,6.8880830,0.9888002,-85.6030502,-60.2519073,-180.7709961
8770,0.8930327,-0.8762733,9.8305416,0.7709923,-6.2977099,0.7709923,12.2271252,6.8593526,1.9656296,-74.2366409,-46.4961815,-208.1755676
8780,0.8499373,-0.9528874,9.7970228,0.2290076,-5.2671757,1.9618320,9.5552101,6.7779503,2.4923513,-58.2671738,-29.1526718,-227.0305328
8790,0.8978211,-0.9361281,9.8449068,-0.3053435,-3.8320611,2.9236641,6.4619174,6.7923155,2.0781565,-42.1526718,-10.6870232,-236.0915985
8800,0.9672526,-0.9073978,9.9239149,-0.4274809,-2.3358779,3.3511450,2.9975252,7.1011658,1.6328372,-30.8015270,4.9236641,-238.0305328
8810,1.1300575,-0.8499373,9.8616667,-0.3435115,-1.0687023,3.9541984,-1.7860653,7.5943689,1.2976507,-24.2977104,20.9312973,-228.2824402
8820,1.2976507,-0.9433106,9.9550400,-0.3664122,1.1297710,4.1450381,-6.3613615,8.0875721,1.2258250,-19.5725193,36.3435097,-202.8854980
