timestamp,rxacclX,rxacclY,rxacclZ,rxgyroX,rxgyroY,rxgyroZ,txacclX,txacclY,txacclZ,txgyroX,txgyroY,txgyroZ
0,-1.4101776,0.4860204,10.3764172,-11.8167934,11.0839691,7.1984735,-1.1348459,2.2577207,10.6541433,-10.4732828,-0.7938932,2.5419848
10,-1.2569494,0.6296718,10.4386663,-8.7862597,12.5877867,11.2748089,-1.3263810,0.7230452,9.0165176,-10.7175570,-0.3435115,3.5267177
20,-0.8595140,0.7517755,10.3141680,-4.9312978,10.7786255,13.5419846,-0.8643024,3.1339941,12.2726154,-19.5801525,1.4351145,2.8015268
30,-0.6895266,0.8619082,10.1082678,-1.7709924,9.8015270,14.2977095,-1.0438666,2.0087249,9.7922344,-17.1526718,-9.0458012,1.8396946
40,-0.4620786,1.0582317,10.1178446,0.8931298,8.2137403,13.7328243,-1.1587877,1.1156923,11.2455082,-15.0839691,-6.3740458,2.8473282
50,0.0311245,1.3048333,9.8209648,2.4885497,-0.2442748,8.1679392,-0.2609667,2.6695213,12.6173782,-9.6946564,-4.5038166,-0.5267175
60,0.1149211,1.3024391,9.8209648,2.2137403,-3.4427481,4.0381680,-0.9097920,1.3311694,11.4753504,-2.3816793,-3.3129771,-2.6106870
70,0.1053443,1.2401901,9.7778702,1.5419847,-3.5114503,0.6946565,-1.1324517,1.1803354,11.1473465,3.6488550,-0.6946565,-1.9160305
80,-0.0191535,1.1061156,9.7419567,0.6488550,-3.1450381,-1.7328244,-0.9816177,1.4293311,10.7546988,5.9923663,2.5267177,-3.5114503
90,-0.4764437,0.8882443,9.6964674,-1.6106870,-1.2366412,-1.4274809,-1.2761030,1.5442522,9.9382801,3.8091602,8.6030531,-2.3282442
100,-0.5746055,0.7158626,9.8353300,-2.4503818,0.1526718,0.2061069,-1.4891858,1.0223188,9.0763721,-1.2748091,9.2595415,-1.9694656
110,-0.5913648,0.8283895,9.9382801,-2.6641221,1.4045801,2.2137403,-0.9959828,2.4899571,10.6182299,-6.7557254,6.5190840,-2.0458016
120,-0.5578461,0.8020535,9.9885588,-2.1908398,2.5038168,3.8244274,-1.7621235,0.9241571,9.4690189,-8.9541988,2.5496182,-2.0534351
130,-0.5027798,0.9409165,10.0148945,-1.5496184,3.4580152,4.5343513,-1.3814473,1.8866212,10.9246864,-9.6564884,-1.2213740,-1.5038168
140,-0.5386927,0.9816177,9.9191265,-1.1526718,3.4427481,4.8702292,-1.6902977,0.9409165,10.0699606,-10.8320608,-3.4198472,-2.2442749
150,-0.3591284,1.1156923,9.8233595,1.2290076,-1.8778626,1.6870229,-1.4173602,1.4269369,10.4650021,2.9465649,3.0229008,0.9083970
160,-0.3423691,1.1180865,9.7922344,1.3511450,-1.8549619,0.7404580,-1.3000449,1.5250987,10.3883877,1.2290076,5.3053436,1.6335878
170,-0.3878587,1.0845678,9.8377247,0.9160305,-2.3358779,-0.0076336,-1.1180865,1.5155219,10.2160063,-0.2366412,4.8091602,2.3129771
180,-0.2657550,0.9409165,9.8449068,0.3893130,-1.8167939,-0.2977099,-1.0558375,1.4484847,10.2806492,-1.6412214,5.1603055,1.6717557
190,-0.1987177,0.9289455,9.8353300,0.1984733,-1.4274809,-0.3893130,-0.8307837,1.6280488,10.4530315,-2.6717558,4.9312978,1.0152671
200,-0.1556223,0.7158626,9.8903971,-0.7328244,0.9236641,1.0839695,-0.7469871,1.6831152,10.5320396,-2.1526718,9.1145039,-4.3816795
210,-0.1987177,0.7876883,9.7395630,-2.3893130,2.7328243,1.5725191,-0.7517755,1.4796091,10.1034794,-5.4885497,16.0381680,-10.3587790
220,-0.2609667,0.7685348,9.7874460,-2.9541984,1.8244275,1.2671756,-0.7158626,1.3503228,9.8305416,-11.2900763,19.5190830,-14.0916033
230,-0.3591284,0.8044477,9.9430685,-3.1984732,1.3740458,0.9083970,-0.6344602,1.3479286,9.8353300,-18.2748089,23.3587780,-18.0534344
240,-0.3854645,0.8930327,9.9430685,-2.5496182,0.3587786,0.9312977,-0.4429250,1.1635761,9.6821022,-25.7175579,28.7099228,-22.0305347
250,-0.6320660,0.9026094,9.9765873,-1.9312977,-0.4503817,0.8854962,-0.1795642,1.1252691,9.9263096,-34.2137413,35.7480927,-26.1755733
260,-0.7421987,0.9744351,10.0316534,-0.9389313,-1.4198474,1.8396946,-0.0646431,1.1875180,10.3716288,-40.7480927,48.0687027,-30.1984730
270,-0.8020535,1.0773853,10.0555954,0.4580153,-1.6641221,2.8625953,-0.1268920,1.0462608,10.8839855,-41.9312973,60.5877876,-35.4961815
280,-0.7924767,1.1156923,10.0771437,2.2290077,-1.9770992,4.2977099,-0.3256098,0.9026094,11.0491848,-39.4656487,70.6564865,-41.8931313
290,-0.7637464,1.1731528,9.8927908,3.8320611,-3.4732823,5.3053436,-0.6081241,0.7709290,10.8097658,-35.3587799,86.2748108,-49.1374054
300,-0.5578461,1.3958124,9.8185711,4.7709923,-1.8396946,5.9923663,-1.1803354,0.5746055,10.4913378,-33.8702278,103.0457993,-57.0610695
310,-0.4596844,1.2832855,9.6988611,4.5419846,-0.5801527,5.9236641,-1.9129574,0.0023942,10.1178446,-35.6564903,115.6641235,-66.2061081
320,-0.3734936,1.2976507,9.5791521,3.3206108,-1.4809160,5.5267177,-2.8682389,-0.4309541,9.7204094,-42.0687027,129.6641235,-73.4656525
330,-0.3375807,1.2641320,9.5695753,1.6793894,-1.7404580,4.7862597,-4.1108232,-0.5626345,9.4881725,-53.7786255,144.0534363,-77.2671738
340,-0.3926471,1.1276633,9.5671806,-0.3816794,-1.1603054,4.3893127,-6.2320752,-0.8714849,10.1154509,-72.5038147,151.0305328,-76.3206100
350,-0.3734936,1.0654143,9.6030941,-2.2213740,0.5038168,4.5038166,-7.5632443,-1.7860653,11.1617117,-92.3282471,136.7328186,-73.0992355
360,-0.2681492,1.0199248,9.6844959,-3.5954199,2.0000000,5.1679387,-8.1641865,-2.8658447,12.2989511,-107.3587799,104.3358765,-71.3893127
370,-0.2729376,0.9337339,9.8568783,-4.5648856,2.5496182,5.4274807,-8.3317795,-3.7852135,13.9892492,-125.5648880,49.4198456,-68.0381699
380,-0.2609667,0.9073978,9.9837704,-4.5801525,2.7404580,5.5725193,-8.3557215,-3.9216824,16.8838234,-144.8702240,10.6793890,-62.0763359
390,-0.1771700,0.8738791,9.9334917,-4.6870227,3.4732823,5.2213740,-9.4522600,-4.2041965,19.6126022,-146.0381622,-3.3893130,-44.7175560
400,-0.1388630,0.8619082,9.9741936,-4.1221375,2.5648854,4.5648856,-11.5806942,-4.6279683,19.6126022,-116.8473282,2.1221373,-15.1679392
410,-0.1556223,0.8020535,10.0555954,-3.4351146,1.8015267,3.6717558,-13.5966015,-5.6790175,19.6126022,-53.5267181,12.9465647,29.1297703
420,-0.2394189,0.8595140,10.0340481,-2.3816793,1.4122137,2.8396947,-13.6923695,-6.0980005,19.6126022,31.1832066,34.7251892,79.5801544
430,-0.2729376,0.8643024,10.0915089,-1.5496184,1.1145039,2.0992367,-12.2797976,-5.5736732,19.6126022,114.3206100,62.2213745,121.9465637
440,-0.3663110,0.8978211,10.0795374,-0.5190840,-0.1374046,1.6183206,-11.0443964,-5.4348102,19.6126022,183.2442780,92.0305328,161.2061005
450,-0.3902529,0.9409165,10.0460186,0.8091603,-0.7251908,1.3893130,-10.0053177,-5.0517397,16.9460735,228.0839691,114.4503784,197.2824402
460,-0.5267217,0.9935886,9.9933472,2.6335878,-0.5725191,1.3587786,-8.2910776,-4.2113791,13.8048964,250.1297760,127.8320618,221.8778687
470,-0.5195391,0.9672526,9.9933472,3.6870229,-1.2366412,1.6488550,-7.1921453,-3.5074875,11.4945040,250.1297760,131.3511505,235.8778687
480,-0.5674229,1.0941446,9.9071560,4.5725193,-2.0534351,2.0534351,-6.5624733,-2.8371146,9.7012558,250.1297760,118.8702316,244.2595367
490,-0.4094064,1.1803354,9.7826586,5.0076337,-2.4809160,2.0381680,-5.5497313,-2.0111191,7.7667508,250.1297760,101.8167953,247.8625946
500,-0.4189832,1.2545552,9.6198530,4.5343513,-2.7633588,1.5419847,-5.0493455,-1.5107336,6.4427638,244.8244324,85.2213745,246.9541931
510,-0.4213773,1.1875180,9.5815458,3.1374047,-2.9465649,1.1603054,-5.0972295,-0.6009415,5.5305777,230.5114441,77.8549652,249.7480927
520,-0.3567342,1.1635761,9.4929609,1.4580153,-2.9083970,1.0229008,-5.6047974,-0.0766141,5.4707227,217.4503784,83.0534363,250.1297760
530,-0.3567342,1.1875180,9.6557665,-0.3206107,-2.3129771,0.7557252,-5.7963328,-0.0430954,5.4515696,209.9847260,90.4122162,250.1297760
540,-0.2370248,1.2234308,9.6342182,-1.5572519,-1.1832061,0.9007633,-4.6159973,-0.5913648,5.1044121,210.5038147,105.2671738,250.1297760
550,-0.2825144,1.1013272,9.6964674,-2.7175572,0.2977099,0.6641222,-3.5960727,-0.7326220,4.8625989,214.4274750,129.8931274,250.1297760
560,-0.2322364,1.0797794,9.7970228,-3.4198472,0.9236641,0.4122137,-2.7892308,-0.8116302,4.2808108,217.6183167,159.7328186,250.1297760
570,-0.1412572,1.0223188,9.8377247,-3.9618320,1.7709924,-0.4427481,-1.8267666,-0.9121862,3.7469065,218.0992432,195.2442780,250.1297760
580,-0.1556223,0.9720409,9.7299862,-3.8625953,2.0687022,-1.0610687,-0.5674229,-1.0821736,3.3805954,214.9618378,227.7862549,250.1297760
590,-0.1484398,0.9433106,9.8808203,-4.3587785,1.4427481,-1.8931298,0.8906385,-1.1180865,3.2728570,208.7099304,249.0534363,250.1297760
600,-0.2322364,0.8786675,9.9095497,-4.1450381,0.7938932,-2.4503818,1.9584470,-1.0414724,2.8562679,199.2366486,250.1297760,250.1297760
610,-0.3375807,0.8379663,10.0555954,-3.6564887,0.5648855,-2.7709923,2.9233053,-1.0486550,2.7700772,188.1068726,250.1297760,250.1297760
620,-0.4716553,0.8236012,10.0939026,-2.7709923,-0.2442748,-2.3129771,3.5457945,-1.1635761,2.5067163,175.2366486,250.1297760,250.1297760
630,-0.5578461,0.8619082,10.1872759,-0.8167939,-0.7328244,-1.4351145,4.5250182,-1.1228749,2.4971397,160.9923706,250.1297760,250.1297760
640,-0.5410868,0.8714849,10.0579901,1.0229008,-0.7709923,-0.4961832,6.0429344,-1.2090657,2.7197993,146.9618378,244.6641235,250.1297760
650,-0.6727672,0.9552816,9.9837704,2.4045801,-1.3511450,0.4503817,7.5991573,-1.3120158,3.1770895,135.3587799,218.8091583,250.1297760
660,-0.6560079,1.0295014,9.9263096,3.2671757,-2.0916030,1.4656489,9.7467451,-1.0342898,3.2680686,127.0152664,167.7175598,250.1297760
670,-0.6153067,1.0462608,9.7587166,3.4427481,-2.0534351,2.6183207,12.4952745,-0.4309541,2.4253139,117.6030502,92.1145020,250.1297760
680,-0.5434810,1.0845678,9.7108326,2.8396947,-1.8625954,3.4274809,16.3140068,0.4237715,0.5913648,100.2671738,-7.9160304,197.5267181
690,-0.4716553,1.0845678,9.6054878,1.5954199,-1.5038168,4.0229006,19.6126022,1.9752063,-2.7413468,67.2977066,-105.7862625,111.8778610
700,-0.3543400,1.1156923,9.6485834,0.1068702,-1.0000000,4.1145039,19.6126022,3.7780309,-5.6119800,17.7099228,-166.6183167,18.5038166
710,-0.2082945,1.1276633,9.6318245,-1.6564885,-0.3893130,3.7786260,19.6126022,4.5465660,-6.4068508,-32.8167953,-165.2213745,-91.7022934
720,-0.0790083,1.1372399,9.6629486,-3.0992367,0.7938932,3.1984732,19.6126022,3.5601597,-6.9263902,-76.8091583,-103.7709961,-218.0534363
730,-0.0837966,1.0702027,9.6916790,-4.3435116,2.3129771,1.9007634,19.6126022,1.3814473,-5.5521255,-105.9542007,-33.4122124,-250.1374054
740,-0.1268920,1.0438666,9.8137827,-5.3358779,2.4503818,0.9236641,19.6126022,-2.0685797,-5.1738434,-137.0534363,4.3587785,-250.1374054
750,-0.2370248,0.9935886,9.9023676,-5.6412215,2.0763359,0.7175573,18.9021263,-5.7029591,-3.7181761,-169.6793823,10.7099237,-250.1374054
760,-0.3998296,1.1372399,10.0101061,-5.1526718,1.6259542,0.4732825,13.7091284,-9.6653433,-1.5107336,-193.7175598,7.5419846,-250.1374054
770,-0.5458752,1.0079538,10.0172882,-4.0229006,1.6183206,1.0381680,9.4211359,-13.2973280,1.0462608,-202.5572510,20.8244267,-250.1374054
780,-0.6057299,1.0151364,9.9981356,-2.9389312,2.5572519,2.0458016,4.8817525,-16.7186241,4.4484038,-192.3206177,48.6335869,-250.1374054
790,-0.6727672,1.0271072,10.0962973,-1.6259542,2.7251909,2.8091602,-1.7214222,-19.6131992,8.6669655,-162.0610657,56.2366409,-250.1374054
800,-0.6224893,1.0702027,9.9191265,-0.6946565,2.0305343,3.4198472,-9.9837704,-19.6131992,12.8879223,-113.0839691,17.8778629,-250.1374054
810,-0.4525018,0.9935886,9.7730818,0.3816794,1.4427481,3.9541984,-19.6131992,-19.6131992,17.1256371,-51.7480927,-69.4809189,-250.1374054
820,-0.3830703,1.0869620,9.8161764,0.2137405,0.2213740,3.5496182,-19.6131992,-15.8351688,19.6126022,2.0763359,-203.4122162,-250.1374054
830,-0.3184272,1.0486550,9.6701307,-0.1832061,-0.7404580,2.7022901,-19.6131992,-6.9072366,19.3426571,31.8091602,-250.1374054,-250.1374054
840,-0.2849085,1.0223188,9.7898407,-0.8244275,-1.7938931,1.8244275,-19.6131992,-0.7445929,13.7953196,42.6793900,-250.1374054,-250.1374054
850,-0.3615226,1.0007712,9.8592720,-1.1526718,-1.5114504,1.2519084,-19.6131992,1.3838415,8.2551651,41.6335869,-250.1374054,-191.0915985
860,-0.4189832,1.0223188,10.0029240,-0.8244275,-0.8396947,1.2595420,-19.6131992,0.4668669,4.2616572,28.0229015,-45.5343513,5.0000000
870,-0.4261657,1.0318956,10.0268650,-0.0839695,-0.4809160,1.5801526,-19.6131992,-0.7829000,3.5601597,3.1450381,204.6259613,132.6793823
880,-0.4429250,1.0965388,9.9287033,1.2519084,-0.2442748,1.9618320,-19.6131992,-0.8666966,6.1794028,-27.2977104,250.1297760,192.4656525
890,-0.5027798,1.1156923,9.8616667,2.0839694,0.0458015,2.3358779,-17.8486824,0.3854645,10.8839855,-45.1221390,250.1297760,194.6488495
900,-0.3830703,1.1492109,9.7754755,1.7633588,0.2290076,2.4961832,-15.0833931,1.3958124,14.2238798,-40.3816795,208.3969421,162.3435059
910,-0.3447633,1.1372399,9.6797075,1.0458015,0.5801527,2.1984732,-10.9414454,2.2672975,14.5470953,-16.5877857,46.6870232,114.2290039
920,-0.3136388,1.1611819,9.6629486,-0.3129771,0.1297710,1.2748091,-6.8090749,2.9352763,12.3396521,11.0687027,-55.7099228,64.1450348
930,-0.2442073,1.0582317,9.6701307,-1.4885496,-0.1297710,0.4198473,-4.4819226,3.6798692,9.0907373,32.4351158,-95.9694672,22.5725193
940,-0.2609667,0.9983770,9.7012558,-2.4503818,-0.0229008,-0.5190840,-4.4148855,4.3526363,6.4260044,44.1068687,-94.2061081,-4.2595420
950,-0.2513899,0.8882443,9.7730818,-3.3511450,-0.1679389,-1.1145039,-5.2384863,4.7931671,4.6662750,47.0763359,-74.5496216,-17.2900772
960,-0.2513899,0.8571198,9.8856087,-3.4122138,-0.5267175,-1.5267175,-5.9304070,4.8099265,3.5697365,43.3435097,-55.4961815,-20.1374054
970,-0.3040621,0.8834559,10.0412302,-3.1145039,-0.7786260,-1.6564885,-5.9280128,4.5058646,3.2225790,36.7938919,-45.7862587,-18.3053436
980,-0.3399749,0.7685348,10.0962973,-1.8778626,-0.7938932,-1.4656489,-5.6574697,4.1515245,3.3111639,30.8625946,-43.4122124,-17.3969460
990,-0.3136388,0.7757174,10.0244713,-0.6412213,-0.9007633,-1.3358779,-5.2001796,3.8498566,3.2273674,26.5954189,-41.5648842,-18.5496178
1000,-0.3998296,0.9097920,9.9957409,0.5801527,-0.8244275,-0.9083970,-4.8075323,3.5242469,3.2010312,23.7328243,-38.7557259,-21.9389305
1010,-0.4429250,0.8475431,9.9861641,1.2824427,-0.9694657,-0.6030535,-4.5106530,3.3398943,3.1268115,20.1526718,-32.1908379,-26.1984730
1020,-0.5506636,0.9409165,9.8927908,1.5190840,-1.2290076,0.1832061,-4.5298066,3.0454090,3.0262554,15.9618320,-21.9389305,-30.5648861
1030,-0.5626345,0.9983770,9.6940727,1.2671756,-1.7328244,0.5725191,-5.1163831,2.8083842,3.0382264,11.6870232,-11.6259546,-33.4274826
1040,-0.5362985,1.0127422,9.7443514,0.7099237,-1.7786260,1.5419847,-5.7556314,2.5617826,3.1699069,7.5114503,-1.9694656,-33.7175560
1050,-0.5578461,1.0366840,9.6246414,0.0305344,-1.3511450,2.4274809,-6.4762826,2.4324965,3.4596038,3.9541984,4.1755724,-32.9771004
1060,-0.4716553,1.0797794,9.6749191,-1.0534351,-0.9083970,3.2137403,-7.2208753,2.2744799,3.7732425,0.7786260,8.5572519,-31.2137413
1070,-0.4860204,1.0582317,9.7204094,-2.0152671,0.1526718,4.0458016,-7.7547798,2.1954718,4.0366035,-1.9465649,8.6793890,-27.4274807
1080,-0.2873027,1.0199248,9.7826586,-2.7251909,0.6030535,4.0534353,-8.1163025,2.1811066,4.2568688,-5.8702292,4.2137403,-23.7022896
1090,-0.1675933,0.9816177,9.7587166,-3.8625953,0.9541985,2.5801528,-7.8481531,1.8459201,5.1906028,-11.8854961,-3.3740458,-18.8167934
1100,-0.1939293,0.9983770,9.8401184,-3.9541984,0.8244275,1.9236641,-7.3357964,1.6807210,5.5856438,-11.7175570,-4.3206105,-19.5572510
1110,-0.1675933,0.9911944,9.8568783,-4.0229006,1.0305344,0.9389313,-6.6079631,1.6017127,5.7101417,-10.8854961,-3.1374047,-24.4045811
1120,-0.2394189,0.9193687,9.9023676,-3.9312978,0.6564885,0.0305344,-6.1410961,1.5849534,5.8274570,-9.9083967,7.2137403,-33.8473282
1130,-0.3902529,0.9888002,10.0867205,-2.7557251,0.1450382,-0.6183206,-6.9216018,2.3103929,6.4978304,-9.7404585,1.3587786,-46.5877876
1140,-0.4453192,0.9528874,10.0675669,-1.3282443,-0.5954198,-0.7404580,-7.3046722,2.2050486,6.6486640,-8.5343513,-2.4274809,-50.4809151
1150,-0.5219333,1.0486550,10.0005293,0.0458015,-1.3435115,-0.2519084,-7.5201492,2.2409613,6.9287844,-5.9618320,-5.5496182,-54.5343513
1160,-0.6248835,1.0247130,9.9981356,1.5114504,-2.0916030,-0.0534351,-7.8792777,2.2792683,7.1442614,-2.1984732,-14.4427481,-58.4122124
1170,-0.4692611,1.0127422,9.6006994,1.5725191,-1.2290076,1.8015267,-10.3476868,2.1332228,7.2974896,9.5496187,-37.6717567,-70.7022934
1180,-0.3160330,1.0127422,9.5599985,-0.0305344,-0.4045801,2.3664122,-11.5495701,1.9105632,7.1705976,11.8320608,-37.4656487,-68.7099228
1190,-0.1484398,1.0007712,9.6533718,-1.5343511,0.2748092,2.6106870,-13.1321287,1.8650736,7.1873569,14.0152674,-32.5572510,-62.0610695
1200,-0.1460456,0.9433106,9.6964674,-2.9847329,1.4122137,2.2824428,-14.5255470,1.8124014,7.2089043,15.6259546,-22.2595425,-49.3053436
1210,-0.0574605,0.9385223,9.8784256,-3.9083970,1.9618320,1.6183206,-15.8375635,1.7262106,7.4076223,16.7786255,-10.6564884,-31.7786255
1220,-0.1388630,0.8834559,10.0579901,-2.7404580,1.5954199,-0.6183206,-17.5877151,1.8746504,8.0301113,22.4961834,6.0687022,12.5877867
1230,-0.2250538,0.9217629,10.1058741,-1.2519084,0.8244275,-1.4809160,-17.5565910,1.9512644,7.9511032,26.9312973,8.5572519,37.2290077
1240,-0.4165890,1.0247130,10.0843258,0.5190840,0.0000000,-2.5343511,-16.9795914,1.8650736,7.7140784,32.1679382,13.2671757,61.9923668
1250,-0.5913648,0.9935886,9.9430685,1.8320611,-1.3969465,-3.1374047,-16.3451309,1.4867916,7.2280579,36.8473282,19.0229015,82.6412201
1260,-0.5913648,1.0462608,9.8592720,2.4961832,-2.2519083,-2.5954199,-15.9141769,1.3575054,6.6917596,39.2977104,29.5572510,100.2366409
1270,-0.6871324,1.0414724,9.8329363,2.7709923,-2.7175572,-2.2137403,-16.0314922,1.3527170,6.5409255,37.9083977,46.5343513,117.5648880
1280,-0.6991033,1.0702027,9.7563219,2.9007633,-3.3206108,-1.3587786,-16.4528694,1.4245427,6.8449879,34.7099228,64.5190811,136.7022858
1290,-0.6105183,1.0103480,9.8281479,2.4274809,-3.6335878,-0.2137405,-17.2668934,1.6400198,7.3525558,33.3206100,76.7404556,159.5572510
1300,-0.4884146,1.0486550,9.9382801,2.7938931,-2.9312978,0.3053435,-17.5350437,1.7357874,7.6278877,35.1526718,79.2671738,187.4045868
1310,-0.3495516,1.0917504,9.8616667,2.9923663,-2.9770992,0.7175573,-17.1304264,1.5346755,7.3286138,38.6412201,82.5954208,217.5496216
1320,-0.2992737,1.1109039,9.7347746,2.9618320,-2.5572519,0.4961832,-16.1368370,1.2449785,7.1993275,42.4885483,90.1221390,246.0686951
1330,-0.2537841,1.0342898,9.7730818,2.7938931,-2.3511450,0.1755725,-14.3028879,1.0127422,6.7731619,45.5190849,95.6030502,250.1297760
1340,-0.2513899,1.0390782,9.8520899,2.2748091,-1.9465649,0.0534351,-12.0595322,0.4189832,6.3230543,48.0610695,101.0992355,250.1297760
1350,-0.2202654,0.9696468,9.7539282,1.3435115,-0.8931298,0.2061069,-9.3397331,-0.0670373,5.8226686,51.3129768,115.6259537,250.1297760
1360,-0.1891410,0.9792235,9.7946291,0.2519084,-0.3282443,0.2519084,-7.0796180,0.3232156,5.1906028,55.5801544,137.2519073,250.1297760
1370,-0.1819584,0.8978211,9.7395630,-0.5496183,0.5572519,0.4198473,-5.9735026,1.1300575,4.7907729,57.6183205,154.8778687,250.1297760
1380,-0.1580165,1.0007712,9.7347746,-1.4198474,0.7786260,0.3664122,-5.7580256,2.0135133,4.2999644,56.5190849,160.4045868,250.1297760
1390,-0.0502780,0.9289455,9.8209648,-2.0076337,1.9389313,-0.3435115,-5.3749552,2.4133430,3.5098817,52.4732819,150.4961853,250.1297760
1400,-0.0885850,0.9313397,9.7635050,-2.6335878,2.0839694,-1.4656489,-4.3693957,2.6096666,2.4420733,45.5877876,139.9541931,250.1297760
1410,-0.0407012,0.9983770,9.8257532,-3.0229008,1.7633588,-2.5496182,-2.9616125,2.6623387,1.2090657,35.5267181,133.0458069,250.1297760
1420,-0.2466015,0.9457048,9.8496952,-3.0152671,1.2977099,-3.4656489,-1.6639616,2.7365584,0.1268920,20.8396950,126.4427490,250.1297760
1430,-0.3782819,0.9816177,9.8329363,-3.0534351,0.6488550,-3.7862597,-0.6057299,2.8371146,-0.5698171,1.9618320,115.6488571,250.1297760
1440,-0.4644727,0.9600700,9.8736372,-2.7480917,-0.2519084,-3.8549619,0.0981618,2.8562679,-0.8690908,-20.9083977,100.6106873,250.1297760
1450,-0.5027798,0.9624642,10.0148945,-2.2595420,-0.7557252,-3.6412213,0.5985473,2.8083842,-0.8307837,-44.7633591,85.1908417,250.1297760
1460,-0.6153067,0.9696468,10.0005293,-1.2824427,-1.1221374,-2.8015268,1.3431402,2.5785420,-0.5578461,-66.0076370,73.3435135,247.1832123
1470,-0.6200951,1.0007712,10.0747490,-0.0152672,-0.9236641,-1.5725191,2.0159075,2.2050486,-0.0550664,-82.6488571,64.1068726,242.7099304
1480,-0.6751614,1.1037214,9.9287033,0.9083970,-1.1297710,-0.4809160,2.5138988,2.0230901,0.8212070,-94.9007645,56.2824440,236.3358765
1490,-0.6296718,1.0965388,9.8760319,1.5496184,-0.5877863,0.7251908,2.5426292,1.8267666,1.3814473,-104.8702316,36.9007645,232.0763397
1500,-0.5674229,1.1372399,9.6940727,1.1603054,-1.8625954,2.2595420,4.5729017,0.7541697,1.9129574,-121.4656525,-32.4427490,231.2061005
1510,-0.4812321,1.1468167,9.6509781,0.7557252,-1.5343511,2.5801528,7.0580707,0.1436514,2.3008161,-126.3206100,-69.4732819,219.1984711
1520,-0.4189832,1.1396341,9.6581602,-0.3969466,-1.1603054,2.6946564,10.1848822,0.2633608,2.7054341,-127.8396912,-87.5114517,200.3129730
1530,-0.3423691,1.1468167,9.6988611,-1.3282443,-0.5801527,2.9236641,13.4098549,0.4118006,3.6391680,-123.2519073,-76.8702316,173.2366486
1540,-0.1939293,1.0223188,9.7706871,-2.3740458,0.6717557,2.9389312,16.2517586,0.7757174,4.6734576,-107.8931274,-42.7099228,134.9770966
1550,-0.1699875,0.9935886,9.7826586,-2.6870229,2.4045801,3.1679389,18.5310268,1.1851238,5.7412663,-80.9618301,1.5877863,81.8091583
1560,-0.3016679,0.7924767,9.8951855,-3.6641221,0.3969466,-1.9541985,17.7385502,1.0199248,1.4173602,2.0916030,79.7328262,-250.1374054
1570,-0.5769997,0.8331779,10.1681223,-3.0000000,-1.4351145,-2.1374047,15.1695843,-0.8355721,1.2282192,-5.8396945,62.3358765,-250.1374054
1580,-0.7421987,0.8571198,10.2543135,-1.1145039,-2.5954199,-1.2595420,11.8560257,-2.7437410,1.7022687,-17.4885502,27.7786255,-250.1374054
1590,-0.8978211,0.9457048,10.2447367,1.7175573,-2.7633588,0.6030535,8.4969788,-5.4108682,2.5402350,-31.9160309,-12.0763359,-250.1374054
1600,-0.9888002,1.0917504,10.2782555,4.7786260,-2.5648854,2.9847329,5.0541339,-8.9375095,4.0605454,-45.7557259,-50.6717567,-250.1374054
1610,-1.0055596,1.2545552,10.0891142,7.2290077,-3.8396947,5.1450381,1.0390782,-13.0196018,6.3374195,-53.9541969,-85.2442780,-250.1374054
1620,-0.8283895,1.3790531,9.8257532,8.7786255,-4.8091602,6.1984735,-3.6295912,-17.3626614,8.3724804,-56.8167953,-113.9236679,-250.1374054
1630,-0.5123565,1.4125718,9.6054878,9.1068707,-5.2213740,6.2290077,-11.5280218,-19.6131992,10.7307568,-53.8778610,-124.3664093,-250.1374054
1640,-0.3734936,1.3958124,9.4618368,7.6183205,-4.5801525,5.5572519,-19.6131992,-19.6131992,14.9565020,-43.5801544,-149.8702240,-250.1374054
1650,-0.2537841,1.4006008,9.4211359,4.5114503,-3.4809160,4.4503818,-19.6131992,-19.6131992,19.1247845,-17.6183205,-246.1908417,-250.1374054
1660,-0.0981618,1.2617378,9.3684635,1.0305344,-2.5572519,3.7633588,-19.6131992,-12.8735571,19.6126022,7.6793895,-250.1374054,-250.1374054
1670,0.0454896,1.0390782,9.5264797,-1.7786260,-0.7938932,3.0000000,-19.6131992,-8.9542685,19.6126022,6.7633586,-250.1374054,-250.1374054
1680,0.0622489,1.0534433,9.6916790,-3.4580152,0.3435115,2.6641221,-19.6131992,-8.5041609,17.1711273,-17.6564884,-250.1374054,-250.1374054
1690,0.2657550,0.8379663,9.6605549,-4.8396945,0.6870229,1.4961832,-19.6131992,-8.3964224,14.6763811,-53.4503822,-250.1374054,-250.1374054
1700,0.2681492,0.7709290,9.8113880,-5.1221375,1.2213740,0.4732825,-14.0299501,-7.5991573,14.1137466,-89.7328262,-250.1374054,-250.1374054
1710,0.2873027,0.6488253,9.9670105,-4.5877862,1.6641221,-0.5190840,-9.3469152,-6.7204900,15.4113979,-113.3053436,-250.1374054,-250.1374054
1720,0.2178712,0.6560079,10.1058741,-3.7404580,2.0839694,-2.1145039,-9.2726955,-6.7923155,18.8542423,-103.1832047,-244.8625946,-217.1526642
1730,0.0718257,0.5985473,10.0915089,-2.9389312,2.2671757,-3.3511450,-12.8687687,-6.1626434,19.6126022,-55.4274826,-55.5801544,-146.4198456
1740,-0.1221037,0.7278336,10.1513634,-1.9389313,0.1374046,-3.9618320,-15.3443604,-4.2496862,19.6126022,13.0305347,68.2366409,-67.3893127
1750,-0.3016679,0.7685348,10.1274214,-0.3053435,-1.6106870,-4.3740458,-15.3443604,-3.0813217,19.6126022,82.1603088,139.3282471,8.5801525
1760,-0.4620786,0.8786675,10.1250277,1.3969465,-2.4732823,-4.2900763,-12.8759508,-2.2744799,18.6052456,135.3969421,183.2900696,68.5725174
1770,-0.7469871,0.9983770,10.1298151,3.4809160,-3.0229008,-3.0992367,-9.6030941,-1.9871773,14.3818960,166.5038147,218.7480927,109.1832047
1780,-0.9050036,1.1348459,10.0196829,5.0305343,-2.8396947,-1.2290076,-6.9934273,-1.7190280,10.6230183,177.4045868,249.4961853,132.4122162
1790,-0.9959828,1.2784972,10.0316534,6.5648856,-2.9694657,1.0610687,-5.4324160,-1.3000449,8.2527714,174.3129730,250.1297760,142.4961853
1800,-0.9720409,1.4604555,9.7012558,7.3358779,-3.3282442,3.4045801,-4.7811961,-0.6847382,6.5193777,159.5725250,250.1297760,141.2061005
1810,-0.9026094,1.5634058,9.5504217,7.0992365,-3.5877862,5.0992365,-4.7261300,-0.0143651,5.5736732,136.9541931,248.5572510,131.3435059
1820,-0.7565638,1.4867916,9.4115591,5.6488547,-4.1068702,5.8244276,-4.8625989,0.6129125,5.1882086,113.2671738,212.7709961,119.2137375
1830,-0.5434810,1.4484847,9.2583303,3.1297710,-4.8625956,6.5038166,-4.7572546,1.1420283,5.2073622,92.7786255,171.3206177,106.3435135
1840,-0.3064562,1.3598996,9.2463598,-0.1145038,-3.5190840,6.3740458,-4.2209558,1.2545552,5.1379304,76.4274826,130.2748108,91.7175598
1850,-0.0766141,1.2114599,9.5192976,-6.9541984,0.3893130,6.1526718,-3.4955165,1.3622938,5.3390427,55.7099228,68.1297684,58.3358765
1860,0.0933734,1.0534433,9.6964674,-8.7099237,1.6259542,6.1374044,-3.2560976,1.4987626,5.3079181,47.8702278,47.9923668,42.5419846
1870,0.1843526,0.9935886,9.9263096,-9.1984730,3.2442749,5.3206105,-3.3039815,1.7573351,5.0996237,41.0152664,32.9847336,28.1526718
1880,0.2059003,0.8762733,10.1154509,-8.7022905,4.0534353,4.0305343,-3.5817075,1.7836711,5.0301919,34.7022896,21.1908398,17.4351139
1890,0.2154770,0.7757174,10.0651722,-7.6335878,3.8778627,2.9465649,-3.9863255,1.7932479,4.8338685,28.7328243,13.4198475,9.7251911
1900,0.1723816,0.8427547,10.1944590,-6.0152674,3.1679389,1.5343511,-4.3717899,1.7764885,4.7500720,22.2366409,6.5267177,4.1908398
1910,0.0000000,0.7924767,10.2710724,-4.1145039,2.6717558,0.1908397,-4.6662750,1.6998745,4.7261300,14.7251911,-1.7099236,0.4961832
1920,-0.1316804,0.9169745,10.2878323,-2.0000000,2.0534351,-0.9541985,-4.9392128,1.7333932,4.8242917,5.9770994,-11.8473282,-2.9312978
1930,-0.3543400,1.0031654,10.1489687,0.3053435,0.1832061,-1.6335878,-5.0732875,1.5370697,4.8673873,-4.0000000,-24.0229015,-5.8549619
1940,-0.5075682,1.0247130,10.0986910,2.9618320,-2.1068702,-1.5954199,-5.0182209,1.4867916,4.9655490,-15.8320608,-37.0305328,-9.0152674
1950,-0.6560079,1.0845678,10.0220766,4.8702292,-3.4045801,-1.0229008,-4.8434453,1.2832855,5.1068063,-27.6870232,-45.5877876,-12.5496187
1960,-0.6464311,1.1492109,9.8401184,6.1450381,-4.5190840,-0.0534351,-4.8051381,1.1659702,5.4443870,-38.8702278,-50.7251892,-15.6564884
1970,-0.6033357,1.2808913,9.7539282,6.7480917,-5.1145039,0.9312977,-4.7141590,0.8978211,6.0620875,-47.4809151,-52.8244286,-19.5954189
1980,-0.4620786,1.2425843,9.6964674,6.6183205,-4.9007635,1.5419847,-4.7907729,0.8858501,6.6342988,-53.5114517,-51.6030540,-22.8854961
1990,-0.2920911,1.2018831,9.6006994,5.3664122,-4.4427481,1.6946565,-5.0613165,0.8714849,7.2160869,-57.0916023,-51.8396950,-24.9312973
2000,-0.1029501,1.2449785,9.5911226,3.7709923,-3.6793892,1.4580153,-5.1355362,0.7206510,7.8601241,-58.4198456,-52.3129768,-25.5801525
2010,0.0766141,1.2354017,9.6509781,2.1068702,-2.5954199,0.7480916,-5.3031297,0.6847382,8.3006544,-57.4274826,-52.6870232,-26.5114498
2020,0.1795642,1.1875180,9.6988611,0.7099237,-1.5267175,-0.1145038,-5.3318601,0.5243275,8.4921904,-55.4427490,-55.3969460,-27.9389305
2030,0.1675933,1.1683644,9.7706871,-0.3435115,0.3587786,-1.0458015,-5.3222833,0.3734936,8.7986460,-54.6030540,-62.3587799,-31.9465656
2040,0.1580165,1.0917504,9.7419567,-0.5496183,0.7938932,-2.3435113,-5.2241216,0.2968795,9.0308828,-55.3587799,-69.3893127,-37.7938919
2050,0.1460456,1.1037214,9.8832140,-1.1603054,0.9389313,-3.3511450,-5.3605900,0.3112446,9.2056589,-58.0687027,-77.5725174,-45.2595406
2060,0.0718257,1.0318956,9.8018112,-1.1526718,1.3893130,-4.5190840,-5.5784616,0.0598547,9.5983057,-61.3282433,-85.4885483,-52.7862587
2070,-0.1747758,0.9983770,9.8784256,-1.5190840,0.8473282,-5.2824426,-6.0405402,-0.2370248,10.1585455,-65.4274826,-93.4198456,-60.7709923
2080,-0.2370248,1.0031654,9.8712435,-1.4656489,0.0992366,-5.3129773,-6.8018923,-0.7541697,10.6948442,-69.8015289,-98.8625946,-67.9389343
2090,-0.3375807,1.0247130,9.8927908,-1.0458015,0.0229008,-4.7480917,-8.1234846,-1.4796091,11.1736822,-74.0305328,-95.9770966,-71.9236679
2100,-0.4070122,1.0366840,9.8305416,-0.6946565,-0.1679389,-3.9312978,-10.1202393,-2.4133430,11.8296900,-80.4885483,-78.9542007,-67.5725174
2110,-0.4955972,1.0773853,9.7754755,-0.3664122,-0.5496183,-3.0305343,-12.6532917,-2.8035958,12.9358053,-88.2595444,-49.2748108,-51.8091621
2120,-0.4453192,1.0917504,9.6725254,-0.5419847,-1.5725191,-2.4274809,-16.1679611,-3.3231349,14.6452570,-94.4656525,-6.5267177,-19.7938938
2130,-0.4692611,1.0725969,9.7036495,-1.6793894,-1.3893130,-1.5954199,-19.5341911,-3.9791429,16.6851063,-95.0457993,48.3740463,30.8396950
2140,-0.5530578,1.1085097,9.6988611,-3.0381680,-1.6870229,-0.5801527,-19.6131992,-4.2664456,19.1271801,-86.3282471,103.2824402,97.0457993
2150,-0.5602403,1.1276633,9.7706871,-3.9160306,-2.0610688,0.9389313,-19.6131992,-5.6143742,19.6126022,-67.3206100,143.3816833,167.6106873
2160,-0.6560079,1.1803354,9.9382801,-3.9618320,-2.1068702,2.9236641,-19.6131992,-7.7667508,19.6126022,-37.7099228,159.7099304,247.1374054
2170,-0.6512195,1.2114599,10.0603838,-2.8244274,-1.1908396,5.0992365,-19.6131992,-7.0149751,19.6126022,12.3740454,143.5648804,250.1297760
2180,-0.5626345,1.1492109,9.9813757,-1.3969465,0.0916031,7.2290077,-17.7481270,-6.3781209,19.6126022,78.6106873,117.1908417,250.1297760
2190,-0.3926471,1.2186425,9.8496952,-0.3587786,1.7251909,8.4274807,-13.5678720,-6.2224984,19.6126022,147.1068726,99.1145020,250.1297760
2200,-0.2442073,1.2449785,9.7515335,-0.3893130,2.6564887,8.8702288,-10.7355452,-5.9328012,16.1081066,201.5572510,99.7022934,250.1297760
2210,-0.0646431,1.2737088,9.7539282,-1.2061069,3.1145039,8.5725193,-9.2679071,-5.2552457,11.1138277,231.0229034,123.2748108,250.1297760
2220,0.0407012,1.1204807,9.6605549,-2.2366412,2.8931298,7.1450381,-8.8680773,-4.0198441,6.5648675,234.4274750,173.7099304,250.1297760
2230,0.2442073,0.9983770,9.4929609,-3.7175572,3.1297710,5.2137403,-8.9351149,-2.5138988,3.3327117,215.0000000,228.5801544,250.1297760
2240,0.2920911,0.8954269,9.7132263,-5.3511453,3.1603053,3.0610688,-8.8106174,-1.6615674,1.6017127,177.2519073,250.1297760,250.1297760
2250,0.2346306,0.9026094,9.8473015,-6.3129773,2.6793892,1.3969465,-8.2815018,-1.5059452,1.4843974,132.7175598,250.1297760,250.1297760
2260,0.1436514,0.8523315,10.0484133,-6.1526718,2.0458016,-0.1603053,-7.2903070,-1.9560528,1.9608412,94.0992355,250.1297760,250.1297760
2270,-0.1125269,0.8571198,10.1776991,-4.6183205,0.4351145,-1.5267175,-5.2552457,-2.9376705,2.6000898,65.4656525,215.4961853,250.1297760
2280,-0.2250538,0.8475431,10.2974091,-1.7557251,-1.5572519,-2.0610688,-2.8538737,-3.3925664,2.5282640,43.8320618,180.5267181,250.1297760
2290,-0.4620786,0.9983770,10.2902260,1.4427481,-2.5343511,-1.8244275,-0.8690908,-3.7109938,2.6647329,26.1755733,161.6946564,250.1297760
2300,-0.6703730,1.0941446,10.1824875,4.3816795,-3.1984732,-1.0916030,0.2705434,-3.8666160,2.8442972,11.2137403,158.8625946,250.1297760
2310,-0.7206510,1.2521610,10.0508070,6.8549619,-4.0839696,0.6335878,1.2737088,-3.8307030,3.6750808,1.6564885,165.6793823,250.1297760
2320,-0.7086801,1.4077834,9.8999729,7.9618320,-5.2671757,1.6335878,1.8195840,-3.8115497,4.5250182,-3.5419848,170.7862549,250.1297760
2330,-0.5793939,1.5059452,9.6964674,8.2519083,-6.5419846,2.1832061,2.6360025,-3.9288650,4.9176650,-5.0839696,174.8015289,250.1297760
2340,-0.4213773,1.4556671,9.4881725,7.4198475,-6.5725193,2.3206108,3.8761928,-4.3215117,5.4802995,-6.5114503,173.0534363,250.1297760
2350,-0.1915352,1.4556671,9.3804340,5.0076337,-5.7786260,1.9312977,5.5976148,-4.5130472,6.3374195,-7.4656487,162.8015289,250.1297760
2360,-0.0718257,1.4101776,9.4546537,2.5038168,-3.4045801,1.4732825,7.6039457,-4.4316444,7.0772243,-5.8473282,146.5725250,250.1297760
2370,-0.0095768,1.4125718,9.4546537,-0.5801527,-1.6412214,0.3511450,10.0101061,-3.9839313,7.8313937,-1.7862595,127.6259537,250.1297760
2380,0.1340746,1.2306134,9.5240860,-3.0839694,0.3206107,-0.4045801,12.2414904,-3.2967989,8.4514885,5.0687022,108.8320618,250.1297760
2390,0.1197095,1.1013272,9.7156210,-4.2366414,1.7022901,-1.1068702,14.8439751,-1.8698620,9.0476418,15.5648851,79.4809189,250.1297760
2400,0.1412572,1.0318956,9.7539282,-4.7938933,2.5572519,-1.9923664,17.2597122,-0.6177009,9.0045462,25.3664131,35.3129768,193.6564941
2410,-0.1340746,0.6177009,10.1082678,-4.4885497,1.5648855,-2.0458016,19.6126022,0.4285599,6.0740585,51.3206100,-35.8015251,-162.3129730
2420,-0.1939293,0.6272776,9.9861641,-3.2061069,0.8091603,-1.6946565,19.6126022,0.0383070,5.9423780,54.0076332,-45.2519073,-250.1374054
2430,-0.3902529,0.7972651,10.1274214,-1.8854961,-0.2137405,-0.9083970,19.5437679,-1.0749911,5.6838059,60.0305328,-54.8015251,-250.1374054
2440,-0.4908088,0.8954269,10.0843258,-0.2213740,-0.9847328,0.3129771,16.8407288,-2.4516499,4.8195033,62.7557259,-69.8167953,-250.1374054
2450,-0.6464311,1.0199248,10.0460186,1.3664122,-2.3587787,1.6183206,14.2071199,-3.7900019,4.2496862,62.0839691,-86.0610657,-250.1374054
2460,-0.6967092,1.1611819,9.9406748,2.8167939,-3.0152671,3.3282442,11.4178896,-5.2815819,4.5226240,59.0763359,-93.5190811,-250.1374054
2470,-0.6488253,1.2832855,9.7730818,3.4427481,-2.6030533,4.9236641,8.5640154,-7.1203194,5.2552457,59.9618340,-91.4427490,-250.1374054
2480,-0.6129125,1.3886299,9.6677370,3.7251909,-1.8244275,6.2137403,5.8681583,-9.9215212,6.9072366,70.7633591,-87.1603088,-250.1374054
2490,-0.4764437,1.5011568,9.5647869,3.0076337,-1.4885496,6.8549619,1.0295014,-14.1520538,7.8337879,94.2442780,-86.3969498,-250.1374054
2500,-0.3016679,1.4676381,9.5049324,1.7099236,-1.5190840,7.3129773,-6.7971039,-18.2173882,7.6159167,129.4274750,-108.6106873,-250.1374054
2510,-0.1173153,1.4365137,9.4929609,-0.0458015,-1.5114504,6.8244276,-17.5661678,-19.6131992,6.0740585,160.1755676,-183.3511505,-250.1374054
2520,0.0311245,1.3503228,9.4594421,-2.3053436,-0.7862595,5.5038166,-19.6131992,-18.0928898,3.0406206,162.5877838,-250.1374054,-250.1374054
2530,0.0885850,1.3239868,9.6605549,-4.4351144,-0.1068702,4.1374044,-19.6131992,-10.4506369,1.2234308,126.2671738,-250.1374054,-250.1374054
2540,0.1675933,1.1132981,9.8089943,-5.7633586,1.0305344,2.9160306,-19.6131992,0.3471575,0.4118006,60.7022896,-250.1374054,-250.1374054
2550,0.2250538,1.1085097,9.8808203,-5.6793895,1.5038168,1.9770992,-19.6131992,6.0620875,1.0199248,-5.9694657,-218.2290039,-250.1374054
2560,0.1149211,0.9480990,10.0436249,-5.3893127,1.7862595,1.0687023,-19.6131992,5.8250628,2.5450234,-35.6488533,-53.4732819,1.7557251
2570,0.0095768,0.9720409,10.1346035,-4.0687022,1.4809160,0.3511450,-19.6131992,2.0925217,3.4619980,-28.6717548,158.6183167,177.1832123
2580,0.0071826,0.9935886,10.1968527,-2.8091602,1.2748091,-0.7022901,-19.6131992,-0.5458752,4.3693957,-18.3053436,250.1297760,250.1297760
2590,-0.0502780,0.9935886,10.1369982,-0.9847328,0.6870229,-1.6564885,-15.3994265,-0.1005560,6.2440462,-20.6488552,250.1297760,250.1297760
2600,-0.1939293,0.9528874,10.0292597,0.0152672,-0.2824427,-2.1450381,-11.3939476,1.7166338,8.3126259,-22.0916023,250.1297760,200.9847260
2610,-0.3375807,1.1156923,9.8616667,0.9618320,-1.4427481,-2.5267177,-9.1170731,3.1004753,9.4977493,-12.9236641,169.6870270,136.1755676
2620,-0.4285599,1.0678085,9.9287033,1.5648855,-2.2137403,-2.0839694,-6.9718795,3.7684543,9.0955257,5.2748094,24.5190830,72.3740463
2630,-0.4022238,1.1204807,9.9023676,1.7328244,-2.3282442,-1.1450381,-5.5640965,4.3526363,7.1346846,21.9694653,-66.9770966,20.4580154
2640,-0.4237715,1.1539993,9.9023676,1.8854961,-2.0229008,-0.0381679,-5.1906028,4.7381010,4.8697815,27.8854961,-106.3435135,-13.8549614
2650,-0.3088504,1.1827296,9.8401184,2.1603053,-1.5343511,0.5801527,-5.2313042,4.8554163,3.8330972,26.8625946,-119.6870193,-33.3816795
2660,-0.2657550,1.2665262,9.8137827,2.1526718,-0.9770992,1.1526718,-5.2911587,4.7309184,3.2656744,25.5877857,-121.4274826,-44.2061081
2670,-0.1364688,1.1444225,9.8305416,1.8702290,-0.0839695,1.6946565,-5.0038562,4.2377152,3.1651185,25.2595425,-124.1984711,-52.8320618
2680,-0.0383070,1.2377959,9.7323799,0.7557252,0.4427481,1.4274809,-4.4531922,3.9192882,3.0549858,25.1832066,-132.9007568,-61.9236641
2690,0.1077385,1.0893562,9.8281479,-0.7786260,1.1297710,0.0305344,-3.7900019,3.2369442,2.4516499,25.8396950,-118.0229034,-79.0916061
2700,0.1221037,1.0295014,9.7802639,-1.3282443,1.0839695,-0.8854962,-4.2999644,3.1746953,2.4324965,27.9770985,-81.2977066,-80.4427490
2710,0.0574605,0.9433106,9.8401184,-1.9312977,0.7328244,-1.9160305,-5.2001796,3.0645626,2.4564383,32.2442741,-37.9923668,-76.7862625
2720,-0.0263361,0.9480990,9.9454632,-2.1679389,0.5343512,-2.7480917,-6.1817970,2.9568241,2.4875629,36.7404594,-4.3664122,-69.7480927
2730,-0.1532281,0.9337339,9.9406748,-1.5954199,-0.2900763,-3.3816793,-7.0341287,2.8251436,2.1739240,39.0916023,15.9923668,-63.7328262
2740,-0.2537841,1.0127422,10.1010857,-0.7938932,-1.2519084,-3.6030533,-7.6709828,2.5210814,2.0733681,37.7633591,21.1832066,-59.9541969
2750,-0.4165890,1.0558375,10.0651722,0.5419847,-2.3282442,-3.3206108,-8.1785507,2.4229198,1.9440818,32.8091621,12.4351149,-58.2137413
2760,-0.5123565,1.1300575,10.0292597,2.1374047,-3.0610688,-2.6641221,-8.4107876,2.3822186,1.9416877,24.5190830,-4.5343513,-59.5572510
2770,-0.6272776,1.2066715,9.9502516,3.3816793,-4.2900763,-1.1526718,-8.3461447,2.3079987,2.2385671,14.1679392,-23.4961834,-61.9694672
2780,-0.6655847,1.3383518,9.7251978,4.7404580,-4.2671757,2.1908398,-8.5017672,2.3894010,2.9209111,-5.6793895,-52.0610695,-70.1145020
2790,-0.4955972,1.4173602,9.6054878,4.0229006,-3.5801528,3.3893130,-8.6190825,2.5115047,3.4476328,-11.4809160,-52.9618340,-71.4961853
2800,-0.3327923,1.3431402,9.4857788,2.1603053,-2.2671757,4.3435116,-8.8585014,2.4947455,3.9767487,-13.5419846,-45.3664131,-69.9542007
2810,-0.1292862,1.3694763,9.4857788,0.2061069,-0.5801527,4.5954199,-9.0141230,2.5378408,4.4053087,-11.9923668,-33.6106873,-66.6030502
2820,0.1651991,1.2473727,9.5983057,-4.5877862,1.9541985,4.1603055,-9.5216913,2.7485294,5.0828643,-4.3816795,-7.6412215,-61.2213745
2830,0.2226596,1.2018831,9.6916790,-6.2213740,4.2290077,3.1908398,-9.9694052,2.8395088,5.1858144,-0.5190840,2.8625953,-58.6946564
2840,0.2298422,1.0151364,9.8281479,-7.0076337,5.0000000,1.9770992,-10.6349897,2.8131726,5.2983413,3.2290077,11.2213745,-57.5419846
2850,0.2825144,1.0223188,9.7826586,-6.9694657,5.6564884,0.7862595,-11.4897156,2.8969693,5.4132624,7.3129773,14.3816795,-56.0687027
2860,-0.0790083,0.7757174,9.9670105,-5.8396945,4.5572519,-2.1603053,-15.5526543,2.7820482,5.1187773,17.8778629,-13.3816795,-46.1755714
2870,-0.2394189,0.7829000,10.0795374,-5.0076337,2.7938931,-2.4351146,-17.2860470,2.8562679,4.7213416,18.5877857,-12.7786255,-32.4427490
2880,-0.4237715,0.8786675,10.0101061,-4.0305343,0.4885496,-2.3587787,-19.0122585,2.6695213,4.4699516,18.4351139,-1.8931298,-9.1984730
2890,-0.6440369,0.8451489,10.0867205,-2.7786260,-1.8778626,-1.7862595,-19.6131992,2.2601149,4.0988522,16.9618320,15.3969469,18.0763359
2900,-0.7852941,1.0055596,10.2303715,-1.1068702,-4.4580154,-0.9923664,-19.6131992,2.4684093,3.8187323,12.9694653,32.6564903,51.3664131
2910,-0.7541697,1.2593436,10.0292597,4.3740458,-4.9465647,3.3816793,-19.6131992,2.7437410,3.6295912,-0.7557252,62.0534363,129.2061005
2920,-0.6607963,1.2928623,9.9047613,5.7557254,-3.9007633,6.2977099,-19.6131992,2.5689652,3.6607156,-5.1908398,74.3587799,164.2061005
2930,-0.3303981,1.2641320,9.7012558,5.9236641,-2.2748091,8.0152674,-18.8877602,2.3056045,3.5505829,-8.5572519,86.5648880,194.4427490
2940,-0.0335187,1.3359578,9.5121145,4.0305343,0.3893130,7.9160304,-17.3363266,1.8842272,3.3973548,-12.9236641,97.9465637,218.0381622
2950,0.2849085,1.3958124,9.4115591,0.9923664,1.2671756,6.4732823,-16.5749741,1.4820032,3.5673423,-17.9923668,108.5419846,236.9923706
2960,0.4477134,1.3096216,9.3995876,-2.5572519,1.4122137,4.0000000,-15.9261484,1.3718705,3.9264708,-22.1374054,108.0610657,250.1297760
2970,0.5602403,1.1875180,9.5360565,-5.3129773,1.2595420,1.1908396,-15.0139618,1.4628497,3.8737986,-24.3740463,94.6335907,250.1297760
2980,0.4764437,1.1132981,9.7299862,-6.6488547,1.4045801,-1.7175573,-13.6205435,1.3048333,3.4979107,-24.8396950,82.1908417,250.1297760
2990,0.2992737,1.0390782,10.1154509,-6.3053436,1.5572519,-4.0610685,-11.9517937,1.1970947,2.8634505,-26.3282452,75.0534363,250.1297760
3000,0.0574605,1.0103480,10.2567072,-4.2061067,1.6870229,-5.4427481,-10.2614956,1.0007712,2.3917952,-29.9465656,72.0229034,250.1297760
3010,-0.2753318,0.9744351,10.2710724,-1.4503816,2.0076337,-5.6335878,-8.5664101,0.9050036,1.7717001,-35.8625946,71.8167953,250.1297760
3020,-0.4596844,1.0845678,10.3165627,1.2595420,1.0839695,-4.8778625,-7.1514440,0.9073978,1.5514348,-43.6030540,74.6717529,250.1297760
3030,-0.6033357,1.1276633,10.0723553,3.8778627,-0.3435115,-4.2061067,-5.7101417,0.8619082,1.6041069,-51.1832047,79.2137375,250.1297760
3040,-0.5937590,1.1372399,9.8664551,4.8625956,-1.9618320,-3.7251909,-4.5298066,0.6703730,1.8076130,-57.1068687,84.0916061,250.1297760
3050,-0.6033357,1.2066715,9.7515335,4.7099237,-3.7786260,-3.2824428,-3.0861101,0.5219333,2.0087249,-61.1755714,89.5114517,250.1297760
3060,-0.5291159,1.2617378,9.6366129,3.7786260,-4.6183205,-2.7786260,-1.8866212,0.4046180,2.1619530,-63.4809151,98.3053436,250.1297760
3070,-0.3926471,1.2210367,9.6390066,2.7862597,-5.0534353,-2.4351146,-0.5793939,0.2825144,2.3750360,-65.4274826,103.3282471,250.1297760
3080,-0.1604107,1.1947005,9.7491398,1.9236641,-4.8854961,-2.2442749,0.5051740,0.2489957,2.4348907,-67.5801544,106.2290039,250.1297760
3090,-0.1005560,1.1468167,9.7132263,1.4274809,-4.7328243,-2.1679389,0.8978211,0.4070122,2.8059900,-69.5419846,105.4503784,250.1297760
3100,-0.0071826,1.0725969,9.8568783,0.9770992,-3.7022901,-1.8015267,1.5107336,0.2106887,2.7748656,-72.3129807,99.8091583,250.1297760
3110,-0.0335187,1.0414724,9.8927908,0.9312977,-2.0916030,-1.6412214,2.4157372,-0.3184272,3.0932927,-75.7786255,88.3816757,250.1297760
3120,0.0191535,0.8666966,9.8329363,0.6564885,-1.0534351,-1.1068702,3.8474624,-0.6799498,3.7301471,-78.6259537,67.0992355,250.1297760
3130,0.0742199,0.9217629,9.8856087,0.4198473,-0.1450382,-0.2213740,5.8466105,-0.6512195,4.3789725,-79.4885483,37.8167953,250.1297760
3140,0.0000000,0.8547257,9.7730818,-0.2900763,1.0152671,0.4198473,7.9846220,-0.6009415,4.9224534,-78.0763321,3.4961832,248.0381622
3150,0.0119709,0.9121862,9.7587166,-0.9312977,2.5419848,0.5114504,10.9893293,0.0143651,5.4252334,-74.9389343,-31.3129768,212.4122162
3160,-0.1053443,0.9864060,9.7012558,-2.4122138,2.7404580,0.3358779,15.9524841,0.9289455,6.2416520,-72.3358765,-55.8931313,163.3664093
3170,-0.1244979,1.0438666,9.6629486,-3.9236641,2.0229008,0.2824427,19.6126022,1.9249283,7.7092900,-69.8931274,-53.7175560,90.6717529
3180,-0.2035061,1.0031654,9.8640604,-5.1068702,1.3206106,0.1221374,19.6126022,2.3798244,10.1369982,-59.7404594,-32.2519073,-15.9770994
3190,-0.2944853,1.0247130,9.8209648,-4.9389315,0.4351145,0.2442748,19.6126022,0.9792235,12.2031832,-31.6183205,-30.8854961,-159.0000000
3200,-0.4046180,1.1061156,9.9933472,-4.3358779,-0.1755725,0.8625954,19.6126022,-2.2313845,12.1145983,3.0000000,-65.1297684,-250.1374054
3210,-0.5434810,1.1348459,10.0915089,-3.3358779,-0.1145038,1.9541985,19.6126022,-6.3637557,11.4059181,39.0610695,-120.2824402,-250.1374054
3220,-0.5458752,1.2138541,10.0268650,-2.3740458,-0.4198473,2.9389312,19.6126022,-11.6716738,8.8417416,58.3511467,-191.5496216,-250.1374054
3230,-0.5961532,1.2473727,10.0292597,-0.9694657,-1.3511450,4.2519083,10.4602137,-15.5358953,6.9192076,56.4427490,-250.1374054,-250.1374054
3240,-0.5339043,1.3024391,9.9933472,0.3664122,-1.6183206,5.1297708,2.0302727,-17.9755745,5.9711084,40.8091621,-250.1374054,-250.1374054
3250,-0.4405309,1.3096216,9.7587166,1.1374046,-1.8778626,6.1526718,-6.4451580,-18.6387653,5.6742291,20.0610695,-250.1374054,-250.1374054
3260,-0.3615226,1.2856797,9.6964674,0.6793893,-2.0687022,6.6793895,-14.0562859,-18.3251266,5.5066357,3.8549619,-250.1374054,-250.1374054
3270,-0.1699875,1.2234308,9.6246414,-0.0458015,-1.7938931,6.8015265,-19.6131992,-16.6276455,5.0684991,-9.3282442,-250.1374054,-250.1374054
3280,-0.0359128,1.2377959,9.6844959,-1.5190840,-1.1145039,6.3282442,-19.6131992,-10.9007444,5.9375896,-21.3511448,-250.1374054,-250.1374054
3290,0.0215477,1.2018831,9.7180147,-2.6030533,-0.6717557,5.7328243,-19.6131992,-2.9640064,8.9231443,-29.5725193,-129.1755676,-250.1374054
3300,0.2011119,1.1037214,9.8089943,-3.7633588,0.1374046,4.8091602,-19.6131992,1.7836711,11.1904411,-17.8015270,0.4351145,-250.1374054
3310,0.1819584,1.1109039,9.9167328,-3.9465649,0.7633588,3.5343511,-19.6131992,1.4484847,10.8313131,20.6412220,113.0457993,-124.6870193
3320,0.1795642,1.2090657,9.7922344,-3.4503818,1.9389313,2.6106870,-19.6131992,0.2968795,8.0732069,66.5954208,223.7099304,6.0076337
3330,0.2777260,0.9097920,9.9670105,-2.7480917,0.4351145,1.5038168,-19.6131992,-0.7110743,4.5178356,85.6259537,250.1297760,66.6259537
3340,0.1604107,0.9600700,10.0077124,-1.9312977,1.6870229,-0.1984733,-18.7417145,-0.3758878,2.8490853,71.1603088,250.1297760,81.2366409
3350,0.0909792,0.9959828,10.1489687,-1.0992366,1.8091604,-0.7786260,-17.2549229,0.8068419,3.2225790,40.3053436,250.1297760,68.2595444
3360,-0.1268920,1.0438666,9.9382801,0.5954198,0.2366412,-3.9160306,-13.4721041,2.3199697,6.2248926,-20.4961834,-60.4351158,-18.0610695
3370,-0.2346306,1.0702027,9.8951855,0.9389313,-1.0229008,-4.2595420,-12.0092545,2.6719155,6.3685441,-16.9007626,-111.5496216,-35.0381660
3380,-0.2777260,1.0678085,9.8760319,1.7786260,-2.5801528,-4.2824426,-11.0635490,2.9065459,6.2560172,-5.5419846,-123.2137375,-42.7404594
3390,-0.3495516,1.1037214,10.0388365,2.5877862,-3.0763359,-4.0992365,-10.6732969,3.0310438,5.7699966,9.5648851,-114.7099228,-42.9389305
3400,-0.3950413,1.0797794,10.0244713,3.9236641,-3.8854961,-3.0916030,-10.4003592,3.0597742,5.1522956,23.9083977,-96.0839691,-36.9465637
3410,-0.4070122,1.1563935,10.0005293,4.9541984,-3.8473282,-2.0305343,-9.7635050,3.1459649,4.2712340,33.3053436,-76.3053436,-27.1526718
3420,-0.3112446,1.1061156,9.8329363,5.6030536,-3.6259542,-1.1526718,-8.7555504,3.0621684,3.5242469,38.4427490,-61.0687027,-19.2137413
3430,-0.2466015,1.2473727,9.7778702,5.6183205,-3.0763359,-0.7251908,-7.8720951,2.8203552,2.9855542,40.2748108,-50.2977104,-15.8625956
3440,-0.2106887,1.1827296,9.6797075,4.9541984,-3.0305343,-0.5648855,-7.1370788,2.6623387,2.4372849,39.2900772,-40.8549614,-16.5496178
3450,-0.0766141,1.2018831,9.6030941,3.6106870,-2.7938931,-0.1908397,-6.9168134,2.6312141,2.0733681,35.1145020,-33.6946564,-18.7251911
3460,-0.0837966,1.1947005,9.6126709,2.0534351,-1.9160305,-0.0763359,-6.9192076,2.6192431,1.6472024,26.7404575,-31.1832066,-20.3969460
3470,-0.0119709,1.2425843,9.6509781,0.8473282,-1.0763359,-0.0839695,-7.0460997,2.4779861,1.5969244,15.8778629,-30.7633591,-21.8854961
3480,0.0694315,1.1228749,9.8137827,-0.6335878,0.6946565,-0.5496183,-7.0676475,2.3534882,2.1236460,-6.5419846,-31.7633591,-24.7633591
3490,-0.0311245,1.0773853,9.7970228,-1.3358779,1.0076336,-0.8091603,-7.0963774,1.9967541,2.9496415,-13.5648851,-30.0152664,-25.8091602
3500,0.0502780,1.1037214,9.8137827,-1.9847329,1.1603054,-1.0992366,-7.0077925,1.7573351,3.5649481,-15.9160309,-25.5877857,-27.8015270
3510,-0.0263361,1.0678085,9.8688488,-2.3664122,1.8244275,-1.2366412,-7.2591825,1.6615674,4.1658897,-15.0381680,-17.8625946,-29.0152664
3520,-0.0742199,1.0630201,9.8353300,-2.6946564,1.9770992,-1.1832061,-7.5584559,1.6088953,4.4795284,-11.2061071,-8.1755724,-31.4351139
3530,-0.1628049,1.1132981,9.8401184,-3.1068702,1.3282443,-1.1374046,-7.9199786,1.4676381,4.6590929,-6.7633586,-2.9160306,-33.3511467
3540,-0.2681492,1.1180865,9.8065996,-3.2900763,0.9007633,-0.8625954,-8.3078375,1.5227045,4.7668314,-3.0305343,-3.7404580,-34.0839691
3550,-0.2011119,1.1276633,9.8808203,-2.7862597,0.1908397,-0.7251908,-8.6549950,1.4915800,4.8266859,-0.8320611,-6.7251906,-36.0458031
3560,-0.3327923,1.1252691,9.9454632,-2.2977099,-0.4427481,-0.3358779,-8.8585014,1.5298871,4.8410511,0.6183206,-11.9236641,-36.8854980
3570,-0.3998296,1.0486550,9.8688488,-1.6335878,-0.8702290,0.4656489,-8.9686337,1.5035510,4.8314743,1.9083970,-19.9083977,-38.6488533
3580,-0.3471575,1.1324517,9.8880024,-1.4961832,-1.4885496,1.4656489,-8.9566631,1.4820032,4.8482337,2.9923663,-29.5343513,-41.0992355
3590,-0.4070122,1.2186425,9.8592720,-0.9923664,-1.5496184,2.2595420,-8.8369532,1.3742647,4.7620430,3.7022901,-38.4198456,-44.8931313
3600,-0.5051740,1.2042773,9.9765873,-0.4274809,-2.1984732,3.2900763,-8.9135675,1.4101776,4.8290801,4.0839696,-44.6030540,-49.4274826
3610,0.1651991,1.2186425,9.7587166,0.6870229,2.0916030,4.5343513,-12.0954447,1.1827296,5.5425487,2.9770992,-25.5038166,-50.9618340
3620,0.2896969,1.0247130,9.5959110,-2.5725191,2.2137403,-1.0000000,-15.7130651,1.0582317,6.3829093,-0.1832061,-7.5954199,-20.2900772
3630,0.1963235,0.9600700,9.7898407,-3.3282442,1.2366412,-2.8702290,-16.6204624,1.0582317,6.9670911,0.3587786,-6.6335878,-2.5648854
3640,-0.0023942,0.9409165,9.9095497,-4.0381680,-0.1374046,-3.9465649,-17.0633888,0.7374104,7.2376347,3.5725191,-8.6106873,16.1145039
3650,-0.1867468,0.9696468,10.0244713,-3.2900763,-1.3206106,-4.1755724,-16.8694592,0.5722113,7.4794478,7.8167939,-12.1221371,34.3893127
3660,-0.4022238,1.0989330,10.1465750,-1.9083970,-2.2824428,-3.5267177,-16.4839935,0.4405309,7.5201492,12.6564884,-12.0687027,50.3282433
3670,-0.5386927,1.0845678,10.2686787,0.5419847,-2.3206108,-2.3282442,-16.2278156,0.3663110,7.4219875,17.4580154,-7.4198475,66.2213745
3680,-0.6272776,1.1875180,10.2112179,3.2519083,-3.0152671,-0.8244275,-16.2972469,0.5027798,7.2232695,22.7709923,-3.3969467,82.8625946
3690,-0.6799498,1.3694763,10.0268650,5.5496182,-4.0076337,0.8473282,-16.4696293,0.6248835,6.9431496,27.2213745,-3.8931298,101.7786255
3700,-0.5315101,1.4676381,9.8927908,7.1526718,-3.9694657,2.3358779,-16.9436779,0.6344602,6.4547348,29.8473282,-7.6488547,120.7328262
3710,-0.3471575,1.4939742,9.6318245,6.8931298,-4.7022901,2.7557251,-17.1950684,0.9720409,5.7771792,29.6183205,-12.1374044,144.7786255
3720,-0.1556223,1.5274929,9.4522600,5.3511453,-4.8625956,2.7328243,-17.5206776,1.2186425,4.9248476,26.4656487,-5.6412215,176.6793823
3730,-0.0430954,1.5083394,9.4355011,2.6641221,-4.3893127,1.8702290,-18.4424419,1.4652439,4.0557570,21.0992374,15.3893127,217.1374054
3740,0.0430954,1.3718705,9.5432396,-0.1145038,-3.1984732,1.2671756,-19.6131992,1.3886299,3.3111639,13.0992365,46.0152664,250.1297760
3750,0.2442073,0.9409165,9.9047613,-3.3053436,1.2671756,1.6106870,-19.6131992,-1.8387375,2.4109488,-25.8931293,106.4198456,250.1297760
3760,0.3878587,0.8571198,9.8712435,-3.4885497,3.0000000,1.6030535,-18.3562508,-3.7014170,2.7700772,-41.6335869,109.7633591,250.1297760
3770,0.3280039,0.7876883,9.9095497,-3.7709923,3.5725191,1.1832061,-13.1153698,-5.6215568,3.3542595,-56.7022896,105.0000000,250.1297760
3780,0.3998296,0.8307837,9.9430685,-4.1679387,3.8015268,0.6564885,-7.9343438,-6.6271162,4.4077029,-67.0381699,95.5114517,250.1297760
3790,0.2657550,0.7972651,9.9885588,-4.0610685,3.8778627,-0.7862595,-3.2225790,-6.5265603,5.7532372,-67.2061081,86.7099228,250.1297760
3800,0.1149211,0.8451489,9.9622221,-3.8015268,2.4198472,-1.7328244,0.5937590,-5.5664907,6.4523406,-55.8473282,86.9770966,250.1297760
3810,-0.1125269,0.8451489,10.0555954,-3.1450381,0.2977099,-2.9083970,2.9616125,-4.2329268,6.6582408,-36.5267181,97.9083939,250.1297760
3820,-0.3351865,0.9696468,10.0843258,-2.0534351,-1.6183206,-2.6412213,4.6207857,-2.9209111,6.3733325,-16.9847336,114.6106873,250.1297760
3830,-0.5099624,1.0654143,10.1537571,-0.3740458,-2.8473282,-1.9847329,5.5138183,-1.9776005,5.7316895,-1.0610687,138.4198456,250.1297760
3840,-0.6200951,1.2282192,10.1753054,1.8396946,-2.7328243,-0.4885496,5.6862001,-1.4843974,5.1522956,8.5343513,162.8702240,250.1297760
3850,-0.6775556,1.4101776,9.9478569,3.9465649,-3.5038168,1.0076336,5.7532372,-1.1947005,4.5992379,10.8244276,174.8854980,250.1297760
3860,-0.3495516,1.5658000,9.5863342,5.7328243,-3.4580152,4.9541984,7.8481531,-1.0055596,3.2944047,-16.7786255,97.8167953,250.1297760
3870,-0.1867468,1.5705882,9.4331064,3.8396947,-3.4656489,5.2671757,9.2248116,-0.8283895,3.1938488,-32.1221390,46.0152664,250.1297760
3880,0.0598547,1.4891858,9.3924055,1.4122137,-2.1832061,4.9541984,10.6996326,-0.5961532,3.4667864,-45.8396950,-6.5572519,215.7709961
3890,0.1795642,1.4173602,9.4283180,-1.9694656,-0.8015267,3.9694657,12.2510672,-0.3663110,3.7109938,-55.6412201,-47.2519073,174.7022858
3900,0.2896969,1.2904681,9.6773138,-4.1068702,-0.0076336,3.1832061,13.9413652,0.0335187,4.2951760,-58.3664131,-69.3511429,131.0534363
3910,0.1532281,1.0007712,10.0244713,-2.4885497,1.7099236,-2.3969467,19.1056328,1.7573351,5.0110383,-8.8167934,-39.7099228,-167.4045868
3920,-0.0359128,0.9672526,10.0484133,-2.0839694,0.9236641,-2.9770992,19.6126022,2.3199697,5.3031297,-0.7022901,-36.6946564,-247.9084015
3930,-0.1316804,1.0342898,9.9981356,-1.6488550,0.1450382,-2.8015268,19.4360294,1.3910241,5.5545197,1.6412214,-53.4274826,-250.1374054
3940,-0.1915352,1.0031654,9.9765873,-0.9312977,-0.8244275,-1.9694656,19.2660427,0.4213773,6.2584114,1.4198474,-83.0916061,-250.1374054
3950,-0.3232156,1.0725969,10.0053177,-0.4198473,-1.1145039,-1.3816794,18.5525742,-1.3694763,7.1155310,-1.1526718,-111.6412201,-250.1374054
3960,-0.2394189,1.1539993,9.9981356,0.7404580,-1.3206106,-0.7709923,16.2349987,-5.0708933,8.4538832,0.5496183,-128.3129730,-250.1374054
3970,-0.2154770,1.2234308,10.0101061,1.5572519,-1.6870229,-0.1526718,12.6485033,-9.8496952,9.1051025,11.7480917,-136.2366486,-250.1374054
3980,-0.2106887,1.2617378,9.9598284,2.8473282,-2.2061069,0.5190840,5.1307478,-15.0786057,8.7172441,29.9618320,-157.7709961,-250.1374054
3990,-0.1221037,1.2497669,10.0148945,3.6488550,-2.0229008,0.6717557,-6.3996682,-18.9931049,7.4124107,41.6946564,-232.6946564,-250.1374054
4000,-0.0909792,1.2545552,9.8329363,4.1450381,-1.3740458,0.8091603,-16.7329903,-19.6131992,4.9583664,26.3435116,-250.1374054,-250.1374054
4010,-0.0071826,1.3287752,9.7228031,3.4580152,-0.7938932,1.2442749,-19.6131992,-19.6131992,2.7150109,-24.3816795,-250.1374054,-250.1374054
4020,0.0407012,1.2856797,9.7299862,2.4656489,-0.1908397,1.2595420,-19.6131992,-14.0107965,1.3359578,-100.6106873,-250.1374054,-250.1374054
4030,0.0407012,1.2904681,9.5552101,0.6641222,0.0381679,0.7709923,-19.6131992,-5.3079181,4.2640514,-191.4503784,-250.1374054,-250.1374054
4040,0.0287303,1.3215926,9.6294298,-0.7251908,0.2900763,0.1450382,-19.6131992,2.1667414,14.1424770,-248.0076294,-220.5648804,-250.1374054
4050,0.0598547,1.2377959,9.7587166,-1.4198474,-0.1755725,-0.8091603,-19.6131992,4.2496862,19.6126022,-222.2213745,-71.7938919,-95.7251892
4060,0.0383070,1.1611819,9.8113880,-1.4809160,0.0763359,-1.4885496,-19.6131992,0.6703730,19.6126022,-122.9465637,59.4122124,97.7099228
4070,-0.0598547,1.1683644,9.9454632,-1.3816794,0.1526718,-1.4732825,-19.6131992,-1.6400198,19.6126022,-1.5648855,171.1603088,198.4045868
4080,-0.1244979,1.1851238,9.8999729,-0.9694657,-0.4885496,-1.4961832,-15.5933561,-1.6591733,19.6126022,89.5038147,250.1297760,223.9694672
4090,-0.1436514,1.1731528,9.8927908,-0.5114504,-0.6564885,-1.1679389,-8.6262646,-0.7661406,15.4233685,135.9694672,250.1297760,204.1755676
4100,-0.3447633,1.2473727,9.8712435,-0.4961832,-1.3129771,-0.4351145,-5.5904322,0.6320660,11.5735121,151.5954132,250.1297760,159.5496216
4110,-0.2944853,1.2761030,9.8975792,-0.4503817,-2.6335878,0.4809160,-4.8147149,2.2601149,8.4802189,150.9313049,226.7022858,105.5877838
4120,-0.2561783,1.2330076,9.8903971,0.3587786,-2.7709923,0.7938932,-5.3797436,3.8067613,6.2057390,139.4274750,131.5877838,56.0687027
4130,-0.1867468,1.2689204,9.8544836,1.7557251,-3.0229008,2.2748091,-6.4260044,4.9535780,1.9823889,82.1984711,-37.0228996,7.3587785
4140,0.1819584,1.2880739,9.5743637,-0.8854962,0.3969466,3.0992367,-3.2632802,3.2800395,2.3654592,2.0305343,-93.9465637,-31.0534344
4150,0.1197095,1.0486550,9.8377247,-7.3282442,3.1450381,0.0458015,-4.3933377,2.8179610,3.9599893,-1.3587786,11.3816795,-55.6183205
4160,-0.4692611,1.1228749,10.2399483,-1.3206106,-0.5801527,1.7022901,-7.3070664,2.4731977,3.3805954,-7.3358779,30.3053436,-49.5954208
4170,-0.4548960,1.3000449,10.2136126,0.9770992,-1.1374046,2.3816793,-7.4914188,2.3343346,3.8474624,-14.8702288,24.4198475,-47.6488533
4180,-0.3950413,1.3191984,10.0723553,3.6106870,-0.9847328,3.2595420,-7.5871863,2.2433555,4.2664456,-20.7022896,17.7251911,-46.7251892
4190,-0.0287303,1.3742647,9.7419567,5.9694657,-1.0076336,3.9847329,-7.2831244,1.9512644,5.3414369,-25.6183205,-0.9541985,-51.1374054
4200,0.3926471,1.2377959,9.3780403,-0.8167939,-0.7786260,-0.9160305,-7.1921453,2.0087249,6.6390872,-17.5038166,-17.7709923,-72.3053436
4210,0.3184272,1.1085097,9.6414013,-3.2137403,-1.5190840,-2.6870229,-7.4698710,1.9536586,6.8449879,-12.2900763,-21.4580154,-80.7633591
4220,0.1723816,1.0845678,9.8233595,-4.4885497,-1.8015267,-4.0000000,-7.8768835,2.0063307,7.0915890,-7.3969464,-25.2748089,-89.8931274
4230,-0.1173153,1.0199248,10.1322098,-4.0152674,-1.9465649,-3.8320611,-8.3772688,1.8746504,7.2160869,-2.7938931,-28.2671757,-95.4351120
4240,-0.3303981,1.0486550,10.3141680,-1.9770992,-1.3893130,-2.4656489,-9.0093346,1.7214222,7.3669209,2.1908398,-27.6259537,-100.7633591
4250,-0.4333483,1.0342898,10.2638903,1.1068702,-0.7709923,-0.2900763,-10.1226330,1.6807210,7.4076223,7.2137403,-26.0458012,-105.2366409
4260,-0.5793939,1.2282192,10.1274214,3.9847329,0.1832061,2.1832061,-11.5663290,1.6160779,7.4387465,12.1297712,-27.4198475,-105.7633591
4270,-0.4237715,1.3359578,9.8640604,5.1908398,-0.0763359,3.7404580,-12.9070749,1.3455344,7.4674768,15.3511448,-29.2213745,-101.7938919
4280,-0.2178712,1.3575054,9.5695753,4.7251906,-0.4732825,4.0076337,-14.2837343,0.8786675,7.1179252,16.0076332,-22.0992374,-94.6183243
4290,-0.0335187,1.4652439,9.3181858,2.7480917,-1.4274809,3.0610688,-16.7353840,0.9121862,6.9383612,13.4122133,-5.0076337,-79.5954208
4300,0.0981618,1.4413021,9.2918491,-0.6259542,-2.2671757,1.3816794,-19.6131992,1.5610116,7.1586266,9.9083967,7.5496182,-51.3740463
4310,0.1580165,1.1180865,10.1513634,-4.2900763,-1.6488550,-0.4503817,-19.6131992,2.4636209,7.0915890,5.6030536,34.5954208,105.3511429
4320,0.1723816,1.0678085,10.3021975,-2.2671757,-0.6946565,-0.6870229,-19.6131992,2.2026544,6.6989422,5.1145039,53.6183205,159.0915985
4330,0.0311245,1.0007712,9.8951855,3.5038168,0.4351145,-0.1450382,-19.6131992,1.0821736,5.6000090,-8.1450386,133.2213745,250.1297760
4340,-0.0047884,1.0366840,9.7539282,3.2519083,-0.0610687,-0.0534351,-18.6722832,0.6416427,5.6670465,-14.5648851,130.9084015,250.1297760
4350,-0.0526722,1.0989330,9.5264797,1.6564885,-0.8778626,0.0152672,-16.8718529,0.1125269,5.5233951,-19.1679382,120.9923630,250.1297760
4360,-0.0981618,1.1659702,9.5121145,-0.5954198,-1.1297710,0.7328244,-14.6715927,-0.0885850,5.4180508,-21.4885502,109.5343475,250.1297760
4370,-0.1915352,1.2018831,9.5504217,-2.0610688,-0.9694657,1.3664122,-12.3396521,-0.2801202,5.2049680,-21.2900772,94.9389343,250.1297760
4380,-0.0670373,1.3215926,9.7587166,-3.4351146,-0.6946565,1.6106870,-10.1178446,-0.3160330,4.7764082,-18.2977104,83.2290039,250.1297760
4390,0.0000000,1.3072275,9.9454632,-2.9083970,-0.3358779,1.7099236,-8.5041609,-0.3495516,3.9480183,-14.8702288,79.3816757,250.1297760
4400,0.0143651,1.3503228,9.9909525,-2.3511450,-0.1832061,1.5419847,-6.5672617,-0.2178712,3.4452386,-14.1374044,78.8702316,250.1297760
4410,0.0287303,1.3048333,9.8903971,-1.3511450,0.8320611,1.4961832,-4.4914994,-0.2202654,3.1555417,-15.2213745,84.5877838,250.1297760
4420,0.0574605,1.4077834,9.7850523,-1.0458015,1.3587786,1.2213740,-3.0908985,-0.3064562,3.0094962,-16.2366409,94.5343475,250.1297760
4430,0.0694315,1.3431402,9.8137827,-1.0305344,1.5419847,0.6259542,-1.7908537,-0.0766141,2.9999194,-17.7099228,99.3435135,250.1297760
4440,-0.1077385,1.3263810,9.7898407,-1.4045801,1.0152671,0.5419847,-0.5913648,0.0742199,3.1244173,-20.1908398,101.0152664,250.1297760
4450,0.0215477,1.1803354,9.6150646,-3.0076337,0.2442748,0.2137405,0.7900825,-0.1484398,3.3710186,-21.8396950,102.6641235,250.1297760
4460,-0.0814024,1.2976507,9.8137827,-4.7022901,-0.5725191,-0.7557252,2.0111191,-0.1915352,3.7900019,-20.4045811,101.4656525,250.1297760
4470,-0.1436514,1.2042773,9.8880024,-4.6106873,-1.7786260,-1.1679389,2.9855542,-0.0383070,4.1730723,-15.9312973,95.1984711,250.1297760
4480,-0.1747758,1.0965388,10.0436249,-2.5343511,-3.4503818,-0.2824427,4.0150557,0.1891410,4.0102673,-10.7862597,86.4351120,250.1297760
4490,-0.2657550,1.0965388,10.1920643,-0.0305344,-2.8091602,1.4656489,5.1307478,0.3184272,3.9360476,-8.3587790,76.7251892,250.1297760
4500,-0.0550664,1.3024391,9.7539282,3.5343511,-1.1145039,3.9236641,10.0460186,1.3359578,3.1339941,-17.1679382,42.8778610,180.2977142
4510,0.0742199,1.3263810,9.6054878,0.0763359,-0.4045801,4.5267177,12.7275114,2.1188576,4.5537481,-16.8396950,27.0839691,88.5114517
4520,0.2561783,1.2401901,9.6174593,-1.4427481,0.6183206,3.8549619,13.8551741,2.7916248,5.0517397,-11.6564884,14.1755724,30.9236641
4530,0.3256098,1.3239868,9.7108326,-2.3893130,1.8549619,2.5954199,14.7936964,3.5122759,5.2432747,-5.6793895,5.2519083,-28.5343513
4540,0.3160330,1.2521610,9.7443514,-3.7328243,1.4274809,1.7404580,16.0290985,3.8785870,5.3462253,-0.3893130,5.7862597,-91.3053436
4550,0.2442073,1.2521610,9.8329363,-4.5190840,1.4427481,0.6488550,17.2477417,3.6152260,6.3206601,6.4503818,14.9618320,-161.7862549
4560,0.2992737,1.2018831,9.9430685,-4.3893127,2.2366412,-0.4274809,18.4544125,2.6216373,7.9127960,20.4809170,13.6641226,-243.6793823
4570,0.1053443,1.1683644,10.0077124,-3.4885497,2.3053436,-1.4045801,19.6126022,1.7645177,9.2846670,47.5801544,2.8931298,-250.1374054
4580,-0.0095768,1.0845678,10.0029240,-2.8396947,1.0305344,-1.7480916,19.6126022,-0.5841822,9.7467451,78.5801544,-31.1068707,-250.1374054
4590,-0.0837966,1.1085097,9.9622221,-2.3206108,-0.0534351,-2.1526718,17.1160603,-4.6495161,8.3126259,100.0687027,-86.2213745,-250.1374054
4600,-0.2035061,1.0797794,10.0819321,-0.7480916,-1.3206106,-1.9083970,13.1010046,-9.6054878,6.2679882,101.8473282,-150.2671814,-250.1374054
4610,-0.2705434,1.0941446,10.0675669,1.2977099,-2.5114503,-1.3587786,7.2543941,-15.4329453,5.0972295,89.4274826,-203.7709961,-250.1374054
4620,-0.2585725,1.1875180,10.0412302,2.8473282,-3.3664122,-0.5343512,-0.3734936,-19.6131992,3.7301471,71.3358765,-246.3129730,-250.1374054
4630,-0.2082945,1.2066715,10.0819321,4.7709923,-3.2977099,0.5496183,-10.5080976,-19.6131992,2.3965836,49.4580154,-250.1374054,-250.1374054
4640,-0.0550664,1.2880739,9.8975792,5.9007635,-3.0076337,0.7404580,-19.6131992,-19.6131992,0.9959828,19.0076332,-250.1374054,-250.1374054
4650,0.0263361,1.3383518,9.7682934,5.7022901,-2.7557251,0.6488550,-19.6131992,-19.1439381,0.7398046,-30.0229015,-250.1374054,-250.1374054
4660,0.0837966,1.3766589,9.6461897,4.4732823,-2.7022901,0.1908397,-19.6131992,-6.1578555,4.4292507,-95.3969498,-250.1374054,-250.1374054
4670,0.2250538,1.3551112,9.6270361,2.8244274,-2.4274809,-0.3816794,-19.6131992,7.3310080,12.8041248,-147.0076294,-250.1374054,-250.1374054
4680,0.2130829,1.3455344,9.6294298,1.1526718,-1.7786260,-0.8702290,-19.6131992,8.1953106,18.5429974,-134.0458069,-164.9770966,-34.8320618
4690,0.1580165,1.2617378,9.6653433,0.1679389,-0.4580153,-1.0916030,-19.6131992,1.3239868,17.7074261,-53.4351158,-49.5343513,175.2137451
4700,0.2035061,1.2401901,9.7730818,-0.3435115,0.3206107,-1.3358779,-19.6131992,-2.5976956,13.1010046,25.7938938,130.7709961,250.1297760
4710,0.1532281,1.2832855,9.8377247,-0.9694657,0.8549618,-1.3816794,-10.6637201,-3.3638363,9.5240860,61.6793900,250.1297760,250.1297760
4720,0.1292862,1.1923064,9.8760319,-0.5877863,1.2748091,-1.6488550,-4.4723458,-1.5346755,8.1282730,74.1450348,250.1297760,227.7862549
4730,0.0861908,1.1707586,9.8903971,-0.3969466,0.9236641,-1.8931298,-3.1818779,1.0247130,7.6111283,79.9847336,250.1297760,155.8015289
4740,-0.1484398,1.2377959,9.8257532,0.0000000,-0.8549618,-1.8015267,-8.7316093,5.0708933,1.6160779,13.8320608,-122.7099228,-24.2595425
4750,-0.0957676,1.2282192,9.9239149,0.6030535,-2.0305343,-1.3587786,-7.5823979,4.5513539,1.6160779,-11.2442751,-164.2900696,-32.4580154
4760,-0.1604107,1.2665262,9.8401184,1.3129771,-2.2366412,-0.8854962,-6.6462698,3.6942344,2.4277081,-24.5801525,-175.0992432,-37.6564903
4770,-0.1340746,1.2808913,9.7994175,1.8244275,-2.3282442,-0.0229008,-5.9782910,3.0932927,2.9616125,-27.5496178,-160.7557220,-40.7328262
4780,-0.1436514,1.3622938,9.8065996,1.8396946,-2.2519083,1.0305344,-5.5066357,2.6814921,3.3662305,-23.7709923,-127.6946564,-41.8396950
4790,-0.1268920,1.3838415,9.6509781,1.0534351,-0.9541985,1.7328244,-5.3318601,2.3295465,3.9192882,-15.5725193,-83.9847336,-40.5343513
4800,-0.0407012,1.3455344,9.6437950,-0.3816794,-0.0229008,1.9160305,-5.1642666,2.2912393,4.4747400,-4.0076337,-38.0534363,-37.8625946
4810,0.0598547,1.4053892,9.4331064,-2.3893130,0.8854962,2.2061069,-5.3677726,2.0997043,4.9583664,9.3358774,-0.3587786,-36.0458031
4820,0.1939293,1.3982066,9.5240860,-4.5801525,1.3664122,2.0992367,-5.4994531,1.9512644,4.9080882,22.1908398,24.7557259,-35.0305328
4830,0.2226596,1.3287752,9.6294298,-6.2061067,2.2595420,1.7022901,-5.5401545,1.7860653,4.5513539,31.4045811,38.0000000,-37.1908379
4840,0.2250538,1.3239868,9.6797075,-7.0992365,2.8549619,0.9236641,-5.5760674,1.5729824,4.0725164,35.8320618,40.2824440,-42.2061081
4850,0.1843526,1.2689204,9.9167328,-7.5801525,3.1297710,0.4961832,-5.7987270,1.5083394,3.8067613,35.6564903,35.4045792,-49.8854980
4860,0.0694315,1.2138541,10.1130562,-6.0839696,3.4351146,-0.0992366,-6.9168134,1.5777708,3.4787574,22.8473282,-1.8396946,-67.9923630
4870,-0.0119709,1.0654143,10.1537571,-4.5496182,3.4961832,0.1068702,-7.3046722,1.5418580,3.6152260,14.1832066,-28.4732819,-76.2442780
4880,0.0095768,1.0630201,9.8880024,-0.0458015,1.8549619,-0.6183206,-8.8824425,1.7309990,4.5202298,-6.0152674,-86.8702316,-88.3969498
4890,0.0407012,1.0295014,9.8185711,0.2213740,-0.3358779,-1.2671756,-9.1170731,1.5131277,5.0637107,-7.9236641,-88.4198456,-88.1374054
4900,0.0502780,0.9672526,9.8425131,-0.0229008,-1.9770992,-1.9160305,-9.4283180,1.4532729,5.5186067,-6.3129773,-81.9923630,-86.0000000
4910,-0.0383070,1.0582317,9.9287033,0.2671756,-3.4351146,-2.5648854,-9.8592720,1.3551112,5.9806852,-2.4580152,-70.8244247,-82.3129807
4920,-0.2705434,1.2258250,10.1561518,3.1526718,-5.7251906,-2.2824428,-10.5751352,0.9576758,6.8401995,9.5190840,-39.3206100,-74.3587799
4930,-0.2011119,1.7070571,9.3588867,5.7709923,-5.1526718,0.8473282,-15.1743727,1.1731528,6.2033448,29.9694653,-2.9236641,-44.1145020
4940,-0.0957676,1.6328372,9.2894554,3.1297710,-4.8320613,0.9847328,-15.8471403,1.1444225,6.1458845,27.4885502,-8.9312973,-31.5038166
4950,0.2082945,1.4963684,9.4833841,-2.4427481,-1.5877863,1.1755725,-16.5701847,1.2641320,6.1817970,21.7862587,-18.5954189,-0.5267175
4960,0.3280039,1.2042773,9.8640604,-4.7786260,2.0992367,0.6106870,-16.7425671,0.9911944,6.2368636,18.5572510,-8.4122133,38.9236641
4970,0.3974355,1.0510491,9.9670105,-4.5496182,3.4809160,0.4274809,-16.7282009,1.0079538,6.2296810,17.2671757,-1.5038168,60.5801544
4980,0.4596844,0.9097920,9.9358864,-4.4503818,4.2137403,0.1984733,-16.5941277,1.1827296,6.2799587,16.9847336,-0.5877863,81.6259537
4990,0.3495516,0.8212070,10.0053177,-4.2213740,3.9770992,-0.3969466,-16.6420116,1.1013272,5.9711084,17.2595425,-5.8015265,103.6335907
5000,0.3040621,0.7565638,10.0053177,-3.7557251,2.9847329,-0.6717557,-16.6060982,1.0247130,5.6981707,16.2671757,-8.5648851,124.7633591
5010,0.1843526,0.8978211,10.1010857,-2.8396947,1.6106870,-1.2290076,-16.6563759,1.1731528,5.5210009,15.2977095,-15.4045801,149.7786255
5020,-0.0359128,0.8666966,10.2064295,-1.6183206,-0.2748092,-0.9541985,-16.0362816,1.1516051,5.1546898,13.4809160,-18.8778629,178.4351196
5030,-0.1388630,1.0103480,10.1633339,0.3816794,-1.6335878,-0.1603053,-15.3084478,0.9864060,4.7500720,11.7862597,-9.6946564,208.5038147
5040,-0.2729376,1.0510491,10.1082678,2.5648854,-2.6183207,0.8549618,-14.4824524,0.8355721,4.2951760,8.3206110,12.5648851,242.5877838
5050,-0.3280039,1.1827296,10.0532017,4.3816795,-3.8854961,2.4198472,-13.2901459,0.3663110,3.9312592,2.7862597,46.1984749,250.1297760
5060,-0.3256098,1.3120158,9.8736372,5.4045801,-3.4503818,3.8931298,-12.0523500,0.0000000,3.7181761,-4.2213740,92.5267181,250.1297760
5070,-0.2705434,1.5203103,9.8568783,5.7328243,-2.9770992,5.1068702,-11.3580351,-0.1939293,4.0677280,-12.1221371,133.5419922,250.1297760
5080,-0.1891410,1.6376256,9.6437950,5.4580154,-2.6335878,5.6870227,-10.8121595,-0.3256098,4.5441718,-19.6564884,155.9389343,250.1297760
5090,-0.3327923,1.7166338,9.6270361,4.5801525,-3.1679389,6.1526718,-10.3668404,-0.5985473,5.1546898,-24.3740463,154.6335907,250.1297760
5100,0.0287303,1.6735384,9.5528164,3.5496182,-2.9389312,6.5038166,-9.3157911,-0.9457048,5.6287394,-25.0916023,137.4045868,250.1297760
5110,0.2394189,1.6065011,9.4474716,2.0381680,-1.2748091,5.9236641,-7.8242111,-1.0582317,5.8250628,-22.0610695,113.7328262,250.1297760
5120,0.2178712,1.5753766,9.4235296,-0.0839695,-0.4122137,4.8702292,-6.1243367,-1.0534433,6.0501165,-15.4045801,91.2900772,250.1297760
5130,0.3710994,1.4628497,9.4690189,-2.7557251,-0.0305344,3.9770992,-4.2975702,-0.7852941,5.5904322,-7.1297708,80.2442780,250.1297760
5140,0.4022238,1.2713146,9.8449068,-5.5419846,1.5419847,1.9541985,-1.1420283,0.1939293,4.0725164,3.9389312,90.5801544,250.1297760
5150,0.4405309,1.2377959,9.9047613,-5.3587785,1.1068702,0.5954198,-0.0694315,0.7541697,3.0406206,2.6030533,108.6793900,250.1297760
5160,0.3399749,1.1803354,10.1082678,-4.5114503,0.8778626,-0.6641222,0.7038917,0.9576758,2.3510940,-4.2519083,131.3740387,250.1297760
5170,0.2059003,1.1492109,10.1441803,-3.1145039,0.1068702,-1.5114504,1.0271072,1.1563935,2.4708035,-14.0152674,148.3664093,250.1297760
5180,0.0766141,1.1013272,10.2207947,-1.0076336,-0.7404580,-1.3587786,0.8355721,1.3455344,2.9185169,-23.4198475,153.6717529,250.1297760
5190,-0.0526722,1.1037214,10.1513634,1.0229008,-1.7099236,-0.7251908,0.6200951,1.4101776,3.3829896,-31.5038166,145.5114441,250.1297760
5200,-0.2418131,1.1444225,10.1034794,2.7480917,-2.2442749,0.5572519,0.9744351,0.9959828,3.5410061,-38.6259537,123.1297684,250.1297760
5210,-0.1867468,1.2952565,9.8065996,5.1908398,-2.7786260,3.2137403,3.4667864,-0.2226596,4.4196739,-48.0458031,70.9694672,250.1297760
5220,-0.1460456,1.3335636,9.7635050,5.1374044,-2.5572519,4.0687022,4.8697815,-0.4022238,5.2504573,-45.0000000,44.4809151,250.1297760
5230,-0.0430954,1.4700323,9.6916790,4.8473282,-2.3358779,4.8778625,6.5720501,-0.1699875,5.7747850,-34.3358765,18.8473282,250.1297760
5240,0.1460456,1.5155219,9.6773138,3.9007633,-1.9236641,4.9618320,8.6789370,0.2705434,5.8106980,-18.5038166,-9.3206110,235.1450348
5250,0.3926471,1.4915800,9.5863342,1.4809160,-1.1603054,2.9618320,14.1209297,1.9129574,4.1347651,6.0152674,-73.4961853,149.1603088
5260,0.4932030,1.4365137,9.6916790,0.1221374,-1.1450381,1.8549619,17.0825424,3.1148405,2.8419030,7.8549619,-97.0839691,88.5419846
5270,0.3399749,1.2928623,9.8832140,-1.8549619,-0.8320611,0.0229008,19.6126022,5.2648225,1.0749911,-5.8549619,-93.2748108,-78.8015289
5280,0.2035061,1.3670821,9.8975792,-1.5725191,-0.6183206,-0.4351145,19.6126022,4.9655490,1.1683644,-13.7862597,-69.4961853,-197.0992432
5290,0.2178712,1.2737088,9.8401184,-1.2519084,0.1068702,-0.5190840,19.6126022,3.8474624,1.4365137,-18.4503822,-46.0992355,-250.1374054
5300,0.1221037,1.2689204,9.9287033,-0.6641222,0.2213740,-0.7022901,19.6126022,0.5985473,1.6400198,-23.4274807,-38.4122124,-250.1374054
5310,-0.0215477,1.3934183,9.9287033,-0.5190840,-0.6488550,-0.2442748,19.6126022,-4.3526363,2.3989778,-32.8167953,-58.3435097,-250.1374054
5320,-0.0574605,1.3598996,9.9574337,0.1221374,-1.7557251,0.0763359,19.1606979,-10.6493549,3.2848279,-49.8854980,-97.2671738,-250.1374054
5330,-0.1077385,1.3359578,9.9813757,0.8091603,-2.5343511,0.6335878,12.5431585,-17.6739063,4.8290801,-71.0305328,-139.8549652,-250.1374054
5340,-0.1340746,1.4293311,10.0029240,2.2290077,-3.6030533,1.4045801,5.7771792,-19.6131992,6.8737178,-89.5190811,-164.0839691,-250.1374054
5350,-0.0814024,1.3958124,9.9574337,3.3511450,-3.6412213,2.2671757,-3.9528067,-19.6131992,8.1689749,-94.0534363,-169.3206177,-250.1374054
5360,-0.0670373,1.4484847,9.9023676,4.1221375,-3.6106870,3.0152671,-19.3594151,-19.6131992,9.0763721,-79.9770966,-189.3511505,-250.1374054
5370,-0.0071826,1.5107336,9.7682934,4.2137403,-2.7709923,4.0076337,-19.6131992,-19.6131992,12.1529055,-55.5801544,-212.3816833,-250.1374054
5380,0.1292862,1.4389079,9.6677370,3.5648854,-1.3740458,4.6259542,-19.6131992,-10.3093796,15.5095596,-32.1908379,-250.1374054,-250.1374054
5390,0.2513899,1.4700323,9.5480280,2.2213740,-0.2900763,4.9618320,-19.6131992,3.9336534,17.9827576,-29.5877857,-250.1374054,-250.1374054
5400,0.4022238,1.4101776,9.5192976,0.2977099,1.1526718,4.8854961,-19.6131992,4.9224534,17.5757446,-14.5877867,-220.3511505,-124.9160309
5410,0.4429250,1.4484847,9.5192976,-1.9694656,2.5343511,4.3206105,-19.6131992,0.4357425,14.5710373,32.8167953,-92.7557220,65.9694672
5420,0.5027798,1.3287752,9.5432396,-4.1221375,2.6335878,3.4732823,-19.6131992,-2.0446377,10.1776991,71.0457993,81.9083939,168.0610657
5430,0.5602403,1.3191984,9.7084379,-5.7022901,2.6946564,1.9923664,-14.6931410,-1.3168042,6.7803445,71.8396912,236.1297760,204.8473358
5440,0.3303981,1.2473727,9.9717989,-5.6412215,2.9465649,-0.4274809,-7.1634150,2.1595588,6.7994981,28.8167934,250.1297760,133.6412201
5450,0.1891410,1.2066715,10.0555954,-4.9770994,2.8015268,-0.7251908,-8.0325060,2.9951310,7.4459291,17.8244267,173.2366486,67.5267181
5460,-0.0095768,1.3311694,10.1585455,-2.1221373,0.7786260,-0.4809160,-9.7946291,4.6710634,5.8322453,3.5725191,-73.3969498,-14.3206110
5470,-0.1364688,1.3886299,10.1106625,-0.6412213,-0.5496183,0.0305344,-9.6198530,5.1139889,5.4228392,-6.8931298,-123.6412201,-23.4274807
5480,-0.2753318,1.5586174,10.1106625,1.4961832,-1.9389313,0.7709923,-9.1051025,4.7333126,5.6263452,-8.5496187,-130.5496216,-19.7557259
5490,-0.2059003,1.5586174,10.1106625,3.8931298,-2.6106870,1.9007634,-7.9918046,4.1084290,5.6239510,0.4274809,-108.3816757,-13.8167934
5500,0.0143651,1.4748207,9.7132263,6.1221375,-0.9694657,3.7404580,-6.0668759,3.5074875,4.6375451,22.6488552,-33.0839691,-7.6030536
5510,0.1723816,1.4197544,9.7060442,4.8778625,-0.5496183,4.4732823,-5.3629842,3.2991931,4.1634955,27.3893127,-6.8244276,-8.5954199
5520,0.2753318,1.4652439,9.5983057,3.5877862,0.0839695,4.3435116,-4.6806402,3.2417326,3.6798692,28.5954189,13.0610685,-12.6564884
5530,0.4381367,1.4006008,9.6246414,2.2442749,0.0839695,3.8091602,-4.3239059,2.9544299,3.6224086,28.1374054,27.4732819,-19.1374054
5540,0.5171449,1.3120158,9.6366129,0.9694657,-0.3664122,2.3282442,-4.2808108,2.7772598,3.7349355,27.0076332,35.2748108,-27.8015270
5550,0.4501076,1.2306134,9.8760319,-0.9923664,-0.6488550,-0.3664122,-5.0206151,2.2840567,3.9288650,23.0839691,31.9618320,-45.3206100
5560,0.2657550,1.3072275,10.0460186,-0.5801527,-1.7404580,-1.0000000,-5.5832496,2.0877333,3.8187323,19.7099228,22.2671757,-53.1297722
5570,0.1628049,1.4125718,10.2160063,1.2671756,-2.2900763,-1.1145039,-6.4475522,1.8961980,3.7277529,14.5801525,10.9618320,-57.9694672
5580,-0.1340746,1.5681942,10.0747490,6.6488547,-3.0763359,-0.5801527,-7.6183109,1.7357874,3.8953462,1.0992366,-5.7480917,-56.2366409
5590,0.0143651,1.6711442,9.4067707,3.9312978,-3.3129771,3.5877862,-8.3413563,1.3383518,5.4874821,-6.0381680,3.1221373,-43.7175560
5600,0.2035061,1.6400198,9.4426832,1.1450381,-3.0229008,3.6717558,-8.5113440,1.2880739,5.6885943,-3.8778627,2.2061069,-42.0839691
5610,0.4357425,1.5825592,9.8688488,-1.2900764,-2.7099237,2.7480917,-8.7004843,1.4867916,5.5593081,-0.5419847,-13.6259546,-42.3282433
5620,0.5458752,1.3694763,9.9263096,-0.8167939,-1.1755725,2.1145039,-8.6310530,1.5203103,5.6000090,-1.4274809,-29.9541988,-45.5954208
5630,0.4501076,1.3646880,10.0101061,0.0992366,-0.2977099,1.7251909,-8.3341732,1.6088953,5.2480631,-3.7022901,-45.4274826,-50.1984749
5640,0.2298422,1.5131277,9.5671806,-1.7862595,1.8625954,2.6641221,-15.0738173,2.3151813,6.8545642,-6.6870227,-19.9389305,-45.7633591
5650,0.2082945,1.5322813,9.7874460,-3.7022901,0.9465649,2.3435113,-13.9317884,2.1236460,6.8234401,6.5038166,6.2671757,-0.3893130
5660,0.2657550,1.5825592,9.9023676,-3.2595420,0.7938932,1.8320611,-12.0308018,1.8722562,6.5385313,10.9923668,7.8854961,5.9160304
5670,0.2250538,1.5514348,9.9789820,-2.8549619,0.4122137,1.7557251,-10.9582052,1.6328372,6.0764527,9.6030531,4.3206105,2.5801528
5680,0.1580165,1.5107336,10.0101061,-1.5267175,0.2595420,1.6412214,-11.2957859,1.2569494,6.2895355,4.5190840,3.4427481,-3.3053436
5690,0.1077385,1.5921360,9.9981356,-0.6488550,0.0152672,1.5801526,-12.5359764,1.2641320,6.8665352,-0.2824427,2.6564887,-7.2290077
5700,0.0550664,1.5777708,9.9119444,0.5114504,-0.6030535,2.1603053,-14.9325600,1.4652439,7.7380204,-0.8702290,0.2748092,-5.0229006
5710,-0.0239419,1.6160779,9.8951855,1.3358779,-0.9618320,2.5190840,-17.5565910,1.5442522,8.3652983,3.0305343,-4.7633586,7.2671757
5720,0.0263361,1.5729824,9.8137827,2.0916030,-1.5267175,3.0152671,-19.3665981,1.4293311,8.6909075,9.8549614,-12.6946564,32.3053436
5730,0.2705434,1.7525467,9.7036495,1.1221374,-2.6106870,1.7709924,-18.5406036,1.1372399,8.1115141,34.7404594,-11.8396950,120.3893127
5740,0.1987177,1.4245427,9.9334917,-1.2671756,0.4885496,2.6946564,-7.8098459,-0.6009415,4.6279683,14.7633591,106.3893127,250.1297760
5750,0.1747758,1.5322813,10.0077124,-0.6259542,-0.4351145,2.4961832,-5.2720051,-0.8930327,4.5776901,13.9465647,104.7328262,250.1297760
5760,0.2226596,1.4748207,9.9789820,0.5954198,-1.3358779,2.0687022,-3.3638363,-1.0773853,4.6255741,15.2366409,109.4351120,250.1297760
5770,0.1891410,1.5298871,9.9933472,1.7404580,-1.7251909,1.5419847,-1.8363433,-0.9457048,4.3167233,17.7404575,117.8931274,250.1297760
5780,0.2322364,1.5921360,9.8520899,2.4809160,-1.9541985,1.2442749,-0.4836263,-0.7350162,3.8546450,19.2061062,130.2595367,250.1297760
5790,0.1436514,1.5921360,9.7754755,2.8091602,-2.0000000,1.6106870,2.0566087,-0.6272776,3.1363883,6.8473282,137.2824402,250.1297760
5800,0.2274480,1.6352314,9.7826586,2.7099237,-1.4580153,2.0458016,2.5593886,-0.8619082,3.0310438,1.3740458,118.0076370,250.1297760
5810,0.2370248,1.6136837,9.7611103,2.6488550,-1.0610687,2.3511450,3.5888901,-0.8427547,2.8754215,-4.3282442,88.8702316,250.1297760
5820,0.3351865,1.5466464,9.7539282,1.8931298,-0.0534351,2.6106870,6.7204900,-0.7302278,1.9776005,-25.5648861,9.2900763,250.1297760
5830,0.3974355,1.4796091,9.6821022,0.1755725,0.6183206,2.3969467,11.2072010,-0.6703730,2.1451938,-50.3053436,-62.9312973,241.5343475
5840,0.3543400,1.4532729,9.7228031,-0.8091603,0.4961832,2.3740458,14.8343983,0.1364688,2.6024840,-57.9618340,-82.8854980,201.0763397
5850,0.4046180,1.4317253,9.7658987,-1.1755725,0.0992366,1.8015267,18.0306416,0.7350162,3.3015873,-61.0076332,-75.1984711,148.8091583
5860,0.4333483,1.4604555,9.8425131,-0.9694657,-0.0458015,1.3053435,19.6126022,1.1492109,4.4723458,-54.4732819,-51.8549614,83.9465637
5870,0.1580165,1.6136837,9.9478569,2.1526718,-1.7557251,-0.1450382,19.6126022,1.9057748,3.9575951,11.6870232,21.6564884,-241.6488495
5880,0.0766141,1.7238164,9.8185711,3.2519083,-1.7328244,1.0687023,16.3882275,-0.3591284,3.0765336,12.6488552,-4.8778625,-250.1374054
5890,0.1340746,1.7429699,9.6844959,3.1832061,-1.2595420,1.5496184,14.2166967,-2.6767037,3.3327117,8.0610685,-29.9465656,-250.1374054
5900,0.1795642,1.7238164,9.5911226,2.0076337,-0.3282443,2.1450381,11.4777441,-6.3924856,4.1826491,2.8091602,-64.2900772,-250.1374054
5910,0.3303981,1.7860653,9.3349447,-2.0305343,2.1679389,3.0534351,5.3198891,-14.3172531,5.8250628,-10.5877867,-118.5954208,-250.1374054
5920,0.3710994,1.6687500,9.3828287,-4.7938933,3.2290077,2.9847329,1.3120158,-18.9069138,6.7420373,-14.8778629,-136.3282471,-250.1374054
5930,0.5219333,1.6208663,9.5240860,-7.8854961,6.0610685,2.6259542,-3.7205703,-19.6131992,7.4938130,-14.3282442,-142.7175598,-250.1374054
5940,0.4764437,1.5035510,9.5288744,-9.7862597,5.9389315,2.1297710,-12.8615856,-19.6131992,8.3605099,-8.0000000,-155.5572510,-250.1374054
5950,0.4070122,1.4413021,9.7060442,-10.8320608,3.9770992,0.7786260,-19.6131992,-19.6131992,9.8927908,7.1221375,-215.2442780,-250.1374054
5960,0.4118006,1.3646880,9.9215212,-11.4503813,4.8015265,0.4961832,-19.6131992,-18.3251266,11.2215662,12.8549614,-250.1374054,-250.1374054
5970,0.1843526,1.4221486,10.1034794,-10.4580154,4.7633586,0.5877863,-19.6131992,-3.7684543,11.9541883,-48.8320618,-250.1374054,-250.1374054
5980,-0.0574605,1.3718705,10.1657286,-7.7328243,3.1679389,1.4045801,-19.6131992,3.4500270,15.9716377,-137.1832123,-250.1374054,-250.1374054
5990,-0.1939293,1.3862357,10.2782555,-4.6183205,2.5267177,2.4198472,-19.6131992,0.6488253,17.8989601,-135.2366486,-250.1374054,-40.6717567
6000,-0.2729376,1.5203103,10.2614956,-1.1374046,2.1679389,4.3511453,-19.6131992,-2.2050486,17.4153347,-67.0534363,-250.1374054,144.8854980
6010,-0.2561783,1.4939742,10.1298151,1.7480916,1.5496184,5.9083967,-13.9437590,-4.7021880,14.9900198,6.5496182,-53.0534363,227.7175598
6020,-0.0502780,1.5945302,9.9574337,3.6717558,0.5801527,7.3282442,-6.8210459,-4.8218975,12.6532917,62.8473282,250.1297760,250.1297760
6030,0.0526722,1.6136837,9.8233595,4.5114503,-0.7786260,7.0839696,-4.7141590,-2.0949159,11.2862091,88.3206100,250.1297760,250.1297760
6040,0.2561783,1.5586174,9.5767574,4.0992365,-2.7633588,6.2442746,-5.6933827,0.7445929,10.6972389,89.6259537,250.1297760,216.2519073
6050,0.4094064,1.5370697,9.7491398,3.1755726,-4.0534353,4.6183205,-7.6805596,2.3654592,10.8241301,87.8015289,250.1297760,164.2213745
6060,0.6081241,1.5801650,9.7850523,2.3893130,-4.6106873,2.8854961,-9.0979195,2.9304879,10.1968527,86.0763321,250.1297760,108.8396912
6070,0.5482694,1.5490406,9.7778702,2.0305343,-4.4198475,1.2213740,-9.3708572,3.2560976,8.5376797,79.2671738,155.9465637,60.2824440
6080,0.5865764,1.5490406,9.8257532,2.1755726,-4.4274807,-0.3969466,-8.6190825,3.3542595,6.1889796,60.7175560,-1.1526718,24.1908398
6090,0.5506636,1.6472024,9.9358864,2.7557251,-4.0381680,-1.4427481,-7.1825686,3.2991931,4.2736282,34.3893127,-101.6412201,-2.0152671
6100,0.4860204,1.6328372,9.9023676,3.5114503,-1.5648855,-2.4503818,-5.9280128,3.0094962,3.7349355,11.3282442,-146.6412201,-21.3740463
6110,0.3974355,1.6687500,9.8473015,4.2748094,1.7862595,-2.0992367,-5.3318601,2.7006457,4.0030847,-0.2977099,-159.8396912,-38.0381660
6120,0.2729376,1.6807210,9.7251978,4.1679387,3.4427481,-1.7557251,-4.7524662,2.3654592,4.3646073,-1.4809160,-154.5190887,-51.1755714
6130,-0.7110743,1.3742647,9.5145092,-11.3129768,21.4198475,16.9923668,-5.7460546,2.2577207,5.0637107,27.3206100,-16.1145039,-62.2366409
6140,-0.7182568,1.2713146,10.7618818,-12.4961834,18.5572510,26.0839691,-6.5457139,2.1619530,4.9009056,34.5496178,12.3129768,-56.2442741
6150,-0.0909792,1.1707586,11.4561968,-4.2290077,20.6946564,31.0687027,-6.9934273,2.2265961,4.6375451,38.5267181,26.9236641,-48.8015251
6160,0.3782819,1.0989330,11.8177195,9.9770994,28.2442741,29.1526718,-7.1825686,2.0278785,4.3286943,37.7328262,30.3587780,-43.8396950
6170,0.3782819,1.1635761,11.3819771,23.2442741,35.1526718,26.7022896,-7.3645267,1.7740943,4.0773048,32.1450386,26.0000000,-42.1526718
6180,0.0263361,1.4436963,10.6900558,31.6488552,35.8167953,26.8473282,-7.5967631,1.7860653,3.8594334,22.5496178,15.5572519,-42.2900772
6190,-0.1843526,1.8100072,11.0946741,39.6564903,23.4274807,27.9389305,-7.9175844,1.9345051,4.0389977,11.1450386,0.7786260,-42.0381660
6200,-0.0143651,1.9967541,11.1329813,49.3511467,9.9770994,26.5572510,-7.9798336,1.9057748,4.2233500,-0.4580153,-11.6488552,-40.2595406
6210,-0.1580165,2.3798244,11.8656025,61.5114517,-11.3129768,20.9465656,-7.7978749,1.6639616,4.7189474,-9.5725193,-14.1526718,-39.3511467
6220,-0.2777260,3.7756367,13.4744978,77.4732819,-46.2366409,19.2290077,-7.8194227,1.5418580,5.2672167,-14.6488552,-14.3282442,-40.2977104
6230,-1.0534433,3.0238612,14.2885227,87.3282471,-118.5267181,29.5496178,-8.0253229,1.5921360,5.6694407,-16.7709923,-16.4045811,-42.8778610
6240,-1.6759326,1.5370697,15.5119534,99.9007645,-191.5572510,30.0687027,-8.2360115,1.5227045,6.0836353,-16.7557259,-19.4198475,-43.3053436
6250,-0.2513899,-0.7948709,13.8551741,115.0839691,-250.1374054,24.5496178,-8.2743187,1.4293311,6.4475522,-15.1450386,-21.4427490,-44.5648842
6260,-0.1532281,-0.3591284,14.1999378,132.0152740,-250.1374054,19.7633591,-8.2455883,1.4006008,6.7276726,-12.7938929,-22.9770985,-45.4045792
6270,0.0550664,-0.1771700,13.6564569,158.9847260,-250.1374054,10.5877867,-8.2838955,1.3383518,6.8737178,-9.1374044,-22.0229015,-47.0687027
6280,2.0949159,-0.3591284,12.6868095,188.7633514,-250.1374054,-5.8320613,-8.3844519,1.3144100,6.8952656,-4.9465647,-18.4885502,-49.7175560
6290,4.1754665,-0.6536137,12.0882626,235.7022858,-250.1374054,-37.7404594,-8.7100611,1.2976507,6.9144192,-0.3664122,-13.1297712,-51.8167953
6300,4.3191175,0.0694315,9.4905672,250.1297760,-250.1374054,-62.4045792,-9.0811605,1.2473727,7.0652533,3.1297710,-8.4503813,-53.5267181
6310,4.2377152,1.7333932,6.8042865,250.1297760,-198.6412201,-64.6793900,-9.5145092,1.1947005,6.9790621,5.4809160,-5.1526718,-56.3435097
6320,3.2848279,4.1060348,4.1491303,242.8167877,-165.1984711,-57.4351158,-10.2734671,1.1085097,7.1753860,6.6335878,-3.2595420,-59.4427490
6330,3.3542595,5.5904322,2.7126167,187.2595367,-159.0763397,-54.0000000,-11.2933912,0.8164186,7.2328463,6.7709923,-1.7175573,-60.6793900
6340,4.5944495,5.9375896,2.1212518,130.8396912,-120.7480927,-55.3511467,-12.7179346,0.6177009,7.4363523,6.2213740,0.1679389,-58.7557259
6350,4.7979555,5.5018473,1.8794388,89.8854980,-40.1908379,-54.8244286,-14.3651371,0.4429250,7.8026633,5.0610685,-2.1297710,-49.9083977
6360,2.4540441,5.2696109,4.2688398,34.9465637,13.8320608,-36.4580154,-17.0705700,0.6799498,8.8034344,4.8396945,9.9236641,-14.5190840
6370,2.8969693,5.1929970,4.7764082,28.0152664,-3.0839694,-26.8549614,-18.2149925,0.5075682,9.0811605,10.2137403,16.7557259,14.9847326
6380,4.2257442,5.4755111,4.9823084,30.2824421,-40.0458031,-24.1297703,-19.1056328,0.4908088,9.1841106,18.1908398,26.3511448,48.5877876
6390,5.2073622,5.6454988,4.9847026,33.7022896,-81.4809189,-27.6870232,-19.5772877,0.6416427,8.8010406,26.6641216,35.3969460,85.1984711
6400,5.8202744,5.3797436,5.0948353,36.6412201,-132.0915985,-36.0152664,-19.1391506,0.7589580,8.2336178,33.1984749,45.7633591,121.4351120
6410,6.7971039,6.2344694,5.2456689,38.1145020,-184.5343475,-49.6183205,-18.7895985,0.5961532,7.6566176,36.8625946,58.6870232,157.9313049
6420,7.6039457,6.1937680,5.1977854,41.2977104,-215.2977142,-70.2442780,-18.7393208,0.6703730,7.1227136,37.8473282,72.4427490,193.9007568
6430,7.5632443,5.7077475,4.9631548,46.1145020,-218.1679382,-91.7251892,-18.7297440,0.8475431,6.4619174,35.3129768,88.3664093,232.7099304
6440,8.4778252,5.9064655,4.5010762,50.3358765,-191.5725250,-111.7175598,-18.6770725,0.6560079,6.1123657,29.9847336,107.5343475,250.1297760
6450,6.2631998,6.9192076,3.4308734,49.4122124,-124.9389343,-117.4198456,-18.5884876,0.3950413,5.9591374,23.1068707,122.5114517,250.1297760
6460,4.6447277,6.6438756,2.0159075,39.5038185,-31.8931293,-106.0229034,-17.6643295,-0.4261657,5.7771792,17.7786255,123.2824402,250.1297760
6470,3.2800395,6.6295104,-0.0023942,19.6259537,78.4656525,-82.9465637,-15.3347836,-1.3646880,5.4898763,16.2137413,120.4732819,250.1297760
6480,2.4348907,6.7324610,-1.7070571,-13.6641226,176.9541931,-56.8473282,-11.9589767,-1.6208663,5.2049680,17.4809170,119.1450348,250.1297760
6490,2.6024840,7.4938130,-2.9304879,-63.9007645,245.4351196,-36.8625946,-9.0979195,-1.2665262,4.7764082,18.3969460,117.6946564,250.1297760
6500,4.3550305,8.3629036,-2.9256995,-120.2595444,250.1297760,-34.0916023,-8.0181408,-0.8212070,3.9935081,17.0305347,119.1526718,250.1297760
6510,5.3462253,8.1522150,-2.4133430,-180.2519073,250.1297760,-42.3206100,-7.4291697,-0.6416427,3.1675127,12.9236641,114.0839691,250.1297760
6520,3.5553713,7.1155310,-1.8124014,-230.2442780,250.1297760,-64.1297684,-6.1267309,-0.7398046,2.5210814,4.3511453,110.0992355,250.1297760
6530,-0.0047884,5.3366485,-0.6416427,-250.1374054,250.1297760,-80.9618301,-4.4579806,-1.0295014,2.3008161,-4.4427481,102.7480927,250.1297760
6540,-2.5091105,3.0430148,0.4285599,-250.1374054,250.1297760,-88.6488571,-2.3582766,-1.3503228,1.8961980,-12.1297712,101.3206100,250.1297760
6550,-5.5784616,2.9568241,1.3407460,-250.1374054,250.1297760,-75.3740463,-0.7565638,-1.3431402,1.9704180,-19.2977104,104.6564865,250.1297760
6560,-8.7699156,3.5577655,1.9512644,-250.1374054,250.1297760,-44.8244286,0.3998296,-1.2689204,2.3917952,-23.3511448,105.5343475,250.1297760
6570,-11.2335367,3.4859397,2.7030399,-250.1374054,250.1297760,-4.2442746,1.0295014,-1.2808913,3.0142846,-23.4580154,99.7557220,250.1297760
6580,-11.9302464,2.2409613,5.4587522,-250.1374054,250.1297760,37.5419846,1.8578910,-1.3694763,3.1723011,-20.8091602,88.7175598,250.1297760
6590,-10.6541433,1.5250987,12.6915979,-250.1374054,155.4198456,88.1450348,3.0813217,-1.6759326,3.0932927,-18.4885502,74.8244247,250.1297760
6600,-6.6654234,0.9672526,12.6844158,-250.1374054,93.5114517,130.4274750,4.6088147,-1.8028246,2.8538737,-17.8625946,56.2061081,250.1297760
6610,-0.9337339,-0.6512195,15.1863441,-250.1374054,77.5190811,151.7328186,6.0692701,-1.6879035,2.5737536,-21.2290077,34.4045792,250.1297760
6620,3.3183465,-2.1140692,16.0841656,-247.4427490,117.1603088,102.3969498,7.9175844,-1.3622938,2.4444675,-26.5725193,7.9083967,250.1297760
6630,2.3750360,1.5059452,15.0450869,-179.0992432,85.7175598,47.3511467,10.0005293,-0.8619082,2.3008161,-33.1145020,-24.6183205,250.1297760
6640,1.3503228,1.9057748,12.7346935,-153.4045868,30.1297703,12.2061071,13.1776190,-0.0670373,1.8698620,-42.4351158,-58.5419846,219.0305328
6650,2.2409613,0.6584021,11.5567522,-142.9007568,21.8167934,-18.2519093,16.9388905,0.8547257,1.6400198,-55.5114517,-81.3053436,163.0686951
6660,2.0590029,0.0957676,11.8057480,-135.3282471,39.8167953,-48.6717567,19.6126022,1.7022687,2.0039365,-68.9389343,-84.4809189,90.5725174
6670,1.3575054,-0.1292862,10.7714586,-130.9541931,42.2213745,-71.1679382,19.6126022,2.4277081,2.9759774,-77.0839691,-69.1603088,5.8244276
6680,1.5490406,-0.1173153,9.8329363,-134.2748108,53.0381660,-93.1145020,19.6126022,2.9137285,4.0102673,-75.6412201,-41.1603050,-88.6641235
6690,0.4165890,-0.5530578,9.5935173,-142.3129730,76.3893127,-113.4122162,19.6126022,2.2577207,4.7357068,-67.3129807,-9.6259546,-194.0763397
6700,-1.8243724,-2.1140692,9.5145092,-149.1679382,96.4809189,-122.8244247,19.6126022,1.1396341,5.2648225,-56.7557259,9.8244276,-250.1374054
6710,-3.3853838,-3.3494711,9.2391768,-147.9389343,108.3053436,-120.4427490,19.6126022,-0.7158626,5.4779053,-45.3282433,13.0305347,-250.1374054
6720,-4.4843168,-3.7349355,9.5145092,-139.4122162,110.1526718,-108.9236679,19.0194416,-3.1914546,5.6431046,-35.0381660,5.2671757,-250.1374054
6730,-5.0996237,-4.0868812,9.6509781,-124.0687027,101.7404556,-97.6564865,15.2246504,-6.3733325,5.7963328,-28.5725193,-4.7938933,-250.1374054
6740,-6.0429344,-4.0701222,10.1130562,-101.4274826,77.4198456,-89.4351120,11.1210098,-10.3165627,6.3781209,-20.5038166,-16.8091602,-250.1374054
6750,-6.7492199,-4.1323709,10.3644457,-77.2137375,26.2519093,-84.0610657,6.3446021,-14.4585104,6.5433197,-10.6106873,-33.8931313,-250.1374054
6760,-6.0980005,-4.2401094,10.4673967,-51.3053436,-37.0458031,-80.6870193,1.3096216,-18.5262375,6.0716643,0.2290076,-43.2900772,-250.1374054
6770,-4.8769641,-4.1563129,10.5847120,-25.2977104,-83.3282471,-79.0992355,-4.5681133,-19.6131992,5.5425487,14.1526718,-48.5419846,-250.1374054
6780,-3.3494711,-4.1060348,10.1537571,0.8702290,-105.4961853,-79.3358765,-15.3108416,-19.6131992,5.5210009,30.7786255,-94.8473282,-250.1374054
6790,-2.4923513,-3.9528067,9.5599985,25.6335869,-102.6870193,-81.3282471,-19.6131992,-19.6131992,5.6790175,43.3282433,-217.9541931,-250.1374054
6800,-2.7964132,-3.6319854,8.9877872,38.5496178,-101.4580154,-83.7404556,-19.6131992,-15.3635139,5.8442163,14.6488552,-250.1374054,-250.1374054
6810,-2.8658447,-3.2776453,8.5281029,38.2595406,-102.3664093,-85.3053436,-19.6131992,-3.7900019,7.8673067,-79.8396912,-250.1374054,-250.1374054
6820,-2.9328821,-3.3063757,8.1139078,30.8625946,-93.9770966,-81.4351120,-19.6131992,3.1220231,12.8711624,-189.6335907,-250.1374054,-250.1374054
6830,-3.1531475,-3.1890604,8.0468712,20.6030540,-82.2366409,-73.2442780,-19.6131992,0.7757174,19.4288483,-219.2137451,-250.1374054,-151.4427490
6840,-3.3997490,-2.9664006,7.8002691,11.1526718,-72.3282471,-60.4580154,-19.6131992,-3.7229645,19.6126022,-145.3129730,-250.1374054,31.0305347
6850,-2.7557120,-2.6623387,7.6518297,3.5877862,-62.4961815,-49.3816795,-19.4072990,-5.1977854,19.6126022,-30.1221371,-124.8473282,131.2671814
6860,-2.1715298,-2.4348907,7.5440907,-2.8015268,-45.1832047,-39.2900772,-11.3077564,-4.4962878,16.4097748,60.0000000,185.6641235,179.6106873
6870,-1.9823889,-2.2289903,7.4794478,-10.8931293,-25.0534344,-31.4198475,-8.3365679,-2.8969693,12.9645357,105.0839691,250.1297760,202.8015289
6880,-2.1763182,-2.2122312,7.3190370,-21.3435116,-11.5725193,-25.4045811,-7.2950954,-0.7685348,11.0803089,115.3816757,250.1297760,195.6793823
6890,9.1505919,-1.6280488,-0.5530578,87.3358765,-39.2366409,2.3740458,-7.7643566,0.9313397,10.6302013,114.3053436,250.1297760,161.1526642
6900,-4.1204000,-4.4388270,15.0379038,116.6564865,128.6488495,8.1221371,-8.2431946,1.8674678,10.1920643,111.4503784,250.1297760,114.3664093
6910,-5.6431046,-3.9384418,8.6956959,61.2671738,117.7938919,35.7480927,-8.1139078,2.3510940,9.0093346,105.7022934,200.8167877,67.7175598
6920,-3.3255291,-4.7931671,6.4355812,13.4274807,40.1374054,42.2213745,-7.7284436,2.5402350,7.3741035,95.1984711,62.7786255,27.5648861
6930,-3.1220231,-3.3279233,4.9727316,-16.0381680,55.0839691,38.6946564,-6.8976598,2.3534882,5.6646523,79.1984711,-39.9160309,-3.7709923
6940,-3.5122759,-2.7054341,5.8609757,-44.7175560,29.1908398,41.2213745,-6.0477223,2.2792683,4.2472920,62.1984749,-97.8702316,-26.8091602
6950,-1.6831152,-3.8929520,10.3285332,-15.0916033,-34.3587799,51.3664131,-5.7915444,2.2026544,3.7062054,48.9541969,-122.0381699,-44.0381660
6960,-0.5051740,-3.3207407,8.1043310,-11.8167934,-2.6793892,42.4045792,-5.4611464,2.3079987,3.6080434,41.4274826,-123.1984711,-55.2900772
6970,-2.4755919,-2.5761478,9.6030941,-13.8625956,-0.8244275,38.2671738,-5.3462253,2.3056045,3.3087699,36.4885483,-110.2748108,-61.7175560
6980,-1.9704180,-2.7844424,9.2726955,-13.8931293,-2.0534351,31.0992374,-5.5329719,2.4731977,3.2153964,32.2748108,-89.5114517,-63.7862587
6990,-2.5210814,-2.7245877,9.1553802,-10.5877867,-7.6946564,24.8625946,-6.0932121,2.6120608,3.2273674,27.3053436,-65.8854980,-59.3511467
7000,-2.7365584,-2.5546002,9.1458035,-10.0305347,-13.6870232,22.7251911,-6.5050125,2.5210814,3.5290353,23.0534344,-42.7862587,-51.3740463
7010,-2.2385671,-2.6288199,9.0715837,-6.2290077,-13.7938929,20.3129768,-7.0700417,2.3654592,3.6750808,19.7251911,-22.0687027,-41.9389305
7020,-2.0278785,-2.8562679,9.5169029,-3.2595420,-17.0534344,17.1068707,-7.2352405,2.2457497,3.9767487,15.8702288,-5.7557254,-31.6870232
7030,-1.7573351,-3.1651185,9.5863342,-2.4351146,-25.4198475,12.1832066,-7.2496057,2.1499822,4.0030847,10.9694653,9.0839691,-23.3816795
7040,-0.9457048,-3.1794837,9.8880024,-3.7709923,-32.2137413,4.4503818,-7.6063399,2.0326669,4.2233500,6.5038166,18.4427490,-18.2366409
7050,-1.0534433,-3.1004753,9.7323799,0.4961832,-24.5801525,-2.5801528,-7.9295554,1.8602852,4.4412212,2.6793892,19.1832066,-14.4885492
7060,-1.9153515,-2.8706331,10.2423429,3.0000000,-36.0839691,-2.0534351,-8.0588417,1.7597293,4.5729017,-1.8702290,13.5725193,-12.0687027
7070,-1.6400198,-2.9280937,10.8025827,9.6488552,-59.0000000,-6.6641221,-7.9223728,1.6136837,4.8362627,-7.0763359,8.3129768,-10.4732828
7080,-1.6519908,-2.8754215,11.0443964,22.5038166,-76.2519073,-19.1145039,-7.6853480,1.4460905,4.9296360,-12.0534353,5.7786260,-11.5954199
7090,-1.9416877,-2.5426292,10.9629936,38.8702278,-98.8167953,-33.7633591,-7.5105724,1.3144100,5.3629842,-15.2290077,2.9923663,-14.7404585
7100,-1.5945302,-2.4492557,10.4219065,53.6106873,-107.5648880,-45.8702278,-7.6661944,1.3168042,5.6359220,-16.3740463,-3.1374047,-19.3129768
7110,-1.9728121,-2.1835008,9.4139528,58.0228996,-107.0152664,-51.9312973,-7.6015515,1.3431402,5.9495606,-15.3358774,-8.9541988,-22.7557259
7120,-2.4396791,-2.2912393,8.4371233,52.2213745,-114.0381699,-49.5496178,-7.6829538,1.4245427,6.2105274,-13.1374044,-13.7786255,-26.4122143
7130,-2.7174051,-2.3295465,8.1546097,41.2900772,-123.8015289,-39.0152664,-7.5584559,1.4963684,6.1458845,-10.9007635,-18.2290077,-28.1450386
7140,-2.6431851,-2.0278785,8.2527714,28.3511448,-129.8473358,-20.3816795,-7.6207051,1.5897418,6.2464404,-8.8167934,-20.6564884,-30.4503822
7150,-0.3782819,-1.5562232,8.2910776,-22.2671757,-72.5343475,22.2748089,-7.8984308,1.5250987,6.3876977,-7.7709923,-18.1526718,-43.2213745
7160,0.1053443,-1.3862357,8.8632889,-31.3893127,-73.3053436,31.4274807,-8.4514885,1.5274929,6.3637557,-8.2137403,-13.4961834,-46.7328262
7170,0.9097920,-1.5322813,9.8903971,-32.7557259,-68.5343475,36.0381660,-9.1290445,1.4341195,6.5145893,-8.1832066,-8.9465647,-48.6412201
7180,1.3335636,-2.0709739,10.5152798,-27.0610695,-60.1297722,33.3358765,-10.1082678,1.4556671,6.7540083,-8.2290077,-4.9083967,-48.6335869
7190,0.8523315,-2.3247581,10.3644457,-17.7557259,-55.1984749,30.9389305,-11.0803089,1.2521610,7.0891948,-7.9694657,-0.9923664,-45.5114517
7200,0.6823440,-2.4899571,10.1513634,-8.0152674,-54.1297722,35.0534363,-12.0140429,1.0079538,7.3956513,-8.0534353,2.9236641,-41.4045792
7210,0.7733232,-2.5953014,9.9167328,-2.0229008,-48.7251892,39.9847336,-13.1704359,0.7254394,7.5800037,-8.4427481,6.3053436,-36.1984749
7220,0.7493813,-2.5019281,9.5767574,-0.5190840,-43.2442741,44.6183205,-14.3507719,0.7134684,7.7667508,-9.8320608,10.3282442,-26.2137413
7230,0.9026094,-2.4755919,9.2774839,-1.1755725,-36.7099228,49.1526718,-15.4904060,0.7254394,8.5328913,-10.9007635,17.8549614,-11.5725193
7240,0.8547257,-2.5713594,9.0979195,-2.8015268,-27.5572510,53.2900772,-16.3475246,0.7781116,9.0500364,-8.5190840,27.4274807,8.8854961
7250,0.6368544,-2.7078283,9.2248116,-4.9694657,-18.8931293,57.1145020,-16.6396160,0.6584021,9.5839405,-2.0534351,36.1450386,31.7862587
7260,0.5195391,-2.9089401,9.4953556,-6.0763359,-12.5114508,61.4809151,-16.5390606,0.6416427,9.7515335,8.2595415,45.0000000,54.9236641
7270,0.6703730,-3.2153964,9.8305416,-5.0992365,-9.7709923,64.1984711,-16.1033192,0.5458752,9.6916790,21.8167934,53.9694672,76.5190811
7280,0.8738791,-3.5290353,10.1968527,-1.4656489,-7.9160304,65.8244247,-15.4018211,0.4525018,9.1769285,35.5648842,64.8091583,95.9694672
7290,1.0055596,-3.6511390,10.7068148,5.8854961,-9.2671757,67.7480927,-14.4752693,0.2609667,8.5927458,46.4122124,76.6183243,111.3893127
7300,1.3910241,-3.6942344,10.9725704,17.5343513,-5.3664122,69.1679382,-13.4361916,0.3974355,7.9534974,53.6488533,86.6870193,123.9847336
7310,1.7429699,-3.5649481,11.0348196,30.8931293,1.3664122,68.2595444,-12.6054077,0.4525018,7.3286138,57.7022896,95.9847336,132.6793823
7320,2.0159075,-3.5050933,10.8001890,42.4503822,3.8320611,62.7022896,-11.9158812,0.6200951,6.8473821,58.7175560,103.6106873,138.0458069
7330,2.0685797,-3.6295912,10.4961262,50.8015251,5.0458016,55.1374054,-11.8177195,0.7805058,6.3829093,58.0534363,102.9160309,140.4885559
7340,1.7573351,-3.5218527,10.3189564,56.3664131,5.8854961,48.6641235,-11.8991213,1.1563935,5.8681583,55.5496178,98.7938919,145.5648804
7350,1.3958124,-3.2944047,9.8185711,59.0992355,7.4732823,44.6335869,-12.0188313,1.6711442,5.2217274,51.4885483,98.1755753,154.7099304
7360,1.1444225,-3.1579359,9.4115591,57.8091621,10.1755724,41.9160309,-12.1265697,2.3367288,4.2089849,45.3129768,99.2213745,168.9923706
7370,0.8834559,-2.8514795,9.0667953,52.6564903,11.7251911,40.0076332,-12.3396521,2.8131726,2.7341642,35.5648842,109.3816757,186.4503784
7380,0.9720409,-2.5785420,8.8058290,44.7862587,12.9007635,37.1908379,-12.9908724,3.2680686,1.3048333,20.9083977,128.0686951,210.1297760
7390,1.0390782,-2.4444675,8.6597834,35.9847336,14.4351149,32.2137413,-13.5894194,3.4619980,-0.1484398,0.6717557,144.4885559,243.9313049
7400,0.8619082,-2.3271523,8.4945841,27.0687027,8.5114508,26.5496178,-13.3140879,2.7892308,-0.8068419,-24.3435116,159.4198456,250.1297760
7410,0.8499373,-1.9967541,8.6334467,20.0458012,-1.5496184,19.5190830,-12.3851423,1.7190280,-0.6344602,-50.6183205,168.9847260,250.1297760
7420,1.2569494,-1.7525467,9.0691900,16.6946564,-10.7862597,8.9007635,-10.5631638,0.7757174,0.5841822,-72.4351120,170.3053436,250.1297760
7430,1.2952565,-1.7693061,9.4043760,16.6183205,-19.0992374,-4.9847326,-8.3174143,-0.0837966,2.0757623,-84.3129807,163.4656525,250.1297760
7440,0.9672526,-2.0111191,9.5695753,18.2442741,-24.5877857,-15.7328243,-5.6478930,-0.8571198,3.2991931,-86.5954208,154.6183167,250.1297760
7450,0.7254394,-2.3223639,9.5312681,19.4198475,-27.5190830,-20.7022896,-3.7349355,-0.8882443,4.0509686,-81.4503784,149.8015289,250.1297760
7460,0.4333483,-2.3941894,9.5767574,19.4198475,-31.7862587,-20.7175579,-2.3702476,-0.7206510,4.2712340,-72.0381699,148.6030579,250.1297760
7470,0.6584021,-2.2744799,9.9837704,20.7633591,-36.2824440,-18.3664131,-1.4939742,-0.3471575,4.2161674,-62.7251892,140.4351196,250.1297760
7480,0.9576758,-2.1284344,10.1393919,22.8167934,-37.4503822,-16.4122143,-0.8834559,-0.0191535,3.7373297,-57.3282433,123.2137375,250.1297760
7490,1.0941446,-1.8770446,10.2950144,25.2900772,-36.5496178,-14.0839691,0.3830703,0.0861908,3.3949606,-56.1755714,96.1450348,250.1297760
7500,1.3958124,-1.5825592,9.9957409,27.8702297,-32.6488533,-11.7709923,1.9608412,-0.0526722,3.0765336,-57.6564903,69.7709961,250.1297760
7510,1.5777708,-1.4269369,9.7228031,28.9007626,-27.7709923,-10.1297712,3.8330972,-0.2106887,2.9161227,-59.6106873,43.3587799,250.1297760
7520,1.7597293,-1.1923064,9.4498653,26.9236641,-23.1679382,-10.0229006,5.8585815,0.0478838,2.7844424,-61.5038185,17.0839691,250.1297760
7530,1.7621235,-1.0941446,9.2080526,23.6641216,-19.4351139,-9.7633591,7.7667508,0.5602403,2.4372849,-62.5190849,1.8244275,250.1297760
7540,1.7956421,-0.9504932,9.1314383,19.1984730,-15.8625956,-9.5954199,9.1362267,1.0007712,2.2050486,-62.7709923,-4.2366414,236.6030579
7550,1.8650736,-0.8379663,9.1194677,15.2213745,-11.8396950,-9.2977095,10.1082678,1.7693061,2.2601149,-60.9389305,-2.7709923,197.0915985
7560,1.8650736,-0.7924767,8.9399033,10.0610685,-8.8091602,-9.1145039,10.7523050,2.4564383,2.1356170,-58.5801544,4.2977099,157.2977142
7570,1.9991482,-0.6488253,8.9734221,4.1908398,-4.1603055,-9.3893127,11.4777441,3.3375001,1.8315549,-57.3816795,13.1221371,115.6106873
7580,2.1020982,-0.7086801,8.9542685,-1.8549619,-0.0458015,-9.6183205,13.0411501,4.1706781,1.9368993,-60.5267181,7.9160304,66.5114517
7590,2.0709739,-0.7876883,8.9542685,-7.4503818,2.0152671,-10.7251911,15.5191364,4.7237358,2.2720859,-68.9923630,-9.3282442,4.3893127
7600,2.1858950,-0.8188128,9.0955257,-11.9541988,2.0916030,-12.8320608,18.4232883,5.2265158,3.2824337,-78.4198456,-25.7251911,-72.9465637
7610,2.1116750,-1.0223188,9.3421268,-14.9083967,1.2137405,-15.9541988,19.6126022,5.2145448,4.6375451,-83.4732819,-32.4198456,-166.1908417
7620,1.8459201,-1.1276633,9.4259243,-16.8625946,0.3816794,-18.5496178,19.6126022,4.3789725,6.4691000,-77.3893127,-34.8091621,-250.1374054
7630,1.6400198,-1.1228749,9.7156210,-18.1679382,1.4503816,-19.1145039,19.6126022,2.6120608,7.8912482,-62.6183205,-50.5954208,-250.1374054
7640,1.2306134,-1.2114599,10.0388365,-18.8931293,6.3511453,-17.6564884,19.6126022,-1.4724265,9.1218615,-46.0610695,-87.2137375,-250.1374054
7650,0.8595140,-1.4508789,10.2830439,-17.8854961,11.3129768,-14.0763359,16.6659527,-6.3637557,9.7946291,-33.1145020,-139.2213745,-250.1374054
7660,0.4908088,-1.5250987,10.3500814,-15.6335878,13.6259546,-8.5267172,11.1832590,-12.0523500,10.3285332,-24.2061062,-190.5496216,-250.1374054
7670,0.3112446,-1.5035510,10.3189564,-11.8015270,13.1603050,-2.2366412,4.4986820,-18.2461185,10.5104914,-14.4351149,-226.2977142,-250.1374054
7680,0.1484398,-1.4987626,10.0986910,-8.4809160,7.0839696,3.2442749,-3.7277529,-19.6131992,9.6725254,-9.1374044,-250.1374054,-250.1374054
7690,0.2944853,-1.3838415,10.0771437,-6.4580154,-1.1068702,7.7862597,-15.8495340,-19.6131992,7.8242111,-10.5801525,-250.1374054,-250.1374054
7700,0.6895266,-1.2401901,9.8496952,-4.7633586,-5.9007635,10.2442751,-19.6131992,-19.6131992,8.2264347,-13.6793890,-184.9847260,-250.1374054
7710,1.1180865,-1.0462608,9.8664551,-4.7099237,-8.0000000,10.4351149,-19.6131992,-15.0977583,10.5847120,-8.3282442,-56.1450386,-250.1374054
7720,1.2066715,-1.0773853,9.8089943,-5.2061067,-5.2290077,10.4503813,-19.6131992,-5.1666608,13.1991663,13.1755724,28.9923668,-250.1374054
7730,1.2473727,-1.0678085,9.7371683,-6.1526718,-3.0610688,9.9694653,-19.6131992,-0.0359128,14.3938665,55.6259537,66.8549652,-164.8625946
7740,1.2976507,-1.0438666,9.6653433,-7.4351144,-1.8396946,8.1603050,-19.6131992,2.1978660,10.3237448,108.0610657,96.4503784,40.0916023
7750,1.2162483,-0.9983770,9.8784256,-8.0534353,-0.1984733,6.0763359,-19.6131992,0.3854645,5.9280128,121.5572510,144.3435059,164.1374054
7760,0.8810617,-1.1156923,10.0555954,-8.2671757,0.8549618,4.5190840,-18.7584743,-1.1875180,3.2177906,94.9465637,209.0381622,227.1679382
7770,0.6368544,-1.2593436,10.0579901,-7.8167939,-1.2519084,4.3511453,-9.0524302,-0.7469871,2.9209111,47.7404594,250.1297760,223.2213745
7780,0.5482694,-1.4221486,9.9526453,-6.6870227,-3.9923663,5.0305343,-4.6064205,-0.2442073,4.9368186,9.1145039,243.4580078,169.5572510
7790,0.4070122,-1.5729824,9.9334917,-4.6717558,-9.4732828,6.4809160,-4.1395535,0.1101327,7.2112985,-2.7022901,152.1679382,94.0610657
7800,0.5937590,-1.6783268,9.9789820,0.2137405,-20.0839691,12.4580154,-6.1171541,2.2313845,7.8313937,18.5190830,-69.4732819,-36.6717567
7810,0.7350162,-1.6687500,9.8951855,1.4274809,-22.6641216,16.1832066,-7.1562324,2.9328821,6.7396431,25.2977104,-124.8091583,-65.3435135
7820,0.9457048,-1.6879035,9.9047613,2.1603053,-24.1221371,19.7022896,-7.6302819,3.1435707,5.8418221,30.4732819,-147.1603088,-76.5419846
7830,1.4365137,-1.7190280,9.9526453,3.5038168,-22.1145039,23.3740463,-7.6877422,3.0478032,5.2911587,38.5648842,-147.4732819,-74.6793900
7840,1.6232605,-1.7142396,9.9765873,4.6870227,-20.5038166,25.8931293,-7.2974896,2.7940190,4.7620430,48.4198456,-132.5419922,-71.1603088
7850,1.9153515,-1.6543850,9.8975792,5.8931298,-20.0000000,27.0076332,-6.7851329,2.5905130,4.1204000,56.7022896,-114.7480927,-67.5496216
7860,2.2265961,-1.5873476,9.9263096,6.8625956,-20.7557259,25.6412220,-6.1985564,2.5091105,3.4212968,60.7709923,-96.0992355,-65.3969498
7870,2.2960277,-1.5131277,10.0436249,8.3587790,-19.9312973,22.1450386,-5.6933827,2.4468615,2.7221935,61.3358765,-73.3206100,-64.0076370
7880,2.4516499,-1.5586174,9.8592720,10.4045801,-19.8625946,17.8702297,-5.6526814,2.2385671,2.3463056,59.4809151,-52.2671738,-64.6106873
7890,2.4037662,-1.6519908,9.7802639,12.1984730,-22.9923668,13.1221371,-5.8609757,2.1356170,2.1906834,55.2213745,-36.4274826,-66.2595444
7900,2.3199697,-1.7286048,9.7443514,13.8320608,-28.3740463,8.6717558,-6.2464404,2.1332228,2.0949159,48.3206100,-24.3664131,-68.2519073
7910,2.5546002,-1.9704180,9.6509781,15.7709923,-40.3053436,5.1984735,-6.9694853,2.0757623,2.2098370,39.4122124,-18.3511448,-68.9923630
7920,2.8203552,-1.9967541,9.8042059,18.5267181,-51.3969460,2.4809160,-7.6183109,1.9943599,2.4588325,29.1068707,-17.0763359,-69.0305328
7930,3.1459649,-2.0135133,9.8425131,21.0229015,-58.0381660,1.3282443,-8.2000990,1.8985922,2.8754215,19.3664131,-16.7709923,-67.1679382
7940,3.3398943,-1.8531027,10.0460186,23.4885502,-62.8778610,0.8167939,-8.7124557,1.9776005,3.2824337,11.9465647,-14.0839691,-62.7404594
7950,3.4452386,-1.6831152,10.1178446,27.6488552,-64.7022934,1.3053435,-9.3876171,1.8435259,3.6271970,6.2366414,-11.3511448,-57.4656487
7960,3.7062054,-1.4269369,10.0436249,31.9083977,-57.8854980,3.0992367,-10.0244713,1.8554969,3.7828193,1.0992366,-14.6412210,-51.4045792
7970,3.7660601,-1.0486550,9.6030941,35.0763359,-42.6488533,7.8396945,-10.2471304,1.7429699,4.0461802,-4.7328243,-21.6717548,-44.7862587
7980,4.0270267,-0.9504932,8.9303265,34.8549614,-27.6259537,14.0076332,-10.2686787,1.5873476,4.2927818,-9.5877867,-28.1297703,-39.2061081
7990,3.7636659,-0.4548960,8.6238708,31.7633591,-11.5267172,21.9541988,-10.3261395,1.3096216,4.8338685,-12.1603050,-33.1068687,-33.3129768
8000,3.5074875,-0.3112446,8.4203644,27.1297703,-7.1145039,27.9236641,-9.9957409,1.1563935,5.0349803,-12.5801525,-35.8473282,-30.5343513
8010,3.7253587,0.0766141,8.3150196,19.5190830,-5.5190840,27.8625946,-9.7730818,0.9313397,5.3486195,-11.5801525,-37.2900772,-27.9847336
8020,4.1012464,0.4118006,8.2240410,9.5267172,-9.3664122,21.0381680,-9.4331064,0.8307837,5.5281835,-9.2977095,-37.5877876,-27.5877857
8030,4.0318151,0.5219333,8.5664101,-2.0381680,-2.4961832,5.2061067,-9.4283180,0.7829000,5.5736732,-6.4122138,-38.0152664,-28.2824421
8040,4.3143296,0.4884146,8.7986460,-14.2366409,0.1145038,-16.3129768,-9.4043760,0.8786675,5.5856438,-3.8244274,-39.9083977,-28.3816795
8050,3.8570392,0.1604107,9.2415714,-21.7862587,5.8854961,-35.4961815,-9.5288744,0.9792235,5.5162125,-2.1679389,-43.7404594,-29.2366409
8060,2.7868366,-0.3112446,9.7658987,-24.8091602,12.8702288,-46.5343513,-9.6054878,1.0103480,5.2624283,-2.1679389,-50.0152664,-29.2061062
8070,1.8866212,-0.7398046,9.9981356,-24.7938938,13.7328243,-46.7862587,-10.0029240,1.0390782,5.0182209,-4.2061067,-56.3969460,-30.0763359
8080,1.3431402,-1.1085097,10.0508070,-22.9770985,12.1908398,-43.5801544,-10.3309278,1.2258250,4.9344244,-7.8854961,-63.2366409,-29.1603050
8090,1.1635761,-1.2090657,10.1298151,-20.6793900,11.7633591,-40.2442741,-10.5703468,1.2114599,4.7788019,-12.2977095,-68.0916061,-25.6870232
8100,1.0869620,-1.2330076,10.0819321,-19.1755733,12.1679392,-37.6488533,-10.9366570,1.0989330,4.8410511,-17.3358784,-68.6335907,-20.2290077
8110,0.7589580,-1.4915800,9.9430685,-18.3587780,13.1603050,-34.6030540,-11.2431135,1.1204807,5.0684991,-22.3206100,-63.5496178,-12.6106873
8120,0.5291159,-1.5705882,9.8975792,-17.8015270,13.7099237,-29.5725193,-11.6261835,1.0869620,5.1451130,-26.4809170,-52.2290077,-2.1374047
8130,0.2968795,-1.6759326,10.0771437,-16.5877857,14.0152674,-23.2824421,-11.9781294,1.0247130,5.2480631,-30.0534344,-36.8396950,11.4427481
8140,0.1364688,-1.7860653,10.2136126,-14.8091602,15.3893127,-15.8320608,-12.3588057,0.9145803,5.3749552,-33.2595406,-16.6717548,27.5496178
8150,-0.0981618,-2.2313845,10.2327662,-12.3282442,10.2977095,-7.8396945,-12.7873659,0.8355721,5.7101417,-36.1297722,4.9541984,46.1908379
8160,0.2537841,-2.1236460,10.5607700,-6.7480917,-1.5572519,0.3816794,-13.0004492,0.8906385,5.9423780,-38.2213745,20.6412220,63.9694672
8170,0.8954269,-1.9512644,10.8073711,1.4809160,-9.8625956,7.5496182,-13.3739424,0.7062859,6.3278427,-38.0458031,30.6183205,80.4732819
8180,1.5274929,-1.6998745,10.7906122,8.9541988,-12.9083967,13.1679392,-13.7187052,0.4955972,6.4451580,-37.2748108,34.2213745,95.0152664
8190,2.0925217,-1.3886299,10.5033092,14.7786255,-13.5496187,16.2061062,-14.1496601,0.2992737,6.5983863,-37.0458031,31.1526718,107.0381699
8200,2.6096666,-1.0869620,10.1082678,18.9541988,-10.9312973,16.8473282,-14.0658627,0.1508339,6.7731619,-37.9389305,23.2595425,118.4198456
8210,2.6623387,-0.9241571,9.8496952,20.2519093,-10.1221371,16.4122143,-13.8695393,0.1221037,7.2376347,-38.3893127,10.8625956,128.9389343
8220,2.8945751,-0.7876883,9.5384512,20.3969460,-10.9389315,14.5648851,-13.4984398,0.2250538,7.5440907,-36.4045792,-2.3511450,135.9007568
8230,3.0956869,-0.5961532,9.2990322,19.5343513,-11.1068707,11.6106873,-13.2183199,0.1604107,7.5129666,-33.1908379,-9.5343513,142.7328186
8240,3.2369442,-0.4596844,9.0763721,16.6793900,-10.2137403,7.5725193,-13.1177645,0.0023942,7.4890246,-29.4809170,-6.5954199,149.5038147
8250,3.2584918,-0.4572902,8.9901810,13.0992365,-9.9007635,2.9465649,-13.0890341,0.2178712,7.6997132,-26.0763359,5.7404580,158.5572510
8260,3.2130022,-0.4812321,9.1098909,9.2748089,-9.4580154,-0.6488550,-13.6851873,0.6129125,8.1737623,-22.1068707,21.2137413,171.7938995
8270,3.1962428,-0.6057299,9.1290445,6.2290077,-7.8931298,-3.0763359,-14.4537220,0.8858501,9.1170731,-14.5114508,30.6030540,191.2900696
8280,2.9927368,-0.6751614,9.2200232,3.6488550,-5.5419846,-3.3664122,-14.7122946,0.7900825,9.7850523,-1.7022901,29.7862587,214.4885559
8290,2.9879484,-0.7661406,9.3564920,1.5725191,-2.9923663,-3.3206108,-13.9365768,0.5698171,9.9574337,15.2748089,23.7328243,237.8167877
8300,2.9352763,-0.8690908,9.4977493,0.3740458,-0.6488550,-3.4580152,-12.4809093,0.2920911,9.7730818,33.6717567,17.0000000,250.1297760
8310,2.8897867,-0.9433106,9.5336628,-0.5572519,1.0534351,-3.7099237,-10.8911676,0.0430954,9.0548248,51.2442741,8.2519083,250.1297760
8320,2.7724714,-0.9840119,9.5791521,-1.1221374,2.1450381,-3.4274809,-9.0380650,0.0215477,8.4107876,66.1145020,-1.8702290,250.1297760
8330,2.7102225,-1.0462608,9.6892843,-1.2671756,2.2748091,-3.5419848,-7.8098459,0.2777260,7.6278877,74.9923630,-6.0916033,250.1297760
8340,2.7557120,-1.0390782,9.8281479,-0.4732825,1.3206106,-3.9541984,-6.9072366,0.6512195,7.2232695,78.4045792,-12.4351149,250.1297760
8350,2.6814921,-0.9600700,9.8281479,0.8702290,0.7175573,-4.5725193,-5.8011212,0.7996593,6.7899213,80.7099228,-24.2824421,250.1297760
8360,2.6623387,-0.9433106,9.8616667,2.7175572,0.0687023,-5.2061067,-4.8937230,0.9983770,6.4307928,83.5343475,-33.7633591,250.1297760
8370,2.6551561,-0.8595140,9.7874460,4.2137403,-0.8015267,-5.9770994,-3.9288650,1.3479286,5.7628140,87.4885483,-44.9541969,250.1297760
8380,2.6048782,-0.8355721,9.7706871,5.1908398,-2.7251909,-6.9083967,-3.0597742,1.5849534,5.3222833,88.2595444,-54.9236641,243.5419922
8390,2.4444675,-0.8259954,9.6509781,5.7862597,-3.9541984,-7.2748094,-2.0518203,1.9153515,5.1163831,90.0763321,-58.0916023,233.3053436
8400,2.4133430,-0.7876883,9.5719690,5.9847326,-4.4885497,-6.7938933,-1.1707586,2.3079987,5.0254035,93.1984711,-57.2748108,224.2213745
8410,2.3606708,-0.6871324,9.4235296,5.2748094,-4.8320613,-5.6717558,-0.5434810,2.6048782,4.7045822,97.0992355,-51.4351158,216.6030579
8420,2.4061604,-0.6392486,9.4714136,4.0458016,-4.0763359,-4.2824426,0.2873027,2.9113343,4.4460096,102.9160309,-45.4274826,209.6030579
8430,2.5976956,-0.6272776,9.4474716,2.9007633,-3.5190840,-2.8702290,1.1492109,3.2201848,4.0773048,108.3511429,-38.7328262,202.9541931
8440,2.6671271,-0.6320660,9.4331064,1.7480916,-2.1450381,-1.2519084,2.2265961,3.3159523,3.3829896,113.0610657,-29.2748089,195.7404633
8450,2.7102225,-0.6655847,9.4187412,0.2824427,-0.9770992,-0.0992366,3.3159523,3.1196289,2.7006457,117.3816757,-18.5114498,187.6870270
8460,2.7844424,-0.7757174,9.4642305,-2.6030533,2.1908398,2.8091602,6.1794028,2.7533178,0.9744351,121.7709961,5.5496182,153.8854980
8470,2.8227494,-0.6871324,9.4785957,-4.5954199,4.4885497,3.2900763,8.3581152,3.5266411,-0.6440369,117.0610657,2.5496182,99.2748108
8480,2.7581062,-0.6919208,9.5504217,-5.4961834,4.8549619,2.5572519,9.8449068,4.6207857,-2.3822186,103.0076370,-15.9465647,68.4809189
8490,2.7365584,-0.7948709,9.5767574,-5.7099237,4.5190840,1.5267175,11.0180597,4.8625989,-4.3239059,74.5648880,-40.4656487,37.0534363
8500,2.5474176,-0.8690908,9.7204094,-5.8473282,2.4732823,-0.3816794,13.1273403,4.3981261,-6.1315193,-8.3664122,-70.6564865,-37.8015251
8510,2.5043221,-0.8666966,9.8760319,-5.2595420,1.8549619,-0.6259542,13.5846310,3.7756367,-5.8801293,-45.7862587,-83.4351120,-83.3358765
8520,2.3415172,-0.9265513,10.0053177,-3.9236641,1.0687023,0.0000000,13.6133614,3.0932927,-5.5617023,-79.4961853,-97.8549652,-131.1603088
8530,2.3415172,-0.9504932,10.0891142,-1.5267175,0.4580153,1.0381680,13.6157551,2.3079987,-5.2600341,-112.6564865,-114.4809189,-180.9465637
8540,2.3582766,-0.8858501,10.1202393,1.3893130,-0.9007633,2.3893130,13.8025026,1.3191984,-5.2432747,-147.7022858,-129.8549652,-233.0076294
8550,2.3439114,-0.9433106,9.8903971,3.8320611,-2.1908398,3.5114503,14.1999378,0.0478838,-4.8578105,-182.6870270,-129.3129730,-250.1374054
8560,2.4684093,-0.7876883,9.6390066,4.7404580,-1.9465649,4.7480917,15.0809994,-1.4580613,-4.4962878,-215.0305328,-105.4198456,-250.1374054
8570,2.5617826,-0.7230452,9.4331064,3.9694657,-2.1221373,5.3053436,14.7314482,-4.2496862,-3.9121056,-245.3969421,-54.7251892,-250.1374054
8580,2.6599445,-0.6631905,9.2774839,2.1068702,-1.8702290,5.0229006,12.8041248,-8.9063845,-2.5138988,-250.1374054,7.7328243,-250.1374054
8590,2.8203552,-0.6224893,9.2918491,-0.2061069,-1.2977099,4.1297708,8.3748751,-14.7889080,-0.3184272,-250.1374054,66.8549652,-250.1374054
8600,2.8897867,-0.6296718,9.4738073,-1.8320611,-1.8473282,1.8015267,0.0837966,-19.6131992,2.3175755,-250.1374054,103.9389343,-250.1374054
8610,2.9544299,-0.6799498,9.6581602,-2.1603053,-1.8778626,-0.7709923,-13.5343533,-19.6131992,5.3773494,-250.1374054,113.9465637,-250.1374054
8620,2.8778157,-0.8236012,9.8353300,-1.3893130,-2.0000000,-3.0305343,-19.6131992,-19.6131992,8.9470863,-250.1374054,88.4122162,-250.1374054
8630,2.7389526,-0.8259954,9.9143381,-0.1450382,-1.7404580,-3.7175572,-19.6131992,-10.7235746,13.7019463,-250.1374054,32.8244286,-250.1374054
8640,2.6192431,-0.8714849,9.8592720,1.5190840,-1.4580153,-3.6564887,-19.6131992,1.2545552,19.6126022,-250.1374054,-46.3587799,-250.1374054
8650,2.5330524,-0.7613522,9.7539282,2.5725191,-1.6412214,-3.4045801,-19.6131992,-2.0063307,19.6126022,-250.1374054,-190.0229034,-152.4732819
8660,2.4708035,-0.8283895,9.7635050,3.0839694,-1.0152671,-2.9923663,-19.6131992,-5.7173243,19.6126022,-189.9236603,-250.1374054,3.4580152
8670,2.4037662,-0.7805058,9.6246414,3.4045801,-0.7862595,-2.3740458,-16.0913467,-5.3318601,19.6126022,-50.8244286,-250.1374054,30.2137413
8680,2.5258698,-0.7278336,9.6701307,3.2366412,-1.8854961,-2.2824428,-7.7068958,-6.8641410,19.6126022,68.7175598,-168.9160309,12.3511448
8690,2.5306582,-0.7996593,9.7682934,3.7022901,-3.3969467,-2.2977099,-4.6854286,-5.6574697,15.1935263,142.8625946,-11.5114508,-2.3053436
8700,2.5546002,-0.7230452,9.8233595,4.1068702,-3.9770992,-2.8854961,-4.2472920,-2.7006457,10.6685085,170.6564941,99.5038147,-20.9541988
8710,2.6527619,-0.8810617,9.7347746,4.8320613,-3.3511450,-2.5954199,-5.6287394,-0.4860204,7.4746594,160.3740387,140.5496216,-45.6259537
8720,2.5809362,-0.8954269,9.7012558,5.6335878,-3.8854961,-1.8931298,-8.3078375,0.9241571,5.6407104,123.9007645,106.8244247,-63.0534363
8730,2.6814921,-0.9672526,9.6605549,5.9007635,-3.7175572,-0.7328244,-10.7738523,1.9560528,5.0254035,75.6717529,30.6030540,-70.7862625
8740,2.7509236,-0.8858501,9.5911226,5.7938933,-3.7404580,0.0076336,-11.8775740,2.3175755,5.3581958,32.4656487,-48.7480927,-67.1221390
8750,2.8012016,-0.9121862,9.5336628,6.0458016,-2.8931298,1.0687023,-11.4609852,2.1404054,6.0620875,7.1068702,-95.2290039,-55.0687027
8760,2.9783716,-0.8762733,9.4331064,4.9847326,-1.7328244,0.6870229,-10.2495251,1.7884595,6.7300668,-0.8015267,-106.8778610,-39.1374054
8770,3.1220231,-0.8307837,9.5911226,4.1755724,-0.1908397,-0.5572519,-7.7308378,1.4077834,6.5121951,14.3664122,-54.9389305,-7.6106873
8780,3.0717452,-0.7445929,9.5959110,4.1908398,0.5343512,-0.9618320,-7.0963774,1.4963684,5.8537931,24.9160309,-5.8931298,6.8320613
8790,3.0334380,-0.7350162,9.6030941,4.7862597,1.8854961,-1.5801526,-6.9120250,1.6065011,5.0924411,31.5267181,39.1755714,20.0839691
8800,3.0142846,-0.6488253,9.6773138,4.9312978,3.0992367,-2.3816793,-6.6462698,1.6328372,4.5776901,32.8931313,70.5877838,30.0534344
8810,2.9041519,-0.5315101,9.5408449,4.4656487,4.7633586,-3.4580152,-6.3781209,1.4197544,4.2209558,28.4809170,85.6564865,34.5267181
8820,2.8179610,-0.5937590,9.6222477,3.8854961,4.7328243,-4.6106873,-6.1626434,1.1755470,4.0509686,20.0610695,87.0992355,33.1145020
8830,2.7964132,-0.5075682,9.7012558,4.7786260,3.5190840,-5.4274807,-5.8513989,1.0223188,4.0844874,9.1526718,76.3053436,26.8396950
8840,2.6216373,-0.4620786,9.9023676,5.4809160,2.8244274,-6.7175574,-5.7460546,0.8403605,4.3957319,-2.0152671,58.8320618,16.0076332
8850,2.5546002,-0.4477134,9.8496952,6.2366414,1.1908396,-8.1145039,-5.7963328,0.7158626,4.8075323,-12.3358774,40.3664131,4.3358779
8860,2.4013720,-0.3878587,9.6844959,10.5038166,-5.4809160,-5.2900763,-6.6941538,0.2202654,6.9000540,-28.9389305,-8.7480917,-23.7251911
