timestamp,rxacclX,rxacclY,rxacclZ,rxgyroX,rxgyroY,rxgyroZ,txacclX,txacclY,txacclZ,txgyroX,txgyroY,txgyroZ
0,1.2713146,1.6448082,9.8305416,0.5343512,-1.1755725,1.4885496,-2.5689652,2.7006457,8.6286592,-12.8015270,9.1832066,-0.4274809
10,1.3144100,1.5179161,9.7754755,0.1832061,-2.3969467,1.3587786,-3.2489152,2.6264257,8.7340031,-10.1603050,7.1068702,0.1755725
20,1.3335636,1.5658000,9.6821022,0.0000000,-2.9465649,0.5648855,-3.7277529,2.2170193,8.9207497,-8.9465647,-4.0458016,1.5572519
30,1.2856797,1.6352314,9.6318245,-0.4656489,-3.6259542,0.6946565,-3.7469065,2.3103929,8.8992023,-9.3740454,-15.2748089,2.3816793
40,1.4796091,1.5586174,9.7994175,0.6335878,-7.7251906,0.0229008,-2.6216373,2.8586621,8.7435799,-4.5343513,-13.0534353,5.8320613
50,1.4413021,1.5729824,9.7850523,1.1221374,-6.4122138,-0.5190840,-2.8251436,2.8658447,8.5113440,-3.2824428,-11.1679392,4.2137403
60,1.3766589,1.5466464,9.7467451,0.5954198,-5.5572519,-0.3969466,-3.1507533,3.0861101,8.0325060,-3.0992367,-9.9389315,4.6946564
70,1.3503228,1.5394639,9.7204094,0.4045801,-5.2213740,-0.5343512,-3.3710186,3.1603301,7.7428088,-6.1832061,-7.7786260,5.8625956
80,1.3646880,1.5777708,9.7012558,0.2137405,-4.9618320,-0.5343512,-3.5074875,2.8993635,7.6949248,-12.7480917,-5.1374044,7.9389315
90,1.2569494,1.5274929,9.8018112,0.4732825,-4.5954199,0.2061069,-3.6271970,2.9831600,7.8936424,-27.8244267,-1.2137405,11.8320608
100,1.2904681,1.5658000,9.8233595,0.6946565,-4.2748094,0.6564885,-3.1292057,2.1667414,8.4419117,-33.8015251,1.5343511,11.5267172
110,1.3191984,1.4676381,9.7850523,0.5954198,-3.4732823,0.9083970,-2.4875629,1.5658000,8.8082228,-37.3969460,7.5419846,5.8244276
120,1.3263810,1.5681942,9.7874460,0.0534351,-2.3664122,1.1145039,-2.8562679,2.8897867,9.8353300,-39.3282433,7.6717558,-0.1221374
130,1.2761030,1.5586174,9.7802639,0.2595420,-2.0152671,1.9465649,-4.2903876,2.4013720,10.4626083,-31.3282452,11.8167934,7.4427481
140,1.3862357,1.6424140,9.8832140,1.2213740,-2.0305343,2.3511450,-4.0078731,2.1380112,10.6086531,-23.4656487,6.8320613,16.4045811
150,1.5394639,1.7118455,9.5647869,1.6259542,-2.9083970,2.7022901,-3.4548154,1.9464760,10.9246864,-15.8015270,-17.3129768,15.4885492
160,1.5658000,1.7693061,9.5384512,0.9618320,-3.5343511,2.2442749,-3.3111639,1.8698620,10.8456783,-12.3587790,-20.1603050,14.5877867
170,1.5442522,1.8004304,9.6940727,-0.5801527,-2.5267177,1.3969465,-3.8187323,1.9799947,11.7650471,4.2977099,-5.9618320,17.1679382
180,1.5729824,1.6639616,9.7275915,-1.4885496,1.9541985,-0.7862595,-2.6647329,2.3151813,10.7068148,27.4885502,5.4885497,36.8320618
190,1.6041069,1.6136837,9.7204094,-1.1984733,2.0534351,-0.8091603,-2.5929072,2.4516499,10.5727406,28.1984730,6.9007635,36.8091621
200,1.6400198,1.5490406,9.8137827,-1.1526718,2.7099237,-0.8549618,-2.3056045,2.4636209,10.3812056,28.2137413,5.7557254,36.2442741
210,1.6783268,1.4915800,9.8065996,-1.4351145,2.9541984,-1.4351145,-2.0949159,2.4181314,9.9646168,27.4732819,0.7938932,34.2137413
220,1.6112895,1.4796091,9.7228031,-1.6717557,3.3282442,-2.0000000,-1.8339491,2.5569944,9.8329363,26.6564884,-1.1068702,31.7633591
230,1.5825592,1.3527170,9.7012558,-1.9847329,3.3816793,-2.0076337,-1.6783268,2.4684093,9.7563219,25.6641216,-1.5038168,28.5343513
240,1.5514348,1.3934183,9.7347746,-1.8702290,3.2290077,-2.2900763,-1.5729824,2.6288199,9.6581602,25.3435116,-1.3282443,26.2595425
250,1.3838415,1.3479286,9.7922344,-1.3740458,2.4656489,-1.5114504,-1.4939742,2.6096666,9.6318245,25.1679382,0.1221374,23.7404575
260,1.3694763,1.4125718,9.8161764,-0.9083970,1.7175573,-1.2519084,-1.2952565,2.6168492,9.6102762,25.4961834,2.2671757,20.6946564
270,1.3646880,1.4963684,9.8185711,-0.5343512,0.6412213,-1.0534351,-1.3311694,2.6575503,9.6533718,26.0381680,3.2900763,15.9465647
280,1.3096216,1.5466464,9.8305416,-0.1450382,-0.3129771,-0.4427481,-1.5562232,2.6575503,9.6844959,26.6106873,2.1755726,11.6793890
290,1.4245427,1.6998745,9.7036495,-0.1832061,-1.7938931,0.2061069,-1.5131277,2.8706331,9.7347746,28.0534344,0.2290076,6.9160304
300,1.3766589,1.7190280,9.6557665,-0.3740458,-2.3282442,0.1832061,-1.5538290,3.0094962,9.5647869,30.0534344,-0.3206107,3.5954199
310,1.4053892,1.7309990,9.7539282,-0.6564885,-2.8396947,-0.3664122,-1.6136837,3.0118904,9.3421268,32.1984749,2.7633588,0.3129771
320,1.4604555,1.7477583,9.6318245,-0.8396947,-2.2137403,-0.4656489,-1.7309990,3.1675127,9.0835552,33.6870232,7.9389315,-2.7404580
330,1.4724265,1.5442522,9.7635050,0.1145038,-1.7938931,0.3206107,-3.3638363,4.0581512,9.0165176,16.9312973,17.2366409,4.6717558
340,1.3958124,1.5777708,9.6892843,-0.1297710,-2.3587787,0.4122137,-3.7971845,4.4436154,9.1865053,20.5267181,23.9770985,4.9389315
350,1.3814473,1.6232605,9.7539282,-0.0076336,-2.4961832,0.6335878,-4.3119354,4.7476778,9.0667953,25.1297703,29.1679382,6.5343513
360,1.3431402,1.5777708,9.6940727,0.0687023,-2.0992367,0.9541985,-4.9463954,5.0254035,8.5783806,27.7404575,35.4427490,10.6412210
370,1.3263810,1.5298871,9.7635050,-0.0381679,-1.6641221,1.4274809,-5.6742291,5.2791877,8.2431946,27.9770985,43.9236641,17.2061062
380,1.3431402,1.6017127,9.7539282,-0.0458015,-1.1908396,1.6870229,-6.5744443,5.5928264,7.7188668,26.4656487,52.6412201,27.0458012
390,1.3646880,1.6088953,9.7515335,-0.0152672,-0.3435115,2.3053436,-7.3669209,5.9064655,7.3214312,22.4580154,63.2519073,40.3358765
400,1.4891858,1.7118455,9.7395630,-0.1755725,0.3511450,2.8625953,-7.7739329,5.9040713,7.0868006,17.6183205,69.0534363,55.0152664
410,1.4843974,1.7333932,9.7658987,-0.2519084,0.4503817,3.2213740,-7.5752153,5.7460546,7.1993275,10.7175570,73.5572510,69.1221390
420,1.5418580,1.7812769,9.8209648,0.0381679,0.7099237,3.6106870,-7.5584559,5.5449429,7.1993275,1.1526718,69.3282471,83.5419846
430,1.6615674,1.8842272,9.6844959,0.5801527,0.4122137,3.5190840,-7.2280579,5.2193332,7.5704269,-9.7022905,63.9771004,96.2900772
440,1.6615674,1.8459201,9.4929609,-1.1297710,-0.9770992,0.1297710,-3.6631098,2.9472473,11.0180597,-9.6183205,73.9618301,129.1450348
450,1.6735384,1.7836711,9.5264797,-2.4961832,0.0229008,-0.7328244,-3.2249732,2.8562679,11.1760759,-0.9923664,75.7709961,128.3816833
460,1.6232605,1.6902977,9.8113880,-2.4961832,0.8625954,-0.8320611,-2.3606708,2.4277081,11.1090393,13.0916033,80.5572510,126.9236679
470,1.6208663,1.6711442,9.8329363,-2.0916030,0.8854962,-1.1221374,-1.9560528,2.2936335,11.1904411,16.6870232,78.7251892,122.7633591
480,1.6543850,1.7190280,9.7874460,-1.4045801,1.4732825,-1.4045801,-1.4556671,2.0590029,11.4226780,19.7099228,74.7099228,116.7786255
490,1.6472024,1.5945302,9.8042059,-0.9312977,1.9618320,-1.7022901,-1.3694763,1.8124014,11.8105364,23.7022896,73.5954208,109.4961853
500,1.6017127,1.6424140,9.7587166,-0.2519084,1.9160305,-2.0992367,-1.5346755,1.6304430,12.2702208,30.2977104,77.6793900,105.7251892
510,1.5227045,1.6208663,9.6964674,-0.7251908,2.3740458,-2.0916030,-0.9840119,1.3598996,13.0890341,53.3816795,81.2595444,102.3053436
520,1.5658000,1.4915800,9.6677370,-2.5572519,3.3664122,-1.9083970,0.0047884,1.3766589,12.2750092,74.1679382,65.0305328,77.4580154
530,1.5179161,1.4484847,9.7970228,-2.4732823,2.4427481,-2.1526718,0.3136388,2.0877333,11.5519638,85.0457993,44.0305328,49.6335869
540,1.5227045,1.4317253,9.7563219,-2.1984732,1.5190840,-2.0534351,0.1819584,2.5091105,10.9486284,91.2366409,35.6946564,36.1832047
550,1.3287752,1.3575054,9.8377247,-1.9160305,0.9007633,-1.7404580,0.0502780,2.9735832,10.2303715,97.6793900,27.3740463,21.7022896
560,1.3191984,1.3622938,9.9478569,-1.3664122,-1.2824427,-1.1984733,-0.8810617,3.6798692,8.4227581,105.3969498,15.6183205,-1.6183206
570,1.2808913,1.5705882,9.8377247,-0.9312977,-2.0076337,-0.5877863,-1.4029950,4.1611013,7.4507174,105.4961853,12.4198475,-10.5267172
580,1.3575054,1.3527170,9.7228031,-1.3129771,-1.8473282,-0.0458015,-1.8794388,4.6686692,6.6630292,102.4885483,8.3358774,-17.2366409
590,1.3383518,1.5705882,9.8042059,-0.0839695,-2.7328243,-0.7175573,-2.9999194,5.3127065,5.6838059,90.7557220,-3.8702290,-26.3587780
600,1.3407460,1.5969244,9.8161764,1.6030535,-3.6870229,-0.1603053,-4.0964580,5.8106980,5.4491754,79.7557220,-16.8931293,-27.8396950
610,1.4963684,1.5849534,9.7251978,0.0381679,1.0687023,3.3206108,-4.4196739,9.8951855,0.0000000,111.0229034,45.2213745,9.1832066
620,1.5705882,1.6831152,9.6844959,0.0305344,1.6412214,3.5725191,-3.8043671,10.3237448,-1.8602852,93.2824402,70.2824402,27.2824421
630,1.6519908,1.9201399,9.6964674,0.4351145,0.1755725,2.3282442,-2.0901275,10.6182299,-1.7980363,20.3282452,60.8778610,27.0992374
640,1.6687500,1.9345051,9.6390066,0.6641222,-0.4732825,1.6870229,-1.6831152,10.5679522,-1.4460905,7.4580154,35.1374054,15.7862597
650,1.7549409,1.8746504,9.6054878,0.0000000,-0.9770992,1.0687023,-1.3072275,10.0699606,-1.3120158,-8.9923668,19.8549614,2.4503818
660,1.6160779,1.8195840,9.6414013,-0.1832061,-1.7709924,0.2213740,-1.5083394,9.7635050,-0.9720409,-26.4503822,12.0610685,-11.0305347
670,1.6448082,1.8961980,9.5719690,-0.5038168,-1.8244275,0.2671756,-2.0613971,9.6461897,-0.5746055,-41.1679382,1.9007634,-21.0992374
680,1.7693061,1.6974803,9.7347746,-1.7175573,-0.5725191,-0.2366412,-2.3510940,9.5815458,-0.1077385,-53.4045792,-7.3969464,-28.2900772
690,1.6950861,1.7812769,9.7275915,-1.7175573,-0.1450382,-1.0381680,-2.7796540,9.2726955,0.4716553,-64.0457993,-12.7938929,-33.7862587
700,1.5777708,1.7357874,9.7299862,-1.0381680,-0.2824427,-1.4198474,-2.9759774,8.8872309,0.9480990,-72.4045792,-15.8396950,-38.2290077
710,1.5729824,1.6855093,9.6844959,-0.7862595,-0.5648855,-1.7022901,-3.1579359,8.7723103,1.0941446,-78.9236679,-14.7480917,-42.2977104
720,1.4939742,1.6065011,9.6916790,-1.0610687,0.5267175,-0.9541985,-3.2824337,8.7100611,1.2904681,-84.7633591,-6.0305343,-45.6106873
730,1.4413021,1.6495966,9.7156210,-1.8320611,3.1908398,-0.1145038,-4.3717899,8.6526003,1.6711442,-93.7328262,25.2595425,-49.6030540
740,1.6112895,1.6065011,9.7084379,-1.7328244,3.1145039,0.6412213,-6.0692701,8.1713686,1.9584470,-105.0610657,57.8702278,-41.9618340
750,1.6519908,1.6017127,9.7874460,-1.5419847,3.0076337,0.1984733,-7.3262196,7.7116842,2.3798244,-113.2290039,85.3282471,-31.9694653
760,1.6998745,1.6017127,9.8113880,-1.0381680,3.1374047,-0.5038168,-9.4043760,7.0868006,3.4739690,-121.2213745,121.0687027,-15.1832066
770,1.5729824,1.6376256,9.7635050,-1.0534351,2.6183207,-0.6259542,-11.9278517,6.5481081,5.1115947,-125.8167953,161.9847260,10.8320608
780,1.5514348,1.5322813,9.6581602,-1.5572519,1.9847329,-0.7938932,-14.1161413,5.9423780,7.3357964,-124.7709961,204.8549652,45.8244286
790,1.4556671,1.5681942,9.7204094,-2.2671757,0.9312977,-0.9847328,-15.7154598,5.2025738,9.9071560,-117.1908417,242.0839691,86.1526718
800,1.4867916,1.5227045,9.7706871,-2.3969467,0.6870229,-1.0610687,-16.4408989,4.2592630,12.3851423,-102.7709961,250.1297760,125.7251892
810,1.5107336,1.4532729,9.8377247,-2.1221373,0.5877863,-0.8396947,-16.5486374,3.0310438,14.6883526,-81.5038147,250.1297760,157.2061005
820,1.4939742,1.5466464,9.7994175,-1.5038168,0.6106870,-0.7557252,-16.2828827,2.1427996,16.3283730,-55.3206100,250.1297760,181.8702240
830,1.4700323,1.6160779,9.8209648,-1.3664122,0.3511450,-0.7175573,-15.5263186,1.2713146,17.6739063,-24.6641216,248.5496216,204.1526642
840,1.5059452,1.6495966,9.9119444,-0.1374046,-0.4503817,-1.3969465,-13.8551741,1.1492109,18.3035774,10.5190840,221.1374054,217.1908417
850,1.4891858,1.5945302,9.7826586,0.1221374,-0.3969466,-1.2061069,-12.1169930,1.0606259,17.9492378,46.1221390,187.2595367,219.6259613
860,1.4676381,1.6543850,9.7515335,0.1145038,0.0839695,-1.5648855,-10.7690639,1.1659702,16.8694592,75.7938919,154.3664093,217.3206177
870,1.4029950,1.6304430,9.6749191,-0.3511450,0.4503817,-1.3053435,-9.4115591,1.4029950,15.1408539,100.1068726,123.1221390,213.6870270
880,1.3575054,1.6232605,9.6174593,-0.9007633,0.2442748,-0.9694657,-8.1737623,1.5921360,13.3476067,118.2366409,93.5801544,209.5267181
890,1.3287752,1.5897418,9.7060442,-1.0610687,-0.4961832,-0.2595420,-6.8114691,1.8626794,11.4681673,129.6717529,63.7175560,202.0076294
900,1.3718705,1.6328372,9.8137827,-1.0305344,-1.2519084,-0.1603053,-5.6167684,2.1787124,9.9861641,136.3053436,35.0534363,189.7786255
910,1.4006008,1.5993185,9.8065996,-0.8015267,-0.9923664,-0.0229008,-4.7859845,2.5210814,8.7651272,139.7786255,10.9618320,178.8091583
920,1.3622938,1.6711442,9.8113880,-0.2671756,-0.6870229,0.2213740,-4.3047528,2.8538737,7.8936424,143.9694672,-6.8931298,167.9465637
930,1.4197544,1.5945302,9.7539282,-0.3664122,0.3282443,1.0229008,-4.2568688,2.8778157,7.0460997,151.5572510,-25.5343513,159.1984711
940,1.5083394,1.6160779,9.7802639,-0.4580153,0.4122137,0.3435115,-3.8666160,2.9759774,5.8873119,160.7328186,-46.1221390,148.8320618
950,1.4053892,1.6256547,9.6940727,-0.4656489,0.7480916,0.3511450,-3.0837159,3.3470769,4.3885493,168.4045868,-63.1755714,139.3282471
960,1.3431402,1.5873476,9.6653433,-0.7404580,0.3664122,1.0916030,-2.1858950,4.1898317,2.3056045,171.2519073,-69.8015289,132.1145020
970,1.3646880,1.5298871,9.7347746,-1.2061069,0.3740458,1.1526718,-1.4006008,5.2815819,0.6847382,168.8396912,-66.9465637,128.3053436
980,1.3072275,1.6400198,9.7611103,-1.0916030,0.8244275,1.7022901,-0.3926471,6.4260044,-1.1276633,165.1145020,-53.6946564,126.9389343
990,1.3311694,1.5849534,9.7539282,-0.7251908,0.8091603,2.2137403,0.2585725,6.5576849,-2.6719155,162.5419922,-36.1374054,128.2977142
1000,1.3551112,1.6639616,9.7587166,-0.2748092,0.1450382,2.5114503,1.4077834,6.9958215,-4.6590929,160.9236603,-21.0687027,129.7786255
1010,1.5227045,1.6663558,9.7275915,-0.0839695,-0.1908397,2.6335878,2.6647329,7.8792777,-6.5481081,152.2519073,-4.1221375,130.9694672
1020,1.5131277,1.7501525,9.7299862,0.4427481,-0.6717557,2.4045801,3.8785870,8.7866755,-8.0756006,137.8854980,9.4198475,131.5343475
1030,1.6472024,1.8243724,9.6533718,0.2442748,-0.5190840,1.8091604,7.3525558,9.9981356,-10.6900558,95.8091583,8.6412210,118.6259537
1040,1.7022687,1.6902977,9.5791521,-1.3664122,0.8091603,-0.2824427,12.3133163,11.0635490,-10.7546988,-7.8702292,23.2290077,55.4732819
1050,1.6543850,1.7094513,9.6366129,-1.8473282,0.8854962,-0.6717557,12.8998928,11.1641054,-9.6868906,-26.8473282,18.5190830,33.9236641
1060,1.6160779,1.5969244,9.6629486,-2.3816793,0.1221374,-1.4732825,13.3332415,11.0252428,-8.5209198,-42.7251892,13.0381680,11.4198475
1070,1.5753766,1.5945302,9.7658987,-2.7175572,-0.8015267,-2.1450381,13.4553452,10.7355452,-7.6853480,-54.7404594,17.2977104,-12.2595415
1080,1.5131277,1.5442522,9.7682934,-2.3893130,-1.5954199,-2.7938931,12.9884777,10.1848822,-6.5983863,-60.8854980,26.9236641,-35.5419846
1090,1.4987626,1.4843974,9.8927908,-1.7175573,-2.2213740,-3.0687022,12.5024576,10.0508070,-5.8490047,-62.0000000,40.7786255,-58.6793900
1100,1.3622938,1.4580613,9.9239149,-0.8091603,-2.4885497,-2.7786260,11.4107065,9.6006994,-5.6359220,-62.4198456,52.3435097,-80.9083939
1110,1.2784972,1.4269369,9.9287033,0.1679389,-3.0229008,-2.3969467,10.0915089,9.3349447,-5.5401545,-65.4198456,61.5572510,-101.7862625
1120,1.1755470,1.4029950,9.7467451,0.2900763,-3.1450381,-1.0076336,8.5376797,8.9351149,-5.6119800,-72.6259537,64.2824402,-122.0305328
1130,1.2641320,1.4604555,9.7898407,-0.0610687,-3.0305343,0.0992366,6.9048424,8.5472565,-5.5736732,-82.3206100,61.7557259,-138.8396912
1140,1.4053892,1.4963684,9.7275915,-0.7633588,-2.4809160,0.8473282,5.4611464,8.0660238,-5.2169390,-93.6488571,55.9923668,-153.5725250
1150,1.5131277,1.5322813,9.8401184,0.2595420,-3.3587787,0.1603053,3.9623835,7.4962072,-4.5968437,-105.3435135,53.1679382,-165.5496216
1160,1.4604555,1.5969244,9.8305416,1.2213740,-3.8625953,0.2290076,2.0446377,7.0006099,-3.6367738,-116.7480927,50.5572510,-175.1908417
1170,1.4221486,1.5921360,9.7754755,1.3893130,-3.6564887,0.3053435,-0.1388630,6.8904772,-2.5043221,-126.5572510,54.0992355,-179.5725250
1180,1.3455344,1.6160779,9.7156210,1.1145039,-3.6641221,0.7633588,-2.2672975,6.5241661,-0.9816177,-132.4427490,62.3206100,-177.4809113
1190,1.3551112,1.7429699,9.7060442,0.9694657,-3.2442749,1.0076336,-4.3047528,6.7300668,0.7757174,-132.6335907,74.2137375,-168.4122162
1200,1.3000449,1.6783268,9.7084379,0.7786260,-2.9083970,1.9694656,-6.4906478,6.6366930,2.5809362,-125.2824402,83.9160309,-159.9541931
1210,1.3862357,1.7381816,9.7036495,0.6946565,-1.6030535,2.6106870,-9.2008705,6.6007805,3.8953462,-113.7786255,92.5267181,-142.6564941
1220,1.4173602,1.6831152,9.6437950,0.3969466,-0.0687023,3.2061069,-11.5160513,6.7372489,4.9440012,-100.2595444,102.3129807,-117.5267181
1230,1.5777708,1.7333932,9.6150646,-0.1145038,1.4732825,3.8015268,-13.1967726,6.6055689,5.8537931,-83.4351120,113.8167953,-87.7709961
1240,1.6112895,1.7214222,9.6677370,-0.5954198,2.5190840,4.0534353,-14.1736012,6.2655940,6.4307928,-65.8244247,122.4656525,-58.1297722
1250,1.7717001,1.7070571,9.6629486,-0.8549618,2.5877862,3.7709923,-14.7601776,5.9758968,7.1059542,-49.6946564,122.8244247,-32.7022896
1260,1.8507085,1.7214222,9.6988611,-1.1526718,2.9618320,2.9465649,-15.0714226,5.9088597,7.6949248,-36.6870232,114.2213745,-11.8625956
1270,1.9704180,1.7621235,9.8113880,-1.0381680,3.5572519,1.9389313,-15.4832230,5.8442163,8.0708122,-29.6946564,98.0076370,4.4351144
1280,1.8698620,1.8291607,9.7515335,-0.6488550,3.2213740,-1.3282443,-15.3826675,5.7580256,9.8903971,-20.9007626,57.1526718,37.3129768
1290,1.7070571,1.9799947,9.6725254,-0.2290076,2.2824428,-1.9770992,-14.6859579,5.4156566,10.9845409,-11.1832066,33.3129768,51.1221390
1300,1.6041069,1.6687500,9.6414013,-1.3206106,1.3664122,-2.4122138,-13.6923695,5.1115947,11.7913828,5.2824426,9.6641226,61.0228996
1310,1.4077834,1.7118455,9.5815458,-2.6717558,0.2824427,-2.5877862,-12.5814657,4.9392128,11.9182749,26.6030540,-11.2595415,68.7480927
1320,1.2928623,1.6280488,9.5719690,-3.0305343,-0.8320611,-2.1984732,-11.4226780,4.8961172,11.2502966,49.5877876,-24.9541988,75.4045792
1330,1.2258250,1.5298871,9.7754755,-3.0381680,-2.3816793,-1.8244275,-10.4123297,4.7788019,10.4266949,71.8396912,-34.1832047,82.2748108
1340,1.3000449,1.4867916,9.9310980,-2.0687022,-2.9389312,-1.1374046,-9.4235296,4.8697815,9.1386213,90.7557220,-43.4809151,87.3969498
1350,1.2593436,1.4939742,9.8975792,-0.8778626,-2.4503818,-0.4732825,-8.4921904,5.0493455,7.5847921,108.2061081,-50.9771004,92.9312973
1360,1.3934183,1.5777708,9.7802639,1.0152671,-3.3893130,1.9007634,-6.6726060,5.3366485,4.6016321,129.3511505,-63.2442741,102.1374054
1370,1.5490406,1.4676381,9.7491398,1.2442749,-4.7099237,1.3206106,-5.9375896,5.8801293,3.1220231,135.0152740,-68.1450348,105.8778610
1380,1.6136837,1.7262106,9.6461897,1.4885496,-5.3816795,1.1908396,-4.8745699,6.3158717,1.6400198,138.5572510,-74.5877838,110.5343475
1390,1.7357874,1.6711442,9.6246414,0.3816794,-4.4427481,0.8702290,-3.5314295,6.7204900,0.3256098,139.7633514,-78.6183243,113.3893127
1400,1.6783268,1.6831152,9.7419567,-0.7633588,-2.5954199,-0.0534351,-2.0159075,7.1035600,-1.1731528,139.1832123,-81.9007645,112.6717529
1410,1.5897418,1.7094513,9.7036495,-1.0458015,-2.0381680,-0.5190840,-0.7565638,7.4986014,-2.6982515,135.0610657,-80.3282471,107.8320618
1420,1.6519908,1.5777708,9.7802639,-0.7633588,-1.8549619,-0.8625954,0.2130829,7.8697009,-4.2712340,127.0610657,-81.7022934,100.5954208
1430,1.5729824,1.5897418,9.8161764,-0.7328244,-0.9618320,-0.9923664,1.2306134,8.4179697,-5.6311336,115.2900772,-89.0152664,93.3053436
1440,1.5490406,1.5490406,9.8113880,-0.6412213,-0.4503817,-0.3435115,2.0613971,9.0428534,-6.4451580,99.4427490,-97.0687027,86.2671738
1450,1.5203103,1.6352314,9.6892843,-0.6412213,-0.1526718,-0.1068702,2.9616125,9.4163475,-6.7851329,90.0152664,-91.4503784,81.2442780
1460,1.4436963,1.6041069,9.7682934,-0.3053435,0.0992366,0.1297710,4.4723458,9.9406748,-7.6087341,82.5954208,-84.0916061,81.8778610
1470,1.4580613,1.6065011,9.7395630,-0.6106870,1.3206106,0.6946565,7.3214312,11.1162214,-10.0986910,64.0457993,-47.1297722,86.4961853
1480,1.4293311,1.5753766,9.6940727,-0.9770992,1.6564885,1.0229008,8.8561068,11.3843708,-11.1234045,47.1068687,-23.1603050,85.3053436
1490,1.4197544,1.5658000,9.7347746,-1.0381680,1.6641221,1.9236641,10.1441803,11.3316984,-11.7363167,28.2824421,-3.4732823,81.7480927
1500,1.5274929,1.5538290,9.7012558,-1.0687023,2.3282442,2.7709923,11.3053627,11.3891592,-11.8129311,8.0916033,7.9389315,72.5419846
1510,1.6112895,1.6663558,9.8425131,-0.6564885,2.5648854,2.7404580,12.4641504,11.2143831,-11.5352049,-14.2900763,9.6183205,58.2442741
1520,1.7022687,1.7573351,9.7060442,-0.3664122,3.2061069,2.2213740,13.5726604,11.0946741,-10.6541433,-35.1603050,6.7862597,37.3053436
1530,1.7333932,1.8004304,9.8113880,-0.0458015,3.1450381,1.7633588,14.2023315,10.8241301,-9.6749191,-53.2137413,3.0839694,9.9541988
1540,1.7022687,1.6807210,9.5360565,-2.4656489,1.1526718,-1.1221374,9.1793222,8.8345594,-4.8410511,-91.3816757,10.8549614,-135.3511505
1550,1.5394639,1.7764885,9.6054878,-2.7328243,0.5801527,-1.8625954,7.5488791,8.2599535,-4.2568688,-96.4503784,13.9847326,-155.1908417
1560,1.5514348,1.6759326,9.7587166,-2.6412213,-0.1450382,-1.6946565,5.9280128,7.8122401,-3.6152260,-100.1450348,16.2061062,-171.9541931
1570,1.5298871,1.6088953,9.8520899,-2.4045801,-0.3740458,-2.0000000,4.0605454,7.4148049,-2.9927368,-102.5267181,16.3358784,-184.4580078
1580,1.4269369,1.5993185,9.8042059,-1.9770992,-0.6870229,-1.4885496,1.8339491,6.9599090,-2.3846128,-104.5801544,14.0839691,-193.8549652
1590,1.4724265,1.4963684,9.7802639,-1.2748091,-1.2824427,-1.2061069,-0.4333483,6.7468257,-1.9297167,-107.8244247,12.2061071,-196.8702240
1600,1.4772149,1.5274929,9.8042059,-1.1450381,-1.3740458,-0.8625954,-2.8826041,6.5050125,-1.0007712,-112.9389343,13.5725193,-192.4274750
1610,1.5274929,1.5634058,9.6892843,-0.8931298,-0.8931298,-0.7786260,-4.7644372,6.4667058,0.2561783,-115.4580154,17.2671757,-181.5954132
1620,1.5083394,1.5370697,9.7084379,-1.2137405,-1.0992366,-0.9923664,-6.7659793,6.2775645,2.0278785,-114.1603088,20.4961834,-165.5496216
1630,1.4532729,1.5011568,9.8089943,-1.1068702,-1.6030535,-0.9007633,-8.0157461,6.5026188,3.3877780,-106.6335907,25.7404575,-146.8778687
1640,1.4820032,1.5298871,9.8065996,-0.9007633,-1.7022901,-0.6106870,-9.6797075,6.3326311,4.6638808,-93.9465637,41.0458031,-129.2366486
1650,1.4820032,1.5586174,9.7299862,-1.3053435,-0.8931298,-0.7709923,-12.1385403,6.3996682,5.6742291,-78.7099228,66.0457993,-102.3664093
1660,1.5538290,1.6256547,9.6605549,-1.6793894,-0.4427481,-0.5496183,-14.1233234,6.3206601,6.6821828,-60.9465637,83.5648880,-72.3358765
1670,1.4580613,1.6328372,9.7587166,-0.9465649,-0.1603053,-0.9694657,-15.8519287,6.0812411,7.8026633,-42.1526718,90.0534363,-42.8778610
1680,1.4724265,1.6831152,9.8401184,-0.3664122,0.1068702,-0.6412213,-16.4265347,6.0165982,8.3030491,-25.4580154,86.1297684,-14.0458012
1690,1.4006008,1.6735384,9.7132263,-0.1755725,0.6259542,-0.1755725,-16.5534267,5.8466105,8.8585014,-12.7175570,76.1603088,11.3893127
1700,1.4173602,1.6711442,9.6725254,-0.3664122,1.1984733,0.7480916,-16.3834381,5.7963328,9.5576038,-2.1374047,60.3816795,32.8702278
1710,1.3838415,1.6615674,9.6821022,-0.5648855,1.3816794,1.5725191,-15.6939116,5.6478930,10.1082678,9.8625956,39.5725174,50.9541969
1720,1.5155219,1.6639616,9.7012558,-0.8396947,2.6106870,2.8473282,-12.9453821,5.2863703,10.3716288,41.2213745,2.2900763,75.8473282
1730,1.6831152,1.6567791,9.7132263,-1.8396946,6.5572519,1.1068702,-8.4227581,5.2600341,6.1674318,98.5343475,-47.8473282,97.8702316
1740,1.6855093,1.7166338,9.7754755,-2.2748091,6.6183205,0.0305344,-7.5273318,5.4491754,4.9080882,105.0305328,-56.2290077,101.1526718
1750,1.5298871,1.7621235,9.7012558,-2.1832061,5.8091602,-0.1450382,-6.7492199,5.5257893,3.8570392,110.2519073,-66.1221390,104.5877838
1760,1.4436963,1.7908537,9.7611103,-1.8625954,4.7175574,-0.6106870,-4.9655490,6.1770086,1.5490406,118.3206100,-84.2442780,111.0839691
1770,1.3886299,1.7333932,9.6725254,-2.0534351,4.5954199,-0.2824427,-3.4428444,6.8354111,0.2154770,121.0763321,-86.5725174,116.0229034
1780,1.3790531,1.7717001,9.6270361,-2.3282442,3.4656489,-0.2824427,-2.2289903,7.4507174,-1.2138541,123.3053436,-85.9770966,120.6030502
1790,1.4939742,1.7669119,9.6581602,-2.7633588,2.6717558,-0.5114504,-0.8858501,8.0732069,-2.7533178,125.6183243,-79.4961853,127.3206100
1800,1.5059452,1.6831152,9.7012558,-2.8396947,1.9160305,-1.3587786,0.4692611,8.3365679,-4.3454537,127.4580154,-71.7862625,134.1984711
1810,1.4365137,1.7357874,9.7922344,-2.5190840,0.9618320,-2.1297710,2.6455793,8.5544386,-6.1195483,131.1755676,-55.7786255,143.5190887
1820,1.4987626,1.6998745,9.8089943,-2.5877862,0.2977099,-2.2977099,5.2791877,9.3947992,-8.7794924,125.5572510,-28.7557259,147.7099304
1830,1.3838415,1.6041069,9.8425131,-2.5038168,0.2213740,-3.1145039,7.6781654,9.3876171,-10.4721851,111.5801544,-0.1145038,147.1450348
1840,1.2880739,1.4843974,9.8544836,-1.9007634,0.6030535,-3.0839694,10.1322098,9.8257532,-11.5160513,91.1832047,19.3358784,138.1068726
1850,1.3072275,1.4484847,9.7587166,-1.6793894,0.6030535,-2.4809160,12.1744537,10.0962973,-12.1217813,65.4656525,26.9160309,119.3435135
1860,1.3000449,1.3934183,9.8018112,-1.7786260,0.6488550,-1.7633588,13.6732159,10.1609402,-11.7674408,35.6030540,19.1450386,89.5725174
1870,1.3263810,1.3838415,9.8425131,-1.5877863,-0.4961832,-1.0992366,14.7793312,10.5535870,-10.9701757,4.9847326,-4.2137403,55.5038185
1880,1.3910241,1.4676381,9.8592720,-0.9847328,-1.3053435,-1.3358779,15.4257622,10.6110477,-10.2998028,-22.4580154,-30.6641216,17.2595425
1890,1.4173602,1.4532729,9.8832140,-0.2442748,-1.8244275,-1.7633588,15.6723642,10.4793673,-9.2774839,-46.3282433,-44.6106873,-22.0381680
1900,1.3215926,1.4221486,9.8544836,0.3053435,-1.8015267,-2.1221373,14.6811695,10.1681223,-7.8098459,-63.2519073,-40.3664131,-59.7404594
1910,1.3311694,1.4413021,9.7443514,-0.0152672,-1.1679389,-1.4503816,12.5766773,9.7323799,-6.1003947,-69.4503784,-36.2748108,-91.1832047
1920,1.3287752,1.5059452,9.6174593,-0.9007633,-0.2213740,-1.2595420,10.9007444,9.3804340,-5.3079181,-70.7633591,-34.2366409,-117.1679382
1930,1.2497669,1.5538290,9.7658987,-1.6183206,0.3664122,-0.9618320,9.3181858,9.1697454,-5.0014620,-72.8778610,-28.3511448,-139.3129730
1940,1.3048333,1.5250987,9.7467451,-1.3969465,0.3816794,-0.7786260,7.4219875,8.8417416,-4.5465660,-76.4274826,-23.0763359,-156.9465637
1950,1.3431402,1.6735384,9.8018112,-0.5343512,0.4580153,-0.3587786,5.6047974,8.5257082,-4.2832050,-80.3435135,-21.7251911,-170.1832123
1960,1.3479286,1.6950861,9.8616667,-0.0687023,0.3435115,0.4580153,3.6966286,8.1498213,-3.8714044,-84.9770966,-23.2824421,-180.2061005
1970,1.3598996,1.6376256,9.7275915,-0.4351145,0.6259542,1.0458015,2.2433555,7.8673067,-3.6894460,-90.7786255,-24.9083977,-186.0381622
1980,1.3239868,1.5993185,9.7587166,-0.4274809,0.6717557,1.3893130,0.5626345,7.6542239,-3.2201848,-97.4961853,-23.8549614,-190.2137451
1990,1.3311694,1.6543850,9.7132263,-0.7938932,1.4885496,1.7328244,-1.1827296,7.5225434,-2.4755919,-102.9694672,-22.8244267,-188.7709961
2000,1.3359578,1.6065011,9.6988611,-1.1603054,2.1450381,1.8931298,-2.8778157,7.3501616,-1.7501525,-106.6946564,-23.1679382,-182.3816833
2010,1.2569494,1.6136837,9.6653433,-1.9389313,2.7175572,2.2824428,-4.2975702,7.3357964,-0.7876883,-109.6030502,-23.0992374,-172.0686951
2020,1.3503228,1.5490406,9.7084379,-2.2290077,2.8854961,2.6870229,-5.5162125,7.1993275,0.2729376,-109.4045792,-16.7557259,-160.0915985
2030,1.3598996,1.5777708,9.8233595,-1.8778626,3.1221373,2.9236641,-7.0772243,7.2448173,1.2689204,-105.8015289,-3.2061069,-143.3358765
2040,1.1827296,1.4413021,9.8089943,-2.8931298,-0.6564885,-1.5267175,-14.1736012,6.6606350,8.8034344,-21.4198475,44.3587799,55.0305328
2050,1.2808913,1.3910241,9.9334917,-2.0152671,-1.6488550,-1.2290076,-13.9677010,6.3685441,9.8616667,-6.5038166,20.9618320,69.6946564
2060,1.3000449,1.3575054,10.0986910,-0.6259542,-2.2442749,-0.6870229,-12.9980545,6.1458845,10.3117743,13.2137403,3.1450381,84.0992355
2070,1.3479286,1.4101776,9.8712435,0.7709923,-3.0916030,-0.3587786,-11.7171631,5.9184365,10.1106625,35.7251892,-5.0916033,96.8320618
2080,1.2617378,1.3814473,9.7443514,0.9541985,-2.8931298,-0.3358779,-10.3596573,5.7580256,9.4522600,60.4885483,-8.1526718,109.0457993
2090,1.4628497,1.5538290,9.6030941,-1.2900764,-1.6335878,0.8854962,-7.6111283,5.9399838,6.4691000,101.3206100,-5.3893127,125.9160309
2100,1.4125718,1.5203103,9.8736372,-1.6030535,-1.5267175,0.0992366,-6.1794028,6.0692701,4.6183915,111.7251892,-10.3206110,129.3358765
2110,1.4460905,1.6280488,9.8161764,-1.1221374,-1.4809160,-0.2137405,-4.9535780,6.4260044,3.0885043,115.3664093,-18.9541988,129.3435059
2120,1.4820032,1.6807210,9.8520899,-0.6412213,-0.6412213,-0.6641222,-3.6487448,6.9455438,1.4891858,114.3511429,-26.0992374,129.2213745
2130,1.3622938,1.6543850,9.8257532,-0.3358779,-0.5648855,-1.3206106,-2.4684093,7.4962072,-0.0191535,110.4732819,-35.7175560,129.4351196
2140,1.3814473,1.6519908,9.7467451,-0.0687023,-0.4656489,-1.6870229,-1.0007712,7.9989872,-1.4628497,106.3129807,-41.6641235,128.0992432
2150,1.3575054,1.6448082,9.7539282,-0.1221374,-0.0992366,-1.6183206,0.0933734,8.5113440,-2.6862805,104.0687027,-42.5725174,128.1679382
2160,1.2186425,1.5705882,9.6773138,-0.5877863,0.2137405,-0.9389313,1.4676381,8.9255381,-4.2664456,103.2290039,-36.4809151,132.3053436
2170,1.1563935,1.5083394,9.6964674,-1.7022901,0.6717557,1.6641221,5.3174949,9.5312681,-7.7260494,97.3740463,14.2519083,143.7862549
2180,1.2377959,1.5059452,9.7587166,-1.5419847,1.1526718,2.5190840,7.7428088,9.6892843,-9.5384512,87.9694672,46.1068687,144.6717529
2190,1.3191984,1.5418580,9.8568783,-1.2442749,1.2290076,2.9312978,9.8880024,10.2471304,-11.0515785,64.3587799,60.2366409,136.2137451
2200,1.3934183,1.5873476,9.8568783,-0.5572519,0.8854962,2.9465649,12.2031832,10.3907824,-12.1385403,31.4122143,49.3893127,118.0457993
2210,1.4293311,1.5203103,9.7658987,-0.0839695,0.9694657,2.8244274,13.9868546,10.1824875,-12.5359764,-10.4503813,24.4045811,88.1908417
2220,1.5227045,1.5274929,9.6964674,-0.2595420,1.0458015,2.1908398,15.2868996,10.0939026,-11.3556404,-51.8320618,-8.8931293,50.2900772
2230,1.3958124,1.6543850,9.7635050,-0.4122137,-0.1984733,0.9465649,16.4744167,9.2152348,-8.2599535,-111.2061081,-71.1450348,-41.4503822
2240,1.4173602,1.6687500,9.7060442,-0.4580153,-0.8931298,0.5572519,15.3802729,8.9662399,-6.4571290,-128.2061005,-79.3435135,-84.6793900
2250,1.3431402,1.7573351,9.7970228,-0.6717557,-0.6030535,0.4351145,13.4673157,8.6118994,-4.4819226,-135.0763397,-73.8473282,-121.1908417
2260,1.4580613,1.6735384,9.7706871,-0.3893130,-0.6106870,0.2061069,11.3388815,8.4012108,-3.1723011,-133.5190887,-64.0305328,-149.3129730
2270,1.4317253,1.6687500,9.7036495,-0.2366412,-1.2290076,-0.2519084,9.1266499,7.9367380,-2.1858950,-129.3893127,-49.9771004,-172.5114441
2280,1.3407460,1.7046629,9.7658987,-0.2671756,-1.4809160,-0.1832061,7.1442614,7.6135225,-1.7429699,-124.6183243,-35.6641235,-192.3435059
2290,1.3479286,1.5849534,9.7084379,-0.6259542,-1.6717557,-0.4045801,4.7883787,7.1035600,-1.4748207,-120.9770966,-26.7862587,-206.5190887
2300,1.4125718,1.4652439,9.8065996,-1.1755725,-1.2061069,-0.3816794,2.4348907,6.5241661,-1.2066715,-119.9694672,-18.5725193,-215.4274750
2310,1.3766589,1.4436963,9.7706871,-1.1679389,-1.0763359,-0.3358779,-0.4165890,6.3924856,-0.3351865,-121.0229034,-6.9465647,-218.3206177
2320,1.2784972,1.5298871,9.8329363,-0.6564885,-1.3587786,-0.2519084,-3.3231349,5.8897061,0.6440369,-123.3053436,3.6183207,-216.4503784
2330,1.3598996,1.4556671,9.7395630,-0.2671756,-1.8091604,0.1832061,-7.3645267,5.6047974,2.2050486,-125.3969498,18.2137413,-205.5419922
2340,1.3503228,1.5107336,9.7850523,-0.4503817,-1.8167939,0.5114504,-12.3899307,6.0596933,4.2832050,-123.7404556,34.5877876,-177.5496216
2350,1.4436963,1.5011568,9.7371683,-0.7938932,-1.8778626,0.5725191,-17.1759148,6.4331870,6.8090749,-113.3206100,51.1984749,-129.6335907
2360,1.4173602,1.5514348,9.7539282,-1.0992366,-1.5496184,0.4274809,-19.6131992,6.2919297,9.5743637,-90.1908417,60.5419846,-69.4961853
2370,1.4676381,1.6184721,9.8065996,-1.0534351,-1.2595420,0.0992366,-19.6131992,5.9280128,11.1760759,-54.1221390,64.6870193,-11.7022905
2380,1.4580613,1.5394639,9.7347746,-0.6870229,-1.6717557,-0.4961832,-19.6131992,5.8418221,11.8105364,-11.1450386,70.2595444,37.0381660
2390,1.3958124,1.6184721,9.8305416,-0.4427481,-1.3664122,-0.5343512,-18.3370972,5.8202744,11.4609852,31.9770985,73.6946564,76.9694672
2400,1.3958124,1.5274929,9.7491398,-0.2748092,-1.0763359,-0.4351145,-16.2278156,5.9375896,10.2830439,65.5801544,69.6030502,107.2061081
2410,1.3982066,1.5921360,9.7946291,-0.2366412,-0.4656489,-0.4580153,-13.8288383,6.0022330,8.6909075,86.8015289,54.4503822,126.5496216
2420,1.3479286,1.5705882,9.7347746,-0.3969466,-0.1297710,-0.3358779,-11.7219515,6.2679882,7.3453732,99.2748108,29.3206100,138.4122162
2430,1.3790531,1.6112895,9.7347746,-0.3511450,0.1297710,0.0458015,-9.5169029,6.6558466,5.9375896,105.5496216,0.5496183,144.0152740
2440,1.2880739,1.5442522,9.8042059,-0.5343512,0.1679389,0.3358779,-7.2711535,6.9646969,4.4747400,106.1450348,-24.7786255,145.4809113
2450,1.2737088,1.5466464,9.6844959,-0.4274809,0.3053435,0.9465649,-5.4132624,7.4746594,3.0837159,103.4045792,-40.6030540,146.6335907
2460,1.2449785,1.6160779,9.6892843,-0.6946565,0.4732825,1.7175573,-3.0980811,8.1450329,1.3982066,100.2519073,-48.0381660,150.3435059
2470,1.3838415,1.6543850,9.7371683,-0.7251908,0.2671756,2.3893130,0.9864060,8.6956959,-1.2952565,102.8549652,-18.5267181,167.7404633
2480,1.3311694,1.6352314,9.7563219,-2.1679389,0.3740458,-1.3664122,13.9198179,9.4235296,-6.2823529,-118.8167953,-103.0000000,-103.2061081
2490,1.3215926,1.5418580,9.7946291,-1.8015267,-0.0534351,-1.1450381,12.3635941,8.9638453,-4.1371593,-133.5725250,-104.1832047,-137.0229034
2500,1.2976507,1.5203103,9.8927908,-1.6717557,-0.2442748,-1.2824427,10.5272512,8.5472565,-2.1691356,-138.2290039,-88.7633591,-165.3969421
2510,1.2282192,1.5610116,9.8832140,-1.1755725,-0.3282443,-0.6488550,8.5041609,8.0827837,-0.5698171,-136.8473358,-70.7938919,-188.1832123
2520,1.2856797,1.5083394,9.9071560,-0.6793893,-0.7709923,-0.6641222,5.9639258,7.5871863,0.7517755,-131.9923706,-54.4656487,-207.0763397
2530,1.2952565,1.5825592,9.7228031,-0.4427481,-0.9160305,0.1908397,2.4875629,6.8449879,2.0087249,-125.8015289,-36.0000000,-218.1450348
2540,1.3838415,1.5083394,9.7084379,-0.0381679,-1.6488550,-0.2366412,-1.4796091,6.4619174,3.0238612,-118.8625946,-15.2824430,-218.4885559
2550,1.3982066,1.5394639,9.7275915,-0.3587786,-1.9694656,-0.0305344,-6.1339135,6.1578555,4.3215117,-110.3435135,9.3358774,-204.7633514
2560,1.4652439,1.4628497,9.7156210,-0.8473282,-1.9770992,-0.0610687,-11.6070309,6.5576849,5.6862001,-99.6564865,36.0610695,-171.3816833
2570,1.3551112,1.4891858,9.7802639,-0.9083970,-1.6259542,0.2213740,-17.0274754,7.0149751,7.6829538,-83.0076370,53.6793900,-116.5038147
2580,1.4915800,1.5849534,9.8712435,-0.4045801,-1.4045801,0.0763359,-19.4887028,6.8928714,9.1793222,-57.9771004,59.9541969,-52.6870232
2590,1.4173602,1.6376256,9.6773138,-0.0305344,-0.6488550,0.2519084,-18.6986198,6.4978304,10.3859940,14.0916033,59.7328262,52.2977104
2600,1.4628497,1.5849534,9.8065996,0.1068702,-0.7709923,0.0458015,-16.6803188,6.6678176,9.2511482,49.4580154,61.3129768,87.7251892
2610,1.3862357,1.6112895,9.8401184,0.1068702,-0.8015267,-0.1297710,-14.6811695,6.8689294,7.9415264,73.8854980,55.6564903,112.0916061
2620,1.3934183,1.6735384,9.6725254,-0.3206107,-0.4961832,-0.2519084,-13.2039547,6.8976598,6.6175399,89.1297684,43.1297722,130.4122162
2630,1.3934183,1.5945302,9.6773138,-0.6717557,-0.7328244,-0.5801527,-11.6285782,6.9455438,5.3701668,96.0000000,23.2213745,144.4580078
2640,1.2138541,1.5346755,9.7228031,-0.3969466,-0.3740458,0.5572519,-7.8002691,7.2160869,3.2130022,97.0992355,-22.6488552,158.3969421
2650,1.4317253,1.5897418,9.7323799,-0.2824427,0.9007633,3.5877862,-0.0430954,8.3605099,-0.9026094,95.3969498,-33.0458031,193.6335907
2660,1.5418580,1.7022687,9.6006994,-0.7862595,0.7633588,-0.7099237,15.8184099,9.4355011,-11.1641054,45.7709923,80.3969498,114.2671738
2670,1.5346755,1.6304430,9.6006994,-2.2137403,1.5343511,-1.2366412,16.8550930,9.6150646,-11.7027979,-0.8625954,45.1755714,63.7175560
2680,1.3982066,1.5777708,9.5863342,-2.6946564,1.7709924,-1.6946565,17.4320927,9.7539282,-11.2455082,-54.8473282,-4.1679387,9.6641226
2690,1.1970947,1.5969244,9.7395630,-2.2748091,1.0458015,-1.1679389,16.8167858,9.4762020,-9.4714136,-103.6106873,-48.0381660,-42.4198456
2700,1.2665262,1.5011568,9.8089943,-1.8854961,0.0839695,-1.1603054,15.6699696,8.9686337,-6.9838505,-136.2824402,-74.1374054,-85.2366409
2710,1.2928623,1.5131277,9.8544836,-1.5343511,-0.4045801,-0.5267175,14.1017761,8.4012108,-4.7237358,-153.2290039,-78.1221390,-119.6259537
2720,1.2401901,1.4700323,9.8808203,-0.6793893,-1.1297710,-0.1297710,12.6269550,8.0253229,-2.6671271,-157.6335907,-62.8702278,-147.8931274
2730,1.3072275,1.4341195,9.9598284,0.2519084,-1.4351145,0.0534351,10.3955708,7.7739329,-0.5674229,-152.5954132,-36.4045792,-170.7099304
2740,1.3072275,1.5705882,9.7682934,0.4122137,-1.7709924,0.5267175,8.2623482,7.5560617,0.7948709,-141.0839691,-9.1526718,-187.2595367
2750,1.3646880,1.5442522,9.5839405,-0.1297710,-1.7480916,0.7557252,5.6957769,7.2591825,1.4197544,-126.5267181,13.0763359,-198.4198456
2760,1.4460905,1.5562232,9.6126709,-0.6870229,-1.6030535,0.8702290,2.9664006,7.0365229,1.7621235,-112.3816757,27.5496178,-203.9084015
2770,1.4628497,1.5921360,9.6964674,-0.5114504,-2.0687022,-0.0152672,-0.0143651,6.9263902,1.7381816,-101.4045792,41.7022896,-201.7404633
2780,1.4796091,1.5945302,9.8233595,-0.4198473,-2.6183207,-0.2366412,-2.7844424,6.7420373,2.0805507,-94.0992355,56.1603050,-195.6030579
2790,1.4700323,1.5514348,9.8185711,-0.3358779,-2.0839694,-0.6870229,-5.6670465,6.5026188,2.5019281,-90.6946564,61.4351158,-184.8320618
2800,1.3910241,1.5873476,9.7730818,-0.1908397,-1.2977099,-0.9389313,-8.9901810,6.5289545,3.4787574,-90.5648880,61.3587799,-168.9923706
2810,1.2354017,1.6160779,9.7084379,0.1908397,-1.2290076,-0.5954198,-12.6221666,6.8832946,5.1714492,-90.1297684,58.2595406,-142.9694672
2820,1.3263810,1.5897418,9.6605549,-0.2213740,-1.2748091,-0.0916031,-16.0913467,6.9000540,7.3214312,-84.7862625,52.5190849,-106.3816757
2830,1.2641320,1.4915800,9.6629486,-0.8320611,-0.7175573,0.0916031,-18.1790810,6.8737178,9.4283180,-71.0610657,43.3816795,-63.3587799
2840,1.2258250,1.5849534,9.7946291,-0.8320611,-0.4274809,0.9007633,-19.1463337,6.7683735,11.2886028,-45.8015251,30.5725193,-18.8244267
2850,1.1731528,1.4963684,9.7587166,-0.8549618,0.3511450,1.8396946,-19.3258972,6.5313487,12.1576939,-12.1984730,19.8015270,23.7709923
2860,1.3168042,1.5753766,9.8473015,-0.4045801,2.8091602,3.8396947,-16.1344433,6.1530671,11.1281929,57.1145020,15.0916033,101.3893127
2870,1.8147956,1.7022687,9.7299862,-0.6412213,2.7557251,1.2519084,-8.3150196,6.3326311,5.6766233,121.2061081,-26.7862587,163.8244324
2880,1.7118455,1.8147956,9.7012558,-0.7557252,1.5267175,-0.6106870,-6.4188218,6.7420373,3.7588775,121.0305328,-41.7175560,170.6870270
2890,1.6663558,1.7333932,9.5911226,-1.8625954,1.2748091,-1.5725191,-4.8865409,6.7971039,2.2960277,118.2137375,-52.4274826,178.7862549
2900,1.4341195,1.6567791,9.5983057,-2.9236641,0.9465649,-2.6641221,-3.1699069,7.2639709,0.8978211,116.3358765,-61.0839691,189.7557220
2910,1.2090657,1.6208663,9.7323799,-2.7557251,0.0992366,-2.5419848,-1.4389079,7.6661944,-0.7589580,115.3587799,-62.2977104,203.9618378
2920,1.1803354,1.4963684,9.7898407,-2.2366412,-1.2290076,-1.6488550,0.3543400,7.5249376,-2.4779861,113.8778610,-53.5954208,219.5572510
2930,1.1180865,1.4700323,9.8377247,-1.4198474,-1.4656489,-0.7251908,3.2034254,7.2089043,-4.4938936,112.8396912,-39.0458031,233.6564941
2940,1.1109039,1.4556671,9.8832140,-0.4961832,-1.7786260,0.3740458,6.8401995,7.1131368,-6.4523406,109.8015289,-14.4580154,239.6412201
2950,1.1755470,1.3958124,9.8520899,-0.1679389,-2.0458016,1.3053435,11.3269100,7.1873569,-8.6382351,100.2442780,11.4580154,228.5343475
2960,1.3814473,1.4221486,9.8209648,0.2977099,-2.8625953,1.4732825,15.5119534,7.4411407,-10.7044210,77.5267181,24.8396950,195.5725250
2970,1.4245427,1.4820032,9.6390066,0.1679389,-4.1068702,1.4427481,18.2102051,8.2575598,-11.9517937,37.3740463,18.2519093,147.3206177
2980,1.5203103,1.4867916,9.7658987,0.2442748,-4.7480917,0.3969466,19.6126022,8.9806042,-12.5814657,-15.0152674,-15.1297712,88.1755753
2990,1.5801650,1.5562232,9.7108326,0.0916031,-4.7862597,-0.2137405,19.6126022,9.0907373,-11.6357603,-71.4351120,-54.6412201,23.3282452
3000,1.5681942,1.5849534,9.7754755,0.2137405,-4.0152674,-1.1374046,19.6126022,8.6789370,-9.4163475,-118.5343475,-85.2290039,-35.2977104
3010,1.4915800,1.6232605,9.7467451,-0.0839695,-3.4961832,-1.7709924,19.0409889,8.3293848,-6.6534524,-148.0000000,-98.0610657,-84.4274826
3020,1.4772149,1.6017127,9.7635050,0.0229008,-3.3969467,-1.9083970,17.2429523,7.8577299,-3.5481887,-161.2900696,-91.1374054,-125.8778610
3030,1.3982066,1.5681942,9.7395630,-0.3740458,-2.8320611,-1.8625954,15.4951944,7.3764977,-1.2832855,-160.8320618,-65.0457993,-160.3053436
3040,1.3455344,1.5921360,9.7108326,-0.6488550,-2.2595420,-1.7175573,13.4792862,6.9431496,0.5506636,-149.5038147,-30.1679382,-190.6488495
3050,1.3311694,1.5418580,9.7898407,-0.8778626,-2.2366412,-0.9923664,11.0300312,6.4714942,1.6232605,-131.3206177,2.4503818,-216.9389343
3060,1.3000449,1.5993185,9.7563219,-0.6183206,-1.1832061,-0.3816794,8.4658537,6.0022330,1.7118455,-113.8167953,21.2442741,-238.3816833
3070,1.1803354,1.5753766,9.8568783,-0.4198473,-0.3206107,0.4961832,5.8418221,5.6239510,1.6065011,-103.4122162,25.8244267,-250.1374054
3080,1.2617378,1.5897418,9.7251978,-0.4351145,0.3893130,1.3893130,3.1100521,5.1929970,1.3742647,-101.2900772,21.3816795,-250.1374054
3090,1.2761030,1.5586174,9.7539282,-0.1984733,0.3969466,2.6488550,-0.4189832,4.8865409,1.3718705,-106.1908417,10.5725193,-250.1374054
3100,1.2282192,1.5921360,9.6964674,-0.2442748,0.5877863,3.3816793,-5.0661049,4.6830344,2.1020982,-114.5572510,7.0992365,-250.1374054
3110,1.4149660,1.5586174,9.6509781,-0.7022901,1.1526718,4.0839696,-10.8528605,5.2025738,3.9575951,-119.9923630,16.9312973,-250.1374054
3120,1.5418580,1.5562232,9.7299862,-1.3969465,2.3053436,4.3511453,-17.4105453,6.0764527,6.9790621,-115.8473282,27.1374054,-195.3511505
3130,1.5849534,1.5203103,9.7826586,-1.3435115,2.5267177,4.1603055,-19.6131992,6.4762826,9.8305416,-98.2061081,33.5038185,-120.5877838
3140,1.7286048,1.5155219,9.7658987,-0.9465649,2.7709923,3.2519083,-19.6131992,6.4930420,12.1529055,-64.3358765,39.1526718,-39.2900772
3150,1.7525467,1.5562232,9.8113880,-1.0610687,3.1450381,1.8778626,-19.6131992,6.3613615,13.8455973,-16.6030540,41.5496178,31.6183205
3160,1.5442522,1.6735384,9.7730818,-0.0458015,1.7633588,0.2900763,-17.2812595,6.3422079,12.5192165,80.6870193,53.8320618,130.5114441
3170,1.5179161,1.7501525,9.6844959,0.5190840,1.2137405,0.1526718,-14.5638542,6.3182659,11.1880474,114.9465637,49.6488533,158.2519073
3180,1.4149660,1.8076130,9.6725254,0.3129771,-0.9465649,-0.4732825,-9.3086090,6.6319046,6.9670911,148.9847260,12.7786255,182.6717529
3190,1.3646880,1.8147956,9.6390066,-0.2671756,-1.2748091,-0.6641222,-6.9742737,6.7755561,4.9320302,148.6106873,-10.9389315,184.1832123
3200,1.4652439,1.7740943,9.6054878,-1.6870229,-0.7099237,-0.3053435,-4.8697815,7.3070664,2.6599445,139.9923706,-35.8167953,183.9236603
3210,1.3886299,1.5610116,9.6653433,-2.8396947,0.0839695,-0.7175573,-3.1651185,7.6781654,1.0558375,127.2595444,-56.4885483,185.0458069
3220,1.4460905,1.5538290,9.7898407,-2.5877862,-0.6259542,-1.0076336,-1.8531027,7.8409705,-0.1436514,114.6335907,-68.4045792,191.5343475
3230,1.4556671,1.5969244,9.8305416,-1.4732825,-0.8244275,-0.4885496,-0.5410868,8.0181408,-1.0534433,106.8854980,-74.2290039,201.5801544
3240,1.4460905,1.4652439,9.8999729,-1.1832061,-0.3358779,-0.8702290,1.4676381,8.1306677,-2.2888451,104.6412201,-71.7557220,215.1145020
3250,1.4341195,1.4604555,9.8927908,-0.3435115,-0.1297710,-0.9541985,4.4053087,7.9175844,-3.4859397,104.5648880,-50.1297722,227.6488495
3260,1.3742647,1.4796091,9.6653433,-0.3664122,0.0076336,-0.3435115,7.7452030,7.7787213,-4.7907729,106.0992355,-13.4122133,230.5496216
3270,1.3527170,1.4724265,9.7323799,-0.2671756,-0.2213740,-0.3587786,11.3245163,7.7452030,-6.5145893,102.6030502,24.2671757,220.5038147
3280,1.3886299,1.4652439,9.6677370,-0.8549618,-0.6412213,0.2977099,14.3675308,8.0133524,-8.1737623,87.7251892,48.9007645,194.0763397
3290,1.3694763,1.4676381,9.7251978,-1.0381680,-0.3664122,0.4503817,17.3195667,8.4419117,-9.6485834,58.1526718,49.3435097,152.2137451
3300,1.4508789,1.5610116,9.7970228,-0.7786260,0.8854962,0.0381679,19.6126022,8.9375095,-11.1521349,-38.2366409,-7.2900763,36.1297722
3310,1.5394639,1.5873476,9.7395630,-0.6564885,0.4274809,-0.4198473,19.6126022,8.7866755,-9.8712435,-91.9160309,-39.3282433,-24.9389305
3320,1.4077834,1.6304430,9.8065996,-0.5114504,0.4961832,-0.7633588,18.2868195,7.7978749,-7.3788919,-130.7938995,-66.3206100,-76.6870193
3330,1.3646880,1.6208663,9.6533718,-0.9389313,0.7938932,-0.8320611,17.1208496,7.2927012,-4.6375451,-151.1755676,-73.6564865,-119.4885483
3340,1.2066715,1.5131277,9.6414013,-1.0763359,0.8015267,-0.3969466,15.5837793,6.8832946,-2.2864509,-157.7786255,-54.9694672,-158.1603088
3350,1.2162483,1.5466464,9.7970228,-1.5648855,0.9160305,0.8015267,13.1560707,6.4738884,-0.4429250,-151.5801544,-25.5419846,-188.3740387
3360,1.2737088,1.5849534,9.7395630,-1.4351145,0.9923664,1.6564885,10.7906122,6.1554613,0.8092360,-137.3053436,-0.6259542,-210.4427490
3370,1.4173602,1.5849534,9.8209648,-1.0152671,1.5343511,2.0534351,8.6837254,5.9663200,1.5538290,-120.3664093,15.0992365,-228.8549652
3380,1.5203103,1.5705882,9.7946291,-0.7633588,2.2061069,1.8625954,6.5816269,5.7436604,1.5298871,-106.3740463,19.8854961,-245.9770966
3390,1.5705882,1.6495966,9.6797075,-0.3511450,2.3282442,0.2748092,2.6599445,5.1211715,0.7661406,-99.7404556,8.7328243,-250.1374054
3400,1.5011568,1.6639616,9.6725254,-0.4122137,2.0076337,-0.2748092,0.2154770,4.7764082,0.8068419,-108.3740463,-3.4656489,-250.1374054
3410,1.4006008,1.5849534,9.7036495,-0.7862595,1.9694656,-0.4503817,-3.4093258,4.6016321,1.4413021,-122.3664093,-20.2748089,-250.1374054
3420,1.3168042,1.6065011,9.6844959,-1.0534351,2.2748091,-0.0992366,-8.0348997,4.7237358,3.0142846,-136.6259613,-24.0763359,-250.1374054
3430,1.3191984,1.6495966,9.8880024,-1.0534351,1.9694656,0.3740458,-14.1544485,5.6646523,6.2943239,-144.5114441,0.0076336,-237.1755676
3440,1.3096216,1.5873476,9.8089943,-0.6946565,1.7328244,0.9465649,-19.6131992,6.3302369,10.5033092,-132.7786255,30.7480907,-167.1145020
3450,1.4580613,1.6902977,9.7467451,-1.0687023,1.0000000,0.7404580,-19.6131992,6.1291251,14.3579540,-95.2977066,45.0381660,-79.4580154
3460,1.4867916,1.7070571,9.6366129,-0.9083970,0.4580153,-0.0839695,-19.6131992,5.8418221,16.7234135,-35.0458031,40.0534363,2.5648854
3470,1.4748207,1.7309990,9.6701307,-0.9618320,0.1984733,-0.5496183,-19.6131992,5.6167684,16.6970768,35.4885483,38.1832047,70.3969498
3480,1.4556671,1.6184721,9.7299862,-1.5038168,0.3664122,-1.1832061,-18.7058029,5.8083038,14.6380739,98.6641235,56.9083977,122.1526718
3490,1.3191984,1.5586174,9.7611103,-1.8778626,1.0000000,-1.3053435,-15.5335016,5.8729467,12.1145983,143.4656525,73.5267181,159.6870270
3500,1.3168042,1.5658000,9.6964674,-2.1984732,0.9389313,-0.8091603,-12.9358053,6.1363077,9.6485834,169.6259613,71.1908417,186.1832123
3510,1.3191984,1.5394639,9.8305416,-1.7786260,0.4198473,-0.6717557,-9.9287033,6.5145893,6.8090749,180.2366486,49.3511467,201.1221313
3520,1.2066715,1.4843974,9.7706871,-1.1832061,0.4351145,-0.0687023,-7.0628591,6.8473821,4.4196739,177.7709961,18.7251911,206.7404633
3530,1.3598996,1.4221486,9.8473015,-0.8091603,0.4656489,1.2595420,-2.0949159,7.6590118,0.1723816,148.8320618,-29.7175579,205.2137451
3540,1.3263810,1.4915800,9.7826586,-0.6412213,0.2366412,0.9847328,-0.1891410,7.8433647,-1.3000449,130.5648804,-42.4580154,204.9313049
3550,1.3575054,1.5322813,9.7228031,-0.2595420,-0.2977099,0.4122137,1.6232605,7.7523856,-2.5617826,115.6106873,-49.9847336,206.2519073
3560,1.4460905,1.5155219,9.6964674,-0.4427481,-0.5877863,0.3664122,3.9192882,7.5081782,-3.6319854,106.5190811,-44.3740463,207.8854980
3570,1.3670821,1.5634058,9.6868906,-0.8549618,-0.9694657,0.0000000,6.5648675,7.6590118,-4.7428894,102.5954208,-27.4198475,205.6641235
3580,1.3598996,1.5538290,9.7275915,-1.1603054,-0.8091603,-0.2748092,9.7036495,7.7260494,-6.3829093,94.8396912,-7.2748094,194.2748108
3590,1.3910241,1.5418580,9.7730818,-1.1526718,-0.5725191,-0.3053435,13.1967726,8.0612354,-8.0348997,76.8549652,7.9160304,166.9923706
3600,1.3455344,1.5131277,9.7658987,-1.1984733,-1.0381680,-0.1603053,16.2206345,8.6430235,-9.5552101,45.2213745,10.0916033,125.3206100
3610,1.3431402,1.5322813,9.9071560,-0.2366412,-1.1068702,0.0839695,17.7648849,9.2200232,-9.2319946,-42.1450386,-36.8015251,21.5496178
3620,1.4293311,1.4772149,9.8281479,0.1297710,-0.3664122,0.1832061,17.5278606,8.8225880,-7.8409705,-81.8320618,-63.7175560,-29.5419846
3630,1.3862357,1.5250987,9.7874460,-0.0152672,-0.3053435,0.1984733,16.8455162,8.6118994,-5.6981707,-109.4580154,-76.3053436,-76.0763321
3640,1.3024391,1.5394639,9.6773138,-0.2137405,-0.7022901,0.4580153,15.4449158,8.1043310,-3.5984666,-124.8091583,-73.9312973,-116.5572510
3650,1.3024391,1.5370697,9.6892843,-0.3358779,-0.8396947,0.5496183,13.9365768,7.6805596,-1.8435259,-130.4809113,-60.0534363,-152.9389343
3660,1.3359578,1.5610116,9.7922344,-0.9007633,-0.8320611,0.7709923,11.9805241,7.3166428,-0.2513899,-129.1832123,-42.9007645,-184.5648804
3670,1.2880739,1.6208663,9.8185711,-0.9007633,-1.0687023,1.1603054,9.6988611,6.9575148,0.7829000,-123.2442780,-31.3740463,-212.0381622
3680,1.3551112,1.6232605,9.8281479,-0.5419847,-1.0610687,1.1297710,7.3884687,6.5744443,1.2114599,-117.0610657,-30.7557259,-234.4198456
3690,1.3287752,1.5514348,9.8305416,0.0534351,-1.2061069,1.4274809,4.9248476,6.2296810,1.2354017,-114.2290039,-38.0458031,-250.1374054
3700,1.3191984,1.6807210,9.8161764,0.3435115,-0.9389313,1.8167939,2.5785420,5.9806852,1.4341195,-117.2213745,-49.1679382,-250.1374054
3710,1.3646880,1.5993185,9.7730818,0.3358779,-1.5343511,1.7938931,-0.5530578,5.6119800,1.9512644,-124.0229034,-60.5954208,-250.1374054
3720,1.4317253,1.6855093,9.6294298,0.0305344,-1.5648855,1.6183206,-3.8666160,5.4826937,2.9328821,-131.0229034,-59.0228996,-250.1374054
3730,1.4867916,1.6687500,9.7228031,-0.3893130,-1.2213740,1.1450381,-8.7459745,5.7891502,4.6830344,-132.7709961,-34.8244286,-246.5267181
3740,1.5490406,1.6376256,9.7275915,-0.5267175,-1.0839695,0.7862595,-15.1911325,6.5481081,8.1929159,-121.5496216,0.5725191,-195.3129730
3750,1.5083394,1.6232605,9.7299862,-0.8854962,-1.5801526,0.2900763,-19.6131992,6.9239960,11.6381550,-92.1603088,26.9923668,-119.7251892
3760,1.5155219,1.6184721,9.7539282,-0.7328244,-1.1755725,-0.1679389,-19.6131992,6.7731619,14.1448717,-44.2519073,34.5190849,-36.8549614
3770,1.3958124,1.5729824,9.7467451,-0.5267175,-1.1603054,-0.1984733,-19.6131992,6.5935979,14.7098999,14.0229006,33.5496178,35.7862587
3780,1.3431402,1.5729824,9.8616667,-0.2442748,-0.9923664,-0.0916031,-18.6579189,6.8569584,13.5343533,73.7404556,44.2442741,95.0687027
3790,1.2737088,1.5849534,9.7467451,0.0229008,-0.8931298,-0.1297710,-15.4425220,6.8689294,11.2933912,120.3435135,64.9389343,140.8549652
3800,1.3886299,1.5634058,9.6773138,-0.3282443,-0.3511450,0.0381679,-12.7370882,7.0173693,9.3540983,152.8396912,75.0457993,174.2977142
3810,1.4532729,1.5801650,9.8042059,-0.5267175,-0.3587786,0.1603053,-4.5465660,8.1474266,1.9632354,174.8778687,28.5267181,210.5267181
3820,1.4389079,1.6065011,9.7754755,-0.4198473,-0.6106870,0.2671756,-2.2864509,8.6526003,-0.3830703,160.6870270,12.7328243,214.5496216
3830,1.4389079,1.6088953,9.7395630,-0.6412213,0.1297710,0.4274809,-0.2801202,8.7483683,-2.5929072,140.4885559,-2.3129771,217.3893127
3840,1.4413021,1.5490406,9.6868906,-1.4122137,1.2366412,0.6641222,1.9416877,8.7651272,-4.0653338,117.7022934,-10.5419846,217.1450348
3850,1.5322813,1.5993185,9.7706871,-0.5954198,0.9083970,-0.0916031,7.3525558,8.5496502,-5.6646523,73.4961853,-28.5343513,198.6335907
3860,1.4915800,1.5969244,9.7635050,-0.7786260,0.8244275,-0.6412213,10.6924505,8.6885138,-6.9263902,52.3740463,-30.3587780,174.6259613
3870,1.3742647,1.6448082,9.6557665,-1.1832061,1.4809160,-0.8244275,13.5319586,8.6933022,-7.9678626,26.6030540,-25.0458012,136.6412201
3880,1.3335636,1.6088953,9.6916790,-1.3816794,1.2137405,-0.9770992,15.6316633,8.9399033,-8.6789370,-4.8778625,-24.8396950,91.0839691
3890,1.2162483,1.5322813,9.6533718,-1.3816794,0.4732825,-0.4122137,16.1272602,9.0691900,-8.5807753,-42.4122124,-30.7175579,41.1221390
3900,1.2545552,1.5059452,9.7491398,-1.3893130,0.4122137,0.3358779,15.6149035,9.1027079,-7.1969333,-78.3893127,-41.8931313,-5.9847326
3910,1.2880739,1.5610116,9.8903971,-1.1068702,0.9083970,1.1374046,14.9086180,8.5376797,-5.2432747,-104.1221390,-55.6946564,-46.1297722
3920,1.3814473,1.5538290,9.7658987,-0.8854962,1.6564885,1.3511450,14.0754395,8.0301113,-3.4308734,-120.0687027,-61.7709923,-82.7557220
3930,1.4101776,1.6783268,9.8185711,-0.5267175,1.1984733,1.2595420,13.1297350,7.6685886,-1.6902977,-127.0916061,-55.2748108,-115.8473282
3940,1.4963684,1.6735384,9.7108326,-0.2671756,0.9007633,0.5114504,11.6213961,7.4076223,-0.3878587,-125.6412201,-39.2442741,-143.9847260
3950,1.5155219,1.6735384,9.6390066,-0.7175573,0.7557252,-0.0763359,9.5743637,7.0030041,0.7469871,-118.4198456,-24.1221371,-168.0229034
3960,1.4556671,1.5921360,9.6892843,-1.6335878,1.0839695,-0.5190840,7.7164726,6.7157016,1.1851238,-109.7022934,-15.3664122,-187.2595367
3970,1.4700323,1.5969244,9.6366129,-2.3969467,0.5572519,-0.7251908,5.9782910,6.5672617,1.3215926,-102.6870193,-15.1221371,-205.7480927
3980,1.3598996,1.5274929,9.7682934,-2.1603053,-0.3053435,-1.2595420,3.7708483,6.4451580,1.4221486,-99.6717529,-18.3206100,-219.6412201
3990,1.4029950,1.5059452,9.8616667,-1.8167939,-1.3740458,-1.3206106,1.5705882,6.4547348,1.4293311,-101.1603088,-23.8320618,-227.5954132
4000,1.2904681,1.4508789,9.8425131,-0.8015267,-1.7480916,-1.0076336,-1.0845678,6.2320752,1.8052188,-105.7404556,-29.0763359,-228.4351196
4010,1.2162483,1.3862357,9.9981356,-0.0229008,-1.7022901,-0.8549618,-4.2089849,6.3158717,2.5857246,-110.6641235,-30.0305347,-218.9465637
4020,1.2832855,1.4724265,9.6725254,0.4198473,-1.7022901,-0.4351145,-7.8840661,6.4738884,4.0270267,-111.9160309,-23.0152664,-196.5725250
4030,1.3551112,1.4604555,9.7515335,-0.1832061,-2.2366412,-0.3282443,-11.9422169,6.9407554,6.0716643,-105.8778610,-7.1984735,-155.4122162
4040,1.2904681,1.5035510,9.7228031,0.0000000,-2.6564887,-0.5038168,-15.6867294,7.5009956,8.9518747,-89.1755753,14.9083967,-96.9847336
4050,1.2761030,1.5083394,9.6964674,0.1984733,-2.9236641,0.0458015,-17.5709572,7.5440907,11.2742386,-58.1984749,33.7099228,-32.0000000
4060,1.3024391,1.5250987,9.8257532,0.2595420,-3.0534351,0.2137405,-17.5326500,7.5369086,12.7011747,-15.8320608,43.1145020,29.1526718
4070,1.3144100,1.6256547,9.7922344,0.5954198,-2.7404580,1.2213740,-13.3907013,7.5656385,12.0595322,78.5267181,62.3053436,114.1832047
4080,1.2784972,1.7381816,9.7754755,0.8931298,-2.5190840,1.4885496,-11.1281929,7.7739329,10.1848822,112.7557220,67.1755753,138.2366486
4090,1.4006008,1.6495966,9.6102762,-0.3358779,-1.5190840,2.0839694,-7.1298962,8.0061693,6.2416520,144.9694672,37.9541969,164.8167877
4100,1.4221486,1.6232605,9.7802639,-1.0839695,2.1832061,2.3816793,-0.8810617,8.7244263,0.0670373,117.3969498,-34.2366409,179.3740387
4110,1.5298871,1.5514348,9.8353300,-1.0839695,1.7099236,2.5648854,0.7062859,8.8752604,-0.8666966,107.1374054,-49.0228996,185.3053436
4120,1.6136837,1.6591733,9.7323799,0.0076336,2.5954199,1.8396946,5.0828643,8.5616217,-2.7293761,94.1374054,-52.2137413,191.8244324
4130,1.6376256,1.7884595,9.6437950,-1.9541985,2.7175572,0.1908397,12.0619268,8.0923605,-5.9064655,86.6106873,-11.1755724,159.8854980
4140,1.6352314,1.7597293,9.5528164,-2.4427481,2.0076337,-1.0229008,14.8008795,8.3365679,-8.3293848,69.3511429,11.8854961,123.0687027
4150,1.4508789,1.5610116,9.8401184,-2.8091602,0.0916031,-3.6412213,16.3762550,9.0739784,-10.3812056,-11.4656487,9.9007635,27.5496178
4160,1.3072275,1.4939742,9.9047613,-2.6183207,-0.7557252,-3.8549619,15.9022064,8.7220325,-9.2152348,-62.1832047,-17.9618320,-20.6488552
4170,1.1204807,1.3191984,9.8736372,-1.6946565,-1.4503816,-3.1832061,15.0833931,8.2886839,-7.0748301,-101.5190811,-48.0534363,-65.3206100
4180,1.0223188,1.3191984,9.9382801,-0.4961832,-2.0763359,-1.9160305,14.0874109,7.9606800,-4.7237358,-125.0687027,-65.4274826,-103.3511429
4190,0.9217629,1.3431402,9.8640604,0.4045801,-3.1832061,-0.2977099,13.1201582,7.5033898,-2.8586621,-136.9160309,-63.3435097,-137.3206177
4200,1.0654143,1.3575054,9.7275915,-0.0381679,-4.3664122,1.4045801,11.7004042,7.0053983,-1.1779412,-138.8549652,-45.6106873,-166.5343475
4210,1.2904681,1.4365137,9.7371683,0.1526718,-5.2748094,1.1755725,9.6318245,6.6797886,0.3375807,-132.3053436,-24.4656487,-192.0381622
4220,1.3000449,1.4628497,9.9023676,1.1984733,-5.6335878,1.5419847,7.5871863,6.4260044,0.8283895,-122.4656525,-11.3511448,-212.1679382
4230,1.4341195,1.5490406,9.7946291,1.6106870,-5.3358779,1.4656489,5.6167684,6.1003947,1.0893562,-115.7480927,-4.4503818,-228.8549652
4240,1.4891858,1.6424140,9.7204094,0.8244275,-3.6183207,1.3969465,-0.5339043,5.8059096,1.9345051,-114.3816757,10.1679392,-248.7175598
4250,1.5107336,1.6807210,9.6581602,0.6259542,-3.5725191,1.2442749,-5.2217274,5.8609757,3.2058196,-114.9770966,25.0534344,-240.1297760
4260,1.6065011,1.7166338,9.7108326,0.2290076,-3.0839694,1.1374046,-10.8672256,6.5816269,5.3653784,-110.1984711,39.8167953,-210.2748108
4270,1.5562232,1.6400198,9.6629486,-0.5419847,-2.0076337,0.6412213,-16.4025917,7.2855186,7.9534974,-97.4198456,36.1526718,-157.9465637
4280,1.3862357,1.5825592,9.7467451,-0.8015267,-0.0992366,0.9389313,-19.6131992,7.6254935,12.0236197,-42.9465637,-4.2366414,-24.5572510
4290,1.5155219,1.6184721,9.6964674,0.5572519,-1.9312977,-0.3358779,-8.1617918,6.6486640,1.3670821,-55.8396950,137.0915985,-192.3664093
4300,1.4772149,1.6256547,9.6677370,0.0381679,-2.1908398,0.0076336,-11.8727856,7.1586266,1.6807210,-62.5267181,136.8854980,-160.2061005
4310,1.4221486,1.6112895,9.6270361,-0.6564885,-2.5419848,0.6183206,-15.2270451,7.5584559,3.1914546,-74.4580154,132.6488495,-117.2290039
4320,1.4628497,1.5442522,9.6437950,-0.9847328,-2.7862597,0.9312977,-17.8127689,7.9582858,6.1315193,-79.4351120,121.0687027,-70.4274826
4330,1.4413021,1.5945302,9.7635050,-1.1603054,-2.7633588,1.0610687,-19.5820751,8.1115141,9.5001440,-70.7709961,104.1526718,-21.5038166
4340,1.4006008,1.5107336,9.8089943,-0.9847328,-2.6106870,1.2290076,-19.6131992,7.9415264,12.2797976,-46.2748108,83.3969498,25.3511448
4350,1.3598996,1.4700323,9.8233595,-0.7938932,-2.5343511,1.8702290,-19.3235035,7.3429790,13.9222116,-10.0687027,58.4274826,67.4656525
4360,1.3622938,1.4748207,9.7730818,-0.4732825,-1.5572519,2.5572519,-17.3794212,6.8641410,14.2693691,32.0916023,37.9771004,102.6412201
4370,1.3359578,1.4580613,9.7898407,-0.0305344,-0.5801527,3.7786260,-14.8224268,6.5313487,13.3883076,72.8854980,29.7251911,128.9236603
4380,1.4341195,1.4772149,9.7706871,0.0152672,-0.5038168,4.0534353,-12.2438850,6.0716643,11.6740675,106.0763321,25.2900772,147.1984711
4390,1.5274929,1.6088953,9.7036495,0.0152672,-0.5343512,4.3969464,-10.8839855,5.8202744,9.7084379,131.5496216,17.0229015,159.3435059
4400,1.6448082,1.6663558,9.7443514,0.2061069,-0.4351145,4.1374044,-9.4283180,5.8849177,7.5177550,146.8473358,3.7480917,169.3129730
4410,1.6759326,1.7190280,9.7491398,0.2977099,-1.2748091,3.6106870,-7.7260494,5.9495606,5.4372044,152.1755676,-10.3435116,178.9541931
4420,1.6831152,1.8387375,9.7156210,0.5190840,-1.5114504,3.2137403,-5.8968887,6.0477223,3.4428444,148.8167877,-23.4809170,186.6488495
4430,1.7717001,1.8459201,9.5719690,-0.1068702,-1.7328244,2.8244274,-4.0940638,6.3254485,1.4867916,140.5343475,-34.8091621,192.9465637
4440,1.7405758,1.9608412,9.5791521,-0.4122137,-1.8931298,1.9618320,-2.7461352,6.4882536,0.2537841,130.9007568,-39.7557259,201.6488495
4450,1.8818330,1.8171898,9.5671806,-0.7022901,-2.3053436,1.0000000,-1.3000449,6.8545642,-0.8666966,124.9160309,-44.6030540,214.4351196
4460,1.7836711,1.9776005,9.6557665,-0.8396947,-2.1145039,-0.0152672,0.7206510,6.8976598,-2.2337787,123.3587799,-43.1908379,231.1221313
4470,1.7597293,1.7573351,9.4929609,-2.8320611,-0.6564885,-0.3816794,3.4979107,6.8904772,-4.0102673,122.8549652,-24.2824421,246.4961853
4480,1.6998745,1.7836711,9.5887289,-4.7557254,-0.3435115,-1.5725191,7.1801744,6.4355812,-6.1458845,121.2900772,8.5114508,250.1297760
4490,1.6543850,1.5801650,9.6797075,-5.0229006,-0.4351145,-1.8778626,10.9677820,6.5888095,-8.1258793,112.6488571,40.1145020,248.5954132
4500,1.5035510,1.3598996,9.8520899,-4.8167939,-0.3206107,-2.3511450,14.5566721,6.9623032,-9.9526453,90.0229034,51.2900772,224.6030579
4510,1.4125718,1.3359578,9.8880024,-4.0305343,-0.4809160,-1.8549619,17.5589848,7.3836803,-11.0970678,52.7786255,39.8473282,184.1068726
4520,1.3144100,1.2473727,9.9622221,-3.0992367,-0.5114504,-0.8854962,19.6126022,8.0540533,-11.8368731,2.9694657,7.9465647,128.7022858
4530,1.2713146,1.2425843,9.9670105,-1.9694656,-0.4274809,0.5419847,19.6126022,8.3868456,-11.3987360,-53.8091621,-33.5038185,64.6030502
4540,1.3455344,1.2617378,9.7946291,-1.2213740,-0.6412213,1.7480916,19.6126022,8.2767134,-9.8927908,-106.2824402,-64.7328262,1.7709924
4550,1.4796091,1.3886299,9.7754755,-1.0381680,-0.8244275,2.3587787,19.6126022,7.9175844,-6.9287844,-143.4961853,-75.7404556,-54.5267181
4560,1.6041069,1.3910241,9.8185711,-1.4809160,-0.6183206,2.2366412,19.5605278,7.3334022,-3.6607156,-159.0305328,-68.1755753,-102.6793900
4570,1.6304430,1.4700323,9.7706871,-0.8167939,-2.0687022,1.1068702,17.9588146,7.0053983,-1.3694763,-157.3358765,-43.4351158,-143.4580078
4580,1.5969244,1.5131277,9.7898407,-0.1526718,-2.7328243,1.2595420,15.2270451,6.8641410,0.7661406,-144.4732819,-5.3206105,-176.1832123
4590,1.6184721,1.4820032,9.7850523,-0.7251908,-2.7175572,0.6717557,12.7275114,6.5840211,1.8818330,-124.3053436,31.8778629,-201.0763397
4600,1.5203103,1.5131277,9.8784256,-0.6106870,-2.4045801,0.7633588,10.5176744,6.1530671,2.2816625,-102.2900772,59.0687027,-220.7022858
4610,1.5250987,1.5011568,9.7778702,-0.1984733,-2.2137403,1.2442749,8.2288294,5.7460546,2.4253139,-82.4503784,73.1679382,-241.6259613
4620,1.7693061,1.6879035,9.6150646,-0.4351145,-0.4351145,0.4351145,-4.5465660,4.8242917,1.1755470,-68.2824402,49.0839691,-250.1374054
4630,1.6902977,1.6950861,9.5983057,-0.8702290,0.0534351,-0.3816794,-9.8975792,5.3845320,1.9392935,-78.2595444,37.0992355,-249.9084015
4640,1.6352314,1.5969244,9.6749191,-1.2900764,0.5038168,-0.8320611,-15.3371773,6.2320752,3.3758070,-86.0381699,27.1679382,-202.4961853
4650,1.5083394,1.5083394,9.8042059,-1.4503816,0.4809160,-0.8244275,-19.6131992,6.9000540,5.5760674,-86.0534363,18.0458012,-133.9541931
4660,1.4365137,1.4436963,9.8065996,-1.0610687,0.3129771,-0.0839695,-19.6131992,7.2089043,7.7667508,-74.3053436,15.2900763,-57.9007645
4670,1.5394639,1.4652439,9.8401184,-0.9770992,0.3282443,1.7328244,-17.5158901,7.5033898,11.0443964,-14.3664122,28.0763359,66.4427490
4680,1.5586174,1.4843974,9.6533718,-0.7786260,-0.0610687,1.9083970,-14.6452570,7.5153608,11.0204544,25.7404575,36.3740463,105.7251892
4690,1.6543850,1.5035510,9.7299862,-0.9541985,-0.1832061,1.6793894,-12.1409349,7.4746594,10.2136126,63.0228996,37.1832047,133.0763397
4700,1.5777708,1.6639616,9.6485834,-0.1603053,-0.4732825,1.5572519,-2.8275378,8.6573887,1.8722562,107.8167953,-0.8015267,161.4274750
4710,1.6591733,1.6591733,9.7778702,-0.0381679,-0.7022901,1.3816794,0.0861908,8.9207497,-0.7326220,75.5801544,-28.2442741,158.7480927
4720,1.6543850,1.5322813,9.6581602,-2.1679389,-0.3282443,-1.5038168,12.3588057,8.8944139,-4.7141590,27.9389305,-34.3740463,116.7786255
4730,1.5897418,1.4867916,9.8137827,-2.5114503,-0.3129771,-1.6412214,14.8224268,9.0835552,-5.6718349,12.9541988,-27.6183205,81.6717529
4740,1.4652439,1.3287752,9.8425131,-2.2442749,-0.4656489,-1.4809160,16.2589397,9.3277617,-6.2967181,-10.2442751,-26.4885502,39.3206100
4750,1.4700323,1.2856797,9.9382801,-1.5572519,-0.8244275,-0.8320611,16.4432926,9.5049324,-5.8729467,-39.4885483,-29.4885502,-5.5801525
4760,1.4652439,1.2713146,9.8329363,-0.8778626,-1.0458015,0.0305344,15.9357252,9.2822723,-4.3502421,-65.6183243,-35.6793900,-46.2061081
4770,1.4221486,1.2856797,9.7084379,-0.6335878,-1.3740458,0.8320611,15.3276005,8.8082228,-2.8826041,-82.6106873,-41.9236641,-84.9083939
4780,1.4724265,1.4101776,9.7730818,-0.7938932,-1.5725191,1.7557251,14.3459835,8.2024927,-1.2306134,-90.1068726,-36.3664131,-120.5877838
4790,1.6232605,1.4221486,9.7515335,-1.2061069,-2.0916030,1.6946565,12.8591919,7.8481531,-0.0071826,-90.3511429,-19.4656487,-149.5801544
4800,1.6088953,1.4796091,9.8018112,0.1297710,-3.0458016,1.1068702,10.9677820,7.4459291,1.2330076,-85.0000000,-2.1908398,-176.1603088
4810,1.6615674,1.5825592,9.6725254,0.3435115,-5.3206105,0.5572519,-1.9153515,5.5856438,1.9608412,-66.5648880,-7.8320613,-250.1374054
4820,1.6926919,1.5466464,9.6868906,0.4198473,-5.5801525,0.0763359,-4.8721757,5.6598639,2.4396791,-72.1374054,-13.8244276,-248.5954132
4830,1.6926919,1.6855093,9.7323799,0.3053435,-5.1908398,0.2137405,-7.6949248,6.0046272,3.3566537,-75.6564865,-13.7251911,-228.0534363
4840,1.6519908,1.5562232,9.7970228,0.1679389,-4.5572519,0.2366412,-10.8408899,6.5959921,4.7237358,-74.5954208,-4.2595420,-194.9389343
4850,1.6041069,1.5418580,9.7156210,0.3129771,-3.8778627,0.4045801,-13.0100250,6.8234401,6.2009506,-65.2977066,8.0305347,-153.6183167
4860,1.5562232,1.5059452,9.6988611,0.5496183,-4.0610685,0.7022901,-14.2573986,7.0006099,7.4986014,-46.8549614,16.3664131,-110.4122162
4870,1.5753766,1.5227045,9.7826586,0.4274809,-3.7480917,1.2213740,-14.6620159,7.2112985,8.1378498,-21.9847336,20.8778629,-68.9847336
4880,1.6400198,1.4700323,9.6342182,0.2366412,-3.5954199,1.4885496,-14.3076763,7.4267755,8.1570034,4.3206105,22.1755733,-31.1679382
4890,1.5203103,1.5059452,9.6749191,0.0916031,-3.4198472,2.3740458,-13.0363617,7.7595682,7.3477674,26.0763359,24.4427490,0.0839695
4900,1.6567791,1.5274929,9.8018112,0.1603053,-2.6717558,3.0763359,-11.3795824,7.7523856,6.6319046,40.5343513,26.1145039,24.7709923
4910,1.6950861,1.4939742,9.6246414,0.4274809,-2.2595420,3.4045801,-9.7826586,7.9199786,6.0046272,50.1068687,21.6488552,41.4198456
4920,1.7166338,1.5562232,9.7611103,0.4045801,-2.1297710,3.3129771,-8.3054428,8.1474266,5.4611464,56.8015251,10.1603050,50.0839691
4930,1.7956421,1.5322813,9.7922344,0.1908397,-1.9541985,3.0916030,-6.6175399,8.3820572,4.7404952,59.7099228,-4.6030536,52.4274826
4940,1.8243724,1.6160779,9.7204094,0.4809160,-2.2366412,2.7404580,-5.1475072,8.4921904,4.1060348,57.9694672,-16.2290077,51.5343513
4950,1.8339491,1.6400198,9.6701307,0.5190840,-2.7709923,2.1908398,-4.1299767,8.7818871,3.4189026,54.0534363,-24.2595425,48.2824440
4960,1.7836711,1.7286048,9.7132263,0.5877863,-3.3740458,2.1755726,-3.5218527,8.8752604,3.2321558,50.3511467,-30.7175579,46.6488533
4970,1.6926919,1.6304430,9.6821022,0.3206107,-3.3664122,2.2977099,-2.6743097,9.1122847,2.9711890,49.4885483,-36.1145020,45.0228996
4980,1.8674678,1.6879035,9.6916790,0.0687023,-3.0305343,1.8931298,-2.1116750,9.4594421,2.8107784,50.7480927,-36.8702278,45.0992355
4990,1.8052188,1.8004304,9.6725254,-0.3740458,-2.6641221,1.5419847,-0.6584021,10.3740225,1.7525467,59.5648842,-13.7633591,54.2671738
5000,1.7717001,1.6615674,9.6653433,-0.4732825,-2.6030533,0.8778626,0.2729376,10.6924505,0.2561783,60.0763359,7.0305343,57.8015251
5010,1.9440818,1.7788827,9.5456333,-1.8854961,1.0229008,1.1374046,0.9265513,10.7092094,-0.4189832,50.0687027,15.1755724,52.7786255
5020,1.8698620,1.8124014,9.6844959,-1.8091604,2.0534351,0.5496183,1.2808913,10.7307568,-0.9983770,43.2977104,14.8549614,46.9771004
5030,1.9560528,1.7357874,9.6509781,-1.6183206,2.5801528,0.4351145,1.3598996,10.8720140,-1.8554969,34.0152664,17.0687027,39.8320618
5040,2.0326669,1.6639616,9.6246414,-2.4427481,3.0229008,-0.8015267,1.2569494,10.6134415,-2.0853391,8.6183205,10.1374044,25.0152664
5050,1.9105632,1.4556671,9.6342182,-3.6183207,3.7709923,-1.7022901,1.4245427,10.4338779,-1.4628497,-13.3664122,-19.2061062,5.7938933
5060,1.9105632,1.3168042,9.7778702,-3.4274809,3.7022901,-2.5496182,1.5035510,10.3285332,-1.1037214,-22.2442741,-28.1526718,-3.6717558
5070,1.8411317,1.3120158,9.7371683,-3.3358779,3.0763359,-3.0839694,1.2737088,10.2686787,-0.7062859,-28.9160309,-31.1297703,-11.2748089
5080,1.7214222,1.2545552,9.7347746,-2.8396947,2.1450381,-3.1679389,0.9193687,10.0986910,0.1556223,-31.8015270,-33.4656487,-16.1145039
5090,1.6136837,1.2258250,9.8544836,-2.4351146,0.2137405,-2.5343511,0.8643024,9.9837704,0.6248835,-31.6412220,-35.4885483,-21.0839691
5100,1.5993185,1.1683644,9.8927908,-2.0381680,-1.0687023,-1.6412214,0.9480990,9.9095497,0.8834559,-29.8244267,-31.9923668,-25.0916023
5110,1.5634058,1.2042773,9.9454632,-0.8931298,-1.9770992,-1.2519084,0.8283895,9.6868906,0.9169745,-27.3358784,-25.3587780,-28.8549614
5120,1.5155219,1.3742647,9.7563219,-0.9618320,-2.0916030,-0.5877863,0.5602403,9.6222477,1.1180865,-24.6030540,-18.6946564,-32.3587799
5130,1.5370697,1.2976507,9.7874460,-0.4885496,-3.0152671,-0.9083970,0.3830703,9.4618368,1.0103480,-22.3893127,-15.3969469,-35.4732819
5140,1.4867916,1.4317253,9.8185711,0.5267175,-5.0534353,1.3282443,-0.3399749,9.3445215,0.9816177,-22.3129768,-13.3511448,-39.3511467
5150,1.4939742,1.5681942,9.7467451,0.5572519,-5.3511453,2.4122138,-0.5985473,9.2726955,0.9217629,-23.8244267,-16.2900772,-40.8854980
5160,1.6232605,1.4867916,9.6940727,0.9083970,-5.4961834,3.3053436,-0.9073978,9.2631187,1.0462608,-26.7404575,-17.3664131,-42.2061081
5170,1.6855093,1.5969244,9.6773138,1.4274809,-4.9847326,3.4122138,-1.1707586,9.1410151,1.3072275,-28.2213745,-17.1374054,-42.0076332
5180,1.8195840,1.6639616,9.6414013,1.4274809,-4.3511453,3.7938931,-1.6041069,9.2272062,1.4173602,-28.8015270,-14.9465647,-40.7480927
5190,1.8411317,1.7262106,9.5767574,0.8396947,-3.8244274,3.6488550,-1.9776005,9.2272062,1.3910241,-28.6259537,-12.6030531,-38.5725174
5200,1.9225341,1.7190280,9.5671806,0.0381679,-3.5954199,3.0152671,-2.3103929,9.2248116,1.6472024,-28.8167934,-10.5954199,-34.5343513
5210,1.8650736,1.6543850,9.6414013,-0.2442748,-2.3206108,2.4580152,-2.4875629,9.2415714,1.6998745,-28.9389305,-9.0916033,-30.9465656
5220,1.8938038,1.6448082,9.6653433,-0.4885496,-1.4427481,1.9160305,-2.7676830,9.2463598,1.9704180,-29.4580154,-6.6564884,-26.3969460
5230,1.8291607,1.5897418,9.6509781,-1.0305344,-0.8015267,2.0229008,-2.6910689,9.2391768,2.1212518,-28.1984730,-4.1068702,-22.5267181
5240,1.9249283,1.5705882,9.6988611,-1.2290076,-0.5801527,1.7175573,-2.8634505,9.2463598,2.3726418,-26.6946564,-3.1145039,-18.4503822
5250,1.8219782,1.6280488,9.8042059,-0.7786260,-1.0610687,1.6641221,-2.6958573,9.3612804,2.5115047,-25.0610695,-2.9694657,-14.7251911
5260,1.8626794,1.5825592,9.7204094,-0.0458015,-1.0839695,2.1145039,-2.4301023,9.4043760,2.6000898,-23.4503822,-3.6793892,-12.9541988
5270,1.8770446,1.8842272,9.5863342,-0.2748092,-1.4198474,1.7099236,1.0558375,9.3062143,2.4181314,-24.1221371,-39.1297722,-34.3053436
5280,1.7477583,2.1356170,9.5288744,-0.4427481,-0.8854962,1.8015267,2.3151813,9.2703018,1.8722562,-30.9312973,-57.7938919,-57.5648842
5290,1.9632354,1.9871773,9.4307127,-2.0458016,-0.2442748,2.0839694,2.4253139,9.2032642,1.8578910,-39.9083977,-67.8320618,-82.7786255
5300,2.0781565,2.0973101,9.5552101,-3.1679389,0.4198473,0.6183206,1.6783268,8.8632889,1.7764885,-47.9465637,-74.7786255,-104.2366409
5310,1.9799947,2.0063307,9.6461897,-3.3206108,0.5419847,-1.0534351,0.5434810,8.5185261,2.0254843,-56.4351158,-82.9465637,-118.9770966
5320,2.0015423,1.8554969,9.6246414,-2.9770992,1.0152671,-2.5419848,-1.3407460,8.0588417,2.4947455,-65.0839691,-81.3511429,-126.4809189
5330,2.0230901,1.7166338,9.6222477,-3.9694657,3.3740458,-3.3816793,-5.6766233,7.6997132,3.5601597,-72.5725174,-50.2824440,-116.0229034
5340,1.9033806,1.5083394,9.7084379,-4.9389315,5.2671757,-3.4732823,-11.7387114,7.8050575,5.7891502,-73.0916061,4.9847326,-78.6717529
5350,1.8291607,1.4652439,9.7204094,-4.8473282,5.3969464,-2.9847329,-17.8007984,7.8074517,8.6813307,-61.5343513,66.6870193,-11.9465647
5360,1.8411317,1.4029950,9.7467451,-4.4427481,4.9312978,-2.9770992,-19.6131992,7.1921453,11.7506819,-32.9083977,100.1145020,70.9389343
5370,1.8243724,1.3575054,9.8305416,-4.3358779,4.5343513,-2.8549619,-19.6131992,5.5473371,13.5798426,9.6412210,97.3587799,148.3893127
5380,1.8698620,1.2258250,9.8137827,-3.9312978,4.1145039,-2.3511450,-15.7370071,4.8673873,13.7594070,57.2824440,79.0152664,198.0458069
5390,1.8531027,1.1731528,9.9023676,-3.6183207,2.7862597,-1.8015267,-11.5112629,5.2408805,12.7179346,99.7862625,80.0305328,222.6793823
5400,1.9273225,1.2569494,9.8065996,-2.8854961,2.0076337,-2.5954199,-9.0644016,5.4611464,11.1473465,131.0305328,83.7633591,237.3511505
5410,1.9033806,1.1851238,9.7132263,-2.2824428,1.6259542,-3.0076337,-6.8378053,5.8537931,9.3421268,152.0610657,78.5343475,245.7022858
5420,1.7262106,1.1228749,9.7323799,-1.8320611,0.1832061,-3.4351146,-4.7404952,6.6295104,6.5696559,164.5648804,64.0534363,247.0686951
5430,1.7597293,1.0702027,9.8209648,-1.7099236,-1.1221374,-3.0687022,-3.0071020,6.9599090,3.2513094,166.4961853,49.8931313,245.8015289
5440,1.6567791,1.1420283,9.7587166,-2.2137403,-2.1068702,-3.3282442,-0.8020535,7.2304521,0.0430954,156.4427490,39.1755714,243.2824402
5450,1.6519908,1.1300575,9.8233595,-2.1450381,-1.5496184,-2.7175572,1.4317253,7.7763271,-2.5498118,136.4503784,41.5877876,239.6259613
5460,1.6041069,1.2737088,9.8951855,-2.1374047,-0.7862595,-0.7938932,3.1435707,8.4203644,-4.3861551,112.9083939,49.1526718,235.0763397
5470,1.7142396,1.3191984,9.8353300,-2.1297710,-0.6259542,-0.0839695,5.8466105,8.5592270,-5.7891502,90.9389343,37.9160309,226.9007568
5480,1.7166338,1.3120158,9.8736372,-1.0000000,-1.3587786,-0.9083970,9.9430685,8.6190825,-7.7092900,65.5954208,13.6641226,207.9313049
5490,1.7453641,1.6304430,9.8449068,0.5267175,-2.8778627,-1.2977099,14.1712074,8.9255381,-9.4618368,32.3893127,-6.4732823,171.7557220
5500,1.9345051,1.5131277,9.6988611,0.4503817,-2.4885497,-0.9312977,17.6858768,8.7244263,-10.7211800,-8.4961834,-25.1450386,121.5648880
5510,1.8554969,1.5777708,9.6940727,0.0000000,-1.4122137,-1.1068702,19.6126022,8.8010406,-11.3245163,-57.6564903,-53.1832047,60.5725174
5520,1.8674678,1.5634058,9.7132263,-0.2213740,-1.4580153,-1.7175573,19.6126022,8.7483683,-10.4410601,-109.0457993,-82.1984711,-1.7709924
5530,1.7525467,1.5777708,9.6054878,-0.3053435,-1.6259542,-2.0610688,19.6126022,8.4036045,-8.3724804,-151.5801544,-101.4961853,-57.7786255
5540,1.7333932,1.4963684,9.6437950,-0.4122137,-1.3206106,-1.6488550,18.8111458,8.0396881,-5.5976148,-180.5801544,-107.6412201,-106.6717529
5550,1.6088953,1.4125718,9.7323799,-0.6488550,-1.0534351,-0.8854962,17.2597122,7.4890246,-2.8442972,-194.2748108,-93.8091583,-145.9313049
5560,1.6256547,1.4460905,9.6964674,-0.5801527,-1.3587786,-0.2290076,15.4760408,6.9838505,-0.1675933,-193.3587799,-58.3053436,-177.7328186
5570,1.5514348,1.5155219,9.7826586,-0.3206107,-0.6259542,1.3816794,13.4122496,6.6031747,2.3654592,-179.3129730,-15.0076332,-203.8091583
5580,1.5083394,1.5418580,9.7132263,-0.1526718,-0.8244275,2.5572519,11.2550850,6.1123657,3.8187323,-156.3282471,20.8091602,-227.2748108
5590,1.8267666,1.6424140,9.6844959,-0.5038168,-0.6564885,3.3358779,-10.5703468,3.4811516,5.7460546,-95.6106873,85.6793900,-250.1374054
5600,1.9177457,1.5849534,9.6222477,-0.8396947,-1.0916030,2.8320611,-19.2301292,4.1754665,7.9678626,-94.3816757,83.4961853,-226.3893127
5610,1.8698620,1.5729824,9.6988611,-0.9083970,-1.1526718,2.4580152,-19.6131992,4.5968437,10.5416164,-85.2061081,69.3740463,-142.4122162
5620,1.9105632,1.4245427,9.7443514,-1.0076336,-0.8015267,2.4427481,-19.6131992,4.4148855,13.1584654,-63.7862587,57.1068687,-46.9847336
5630,1.8746504,1.4006008,9.8042059,-0.6335878,-0.7022901,2.1832061,-19.6131992,4.1108232,15.2150736,-24.5267181,53.9923668,41.3358765
5640,1.9680238,1.4460905,9.8401184,-0.2900763,-0.7938932,1.8015267,-19.6131992,4.0294209,16.0506458,27.6717548,50.5801544,110.5725174
5650,1.9512644,1.4867916,9.7850523,-0.1984733,-1.0610687,1.3053435,-19.6131992,4.0820932,15.4616756,79.6488571,51.6870232,154.9770966
5660,1.8938038,1.4532729,9.6844959,0.0229008,-1.6946565,0.8015267,-16.2134514,4.2879934,13.7905312,120.7938919,45.0381660,181.6259613
5670,1.9177457,1.4915800,9.6821022,0.2900763,-1.4961832,0.6641222,-12.6485033,4.8027439,11.4202833,152.1526642,25.4961834,197.3435059
5680,1.8459201,1.5681942,9.6821022,-0.2366412,-1.0534351,0.3740458,-9.6485834,5.2528515,8.8321648,171.1374054,-0.3740458,203.9541931
5690,1.8243724,1.6376256,9.7012558,-0.4427481,-0.7099237,0.3969466,-6.7899213,5.8274570,6.1865854,179.6488495,-27.0381680,206.0839691
5700,1.7932479,1.6472024,9.6964674,-0.7633588,-0.0763359,1.1068702,-4.0102673,6.5433197,3.1220231,178.8778687,-46.2137413,206.8015289
5710,1.7956421,1.6687500,9.7611103,-0.7633588,0.1221374,1.0763359,-1.3790531,7.2352405,0.4548960,169.5648804,-50.7251892,208.2137451
5720,1.9081690,1.8650736,9.6629486,-0.9694657,0.5725191,1.6412214,1.4700323,7.8050575,-1.9440818,156.2519073,-47.3129768,212.4351196
5730,1.9991482,1.5777708,9.6797075,-1.2748091,0.8473282,0.7251908,4.7859845,8.0564480,-4.1539187,142.3816833,-47.0228996,212.4122162
5740,1.9728121,1.6352314,9.6270361,-1.1450381,0.7404580,-0.2442748,8.8944139,8.2048874,-6.7899213,128.5572510,-38.2748108,203.9236603
5750,1.9297167,1.4939742,9.6677370,-1.7709924,0.6793893,-0.0763359,13.5654774,8.5879574,-9.5408449,108.7175598,-26.3206100,179.8473358
5760,2.0350611,1.4532729,9.6557665,-2.3053436,0.8015267,-0.7557252,17.5326500,8.8417416,-12.1313581,72.6564865,-17.6870232,135.4427490
5770,1.7884595,1.4245427,9.7467451,-2.4045801,0.5877863,-1.0458015,19.6126022,9.6629486,-13.4649220,19.0305347,-22.1908398,77.5267181
5780,1.7645177,1.3168042,9.7706871,-1.8778626,-0.3282443,-1.0992366,19.6126022,10.2375546,-12.6365318,-40.3358765,-46.7862587,18.2061062
5790,1.7573351,1.2737088,9.8712435,-1.3435115,-0.9694657,-0.8320611,19.6126022,10.0579901,-10.4602137,-95.3282471,-85.9847336,-38.5877876
5800,1.7142396,1.2593436,9.8161764,-0.4809160,-1.8931298,-0.6335878,18.7895985,9.4546537,-7.8792777,-136.9847260,-116.5496216,-90.9007645
5810,1.7645177,1.2689204,9.7970228,-0.2748092,-2.2748091,0.1450382,17.5087070,8.8585014,-4.9942794,-161.2213745,-118.0992355,-134.3740387
5820,1.8554969,1.3024391,9.7658987,0.1603053,-2.5725191,-0.5954198,15.4185801,8.1378498,-1.8507085,-168.9541931,-91.8854980,-169.8320618
5830,1.7501525,1.4700323,9.8209648,1.0000000,-2.8854961,-0.6870229,13.2590208,7.6997132,0.4644727,-162.5954132,-53.8549614,-199.9236603
5840,1.7262106,1.3886299,9.6533718,1.0381680,-2.1908398,-0.1145038,10.6110477,7.0556765,1.8818330,-149.8778687,-19.4732819,-223.6412201
5850,1.7357874,1.5658000,9.7204094,0.9312977,-3.0152671,0.4351145,4.8051381,5.7316895,3.3590479,-119.2137375,21.1145039,-250.1374054
5860,1.8267666,1.4987626,9.6821022,0.4809160,-4.3587785,0.8931298,0.7278336,5.0661049,3.4763632,-105.1450348,39.9771004,-250.1374054
5870,1.8459201,1.5394639,9.6485834,0.7328244,-5.4656487,0.1297710,-3.9839313,4.8242917,3.6271970,-94.2977066,57.1755714,-250.1374054
5880,1.6855093,1.5466464,9.7347746,1.0763359,-6.1526718,0.5114504,-9.6581602,5.1259594,3.9528067,-87.2442780,69.1679382,-227.7709961
5890,1.8554969,1.4221486,9.7036495,0.4198473,-6.0610685,1.0076336,-15.3108416,5.6119800,4.5537481,-84.1450348,78.0076370,-180.6793823
5900,1.7645177,1.5083394,9.7443514,0.2061069,-5.0152674,1.0076336,-19.6131992,6.1794028,5.8059096,-81.9694672,88.0610657,-113.2824402
5910,1.6783268,1.5322813,9.7443514,0.3435115,-4.6412215,2.0229008,-19.6131992,5.8537931,7.6877422,-74.8473282,97.9083939,-34.8244286
5920,1.6615674,1.4604555,9.7515335,0.8320611,-4.1297708,2.7022901,-19.6131992,5.6167684,9.8496952,-58.0458031,103.6183243,36.9923668
5930,1.7118455,1.4436963,9.7251978,1.0534351,-3.2977099,3.6641221,-19.6131992,5.1666608,11.7339230,-31.6030540,96.3435135,91.2977066
5940,1.7932479,1.4939742,9.7060442,1.0534351,-2.9160306,4.7022901,-19.6131992,4.8314743,13.1273403,-1.6030535,73.3664093,129.0458069
5950,1.9728121,1.4532729,9.7467451,1.0992366,-2.7557251,5.0000000,-17.4608231,4.9416070,13.6684275,29.6793900,43.9541969,153.4885559
5960,2.0805507,1.4700323,9.7323799,0.9541985,-1.3206106,5.0992365,-14.8822813,5.0206151,13.3883076,59.6030540,18.7557259,169.7099304
5970,2.0901275,1.4891858,9.6437950,1.0610687,-0.7404580,4.4961834,-12.1864243,4.9990678,12.4952745,88.3053436,-1.3893130,181.3816833
5980,2.2553265,1.5538290,9.7994175,1.3435115,-0.6946565,3.6641221,-9.8975792,4.8721757,11.1664991,115.0229034,-19.8167934,187.3206177
5990,2.2672975,1.6017127,9.6964674,0.7938932,-0.6717557,2.5190840,-8.2838955,4.7309184,9.3995876,138.9084015,-36.5267181,192.8167877
6000,2.0925217,1.6472024,9.6006994,1.1450381,-0.9236641,1.3053435,-6.4954362,4.9559722,7.3932571,158.6641235,-54.1450386,200.6183167
6010,1.9847831,1.6495966,9.6246414,1.5343511,-1.1832061,1.1832061,-4.5465660,5.5784616,5.0301919,172.8931274,-69.0076370,210.0534363
6020,1.9201399,1.8435259,9.6294298,1.1984733,-1.8091604,1.7633588,-2.9161227,6.1913738,2.8802099,179.2366486,-75.9312973,221.7938995
6030,1.9129574,1.9273225,9.5336628,0.9236641,-2.3816793,1.8473282,-1.4556671,6.5935979,0.7254394,182.4274750,-75.2671738,238.9618378
6040,1.9560528,2.0518203,9.4402885,0.1679389,-2.8320611,1.8931298,0.3136388,6.9192076,-1.4843974,183.5801544,-67.6030502,250.1297760
6050,2.0566087,1.8459201,9.5671806,-0.4809160,-3.2366412,1.3740458,3.1555417,6.9551206,-4.0725164,181.5801544,-48.2137413,250.1297760
6060,1.9512644,1.8698620,9.5599985,-0.5190840,-3.0763359,0.4732825,6.5074067,7.1011658,-6.4810710,174.5419922,-12.5419846,250.1297760
6070,1.9991482,1.8004304,9.5336628,-2.3435113,-2.0839694,0.9694657,10.4578199,7.3429790,-8.8106174,158.9007568,18.3206100,250.1297760
6080,2.1667414,1.6376256,9.5647869,-3.6106870,-1.1755725,-0.0610687,15.0283270,7.5057840,-11.1545286,130.8091583,28.2519093,250.1297760
6090,2.0805507,1.6017127,9.6318245,-3.4732823,-0.5114504,-0.4961832,19.5317974,7.8146343,-13.3667593,84.5801544,16.6641216,226.3893127
6100,2.0685797,1.4389079,9.7395630,-2.8244274,0.6183206,-1.0687023,19.6126022,8.5999289,-15.2725344,19.0534344,-12.4656487,162.0152740
6110,2.0494261,1.4101776,9.7228031,-2.5267177,0.6335878,-1.2900764,19.6126022,9.1122847,-15.2438040,-58.4045792,-56.1297722,84.0992355
6120,2.1044924,1.3862357,9.8473015,-1.9007634,2.6183207,-1.2061069,19.6126022,8.4107876,-12.8591919,-133.1526642,-100.4427490,8.9083967
6130,2.0566087,1.3838415,9.7682934,-1.7022901,4.0000000,-1.0992366,19.6126022,7.5871863,-9.6198530,-181.2213745,-121.5419846,-53.9312973
6140,1.9129574,1.4197544,9.7826586,-1.3893130,3.4045801,-1.1068702,19.6126022,7.4124107,-6.2392578,-205.4580078,-108.5648880,-104.6641235
6150,1.9752063,1.4772149,9.6773138,-0.9465649,2.8244274,-0.6030535,19.1798515,6.8425937,-2.8251436,-209.9007568,-68.6641235,-143.1908417
6160,1.8914096,1.5442522,9.6629486,-1.4198474,3.1755726,-0.1832061,16.6803188,6.1770086,-0.3399749,-197.6488495,-21.1221371,-173.4351196
6170,1.9895715,1.5514348,9.7036495,-2.0992367,3.3053436,-0.2977099,14.3771076,5.8442163,1.2210367,-176.9618378,20.9083977,-197.6946564
6180,1.9416877,1.4987626,9.6006994,-2.3969467,3.7709923,-0.6259542,12.2223368,5.5018473,2.2050486,-153.1221313,58.0839691,-219.1145020
6190,1.8770446,1.4891858,9.7299862,-2.3129771,3.5343511,-0.9236641,10.2591019,4.9799142,2.5043221,-131.0763397,87.5648880,-238.7938995
6200,1.8411317,1.4652439,9.7275915,-2.1832061,3.8473282,-0.8015267,8.0564480,4.3741841,2.5498118,-112.6870193,106.8778610,-250.1374054
6210,1.8004304,1.4125718,9.7922344,-1.9465649,3.3053436,-0.5267175,5.8633699,3.5505829,2.4037662,-99.6259537,113.9389343,-250.1374054
6220,1.7549409,1.3838415,9.7180147,-1.5190840,2.4961832,-0.3129771,3.3303175,2.8299320,2.2146254,-94.0763321,109.5343475,-250.1374054
6230,1.7573351,1.3814473,9.7611103,-0.9618320,1.8625954,-0.0305344,0.5578461,2.2816625,2.5976956,-95.2366409,94.8167953,-250.1374054
6240,1.8483143,1.3982066,9.7395630,-0.6335878,1.1526718,0.5419847,-3.1699069,2.1164634,3.4619980,-101.0763321,74.0152664,-250.1374054
6250,1.8315549,1.4796091,9.7156210,-0.5725191,1.0000000,0.8167939,-7.5560617,1.9632354,4.7093706,-108.1145020,62.7099228,-250.1374054
6260,1.8411317,1.4796091,9.7395630,-0.6412213,0.4274809,0.8549618,-13.5104113,2.2313845,6.6773944,-109.1145020,65.6259537,-250.1374054
6270,1.8459201,1.6160779,9.6222477,-0.5343512,-0.4274809,0.8778626,-19.6131992,3.1555417,9.4307127,-98.3664093,71.2977066,-211.8549652
6280,1.9057748,1.6328372,9.6390066,-0.5038168,-1.2290076,0.5114504,-19.6131992,4.0844874,12.0451670,-72.7175598,74.5267181,-125.1297684
6290,1.9416877,1.6328372,9.6414013,-0.4732825,-1.5190840,0.1297710,-19.6131992,4.3765783,13.9485474,-35.9160309,78.6641235,-36.6564903
6300,1.8866212,1.5729824,9.6437950,-0.4198473,-1.6106870,-0.0763359,-19.6131992,4.5010762,14.7290535,9.5267172,90.7480927,35.7404594
6310,1.8890154,1.4724265,9.7084379,-0.2671756,-1.7938931,0.0992366,-19.6131992,4.7548604,13.8958759,52.3969460,103.9770966,85.8167953
6320,1.9608412,1.4796091,9.7323799,-0.2748092,-2.0305343,0.0610687,-18.6052456,4.2712340,12.6508970,89.8167953,88.7557220,120.4351120
6330,1.9512644,1.5059452,9.7204094,-0.5725191,-2.5725191,0.1603053,-15.3539371,5.1666608,10.9941177,118.2290039,56.1603050,138.5954132
6340,2.0087249,1.3718705,9.7108326,-1.0458015,-1.9618320,-0.2748092,-12.6868095,4.5178356,8.8824425,135.8931274,22.5114498,140.4274750
6350,1.8339491,1.4460905,9.7036495,-0.9083970,-1.8778626,-0.2824427,-9.7587166,4.9080882,6.8330169,142.7328186,-4.7175574,139.9541931
6360,1.9177457,1.4413021,9.6797075,-1.0534351,-1.7938931,0.1603053,-7.8266053,5.6095858,5.1259594,144.4427490,-31.1374054,134.9389343
6370,1.9129574,1.4436963,9.7108326,-1.2900764,-1.8167939,0.0763359,-5.8585815,5.5377603,3.6463506,142.0229034,-57.1221390,129.5954132
6380,1.8650736,1.4700323,9.8065996,-0.6259542,-1.7328244,-0.2061069,-4.1658897,5.9471664,2.4468615,136.6717529,-82.1755753,121.4045792
6390,1.7980363,1.4891858,9.8736372,0.4351145,-1.2519084,0.4656489,-2.8873925,6.7947097,1.4748207,130.9084015,-104.9312973,115.4351120
6400,1.8531027,1.5035510,9.6749191,0.7175573,-1.4503816,1.0229008,-1.8674678,7.5129666,0.3758878,126.1984711,-122.0763321,114.2213745
6410,1.8459201,1.4748207,9.6581602,0.7633588,-1.4809160,1.2290076,-0.8212070,8.4299412,-0.6440369,124.3664093,-126.8625946,121.2824402
6420,1.8531027,1.4939742,9.6437950,0.4885496,-2.1297710,1.4580153,0.5123565,9.0907373,-1.8890154,126.9770966,-114.5038147,133.0458069
6430,1.9728121,1.4580613,9.7108326,0.3282443,-2.5343511,1.4809160,2.4755919,9.4905672,-3.4476328,133.5648804,-89.9236679,145.2290039
6440,1.8914096,1.5658000,9.7371683,0.4351145,-2.6106870,1.1984733,4.6806402,9.8568783,-5.2025738,138.3893127,-58.4198456,153.6412201
6450,1.9416877,1.5322813,9.7228031,0.1297710,-2.5343511,1.3053435,6.3110833,10.2734671,-7.1562324,135.8778687,-29.2366409,158.5190887
6460,1.8890154,1.5466464,9.6270361,0.3893130,-2.9618320,1.1908396,8.2240410,10.6756907,-8.7411861,122.8778610,-6.5496182,162.7404633
6470,1.8626794,1.5705882,9.7204094,0.5648855,-3.2900763,1.6106870,11.0132713,10.9965124,-9.8999729,102.3129807,8.7786255,158.8167877
6480,1.9416877,1.5083394,9.6557665,0.6183206,-4.2442746,1.5419847,13.9892492,10.8887739,-10.7092094,77.2213745,13.4122133,143.3435059
6490,1.9225341,1.6256547,9.7036495,0.8244275,-5.4503818,1.5877863,16.7545376,10.9031391,-11.2526903,45.7328262,9.5267172,113.2671738
6500,2.0470319,1.5658000,9.6342182,0.4427481,-4.6488547,1.3969465,19.3474445,10.0579901,-9.4522600,-68.6183243,-29.6412220,-16.3358784
6510,2.0183017,1.6567791,9.6246414,0.5114504,-4.1984735,1.5801526,18.6148224,9.8592720,-7.6901364,-96.3587799,-36.2595406,-59.5419846
6520,2.1092808,1.6735384,9.6150646,0.3740458,-3.8931298,1.3816794,17.3028069,9.1458035,-5.8202744,-114.8244247,-30.2900772,-99.0305328
6530,2.0829449,1.5993185,9.6078825,-0.0458015,-4.1374044,1.0305344,15.6460285,8.3748751,-4.0629396,-123.3664093,-11.8167934,-131.8778687
6540,2.0374553,1.5801650,9.5695753,-0.6335878,-4.7480917,0.6946565,13.4792862,7.7523856,-2.4516499,-123.3816757,8.9007635,-160.7862549
6550,2.0350611,1.5993185,9.5767574,-0.7480916,-4.7480917,1.1068702,11.5112629,7.0580707,-1.3359578,-118.1832047,26.1221371,-185.3587799
6560,2.0254843,1.5753766,9.7730818,-0.6641222,-3.7328243,1.2824427,9.5671806,6.4331870,-0.6440369,-111.4274826,41.0610695,-206.0000000
6570,2.0685797,1.5897418,9.7419567,-0.6564885,-2.8549619,1.2900764,7.6733770,5.8202744,-0.0814024,-105.0992355,59.2671738,-224.7404633
6580,2.1188576,1.5849534,9.6102762,-0.3587786,-2.4274809,1.1450381,5.5042415,5.0349803,0.3088504,-99.6717529,75.8091583,-239.4503784
6590,2.1667414,1.5418580,9.6725254,-0.0534351,-2.4809160,0.5648855,2.7700772,4.4388270,0.8666966,-94.3816757,89.3435135,-249.7099304
6600,2.1260402,1.6376256,9.5456333,-0.1984733,-2.4427481,-0.0458015,-0.4118006,3.9049230,1.5083394,-88.9312973,99.5801544,-250.1374054
6610,2.1595588,1.5250987,9.6318245,-0.3129771,-1.7251909,-0.2290076,-4.1994085,3.7493007,2.3247581,-84.2748108,106.2213745,-250.0000000
6620,2.1212518,1.5274929,9.6342182,-0.6717557,-1.0839695,-0.1068702,-8.5640154,4.1180058,3.3662305,-79.4122162,112.1908417,-234.0305328
6630,2.0470319,1.5610116,9.7778702,-0.7328244,-0.6106870,0.3511450,-12.8041248,4.7548604,4.2999644,-73.2290039,108.0916061,-205.4351196
6640,2.0637913,1.5418580,9.7204094,-0.8015267,-0.4122137,0.8091603,-15.7896795,5.3438311,5.1977854,-67.9083939,89.1984711,-166.9007568
6650,2.0805507,1.5250987,9.6892843,-0.8091603,-0.0610687,0.7404580,-17.7170029,5.6957769,5.8825235,-61.5572510,70.8702316,-127.3435135
6660,2.1643472,1.4796091,9.6270361,-0.8854962,-0.0687023,0.7251908,-19.0745068,5.8226686,6.3350253,-52.2213745,62.1297722,-85.7099228
6670,2.1739240,1.5274929,9.5623922,-0.9618320,-0.0305344,0.3893130,-19.6131992,5.9304070,6.8904772,-40.4809151,62.3511467,-42.3129768
6680,2.1260402,1.5753766,9.5959110,-1.0839695,0.0687023,0.1145038,-19.5629215,6.0429344,7.5776095,-25.4580154,68.1908417,0.6030535
6690,2.0590029,1.5203103,9.6821022,-1.3206106,0.1603053,0.1603053,-18.5884876,5.8849177,8.1043310,-8.7251911,66.2519073,37.6412201
6700,2.0949159,1.5083394,9.7371683,-1.3129771,0.1297710,0.1374046,-16.6755295,5.6598639,8.4897957,7.9694657,54.7328262,61.8167953
6710,2.0039365,1.5011568,9.6677370,-0.2900763,-0.9465649,0.2824427,-11.8057480,5.5640965,8.0372944,49.3206100,-17.8015270,81.2900772
6720,2.0063307,1.4891858,9.7036495,-0.2366412,-0.7251908,0.5038168,-10.8863792,5.6838059,7.6350703,61.0916023,-35.4656487,84.2213745
6730,2.0350611,1.6112895,9.6054878,-0.3206107,-1.2061069,0.9923664,-7.4938130,5.9208307,5.6454988,104.1145020,-62.2519073,104.3206100
6740,2.1044924,1.5562232,9.6270361,-0.1068702,-1.2900764,0.9083970,-6.4260044,6.0381460,4.4914994,115.2671738,-63.3053436,111.9312973
6750,2.0805507,1.5562232,9.6390066,-0.2519084,-1.0763359,1.1679389,-4.9463954,6.2248926,3.2824337,124.3053436,-62.6641235,118.2366409
6760,2.1427996,1.6256547,9.6342182,-0.2213740,-0.6870229,1.0305344,-3.2800395,6.4283986,1.7262106,130.7480927,-59.5343513,121.6793900
6770,2.1906834,1.6041069,9.6174593,-0.5572519,-0.4503817,0.9083970,-2.1523764,6.7252784,0.5362985,134.2366486,-53.9694672,120.4122162
6780,2.1954718,1.6160779,9.7419567,-0.4732825,-0.1603053,0.8244275,-1.4508789,7.1442614,-0.7589580,134.6412201,-53.3053436,118.3053436
6790,2.1835008,1.5921360,9.6222477,-0.7328244,0.5725191,0.6946565,-1.0510491,8.0732069,-2.1763182,130.9465637,-58.4580154,117.4580154
6800,2.2768741,1.6017127,9.6126709,-0.5343512,1.4961832,0.4427481,-0.0909792,9.1793222,-3.6678982,123.1297684,-63.5801544,123.3358765
6810,2.1643472,1.6376256,9.6533718,-0.4885496,2.0000000,0.0839695,1.3431402,9.5432396,-5.2073622,112.9236679,-58.4961815,131.4045868
6820,2.1691356,1.6424140,9.5767574,-0.9694657,2.5877862,0.1755725,3.3231349,10.2351599,-6.5026188,107.9465637,-42.2671738,144.2900696
6830,2.2433555,1.5658000,9.6006994,-2.0458016,2.5343511,-0.2900763,5.5904322,10.8217363,-8.2575598,99.9847336,-17.0534344,152.6641235
6840,2.0159075,1.5370697,9.7180147,-1.9847329,0.9541985,-0.8702290,9.5336628,10.9534168,-10.7211800,64.2671738,20.3664131,156.8702240
6850,1.9392935,1.5442522,9.7275915,-1.8931298,0.7175573,-0.6870229,12.6628675,11.2072010,-11.2239599,34.7251892,14.9923668,145.9389343
6860,1.9776005,1.4293311,9.7802639,-1.3816794,0.0687023,-0.1374046,15.4185801,11.2646618,-10.9941177,1.6412214,-5.8778625,122.1603088
6870,1.9608412,1.4867916,9.7467451,-0.6793893,-0.7099237,0.4274809,18.6291885,10.8217363,-10.4482431,-32.4274826,-36.0839691,84.8015289
6880,1.9368993,1.4820032,9.6892843,-0.2366412,-1.9312977,0.8091603,19.6126022,10.1657286,-9.5528164,-63.3511467,-58.7404594,34.7938919
6890,2.0997043,1.5227045,9.6605549,-0.1832061,-2.5419848,1.1526718,19.6126022,9.7395630,-8.2886839,-88.1145020,-61.5114517,-18.9618320
6900,2.0302727,1.5203103,9.6629486,-0.1603053,-3.0000000,1.1068702,19.6126022,9.4570484,-6.4403696,-106.8244247,-57.0687027,-69.5038147
6910,2.1092808,1.5322813,9.6653433,-0.5114504,-2.5038168,0.8854962,18.2987900,8.9183559,-4.6519103,-118.4809189,-53.7938919,-113.4351120
6920,2.1715298,1.5610116,9.6054878,-0.9007633,-2.2213740,0.6106870,15.9476957,8.4993725,-2.8442972,-123.2137375,-47.6335869,-148.1603088
6930,2.1882892,1.4939742,9.5815458,-0.9312977,-1.6641221,0.3893130,13.5008345,8.0444765,-1.2449785,-120.5572510,-34.8854980,-175.1755676
6940,2.0853391,1.5346755,9.7491398,-0.2671756,-1.4045801,0.1068702,11.1760759,7.5249376,-0.0478838,-112.6641235,-18.2137413,-194.8091583
6950,2.1619530,1.5658000,9.6821022,0.0687023,-0.5343512,0.4274809,8.8489246,6.9216018,0.8020535,-99.9847336,3.1603053,-208.8549652
6960,2.1332228,1.5514348,9.6366129,-0.2061069,-0.3664122,0.3282443,6.5959921,6.5241661,1.1444225,-84.9923630,24.2748089,-217.8015289
6970,2.0566087,1.5250987,9.6126709,-0.2366412,-0.2290076,0.3893130,4.3286943,6.2416520,1.1611819,-70.2748108,43.6564903,-222.2900696
6980,2.2170193,1.4484847,9.6390066,-1.1679389,0.5648855,0.2595420,-0.5937590,5.6838059,0.6655847,-46.0458031,73.6564865,-218.4045868
6990,2.0997043,1.4891858,9.6725254,-1.3206106,0.1755725,0.0000000,-3.3375001,5.7891502,0.2035061,-37.9923668,81.2824402,-208.6106873
7000,2.1308286,1.4963684,9.7611103,-1.1679389,-0.3511450,-0.0763359,-5.4132624,5.7628140,-0.3495516,-34.7557259,84.0457993,-194.4961853
7010,2.0613971,1.5322813,9.7515335,-0.6183206,-0.1908397,0.1908397,-7.1227136,6.5528965,-0.6177009,-36.7938919,86.6488571,-174.0915985
7020,2.0781565,1.5011568,9.7275915,-0.1526718,-0.2442748,0.2213740,-9.1434097,6.8449879,-0.5578461,-38.9465637,94.3816757,-152.0305328
7030,2.0566087,1.4772149,9.7228031,0.3358779,-0.6564885,0.1450382,-11.5878773,7.0365229,-0.3639168,-39.6870232,117.7099228,-122.0381699
7040,1.9919657,1.5777708,9.6749191,0.5572519,-0.5343512,0.4809160,-14.1496601,7.4387465,0.3184272,-35.9389305,156.8702240,-85.7480927
7050,2.0949159,1.5849534,9.5767574,0.0992366,-0.4809160,0.9083970,-16.2852764,7.6374645,1.2545552,-26.9236641,187.6335907,-44.9312973
7060,2.0757623,1.5729824,9.6078825,-0.3282443,-0.1450382,1.5496184,-17.8007984,7.3717093,1.9799947,-16.5725193,200.1297760,-9.0381680
7070,2.1284344,1.6352314,9.6222477,-0.8015267,0.2442748,1.5648855,-19.2373123,7.4555058,2.4516499,-11.7328243,189.3282471,18.9923668
7080,2.2720859,1.6615674,9.6557665,-0.6412213,0.3740458,0.8931298,-19.6131992,7.3860745,3.0406206,-16.5572510,158.6412201,38.9236641
7090,2.2625091,1.7453641,9.6318245,-0.8549618,0.6946565,0.4732825,-19.6131992,7.1418672,4.0102673,-28.7557259,109.8854980,53.2900772
7100,2.2242019,1.6639616,9.5767574,-1.0458015,1.0152671,-0.3816794,-19.6084118,6.8856888,5.5066357,-38.5267181,53.2366409,65.0076370
7110,2.0254843,1.5131277,9.6605549,-1.1832061,1.9236641,-0.6488550,-17.0538120,6.0094156,8.3533268,-24.4732819,-21.1068707,82.3206100
7120,2.0183017,1.4820032,9.6437950,-1.8015267,2.2900763,0.8473282,-14.3627424,5.8753409,8.2168579,22.0229015,-46.0458031,107.8091583
7130,2.0230901,1.5562232,9.7371683,-1.3358779,1.8396946,0.8549618,-12.8687687,5.9064655,7.0915890,43.5267181,-51.0610695,123.0076370
7140,2.0733681,1.5442522,9.7515335,-1.2213740,1.9923664,1.4045801,-11.5830889,6.2320752,5.7987270,61.2290077,-54.9160309,141.9541931
7150,2.1763182,1.5969244,9.5911226,-1.6946565,2.5343511,-0.3053435,-4.8218975,6.7300668,0.1939293,88.0534363,-36.2290077,201.1526642
7160,2.1356170,1.6304430,9.5767574,-2.1068702,2.8778627,-0.0687023,-2.3846128,7.0820122,-1.7860653,85.7175598,-29.9236641,214.5190887
7170,2.0542145,1.5610116,9.5719690,-2.6488550,2.7557251,-0.1832061,0.0718257,7.6757712,-3.8091555,76.5648880,-30.6412220,222.4351196
7180,2.0997043,1.5729824,9.7419567,-2.6946564,2.5267177,-0.4885496,2.5330524,7.9032192,-5.6311336,61.1145020,-35.3206100,226.6106873
7190,2.0135133,1.4939742,9.7108326,-2.3206108,2.9618320,-0.5038168,5.3414369,8.0229292,-6.9335728,42.9771004,-40.5267181,226.7328186
7200,2.0183017,1.4748207,9.7180147,-1.7633588,3.3664122,-0.2748092,8.1139078,8.0732069,-7.9798336,24.3435116,-44.7786255,220.3206177
7210,2.0230901,1.4724265,9.6342182,-1.6335878,3.6564887,-0.0687023,10.8720140,7.9989872,-8.2958660,5.2977099,-42.1679382,207.1832123
7220,1.9967541,1.5442522,9.6174593,-1.7175573,3.5419848,0.1068702,13.7522240,8.1186962,-8.1282730,-12.3969469,-37.0839691,186.6870270
7230,1.9919657,1.5346755,9.6797075,-2.1145039,3.0839694,-0.1755725,16.7856617,8.2886839,-7.9630742,-27.7480907,-29.4198475,157.7099304
7240,1.9776005,1.5227045,9.6533718,-2.3282442,2.7099237,-0.0687023,19.6126022,8.4299412,-7.7930865,-45.5267181,-23.6870232,118.4351120
7250,1.9680238,1.5059452,9.6270361,-2.6641221,2.6641221,0.2671756,19.6126022,8.9470863,-6.9527264,-66.5267181,-25.9160309,70.2442780
7260,2.0159075,1.5418580,9.7036495,-2.7175572,3.4580152,0.3129771,19.6126022,8.0612354,-5.7771792,-86.2061081,-39.0534363,28.4580154
7270,1.9656296,1.5035510,9.6605549,-2.5877862,4.3740458,0.5648855,19.6126022,8.6214762,-4.0198441,-99.8320618,-39.8778610,-22.6564884
7280,2.0135133,1.5945302,9.6342182,-2.9541984,5.3816795,1.1603054,19.1846409,7.8984308,-1.9608412,-104.2824402,-38.7480927,-62.3282433
7290,2.0757623,1.6735384,9.6270361,-3.2595420,6.7328243,1.2519084,17.9468441,7.6925306,-0.6847382,-99.9007645,-28.1450386,-95.9389343
7300,2.2194135,1.6136837,9.5983057,-3.3587787,7.4656487,0.3206107,15.8519287,7.4411407,0.6200951,-89.0992355,-7.6870227,-125.2137375
7310,2.0853391,1.7046629,9.6078825,-3.7786260,8.0458012,-0.0916031,13.7115231,7.1682034,1.3287752,-73.4503784,14.8167934,-148.1526642
7320,2.0613971,1.6304430,9.6390066,-4.5572519,8.7557249,-0.2137405,11.7913828,6.9838505,1.7214222,-56.6335869,35.2977104,-166.6412201
7330,2.0901275,1.6065011,9.6270361,-4.7786260,8.4732828,-1.1221374,9.7563219,6.8090749,1.8746504,-41.2366409,52.1374054,-183.2977142
7340,1.9752063,1.5658000,9.7108326,-4.8015265,8.3587790,-2.0305343,8.1210909,6.6558466,1.9105632,-26.9236641,63.8396950,-197.0686951
7350,1.8411317,1.6088953,9.6844959,-4.3893127,8.3358774,-2.5114503,6.6175399,6.5528965,1.5897418,-15.7786255,65.8778610,-211.3282471
7360,1.7046629,1.2976507,9.7012558,-5.3129773,10.8931293,-1.9236641,-0.9528874,5.6000090,-0.2178712,-15.9236641,-9.6793890,-250.1374054
7370,1.8435259,1.3072275,9.7706871,-5.3053436,11.1374044,-1.3969465,-2.8586621,5.3677726,-0.2537841,-16.5114498,-32.4274826,-250.1374054
7380,1.8866212,1.2617378,9.7515335,-4.9770994,11.4503813,-1.7099236,-4.7764082,5.1977854,-0.6967092,-20.7786255,-43.5038185,-250.1374054
7390,1.7980363,1.2114599,9.8042059,-4.6870227,11.0687027,-1.7633588,-7.5608501,4.9559722,-1.1468167,-28.6183205,-27.4580154,-249.3282471
7400,1.7453641,1.2808913,9.7443514,-4.6183205,11.3893127,-2.2824428,-12.8974981,5.3605900,-0.6248835,-37.6946564,14.9541988,-217.1832123
7410,1.7118455,1.2449785,9.7706871,-4.3664122,12.0381680,-2.0305343,-17.6020813,5.7005649,0.4022238,-45.5114517,60.5419846,-165.7938995
7420,1.6232605,1.3670821,9.8616667,-4.2671757,12.3129768,-1.9770992,-19.6131992,6.0022330,1.9536586,-50.7557259,90.6259537,-103.3969498
7430,1.6400198,1.4867916,9.7419567,-3.8702290,11.8931293,-1.8931298,-19.6131992,6.0525107,3.9647777,-52.4427490,107.2366409,-36.5725174
7440,1.5849534,1.3551112,9.8257532,-3.3358779,11.7022905,-2.0458016,-19.6131992,5.9232249,6.0165982,-47.3664131,117.9465637,22.8931293
7450,1.4820032,1.4628497,9.8520899,-2.6259542,11.3969469,-2.4427481,-19.6131992,5.5617023,7.9487090,-35.8167953,118.0152664,73.5038147
7460,1.4101776,1.4724265,9.7228031,-2.0152671,10.2061071,-2.0763359,-19.6131992,5.4204450,9.3349447,-17.4198475,105.2977066,107.9847336
7470,1.4676381,1.4556671,9.7443514,-2.3358779,9.4580154,-1.7862595,-17.8031921,5.2839761,10.0579901,6.3587785,85.7633591,129.0076294
7480,1.5346755,1.3622938,9.7299862,-3.0763359,9.2824430,-1.4732825,-15.8327751,5.2935529,9.5599985,31.3969460,62.5190849,142.0305328
7490,1.5274929,1.3215926,9.7347746,-3.3893130,9.5801525,-1.3816794,-13.4290085,5.5401545,8.4107876,53.3053436,41.9694672,143.8167877
7500,1.4772149,1.3958124,9.7706871,-2.9694657,8.9770994,-0.8396947,-12.1122046,5.5138183,6.7851329,67.3435135,18.5496178,144.3587799
7510,1.5346755,1.3383518,9.7994175,-3.3206108,10.0610685,-0.7404580,-10.6469603,5.7388721,5.3749552,73.9770966,-8.3587790,144.3740387
7520,1.5083394,1.3575054,9.7587166,-3.5877862,10.5496187,-0.7633588,-8.9829988,5.7580256,3.9575951,75.5419846,-39.2213745,141.3282471
7530,1.4508789,1.3311694,9.8425131,-3.4351146,11.3511448,-0.3435115,-7.6542239,5.7915444,3.0166788,75.1374054,-67.3664093,137.4274750
7540,1.4245427,1.3934183,9.7515335,-3.2977099,12.0000000,-0.4351145,-6.4714942,5.8322453,2.2122312,74.6488571,-91.1068726,134.7175598
7550,1.3575054,1.3359578,9.7563219,-3.1068702,11.2748089,-0.5648855,-5.0230093,6.0046272,1.5179161,74.8473282,-104.7938919,133.0534363
7560,1.3503228,1.4101776,9.7730818,-2.1068702,10.8167934,-0.7633588,-3.5170643,5.9854736,0.4548960,75.1603088,-110.6717529,130.2137451
7570,1.3551112,1.2952565,9.7611103,-2.5343511,12.3664122,-0.3969466,-2.2026544,6.4260044,-0.4453192,73.9542007,-113.7862625,126.9236679
7580,1.2713146,1.3431402,9.7682934,-3.1603053,11.9465647,0.2366412,-1.1707586,7.0748301,-1.2449785,71.7099228,-117.3358765,122.9389343
7590,1.4149660,1.4125718,9.7898407,-3.7175572,12.6793890,0.9847328,0.1556223,7.6757712,-1.9943599,70.8702316,-125.1297684,120.7328262
7600,1.3910241,1.3144100,9.8137827,-4.0916033,12.6030531,0.5343512,1.9512644,8.3006544,-2.6479735,70.0152664,-130.0458069,116.8473282
7610,1.4006008,1.3622938,9.7132263,-4.0229006,12.5267172,-0.0992366,3.7923961,8.5855637,-3.2967989,68.2748108,-127.2366409,110.6564865
7620,1.3144100,1.3838415,9.8496952,-3.6717558,12.3893127,-1.2519084,5.3366485,8.9542685,-3.7947903,65.7862625,-120.5267181,102.8167953
7630,1.2449785,1.2856797,9.7898407,-3.7633588,11.6183205,-1.7022901,6.7731619,9.3924055,-4.6423335,61.3282433,-114.4580154,93.5648880
7640,1.1587877,1.3072275,9.7419567,-4.2519083,11.9236641,-1.9160305,7.8912482,9.9239149,-5.3127065,55.6412201,-105.5648880,85.4045792
7650,1.1037214,1.2282192,9.8640604,-4.7786260,11.4961834,-1.6106870,8.7675219,10.4123297,-5.8490047,50.0152664,-95.6335907,79.5801544
7660,1.0079538,1.1635761,9.8161764,-4.8244276,11.0916033,-1.3740458,9.9167328,11.1545286,-6.9766679,45.4274826,-74.8473282,78.6259537
7670,0.9457048,1.1013272,9.9478569,-4.1603055,9.7557249,-1.4885496,10.8983507,11.4992924,-8.7387915,34.3587799,-46.1374054,78.9465637
7680,0.8236012,1.2138541,9.8760319,-3.0229008,7.6335878,-0.7862595,11.7147694,11.5064745,-9.7730818,17.1297703,-17.9007626,81.5877838
7690,0.7996593,1.3000449,9.8999729,-2.0152671,5.6412215,1.4580153,14.7027178,11.3987360,-9.1266499,-15.0076332,38.5648842,70.6870193
7700,0.8619082,1.2617378,9.8353300,-1.3969465,4.6946564,2.5343511,15.6244802,11.1329813,-8.0995426,-29.1450386,45.4656487,51.4656487
7710,0.9026094,1.3024391,9.8544836,-1.1832061,4.4427481,2.8625953,16.4456882,11.0156660,-7.2065101,-43.3969460,42.3740463,22.3587780
7720,1.0390782,1.4341195,9.8257532,-1.0610687,3.4809160,3.3435113,16.9436779,10.5033092,-6.0022330,-55.4045792,36.2519073,-12.5801525
7730,1.2665262,1.4508789,9.8042059,-0.5954198,2.6183207,3.0534351,16.3355541,9.9215212,-4.8051381,-63.4503822,38.2519073,-49.6259537
7740,1.3814473,1.4772149,9.7539282,-0.9007633,3.5114503,1.2366412,14.9277716,9.3732519,-3.9168940,-66.4503784,44.6564903,-85.1221390
7750,1.3072275,1.4891858,9.6629486,-1.4503816,3.8091602,0.1908397,13.4481621,8.9039907,-3.2752512,-67.2519073,50.1755714,-116.2900772
7760,1.3527170,1.3503228,9.6150646,-2.5114503,3.3816793,-0.3893130,11.6525202,8.3605099,-2.5809362,-67.0763321,56.8931313,-144.8091583
7770,1.2976507,1.3168042,9.6844959,-2.9236641,3.0458016,-1.9465649,9.8257532,7.7882981,-2.1643472,-66.6717529,58.2671738,-168.9770966
7780,1.1779412,1.2952565,9.7994175,-3.6030533,4.0687022,-3.2900763,7.7547798,7.2831244,-1.6759326,-66.4580154,55.6412201,-190.3511505
7790,1.0821736,1.1635761,9.7970228,-4.4045801,4.6946564,-3.5190840,6.2823529,6.8066807,-1.2066715,-66.5648880,52.3893127,-208.4122162
7800,1.0151364,1.0654143,9.8927908,-5.3129773,5.6412215,-3.4351146,4.3047528,6.2584114,-0.9552816,-64.5114517,46.0916023,-225.9313049
7810,1.0175306,1.0534433,9.8257532,-5.3053436,6.2366414,-3.0687022,2.2672975,5.9567432,-1.0869620,-67.2519073,36.6870232,-238.2137451
7820,0.9265513,0.9145803,9.8832140,-5.0000000,6.7328243,-2.6259542,0.0383070,5.4802995,-0.8714849,-72.8854980,28.9007626,-246.9160309
7830,0.8259954,0.9385223,10.0460186,-3.2061069,7.4656487,-2.5572519,-2.5785420,5.2648225,0.3375807,-75.6641235,26.2671757,-247.3816833
7840,0.6703730,1.0821736,9.9478569,-2.5343511,7.2366414,-0.5496183,-5.1858144,5.0373745,1.4221486,-73.1679382,28.0610695,-239.8015289
7850,0.6440369,0.9385223,9.9167328,-2.9236641,7.4809160,1.6946565,-8.2647419,4.8506279,2.0901275,-68.1068726,40.1068687,-224.9770966
7860,0.5889706,1.0342898,9.9167328,-4.1832061,8.3664122,3.9847329,-12.1241751,4.8937230,2.7748656,-60.9389305,68.0076370,-198.9847260
7870,0.5793939,1.1420283,9.7850523,-4.5877862,6.1221375,5.0076337,-17.4344883,4.9703374,3.5697365,-51.4351158,106.9694672,-159.7099304
7880,0.6655847,1.1563935,9.8018112,-4.1755724,3.6259542,4.8854961,-19.6131992,5.5162125,4.4292507,-41.2519073,135.6564941,-106.4961853
7890,0.6967092,1.1683644,9.8856087,-3.4427481,2.2977099,4.8167939,-19.6131992,5.9974446,5.2073622,-31.6488552,130.4351196,-45.1374054
7900,0.7421987,1.2066715,9.8018112,-3.3893130,1.4198474,5.0152674,-19.6131992,5.7676024,5.7412663,-22.9847336,107.7404556,10.4580154
7910,0.7062859,1.1372399,9.8880024,-4.1603055,-0.6335878,5.8244276,-19.6131992,5.1690550,6.5385313,-11.8854961,74.9694672,98.2442780
7920,0.9026094,1.0773853,9.9526453,-2.8931298,1.1832061,5.5801525,-15.3012648,4.5106530,8.7004843,30.3740463,-17.1984730,149.9694672
7930,0.8786675,1.0941446,9.9981356,-2.8473282,1.5725191,5.6793895,-12.5838594,4.6016321,8.1809454,50.0152664,-50.6335869,151.8778687
7940,0.9433106,1.1492109,9.9478569,-2.5877862,2.0381680,5.7557254,-10.0388365,4.8027439,6.9646969,69.2671738,-72.8473282,151.3740387
7950,0.9193687,1.1659702,9.7658987,-3.6946564,5.0076337,3.8396947,-0.1292862,8.1498213,-2.6192431,81.1755753,-100.9160309,152.7938995
7960,0.5889706,1.1324517,9.8640604,-1.7022901,2.1832061,3.6106870,11.3173332,10.1082678,-7.2998838,34.9160309,-11.8625956,168.5648804
7970,0.8547257,1.0390782,9.8233595,-2.0381680,2.3206108,4.2977099,19.6126022,9.9310980,-6.9958215,9.9007635,71.7328262,98.5419846
7980,0.8355721,1.0486550,9.8065996,-2.7786260,2.8015268,4.8015265,19.6126022,9.9622221,-6.6366930,-1.6717557,57.6641235,50.6870232
7990,0.8092360,1.0989330,9.8856087,-2.1145039,1.5954199,3.8778627,19.6126022,9.1601686,-5.9112539,-37.7099228,-10.0229006,-53.0534363
8000,0.8427547,1.0630201,9.8664551,-1.8625954,0.2595420,3.4656489,19.1080265,8.6669655,-4.7859845,-46.3282433,-12.5343513,-97.1221390
8010,0.8379663,1.0606259,9.8640604,-1.1755725,-0.2900763,3.0687022,16.3786507,8.1929159,-4.1682839,-48.7938919,-6.3740458,-130.2671814
8020,0.7996593,1.0582317,9.9430685,-0.6870229,-1.1450381,2.4732823,13.6492739,8.0061693,-3.8235207,-50.6335869,1.1068702,-154.5190887
8030,0.9073978,1.1085097,9.8592720,-0.1908397,-1.4427481,2.1297710,10.8576488,7.9104018,-3.4811516,-53.2900772,4.2290077,-171.0000000
8040,0.9073978,1.2066715,9.7347746,-0.3587786,1.9083970,0.7099237,6.5361371,6.6606350,-2.8562679,-55.4198456,24.3664131,-194.9541931
8050,0.9217629,1.0366840,9.7036495,-1.1679389,1.4503816,0.2213740,5.4108682,6.1219425,-2.9233053,-56.3053436,28.1297703,-203.9389343
8060,0.8092360,1.1539993,9.8281479,-1.7328244,-0.0381679,-0.1297710,4.5920553,5.4874821,-3.1172347,-61.4122124,23.3587780,-217.1679382
8070,0.7876883,1.0582317,9.8377247,-0.9389313,-0.7251908,-0.9465649,3.4619980,5.1475072,-2.7557120,-71.9618301,8.4732828,-234.0381622
8080,0.6727672,1.0175306,9.8784256,-1.5114504,-0.2061069,-0.9618320,2.5162930,4.8554163,-1.7477583,-83.3893127,-8.3435116,-250.1374054
8090,0.5434810,0.9552816,9.9646168,-1.8396946,-0.5648855,0.3053435,0.7206510,4.7476778,-0.3567342,-88.7404556,-19.4427490,-250.1374054
8100,0.5291159,0.8834559,9.8760319,-2.0000000,-0.5877863,1.4351145,-0.9313397,4.9870968,0.7972651,-88.1374054,-21.1755733,-250.1374054
8110,0.5865764,0.7876883,9.9310980,-1.5877863,-2.2442749,2.3664122,-3.0597742,4.5010762,1.4460905,-80.8091583,-17.2442741,-250.1374054
8120,0.8044477,0.9289455,9.9837704,-0.5267175,-2.8396947,2.7022901,-5.9782910,4.1443419,1.3886299,-69.6717529,4.7251906,-250.1374054
8130,0.8690908,1.0510491,9.8568783,-0.8244275,-1.9312977,2.4656489,-9.9885588,4.3574247,0.8427547,-60.3969460,40.9847336,-250.1374054
8140,0.9289455,1.0534433,9.8520899,-1.1908396,-2.5343511,1.5801526,-13.6612453,4.3095412,0.7278336,-53.6030540,83.6106873,-213.3053436
8150,1.0055596,1.0821736,9.9263096,-0.9007633,-2.5572519,0.3282443,-15.2126799,5.0230093,1.1707586,-47.2061081,129.0000000,-167.8778687
8160,0.9409165,1.0558375,9.9215212,-0.0992366,-3.6335878,-1.4580153,-16.5246964,4.8961172,1.5993185,-39.1984749,158.9923706,-119.2290039
8170,0.8044477,0.9935886,9.9885588,0.0458015,-4.2137403,-1.6946565,-15.9069948,4.8937230,1.9321109,-31.0610695,179.1374054,-73.6717529
8180,0.6823440,0.9792235,9.9143381,-0.0534351,-5.2290077,-1.3587786,-14.1879663,4.8218975,2.0901275,-21.8244267,184.6793823,-43.0000000
8190,0.6847382,0.9888002,9.8999729,-0.0916031,-6.5954199,-0.6946565,-11.3149395,4.6997938,1.7645177,-15.5877867,172.5038147,-29.3358784
8200,0.7086801,0.9600700,9.9382801,-0.0076336,-6.6412215,-0.0152672,-9.9765873,4.7955613,1.6400198,-16.8549614,142.2671814,-35.7328262
8210,0.6847382,1.0917504,9.8329363,0.1450382,-6.9007635,0.3282443,-10.1298151,5.0828643,1.9512644,-27.3511448,87.4122162,-51.1908379
8220,0.6871324,1.1731528,9.8856087,0.0992366,-6.7404580,1.1374046,-11.0827026,5.3965030,2.8371146,-39.1145020,27.6870232,-66.2519073
8230,0.7757174,1.0630201,9.9119444,0.2137405,-6.5801525,1.3129771,-12.5814657,5.2767935,3.9336534,-45.6183205,-11.4427481,-72.5190811
8240,0.8212070,1.1324517,9.9143381,0.2213740,-6.9770994,1.3511450,-14.9134064,5.6742291,5.0038562,-42.6717567,-24.9312973,-66.2824402
8250,0.8140244,1.1683644,9.8281479,0.2213740,-6.5267177,2.1450381,-17.4871597,5.4731169,5.4970589,-32.7786255,-25.0076332,-44.2442741
8260,0.9026094,1.1420283,9.8209648,0.3053435,-6.8473282,1.9236641,-19.6131992,6.6151457,5.8490047,-19.2519093,-16.9160309,-8.4809160
8270,1.0007712,1.1947005,9.8568783,0.2900763,-6.0687022,1.8702290,-19.6131992,6.3350253,6.0046272,-3.8473282,-2.1374047,39.0916023
8280,1.0390782,1.0989330,9.8616667,-0.1679389,-4.7709923,2.0229008,-16.3379498,5.9878678,5.6359220,33.7480927,13.2061071,112.0076370
8290,1.1109039,1.1899122,9.8544836,-1.1526718,-1.8091604,1.1832061,-7.8337879,6.5744443,2.3989778,62.0992355,-28.0534344,155.1145020
8300,1.1156923,1.0510491,9.8281479,-1.2061069,-0.8702290,1.1221374,-6.3637557,6.6558466,1.8938038,60.7557259,-41.6793900,151.7709961
8310,1.1539993,1.1109039,9.9789820,-0.6488550,-0.5648855,1.1145039,-5.2720051,7.0628591,1.5729824,60.7175560,-50.6183205,148.1068726
8320,1.1372399,1.1659702,9.8616667,-0.0687023,-0.4580153,0.7404580,-4.1323709,7.1777802,0.5865764,60.6106873,-58.5496178,143.1068726
8330,1.0749911,1.1420283,9.8377247,-0.0381679,-0.6335878,0.5038168,-3.5745249,7.4746594,0.1412572,58.8015251,-56.2442741,138.7022858
8340,1.0462608,1.0893562,9.7754755,-2.4045801,2.1908398,-0.2442748,-4.4507980,9.6006994,-0.2250538,49.1832047,-51.6641235,138.9313049
8350,1.0103480,1.0965388,9.7682934,-2.8167939,1.5877863,-0.5725191,-4.4723458,9.4307127,-0.5865764,43.2519073,-46.0610695,145.7709961
8360,0.9600700,1.0749911,9.8903971,-3.1526718,0.5801527,-0.9083970,-4.6351509,8.8010406,-0.8882443,38.4274826,-40.9694672,155.1297760
8370,0.7613522,0.9457048,9.9717989,-2.8473282,-0.6488550,-1.0076336,-4.4100971,8.3748751,-1.1037214,34.3206100,-40.7480927,164.4122162
8380,0.7469871,0.9289455,10.0029240,-1.9312977,-2.3893130,-0.7175573,-4.1611013,8.1977043,-1.1204807,31.0152664,-43.1221390,173.1145020
8390,0.6248835,0.9193687,9.9837704,-1.3053435,-3.1297710,0.7099237,-3.9863255,7.9941988,-1.0702027,29.3282452,-49.8015251,180.5038147
8400,0.6775556,0.8882443,9.8449068,-1.6641221,-3.1145039,2.4274809,-4.0030847,7.9295554,-1.5059452,29.3893127,-64.7938919,186.5648804
8410,0.8164186,0.9289455,9.8425131,-2.0458016,-3.9389312,3.4427481,-4.1084290,7.9175844,-3.0382264,28.6793900,-85.6106873,193.6564941
8420,1.0079538,0.9552816,9.9837704,-1.1221374,-4.8702292,3.1755726,-3.2058196,7.7452030,-4.6590929,21.4580154,-103.2671738,207.2290039
8430,1.0989330,1.0151364,9.9765873,-0.2519084,-5.1832061,2.8625953,-2.2289903,7.8936424,-5.7723908,7.0229006,-107.8091583,229.0458069
8440,1.2162483,1.0845678,9.9622221,0.3969466,-5.6030536,2.0000000,-0.1628049,7.1298962,-5.3414369,-14.1984730,-90.0457993,250.1297760
8450,1.2401901,1.0893562,9.8473015,0.8931298,-5.8854961,1.0458015,2.3391230,6.7013364,-3.9144998,-26.2137413,-71.3511429,250.1297760
8460,1.2330076,1.1492109,9.7994175,1.0992366,-5.7557254,0.2213740,5.8537931,6.0309634,-1.8147956,-25.0000000,-59.8244286,250.1297760
8470,1.2138541,1.0797794,9.8257532,0.7328244,-5.1755724,-0.5801527,6.3805151,5.9136481,-0.6655847,-16.7862587,-78.1145020,219.8549652
8480,1.0079538,1.0462608,9.7515335,0.2900763,-4.4045801,-0.6259542,6.4930420,6.8114691,-0.1484398,-13.0229006,-105.5496216,194.9313049
8490,1.0702027,1.1204807,9.7754755,-0.2671756,-4.0000000,-0.1603053,6.7827387,6.7013364,0.0047884,-13.0229006,-118.0457993,183.9007568
8500,1.1947005,1.1372399,9.7970228,-0.6412213,-3.2900763,0.0916031,6.9646969,6.7755561,-3.4260850,47.7786255,-19.3358784,147.9084015
8510,1.0989330,1.0510491,9.8185711,-0.9312977,-2.5190840,-0.1755725,6.5672617,6.9862447,-4.0701222,31.5038166,-31.0687027,141.7938995
8520,1.0989330,1.0630201,9.7730818,-1.2213740,-2.5725191,0.0839695,7.1346846,6.9383612,-4.2784166,17.5419846,-56.6641235,132.5343475
8530,1.1204807,1.0869620,9.8113880,0.2366412,-3.7328243,1.4656489,8.2120695,7.1658092,-3.7205703,-3.1755726,-42.8396950,91.1603088
8540,1.1252691,1.0965388,9.8568783,0.2290076,-2.9389312,1.7251909,8.7986460,7.1346846,-3.7995787,-5.7557254,-33.9541969,87.2213745
8550,1.2306134,1.1803354,9.7587166,0.0534351,-2.5267177,1.9541985,9.4546537,7.2041159,-3.6271970,-9.0992365,-26.5190830,80.7786255
8560,1.2832855,1.0941446,9.7467451,-0.1908397,-1.9541985,1.9923664,10.8025827,7.0628591,-3.1627243,-10.5801525,-19.7862587,72.4580154
8570,1.2473727,1.0965388,9.8305416,-0.5648855,-0.1374046,0.2900763,17.0202923,7.2998838,-4.6638808,-16.4961834,52.6793900,-52.2824440
8580,1.2737088,1.0438666,9.9550400,-0.3435115,0.5267175,-0.0992366,16.4863892,7.4411407,-4.7596488,-28.9083977,60.4503822,-90.6183243
8590,1.2042773,1.0845678,9.8018112,-0.1526718,0.8702290,-0.2061069,15.5335016,7.2783360,-4.3286943,-43.3511467,52.8549614,-128.7633514
8600,1.2138541,1.1180865,9.8999729,0.0305344,1.0000000,-0.2366412,14.7817259,6.9407554,-3.6439564,-57.6870232,40.9083977,-164.9618378
8610,1.1611819,0.9672526,9.7180147,-1.1984733,0.5267175,0.1374046,13.6540623,6.4571290,-3.0023136,-68.0076370,39.2290077,-198.7328186
8620,1.1085097,1.0941446,9.7922344,-1.2977099,-0.2671756,0.0992366,12.2989511,5.9423780,-2.4731977,-72.3435135,46.4732819,-227.1603088
8630,1.1156923,0.9313397,9.8640604,-1.5572519,-1.3511450,-0.0305344,10.8001890,5.3174949,-1.9297167,-73.0076370,54.0305328,-250.1374054
8640,1.0558375,1.0055596,9.9502516,-1.1755725,-1.7404580,0.4198473,9.1960821,5.0182209,-1.6400198,-72.0229034,56.6106873,-250.1374054
8650,1.1923064,0.9983770,9.9430685,-0.8396947,-1.6106870,1.1984733,7.8218169,4.6399393,-1.4149660,-72.8778610,54.9771004,-250.1374054
8660,1.1994889,1.0558375,9.8137827,-0.7099237,-1.7709924,1.2366412,6.6510582,4.2185616,-1.1348459,-73.9236679,53.1145020,-250.1374054
8670,1.2808913,0.9720409,9.7371683,-0.9770992,-1.9312977,0.7175573,5.0613165,4.0892754,-0.7445929,-76.9618301,48.9771004,-250.1374054
8680,1.2138541,1.0462608,9.8880024,-0.5038168,-2.4045801,-0.4656489,3.3398943,3.7876077,-0.1005560,-80.7404556,35.9083977,-250.1374054
8690,1.2258250,1.0582317,9.8568783,-0.1068702,-2.4580152,-0.6870229,1.6543850,3.8426740,0.5171449,-82.5114517,17.4427490,-250.1374054
8700,1.1779412,1.0917504,9.7826586,-0.1832061,-2.0076337,-0.7404580,0.2466015,4.0773048,0.8571198,-84.6259537,-5.7099237,-250.1374054
8710,1.1468167,1.1228749,9.8712435,0.1450382,-1.5877863,-0.6030535,-1.1683644,4.1970143,1.2138541,-90.0610657,-35.7175560,-250.1374054
8720,1.1492109,1.1659702,9.7922344,-0.0458015,-0.7557252,-0.2366412,-1.7118455,4.2353210,1.1372399,-97.3435135,-75.5190811,-250.1374054
8730,1.1252691,1.1420283,9.7491398,-0.2748092,-0.5801527,0.0763359,-1.2976507,3.7660601,1.5514348,-105.2442780,-92.7786255,-250.1374054
8740,1.1803354,1.1276633,9.8161764,-0.6564885,-0.3816794,0.7175573,-1.9297167,3.5386121,2.4588325,-106.4198456,-88.8244247,-250.1374054
8750,1.2066715,1.1013272,9.8257532,-1.1755725,-0.4503817,0.9160305,-3.3375001,3.5242469,2.9328821,-103.1984711,-87.7480927,-250.1374054
8760,1.1994889,1.0989330,9.8544836,-0.7557252,0.0458015,0.9847328,-4.8171091,3.7995787,2.9879484,-103.8702316,-90.5114517,-250.1374054
8770,1.2330076,1.0773853,9.8688488,-0.7328244,-0.0305344,1.0534351,-5.8849177,4.0198441,3.2106080,-111.6259537,-98.9083939,-250.1374054
8780,1.2234308,1.0247130,9.8736372,-0.4961832,0.4427481,1.0763359,-6.0812411,3.4356618,3.9911139,-119.9542007,-112.3206100,-250.1374054
8790,1.2665262,0.9888002,9.8832140,-0.7786260,0.2748092,0.8702290,-6.5959921,3.0525916,4.8266859,-123.0000000,-117.4809189,-250.1374054
8800,1.2832855,1.0127422,9.8688488,-0.7480916,0.2595420,0.7709923,-8.6478119,2.8299320,5.6215568,-120.9542007,-105.2137375,-250.1374054
8810,1.2521610,1.0702027,9.8927908,-1.0000000,-0.1679389,0.1908397,-11.7698355,3.0549858,6.4930420,-114.2900772,-77.6946564,-250.1374054
8820,1.2018831,1.0630201,9.8664551,-0.7633588,-0.7709923,0.0305344,-14.9062233,3.2776453,7.3525558,-102.4580154,-45.5954208,-244.8396912
8830,1.1611819,1.0438666,9.8616667,-0.7404580,-1.0610687,-0.2671756,-19.6131992,4.1946201,7.8816719,-85.5419846,12.8244276,-185.5572510
8840,1.1516051,1.0510491,9.8999729,-0.2900763,-1.7557251,-0.5725191,-19.6131992,5.1187773,8.6454182,-63.9312973,84.5648880,-93.1221390
8850,1.1061156,1.0917504,9.9741936,-0.2519084,-1.9312977,0.1145038,-19.6131992,5.3581958,9.6533718,-38.8549614,127.1068726,14.9770994
8860,1.1492109,1.0941446,9.8736372,0.2213740,-2.1221373,0.5267175,-19.6131992,5.1953912,10.2447367,-9.7633591,155.7862549,107.0839691
8870,1.1348459,1.1324517,9.7874460,0.2137405,-2.3969467,0.6564885,-19.6131992,3.9599893,10.0292597,17.4274807,171.5877838,181.5648804
8880,1.2090657,1.0773853,9.8903971,-0.0229008,-2.9389312,1.0229008,-18.4855366,3.5194585,9.2415714,39.5648842,173.4961853,221.8931274
8890,1.2784972,1.0893562,9.8329363,-0.0534351,-3.1374047,1.3435115,-16.2206345,3.8354914,8.1474266,52.3511467,159.6259613,241.2061005
8900,1.3000449,1.1396341,9.7635050,0.2824427,-2.6946564,1.2290076,-14.0251617,4.2113791,6.6079631,53.7251892,126.8854980,250.1297760
8910,1.4580613,1.1228749,9.8736372,-0.0992366,0.1908397,-0.0381679,-10.9294748,4.9823084,4.8242917,42.5419846,64.7404556,250.1297760
8920,1.3144100,1.1683644,9.8832140,0.4503817,2.6183207,-0.6870229,-9.9717989,5.6263452,4.3909435,42.7480927,63.7404594,250.1297760
8930,1.2856797,1.1683644,9.8113880,0.3969466,3.3282442,-0.0916031,-9.7251978,6.0022330,4.4364328,46.2671738,65.5725174,250.1297760
8940,1.0295014,0.9409165,9.9430685,-0.5877863,-0.0763359,-0.9770992,2.1236460,4.1084290,-0.3974355,48.8320618,44.2213745,250.1297760
