timestamp,rxacclX,rxacclY,rxacclZ,rxgyroX,rxgyroY,rxgyroZ,txacclX,txacclY,txacclZ,txgyroX,txgyroY,txgyroZ
0,0.6919208,1.3383518,9.9095497,2.5343511,-7.9312978,3.2366412,-1.0486550,2.1643472,10.0268650,7.6412215,2.7328243,0.5038168
10,0.7469871,1.3359578,9.8640604,2.8015268,-6.7404580,4.3740458,-1.0893562,2.1835008,10.0915089,5.8854961,0.5419847,-0.2061069
20,0.8427547,1.3670821,9.6988611,3.1755726,-7.1221375,4.8854961,-1.1324517,2.2505381,10.0268650,4.4885497,-1.1679389,-0.2442748
30,1.0151364,1.4413021,9.8305416,3.1374047,-7.5801525,5.0687022,-1.1420283,2.3103929,10.1657286,3.5648854,-1.9694656,-1.0229008
40,1.1348459,1.4413021,9.7395630,2.9847329,-6.8244276,4.8625956,-1.3598996,2.2577207,10.3572636,3.7709923,-1.0610687,-0.0687023
50,1.2354017,1.5322813,9.7204094,2.4580152,-6.1221375,3.5496182,-1.3527170,2.2337787,10.4889441,4.6870227,-1.1145039,1.4809160
60,1.2976507,1.4006008,9.7156210,1.8167939,-6.1603055,2.2137403,-1.2689204,2.2816625,10.5775290,5.8702292,-1.2519084,2.4580152
70,1.3024391,1.3982066,9.7299862,0.4351145,-5.3816795,1.1984733,-1.1061156,2.4348907,10.4554253,6.8549619,0.6106870,1.1755725
80,1.3096216,1.3958124,9.6102762,-0.4961832,-4.3969464,0.3511450,-1.1372399,2.4731977,10.5392218,8.0992365,4.6183205,1.8396946
90,1.1755470,1.3862357,9.6318245,-0.6335878,-4.9694657,-0.4198473,-1.1731528,2.2888451,10.4410601,9.2061071,8.0534353,2.0763359
100,1.0773853,1.3982066,9.7299862,-0.9618320,-6.4274807,-1.3129771,-1.2473727,2.2649033,10.2758608,9.6946564,8.5725193,1.9618320
110,1.1659702,1.6041069,9.7682934,-1.3893130,-6.5343513,-2.0381680,-1.2545552,2.3199697,10.1848822,9.3740454,8.0916033,2.0076337
120,1.1707586,1.4843974,9.8233595,-1.9312977,-5.1297708,-3.0458016,-1.1970947,2.3486998,10.0316534,8.3435116,6.1145039,1.4809160
130,1.0366840,1.4867916,9.7730818,-1.3129771,-4.2977099,-4.0839696,-1.1444225,2.3941894,9.9023676,6.5419846,4.8396945,0.3664122
140,0.9600700,1.4724265,9.7994175,-1.8015267,-3.0534351,-3.3969467,-1.2449785,2.3223639,9.8616667,4.4580154,4.0610685,0.1145038
150,0.9792235,1.3455344,9.8425131,-1.4198474,-1.6412214,-3.4809160,-1.2784972,2.2074428,9.9598284,2.5267177,1.1832061,0.2900763
160,0.8451489,1.3934183,9.7826586,-1.2900764,-0.6793893,-3.0152671,-1.1085097,2.3702476,9.8568783,1.0305344,-2.9770992,-0.4961832
170,0.8427547,1.3407460,9.7826586,-1.2442749,-0.6412213,-2.1374047,-1.1132981,2.4061604,10.1465750,-0.3664122,-4.3435116,-1.6335878
180,0.8355721,1.2569494,9.8329363,-0.6259542,-1.5877863,-1.6183206,-1.1851238,2.4061604,10.2998028,-0.6488550,-3.2366412,-2.9770992
190,0.8427547,1.3311694,9.8712435,-1.0916030,-0.6335878,-0.2519084,-1.3072275,2.4181314,10.7738523,3.0152671,2.4045801,-2.2519083
200,0.8523315,1.4173602,9.8281479,-1.2900764,0.0992366,0.3664122,-1.2808913,2.4588325,10.6158361,5.2061067,5.0916033,-2.6030533
210,0.9504932,1.3431402,9.7754755,-1.4732825,-0.6412213,0.7862595,-1.1755470,2.3989778,10.4865494,7.0000000,7.5877862,-3.3969467
220,0.9983770,1.4029950,9.8712435,-1.4580153,-1.3587786,0.4274809,-1.1252691,2.4396791,10.3213511,8.5419846,9.0458012,-3.8244274
230,1.0271072,1.4006008,9.8496952,-0.5725191,-1.3740458,0.2519084,-1.1899122,2.4253139,10.1824875,8.9465647,8.9770994,-4.0000000
240,1.0390782,1.4436963,9.8018112,-0.2442748,-1.1374046,0.2213740,-1.0845678,2.4468615,9.8592720,8.0076332,6.0916033,-5.2290077
250,1.1635761,1.4604555,9.7850523,-0.3282443,-1.0534351,0.2137405,-1.1516051,2.4779861,9.8018112,6.0305343,3.2366412,-6.6106873
260,1.1851238,1.4006008,9.7371683,0.1450382,-1.1908396,0.0229008,-1.3527170,2.5785420,9.7730818,3.9312978,1.1603054,-7.2290077
270,1.1180865,1.3766589,9.7515335,0.1603053,-1.3358779,-0.1450382,-1.5370697,2.6192431,9.7970228,1.0687023,-0.9923664,-6.5648856
280,1.1109039,1.3527170,9.7180147,-0.2519084,-0.9770992,0.0763359,-1.5801650,2.4444675,9.8999729,-1.1603054,-2.5267177,-6.5038166
290,1.1731528,1.2928623,9.7228031,-0.4580153,-2.0534351,-0.4580153,-1.7286048,2.4851687,10.0747490,-2.0076337,-2.3358779,-5.9694657
300,1.1539993,1.4843974,9.8305416,-1.0229008,-1.1832061,-0.2061069,-1.7190280,2.4803803,10.2399483,-2.2519083,-2.8091602,-4.1603055
310,1.1563935,1.3575054,9.7874460,-1.1908396,-0.9847328,-0.8549618,-1.6735384,2.4444675,10.4913378,-1.4427481,-1.6793894,-2.3435113
320,1.1109039,1.3838415,9.7874460,-1.4809160,-1.0229008,-0.8091603,-1.6232605,2.3702476,10.5535870,-0.2900763,-0.7862595,-1.4274809
330,1.0773853,1.3742647,9.7563219,-1.2748091,-2.7938931,-0.8091603,-1.4053892,2.3917952,10.5966825,1.8015267,1.0229008,-1.3587786
340,1.0366840,1.4293311,9.8137827,-1.1068702,-4.1221375,-1.5801526,-1.4197544,2.3702476,10.4793673,3.7557251,2.8320611,-1.0534351
350,1.0103480,1.3766589,9.7826586,-0.8778626,-4.4351144,-1.8320611,-1.4077834,2.3941894,10.3764172,4.5572519,4.4656487,-1.2671756
360,0.9768293,1.4413021,9.7180147,-0.8320611,-4.5419846,-1.2595420,-1.5179161,2.4229198,10.2878323,5.3053436,5.3893127,0.0305344
370,0.9983770,1.3622938,9.7347746,-0.3893130,-4.2748094,-1.3282443,-1.4652439,2.3415172,10.0532017,5.0458016,5.2977099,-0.6641222
380,0.9888002,1.3383518,9.8832140,-0.7786260,-3.5114503,-1.0229008,-1.5610116,2.3774302,9.9670105,4.1526718,3.8473282,-0.5343512
390,0.9959828,1.3383518,9.7922344,-1.1145039,-2.3740458,-0.8702290,-1.6208663,2.4444675,9.7419567,1.8320611,1.1068702,-0.7099237
400,1.0390782,1.4245427,9.8233595,-0.8854962,-2.6946564,0.1679389,-1.8674678,2.5138988,9.7563219,-6.6335878,-8.5954199,-0.9083970
410,0.9792235,1.3646880,9.8353300,-0.3587786,-5.1755724,0.8778626,-1.6280488,2.7724714,9.5719690,-12.0992365,-13.2595415,-2.5572519
420,1.0438666,1.4053892,9.8736372,-0.2137405,-5.1068702,1.2290076,-1.6567791,2.8658447,9.4762020,-15.2519083,-15.4274807,-4.7633586
430,1.0007712,1.3575054,9.8688488,1.2977099,-5.0000000,1.9083970,-1.8411317,2.4803803,9.0524302,-25.9923668,-23.2366409,-10.9389315
440,1.1324517,1.3910241,9.8089943,1.5496184,-3.4045801,2.7022901,-1.8626794,2.4660151,8.9159613,-34.4656487,-29.2595425,-12.3129768
450,1.3000449,1.4101776,9.6844959,1.4809160,-1.5648855,3.4122138,-1.9321109,2.4971397,8.8249826,-45.8244286,-31.2900772,-12.5648851
460,1.3215926,1.5059452,9.5863342,0.5190840,-0.8549618,3.7862597,-2.0278785,2.5617826,8.7555504,-59.3129768,-32.1755714,-13.6259546
470,1.4867916,1.5083394,9.6773138,-0.5877863,0.0992366,3.3435113,-2.0733681,2.4372849,8.5544386,-73.3740463,-33.8549614,-14.5725193
480,1.5705882,1.4173602,9.6844959,-1.1755725,-0.0992366,1.6946565,-1.9704180,2.2361729,9.0021524,-87.8549652,-40.6335869,-13.8320608
490,1.5274929,1.5250987,9.7395630,-1.2290076,-0.1984733,0.2061069,-2.1140692,2.0733681,9.6414013,-97.4885483,-44.2748108,-11.7404585
500,1.3790531,1.4939742,9.7515335,-1.5725191,-0.6030535,-0.9923664,-2.3463056,1.9033806,10.4195127,-101.7862625,-44.1984749,-6.6564884
510,1.3263810,1.4772149,9.7898407,-2.7786260,0.8549618,-0.7709923,-2.4301023,1.7908537,11.0803089,-104.7938919,-42.8015251,2.7786260
520,1.2138541,1.3766589,9.7778702,-3.3282442,1.3053435,-1.4885496,-2.2289903,1.4843974,12.0355902,-104.6641235,-25.7709923,12.8244276
530,1.1468167,1.4029950,9.8018112,-3.1679389,1.4351145,-1.4427481,-2.5426292,0.9193687,13.5463238,-97.7480927,-9.9541988,23.8625946
540,1.0318956,1.3838415,9.8329363,-3.3587787,1.0916030,-1.3511450,-2.1284344,0.3902529,14.3268299,-83.6793900,-1.8702290,32.4427490
550,1.1061156,1.3575054,9.8832140,-2.4351146,-0.4732825,-1.4809160,-1.6495966,0.2106887,14.3172531,-69.9847336,10.1068707,37.9465637
560,1.0127422,1.3910241,9.8616667,-1.8320611,-1.0992366,-1.5343511,-1.1372399,0.2059003,13.8096848,-57.1755714,28.8549614,42.7633591
570,1.0678085,1.2449785,9.8712435,-1.3587786,-1.4351145,-1.0687023,-0.4716553,0.1005560,12.5910425,-46.0152664,73.2061081,47.9236641
580,1.0127422,1.1635761,9.8832140,-1.1526718,-1.7251909,-0.5496183,-0.7948709,0.4501076,11.5591469,-42.9771004,139.4732819,52.5038185
590,1.0366840,1.3670821,9.8233595,-0.5954198,-1.9770992,-0.2290076,-1.8195840,0.5674229,10.9917240,-46.3587799,184.8931274,53.7404594
600,0.9648584,1.3215926,9.8832140,-0.7480916,0.2366412,0.8320611,-2.7269819,-0.1675933,10.9725704,-48.8015251,186.5572510,50.0992355
610,1.1037214,1.3431402,9.7419567,-1.3358779,-1.2442749,0.9465649,-3.7253587,-0.3950413,11.5567522,-47.5496178,144.9541931,42.6412201
620,1.1013272,1.3766589,9.7395630,-1.4732825,-1.2366412,1.0610687,-4.4795284,-0.5554519,12.2486734,-43.4045792,68.0152664,35.9465637
630,1.2425843,1.4365137,9.8161764,-1.1145039,-0.3587786,0.7709923,-3.4045374,-0.5243275,12.3061342,-33.4732819,-16.1603050,27.8625946
640,1.2210367,1.4029950,9.7994175,-1.1221374,0.0229008,-0.0458015,-2.1667414,-0.0119709,11.6237898,-22.5038166,-73.0534363,19.0458012
650,1.1276633,1.3694763,9.8377247,-1.1221374,-0.2671756,0.2213740,-1.3431402,0.1891410,10.9605989,-15.7557249,-93.9312973,14.6870232
660,1.0797794,1.2880739,9.8281479,-1.1374046,-1.2519084,0.3511450,-0.5530578,-0.0430954,10.7331514,-15.5648851,-90.6946564,14.8702288
670,1.0366840,1.3191984,9.7730818,-0.3816794,-1.4351145,0.5725191,0.0981618,-0.1460456,11.1329813,-15.9541988,-63.7786255,15.9160309
680,0.9696468,1.3431402,9.7371683,-0.1450382,-0.9007633,1.8320611,0.7398046,-0.0694315,11.3149395,-8.8244276,-42.6793900,10.3740454
690,1.1204807,1.3168042,9.7635050,-0.6564885,-0.5496183,2.5496182,0.7110743,-0.2513899,10.9725704,1.6259542,-33.5572510,1.5954199
700,1.3096216,1.5610116,9.6964674,-0.2824427,-0.3587786,1.5648855,-0.4692611,-0.5554519,10.0460186,13.1832066,-24.4122143,-1.4427481
710,1.3646880,1.3383518,9.7754755,-0.4961832,0.7404580,1.0763359,-0.4740495,-0.1053443,9.3277617,15.5801525,-17.6870232,2.0000000
720,1.3527170,1.4077834,9.7347746,-0.6717557,0.9465649,0.8778626,-0.4070122,0.1101327,8.4203644,14.1145039,-11.6488552,6.4885497
730,1.2904681,1.3886299,9.7994175,-0.8702290,0.1908397,-0.0381679,-0.0191535,0.2394189,8.0420828,8.9618320,-1.5954199,9.4122133
740,1.2090657,1.3694763,9.7898407,-0.7938932,0.3511450,-0.4274809,-0.0909792,0.3160330,7.6925306,1.6946565,12.6183205,8.4885492
750,1.1037214,1.3407460,9.7635050,-0.8625954,-0.2290076,-0.8625954,-0.3040621,0.2322364,7.7739329,-4.7862597,22.5343513,7.0458016
760,1.0438666,1.3407460,9.8089943,-1.0916030,-1.1832061,-0.3511450,-0.4381367,0.3663110,7.9032192,-9.9083967,30.2900772,5.4122138
770,1.0127422,1.2856797,9.8281479,-0.7862595,-1.8473282,0.2900763,-0.6751614,0.4836263,8.1234846,-13.9541988,35.2442741,2.8549619
780,1.1659702,1.3503228,9.8592720,-0.3664122,-1.8091604,0.5725191,-1.0773853,0.6416427,8.4993725,-16.4122143,33.3206100,0.5038168
790,1.1109039,1.2976507,9.7874460,-1.0839695,-3.1832061,0.5801527,-1.7022687,0.5051740,9.3445215,-17.6641216,6.0839696,-2.6946564
800,1.1875180,1.3431402,9.8329363,-1.0229008,-2.6030533,0.3435115,-1.5825592,0.4908088,9.3469152,-16.2824421,9.3435116,-3.4580152
810,1.1994889,1.3575054,9.7898407,-0.2748092,-2.4656489,0.8778626,-1.9057748,-0.3112446,11.4777441,-20.2366409,-43.9847336,-12.1603050
820,1.2473727,1.3527170,9.7563219,-0.7862595,-1.9847329,0.5114504,-0.5362985,-0.8283895,12.1912127,-13.7786255,-93.8854980,-23.4274807
830,1.2234308,1.4700323,9.7635050,-0.2366412,-2.3206108,0.1450382,-0.2513899,-0.4261657,11.2862091,-2.9236641,-91.8320618,-34.2595406
840,1.2042773,1.4125718,9.7611103,-0.1221374,-3.0152671,-0.0916031,-0.5674229,-0.1915352,10.1824875,5.3206105,-56.1832047,-35.8473282
850,1.1396341,1.3646880,9.7443514,-0.1297710,-3.4580152,-0.0152672,-1.0702027,-0.1963235,9.3564920,5.2290077,-27.3282452,-34.1068687
860,1.1492109,1.2521610,9.8137827,-0.5190840,-3.4503818,0.2824427,-1.5729824,-0.4070122,8.8585014,-5.6412215,-16.0000000,-32.5419846
870,1.0462608,1.2713146,9.7395630,-0.4351145,-3.7938931,1.1374046,-2.1188576,-0.6129125,8.9686337,-20.5877857,-24.5954189,-32.2366409
880,1.1611819,1.3120158,9.7946291,-0.5648855,-3.4427481,1.4274809,-2.1811066,-0.8762733,9.3588867,-31.8244267,-37.8396950,-30.3587780
890,1.2042773,1.3503228,9.7587166,-0.2595420,-3.3358779,1.3969465,-1.8770446,-0.9864060,10.1082678,-39.0763359,-40.6412201,-28.7862587
900,1.2066715,1.3431402,9.8257532,-0.2061069,-2.9312978,1.6335878,-1.6352314,-0.8810617,10.8791971,-41.9160309,-34.0228996,-26.6335869
910,1.2042773,1.4556671,9.8257532,0.1755725,-3.0229008,1.9465649,-1.5442522,-0.8020535,11.5998478,-41.3129768,-25.7328243,-25.0458012
920,1.2425843,1.4580613,9.8209648,0.7938932,-2.3816793,2.6106870,-1.4508789,-0.8738791,12.3659887,-36.6641235,-18.1374054,-23.5954189
930,1.3455344,1.5346755,9.7251978,0.8854962,-1.2900764,2.9007633,-1.4915800,-0.9504932,12.8783455,-28.0916023,-14.5648851,-23.0916023
940,1.5538290,1.5011568,9.6677370,-0.2671756,0.2290076,2.4198472,-1.9560528,-1.0917504,13.3332415,-17.4961834,-19.2519093,-23.1374054
950,1.6424140,1.4867916,9.7611103,-0.8473282,1.7328244,1.9236641,-1.8339491,-1.0773853,13.4768925,-5.7938933,-32.6030540,-22.7328243
960,1.6831152,1.5777708,9.7467451,-0.0839695,1.1297710,-0.1526718,-1.1731528,-0.9361281,13.1153698,2.9236641,-41.7404594,-24.0610695
970,1.5274929,1.5562232,9.6964674,-0.6488550,0.9007633,-1.3816794,-0.6823440,-0.7158626,12.6748390,8.8167934,-53.5954208,-28.7633591
980,1.4317253,1.5322813,9.6916790,-2.9465649,2.1450381,-0.4656489,-0.5650287,-0.6991033,12.4473906,11.4427481,-63.2824440,-36.6564903
990,1.3551112,1.3383518,9.6988611,-4.6488547,2.6488550,-2.0076337,-0.7996593,-0.6919208,12.1169930,12.5038166,-69.3740463,-42.2290077
1000,1.1707586,1.3790531,9.7994175,-4.1145039,3.2213740,-2.4122138,-1.0702027,-0.6703730,11.4968977,10.8931293,-70.9542007,-45.3435097
1010,1.1396341,1.2952565,9.8520899,-3.5496182,2.9541984,-1.5496184,-1.0582317,-0.3280039,10.8528605,5.2977099,-63.6106873,-47.5038185
1020,1.1659702,1.2114599,9.8616667,-2.8244274,2.1526718,-1.1221374,-1.6304430,0.1053443,10.2758608,-4.5496182,-45.2061081,-48.6183205
1030,1.0797794,1.2665262,9.8927908,-2.1755726,0.8167939,-0.4427481,-2.8634505,0.2705434,10.5918941,-17.0305347,-30.6335869,-47.0763359
1040,1.1851238,1.2784972,9.8496952,-1.4580153,0.4732825,-0.2290076,-4.2401094,0.6655847,11.6405487,-26.9236641,-26.4351139,-40.1908379
1050,1.1923064,1.2737088,9.8640604,-1.0534351,-0.3816794,-0.1297710,-5.4156566,0.9193687,12.6963863,-31.9694653,-34.3282433,-28.7175579
1060,1.2952565,1.2473727,9.8688488,-0.4045801,-0.8396947,0.5190840,-6.3613615,0.8331779,14.2358503,-31.6335869,-46.9389305,-13.9465647
1070,1.2234308,1.2210367,9.7970228,-0.1297710,-0.3740458,-0.4198473,-6.4667058,0.2370248,15.1264887,-23.4503822,-53.9312973,4.8244276
1080,1.1875180,1.3072275,9.6940727,-0.6488550,-0.0687023,-0.2366412,-6.4020624,-0.2489957,15.6867294,-10.0610685,-39.7786255,25.6870232
1090,1.2138541,1.3838415,9.8018112,-1.0763359,-1.0839695,-0.4885496,-7.4148049,-1.0438666,17.0657825,31.5343513,46.0534363,81.8015289
1100,1.2138541,1.4029950,9.7419567,-0.9923664,-0.9541985,-0.7862595,-8.4945841,-1.2713146,18.1695042,59.0152664,99.6335907,122.9770966
1110,1.2330076,1.4125718,9.8209648,-1.0992366,-0.6641222,-1.0839695,-9.1170731,-1.7022687,18.8757896,89.6717529,148.3740387,171.7404633
1120,1.2473727,1.4053892,9.7922344,-1.3282443,0.0916031,-1.1068702,-8.5544386,-2.7820482,19.0816898,119.7099228,177.3129730,220.9541931
1130,1.1731528,1.3742647,9.8640604,-0.7862595,0.2290076,-0.9770992,-6.8449879,-4.0605454,18.9859219,148.0381622,198.8931274,250.1297760
1140,1.2545552,1.4269369,9.7275915,-0.7328244,0.4656489,-0.7099237,-4.6710634,-5.0086441,18.9524040,173.4961853,219.7480927,250.1297760
1150,1.2018831,1.3503228,9.7754755,-0.9312977,0.9923664,-0.1984733,-2.7509236,-5.7819676,18.7177734,198.6564941,244.3282471,250.1297760
1160,1.1444225,1.3766589,9.7036495,-1.2061069,0.9465649,0.0992366,-1.5274929,-5.8609757,18.4831429,224.7633514,250.1297760,250.1297760
1170,1.0702027,1.3503228,9.7874460,-1.4274809,1.4656489,0.7709923,-0.8092360,-5.8968887,17.8486824,250.1297760,250.1297760,250.1297760
1180,1.1228749,1.3311694,9.7323799,-1.5038168,1.3129771,1.2748091,-0.5817881,-5.8370337,16.9843807,250.1297760,250.1297760,250.1297760
1190,1.1492109,1.3838415,9.8161764,-1.2442749,1.3587786,1.7633588,-0.9504932,-5.0086441,15.9189653,250.1297760,250.1297760,250.1297760
1200,1.1923064,1.3646880,9.7850523,-1.3129771,1.2824427,1.2748091,-2.4181314,-4.0868812,14.1233234,250.1297760,250.1297760,250.1297760
1210,1.1539993,1.3646880,9.8760319,-0.4351145,1.4732825,2.1450381,-3.7205703,-3.2249732,12.7490587,250.1297760,250.1297760,250.1297760
1220,1.3383518,1.4077834,9.8951855,0.1221374,1.8320611,2.4656489,-5.3151007,-3.0166788,11.7075863,250.1297760,250.1297760,250.1297760
1230,1.4532729,1.4987626,9.7419567,-0.0763359,2.2824428,1.9160305,-6.2991123,-2.8131726,11.0946741,240.6564941,250.1297760,250.1297760
1240,1.5227045,1.5227045,9.7491398,-0.9160305,2.7175572,0.7099237,-5.3270717,-2.2840567,10.2950144,225.1450348,250.1297760,250.1297760
1250,1.6112895,1.4963684,9.6078825,-1.8625954,2.0458016,-0.6183206,-4.4795284,-1.9129574,9.4738073,212.7404633,250.1297760,250.1297760
1260,1.5586174,1.4532729,9.6318245,-2.6412213,1.3206106,-2.3358779,-3.3686244,-1.3096216,8.8393478,203.7557220,250.1297760,250.1297760
1270,1.5634058,1.3790531,9.7084379,-3.7633588,2.1068702,-3.5877862,-2.0757623,-0.3495516,7.7643566,195.0839691,250.1297760,250.1297760
1280,1.2832855,1.2689204,9.8592720,-4.0152674,1.0381680,-5.4427481,-0.8140244,0.4884146,6.4355812,185.8396912,250.1297760,250.1297760
1290,1.0893562,1.2066715,9.8113880,-3.1526718,1.9465649,-5.1374044,0.4644727,1.2114599,5.2289100,175.2824402,250.1297760,250.1297760
1300,1.0917504,1.1013272,9.8281479,-3.0152671,1.9847329,-3.8778627,1.9440818,2.3127871,3.9456241,162.0992432,250.1297760,250.1297760
1310,0.9959828,1.1659702,9.8927908,-3.0839694,1.4122137,-2.9847329,3.2321558,3.2656744,2.7413468,144.9847260,250.1297760,250.1297760
1320,0.8978211,1.1420283,9.8856087,-2.7175572,0.5725191,-1.9847329,4.8913293,4.0916696,1.4724265,125.8244247,250.1297760,250.1297760
1330,0.9959828,1.2234308,9.8329363,-0.9847328,-3.3053436,-1.4122137,7.5608501,4.8051381,-0.2130829,101.1297684,250.1297760,250.1297760
1340,1.1444225,1.2545552,9.9071560,-0.1068702,-4.3435116,-1.1755725,11.5160513,5.7532372,-2.0087249,69.4961853,214.7099304,250.1297760
1350,1.0582317,1.2976507,9.9287033,-0.1679389,-0.8167939,-1.1450381,14.4896345,6.9024482,-3.3375001,33.3129768,155.4885559,200.9847260
1360,0.9480990,1.2545552,9.7299862,-0.4961832,-2.0839694,-0.4580153,17.1040897,7.5225434,-4.4029145,-6.4122138,88.6641235,118.3587799
1370,1.0055596,1.1611819,9.7946291,-0.2748092,-2.7251909,-0.0305344,18.9859219,7.6566176,-5.0397687,-48.0839691,18.8015270,31.5496178
1380,1.0510491,1.3670821,9.7204094,0.8015267,-3.1145039,0.2824427,18.7249565,7.3908629,-4.6136031,-84.6717529,-41.6412201,-51.9312973
1390,1.0534433,1.3934183,9.8401184,0.8473282,-2.9770992,0.7251908,16.4121685,7.0053983,-3.3231349,-111.5496216,-79.8473282,-128.4961853
1400,1.0582317,1.3766589,9.7778702,0.5343512,-2.7862597,1.0000000,13.4266148,6.1722202,-2.5043221,-133.3129730,-102.0305328,-189.4427490
1410,1.0342898,1.4125718,9.7275915,0.8091603,-3.2442749,1.5954199,10.2231894,5.2073622,-1.3168042,-152.2366486,-122.2977066,-235.5648804
1420,1.1516051,1.4197544,9.7587166,0.8244275,-3.4580152,2.0610688,6.9120250,3.9552009,-0.1053443,-168.9160309,-150.3816833,-250.1374054
1430,1.0941446,1.4556671,9.6270361,0.8244275,-3.0763359,2.6106870,3.8402798,3.1651185,1.5083394,-182.8931274,-184.1221313,-250.1374054
1440,1.1779412,1.4245427,9.6821022,0.1832061,-2.9389312,3.1526718,0.0311245,1.8938038,3.9264708,-191.9313049,-193.2061005,-250.1374054
1450,1.2832855,1.3718705,9.7730818,-0.1984733,-1.6870229,3.4809160,-4.9703374,1.0295014,6.8689294,-185.4961853,-143.4045868,-250.1374054
1460,1.3670821,1.4173602,9.8305416,-0.4961832,-0.2671756,3.9160306,-12.8951044,1.6759326,11.5112629,-158.0992432,-29.5419846,-250.1374054
1470,1.4245427,1.4915800,9.7323799,-0.7862595,1.5572519,3.5801528,-19.6131992,1.3383518,15.4880114,-114.6335907,117.2595444,-179.0000000
1480,1.5634058,1.4484847,9.7156210,-0.8549618,2.1908398,2.0687022,-19.6131992,6.1123657,17.6810894,-59.6412201,206.3969421,-105.9083939
1490,1.5801650,1.4508789,9.7132263,-0.4732825,2.1145039,0.6793893,-19.6131992,7.5321202,16.2996426,0.9770992,190.1374054,1.5190840
1500,1.5418580,1.6328372,9.6342182,-1.5267175,3.2290077,0.4198473,-19.6131992,4.6782460,14.5782194,53.2061081,119.8091583,135.2977142
1510,1.6950861,1.3383518,9.6653433,-3.9847329,3.7557251,-0.9465649,-19.6131992,2.2361729,12.8855276,82.8167953,87.3053436,250.1297760
1520,1.6017127,1.1970947,9.8808203,-3.9236641,2.8015268,-4.0916033,-15.2461987,2.5881188,11.4466200,92.5190811,103.4427490,250.1297760
1530,1.2282192,1.2282192,9.7922344,-3.0534351,2.2213740,-4.3511453,-9.0308828,3.1890604,10.8696203,107.1297684,116.1297684,250.1297760
1540,1.0941446,1.1563935,9.8975792,-2.5572519,1.0229008,-3.5801528,-4.8697815,3.5984666,9.6749191,132.4503784,103.9542007,250.1297760
1550,1.0295014,1.0630201,9.8832140,-2.4045801,-0.2442748,-2.8091602,-0.8978211,4.9607606,6.4954362,145.5877838,81.9847336,250.1297760
1560,0.7589580,1.1468167,9.9071560,-1.8167939,-0.5038168,-1.0534351,0.2729376,6.8090749,2.8323262,140.1297760,53.8091621,250.1297760
1570,0.9313397,1.2282192,9.7946291,-0.1297710,-4.1145039,0.9923664,4.6495161,8.0971489,-1.1970947,107.0916061,-7.9236641,231.2900696
1580,1.1180865,1.2497669,9.6892843,-0.6183206,-4.6335878,1.6870229,8.0037756,8.2288294,-2.8275378,88.5496216,-40.6335869,205.4732819
1590,1.2090657,1.2761030,9.8353300,0.1984733,-6.3969464,0.1755725,11.8751793,8.8608952,-4.1802549,69.5114517,-63.8702278,170.9618378
1600,1.2545552,1.4053892,9.8113880,0.7938932,-6.1984735,-0.7633588,15.6172981,8.6310530,-5.3294659,51.0992355,-67.2290039,126.1603088
1610,1.2330076,1.3431402,9.8353300,1.0610687,-5.9083967,-0.6488550,18.1240139,8.8010406,-6.2392578,32.6564903,-54.3053436,75.0687027
1620,1.2665262,1.2928623,9.7658987,0.6412213,-5.7557254,-0.7404580,19.5006733,9.1673517,-6.8449879,10.1297712,-40.3206100,18.9389305
1630,1.2689204,1.3479286,9.6988611,0.7099237,-4.6717558,-0.1755725,19.6126022,9.2559366,-6.5864153,-14.7480917,-38.5572510,-37.4961815
1640,1.1875180,1.4915800,9.7228031,-0.0076336,-3.0534351,-0.0305344,18.7560806,9.1194677,-6.1482787,-41.7709923,-51.9312973,-94.8320618
1650,1.1492109,1.3886299,9.7802639,-0.1374046,-3.3511450,0.5190840,17.0538120,8.7699156,-4.9009056,-67.4274826,-72.2061081,-146.5190887
1660,1.1444225,1.4149660,9.6916790,-0.2900763,-2.9007633,1.7557251,14.6859579,8.2120695,-3.2537034,-86.4427490,-90.2671738,-189.3282471
1670,1.1827296,1.4676381,9.7658987,-0.6488550,-1.7251909,3.0687022,12.3995075,7.3238254,-1.6950861,-99.6259537,-98.7175598,-225.1297760
1680,1.3479286,1.4580613,9.6988611,-1.1603054,-0.5419847,3.4427481,9.9741936,6.4978304,-0.3208214,-107.7862625,-98.5496216,-250.1374054
1690,1.4700323,1.4389079,9.7658987,-1.2213740,1.2290076,3.0839694,6.9359670,5.4611464,1.0103480,-112.0152664,-90.1832047,-250.1374054
1700,1.5562232,1.3718705,9.7132263,-0.9083970,2.6106870,1.8625954,3.2225790,4.3717899,2.3463056,-112.5801544,-56.8015251,-250.1374054
1710,1.5873476,1.4820032,9.6892843,-1.4503816,4.1908398,0.6946565,-3.7828193,3.8426740,4.2233500,-104.0381699,17.9160309,-250.1374054
1720,1.5059452,1.3742647,9.6964674,-1.9923664,6.1984735,1.5954199,-13.0315733,5.2456689,6.4331870,-85.4580154,116.2442780,-241.0915985
1730,1.6472024,1.2090657,9.7706871,-3.0458016,5.8091602,0.1297710,-19.6131992,7.4626884,8.0444765,-58.4351158,180.9236603,-169.5190887
1740,1.5825592,1.2282192,9.7826586,-3.6259542,5.6564884,-0.9618320,-19.6131992,8.8489246,8.3437500,-32.7328262,174.9389343,-69.9618301
1750,1.3120158,1.2186425,9.8209648,-3.1679389,3.9541984,-2.1374047,-19.6131992,8.9638453,8.4299412,-10.5801525,128.7099304,36.9618340
1760,0.9002152,1.0079538,9.9502516,-2.6946564,0.7938932,-0.9465649,-19.6131992,7.2639709,8.6669655,31.4885502,84.7175598,200.7404633
1770,0.8786675,1.0797794,9.9598284,-1.2519084,-0.7862595,0.5496183,-15.3395720,6.7827387,8.6142941,53.9465637,99.7175598,239.5419922
1780,0.9050036,1.1827296,9.9717989,-0.9007633,-1.5190840,2.2595420,-11.2143831,6.7994981,7.5009956,75.9236679,111.6183243,250.1297760
1790,1.0821736,1.2952565,9.8353300,-1.0229008,-3.5190840,2.1832061,-7.6135225,6.9455438,5.3605900,92.0229034,105.5038147,250.1297760
1800,1.2473727,1.3551112,9.8688488,0.2900763,-6.2824426,0.4045801,-3.0071020,8.1713686,1.3144100,88.2519073,54.1679382,231.8320618
1810,1.2665262,1.3048333,9.8065996,1.9694656,-7.2824426,0.2824427,1.0055596,8.5424681,-0.7709290,56.0610695,16.3206100,217.8015289
1820,1.3694763,1.2880739,9.6605549,0.9312977,-6.1068702,0.2595420,3.2034254,8.5735922,-0.7685348,45.8778610,-4.4045801,212.9389343
1830,1.2449785,1.3096216,9.6126709,-0.1221374,-4.8854961,0.5343512,5.6215568,8.6190825,-0.8044477,38.7633591,-12.8396950,208.3435059
1840,1.2904681,1.4006008,9.7156210,-0.3129771,-2.6946564,0.7480916,15.7609491,7.5536675,-1.7573351,27.7786255,31.8473282,147.0305328
1850,1.2545552,1.3814473,9.7922344,-0.5190840,-2.0076337,1.0076336,18.7417145,7.6135225,-2.3941894,19.6793900,42.1450386,102.8244247
1860,1.2784972,1.3694763,9.7754755,-0.6412213,-0.4045801,1.8396946,19.6126022,7.8050575,-2.6072724,7.3511453,37.8167953,48.3893127
1870,1.3120158,1.3934183,9.6533718,-1.0763359,0.8931298,2.4732823,19.6126022,7.5129666,-2.4396791,-5.7404580,23.8396950,-6.9465647
1880,1.4700323,1.3359578,9.7946291,-1.6946565,3.7480917,2.5877862,18.9428272,7.0604649,-0.8523315,-32.4274826,-12.9923668,-126.2061081
1890,1.5131277,1.3144100,9.8592720,-1.4274809,4.1450381,2.2061069,16.0650120,6.8186517,-0.0598547,-38.4122124,-40.3511467,-173.8854980
1900,1.5011568,1.2928623,9.8329363,-0.7022901,3.3816793,1.6335878,13.8312321,6.5169835,0.4932030,-42.4885483,-64.6564865,-211.2213745
1910,1.5179161,1.3527170,9.6557665,-1.0992366,4.7099237,2.1145039,11.6453371,5.9878678,1.0007712,-46.2671738,-82.9770966,-243.3435059
1920,1.5634058,1.2258250,9.7419567,-2.4427481,2.8778627,1.1221374,9.1481981,5.5042415,1.3072275,-49.7480927,-93.1068726,-250.1374054
1930,1.4915800,1.1779412,9.8185711,-2.5801528,0.9007633,-1.1145039,6.1913738,4.8099265,1.5274929,-51.8931313,-95.2442780,-250.1374054
1940,1.1468167,1.2282192,9.8999729,-1.4503816,-0.2900763,-1.6183206,2.5713594,4.0964580,1.8028246,-52.0992355,-75.6030502,-250.1374054
1950,1.1420283,1.1204807,9.8832140,-0.8702290,-0.8702290,-0.2137405,-3.1244173,4.2113791,2.3008161,-47.7251892,-25.0687027,-250.1374054
1960,1.1372399,1.0462608,9.7635050,-1.1755725,-1.4122137,0.9770992,-10.0675669,5.4204450,2.6000898,-38.5114517,38.9618340,-250.1374054
1970,1.1683644,1.2976507,9.7922344,-1.1221374,-2.1374047,1.6488550,-17.6403885,7.4531116,3.0262554,-29.6335869,89.4427490,-201.7786255
1980,1.2569494,1.2377959,9.8161764,-0.5419847,-3.1221373,1.6488550,-19.6131992,9.0452480,3.1100521,-26.0305347,110.8854980,-120.7328262
1990,1.2449785,1.3575054,9.7946291,0.7404580,-5.5038166,0.7022901,-19.6131992,9.3181858,3.5649481,-26.2671757,104.7480927,-31.9694653
2000,1.4101776,1.2952565,9.8496952,1.8015267,-6.9312978,0.2595420,-19.6131992,8.4299412,5.6478930,-12.9770994,75.9465637,118.8625946
2010,1.3191984,1.4484847,9.6174593,0.9465649,-5.8549619,-0.3282443,-13.6468801,8.0253229,6.1410961,25.6259537,83.1297684,189.3511505
2020,1.3431402,1.3527170,9.7156210,0.5038168,-4.8015265,-0.2519084,-10.3596573,8.1474266,5.3749552,50.5419846,68.7633591,191.9923706
2030,1.3694763,1.4341195,9.7228031,-1.4732825,-1.7099236,-0.1145038,-2.9328821,9.0500364,-0.0622489,38.3816795,-31.0687027,168.6641235
2040,1.3431402,1.3934183,9.7946291,-0.8702290,-0.2900763,0.5648855,-1.1444225,8.9782104,0.2250538,27.8320618,-48.1755714,170.2977142
2050,1.3144100,1.3191984,9.7419567,-0.9389313,0.1068702,1.2519084,0.7900825,8.8656836,0.5650287,26.3206100,-62.4351158,172.5190887
2060,1.3263810,1.3886299,9.7228031,-1.1450381,0.3664122,1.4198474,2.5976956,8.8752604,0.4955972,30.3740463,-63.0839691,177.1526642
2070,1.2952565,1.2689204,9.8784256,-1.4656489,0.7480916,1.9923664,5.4635406,8.7435799,0.0622489,33.6946564,-52.5190849,181.2213745
2080,1.6256547,1.1611819,9.7778702,-2.6335878,3.9389312,2.0458016,13.2662039,7.6422529,-1.2449785,33.8625946,-20.9312973,156.7862549
2090,1.6232605,1.2689204,9.8856087,-1.6641221,4.9083967,1.1221374,18.9093075,7.7667508,-2.4253139,26.2977104,1.9236641,74.9312973
2100,1.6184721,1.2928623,9.8975792,-1.9694656,4.3740458,0.1526718,19.6126022,6.9383612,-2.6312141,16.3816795,-3.8702290,21.1984730
2110,1.5729824,1.1923064,9.8089943,-1.9465649,2.7786260,-1.7175573,19.6126022,6.9503322,-2.3056045,1.9236641,-18.0610695,-42.8778610
2120,1.4221486,1.1348459,9.8377247,-1.7099236,1.4427481,-3.2671757,19.4288483,7.0580707,-1.8363433,-13.2595415,-43.6106873,-102.1679382
2130,1.0869620,1.1492109,9.7299862,-1.1679389,0.4580153,-2.5801528,17.5326500,7.1466556,-1.3575054,-27.0763359,-78.7175598,-153.4045868
2140,1.0749911,1.3024391,9.7850523,-2.3816793,0.3511450,0.2977099,15.5454721,6.9168134,-0.7589580,-36.8015251,-113.4198456,-194.7709961
2150,1.2784972,1.1947005,9.8089943,-1.8015267,-0.3129771,0.0687023,13.4457684,6.5696559,-0.4333483,-43.4122124,-134.1679382,-230.6030579
2160,1.3311694,1.3024391,9.7443514,-2.0381680,-0.1068702,0.4580153,11.3221216,6.2368636,-0.2442073,-49.4885483,-140.3435059,-250.1374054
2170,1.4820032,1.3431402,9.5935173,-2.1145039,-0.1068702,0.3206107,9.1817169,5.9998388,-0.0143651,-54.8015251,-139.8167877,-250.1374054
2180,1.2689204,1.2952565,9.6198530,-2.2900763,0.9618320,-0.1679389,6.9646969,5.7867560,-0.0814024,-59.2290077,-135.5190887,-250.1374054
2190,1.3024391,1.3000449,9.7132263,-2.7938931,1.1984733,-0.3053435,4.2448978,5.2887645,-0.1053443,-63.6870232,-130.4961853,-250.1374054
2200,1.2354017,1.3934183,9.7012558,-3.3587787,0.2213740,-0.9007633,0.9768293,4.8386569,-0.0047884,-67.4809189,-114.7328262,-250.1374054
2210,1.2617378,1.3072275,9.8305416,-3.3587787,0.6870229,-0.3740458,-3.1315999,4.5250182,0.0574605,-68.2290039,-75.1068726,-250.1374054
2220,1.2234308,1.2784972,9.9382801,-3.1908398,0.8549618,0.5190840,-8.5927458,4.9655490,0.4788379,-64.9236679,-13.0610685,-250.1374054
2230,1.2449785,1.2928623,9.9287033,-2.4885497,0.1068702,0.9236641,-14.8966465,6.5169835,0.8116302,-60.0305328,52.9083977,-222.5190887
2240,1.3287752,1.2808913,9.9263096,-1.3511450,-0.9465649,1.2977099,-19.6131992,8.1115141,1.6065011,-58.6030540,103.3740463,-152.5877838
2250,1.3455344,1.2761030,9.7850523,-0.7480916,-0.7862595,1.1755725,-19.6131992,9.1027079,2.9017577,-61.3435097,127.3206100,-72.4351120
2260,1.2354017,1.2856797,9.7467451,-1.0992366,-2.0534351,1.5114504,-19.6131992,9.2918491,4.6854286,-60.6717567,124.4885483,7.7099237
2270,1.3144100,1.2306134,9.6270361,-1.6259542,-1.3893130,1.7709924,-19.6131992,8.7555504,6.7468257,-50.1832047,109.7862625,73.7099228
2280,1.2018831,1.2210367,9.7611103,-1.9770992,-2.0381680,1.9236641,-19.6131992,8.0779953,8.0468712,-31.3893127,102.3282471,122.8091583
2290,1.2928623,1.2856797,9.7084379,-2.3206108,-1.2977099,1.9847329,-17.1567612,8.5424681,8.1115141,-7.5572519,107.1832047,159.4122162
2300,1.3503228,1.3024391,9.8281479,-2.0916030,-0.4656489,1.6564885,-14.2573986,8.7028790,7.5680327,19.7480907,113.1984711,179.3282471
2310,1.4748207,1.3168042,9.8161764,-0.9389313,1.3587786,1.7404580,-9.8185711,7.5153608,5.0684991,69.2290039,71.6946564,174.0534363
2320,1.4556671,1.3335636,9.8496952,-0.4198473,1.8320611,1.7328244,-8.0253229,7.6350703,3.1842721,75.6259537,44.4427490,172.5648804
2330,1.4676381,1.5921360,9.6390066,-1.0229008,4.0687022,2.5419848,-6.2201042,7.6278877,1.4724265,65.3435135,17.9541988,173.0458069
2340,1.6615674,1.2976507,9.6294298,-2.9694657,3.4427481,1.7099236,-4.3263001,7.4698710,1.0199248,47.5877876,-0.9236641,174.1068726
2350,1.6567791,1.3838415,9.6988611,-4.1450381,1.3740458,-1.0763359,-2.8610563,7.4028339,1.1372399,33.0610695,-12.7709923,173.2671814
2360,1.4365137,1.2497669,9.7515335,-3.8244274,1.0610687,-2.3053436,-1.2856797,7.3070664,1.6855093,28.5648861,-22.6488552,172.4732819
2370,1.0893562,0.9217629,10.0172882,-2.1068702,-1.7709924,-0.6259542,8.3078375,7.6422529,-0.8619082,47.9160309,-20.2213745,171.2442780
2380,1.1109039,1.0725969,9.8688488,-1.0000000,-1.5954199,-0.2137405,11.7315283,7.3764977,-1.9249283,38.7251892,-22.4809170,151.8320618
2390,1.1947005,1.0630201,9.8927908,-0.6412213,-0.6946565,1.0458015,14.9828377,7.1538382,-2.7126167,28.1145039,-29.4122143,120.5877838
2400,1.3096216,1.1587877,9.7323799,-1.1221374,-0.7175573,0.7633588,17.7768574,6.8904772,-2.7461352,19.7633591,-34.5801544,80.2900772
2410,1.3934183,1.2713146,9.7323799,-1.7022901,-1.5190840,1.0839695,19.6126022,6.5457139,-2.5306582,15.2366409,-28.5190830,31.6488552
2420,1.4245427,1.2282192,9.8880024,-1.5954199,-1.4885496,0.5496183,19.6126022,6.3829093,-2.4061604,10.7480917,-19.0458012,-22.9618320
2430,1.3670821,1.2042773,9.8568783,-1.0534351,-1.8625954,-1.2366412,19.6036224,6.5241661,-2.1188576,4.8244276,-15.6488552,-79.2595444
2440,1.1994889,1.3096216,9.7491398,-0.0381679,-1.5572519,-1.2213740,17.7193966,6.8449879,-1.7788827,-3.9618320,-31.0076332,-130.8625946
2450,1.1875180,1.2473727,9.8305416,-0.1374046,-1.5496184,-0.1755725,15.7130651,7.0077925,-1.1827296,-13.8549614,-55.5725174,-176.5267181
2460,1.1132981,1.2138541,9.7443514,-0.4122137,-2.1450381,0.5114504,13.8144732,6.8282285,-0.6440369,-22.9465656,-81.7175598,-218.0381622
2470,1.0151364,1.1420283,9.7467451,-0.1145038,-3.3816793,1.3282443,11.9086981,6.0908179,-0.0502780,-30.0000000,-104.6259537,-250.1374054
2480,1.1132981,1.2306134,9.7347746,-0.0152672,-4.3893127,2.7251909,9.5647869,5.2145448,0.1508339,-35.2824440,-119.5038147,-250.1374054
2490,1.0702027,1.1037214,9.8353300,0.0305344,-6.2748094,3.8167939,6.5337429,4.3119354,0.2896969,-39.4503822,-119.2137375,-250.1374054
2500,1.2306134,1.1109039,9.7204094,0.1984733,-6.3816795,4.6641221,2.4324965,3.3470769,0.2394189,-41.5648842,-103.2290039,-250.1374054
2510,1.3383518,1.1707586,9.8975792,0.4198473,-6.3435116,5.2519083,-3.3398943,3.1938488,0.2250538,-40.2824440,-68.2442780,-250.1374054
2520,1.5729824,1.1563935,9.7635050,0.5954198,-5.2824426,5.1450381,-11.9230633,4.4268565,0.0383070,-36.2137413,-15.4732828,-250.1374054
2530,1.6495966,1.0917504,9.8353300,0.0992366,-3.7251909,4.4122138,-19.6131992,7.1945391,0.2274480,-36.4656487,37.4656487,-250.1374054
2540,1.7501525,1.2449785,9.8089943,0.3511450,-1.1679389,3.2442749,-19.6131992,9.6078825,1.5897418,-45.2900772,59.3282433,-171.9160309
2550,1.7669119,1.2569494,9.7754755,0.3282443,1.0381680,2.3053436,-19.6131992,10.4889441,3.6726866,-55.5114517,41.7022896,-74.8320618
2560,1.7717001,1.2114599,9.7563219,-0.6335878,1.7022901,0.4427481,-19.6131992,10.6325951,6.7731619,-52.9007645,-0.3740458,13.6106873
2570,1.6256547,1.3886299,9.6964674,-0.9847328,1.7099236,-1.0839695,-19.6131992,9.5264797,9.3756456,-29.2442741,-24.4351139,88.7251892
2580,1.4029950,1.2665262,9.7108326,-1.6717557,3.1679389,-1.5343511,-16.4863892,9.0213060,8.8130112,45.0305328,45.5267181,190.6564941
2590,1.2665262,1.3239868,9.6270361,-1.6946565,3.0916030,-1.4656489,-12.7155399,8.0540533,6.9623032,81.8702316,87.6641235,204.5648804
2600,1.2258250,1.3862357,9.7275915,-2.1832061,1.6030535,-1.3282443,-9.4067707,7.9989872,4.6734576,110.1603088,107.1984711,198.3282471
2610,1.2545552,1.2856797,9.7587166,-3.0610688,1.6488550,0.6717557,-7.4291697,8.6262646,1.4652439,120.3740463,104.7251892,191.3435059
2620,1.2976507,1.1252691,9.7204094,-3.4122138,0.8015267,1.0839695,-5.7795734,9.3517036,-1.9440818,103.9542007,94.3435135,201.1450348
2630,1.5107336,1.1372399,9.8305416,-1.9618320,2.0687022,0.0916031,3.0597742,9.6677370,-4.9200592,17.1908398,51.9160309,242.5190887
2640,1.5227045,1.2042773,9.7635050,-1.8091604,2.7557251,-1.5725191,14.7242651,7.2927012,-5.1762376,-12.4274807,9.8778629,229.7099304
2650,1.4413021,1.2473727,9.8329363,-2.0381680,2.9160306,-2.2900763,19.6126022,6.5600791,-5.6000090,-22.1908398,23.2671757,189.5572510
2660,1.4197544,1.1970947,9.8568783,-2.3587787,3.6030533,-2.9007633,19.6126022,6.1003947,-5.6000090,-26.5114498,38.0458031,136.6641235
2670,1.3934183,1.1444225,9.8616667,-2.6717558,4.3816795,-3.4122138,19.6126022,4.1443419,-5.5880380,-42.5877876,36.3587799,58.2977104
2680,1.2042773,1.2401901,9.8760319,-2.7633588,2.9312978,-3.5725191,19.6126022,4.6207857,-4.5729017,-68.6259537,12.9389315,-50.4732819
2690,1.1324517,1.1492109,9.7946291,-2.3893130,2.7404580,-3.5038168,19.6126022,5.0254035,-2.5450234,-95.1450348,-55.4045792,-147.2137451
2700,1.1252691,1.1563935,9.7563219,-2.3435113,1.5801526,-3.0000000,19.6126022,5.1522956,-0.1580165,-113.5267181,-122.2366409,-218.1297760
2710,1.0869620,1.2066715,9.7347746,-2.3206108,2.8854961,-1.9083970,19.6126022,4.3861551,1.7860653,-119.0687027,-158.4732819,-250.1374054
2720,1.0917504,1.3694763,9.7275915,-2.1984732,0.8320611,-1.0458015,17.1783085,3.4739690,2.8586621,-114.5877838,-166.1145020,-250.1374054
2730,1.3024391,1.2832855,9.7658987,-2.2290077,2.6183207,-0.2366412,12.1433287,2.5641768,2.7054341,-107.7709961,-158.1145020,-250.1374054
2740,1.2904681,1.3503228,9.8257532,-1.4656489,1.3282443,-0.7633588,6.1841912,1.9799947,2.3175755,-105.4885483,-135.0763397,-250.1374054
2750,1.4365137,1.4269369,9.7563219,-1.0610687,0.6641222,-0.8854962,-1.4987626,1.6065011,2.3127871,-104.1297684,-85.8167953,-250.1374054
2760,1.5250987,1.3814473,9.7156210,-2.0000000,1.0534351,-2.0305343,-12.0834742,2.7197993,3.2369442,-93.4198456,1.2977099,-250.1374054
2770,1.5227045,1.2449785,9.6414013,-3.2748091,-0.3969466,-3.6870229,-19.6131992,5.4994531,3.7421181,-78.4045792,92.3053436,-250.1374054
2780,1.3503228,1.0678085,9.8520899,-3.6717558,-0.8244275,-4.4961834,-19.6131992,8.1139078,4.5824785,-69.2061081,149.7251892,-167.0610657
2790,1.1635761,1.0007712,9.8233595,-3.6870229,-1.4580153,-4.0381680,-19.6131992,8.8345594,6.5935979,-63.8091621,174.1068726,-41.9923668
2800,1.1516051,0.9050036,9.8688488,-3.4580152,-1.4732825,-2.9236641,-19.6131992,9.0907373,8.9279327,-49.4732819,171.9389343,81.0305328
2810,1.1923064,0.8236012,9.9861641,-2.9770992,-2.3969467,-2.3664122,-19.6131992,7.3717093,10.8959560,-21.3206100,161.5419922,189.4809113
2820,1.1109039,0.7110743,9.8712435,-2.2061069,-2.6412213,-1.7786260,-19.6131992,5.5138183,11.5519638,14.7786255,162.1908417,250.1297760
2830,1.1085097,0.7493813,9.9167328,-1.2900764,-4.4503818,-0.7480916,-19.6131992,4.9894910,10.6134415,49.4427490,159.9160309,250.1297760
2840,1.2880739,0.7086801,9.9071560,-0.9923664,-3.6106870,1.0229008,-16.6922894,4.8218975,8.6813307,77.4274826,138.6106873,250.1297760
2850,1.3934183,0.7613522,9.8209648,-1.1984733,-1.7022901,1.9083970,-12.3707771,5.2408805,5.8154860,90.9618301,99.4045792,250.1297760
2860,1.6160779,1.0606259,9.7970228,-1.5572519,-1.4198474,-1.9312977,-4.7835903,5.6933827,0.1005560,70.0534363,19.2137413,250.1297760
2870,1.5897418,1.0917504,9.9358864,-0.6870229,-0.4198473,-3.5343511,-0.9193687,5.5138183,-1.5897418,51.5038185,-2.5648854,250.1297760
2880,1.4915800,1.0295014,10.0029240,0.4198473,-0.2519084,-4.5725193,3.4811516,5.3318601,-2.3846128,34.5572510,-8.5038166,250.1297760
2890,1.3646880,1.0654143,9.9957409,1.0229008,-0.5038168,-4.9770994,9.4211359,4.8027439,-2.3463056,23.1450386,-12.8702288,250.1297760
2900,1.1587877,1.1372399,9.8568783,1.2671756,-1.2061069,-4.6870227,16.0769825,4.5010762,-2.4420733,19.1679382,-16.2977104,250.1297760
2910,0.9337339,1.2282192,9.8377247,1.4503816,-2.5572519,-3.5572519,19.6126022,4.2472920,-3.2034254,17.3816795,-10.5648851,239.6259613
2920,0.8690908,1.2258250,9.7826586,1.9007634,-3.7099237,-1.9541985,19.6126022,3.8833754,-3.9264708,17.6488552,-1.2137405,177.8320618
2930,0.8259954,1.2210367,9.7156210,2.3053436,-3.7099237,0.6183206,19.6126022,3.0142846,-4.4316444,2.1068702,6.4045801,83.7251892
2940,1.0031654,1.3239868,9.7323799,2.0534351,-4.0000000,3.2290077,19.6126022,3.9456241,-3.8785870,-26.5038166,-10.8702288,-34.9923668
2950,1.1516051,1.4604555,9.6677370,1.0534351,-2.2137403,4.8625956,19.6126022,4.8913293,-1.6926919,-54.3587799,-68.0152664,-132.8015289
2960,1.4772149,1.4125718,9.6318245,0.2595420,-0.2213740,5.1450381,19.6126022,4.7764082,0.7374104,-69.4580154,-122.5190811,-207.3969421
2970,1.7190280,1.4245427,9.7443514,-0.3511450,0.1603053,3.8702290,19.6126022,4.0725164,2.4947455,-71.3664093,-147.5038147,-250.1374054
2980,1.8147956,1.4772149,9.6701307,-0.7099237,0.2061069,1.7633588,19.6126022,3.6918402,3.3710186,-65.8015289,-144.1374054,-250.1374054
2990,1.8722562,1.3670821,9.6414013,-2.7862597,4.4198475,2.0763359,14.8942528,2.8514795,3.3949606,-57.3664131,-123.8549652,-250.1374054
3000,1.8124014,1.1204807,9.6892843,-3.0763359,2.0305343,-1.8167939,9.9646168,1.8746504,3.4021432,-49.6717567,-95.0152664,-250.1374054
3010,1.5514348,1.2761030,9.7467451,-3.7022901,2.8015268,-2.0534351,3.9552009,1.1276633,3.3327117,-43.1603050,-43.5572510,-250.1374054
3020,1.3024391,1.0462608,9.6797075,-4.7251906,1.8091604,-1.9312977,-4.0796990,1.2282192,3.2010312,-32.5038185,32.7709923,-250.1374054
3030,1.1085097,0.9050036,9.7826586,-5.2290077,0.1145038,-2.2061069,-15.9740324,3.1603301,2.0709739,-16.9160309,127.3206100,-250.1374054
3040,0.9648584,0.9002152,9.8137827,-5.3129773,-1.6106870,-0.8778626,-19.6131992,6.1985564,0.8068419,-11.5419846,209.6183167,-250.1374054
3050,1.0079538,0.8259954,10.0316534,-4.1908398,-2.5801528,0.6870229,-19.6131992,10.3812056,0.1221037,-13.7633591,250.1297760,-138.9923706
3060,1.2018831,0.9696468,10.0939026,-2.3282442,-2.9160306,1.5954199,-19.6131992,11.1066446,0.1221037,-17.2442741,250.1297760,-5.5572519
3070,1.2377959,0.8834559,10.0125008,-1.4656489,-2.2290077,3.3358779,-19.6131992,10.3381100,0.8499373,-16.8167934,215.6412201,117.6335907
3080,1.4484847,0.8762733,9.9526453,-0.8320611,-3.1374047,3.1679389,-19.6131992,9.8089943,1.7286048,-9.6793890,195.2977142,211.0915985
3090,1.3790531,1.1779412,9.8903971,1.4122137,-4.8702292,0.7938932,-16.7114429,7.2376347,3.4524212,31.0152664,161.3129730,250.1297760
3100,1.5250987,1.1180865,9.7778702,1.3740458,-5.7175574,0.1450382,-11.2766323,7.6063399,2.4492557,59.8549614,136.4122162,250.1297760
3110,1.4987626,1.1539993,9.7587166,0.9007633,-5.8473282,-0.7938932,-6.6630292,8.0109577,0.7876883,75.2442780,118.5496216,250.1297760
3120,1.3814473,1.0845678,9.6964674,0.4122137,-5.3435116,-0.5572519,-2.6048782,8.4371233,-2.0805507,65.7404556,106.3053436,250.1297760
3130,1.3622938,1.1156923,9.8161764,-0.7251908,-4.4656487,-0.2061069,0.2250538,9.2535419,-4.7907729,27.0534344,97.0457993,250.1297760
3140,1.3958124,1.2042773,9.7658987,-0.5496183,-3.5343511,-0.3969466,3.9168940,9.1410151,-5.0589223,-17.7328243,84.8854980,250.1297760
3150,1.3646880,1.2018831,9.7706871,-0.8167939,-3.2519083,-0.3816794,9.4522600,8.1593981,-3.2991931,-46.7786255,37.1145020,250.1297760
3160,1.3311694,1.1683644,9.7898407,-0.6946565,-2.7633588,0.0610687,16.2565460,6.7157016,-1.3718705,-57.7404594,-10.8320608,227.1145020
3170,1.1851238,1.2497669,9.8640604,-0.7557252,-2.2595420,0.5954198,19.6126022,5.2624283,-0.0981618,-56.9465637,-20.5114498,184.5801544
3180,1.1994889,1.1444225,9.7611103,-0.2824427,-2.7099237,1.3129771,19.6126022,4.3023586,1.0271072,-47.8320618,-6.7633586,136.6564941
3190,1.2665262,1.1132981,9.6725254,-0.3511450,-0.9541985,3.3053436,19.6126022,2.8586621,2.4348907,-29.5801525,25.3664131,-34.1603050
3200,1.3503228,1.1899122,9.6844959,-1.0076336,-1.3893130,3.7328243,19.6126022,3.8402798,2.8442972,-31.4961834,-19.9465656,-141.6259613
3210,1.4006008,1.2210367,9.7898407,-1.3816794,-1.6488550,3.5725191,19.6126022,4.2377152,3.1914546,-38.4122124,-93.2671738,-222.1603088
3220,1.4796091,1.1851238,9.8281479,-0.3358779,-0.9160305,3.6870229,18.8997307,4.1036406,3.6702924,-44.0610695,-146.9923706,-250.1374054
3230,1.5801650,1.2114599,9.8760319,0.1450382,0.1221374,3.5801528,15.7154598,3.1315999,4.2832050,-44.5801544,-165.3053436,-250.1374054
3240,1.7597293,1.1827296,9.8473015,0.8625954,1.7786260,3.5343511,11.5040808,2.1835008,4.4172797,-39.6030540,-165.7862549,-250.1374054
3250,1.8147956,1.1851238,9.8137827,0.8396947,2.4351146,2.2900763,5.8753409,1.6088953,3.3494711,-32.8167953,-154.7175598,-250.1374054
3260,1.9225341,1.3838415,9.6294298,0.4427481,1.3969465,-0.4351145,-0.2130829,1.9895715,2.2074428,-28.5648861,-132.5572510,-250.1374054
3270,1.7477583,1.2018831,9.5121145,-2.7404580,2.7557251,0.5954198,-7.7739329,3.1723011,1.2330076,-24.9618320,-85.1145020,-250.1374054
3280,1.8315549,0.9289455,9.7132263,-4.0763359,0.1145038,-2.1908398,-17.4392757,5.4539638,0.1268920,-21.4961834,-6.8396945,-250.1374054
3290,1.4915800,0.9121862,9.8473015,-3.5114503,-1.2900764,-4.2671757,-19.6131992,8.9063845,-0.5267217,-24.2671757,61.7328262,-203.5648804
3300,1.1827296,0.8116302,9.9837704,-2.8244274,-1.6259542,-3.5190840,-19.6131992,11.4442253,0.2274480,-34.9160309,105.3740463,-88.6793900
3310,1.0678085,0.9002152,9.8927908,-1.8931298,-3.3282442,-1.9923664,-19.6131992,11.0396080,3.8594334,-39.0610695,120.1679382,25.6488552
3320,1.0893562,0.8619082,9.8664551,-1.9236641,-3.7175572,0.2595420,-19.6131992,9.9574337,7.3286138,-21.9160309,118.4580154,116.9542007
3330,1.1875180,0.7924767,9.8664551,-1.3587786,-4.4427481,1.4732825,-19.6131992,9.0069408,8.8608952,11.7251911,109.1450348,177.0000000
3340,1.4389079,1.2330076,9.7682934,1.6946565,-7.4274807,2.6946564,-5.6359220,7.4100165,-3.5314295,52.9541969,6.0916033,250.1297760
3350,1.5442522,1.2904681,9.6773138,1.1603054,-4.4732823,1.8702290,3.4979107,6.7564025,-4.3095412,10.5419846,22.8625946,250.1297760
3360,1.6112895,1.4820032,9.7012558,0.5496183,-2.9770992,2.2290077,8.8561068,6.2105274,-3.5505829,-7.4274807,21.7404575,250.1297760
3370,1.6902977,1.3215926,9.7682934,-0.1832061,-2.2061069,2.1984732,15.1504307,5.3677726,-2.4133430,-18.3206100,32.8854980,250.1297760
3380,1.7214222,1.3527170,9.7419567,-0.8931298,-1.0992366,1.5725191,19.6126022,4.2736282,-1.8076130,-24.3358784,42.5267181,226.1526642
3390,1.7070571,1.3383518,9.7323799,-1.2900764,0.8320611,1.1145039,19.6126022,3.7109938,-0.7302278,-29.5725193,32.9618340,151.4961853
3400,1.6448082,1.1779412,9.8736372,-1.8396946,3.9007633,-0.7099237,19.6126022,3.7085996,0.9121862,-36.9465637,-41.6488533,-49.6870232
3410,1.6088953,1.1755470,9.9071560,-1.2519084,3.9847329,-0.8167939,19.6126022,4.2137733,1.0510491,-48.2824440,-95.6488571,-151.0229034
3420,1.6998745,1.2018831,9.8999729,-0.7862595,5.0916033,-0.9541985,19.6126022,4.5417776,2.2002602,-60.0687027,-155.4580078,-228.7938995
3430,1.7357874,1.2473727,9.9382801,-0.3587786,7.4122138,-0.9007633,19.6126022,4.3382711,3.1579359,-68.1984711,-196.8091583,-250.1374054
3440,1.8746504,1.1635761,9.8664551,-0.0610687,9.9083967,-1.7786260,17.0442352,4.0222383,3.6439564,-72.2900772,-217.0305328,-250.1374054
3450,1.8171898,1.2713146,9.7419567,0.5954198,12.8778629,-2.2748091,13.3021164,3.2991931,4.0605454,-72.6183243,-227.2900696,-250.1374054
3460,1.8339491,1.1827296,9.6437950,0.1755725,13.7557249,-3.1221373,9.4450769,2.4875629,4.2927818,-72.0992355,-231.3511505,-250.1374054
3470,1.7812769,1.2521610,9.5264797,-1.7480916,14.4274807,-4.4580154,3.9168940,1.8578910,4.4436154,-72.7175598,-229.2061005,-250.1374054
3480,1.6735384,1.1085097,9.5959110,-3.5038168,15.6870232,-5.4809160,-1.3910241,1.7309990,4.5848727,-74.5343475,-217.1679382,-250.1374054
3490,1.4556671,1.0654143,9.4905672,-5.3511453,16.2977104,-5.6412215,-8.3437500,1.9991482,5.0062504,-72.5114517,-184.4351196,-250.1374054
3500,1.3311694,1.0893562,9.6294298,-7.1526718,14.5496187,-5.3816795,-18.9835281,3.9599893,5.0325861,-63.0152664,-106.2366409,-250.1374054
3510,1.1899122,1.0366840,9.8425131,-7.6412215,13.4503813,-4.7557254,-19.6131992,7.6422529,5.3342543,-47.3511467,-0.8931298,-250.1374054
3520,1.1348459,0.9480990,9.9646168,-6.5496182,12.3664122,-4.0152674,-19.6131992,11.8344784,5.4060798,-29.9160309,76.1832047,-117.3282471
3530,0.8714849,0.9050036,10.0460186,-4.0458016,9.8244276,-4.2137403,-19.6131992,10.3859940,6.2009506,-12.9694653,105.0152664,46.7557259
3540,0.8140244,1.0486550,10.0484133,-2.4122138,7.3435116,-2.1679389,-19.6131992,7.5800037,8.1617918,7.2137403,129.8931274,196.0381622
3550,1.0414724,0.9457048,9.7706871,-1.9083970,4.8244276,-0.5725191,-19.6131992,6.6869712,9.4091644,34.0916023,167.1526642,250.1297760
3560,1.0055596,0.9409165,9.8209648,-1.6717557,2.1984732,-0.7862595,-19.6131992,5.8729467,8.5544386,62.7557259,177.7175598,250.1297760
3570,0.9744351,0.9911944,9.7754755,-1.3969465,0.9083970,-1.2900764,-14.1472654,5.8633699,6.7803445,93.2137375,148.9694672,250.1297760
3580,1.0366840,1.0702027,9.7658987,-1.2671756,-0.3664122,-1.5496184,-8.8345594,6.4116392,4.0581512,117.0916061,93.0763321,250.1297760
3590,0.8954269,0.9888002,9.8640604,-1.0458015,-1.2595420,-1.0000000,-4.9559722,6.5840211,0.1412572,118.3664093,25.2290077,250.1297760
3600,0.8403605,0.9911944,9.8449068,-1.2290076,-3.0000000,0.5038168,-2.6216373,6.9551206,-3.7181761,83.9923630,-23.4198475,250.1297760
3610,0.9385223,1.0725969,9.8927908,-1.0381680,-4.3587785,1.7022901,-0.1867468,7.4339581,-5.6407104,35.8320618,-50.3664131,250.1297760
3620,1.1276633,1.0702027,9.9358864,1.2213740,-6.9847326,1.6641221,7.0796180,6.2751703,-3.6439564,-14.9465647,-101.8702316,246.9694672
3630,1.0725969,1.0749911,9.8688488,2.1068702,-7.0152674,1.9541985,12.3803539,5.4683285,-2.8131726,-22.6793900,-113.4122162,225.4274750
3640,1.1061156,1.1420283,9.8233595,2.3435113,-5.7557254,3.1908398,18.0497952,4.6136031,-2.4923513,-23.6106873,-105.5114517,192.6030579
3650,1.1516051,1.1659702,9.7874460,1.4122137,-4.5954199,4.0992365,19.6126022,4.5298066,-2.3534882,-18.7175579,-79.5801544,145.0534363
3660,1.3191984,1.3287752,9.7754755,-0.0381679,-3.7404580,4.2290077,19.6126022,4.1491303,-2.4755919,-16.8473282,-53.1450386,79.4732819
3670,1.5897418,1.2066715,9.7371683,-0.5419847,-0.9618320,4.2748094,19.6126022,4.7692256,-2.2984219,-23.4351139,-42.7099228,1.7557251
3680,1.6400198,1.2425843,9.7946291,-0.6335878,0.9389313,2.8396947,19.6126022,5.8992829,-1.6232605,-37.1450386,-66.8473282,-70.8015289
3690,1.6902977,1.3527170,9.8903971,0.0076336,2.8778627,2.0610688,19.6126022,6.5074067,-0.5410868,-53.7175560,-110.0534363,-127.5572510
3700,1.7286048,1.3670821,9.7132263,-0.4885496,4.2748094,2.1908398,18.5932751,6.5313487,0.9121862,-65.9083939,-145.8931274,-170.7022858
3710,1.8028246,1.0199248,9.7156210,-2.5877862,4.4503818,0.5038168,16.3187962,6.2608056,2.1284344,-68.8702316,-157.5114441,-205.6030579
3720,1.7046629,1.0199248,9.6964674,-3.5572519,3.7099237,-2.5343511,13.6780043,6.3589673,2.7245877,-64.2595444,-153.3511505,-232.6717529
3730,1.3622938,1.0007712,9.7371683,-4.4580154,3.2137403,-3.3129771,10.8959560,6.2823529,2.9735832,-54.6335869,-141.5801544,-250.1374054
3740,1.1779412,0.8954269,9.8257532,-4.5725193,2.9083970,-3.2977099,7.5656385,6.2631998,2.7293761,-44.0534363,-133.6183167,-250.1374054
3750,0.9600700,0.7134684,9.9622221,-3.8549619,1.5877863,-3.2213740,4.0078731,5.8537931,1.9799947,-36.0916023,-118.1526718,-250.1374054
3760,0.8140244,0.7278336,9.9765873,-2.3358779,-0.3664122,-1.8015267,-0.5769997,5.6287394,1.7525467,-31.6564884,-88.1221390,-250.1374054
3770,0.9217629,0.8116302,9.9694052,-0.8625954,-2.0000000,0.4045801,-6.8497758,5.8849177,1.7118455,-26.4656487,-37.5190849,-250.1374054
3780,1.0079538,0.9097920,9.8425131,-0.7938932,-2.5572519,2.2061069,-14.9421368,7.7092900,1.9776005,-18.0610695,34.6641235,-212.5877838
3790,1.1875180,0.9361281,9.9239149,0.4961832,-4.2595420,2.2595420,-19.6131992,10.0532017,2.5378408,-7.6946564,100.1297684,-139.4885559
3800,1.1803354,1.1324517,9.8568783,2.1984732,-5.1450381,1.3129771,-19.6131992,12.8735571,3.1890604,3.5648854,138.1984711,-41.1297722
3810,1.4245427,1.2138541,9.7419567,2.3129771,-4.2671757,0.9923664,-19.6131992,12.8783455,4.2592630,15.2061071,141.2748108,70.9847336
3820,1.4939742,1.2210367,9.7132263,1.2900764,-3.8931298,0.4351145,-19.6131992,11.5902710,5.4156566,29.8091602,130.6183167,172.7633514
3830,1.4245427,1.2497669,9.7251978,0.4351145,-3.0916030,0.3358779,-19.6131992,10.1800938,5.9830794,49.2519073,128.0458069,232.4503784
3840,1.4700323,1.2832855,9.7970228,-0.1603053,-2.3816793,0.0610687,-15.9022064,9.0524302,5.0517397,68.7557220,124.3435135,250.1297760
3850,1.5059452,1.2880739,9.7204094,-0.7099237,-0.9618320,-0.9694657,-11.3580351,8.1570034,3.1890604,82.3129807,104.4274826,250.1297760
3860,1.3168042,1.1994889,9.7850523,-1.2671756,6.4427481,-2.9770992,-3.8570392,7.8313937,-1.2593436,71.3816757,35.8778610,245.7938995
3870,0.6129125,0.8690908,10.1417866,-2.5343511,5.1984735,-0.6106870,11.9015160,6.1530671,-2.5306582,-26.7709923,-93.3893127,181.3129730
3880,0.6296718,0.7541697,10.1776991,0.3358779,3.9160306,1.9160305,17.0226879,5.3701668,-2.4636209,-25.2519093,-86.0839691,150.1526642
3890,0.6991033,0.6775556,10.0484133,1.6183206,2.1145039,4.5496182,19.6126022,4.8458395,-2.6551561,-16.0076332,-61.0763359,108.1297684
3900,1.0295014,0.5865764,10.0101061,4.6030536,-12.0916033,4.7175574,19.6126022,4.0294209,-3.6104376,-16.0229015,-14.1755724,-13.2671757
3910,1.2114599,0.5937590,10.0077124,6.0992365,-15.9160309,3.7862597,19.6126022,4.7955613,-3.2608860,-34.8473282,-16.1068707,-83.9694672
3920,1.1755470,0.6751614,9.9430685,7.0839696,-18.3740463,3.2290077,19.6126022,5.3055239,-2.2888451,-57.2977104,-49.1374054,-141.4274750
3930,1.2354017,0.7110743,10.0388365,8.4122133,-20.2977104,3.1679389,19.6126022,4.8865409,-0.4955972,-73.0381699,-89.3435135,-190.0152740
3940,1.2808913,0.9720409,10.0771437,10.2061071,-18.8015270,4.4122138,17.6236286,4.4627690,0.9193687,-80.0457993,-117.8167953,-233.6335907
3950,1.1851238,1.0414724,9.8903971,11.5725193,-17.3740463,5.6335878,15.0402985,4.1180058,1.7286048,-80.1908417,-124.9236679,-250.1374054
3960,1.2617378,1.1899122,9.7730818,11.6564884,-15.9083967,7.2061067,12.2462788,3.6271970,2.3032103,-77.3206100,-124.4809189,-250.1374054
3970,1.4820032,1.3479286,9.5767574,10.6106873,-16.0305347,8.2595415,9.0380650,3.1603301,2.3678534,-74.2977066,-121.1984711,-250.1374054
3980,1.7022687,1.4173602,9.4187412,8.4045801,-15.3587790,8.5038166,5.3007355,2.5234756,2.7772598,-72.0916061,-115.4503784,-250.1374054
3990,1.9823889,1.5418580,9.4833841,6.5877862,-13.0534353,8.5725193,0.8499373,2.3870070,3.1555417,-68.9083939,-99.6717529,-250.1374054
4000,2.2098370,1.6950861,9.4953556,4.4961834,-10.2748089,7.2977099,-4.9631548,2.5689652,3.8163381,-62.6259537,-64.9618301,-250.1374054
4010,2.4444675,1.7453641,9.4283180,2.3358779,-7.8473282,5.7175574,-12.5240049,3.8666160,4.6040263,-50.4885483,-10.8244276,-250.1374054
4020,2.6671271,1.8483143,9.4259243,0.8625954,-5.9923663,2.5572519,-19.6131992,6.2655940,5.6383162,-33.1603050,51.7862587,-238.2366486
4030,2.7676830,1.9512644,9.4809904,-1.0381680,-2.1068702,-1.6183206,-19.6131992,8.5281029,6.5720501,-13.3587790,111.8549652,-152.5190887
4040,2.8826041,1.6950861,9.9933472,-1.3816794,4.1832061,-7.8702292,-19.6131992,11.2383251,6.8856888,9.1221371,154.6030579,-44.0381660
4050,2.6767037,1.8914096,10.1298151,-1.5801526,17.0458012,-10.7709923,-19.6131992,10.8696203,6.3996682,32.5038185,167.0610657,76.4656525
4060,2.6431851,1.6519908,10.1226330,-2.0610688,30.1068707,-11.3206110,-19.6131992,9.0763721,5.3294659,53.8396950,168.3282471,176.8549652
4070,2.5450234,1.6495966,9.7970228,-1.8396946,39.4198456,-12.8473282,-19.6131992,8.3485384,4.3382711,71.7099228,179.3664093,239.5725250
4080,2.5905130,1.6879035,9.4331064,-2.9083970,46.8167953,-13.8778629,-18.6339760,7.8960366,3.3662305,80.2748108,180.9007568,250.1297760
4090,2.8778157,1.7381816,9.0811605,-6.8396945,51.3587799,-15.9160309,-13.7378588,7.7954807,1.8459201,83.0305328,149.5648804,250.1297760
4100,2.8897867,1.7621235,9.3804340,-11.6106873,53.2137413,-20.3969460,-9.5863342,8.2264347,-0.1412572,73.5114517,96.0916061,250.1297760
4110,2.7940190,1.6376256,10.4051476,-13.4427481,51.4122124,-26.0305347,-6.2823529,8.6813307,-1.4077834,52.9236641,40.0916023,241.7633514
4120,3.0956869,1.5131277,11.3388815,-7.8091602,47.9312973,-34.0381660,-2.4348907,8.6573887,-2.0925217,28.8625946,-10.1908398,234.5648804
4130,3.4500270,1.4221486,11.9805241,2.1221373,46.6259537,-43.5038185,1.0390782,8.5185261,-2.1763182,8.2977095,-42.8396950,229.1908417
4140,3.7469065,1.4245427,12.1792421,13.1297712,50.7938919,-53.6412201,4.8003497,8.1163025,-1.9967541,-5.7633586,-60.4503822,224.4656525
4150,3.0501974,1.4556671,14.2933111,31.9694653,36.1450386,-63.4427490,8.5616217,7.3812861,-2.1092808,-10.7862597,-67.1374054,220.5801544
4160,2.7341642,0.7709290,15.4305506,56.8778610,-5.6641221,-78.5038147,13.9988260,6.4307928,-2.3247581,-8.7099237,-59.2519073,210.3664093
4170,4.1874375,0.7733232,13.8455973,77.8167953,-63.1679382,-98.6335907,19.6126022,5.5976148,-3.3638363,-3.5877862,-33.2900772,184.9465637
4180,5.7173243,1.0127422,12.9597473,102.7709961,-69.9542007,-123.9236679,19.6126022,4.5824785,-4.0749106,5.5496182,1.7862595,143.1374054
4190,6.8880830,0.0047884,10.0962973,101.0152664,-59.1832047,-164.3435059,19.6126022,3.5314295,-4.5034704,5.0534353,28.7404575,78.6641235
4200,5.4324160,-1.3455344,8.5496502,74.2442780,-62.1450386,-207.4198456,19.6126022,4.1275826,-4.7620430,-13.8015270,37.9618340,-6.7709923
4210,1.4413021,-0.2968795,10.2351599,52.4198456,-71.9160309,-224.1297760,19.6126022,5.1570840,-3.7493007,-41.0839691,6.3511453,-84.7175598
4220,-1.0223188,-0.7829000,10.8768024,48.5572510,-85.2671738,-219.9084015,19.6126022,5.3438311,-1.8243724,-65.6030502,-49.2061081,-148.7557220
4230,-2.2912393,-2.0925217,9.7251978,51.0076332,-105.8473282,-200.8931274,19.6126022,4.8482337,0.1556223,-78.4274826,-100.4351120,-204.1679382
4240,-5.1977854,-2.5426292,9.3636751,54.8167953,-78.8091583,-167.5801544,19.2780132,4.1084290,1.5705882,-81.0152664,-123.8854980,-250.1374054
4250,-9.7036495,-2.5258698,12.1553001,68.2519073,-72.5725174,-122.3740463,16.2038746,3.4524212,2.4085546,-75.4961853,-123.0534363,-250.1374054
4260,-8.7794924,-2.8730273,13.8695393,92.4122162,-90.4045792,-64.8702316,12.5527353,2.5450234,3.0908985,-64.1374054,-115.8778610,-250.1374054
4270,-7.4052281,-3.1292057,14.5710373,126.7175598,-115.3587799,2.2519083,8.1785507,1.8459201,3.2824337,-53.8778610,-109.3664093,-250.1374054
4280,-5.1762376,-3.2465210,13.4098549,156.1221313,-138.5648804,51.9389305,2.6503677,1.5993185,3.4572096,-46.5190849,-92.3816757,-250.1374054
4290,-4.3191175,-2.4923513,11.6094246,173.0152740,-132.9313049,82.1145020,-4.6686692,1.8985922,4.0126615,-37.0687027,-52.6412201,-250.1374054
4300,-3.1387823,-0.6871324,11.0611553,178.8244324,-136.3282471,104.6793900,-15.5191364,4.5800843,4.4819226,-20.8320618,4.2290077,-250.1374054
4310,-2.1715298,1.0223188,10.8241301,183.5190887,-164.8015289,127.1984711,-19.6131992,7.9606800,4.3622131,-1.5801526,60.9312973,-250.1374054
4320,-1.1061156,2.5091105,11.3676119,197.6717529,-216.3740387,141.6793823,-19.6131992,10.8600435,4.7452836,14.8702288,103.1450348,-152.4503784
4330,1.9823889,3.3949606,10.5966825,218.6412201,-250.1374054,142.2519073,-19.6131992,11.9685535,4.5322008,28.3282452,129.8625946,-28.1908398
4340,5.1618724,4.5657191,9.7108326,237.6488495,-250.1374054,130.5496216,-19.6131992,10.6349897,4.7309184,42.7404594,149.8167877,88.8396912
4350,7.4938130,6.0285692,8.1570034,248.4732819,-250.1374054,111.0381699,-19.6131992,9.5623922,5.0876527,60.9694672,165.4732819,167.0381622
4360,9.4522600,7.4531116,6.3158717,244.9694672,-250.1374054,88.1068726,-19.6131992,8.8656836,4.0413918,77.4885483,160.9465637,204.1297760
4370,10.8049774,8.6909075,4.4938936,227.5419922,-250.1374054,60.0992355,-16.6875000,8.6118994,2.0733681,86.3511429,130.3511505,215.0152740
4380,11.4801388,9.0476418,3.2201848,205.3587799,-250.1374054,30.4580154,-12.4689388,8.9111729,-0.0335187,84.2900772,82.0687027,213.5801544
4390,11.4250717,8.9255381,1.8363433,181.3511505,-232.4198456,7.4274807,-8.8130112,9.0883436,-1.9464760,68.8778610,33.9771004,209.1832123
4400,10.3093796,7.9726510,0.1532281,157.4274750,-194.6488495,-2.3587787,-4.6112089,9.3756456,-3.3758070,43.6793900,-2.9236641,205.9541931
4410,9.3445215,6.4619174,-1.5969244,126.9694672,-174.3053436,-0.7709923,-0.4189832,9.1027079,-4.0366035,17.9083977,-38.0534363,203.6793823
4420,8.1617918,6.8617468,-2.0326669,95.0457993,-167.2213745,6.8778625,4.1251884,8.6023226,-4.3885493,-3.7022901,-64.5343475,196.5343475
4430,8.3485384,6.0860295,-1.8794388,68.3816757,-179.3282471,21.9618320,9.5456333,7.9846220,-4.8625989,-20.0687027,-69.0076370,182.7251892
4440,8.1593981,7.5632443,-2.2050486,50.5190849,-190.8625946,24.1984730,15.6172981,6.9766679,-6.1434903,-31.6183205,-42.6183205,158.7480927
4450,7.4483232,8.3892403,-2.5809362,34.9694672,-180.1679382,20.4961834,19.6126022,6.3039007,-7.2927012,-40.2824440,8.1221371,122.5419846
4460,5.4132624,8.4730368,-2.8682389,22.3129768,-143.4732819,18.6106873,19.6126022,5.5233951,-8.4155760,-51.0992355,59.6641235,68.9618301
4470,3.0765336,7.6207051,-2.9927368,8.3816795,-87.8625946,30.4122143,19.6126022,5.2025738,-7.6805596,-67.6335907,89.9618301,-2.2671757
4480,1.8459201,6.3493905,-3.5649481,-8.7251911,8.5954199,58.1526718,19.6126022,5.8585815,-5.3007355,-89.2595444,74.9694672,-82.3206100
4490,1.0989330,4.9559722,-3.7588775,-27.4198475,118.2748108,97.0381699,19.6126022,6.9431496,-1.6591733,-110.6564865,10.0000000,-151.9084015
4500,-0.0287303,4.1467361,-3.5146701,-48.0152664,197.6183167,144.5267181,19.4072990,6.8018923,1.9129574,-123.5648880,-82.4732819,-208.4503784
4510,-1.1037214,4.5322008,-2.2242019,-70.5877838,230.1374054,198.8549652,16.7114429,6.3182659,4.6183915,-125.7786255,-148.4885559,-248.6106873
4520,-0.7350162,5.0708933,-0.3471575,-94.3664093,222.8015289,243.9847260,13.9820662,5.4563580,6.2584114,-115.3816757,-168.1984711,-250.1374054
4530,2.0949159,4.8602047,0.8547257,-111.4427490,192.8320618,250.1297760,10.6541433,4.8769641,6.7276726,-96.6793900,-154.3129730,-250.1374054
4540,4.9535780,3.9743545,1.0510491,-118.4961853,169.4503784,236.4503784,6.3613615,4.2472920,6.6319046,-73.7404556,-128.3511505,-250.1374054
4550,5.9782910,3.1483591,0.6129125,-126.6793900,145.7786255,223.2061005,1.9416877,3.6367738,5.9998388,-51.2061081,-92.6106873,-250.1374054
4560,5.9711084,2.8299320,0.9959828,-142.1297760,135.0610657,215.0763397,-4.1251884,3.9144998,6.0213866,-30.1221371,-42.8625946,-250.1374054
4570,3.2991931,2.6240315,4.7165532,-139.7099304,127.2366409,228.8015289,-11.9637651,4.9416070,5.8394279,-9.5496187,19.5496178,-250.1374054
4580,6.6797886,1.1492109,4.9320302,-140.2061005,62.9847336,227.9923706,-19.6131992,6.2967181,4.8697815,9.2671757,78.4427490,-190.9847260
4590,6.4044566,1.3048333,7.1921453,-112.3053436,52.1908379,220.6641235,-19.6131992,7.9223728,4.3095412,23.4045811,112.0992355,-108.0534363
4600,6.6582408,1.1252691,8.4155760,-69.3282471,9.1755724,211.6793823,-19.6131992,8.6166878,4.0126615,32.5877876,120.3816757,-19.4961834
4610,6.7635851,1.5873476,7.6135225,-28.2748089,-39.8473282,201.4351196,-19.6131992,8.6980906,3.1770895,37.8091621,124.0839691,61.8244286
4620,7.9654684,1.3359578,7.2352405,6.7938933,-91.4503784,187.0610657,-19.6131992,8.3150196,3.1651185,39.6793900,125.2671738,127.5114517
4630,8.2527714,1.5179161,5.9375896,30.0381680,-127.0457993,171.4045868,-19.6131992,7.5895805,4.0198441,42.5572510,116.5648880,176.6564941
4640,8.8872309,1.7932479,4.4675574,41.6717567,-144.0229034,156.1374054,-19.6131992,7.0987716,4.6375451,47.0534363,90.5648880,206.5572510
4650,9.6749191,1.6304430,3.6080434,40.1755714,-133.5343475,139.0152740,-19.6131992,6.9048424,4.5872669,57.4732819,53.2671738,218.3893127
4660,10.6206245,0.2394189,5.1163831,35.6335869,-61.7862587,119.3664093,-16.3906212,6.9144192,3.5338237,61.4274826,14.7480917,225.1755676
4670,9.0189114,0.3830703,3.2896163,21.0305347,-45.0305328,102.9618301,-12.6868095,6.7396431,2.2505381,58.8015251,-12.3206110,229.8778687
4680,8.8944139,0.1987177,2.8778157,3.0458016,-33.2824440,94.1755753,-8.8704720,6.7516141,0.7996593,52.0992355,-38.1068687,234.3358765
4690,8.5975342,-0.5458752,3.6128318,-10.0229006,-8.1755724,85.1679382,-5.3486195,6.8689294,-0.6057299,46.5496178,-56.9236641,239.6564941
4700,8.0013809,-0.7374104,4.5250182,-19.0305347,7.3816795,76.5725174,-1.5131277,6.8282285,-2.0518203,41.3511467,-58.4656487,247.1068726
4710,7.5345144,-1.1563935,5.2791877,-24.2290077,17.4580154,73.3358765,2.5569944,6.9335728,-3.2058196,34.2977104,-46.4885483,250.1297760
4720,7.5871863,-1.5897418,6.0716643,-20.7786255,28.0687027,70.7786255,6.2105274,7.2783360,-4.2377152,26.7099228,-29.9389305,250.1297760
4730,8.4036045,-2.6982515,6.9096308,-11.8778629,55.1374054,65.2442780,9.6629486,7.5728211,-5.2049680,19.3969460,-16.1755733,250.1297760
4740,9.1912937,-2.7245877,7.4052281,4.4961834,99.1984711,57.8396950,13.6636391,7.2950954,-6.6941538,5.9847326,-12.1603050,243.9465637
4750,7.3453732,-1.4915800,9.2415714,20.9694653,88.9694672,56.3511467,17.9133263,6.7061248,-8.2575598,-16.5496178,-7.9160304,221.5877838
4760,8.0037756,-1.0318956,8.3964224,27.0763359,33.5648842,60.2366409,19.6126022,5.9280128,-8.7435799,-45.6793900,-4.6106873,182.8091583
4770,9.0715837,-2.4061604,7.0508881,29.0610695,20.5877857,61.3740463,19.6126022,5.3534074,-7.7667508,-72.2442780,-12.1755724,127.3587799
4780,8.9638453,-2.9783716,6.8952656,29.9541988,29.2442741,59.1221390,19.6126022,4.3047528,-5.7197185,-86.5725174,-15.6106873,57.6412201
4790,8.5903521,-2.7054341,7.1011658,26.5419846,30.6030540,60.0152664,19.6126022,3.6367738,-3.5410061,-86.7175598,12.8931293,-16.7557259
4800,8.9327211,-2.1523764,6.7324610,20.7328243,31.2519093,65.4427490,19.6126022,3.6295912,-1.5322813,-80.4274826,35.1068687,-88.8854980
4810,9.5671806,-1.9345051,6.4738884,15.7557249,29.1221371,70.2671738,19.6126022,4.1994085,-0.2298422,-79.1297684,12.1603050,-155.6488495
4820,10.8935623,-2.3534882,6.3924856,11.2061071,16.3740463,67.3435135,19.6126022,4.4603748,0.5075682,-86.4351120,-30.2748089,-214.3053436
4830,12.7179346,-2.3534882,6.3134775,8.5801525,9.7328243,54.2748108,18.1934452,4.0198441,1.3383518,-95.4045792,-63.1603050,-250.1374054
4840,14.0993814,-2.0781565,6.4331870,8.9465647,10.8396950,35.0152664,15.0091734,3.0358322,2.1547706,-99.0381699,-77.2061081,-250.1374054
4850,14.4537220,-1.7214222,6.4451580,10.5190840,7.5725193,11.1526718,11.5208397,2.0901275,2.8203552,-96.5725174,-87.0687027,-250.1374054
4860,14.5662489,-1.4724265,6.3278427,14.8244276,1.7786260,-11.7328243,7.4195933,1.1396341,2.9783716,-92.4885483,-94.1984711,-250.1374054
4870,14.9325600,-1.6759326,6.2081332,21.8625946,-3.7709923,-31.6488552,1.9321109,0.6775556,3.1723011,-90.4045792,-97.0763321,-250.1374054
4880,14.5949793,-2.9209111,6.0980005,21.9007626,2.0916030,-49.4809151,-3.8426740,0.3256098,3.2130022,-88.4503784,-85.4732819,-250.1374054
4890,13.4553452,-4.5130472,5.5353661,13.6870232,5.1450381,-66.7328262,-11.9853125,0.7086801,4.0485744,-85.3740463,-53.2213745,-250.1374054
4900,12.0691090,-4.5322008,4.8027439,4.8854961,24.7786255,-82.0763321,-19.6131992,2.9352763,5.6431046,-77.9465637,0.7709923,-250.1374054
4910,9.3421268,-3.2393384,4.8985114,3.3206108,52.6870232,-85.2977066,-19.6131992,7.1945391,7.9415264,-66.8702316,56.2290077,-217.4503784
4920,7.9750452,-2.8371146,4.4460096,4.2366414,65.8091583,-78.1297684,-19.6131992,9.3876171,10.3931761,-55.0458031,78.9465637,-72.7862625
4930,7.8529415,-2.3247581,4.1515245,5.0916033,65.0992355,-72.8854980,-19.6131992,7.9080076,12.6293497,-35.0076332,85.0763321,68.0763321
4940,8.3078375,-2.1547706,4.2712340,9.0305347,56.7404594,-74.4732819,-19.6131992,5.9974446,14.3627424,2.4809160,119.6564865,170.8244324
4950,8.2407999,-0.4118006,5.2911587,-81.4656525,-50.8396950,-99.1908417,-2.0278785,6.4547348,-2.9400647,79.9160309,43.7251892,250.1297760
4960,8.1139078,-0.6560079,6.0118098,-96.1526718,-45.0763359,-103.3053436,2.2529323,6.0501165,-4.0198441,55.3053436,34.3969460,250.1297760
4970,7.7045016,-1.5370697,7.1945391,-101.5725174,-40.4885483,-108.2061081,6.3781209,6.2943239,-4.0796990,36.4885483,39.9923668,250.1297760
4980,6.4355812,-2.5546002,8.8106174,-85.7709961,-63.5801544,-107.0305328,15.6029329,5.4467812,-4.4220681,5.9236641,28.1984730,250.1297760
4990,5.6000090,-2.5210814,9.9023676,-66.4580154,-82.8015289,-98.7022934,19.6126022,4.4436154,-4.3430595,-3.9083970,20.1297703,240.6946564
5000,5.0852585,-2.0470319,10.5176744,-40.8931313,-97.4961853,-86.9770966,19.6126022,3.3183465,-4.0366035,-11.7404585,30.4961834,179.8167877
5010,4.9751258,-1.8746504,10.3476868,-16.7404575,-106.6641235,-73.5877838,19.6126022,3.3351059,-3.1770895,-17.0534344,42.2977104,97.0457993
5020,5.2145448,-1.6136837,9.8065996,1.6106870,-104.7328262,-61.4809151,19.6126022,3.9528067,-2.0206959,-23.4961834,30.3893127,6.0458016
5030,5.6359220,-1.5107336,9.2487535,14.9770994,-88.8854980,-51.2137413,19.6126022,4.8386569,-0.8595140,-37.2137413,-13.6259546,-76.5343475
5040,6.4667058,-1.0606259,8.6118994,22.7022896,-61.2213745,-43.5572510,19.6126022,5.1522956,0.5123565,-54.7938919,-76.9694672,-147.4809113
5050,6.7875271,-0.7709290,7.4124107,24.3893127,-20.8549614,-44.4198456,19.6126022,5.0158267,2.2481439,-65.3358765,-118.4274826,-203.4198456
5060,6.0165982,-0.6057299,6.5217719,22.6488552,28.7480907,-46.1603050,18.7848110,4.5322008,3.4404502,-65.4122162,-131.4961853,-245.2061005
5070,4.4484038,-0.5386927,5.6933827,17.9923668,87.8625946,-38.0076332,15.8303804,3.8378856,3.9911139,-56.8549614,-128.8091583,-250.1374054
5080,4.2736282,-0.0071826,4.2664456,10.6183205,148.5648804,-28.2290077,12.2606440,2.9903426,4.0270267,-45.3969460,-125.0763321,-250.1374054
5090,3.3159523,0.1149211,3.4356618,-0.1984733,198.7709961,-18.6259537,8.6262646,2.3726418,3.6511390,-38.2824440,-127.0305328,-250.1374054
5100,2.6623387,0.0143651,2.8012016,-13.0305347,240.1450348,-1.9923664,3.6822634,1.8339491,3.5960727,-36.9541969,-127.1755753,-250.1374054
5110,2.6599445,0.4022238,2.7652888,-22.3129768,250.1297760,15.6259546,-2.8179610,2.2984219,3.9599893,-36.4732819,-102.9389343,-250.1374054
5120,3.4117200,0.9959828,2.8371146,-27.5725193,250.1297760,27.1755733,-11.4825325,3.4979107,4.2975702,-29.6106873,-46.2366409,-250.1374054
5130,4.2137733,1.2856797,2.4133430,-31.8931293,250.1297760,31.5801525,-19.6131992,7.0891948,4.3646073,-16.5343513,25.9083977,-250.1374054
5140,5.1283536,1.4676381,2.2505381,-38.7175560,250.1297760,34.0687027,-19.6131992,11.0467901,4.5920553,-4.1450381,99.8244247,-165.0152740
5150,6.4906478,1.6136837,2.7964132,-45.4732819,250.1297760,32.8931313,-19.6131992,12.0978394,5.5425487,7.0076337,144.7251892,-22.3435116
5160,7.4962072,1.6352314,3.4404502,-48.5725174,226.0076294,26.3969460,-19.6131992,10.8552551,5.7460546,21.0916023,152.2748108,110.9312973
5170,7.9678626,1.7980363,3.9288650,-49.0534363,182.6488495,17.6030540,-19.6131992,9.3828287,6.1554613,40.9771004,163.8931274,204.3358765
5180,8.9806042,1.9297167,4.2544746,-52.7938919,134.2671814,8.0381680,-19.6131992,8.4203644,5.9208307,64.6412201,164.2137451,250.1297760
5190,10.0939026,1.7166338,4.8554163,-63.5877876,91.9236679,-6.0992365,-19.0625362,7.8601241,4.4771342,86.8244247,141.1832123,250.1297760
5200,9.9622221,1.4891858,6.4738884,-74.8167953,55.9083977,-20.2824421,-14.0131912,7.9726510,1.9273225,94.5190811,101.7251892,250.1297760
5210,10.4195127,1.3120158,7.4938130,-80.2824402,24.6183205,-28.8015270,-9.8305416,8.4203644,-1.3670821,80.4732819,61.0992355,250.1297760
5220,10.2926207,0.8834559,9.0404596,-85.0152664,-4.4351144,-37.2748108,-5.9830794,8.5233145,-4.0629396,51.2290077,29.0458012,250.1297760
5230,10.2662840,0.6943150,9.9478569,-83.9542007,-23.8625946,-41.6488533,-2.0542145,8.1641865,-4.9870968,19.4580154,5.0687022,250.1297760
5240,10.2950144,0.4812321,11.1593170,-79.2824402,-31.2137413,-45.8396950,2.6503677,7.5943689,-5.0876527,-5.8244276,-13.5419846,250.1297760
5250,10.0244713,0.3687052,11.6477318,-71.0916061,-29.7175579,-49.7175560,7.9247670,6.7372489,-4.4675574,-24.8702297,-27.8396950,250.1297760
5260,9.6030941,0.3471575,11.7387114,-64.4274826,-18.3587780,-51.4274826,13.8144732,5.6957769,-3.9384418,-34.1832047,-21.6335869,250.1297760
5270,8.9375095,0.2657550,11.7051926,-59.6870232,2.0381680,-52.5877876,19.6126022,4.3047528,-3.5888901,-34.9312973,2.2290077,249.1145020
5280,8.3557215,0.1604107,11.5208397,-58.7633591,30.3053436,-52.5190849,19.6126022,3.4332676,-3.3758070,-29.9694653,39.8625946,197.1603088
5290,8.9949694,-0.2035061,13.3811245,-72.4045792,133.3893127,-48.9312973,19.6126022,2.5546002,-2.6623387,-19.8931293,72.9160309,126.6870193
5300,7.2807302,0.0383070,14.5279417,-68.5267181,184.7175598,-52.6641235,19.6126022,2.8897867,-1.8195840,-29.1221371,70.1908417,23.9007626
5310,5.4563580,-0.3351865,13.4792862,-53.8167953,205.3664093,-48.1908379,19.6126022,3.8881636,-0.7541697,-54.1068687,7.7251906,-84.2290039
5320,4.1108232,-0.2873027,12.0044661,-36.9923668,200.6412201,-43.4503822,19.6126022,4.7141590,1.1204807,-78.5114517,-87.6412201,-171.2671814
5330,3.5841017,-0.3160330,9.9167328,-23.2671757,182.7480927,-40.2519073,19.6126022,4.1275826,2.8179610,-91.4122162,-160.3053436,-240.4122162
5340,3.4332676,-0.1005560,8.9470863,-15.7786255,160.9084015,-40.4580154,19.6126022,3.3159523,3.6631098,-93.5801544,-186.7709961,-250.1374054
5350,3.6535332,-0.0430954,8.4036045,-10.7175570,145.3664093,-42.3664131,19.3067436,2.7389526,3.7445123,-88.1679382,-181.6641235,-250.1374054
5360,3.8043671,-0.3399749,8.2743187,-4.2061067,137.3511505,-46.2977104,15.0187502,2.2936335,3.1675127,-80.2519073,-167.8702240,-250.1374054
5370,3.4069316,-0.5985473,8.5400734,3.5267177,138.0381622,-50.8702278,9.7419567,1.9895715,2.5282640,-76.0381699,-163.2137451,-250.1374054
5380,2.9568241,-1.0318956,8.4203644,12.4427481,144.7557220,-50.9007645,4.4914994,1.6041069,2.1739240,-78.8778610,-172.0839691,-250.1374054
5390,2.8490853,-1.0318956,7.4076223,13.1908398,161.9465637,-48.8015251,-1.3862357,1.1803354,2.2409613,-87.3282471,-173.7938995,-250.1374054
5400,3.6822634,-0.1819584,8.1402445,-12.1832066,196.8015289,-47.4656487,-10.7451220,1.1204807,2.4205256,-92.2671738,-129.5419922,-250.1374054
5410,2.5234756,-0.5554519,9.6198530,-31.2442741,204.8320618,-47.8244286,-19.6131992,4.7237358,3.1339941,-89.5954208,-36.6717567,-250.1374054
5420,1.6879035,-1.0845678,10.7475166,-39.7557259,201.2442780,-46.1221390,-19.6131992,9.1290445,4.7213416,-81.3282471,66.4274826,-219.8702240
5430,0.8738791,-1.4221486,10.9965124,-36.4351158,185.6793823,-43.2671738,-19.6131992,11.1186161,7.0269461,-71.9083939,133.4503784,-60.4122124
5440,0.0550664,-1.2665262,11.3340931,-24.7022896,154.6412201,-44.3206100,-19.6131992,8.8513184,9.5121145,-56.6412201,160.4427490,104.9312973
5450,-0.4716553,-1.3718705,11.5064745,-6.0687022,113.4427490,-48.5267181,-19.6131992,6.2799587,11.7985659,-27.1603050,180.3129730,233.2213745
5460,-0.7302278,-1.4508789,11.2622671,12.7022905,89.6106873,-49.6412201,-19.6131992,5.0158267,12.6676559,11.7251911,195.2519073,250.1297760
5470,-1.6855093,-1.5011568,10.6948442,24.0381680,73.1145020,-50.0992355,-19.6131992,4.9894910,11.3843708,47.0000000,191.3969421,250.1297760
5480,-2.4013720,-1.5418580,10.0364418,30.0534344,63.3664131,-44.2900772,-14.5734310,4.8602047,8.5400734,74.7404556,161.6870270,250.1297760
5490,-2.7892308,-1.7286048,9.3157911,31.3816795,63.9847336,-34.2824440,-9.3373384,5.4395986,5.0924411,86.4351120,119.4961853,250.1297760
5500,-3.2465210,-1.7669119,8.8968077,27.6641216,68.9007645,-21.5267181,-5.4563580,5.8226686,1.5562232,76.3206100,76.9770966,250.1297760
5510,-3.4380560,-1.6759326,9.1697454,23.2900772,73.9389343,-8.2213745,-1.4939742,6.0716643,-1.4676381,49.0076332,31.9847336,250.1297760
5520,-3.5984666,-1.5921360,9.5839405,22.4427490,77.5038147,7.4580154,3.2608860,6.2296810,-2.8395088,18.3969460,-15.9007635,250.1297760
5530,-3.2489152,-1.8961980,9.9263096,23.4580154,76.2213745,21.0000000,8.6597834,5.4994531,-3.1052637,-7.6183205,-63.2442741,250.1297760
5540,-2.9927368,-1.7932479,10.0316534,24.7099228,73.6488571,31.6870232,14.5111818,5.0373745,-2.5976956,-21.8625946,-82.3129807,241.7099304
5550,-2.6503677,-1.5586174,10.3141680,26.9083977,71.5954208,42.0000000,19.6126022,4.2401094,-2.7221935,-27.1908398,-79.7251892,198.5343475
5560,-1.9081690,-1.3359578,10.5799236,31.6564884,69.8015289,49.3129768,19.6126022,3.2225790,-3.1172347,-26.7022896,-67.4351120,135.7557220
5570,-0.6536137,-0.1029501,10.9534168,36.7328262,73.0076370,52.6564903,19.6126022,3.5074875,-2.9975252,-25.0916023,-46.4351158,58.0000000
5580,-1.2761030,1.1923064,9.3038206,31.5343513,68.2366409,60.6717567,19.6126022,4.4412212,-2.5665710,-37.0916023,-49.0152664,-30.4503822
5590,-0.6272776,1.5011568,7.6374645,18.4122143,48.1450386,68.4732819,19.6126022,5.6718349,-1.5753766,-62.6793900,-93.0610657,-108.6488571
5600,-0.4118006,1.8387375,8.1115141,2.6183207,15.9770994,37.1221390,19.6126022,6.1794028,0.2944853,-85.0687027,-145.5114441,-166.0152740
5610,-0.7948709,1.4341195,8.9590569,-5.6870227,-17.2366409,-14.3587790,19.6126022,5.7963328,1.9919657,-96.8320618,-182.1984711,-211.8625946
5620,-1.6926919,0.0646431,9.0260944,1.2519084,-33.0763359,-32.1374054,17.4799767,4.9847026,3.2967989,-97.9083939,-192.0534363,-250.1374054
5630,-2.5833304,-0.4884146,8.7411861,9.2671757,-28.6030540,-29.4656487,13.8839045,4.0868812,4.2329268,-91.6870193,-187.2671814,-250.1374054
5640,-3.2896163,-0.4309541,9.0117292,8.2748089,-30.3358784,-23.2213745,9.5121145,3.5026991,4.5250182,-84.5877838,-178.4809113,-250.1374054
5650,-3.0645626,-0.4668669,9.4187412,3.1068702,-35.4961815,-15.4045801,3.5290353,3.3470769,5.0469513,-79.6564865,-159.2824402,-250.1374054
5660,-2.6551561,-0.7326220,9.6773138,-1.5267175,-37.8931313,-7.0534353,-3.4380560,3.7445123,6.2153158,-71.0687027,-114.1755753,-250.1374054
5670,-2.0398495,-0.6248835,10.0220766,-3.1908398,-39.0992355,0.7633588,-12.6197729,5.4348102,7.4100165,-52.5114517,-32.7709923,-250.1374054
5680,-1.3551112,-0.5027798,10.3165627,0.1603053,-39.8167953,5.9847326,-19.6131992,8.9734221,7.9487090,-24.9236641,66.1679382,-179.6106873
5690,-0.7900825,-0.4644727,10.3716288,4.9847326,-35.5725174,6.9389315,-19.6131992,11.2718439,8.7914639,5.8625956,148.4198456,-59.5419846
5700,-0.4381367,-0.3687052,10.2207947,8.1297712,-30.4427490,5.1603055,-19.6131992,11.1090393,9.3708572,34.8473282,197.8854980,72.0763321
5710,-0.3375807,-0.2537841,10.0460186,9.7328243,-24.9541988,3.0534351,-19.6131992,9.1410151,8.2144642,60.3511467,237.3053436,191.3358765
5720,-0.4812321,-0.3399749,9.9310980,9.8625956,-21.3969460,1.3358779,-19.6131992,7.7811155,7.1945391,78.6717529,250.1297760,250.1297760
5730,-0.6560079,-0.1915352,9.8496952,8.7251911,-20.0916023,0.4732825,-14.6261034,7.3717093,6.0740585,83.3969498,250.1297760,250.1297760
5740,-0.8547257,-0.0909792,9.7754755,7.7251906,-18.8396950,-0.0229008,-8.6956959,7.5105724,5.0852585,81.3358765,232.0305328,250.1297760
5750,-0.9624642,-0.0574605,9.6797075,7.0534353,-17.2519093,-0.3129771,-4.5752959,7.4698710,3.7397239,76.1450348,186.7557220,250.1297760
5760,-1.1037214,0.0574605,9.7299862,6.2519083,-16.8320618,-0.7328244,-0.7517755,7.7571740,2.1739240,69.0687027,125.8396912,250.1297760
5770,-1.1396341,0.2298422,9.8233595,6.1450381,-17.5038166,-0.8320611,2.6886747,8.7004843,0.0000000,59.9694672,65.5038147,250.1297760
5780,-1.1204807,0.2322364,9.7395630,6.5190840,-15.4809160,0.2900763,6.8449879,8.4730368,-2.0159075,43.8549614,11.8091602,250.1297760
5790,-1.0606259,0.3375807,9.7180147,6.2137403,-12.4045801,1.6641221,13.1153698,7.0245519,-4.5226240,27.2595425,-28.7022896,241.0763397
5800,-1.0151364,0.6009415,9.6749191,5.0305343,-6.9847326,3.1832061,19.6126022,6.0525107,-6.0980005,17.7938938,-33.2595406,207.7938995
5810,-0.8882443,-0.2513899,9.6629486,-11.7557249,3.9083970,4.4351144,6.0860295,0.7110743,5.1092005,-118.9694672,-180.5801544,-250.1374054
5820,-0.8643024,-0.2944853,9.8520899,-12.4580154,0.3816794,4.7099237,-1.2042773,-0.1723816,6.0908179,-111.7251892,-136.1755676,-250.1374054
5830,-0.8499373,-0.3710994,9.9861641,-12.1374044,-3.4503818,4.0305343,-10.9629936,0.5985473,7.7164726,-94.3206100,-45.4809151,-250.1374054
5840,-0.9313397,-0.5099624,10.0555954,-10.6335878,-7.1221375,2.0534351,-19.6131992,4.3789725,9.1769285,-66.2442780,56.1755714,-250.1374054
5850,-0.8978211,-0.4884146,10.2255831,-7.5572519,-11.5267172,0.7786260,-19.6131992,8.2048874,9.7395630,-33.6946564,141.8396912,-203.2748108
5860,-0.8355721,-0.4453192,10.2686787,-3.9083970,-14.0839691,-0.4198473,-19.6131992,9.1386213,10.1729107,-5.4122138,178.5343475,-50.0839691
5870,-0.7661406,-0.4860204,10.3381100,0.0305344,-14.1908398,-1.6717557,-19.6131992,7.9846220,11.4873209,14.9618320,164.1603088,110.6564865
5880,-0.8236012,-0.3734936,10.2758608,3.8091602,-12.5648851,-2.4961832,-19.6131992,5.9495606,13.1441002,40.2824440,149.4427490,223.7480927
5890,-0.8403605,-0.2585725,10.0843258,6.9770994,-11.7480917,-2.7099237,-19.6131992,4.5872669,13.5343533,70.1832047,136.6946564,250.1297760
5900,-1.0007712,-0.1244979,9.9694052,8.3511448,-12.5267172,-1.8931298,-19.6131992,3.9025288,12.5335817,99.1984711,117.8244247,250.1297760
5910,-0.9457048,-0.0047884,9.8520899,8.7099237,-13.3358774,-0.4580153,-14.4106264,3.9312592,10.0795374,123.0076370,87.3664093,250.1297760
5920,-0.8762733,0.0885850,9.6581602,8.5801525,-13.5725193,0.6870229,-9.7922344,4.8410511,6.2201042,138.5954132,42.5267181,250.1297760
5930,-0.7469871,0.2154770,9.7180147,7.2595420,-12.0229006,1.6717557,-6.0501165,5.6742291,1.6328372,142.4809113,-5.7022901,250.1297760
5940,-0.6823440,0.3064562,9.6701307,5.6412215,-9.9465647,2.0687022,-2.8610563,6.0333576,-2.5593886,133.2595367,-33.9541969,250.1297760
5950,-0.5003856,0.3830703,9.7611103,4.1374044,-6.9694657,2.7099237,0.8595140,6.2631998,-5.8370337,112.2748108,-32.8702278,250.1297760
5960,-0.3543400,0.5195391,9.5791521,2.2519083,-3.2290077,2.6030533,5.7580256,5.5497313,-8.5185261,85.9770966,-15.1526718,250.1297760
5970,-0.2849085,0.5315101,9.5911226,0.0687023,-0.5648855,2.2824428,12.1816359,4.4005203,-10.1250277,60.7328262,14.8625956,250.1297760
5980,-0.2561783,0.4644727,9.6485834,-1.8091604,1.3129771,1.0381680,19.6126022,3.5673423,-11.2215662,40.3969460,55.8167953,250.1297760
5990,-0.3232156,0.4405309,9.6150646,-3.5419848,2.8167939,-0.1526718,19.6126022,4.0605454,-10.2112179,20.1374054,85.7862625,250.1297760
6000,-0.3854645,0.3854645,9.7778702,-4.6564884,3.1145039,-1.0381680,19.6126022,4.3454537,-9.0691900,-6.5877862,67.4045792,183.6488495
6010,-0.5147507,0.3016679,9.7635050,-5.3740458,2.8625953,-1.4045801,19.6126022,4.8099265,-7.5536675,-46.4885483,13.5038166,101.7099228
6020,-0.6440369,0.1580165,9.8808203,-6.0381680,2.8244274,-1.7709924,19.6126022,5.7987270,-5.2696109,-86.4045792,-46.0228996,20.0687027
6030,-0.8786675,0.0861908,9.8185711,-6.5190840,1.9083970,-1.5954199,19.6126022,5.5808558,-2.6048782,-117.5114517,-97.4656525,-54.4885483
6040,-1.0031654,-0.0143651,9.8975792,-6.3129773,-0.2366412,-0.7404580,19.6126022,4.8961172,-0.1316804,-132.5725250,-129.1450348,-118.8015289
6050,-1.0438666,-0.0478838,9.8185711,-5.8854961,-2.3969467,0.1603053,19.6126022,4.7859845,1.5227045,-133.3511505,-140.4656525,-173.8320618
6060,-0.9720409,-0.1005560,9.9622221,-5.3664122,-5.0687022,0.6259542,19.6126022,4.6231799,2.1475880,-127.6106873,-143.7938995,-217.1145020
6070,-0.6967092,0.0119709,10.0843258,-3.7938931,-8.2519083,0.4656489,16.2230282,4.5202298,2.1906834,-120.6106873,-143.8778687,-248.7099304
6080,-0.4620786,0.0670373,10.1776991,-1.6946565,-11.2977095,-0.9312977,12.9501705,4.2879934,2.0422437,-116.2748108,-142.1221313,-250.1374054
6090,0.0000000,0.2322364,10.4961262,0.9618320,-15.7404585,-4.8320613,10.3644457,3.9456241,1.7286048,-117.2213745,-140.6183167,-250.1374054
6100,0.3136388,0.1532281,10.5799236,5.6946564,-17.5343513,-11.7175570,7.9582858,3.3303175,1.8985922,-121.5267181,-141.0915985,-250.1374054
6110,0.1268920,-0.0550664,10.3668404,10.5648851,-16.2213745,-17.5801525,5.3414369,2.8275378,2.4899571,-126.4198456,-144.2671814,-250.1374054
6120,-0.0454896,-0.1532281,10.0747490,15.0076332,-13.0687027,-19.1679382,2.3965836,2.3582766,3.4380560,-130.6335907,-149.5343475,-250.1374054
6130,-0.2082945,-0.1891410,9.6581602,16.3969460,-7.9160304,-17.6641216,-0.1244979,2.1667414,4.5920553,-133.1526642,-158.6717529,-250.1374054
6140,-0.2537841,-0.2202654,9.3277617,13.1221371,-3.1603053,-14.3129768,-2.6527619,1.6831152,5.7699966,-133.1984711,-162.7862549,-250.1374054
6150,-0.3519458,-0.1532281,9.3540983,6.4580154,3.0229008,-11.3587790,-6.8258343,1.5658000,7.4435349,-128.4427490,-133.5572510,-250.1374054
6160,-0.4620786,-0.0814024,9.4355011,-0.2442748,6.8625956,-9.3511448,-12.6006193,2.1715298,10.8121595,-108.9770966,-29.7328243,-250.1374054
6170,-0.5674229,0.0526722,9.5480280,-4.6183205,7.9694657,-8.0610685,-19.6131992,5.1307478,15.1145182,-68.2519073,120.0610657,-197.7557220
6180,-0.5746055,0.0670373,9.8951855,-5.2900763,6.9618320,-8.5419846,-19.6131992,6.4068508,16.3379498,-18.1908398,227.5877838,-100.9542007
6190,-0.8379663,0.0383070,10.1274214,-3.0381680,4.2519083,-9.5114508,-19.6131992,6.4882536,15.6867294,28.8625946,240.4809113,10.3206110
6200,-1.0007712,0.1675933,10.0555954,0.4503817,-0.2366412,-9.5114508,-19.6131992,5.3318601,14.0347385,68.8015289,182.9770966,124.6106873
6210,-1.1779412,0.0885850,10.0579901,3.6183207,-5.5648856,-7.8778625,-19.6131992,4.6423335,13.3715477,99.1145020,126.4580154,215.2290039
6220,-1.2808913,0.1819584,9.9574337,5.4656487,-10.2900763,-4.9236641,-14.5590658,4.5896611,12.4833040,120.3129807,111.1221390,250.1297760
6230,-1.2641320,0.1436514,9.8209648,6.1603055,-13.1374044,-1.7251909,-8.9614515,5.5425487,10.7523050,135.4961853,118.4656525,250.1297760
6240,-1.1635761,0.2394189,9.8137827,5.7328243,-14.6259546,1.5496184,-6.6558466,5.8226686,8.1139078,152.3816833,103.2061081,237.9770966
6250,-0.9504932,0.2322364,9.6844959,4.5419846,-15.6335878,4.0000000,-4.8218975,6.6438756,4.8338685,162.9847260,65.2977066,232.9236603
6260,-0.6655847,0.2849085,9.7658987,2.8549619,-14.8091602,5.2595420,-2.1667414,7.3621325,0.6751614,162.1755676,29.1832066,231.3435059
6270,-0.5123565,0.1604107,9.6797075,1.8320611,-14.3893127,5.7633586,0.5530578,8.0540533,-2.9400647,145.0763397,4.9236641,228.7328186
6280,-0.3112446,0.1843526,9.8042059,1.4351145,-14.0076332,5.7862597,3.7493007,8.6813307,-5.5138183,117.6488571,-13.2671757,225.3053436
6290,-0.1963235,0.1915352,9.9143381,1.3740458,-13.2595415,5.2900763,8.1115141,8.4323349,-7.4602942,89.1450348,-20.8091602,218.5801544
6300,0.0239419,0.1221037,9.9167328,1.7480916,-12.2595415,4.7099237,12.8927097,8.1210909,-9.2607250,64.3206100,-27.2977104,201.4656525
6310,0.2298422,0.2394189,9.8113880,1.8549619,-10.8854961,3.4351146,18.8662128,7.7404146,-11.0874910,38.3282433,-43.1374054,169.0915985
6320,0.3232156,0.2226596,10.0053177,2.3816793,-8.6946564,1.7862595,19.6126022,7.4698710,-11.3293047,10.7022905,-56.1755714,111.9847336
6330,0.3519458,0.2633608,9.9263096,2.6564887,-4.4122138,0.0458015,19.6126022,8.4083929,-10.5727406,-18.4351139,-75.3587799,42.4503822
6340,0.1268920,0.3878587,9.7682934,1.8931298,-1.0916030,-0.8702290,19.6126022,8.8489246,-9.1649570,-50.7404594,-111.7633591,-21.6259537
6350,0.0071826,0.3591284,9.6892843,0.2061069,0.5419847,-1.1984733,19.6126022,9.1721401,-7.0700417,-82.4045792,-154.6488495,-76.0305328
6360,-0.0287303,0.4501076,9.7922344,-2.0000000,0.9236641,-1.3664122,19.6126022,8.8393478,-4.4819226,-107.5954208,-180.6183167,-124.5419846
6370,-0.2394189,0.4572902,9.7012558,-3.5343511,2.4122138,-0.7022901,19.5054607,8.2695303,-2.7389526,-123.2061081,-182.6793823,-164.6564941
6380,-0.4453192,0.3208214,9.8377247,-4.0687022,2.4885497,0.0152672,17.0753593,7.7380204,-0.9935886,-129.5648804,-166.8931274,-196.8625946
6390,-0.4884146,0.4764437,9.8329363,-3.9694657,1.3511450,0.8549618,14.1999378,7.1083484,0.4477134,-130.0305328,-144.0305328,-222.3053436
6400,-0.6440369,0.3998296,9.9670105,-2.8320611,1.3740458,1.7938931,11.1186161,6.5552907,1.5346755,-128.6793823,-129.6717529,-242.9084015
6410,-0.8164186,0.3327923,10.0101061,-1.5267175,-1.1908396,3.6564887,8.3700867,5.8537931,2.3654592,-128.7251892,-126.9847336,-250.1374054
6420,-0.8810617,0.3591284,9.8568783,-0.5648855,-0.5496183,6.2061067,5.6598639,4.9344244,3.0885043,-129.8091583,-125.5190811,-250.1374054
6430,-0.7781116,0.2873027,9.8449068,-0.1755725,-1.9312977,8.5114508,2.1140692,4.5250182,5.0972295,-127.0687027,-109.1068726,-250.1374054
6440,-0.6823440,0.3016679,9.7611103,-0.5725191,-2.8091602,10.4351149,-2.2002602,4.2113791,7.2352405,-116.0381699,-78.2366409,-250.1374054
6450,-0.4405309,0.2226596,9.7706871,-1.6106870,-2.3435113,11.7938929,-8.0229292,4.9272418,9.8808203,-96.8854980,-34.0916023,-230.3129730
6460,-0.0646431,0.1939293,9.6533718,-2.3282442,-1.4351145,11.5114508,-13.5104113,5.7221127,12.3851423,-67.1984711,19.2824421,-185.0458069
6470,0.3184272,0.1963235,9.6605549,-3.8854961,1.3358779,9.7251911,-16.1799316,3.3183465,13.9629126,-28.5114498,91.2748108,-128.8702240
6480,0.4094064,0.1484398,9.7970228,-5.6641221,3.6488550,7.7709923,-19.6131992,6.5193777,16.0027618,24.1297703,145.8854980,-74.5267181
6490,0.5674229,-0.1436514,9.9502516,-7.8091602,4.2900763,0.8702290,-19.6131992,6.1722202,11.2886028,86.5572510,119.6641235,76.2061081
6500,0.2849085,-0.1699875,10.1609402,-7.4656487,5.6183205,-1.0992366,-17.4751892,5.9112539,8.9087791,99.7022934,74.2900772,104.6641235
6510,-0.1891410,-0.1604107,10.1274214,-6.0687022,6.1297708,-1.0000000,-15.5550489,7.0580707,6.6678176,107.8931274,23.1068707,114.0305328
6520,-0.3423691,-0.2274480,10.2231894,-4.3206105,3.6183207,-0.4427481,-13.9150295,7.1466556,4.8410511,108.3587799,-28.0229015,123.1297684
6530,-0.5913648,-0.1292862,10.1513634,-1.2519084,-0.0229008,0.1221374,-11.6381550,7.4650826,2.8754215,105.6488571,-60.9236641,131.1755676
6540,-0.6536137,0.1101327,10.0340481,1.8320611,-4.2366414,-0.0992366,-9.1625633,8.0851774,1.2066715,101.0000000,-69.3129807,138.7175598
6550,-0.6631905,0.0383070,10.0651722,4.5419846,-8.4961834,-0.3053435,-7.2759418,8.7747040,0.0311245,97.8549652,-66.0534363,151.1984711
6560,-0.9480990,0.1077385,9.8113880,5.9389315,-14.9694653,0.4351145,-5.3869262,9.4378948,-1.2210367,95.9389343,-64.6870193,168.7938995
6570,-0.6320660,0.1580165,9.9191265,6.8015265,-23.5801525,1.9007634,-2.0685797,10.4051476,-2.3056045,94.5114517,-58.3435097,187.1068726
6580,-0.4548960,0.1915352,9.8975792,7.5648856,-24.0992374,3.0610688,3.1842721,10.4889441,-4.2736282,94.3816757,-48.9007645,199.4580078
6590,-0.2825144,0.3495516,9.8903971,7.3129773,-23.1526718,3.8931298,8.2048874,10.7523050,-6.9359670,91.2748108,-39.8931313,201.1374054
6600,-0.1244979,0.2968795,9.7132263,6.0000000,-18.6564884,4.9083967,13.6325150,10.4386663,-9.4762020,78.2290039,-32.9847336,186.2061005
6610,0.0335187,0.4213773,9.6629486,3.4503818,-15.6946564,5.9312978,18.7345333,9.6509781,-12.0403786,57.3893127,-32.8702278,152.2442780
6620,0.1747758,0.3950413,9.6581602,0.5267175,-11.5648851,6.0534353,19.6126022,9.8544836,-13.6205435,26.0992374,-45.6259537,96.7709961
6630,0.3998296,0.4477134,9.6940727,-2.3893130,-6.4656487,5.3893127,19.6126022,9.9837704,-14.1520538,-19.4122143,-67.5801544,31.8396950
6640,0.4165890,0.4429250,9.7228031,-3.8854961,-2.6030533,4.1297708,19.6126022,9.9167328,-13.2398672,-69.2671738,-84.9542007,-29.4351139
6650,0.4237715,0.4932030,9.7850523,-4.7709923,-0.1679389,1.8854961,19.6126022,8.8896255,-10.7475166,-109.6030502,-94.4732819,-87.3664093
6660,0.2633608,0.3615226,9.8880024,-4.6641221,0.1068702,0.4122137,19.6126022,8.2719250,-7.9295554,-134.7862549,-101.9465637,-138.4732819
6670,0.1340746,0.3758878,9.8951855,-4.4656487,-0.4122137,-0.7862595,19.1654873,7.4602942,-5.8466105,-149.8320618,-104.5267181,-182.3206177
6680,-0.0047884,0.2609667,9.9717989,-3.6793892,0.0916031,-1.2290076,16.3547077,6.4954362,-4.0054789,-160.1679382,-98.6412201,-219.3206177
6690,-0.1484398,0.2059003,10.0268650,-2.4656489,0.8473282,-0.0687023,13.2374735,5.5904322,-2.6407909,-165.9465637,-90.6488571,-249.7633514
6700,-0.2394189,0.1364688,9.9717989,-1.5343511,2.5114503,1.3816794,10.1034794,4.2975702,-1.0678085,-167.7022858,-85.8091583,-250.1374054
6710,-0.2059003,0.1460456,9.9454632,-1.1984733,4.7404580,3.4122138,6.8114691,2.9137285,-0.1460456,-170.3587799,-81.5343475,-250.1374054
6720,-0.2059003,0.1149211,9.9885588,-1.9541985,7.7251906,5.8091602,2.3965836,1.8076130,1.3096216,-173.7251892,-63.7633591,-250.1374054
6730,-0.3687052,-0.0167593,10.0292597,-2.8167939,12.1526718,9.2366409,-3.9647777,1.1851238,4.4555864,-171.0458069,-18.9847336,-250.1374054
6740,-0.4477134,0.0143651,10.0508070,-3.8244274,15.1908398,14.7938929,-12.2774038,1.5035510,7.7547798,-156.2671814,51.2824440,-250.1374054
6750,-0.4716553,-0.1005560,10.1034794,-3.1603053,17.0610695,20.6564884,-19.6131992,2.7916248,11.4538021,-128.8549652,133.5954132,-199.4961853
6760,-0.5889706,-0.1939293,10.0460186,-0.7328244,16.3435116,29.1679382,-19.6131992,3.7732425,15.2270451,-88.2900772,188.9389343,-96.6641235
6770,-0.3663110,-0.0574605,10.0460186,2.3358779,14.8015270,34.2748108,-19.6131992,4.1419477,18.1240139,-37.1755714,194.1679382,26.4427490
6780,0.1484398,0.2059003,10.0484133,3.6335878,11.6641226,31.5190830,-19.6131992,4.1802549,19.2277355,12.9770994,169.7251892,127.1221390
6790,0.4118006,0.2968795,9.9502516,3.4427481,8.0381680,23.6259537,-19.6131992,4.5944495,18.6627064,60.5496178,143.4885559,195.2366486
6800,0.3663110,0.4285599,9.8496952,3.2137403,5.1297708,16.1145039,-19.6131992,3.7493007,17.2094345,100.0687027,120.1755753,226.4961853
6810,0.1963235,0.3950413,9.8185711,2.9465649,2.6946564,10.5114508,-16.0267048,4.0749106,14.7649660,133.7328186,96.0305328,233.2366486
6820,0.0454896,0.4501076,9.6725254,1.6412214,-0.5877863,5.6259542,-12.7059631,4.8913293,10.2327662,161.7557220,69.8549652,235.7175598
6830,-0.3256098,0.2585725,9.7491398,-1.5190840,-1.7175573,-0.4351145,-6.5433197,6.5864153,0.6368544,173.3587799,42.9541969,250.1297760
6840,-0.4118006,0.1939293,9.8137827,-2.2824428,-5.9541984,-1.4732825,-3.5529771,7.6183109,-3.2896163,157.5496216,44.0610695,250.1297760
6850,-0.3471575,0.1340746,9.9215212,-1.9312977,-7.8091602,-1.4961832,-0.0215477,8.6669655,-5.9040713,132.3511505,48.3511467,250.1297760
6860,-0.6033357,0.0407012,10.0436249,-1.3740458,-7.8549619,0.0534351,5.4324160,8.8345594,-8.9734221,102.3816757,41.4656487,250.1297760
6870,-0.3998296,0.2322364,10.0292597,-0.4580153,-8.6183205,2.1984732,11.9661589,8.3892403,-11.5423870,73.8854980,12.2595415,250.1297760
6880,-0.3160330,0.1340746,9.8927908,0.5343512,-7.7709923,4.0076337,19.2205524,7.5728211,-13.2446556,50.7099228,-4.5190840,250.1297760
6890,-0.1029501,0.1987177,9.8544836,1.0076336,-8.7938929,4.7099237,19.6126022,7.8864598,-14.4872408,25.0992374,-43.9847336,198.8015289
6900,0.1436514,0.2729376,9.8449068,1.2213740,-9.4427481,4.3282442,19.6126022,8.4706421,-15.0977583,-14.8473282,-116.3358765,123.2977066
6910,0.2873027,0.3663110,9.8832140,1.6335878,-9.3511448,2.8549619,19.6126022,9.3636751,-15.1863441,-62.9847336,-122.7328262,56.8015251
6920,0.4644727,0.4309541,9.9095497,2.2595420,-7.0534353,0.5877863,19.6126022,9.0596132,-14.0969877,-149.4809113,-142.2442780,-18.0687027
6930,0.5147507,0.5315101,9.8401184,2.5267177,-4.9923663,-2.4122138,19.6126022,7.3884687,-6.4092450,-180.0229034,-135.5877838,-84.6183243
6940,0.4261657,0.6512195,9.7084379,1.6946565,-3.5725191,-5.5954199,19.6126022,7.6877422,-2.8299320,-179.3282471,-86.1908417,-133.0229034
6950,0.3998296,0.4453192,9.5863342,0.3969466,-2.9312978,-8.3206110,19.6126022,6.4691000,-0.1508339,-169.0458069,-35.6793900,-172.7480927
6960,0.1675933,0.3734936,9.7850523,-0.7557252,-0.2442748,-9.3206110,15.9740324,5.7747850,2.0757623,-152.8625946,7.7633586,-204.0000000
6970,-0.1747758,0.2968795,9.8065996,-2.3969467,2.8549619,-8.0916033,11.6381550,4.9559722,3.3111639,-135.7022858,39.3664131,-229.8702240
6980,-0.4094064,0.2657550,9.8640604,-3.7022901,4.6870227,-4.7862597,7.2424231,3.6128318,4.1754665,-125.3435135,52.3664131,-249.9007568
6990,-0.5099624,0.2681492,9.9287033,-3.9618320,6.2977099,-1.8473282,2.2553265,2.5378408,5.2935529,-116.7938919,62.0152664,-250.1374054
7000,-0.5746055,0.2705434,9.8688488,-3.3129771,7.6106873,1.4045801,-4.8195033,2.2768741,7.8050575,-100.8015289,93.9236679,-250.1374054
7010,-0.4979914,0.3591284,9.9023676,-2.6793892,7.9847326,3.8167939,-12.5551291,2.1643472,8.8824425,-74.5801544,145.1374054,-222.9541931
7020,-0.3591284,0.4070122,9.8281479,-2.0839694,7.9160304,5.1603055,-19.6131992,3.0501974,9.1936874,-45.7251892,183.9236603,-161.7480927
7030,-0.1747758,0.3471575,9.7874460,-1.9694656,8.5496187,5.4274807,-19.6131992,4.6758518,10.2231894,-20.0000000,198.7328186,-73.2061081
7040,-0.0574605,0.3950413,9.8712435,-1.9083970,8.8320608,4.6870227,-19.6131992,5.6071916,12.0116482,3.2137403,192.1450348,21.6183205
7050,0.2418131,0.2777260,9.9167328,-2.0000000,9.9465647,3.1221373,-19.6131992,6.2727766,12.6652622,27.6106873,166.2824402,94.1603088
7060,0.2801202,0.2154770,9.9167328,-3.5114503,13.1221371,1.8854961,-19.6131992,6.7396431,11.9493999,46.2519073,116.3893127,137.0229034
7070,0.1484398,0.2513899,10.0627785,-5.1297708,17.9083977,0.5267175,-19.6131992,7.0748301,10.2375546,59.3435097,61.8625946,158.7175598
7080,-0.2394189,0.1101327,10.1417866,-6.5267177,18.8549614,0.0763359,-15.3467541,7.3405848,8.0516596,69.7938919,25.2366409,171.3816833
7090,-0.5147507,-0.0478838,10.0532017,-5.7404580,16.3969460,1.3129771,-10.9773588,7.3142486,5.1211715,80.1526718,0.6259542,180.5801544
7100,-0.6224893,-0.0023942,9.9478569,-3.7938931,10.0534353,2.0839694,-6.4140334,7.2663651,2.8179610,92.3816757,-4.3129773,187.3435059
7110,-0.6631905,-0.0311245,9.9119444,-2.0076337,2.4580152,1.8625954,-2.5737536,7.6422529,0.2681492,103.7938919,24.2137413,190.7709961
7120,-0.7206510,-0.0454896,9.9622221,-0.5725191,-2.8396947,1.4351145,0.5985473,8.5999289,-2.1212518,105.2442780,68.8625946,196.5267181
7130,-0.7709290,-0.0071826,9.8808203,0.7862595,-6.6870227,2.0458016,4.6590929,9.1074963,-3.4500270,98.6946564,104.4809189,201.0000000
7140,-0.8331779,-0.0502780,9.9981356,1.5267175,-9.7557249,3.4732823,9.4474716,9.0236998,-5.3629842,90.3053436,111.2977066,198.3358765
7150,-0.8523315,0.0023942,9.8520899,2.3664122,-15.9541988,4.8549619,15.7274303,9.9047613,-7.6829538,84.8015289,55.8015251,189.4656525
7160,-0.5051740,0.1412572,9.9646168,2.3282442,-14.9694653,5.0152674,19.6126022,8.4419117,-10.0819321,64.5954208,-57.3587799,157.6793823
7170,-0.1891410,0.2418131,9.9191265,1.0610687,-13.0458012,4.9083967,19.6126022,9.1721401,-11.2981796,18.7938938,-155.5267181,95.5877838
7180,-0.0790083,0.1843526,9.8688488,-0.8473282,-8.4656487,5.0458016,19.6126022,10.5918941,-11.0755205,-36.2671738,-219.2290039,17.9923668
7190,0.0407012,0.2106887,9.8377247,-1.4961832,-6.4427481,6.3816795,19.6126022,10.6206245,-9.0955257,-93.4580154,-243.7175598,-40.2519073
7200,0.0383070,0.2011119,9.7539282,-1.2671756,-5.8320613,7.5419846,19.6126022,10.9558105,-4.2041965,-125.8091583,-202.8473358,-76.7022934
7210,0.1843526,0.3303981,9.9502516,-0.7557252,-5.9312978,7.0458016,19.6126022,11.4609852,-2.4564383,-138.5114441,-143.2213745,-99.5572510
7220,0.3495516,0.4070122,9.9239149,0.2137405,-5.2061067,5.2519083,18.1671104,11.7698355,0.9600700,-125.9236679,-103.4045792,-117.6259537
7230,0.4333483,0.4237715,9.8305416,1.1221374,-4.3893127,2.9236641,15.3659077,12.3731709,2.0757623,-108.1832047,-73.2213745,-127.4274826
7240,0.3447633,0.5027798,9.8018112,1.4274809,-4.0229006,0.7404580,13.4984398,12.5934362,2.3774302,-93.0305328,-53.4198456,-134.1526642
7250,0.2250538,0.5051740,9.6725254,0.8091603,-3.8320611,-1.1297710,12.2390966,12.2414904,1.9728121,-81.7633591,-37.9083977,-142.5496216
7260,0.1819584,0.5147507,9.6437950,-0.0610687,-3.4885497,-2.5877862,10.9869356,11.5663290,1.1635761,-74.5954208,-24.4580154,-153.9160309
7270,-0.0311245,0.5578461,9.6557665,-1.2290076,-3.1755726,-3.6259542,9.1601686,10.7259684,0.2920911,-74.0000000,-26.4427490,-166.2442780
7280,-0.3136388,0.5195391,9.6868906,-1.7862595,-3.4274809,-3.2290077,6.8521700,9.8736372,0.2489957,-81.7938919,-47.4732819,-179.3740387
7290,-0.3471575,0.4213773,9.8856087,-1.8167939,-3.3282442,-2.0916030,4.7740140,8.5807753,0.9050036,-94.6564865,-80.1679382,-195.9160309
7300,-0.3974355,0.4141948,9.9047613,-1.9160305,-1.3206106,-0.1450382,1.6088953,6.8330169,2.1332228,-109.6564865,-103.6106873,-211.0915985
7310,-0.4644727,0.2753318,9.9358864,-2.2442749,0.8396947,1.9541985,-3.5194585,5.2049680,4.0366035,-121.1755753,-89.9389343,-213.5496216
7320,-0.4548960,0.2226596,9.9574337,-2.3053436,2.7633588,4.2671757,-11.1832590,4.6327567,7.4100165,-122.0992355,-27.4580154,-189.6793823
7330,-0.4429250,0.1963235,9.9813757,-1.8625954,5.0534353,6.7480917,-19.6131992,4.8961172,11.2814207,-105.5954208,83.9542007,-124.6106873
7340,-0.3327923,0.0909792,9.9454632,-1.0992366,7.0534353,8.5190840,-19.6131992,5.5736732,14.8894644,-77.9694672,205.6717529,-9.5877867
7350,-0.1244979,0.0622489,9.8951855,-0.3053435,9.2137403,9.2900763,-19.6131992,3.5864959,16.9221306,-45.9236641,230.7709961,134.9236603
7360,0.0383070,0.0335187,9.9167328,-0.0152672,10.5267172,8.6183205,-19.6131992,1.1970947,16.7353840,-11.3740454,174.0229034,250.1297760
7370,0.0622489,-0.0478838,10.0460186,-0.2366412,10.4122133,7.0152674,-19.6131992,0.0861908,16.2373924,13.6793890,128.0534363,250.1297760
7380,0.1053443,-0.0742199,10.0196829,0.1908397,9.8931293,5.9160304,-19.6131992,-0.2489957,16.1607780,32.3969460,109.3740463,250.1297760
7390,-0.0790083,-0.0023942,10.1346035,1.3969465,8.0916033,5.1984735,-13.1464939,-0.6967092,15.0450869,63.0228996,93.9236679,250.1297760
7400,-0.2873027,0.0766141,10.2974091,2.7557251,2.8015268,3.9847329,-6.5840211,-0.1819584,12.1481171,103.8473282,84.6793900,250.1297760
7410,-0.3256098,0.1628049,10.2591019,5.6641221,-1.9541985,2.3206108,-0.6823440,1.3359578,7.9534974,142.9541931,92.6717529,250.1297760
7420,-0.1939293,0.2896969,10.1513634,9.5038166,-1.1755725,2.0534351,6.2081332,2.8945751,1.7597293,163.5877838,88.5572510,250.1297760
7430,-0.0119709,0.3758878,9.8161764,10.8625956,-0.0610687,3.5038168,12.9046812,4.0701222,-4.2879934,160.0229034,81.4427490,250.1297760
7440,0.1125269,0.5099624,9.5552101,7.7862597,-2.0839694,3.0839694,19.6126022,4.6231799,-9.5432396,136.1984711,85.9542007,250.1297760
7450,0.0670373,0.5482694,9.3947992,2.5190840,-4.7709923,-0.0534351,19.6126022,5.2887645,-13.8336267,90.6412201,81.0992355,208.4503784
7460,-0.1101327,0.5362985,9.4857788,-1.2061069,-6.5648856,-3.0916030,19.6126022,6.3733325,-15.7322187,28.8244267,43.0381660,135.6183167
7470,-0.2466015,0.3687052,9.6150646,-3.0229008,-7.9007635,-4.4427481,19.6126022,7.1993275,-15.7537670,-38.6717567,-28.6793900,55.1450386
7480,-0.2873027,0.2178712,9.8880024,-3.2595420,-9.6488552,-4.8625956,19.6126022,7.2208753,-13.6492739,-105.0305328,-110.3664093,-28.0152664
7490,-0.3303981,0.1628049,9.9813757,-2.4656489,-11.8854961,-4.7938933,19.6126022,6.9527264,-9.9789820,-156.0610657,-161.6106873,-100.0076370
7500,-0.4118006,0.1029501,10.1369982,-1.5114504,-14.7404585,-4.9389315,19.6126022,6.3733325,-5.4348102,-189.2595367,-171.2900696,-158.3435059
7510,-0.3663110,0.0909792,10.1776991,1.0763359,-16.3587780,-3.8625953,19.6126022,5.9256191,-0.1699875,-206.5190887,-169.3282471,-209.1603088
7520,-0.2825144,0.1604107,10.0986910,3.5572519,-16.6106873,-3.1450381,19.2157650,5.0589223,5.8729467,-192.6564941,-155.7175598,-250.1374054
7530,-0.1939293,0.2489957,10.0508070,5.1908398,-17.3511448,-1.7480916,10.6924505,4.9799142,6.6438756,-172.0839691,-100.8778610,-250.1374054
7540,-0.1963235,0.3399749,9.9143381,5.7099237,-15.3587790,-0.8091603,3.2177906,4.5250182,10.0771437,-139.9313049,-23.3893127,-250.1374054
7550,0.0454896,0.4548960,9.7850523,5.1297708,-13.6030531,0.6564885,-6.5098009,2.9209111,10.4602137,-108.0457993,69.8931274,-229.3740387
7560,0.0814024,0.5315101,9.7515335,3.9847329,-9.4503813,2.3587787,-19.4503956,4.0150557,11.4849272,-80.0305328,141.8778687,-175.5038147
7570,0.1053443,0.6775556,9.6797075,1.9618320,-8.3816795,3.6717558,-19.6131992,6.0357518,12.0403786,-61.2900772,161.5496216,-82.8854980
7580,0.2178712,0.6536137,9.7180147,0.8931298,-5.6564884,3.4427481,-19.6131992,6.7133074,12.7299051,-41.5114517,117.1603088,32.4427490
7590,0.2896969,0.7206510,9.7347746,-0.2671756,-4.1832061,2.8396947,-19.6131992,6.0477223,13.5056229,-14.4198475,68.9923630,131.3206177
7600,0.2466015,0.6871324,9.7204094,-1.1755725,-1.4427481,2.0152671,-19.6131992,6.2033448,12.9214401,13.2519083,75.0305328,200.1984711
7610,0.1651991,0.5362985,9.7635050,-2.3206108,0.9770992,1.5648855,-16.9388905,5.7029591,11.2622671,37.7480927,89.4045792,250.1297760
7620,0.0981618,0.4932030,9.8305416,-3.1755726,2.3129771,1.5572519,-10.6206245,5.3581958,8.9231443,61.5877876,100.0687027,250.1297760
7630,0.0814024,0.3112446,9.9502516,-4.4198475,11.8015270,4.2900763,19.6126022,4.1132174,-5.5138183,38.4427490,47.0381660,250.1297760
7640,0.1604107,0.1819584,9.8018112,-8.7022905,17.5954189,3.1984732,19.6126022,5.0134325,-6.4068508,-31.1755733,-37.1221390,92.3053436
7650,0.1699875,0.1460456,9.7778702,-10.0916033,18.5267181,2.8931298,19.6126022,6.3206601,-4.6423335,-70.5343475,-114.4427490,-25.9083977
7660,0.0837966,0.1604107,9.8496952,-11.0610685,16.8167934,2.6717558,19.6126022,6.1003947,-1.4053892,-98.1374054,-188.8396912,-133.3587799
7670,-0.0143651,0.1412572,9.9622221,-11.5190840,13.4198475,1.5954199,19.6126022,5.4419928,1.8626794,-109.9618301,-221.4351196,-223.8167877
7680,-0.1197095,0.1843526,10.0101061,-10.1832066,7.6564884,-0.2824427,19.6126022,4.8266859,4.1347651,-108.7404556,-199.9313049,-250.1374054
7690,-0.3351865,0.1795642,10.0699606,-7.6412215,0.7862595,-2.5419848,14.5590658,4.7596488,6.3134775,-100.2671738,-141.7480927,-250.1374054
7700,-0.4836263,0.0694315,10.0771437,-4.6183205,-6.0839696,-3.8778627,7.2927012,3.8761928,8.3269911,-83.1908417,-80.9160309,-250.1374054
7710,-0.5458752,0.1268920,9.9837704,-1.6259542,-14.1832066,-4.1297708,0.8068419,1.6926919,9.1601686,-62.3587799,-29.6641216,-250.1374054
7720,-0.7014975,0.0287303,9.9861641,0.7480916,-19.1908398,-3.1450381,-6.0046272,0.4357425,9.4762020,-43.3206100,27.7862587,-247.5954132
7730,-0.4932030,0.0000000,9.9981356,2.9770992,-26.5877857,-1.7709924,-16.4289284,0.6200951,10.5990763,-26.5114498,104.5190811,-198.2595367
7740,-0.5315101,-0.0023942,10.0148945,5.1755724,-29.7862587,0.2595420,-19.6131992,2.3151813,12.2486734,-11.4427481,156.9847260,-112.3358765
7750,-0.2896969,-0.0335187,10.0125008,7.0305343,-32.0152664,2.1984732,-19.6131992,3.6176202,13.1393118,7.0000000,139.9770966,-6.2824426
7760,0.0383070,0.1077385,10.0891142,8.1450386,-31.7175579,3.3969467,-19.6131992,4.2281384,13.4409800,31.1679382,87.9236679,94.9160309
7770,0.2825144,0.1819584,10.0268650,9.0458012,-29.7328243,3.6488550,-19.6131992,4.1515245,12.3947191,57.0228996,52.1832047,169.6030579
7780,0.5075682,0.2825144,9.9167328,9.6259546,-27.3358784,3.3816793,-17.6499653,3.6128318,10.1106625,78.4274826,31.8015270,215.7175598
7790,0.7278336,0.3758878,9.8233595,9.1908398,-26.0992374,1.6564885,-10.4171181,3.5434003,7.8002691,101.6946564,33.2595406,242.0305328
7800,0.6775556,0.3926471,9.7874460,8.7251911,-25.4503822,-0.2290076,-3.6535332,4.2185616,4.3670015,120.8091583,51.2824440,250.1297760
7810,0.6033357,0.4620786,9.7419567,7.8396945,-25.9160309,-1.2290076,2.3295465,5.4084740,0.5219333,123.8091583,64.5801544,250.1297760
7820,0.5123565,0.5769997,9.7778702,7.3053436,-26.2442741,-1.3129771,9.4331064,6.0142040,-3.3303175,109.4274826,65.9694672,250.1297760
7830,0.5243275,0.5674229,9.8281479,6.5343513,-24.6488552,-0.7633588,17.2501354,6.1865854,-5.9208307,84.3282471,75.5419846,247.7862549
7840,0.4596844,0.6009415,9.8544836,5.9465647,-20.9770985,0.4122137,19.6126022,6.3637557,-7.0437055,51.2366409,85.5038147,211.1450348
7850,0.3351865,0.6488253,9.7802639,4.8854961,-18.0992374,2.2442749,19.6126022,6.8737178,-6.8090749,16.4274807,77.7480927,157.8091583
7860,0.3327923,0.6607963,9.7204094,3.3129771,-16.2595425,4.1832061,19.6126022,7.1203194,-5.0134325,-13.5419846,50.2900772,92.7328262
7870,0.4572902,0.5698171,9.6725254,-0.7862595,-13.8931293,6.3129773,19.6126022,7.3932571,-0.7924767,-50.4274826,-27.2977104,-50.6488533
7880,0.4932030,0.5195391,9.6940727,-2.9236641,-12.3206110,6.2824426,19.6126022,6.9359670,1.4748207,-58.8931313,-41.3740463,-112.1603088
7890,0.5961532,0.4644727,9.8042059,-3.9923663,-11.5496187,6.6183205,19.6126022,6.1554613,3.7780309,-56.7328262,-53.3893127,-167.1603088
7900,0.7110743,0.3902529,10.0555954,-3.5801528,-11.1450386,6.9465647,19.6126022,4.7931671,5.1882086,-45.6106873,-67.6793900,-216.1374054
7910,0.8331779,0.3758878,10.1274214,-1.5572519,-9.9465647,7.4274807,19.0170460,4.6040263,6.3685441,-28.1145039,-57.4274826,-247.2442780
7920,0.9097920,0.4572902,10.0053177,2.7633588,-6.6259542,6.3435116,3.6032550,3.3662305,4.4627690,12.3511448,116.2824402,-234.6183167
7930,0.9768293,0.3926471,9.7898407,3.5419848,-4.5190840,5.8396945,-2.8706331,2.6048782,1.7621235,19.8931293,250.1297760,-214.3816833
7940,1.0151364,0.4572902,9.6485834,2.2290077,-2.1603053,5.9007635,-11.5352049,4.8362627,2.1858950,26.4732819,250.1297760,-173.3053436
7950,1.1276633,0.4453192,9.5767574,0.2061069,-0.1526718,5.9770994,-13.8048964,4.2640514,0.5075682,12.6030531,250.1297760,-142.2061005
7960,1.1516051,0.4740495,9.7060442,-2.0305343,1.8320611,5.7862597,-18.7034073,5.4060798,1.2569494,-1.7175573,180.0992432,-125.2671738
7970,1.1970947,0.4501076,9.8329363,-3.8244274,3.3129771,5.3435116,-19.6131992,6.4954362,4.0796990,-13.3053436,96.8396912,-102.5419846
7980,1.1970947,0.3950413,9.8544836,-5.2824426,4.2748094,4.5648856,-19.6131992,7.0077925,7.3501616,-16.7786255,39.8396950,-61.3816795
7990,1.1396341,0.3830703,10.0268650,-4.2824426,2.6259542,2.1068702,-19.6131992,6.4475522,12.6078014,29.5801525,-26.4503822,47.6793900
8000,1.0247130,0.3639168,9.9287033,-3.6259542,2.0992367,0.7557252,-19.6131992,5.8609757,12.5742826,67.3740463,-29.9389305,101.9618301
8010,0.9337339,0.2466015,9.9861641,-3.4122138,1.3129771,-0.8244275,-19.6131992,5.3821378,10.6613255,101.3435135,-14.0534353,152.4809113
8020,0.7374104,0.2370248,9.9358864,-3.1297710,-0.2366412,-1.9923664,-14.8918581,4.8530221,7.3812861,122.0305328,18.3969460,194.6870270
8030,0.6823440,0.1987177,10.0244713,-2.4656489,-1.5648855,-2.3969467,-9.7922344,4.7213416,4.2951760,127.1068726,51.9236641,226.2290039
8040,0.6751614,0.1699875,9.9933472,-1.9236641,-3.6259542,-2.6412213,-4.4172797,4.7524662,1.2545552,122.6106873,66.4732819,250.0610657
8050,0.5865764,0.1747758,10.0699606,-0.5114504,-5.6793895,-2.1984732,0.8140244,4.7045822,-0.8978211,108.1908417,67.6946564,250.1297760
8060,0.6488253,0.1915352,10.0699606,1.1984733,-7.0305343,-1.3816794,6.4714942,4.7285242,-2.0063307,88.4122162,54.9694672,250.1297760
8070,0.7278336,0.1556223,10.0364418,2.7175572,-8.5572519,-0.9923664,10.8313131,5.0541339,-1.9009864,71.3816757,23.8702297,238.1908417
8080,0.8331779,0.3615226,9.9885588,3.4427481,-9.4427481,-1.7099236,14.6668043,5.4132624,-1.5705882,56.8778610,-8.6870232,208.3435059
8090,0.9648584,0.3758878,9.9071560,3.5038168,-10.1603050,-3.0152671,17.3674507,5.9806852,-1.4939742,43.0763359,-24.3282452,171.9923706
8100,0.9241571,0.4261657,9.9502516,3.0229008,-10.5114508,-3.9236641,18.1383801,6.7372489,-1.0941446,29.8854961,-22.6717548,138.9847260
8110,0.9073978,0.4644727,9.9047613,2.9541984,-10.4656487,-4.4274807,17.8438931,8.6095057,-0.3591284,18.5419846,-39.5648842,115.5038147
8120,0.8666966,0.4836263,9.8664551,2.3587787,-9.8473282,-4.2748094,18.7081966,9.8736372,0.4046180,16.8549614,-62.2290077,102.1526718
8130,0.7972651,0.5650287,9.8568783,1.5496184,-10.0610685,-3.2519083,19.6126022,9.7898407,0.0909792,19.1221371,-60.0610695,96.5114517
8140,0.6105183,0.5698171,9.8018112,1.5114504,-11.6870232,-2.0000000,19.6126022,9.3540983,-0.9361281,17.0687027,-24.7099228,89.2366409
8150,0.5722113,0.7182568,9.9191265,2.8244274,-13.1450386,0.6030535,19.6126022,8.5879574,-2.9903426,-22.4580154,63.4351158,45.5572510
8160,0.5458752,0.6727672,9.7898407,3.8473282,-13.2442751,3.0381680,19.6126022,8.1115141,0.1173153,-77.0534363,20.8549614,-38.4885483
8170,0.7182568,0.8116302,9.7850523,3.9923663,-12.5801525,4.3893127,19.6126022,7.1466556,2.8849983,-91.5648880,-17.9694653,-88.5343475
8180,0.8978211,0.7613522,9.7419567,3.5419848,-11.0076332,5.6717558,19.6126022,6.3757267,5.7460546,-93.3053436,-33.7404594,-134.2213745
8190,1.0917504,0.7493813,9.6988611,3.0687022,-8.5496187,6.2671757,19.6126022,6.0644817,7.7308378,-83.6106873,-30.4732819,-171.2061005
8200,1.3383518,0.6871324,9.8089943,2.1297710,-6.8396945,6.6717558,19.6126022,5.5904322,8.7699156,-64.2977066,-18.9007626,-200.4503784
8210,1.5586174,0.6392486,9.7515335,1.7175573,-4.0305343,6.3511453,17.5111008,5.0493455,9.1841106,-39.9160309,-0.8396947,-227.1221313
8220,1.8411317,0.4405309,9.6366129,-0.4198473,5.4274807,4.8625956,11.6333666,3.2417326,6.7252784,7.4351144,21.8625946,-250.1374054
8230,1.8722562,0.3256098,9.6030941,-2.7633588,7.7786260,2.7557251,8.6573887,2.5354466,5.0948353,23.7786255,21.6335869,-250.1374054
8240,1.8866212,0.1340746,9.5839405,-4.5190840,8.7404585,0.1374046,5.2696109,1.9416877,2.8035958,29.7480907,18.2213745,-250.1374054
8250,1.8243724,0.0718257,9.9334917,-6.2595420,8.6717558,-2.5572519,1.4460905,1.9321109,0.0742199,21.8396950,4.8854961,-250.1374054
8260,1.6831152,0.1005560,10.0532017,-6.8091602,8.6870232,-5.2671757,-1.0917504,0.8092360,-1.8842272,1.3053435,-10.7251911,-250.1374054
8270,1.4125718,0.1460456,10.1393919,-5.8931298,6.4503818,-7.8854961,-4.5872669,2.0302727,-2.9328821,-29.8702297,-40.3282433,-250.1374054
8280,1.1276633,0.2202654,10.1920643,-3.7938931,1.8396946,-10.7251911,-10.1010857,2.0781565,-2.1356170,-60.2213745,-28.0916023,-250.1374054
8290,0.7637464,0.1556223,10.1465750,-1.2977099,-3.2061069,-12.0381680,-14.7529955,2.5593886,0.2442073,-89.1374054,6.5267177,-246.7480927
8300,0.4046180,0.1173153,10.1298151,1.1068702,-8.3816795,-11.3893127,-18.7441101,2.6144550,3.3590479,-94.8244247,56.7251892,-188.7709961
8310,0.3639168,0.1029501,10.1106625,3.1221373,-12.3053436,-8.8320608,-19.6131992,3.3398943,5.9471664,-81.9389343,117.6259537,-121.6870193
8320,0.4118006,0.2346306,10.0436249,4.9770994,-16.3969460,-5.8396945,-19.6131992,3.6128318,8.0588417,-61.8854980,150.8244324,-52.4732819
8330,0.5482694,0.3112446,10.0292597,6.3053436,-18.3053436,-3.8702290,-19.6131992,3.7253587,8.6166878,-40.4351158,138.8625946,-2.3664122
8340,0.6344602,0.4165890,9.8999729,7.1832061,-20.3969460,-2.6488550,-19.6131992,4.3717899,9.3038206,-27.9389305,80.7404556,30.1679382
8350,0.6272776,0.5219333,9.9861641,8.0610685,-21.9541988,-1.2824427,-19.6131992,4.7069764,10.4913378,-19.3587780,5.0076337,64.0534363
8360,0.8595140,0.5602403,9.9670105,9.0000000,-23.0763359,-0.1755725,-19.6131992,4.4819226,11.0922794,-4.1603055,-28.4961834,102.2137375
8370,1.0510491,0.6775556,9.9143381,10.0610685,-23.2290077,1.0000000,-19.6131992,4.2688398,11.0443964,16.2442741,-64.0076370,139.9236603
8380,1.2354017,0.7685348,9.8736372,10.3740454,-23.4503822,1.5801526,-19.6131992,3.6008608,10.2806492,42.0610695,-75.8549652,179.5648804
8390,1.2641320,0.9480990,9.8089943,9.8778629,-24.3893127,1.9694656,-19.6131992,2.7150109,8.5137377,68.1755753,-57.6946564,220.5190887
8400,1.3168042,0.9145803,9.7658987,9.5954199,-25.8625946,2.2442749,-16.6108856,1.7621235,6.3948798,92.4885483,-29.9465656,250.1297760
8410,1.4724265,0.9361281,9.7515335,9.2824430,-26.9083977,2.5954199,-12.5982246,0.8547257,4.1922259,114.4274826,-8.0458012,250.1297760
8420,1.3670821,0.9457048,9.7204094,7.9541984,-28.3816795,4.6106873,-4.1323709,-0.5195391,-0.1604107,130.0763397,11.7480917,250.1297760
8430,1.4149660,0.9552816,9.7515335,7.5190840,-27.9236641,5.6259542,0.2226596,-0.6775556,-1.7717001,124.2519073,2.2595420,250.1297760
8440,1.4293311,0.7852941,9.7515335,6.6412215,-26.8549614,7.4198475,4.7979555,-0.6057299,-3.3758070,112.6106873,-3.2213740,250.1297760
8450,1.5586174,0.7613522,9.7682934,6.4809160,-22.7022896,10.5877867,14.9493189,-0.1173153,-7.0963774,66.3893127,-7.0534353,250.1297760
8460,1.8459201,0.6775556,9.8688488,6.8854961,-20.6488552,11.3511448,19.6126022,0.7278336,-8.1689749,38.5114517,-23.4198475,250.1297760
8470,1.9967541,0.6488253,9.7994175,8.1755724,-18.3969460,10.8702288,19.6126022,1.2952565,-8.9015961,11.4198475,-35.2366409,250.1297760
8480,2.3630650,0.7781116,9.8042059,9.5114508,-15.5648851,9.4198475,19.6126022,1.9416877,-8.9877872,-17.2671757,-43.0839691,237.7480927
8490,2.4253139,0.7685348,9.7228031,10.2748089,-12.0000000,7.8091602,19.6126022,2.4899571,-7.8792777,-49.8778610,-56.5114517,184.5190887
8500,2.5929072,0.7996593,9.5360565,9.6030531,-7.7786260,7.2137403,19.6126022,2.8897867,-5.5976148,-82.4503784,-48.9771004,123.3740463
8510,2.6336083,0.7709290,9.3684635,6.4656487,-2.3664122,7.0763359,19.6126022,3.5793133,-2.3582766,-106.1908417,-30.2595425,63.5801544
8520,2.8826041,0.7350162,9.3971939,-0.4274809,5.5496182,4.0916033,19.6126022,3.5457945,4.0437860,-112.5190811,-30.1450386,-40.2290077
8530,2.9233053,0.7230452,9.4666252,-3.0992367,8.7099237,1.1984733,19.6126022,3.4308734,5.6383162,-100.0305328,-22.2442741,-93.3435135
8540,2.9185169,0.7661406,9.4762020,-5.9007635,11.2061071,-2.0534351,19.6126022,3.0837159,6.3972740,-83.8015289,-11.7099237,-145.0686951
8550,2.6455793,0.8092360,9.5623922,-7.9465647,11.9312973,-4.7938933,19.6126022,2.5091105,6.4523406,-68.2213745,3.9160306,-192.7251892
8560,2.2601149,0.8140244,9.7443514,-8.3358774,10.1603050,-7.8167939,19.6126022,1.6400198,6.0884237,-52.5267181,23.0076332,-240.9847260
8570,1.8914096,0.7206510,9.9095497,-8.2137403,5.6488547,-10.2442751,19.6126022,0.8475431,5.1570840,-38.4503822,30.2977104,-250.1374054
8580,1.4413021,0.6512195,9.8880024,-6.7709923,0.0610687,-10.3740454,19.4432125,0.1125269,3.7229645,-28.2900772,25.3587780,-250.1374054
8590,1.1444225,0.4788379,10.0412302,-4.5648856,-5.7328243,-9.1297712,14.9732609,-0.5386927,2.2505381,-25.1755733,9.8244276,-250.1374054
8600,0.9528874,0.4668669,10.0747490,-1.2900764,-10.6946564,-7.1984735,9.8784256,-0.8020535,0.8690908,-28.1145039,-0.1755725,-250.1374054
8610,0.9888002,0.4429250,10.2184010,1.9083970,-15.6412210,-4.1145039,4.4699516,-1.0797794,0.1795642,-35.2748108,-2.6488550,-250.1374054
8620,1.1396341,0.3950413,10.1609402,4.9389315,-19.5343513,-0.9618320,-1.6112895,-0.6248835,0.0861908,-42.8244286,6.3664122,-250.1374054
8630,1.1827296,0.4860204,10.0915089,8.6335878,-24.0916023,1.5343511,-8.7507620,0.6751614,0.7206510,-45.7175560,30.7022896,-250.1374054
8640,1.5658000,0.6009415,10.0915089,12.1908398,-27.1908398,3.1145039,-16.2804890,2.5976956,1.2856797,-43.4656487,55.3511467,-250.1374054
8650,1.7525467,0.7876883,9.9263096,14.7404585,-27.6641216,3.8244274,-19.6131992,4.6519103,1.0079538,-42.0228996,66.5038147,-250.1374054
8660,2.1068866,0.7733232,9.7898407,16.2824421,-27.4427490,3.7404580,-19.6131992,5.5760674,1.0247130,-47.9236641,81.1450348,-180.0152740
8670,2.3032103,0.9864060,9.5288744,15.9770994,-26.2213745,3.6564887,-19.6131992,5.5952206,1.8722562,-57.1679382,107.2137375,-107.6183243
8680,2.4636209,1.0654143,9.4690189,13.9083967,-24.7862587,3.3587787,-19.6131992,4.8697815,4.2233500,-62.9160309,130.0076294,-48.7480927
8690,2.6599445,1.1109039,9.3397331,11.8396950,-22.3740463,2.9923663,-19.6131992,4.8051381,6.8952656,-62.9694672,117.0839691,-6.5419846
8700,2.6671271,1.2306134,9.2942438,9.1068707,-20.1908398,2.6946564,-19.6131992,5.1451130,10.1082678,-58.0916023,75.2977066,28.8320618
8710,2.6192431,1.2737088,9.4187412,6.5954199,-18.0763359,2.3587787,-19.6131992,5.1092005,12.6939926,-46.6946564,18.1679382,66.8167953
8720,2.5905130,1.3311694,9.5216913,4.9236641,-15.8244276,2.3664122,-19.6131992,4.6207857,14.4968176,-23.8244267,-38.1603050,110.0152664
8730,2.5162930,1.4053892,9.5791521,3.5572519,-13.5114508,2.8015268,-19.6131992,3.6726866,15.2988710,11.1755724,-68.4580154,154.1297760
8740,2.4947455,1.4413021,9.4905672,2.7251909,-10.1068707,2.9694657,-19.6131992,2.6168492,14.3675308,55.1450386,-69.1755753,198.8244324
8750,2.4827745,1.4173602,9.5480280,1.8625954,-7.8473282,3.0229008,-15.8974180,1.6017127,11.8488436,96.0839691,-47.6412201,242.1984711
8760,2.5258698,1.3838415,9.5025377,1.1984733,-3.6488550,3.0381680,-11.3867655,1.0725969,8.8010406,127.5038147,-15.3893127,250.1297760
8770,2.5426292,1.3072275,9.4905672,0.2824427,0.7709923,3.1221373,-6.1722202,1.4652439,4.9535780,148.3129730,23.0839691,250.1297760
8780,2.8706331,0.8092360,9.6270361,-5.7938933,12.8854961,4.5190840,19.6126022,3.2920105,-9.7156210,64.2671738,115.2519073,250.1297760
8790,2.9304879,0.7445929,9.6222477,-6.0458016,12.8625956,3.2290077,19.6126022,3.6702924,-9.4762020,14.6106873,119.3664093,250.1297760
8800,2.8538737,0.7948709,9.7180147,-6.0610685,11.9618320,1.5419847,19.6126022,4.2640514,-7.9127960,-32.2442741,86.7557220,229.0458069
8810,2.6958573,0.8020535,9.7946291,-5.8091602,10.0305347,-0.5114504,19.6126022,4.9416070,-5.1499014,-73.5877838,31.2595425,144.6641235
8820,2.3463056,0.9002152,9.7467451,-5.4656487,7.1450381,-2.3664122,19.6126022,5.4563580,-1.6831152,-103.1297684,-15.0534353,62.0076332
8830,2.0877333,0.8595140,9.7682934,-4.6106873,4.1984735,-3.6106870,19.6126022,5.7436604,1.7884595,-116.6412201,-41.5267181,-8.7786255
8840,1.8411317,0.8666966,9.8616667,-3.6564887,1.7480916,-4.0763359,19.6126022,5.7245069,4.4460096,-117.2900772,-43.4198456,-66.0534363
8850,1.6448082,0.8212070,9.9095497,-1.8091604,-1.0687023,-3.2519083,19.6126022,5.5257893,6.8689294,-106.1908417,-23.2061062,-113.7938919
