timestamp,rxacclX,rxacclY,rxacclZ,rxgyroX,rxgyroY,rxgyroZ,txacclX,txacclY,txacclZ,txgyroX,txgyroY,txgyroZ
0,0.9480990,3.1699069,10.2040358,24.2977104,-20.4503822,1.9007634,-5.3103123,1.7333932,8.8130112,-2.1068702,-8.4427481,-4.4809160
10,1.2617378,3.4907281,8.8585014,-2.4809160,2.2900763,2.0763359,-5.2528515,1.6759326,8.8465300,-0.1832061,-0.0534351,-2.7862597
20,1.2425843,3.5529771,8.9590569,-4.4580154,1.3282443,0.4198473,-5.1929970,1.6663558,8.8130112,0.1526718,1.6946565,-2.4809160
30,1.3168042,3.4332676,9.2104464,-5.1450381,0.9923664,-1.1374046,-5.3294659,1.6735384,8.7531567,0.8320611,4.6870227,-1.7099236
40,1.2808913,3.3542595,9.3612804,-5.6030536,2.8015268,-2.0076337,-5.2815819,1.6783268,8.6861191,0.9465649,7.1374044,-0.3282443
50,1.1827296,3.2417326,9.6294298,-5.2061067,3.6335878,-1.7175573,-5.4324160,1.7142396,8.7483683,0.6717557,8.4122133,0.4885496
60,1.2377959,3.1699069,9.6844959,-3.4351146,1.7862595,-1.0458015,-5.3749552,1.6807210,8.6478119,0.2442748,8.4732828,1.6412214
70,1.2090657,3.0885043,9.7419567,-1.4122137,-1.1603054,-1.2671756,-5.3893204,1.6855093,8.8058290,0.0152672,8.2671757,0.6183206
80,1.3575054,3.0885043,9.6509781,0.3358779,-3.0992367,-2.4351146,-5.3127065,1.6998745,9.0141230,0.6946565,8.2213745,1.2366412
90,1.3431402,3.0621684,9.4546537,1.1755725,-3.8015268,-3.3511450,-5.2672167,1.7405758,9.0931320,2.3664122,7.8396945,-0.5801527
100,1.3718705,3.0334380,9.3756456,1.2213740,-4.1832061,-4.1297708,-4.9942794,1.8339491,9.0213060,4.4427481,7.7404580,-2.4198472
110,1.3311694,2.9807658,9.3947992,1.0687023,-4.2061067,-4.4885497,-4.8554163,1.8938038,8.8465300,6.2366414,6.7099237,-4.7557254
120,1.3670821,2.9711890,9.4546537,1.3511450,-4.0381680,-4.4503818,-4.8482337,2.0111191,8.5831690,5.8244276,6.1145039,-6.4274807
130,1.3742647,2.9831600,9.4953556,1.8167939,-3.8091602,-4.2824426,-4.8793583,1.9153515,8.4323349,4.4885497,6.5114503,-7.5725193
140,1.3335636,3.0142846,9.5049324,2.4198472,-3.7938931,-3.7251909,-4.9200592,1.9608412,8.1977043,2.4809160,5.3893127,-9.7022905
150,1.4245427,3.1579359,9.5145092,2.8396947,-4.2900763,-3.4732823,-5.0661049,1.9177457,8.3293848,-0.5114504,4.0992365,-11.8167934
160,1.5322813,3.1723011,9.3756456,3.3282442,-3.4122138,-3.7633588,-5.1020179,1.9201399,8.4012108,-3.1374047,2.1832061,-13.9007635
170,1.2808913,3.3255291,9.1505919,2.6488550,-1.3969465,-4.1908398,-5.0397687,1.8602852,8.4586716,-4.4503818,2.3664122,-16.7022896
180,1.2186425,3.2680686,9.1386213,1.3587786,0.4580153,-4.1755724,-4.9128766,1.8147956,8.4467001,-4.7328243,3.6259542,-20.0534344
190,1.1276633,3.3542595,8.9949694,0.0839695,1.5419847,-3.8015268,-4.8051381,1.8076130,8.4586716,-5.0000000,6.1603055,-23.4885502
200,1.0007712,3.4619980,9.0404596,-1.8167939,3.0839694,-3.3282442,-4.6112089,1.6567791,8.4155760,-6.1984735,9.1374044,-27.9160309
210,0.8236012,3.4619980,9.1122847,-4.1603055,4.1297708,-1.8015267,-4.8506279,1.5873476,8.3772688,-10.2595415,11.9770994,-38.0076332
220,0.8092360,3.4835455,9.1888990,-4.6030536,3.7709923,-0.7938932,-4.5537481,1.1300575,8.0708122,-12.8015270,18.0763359,-41.6259537
230,0.7829000,3.3782012,9.1122847,-5.2137403,3.8778627,-0.1374046,-4.7476778,1.2593436,8.1833391,-15.9465647,25.0534344,-46.9160309
240,1.4173602,3.0071020,9.9550400,-1.5877863,-0.3740458,0.6870229,-10.5128860,0.8044477,13.3619709,-29.4961834,-22.3206100,-29.0916023
250,1.4053892,3.0406206,9.8496952,1.7404580,-2.8702290,-0.5648855,-10.5583754,0.5123565,13.9964314,-15.1832066,-37.7862587,-27.5725193
260,1.4029950,3.1196289,9.6390066,3.7633588,-4.1068702,-1.5343511,-10.5727406,0.2561783,13.9844608,0.7480916,-47.0458031,-26.1908398
270,1.3622938,3.1507533,9.4618368,4.3358779,-3.8167939,-2.5954199,-10.8265247,0.0191535,13.9078465,14.7480917,-44.3893127,-21.9923668
280,1.2856797,3.1507533,9.3349447,4.0687022,-3.0610688,-3.2671757,-11.3556404,-0.2226596,13.7881374,27.0534344,-28.6183205,-12.2290077
290,1.1851238,3.2034254,9.2726955,3.6183207,-2.3587787,-3.8167939,-11.7746239,-0.6200951,13.7809544,38.8244286,-4.7557254,1.8244275
300,1.1755470,3.2800395,9.2846670,3.0839694,-1.8396946,-4.3129773,-11.8512383,-1.0558375,13.8025026,48.2061081,20.7557259,15.6488552
310,1.1611819,3.2417326,9.3014259,2.8244274,-1.1755725,-4.8549619,-12.0643206,-1.3622938,14.6739874,55.9465637,47.1908379,27.6946564
320,1.0893562,3.3375001,9.3445215,2.8015268,-1.0458015,-4.6946564,-12.5718889,-1.6591733,16.1512012,66.7022934,69.6717529,40.5114517
330,1.0366840,3.2704628,9.3421268,2.9770992,-0.6641222,-4.2519083,-12.6580801,-2.5162930,17.2501354,84.2900772,82.8931274,51.4045792
340,0.9768293,3.2680686,9.3253679,2.6183207,-0.2977099,-3.7251909,-12.5766773,-3.6511390,17.6691189,107.0381699,85.3053436,60.2519073
350,0.9768293,3.2656744,9.2487535,2.3740458,-0.0916031,-3.3129771,-12.7131462,-4.1275826,17.6379929,132.4351196,80.1984711,65.3206100
360,0.9864060,3.2297616,9.3325500,2.1145039,-0.3435115,-3.1297710,-13.8168669,-3.5841017,17.2836533,159.1908417,60.9465637,69.8854980
370,1.0318956,3.2848279,9.2535419,1.7633588,-0.4656489,-2.6183207,-15.0259333,-2.9855542,16.1009235,185.1221313,30.1450386,83.7099228
380,0.9983770,3.1842721,9.2008705,1.3664122,-0.8931298,-2.0839694,-15.3659077,-2.6886747,14.1281118,206.5267181,3.0916030,103.9312973
390,0.9959828,3.1507533,9.2439651,1.3206106,-1.4122137,-1.8549619,-14.7146883,-2.1763182,11.8823624,220.6335907,-18.1832066,129.3053436
400,1.0702027,3.1842721,9.3852224,1.5954199,-1.6488550,-1.5725191,-13.6899757,-2.3534882,9.0021524,224.9160309,-21.0152664,155.4961853
410,1.1085097,3.1555417,9.3445215,1.3435115,-1.9007634,-1.2900764,-12.7251167,-2.0709739,7.2783360,217.8854980,-16.4351139,178.9694672
420,0.9624642,3.1746953,9.4714136,2.0305343,-2.2442749,-0.6335878,-11.5902710,-1.4413021,6.3398137,203.8015289,-10.9312973,204.0686951
430,1.0749911,3.1746953,9.4929609,2.3129771,-2.0534351,0.1603053,-10.3620520,-1.3886299,5.7436604,189.4351196,-2.9160306,228.5419922
440,1.0510491,3.2010312,9.3924055,2.7175572,-1.0534351,1.0992366,-8.0732069,-1.3598996,5.5449429,173.4580078,14.1221371,250.1297760
450,1.1132981,3.2944047,9.2296000,2.5496182,-0.5419847,1.3969465,-6.8880830,-1.1923064,5.1642666,174.0381622,17.7709923,250.1297760
460,1.1755470,3.3590479,9.0691900,1.8473282,-0.3053435,2.0916030,-2.0590029,-1.0654143,2.0422437,178.8167877,44.4885483,250.1297760
470,1.2042773,3.2489152,9.1242561,-0.4045801,1.9236641,1.6793894,1.6136837,-0.2920911,-0.5099624,162.4198456,67.2900772,250.1297760
480,1.2090657,3.2321558,9.2487535,-2.3435113,0.0916031,0.4045801,3.8690102,0.8810617,-2.3151813,105.3893127,102.9236679,250.1297760
490,0.9361281,3.3255291,9.7323799,-1.9923664,1.1908396,1.4351145,12.1050215,-0.8666966,7.0796180,-4.6030536,125.2824402,245.8320618
500,0.9313397,3.3566537,9.8353300,0.4045801,1.7099236,2.3435113,13.8862991,-1.2904681,9.0428534,19.0305347,95.2366409,208.9160309
510,0.9289455,3.4141142,9.7850523,3.3053436,1.5038168,2.6030533,14.9612904,-1.3910241,9.4785957,53.6106873,53.9160309,163.0839691
520,1.1228749,3.3686244,9.6533718,5.7480917,0.2900763,2.4809160,15.5406837,-1.1539993,7.7284436,87.0229034,3.7175572,110.7709961
530,1.1516051,3.3566537,9.4235296,6.9160304,-2.4732823,1.7404580,15.5430775,-0.8307837,4.7285242,103.2366409,-48.7404594,58.7786255
540,1.2138541,3.2034254,8.7507620,5.3893127,-7.6641221,-1.0534351,15.6149035,0.0981618,-1.6424140,81.0000000,-94.8091583,-27.6793900
550,1.2737088,3.1842721,8.7316093,2.5419848,-8.7786255,-2.2671757,15.5789909,0.3998296,-3.6415622,52.6183205,-64.8778610,-58.6488533
560,1.3215926,3.1723011,8.9327211,-0.6870229,-7.4274807,-2.8091602,15.4568872,0.3926471,-4.5082588,21.9923668,-2.5343511,-85.5496216
570,1.4269369,3.0956869,9.2631187,-2.5190840,-4.5648856,-2.8625953,14.7122946,-0.1891410,-3.7469065,-3.0152671,63.2213745,-111.5954208
580,1.5801650,3.0573800,9.5791521,-2.8015268,-0.3893130,-3.1526718,13.5918131,-0.5674229,-2.0446377,-16.4274807,101.1679382,-142.0610657
590,1.5346755,3.1387823,9.8808203,-1.3282443,2.1145039,-3.0458016,12.6054077,-1.2018831,-1.3910241,-21.1679382,102.6641235,-180.4351196
600,1.4149660,3.2106080,9.8161764,0.6106870,3.6106870,-3.3053436,11.8368731,-1.2832855,-1.9321109,-24.9618320,75.4351120,-226.0000000
610,1.3766589,3.3877780,9.6222477,2.5419848,4.1068702,-4.1068702,12.4330254,-0.9121862,-4.0964580,-38.5954208,24.1755733,-250.1374054
620,1.1923064,3.4524212,9.1984758,3.2671757,3.6030533,-4.8015265,14.4058380,-0.2154770,-6.1075773,-70.9694672,-38.5954208,-250.1374054
630,1.0606259,3.6319854,9.0572186,2.9847329,1.6259542,-4.9618320,17.0322647,-0.4644727,-7.4602942,-118.2977066,-86.2977066,-250.1374054
640,1.0007712,3.5697365,9.0380650,2.1603053,2.7709923,-5.7633586,19.6126022,-2.1404054,-7.3693151,-164.7480927,-101.6106873,-250.1374054
650,0.8331779,3.5457945,8.9159613,-0.0763359,5.3435116,-6.3740458,19.6126022,-4.6255741,-7.5776095,-206.2366486,-64.7938919,-250.1374054
660,0.5817881,3.5218527,8.9782104,-1.9541985,6.5343513,-5.0076337,19.6126022,-11.9374285,-7.2855186,-250.1374054,-2.6488550,-250.1374054
670,0.5793939,3.3614421,9.1098909,-2.8396947,4.5267177,-2.9694657,19.6126022,-19.6131992,-5.2456689,-250.1374054,53.7938919,-250.1374054
680,0.6033357,3.2872221,9.1793222,-2.5954199,1.1603054,-1.5419847,12.5886478,-19.6131992,-2.1930776,-250.1374054,116.2366409,-250.1374054
690,0.7206510,3.2153964,9.1984758,-2.5725191,-2.0992367,-1.0763359,-8.1713686,-19.6131992,2.7628946,-250.1374054,157.5572510,-250.1374054
700,0.7876883,3.0813217,9.2679071,-2.2671757,-4.1374044,0.2442748,-19.6131992,-19.6131992,10.4123297,-250.1374054,166.7557220,-250.1374054
710,0.9241571,2.9424589,9.5288744,-2.3282442,-5.4122138,1.5801526,-19.6131992,-19.6131992,19.6126022,-233.4503784,182.9465637,-250.1374054
720,1.0630201,2.9017577,9.5647869,-1.9007634,-5.4885497,3.1221373,-19.6131992,-19.1080265,19.6126022,-184.1221313,56.1374054,-250.1374054
730,1.2018831,2.9879484,9.6174593,-1.3511450,-4.6030536,3.9923663,-19.6131992,-3.1723011,19.6126022,8.8320608,-140.4045868,-118.7633591
740,1.3838415,3.0765336,9.6198530,-0.5343512,-2.9541984,4.1832061,-19.6131992,1.4389079,19.6126022,208.8702240,-209.4045868,34.4580154
750,1.4724265,3.1986370,9.4307127,-0.1984733,-0.9618320,3.3893130,-19.6131992,-5.8729467,11.7650471,250.1297760,-141.4351196,166.1145020
760,1.3958124,3.3710186,9.4163475,-0.2748092,1.1755725,3.1068702,-15.0259333,-4.8027439,-1.8363433,250.1297760,36.4045792,250.1297760
770,1.3096216,3.4619980,9.2319946,-0.4885496,2.2595420,2.3053436,0.5817881,-4.1084290,-7.2328463,175.1526642,216.7022858,250.1297760
780,1.2593436,3.4572096,9.1290445,-0.9770992,2.4351146,1.6412214,3.6511390,-1.8052188,-7.6063399,75.8702316,250.1297760,174.3893127
790,1.1156923,3.5481887,9.0404596,-1.4045801,2.2595420,0.8015267,-1.7477583,1.0630201,-4.7261300,-14.2061071,174.9007568,77.9160309
800,1.0151364,3.6559272,9.1410151,-2.0000000,3.7175572,0.7404580,-8.8944139,3.0645626,3.4667864,-128.3053436,-111.1908417,-17.9923668
810,0.8834559,3.5864959,9.1625633,-3.0916030,5.1297708,0.1297710,-7.1227136,2.7700772,6.8210459,-137.2671814,-170.2595367,-27.4885502
820,0.6895266,3.4452386,9.2200232,-2.7786260,4.9465647,0.7938932,-5.4084740,2.4013720,9.1745338,-113.0992355,-156.0229034,-29.7557259
830,0.6631905,3.3662305,9.4355011,-1.9236641,2.2442749,1.9312977,-4.7596488,2.1787124,10.0196829,-68.1603088,-105.3358765,-27.8625946
840,0.7637464,3.3231349,9.3708572,-0.5801527,-1.0229008,2.6717558,-5.2049680,1.8387375,9.2870607,-22.7480907,-50.5038185,-21.4351139
850,0.9002152,3.2010312,9.4450769,0.1984733,-3.1603053,2.7328243,-6.3829093,1.5586174,7.5440907,9.8625956,-7.0763359,-13.1984730
860,1.0438666,3.2010312,9.4474716,0.7328244,-4.6488547,2.8091602,-7.0772243,1.5322813,5.7005649,26.0305347,11.1908398,-6.2748094
870,1.2210367,3.1387823,9.3995876,1.1679389,-5.7557254,2.6488550,-7.5321202,1.4700323,4.2329268,29.3206100,11.1908398,-2.7633588
880,1.3407460,3.1148405,9.4666252,1.6488550,-5.8396945,2.1832061,-7.5823979,1.4915800,3.1818779,23.5343513,3.5648854,-2.2213740
890,1.4173602,3.1818779,9.3564920,1.7786260,-5.7480917,1.2900764,-7.5943689,1.3742647,2.7868366,11.9389315,-5.0839696,-3.1221373
900,1.4652439,3.1435707,9.4666252,1.8931298,-5.2671757,0.5725191,-7.5105724,1.2066715,3.0214672,-0.8091603,-12.0000000,-7.0992365
910,1.4748207,3.1411765,9.4163475,1.8931298,-4.2290077,0.1984733,-7.6949248,1.3215926,3.5888901,-10.2671757,-20.5419846,-12.9007635
920,1.5418580,3.2441268,9.4666252,2.0076337,-3.2213740,-0.0534351,-7.9894104,1.2904681,4.3837609,-15.7022905,-30.6793900,-19.1297703
930,1.5634058,3.3303175,9.2343884,1.7938931,-1.9312977,-0.5572519,-8.1258793,1.2569494,5.0804701,-16.8015270,-39.0687027,-24.0229015
940,1.5873476,3.3351059,9.2894554,0.9770992,0.7251908,-1.6564885,-8.1019373,1.3646880,5.8154860,-14.5038166,-44.1679382,-28.7099228
950,1.3311694,3.3782012,9.2607250,-0.4122137,3.6106870,-2.9770992,-7.7595682,1.1372399,6.4379754,-3.9923663,-43.1145020,-37.3740463
960,1.1324517,3.3853838,9.3062143,-0.8396947,4.0076337,-3.1221373,-7.8385763,1.1516051,6.3709383,-0.3435115,-37.2900772,-42.2442741
970,1.0103480,3.4117200,9.2104464,-0.7404580,3.8854961,-2.7557251,-8.7028790,1.0917504,6.0596933,-0.0687023,-26.2671757,-45.9694672
980,0.9935886,3.3805954,9.3277617,-0.7480916,3.0458016,-2.8778627,-9.8353300,0.9576758,5.8657641,-3.6106870,-20.3664131,-44.9312973
990,0.9480990,3.3063757,9.3086090,0.4961832,1.9694656,-2.7786260,-11.6644907,0.9457048,5.8418221,-11.0763359,-19.4809170,-42.1145020
1000,0.9313397,3.4524212,8.9614515,-1.1221374,1.5038168,-2.4045801,-13.2039547,0.9576758,6.4140334,-19.5419846,-24.9312973,-34.0458031
1010,0.9193687,3.2872221,9.1721401,-2.0381680,2.8015268,-1.4732825,-13.8312321,0.8882443,7.1921453,-26.2824421,-31.3587780,-23.3893127
1020,1.0079538,3.3351059,9.0739784,-1.9007634,1.6641221,-1.9465649,-14.1496601,0.4740495,8.3006544,-29.3893127,-32.3282433,-13.8091602
1030,1.0366840,3.4260850,9.1386213,-2.7709923,-0.6946565,-1.7709924,-14.3555603,0.0071826,9.4426832,-26.9770985,-26.6335869,-4.9007635
1040,0.9457048,3.2608860,9.2703018,-2.7404580,-1.3282443,-1.0992366,-15.0642405,-0.4118006,10.5440102,-19.8473282,-16.6641216,3.7633588
1050,0.9768293,3.3063757,9.3588867,-2.5648854,-1.7480916,-0.7480916,-16.1033192,-0.6033357,11.1808643,-9.0687027,-10.3435116,13.3969469
1060,0.9840119,3.3734128,9.4211359,-2.3587787,-2.0458016,-0.5877863,-17.1567612,-0.7110743,11.8009596,3.7175572,-12.0076332,27.5725193
1070,1.0438666,3.3207407,9.4594421,-1.4961832,-1.6717557,-0.0305344,-18.2485123,-1.0079538,11.8727856,18.7328243,-15.6335878,44.6183205
1080,1.0510491,3.2944047,9.5863342,-0.5114504,-1.6030535,0.2442748,-19.2085819,-1.1372399,11.6836443,32.4503822,-23.4045811,63.9618340
1090,0.9744351,3.3375001,9.5073261,0.4809160,-0.9541985,0.9618320,-19.6131992,-1.0007712,11.1736822,43.0916023,-35.0076332,87.7022934
1100,1.0582317,3.3853838,9.5456333,1.7480916,-0.5801527,1.4503816,-19.5006733,-0.8714849,10.5727406,50.8473282,-46.4885483,111.8244247
1110,1.0702027,3.4548154,9.5001440,2.6412213,-0.0305344,1.4122137,-18.6770725,-1.0725969,9.8329363,56.6259537,-52.5648842,137.2595367
1120,1.1300575,3.4308734,9.3445215,2.9312978,-0.0458015,1.2366412,-17.6475697,-1.1013272,9.0308828,60.7404594,-49.2290077,162.1984711
1130,1.1516051,3.3973548,9.2511482,3.0229008,-0.4503817,0.6106870,-17.0729656,-1.1994889,8.4227581,64.0305328,-36.7404594,186.9541931
1140,1.2497669,3.3255291,9.1673517,2.4809160,-1.5496184,-0.2977099,-16.9029770,-1.2689204,7.8098459,66.4885483,-20.8091602,216.4885559
1150,1.2880739,3.2704628,9.0979195,1.3358779,-2.1908398,-1.1755725,-16.5606079,-1.3407460,7.0796180,67.3435135,3.6946564,250.1297760
1160,1.4197544,3.1723011,9.1936874,0.0687023,-1.8625954,-2.9389312,-16.2948532,-1.4221486,6.8401995,67.0457993,29.0381680,250.1297760
1170,1.3838415,3.1962428,9.4402885,-0.3893130,-0.0458015,-3.9160306,-15.3635139,-1.7094513,6.6941538,66.8854980,44.5725174,250.1297760
1180,1.3958124,3.2345500,9.6270361,0.3358779,2.0839694,-4.3893127,-13.7929258,-1.8315549,6.5265603,67.1755753,44.7404594,250.1297760
1190,1.2521610,3.2920105,9.6701307,1.6412214,3.5190840,-4.6106873,-11.8201132,-2.1595588,5.8274570,67.1374054,34.1755714,250.1297760
1200,0.5458752,3.5888901,8.8297710,1.1068702,1.1068702,-1.7328244,2.0063307,-2.0039365,2.8227494,41.4274826,89.5572510,250.1297760
1210,0.6727672,3.2848279,8.9686337,-0.8320611,-6.4885497,-0.0610687,4.2592630,-1.8626794,3.3805954,29.3511448,98.2290039,250.1297760
1220,1.3024391,3.0262554,9.7467451,-0.7328244,-9.7938929,1.8778626,8.2192526,-1.1037214,0.4572902,3.8778627,20.1908398,250.1297760
1230,1.4269369,3.0549858,9.6773138,0.6564885,-7.9007635,2.3511450,8.7842808,-0.9696468,-1.3838415,-14.9847326,14.7557249,250.1297760
1240,1.5155219,3.1148405,9.7036495,1.3816794,-5.5725193,2.8091602,9.1769285,-0.9385223,-2.8035958,-39.1679382,18.0152664,250.1297760
1250,1.5681942,3.2967989,9.5695753,2.0534351,-2.6259542,2.5725191,9.3229742,-1.0438666,-3.4021432,-67.9694672,23.8854961,250.1297760
1260,1.4580613,3.5673423,9.1625633,1.4122137,3.0000000,0.6030535,9.6102762,-1.4317253,-0.9720409,-118.8549652,15.7251911,221.2671814
1270,1.1755470,3.6319854,9.1553802,1.0458015,1.9694656,0.0992366,11.1257982,-1.6879035,1.6232605,-128.4732819,-4.7022901,191.2137451
1280,1.2090657,3.8163381,9.1865053,1.6870229,1.0000000,0.0992366,12.4378138,-1.2258250,3.3398943,-129.4274750,-23.7251911,154.8015289
1290,1.0845678,3.9049230,8.9734221,1.0916030,1.9694656,-0.6030535,14.0778341,-1.1899122,5.2552457,-121.9236679,-37.4732819,118.7862625
1300,0.9600700,3.9121056,8.9279327,-0.2442748,4.8702292,-1.4198474,16.0817699,-0.6488253,7.3884687,-101.2290039,-29.3129768,78.8549652
1310,0.7230452,3.9121056,8.9614515,-1.5038168,8.5877867,-1.5801526,17.8055878,-0.5051740,8.4634600,-73.4503784,-2.7022901,34.3893127
1320,0.6703730,3.7493007,8.8249826,-3.0229008,9.9160309,-1.5877863,19.6126022,-0.6823440,8.9973640,-43.3053436,26.0229015,-20.6946564
1330,0.5219333,3.5936785,8.8537130,-4.0534353,7.8854961,-0.6717557,19.6126022,-0.3088504,8.7052727,-13.9770994,51.2748108,-91.6488571
1340,0.6512195,3.3470769,9.1529865,-4.0916033,-1.6870229,1.4503816,19.6126022,-0.1675933,5.7843618,18.2366409,91.5648880,-250.1374054
1350,0.9097920,3.2321558,9.4283180,-3.4961832,-4.8244276,1.7099236,19.6126022,-1.2665262,4.0677280,16.7862587,98.9312973,-250.1374054
1360,0.9888002,3.1890604,9.6390066,-2.8091602,-5.7557254,1.7404580,19.6126022,-3.5194585,2.9041519,5.5038166,95.3129807,-250.1374054
1370,1.1683644,3.1794837,9.6701307,-1.7862595,-5.3893127,2.2824428,19.6126022,-6.5768385,2.3558824,-8.9847326,88.9160309,-250.1374054
1380,1.1611819,3.1483591,9.6102762,-0.2595420,-4.8702292,3.0152671,18.0713425,-11.3245163,2.8849983,-23.7709923,63.8015251,-250.1374054
1390,1.2617378,3.1890604,9.6485834,1.3969465,-4.7862597,3.2366412,15.4664640,-17.2142220,3.5769191,-40.6335869,8.4427481,-250.1374054
1400,0.8236012,3.5338237,9.5959110,2.6412213,-1.8625954,1.9236641,-2.7676830,-0.7062859,14.0562859,85.3282471,108.2824402,138.9694672
1410,0.8499373,3.5338237,9.4785957,4.4427481,-2.2442749,2.5190840,-0.9816177,1.2569494,10.8791971,99.3206100,68.6488571,68.9770966
1420,0.9648584,3.5457945,9.3062143,4.8778625,-1.8320611,2.9541984,-3.2010312,2.9113343,7.8816719,103.6259537,38.6335869,15.8091602
1430,1.0199248,3.5457945,9.0931320,4.6412215,-1.0229008,3.4351146,-5.2743993,3.3063757,5.7173243,95.5954208,0.6641222,-19.0305347
1440,1.4413021,3.3590479,9.3277617,-0.1984733,-2.0305343,-2.1145039,-8.6238708,2.5953014,2.8299320,51.9694672,-47.4656487,-52.6183205
1450,1.4101776,3.3087699,9.4474716,-0.0305344,-1.8702290,-2.9541984,-9.2319946,2.3798244,3.1339941,44.4656487,-14.2366409,-35.5190849
1460,1.3191984,3.4380560,9.4307127,2.2748091,0.8854962,-4.7022901,-11.9901009,2.2265961,4.5417776,19.5190830,12.2900763,14.0458012
1470,1.2641320,3.5074875,9.2990322,2.2137403,1.7709924,-5.4122138,-11.5423870,1.9416877,4.9679432,9.5725193,7.3435116,24.6259537
1480,1.1396341,3.5338237,9.1458035,2.1297710,2.7404580,-5.4427481,-11.1257982,1.8076130,5.7077475,1.3587786,5.8854961,29.0305347
1490,1.0055596,3.5984666,9.0548248,1.2748091,3.2519083,-5.1374044,-11.2742386,1.6567791,6.4283986,-3.0534351,5.5572519,28.6793900
1500,0.9600700,3.6343796,9.0404596,0.6793893,3.0992367,-4.8473282,-12.0451670,1.5825592,7.3118544,-4.1755724,4.8778625,28.3969460
1510,0.9050036,3.6032550,9.0117292,-0.2213740,2.0687022,-4.5419846,-12.8424320,1.3862357,8.3461447,-1.4809160,8.3893127,30.7099228
1520,0.9073978,3.5625539,9.0236998,-0.6335878,1.0381680,-4.1679387,-14.0802279,1.1707586,9.1817169,4.1984735,15.0610685,35.9541969
1530,0.8882443,3.3949606,9.1984758,-2.2442749,0.2671756,-3.2442749,-18.0330353,0.2489957,10.4793673,23.2977104,28.0152664,60.2442741
1540,0.9337339,3.2848279,9.2774839,-2.5419848,0.2061069,-2.3587787,-19.6131992,0.1125269,11.3580351,34.5496178,34.0381660,85.8244247
1550,0.9624642,3.2991931,9.4139528,-2.3969467,0.2442748,-1.7862595,-19.6131992,0.4333483,11.9685535,46.7328262,34.5572510,122.4503784
1560,0.8978211,3.3111639,9.4163475,-2.0534351,0.1068702,-0.8244275,-19.6131992,0.8451489,11.7674408,60.0992355,27.6717548,167.6564941
1570,1.0055596,3.3351059,9.4283180,-1.4351145,-0.1450382,0.4351145,-19.6131992,0.5650287,10.6924505,73.4274826,22.7328243,218.7557220
1580,1.1013272,3.3710186,9.3062143,-0.9541985,-0.1908397,1.0076336,-19.6131992,0.1460456,9.1458035,82.6946564,31.2595425,250.1297760
1590,1.0295014,3.3877780,9.3133974,-0.8625954,-0.0992366,1.0305344,-18.3825874,-0.1197095,7.3214312,85.5496216,48.5038185,250.1297760
1600,1.0127422,3.3877780,9.2679071,-1.0992366,0.3664122,1.6488550,-15.9405136,-0.3519458,6.1698260,83.4274826,62.1297722,250.1297760
1610,1.0103480,3.5314295,9.2200232,-0.5725191,0.3282443,1.6793894,-13.3188763,-0.5291159,4.9463954,76.8473282,66.0229034,250.1297760
1620,0.9648584,3.5936785,9.3086090,-0.9160305,-0.0687023,1.6641221,-10.6996326,-0.8379663,3.8402798,67.6641235,63.9847336,250.1297760
1630,0.9169745,3.6176202,9.2463598,-0.7709923,-1.0534351,2.1297710,-8.2336178,-1.1468167,2.8035958,55.0839691,54.1755714,250.1297760
1640,1.3479286,3.3997490,9.3253679,0.6259542,-0.8702290,0.4961832,14.5877962,-3.7900019,-2.1954718,1.3282443,-237.6870270,235.4809113
1650,1.3862357,3.4404502,9.2487535,0.5343512,-0.1984733,-0.0229008,16.1727505,-2.9041519,-2.6790979,5.9007635,-175.2671814,203.6641235
1660,1.3287752,3.5218527,9.1505919,0.0687023,0.4503817,-1.0534351,17.7026367,-1.6663558,-2.9640064,8.7557249,-71.1450348,172.0610657
1670,1.2952565,3.5003049,9.1625633,-0.4503817,0.7480916,-1.8091604,19.2540722,-0.3375807,-3.1220231,6.1374044,44.9694672,134.6870270
1680,1.2258250,3.5745249,9.1841106,-0.7709923,1.1526718,-2.2519083,19.6126022,0.5698171,-2.6120608,-4.0076337,140.8778687,87.4809189
1690,1.1420283,3.5266411,9.1410151,-1.0534351,1.5877863,-2.4885497,19.6126022,1.4700323,-1.4867916,-18.1603050,195.3129730,26.1679382
1700,1.1180865,3.5098817,9.1098909,-1.3740458,1.6641221,-2.3740458,19.6126022,1.2976507,0.2346306,-32.2213745,203.6641235,-46.4427490
1710,1.0271072,3.4763632,9.1194677,-1.8167939,1.9694656,-2.1526718,19.6126022,1.8554969,1.9033806,-39.1068687,192.8091583,-127.0076370
1720,0.9720409,3.4835455,9.1434097,-1.8167939,1.2519084,-2.1297710,18.6148224,2.0925217,3.2249732,-41.2290077,165.6641235,-211.1068726
1730,0.9911944,3.4883339,9.1625633,-2.1908398,0.0916031,-1.8549619,17.7170029,1.8363433,3.6678982,-43.1832047,131.7480927,-250.1374054
1740,0.9289455,3.4955165,9.1051025,-2.3511450,-0.9389313,-1.5190840,16.3978043,0.9696468,3.5314295,-46.9771004,114.2061081,-250.1374054
1750,0.9073978,3.3997490,9.2152348,-3.3282442,-1.2595420,-1.0381680,15.1121235,-0.4932030,4.2568688,-47.7709923,118.2671738,-250.1374054
1760,1.0079538,3.4428444,9.2080526,-3.6183207,-0.6106870,-0.4274809,13.6133614,-3.0765336,5.1307478,-37.3969460,128.0000000,-250.1374054
1770,0.9744351,3.4069316,9.2942438,-3.5267177,-0.0381679,0.0687023,10.1992474,-7.0628591,5.7915444,-15.9160309,125.6946564,-250.1374054
1780,0.9911944,3.4332676,9.3157911,-3.0763359,1.3129771,1.8549619,1.9345051,-15.2916880,5.8561873,11.8167934,-13.0229006,-250.1374054
1790,1.0271072,3.4572096,9.2822723,-2.7633588,1.6259542,2.6106870,-5.8513989,-19.6131992,5.2217274,-1.1374046,-179.5954132,-250.1374054
1800,1.0390782,3.3662305,9.3804340,-2.6030533,1.4732825,2.7251909,-17.5877151,-19.6131992,3.3422885,-51.6564903,-250.1374054,-250.1374054
1810,1.0510491,3.4715748,9.3253679,-1.6564885,1.0992366,2.4961832,-19.6131992,-19.6131992,1.8195840,-168.6335907,-250.1374054,-250.1374054
1820,0.9864060,3.5003049,9.3995876,-1.3053435,0.2442748,2.5572519,-19.6131992,-13.3739424,5.2193332,-250.1374054,-250.1374054,-250.1374054
1830,0.9433106,3.4955165,9.3924055,-0.4732825,-0.4198473,2.8015268,-19.6131992,-6.6462698,14.3316183,-250.1374054,-250.1374054,-250.1374054
1840,1.0079538,3.4452386,9.3277617,-0.0687023,-0.9083970,2.9465649,-19.6131992,-4.3334827,19.6126022,-250.1374054,-161.3053436,-187.2137451
1850,1.1013272,3.5290353,9.2032642,0.4427481,-0.9160305,2.8015268,-19.6131992,-4.7021880,19.6126022,-200.2977142,181.1068726,71.7557220
1860,1.1132981,3.5386121,9.1865053,0.4503817,-1.0763359,2.4580152,-19.6131992,-4.6327567,19.6126022,-40.7099228,250.1297760,225.3053436
1870,1.1851238,3.5434003,9.1146793,0.0076336,-1.8396946,1.7099236,-19.6131992,-4.5657191,19.6126022,79.6946564,250.1297760,250.1297760
1880,1.1468167,3.5505829,9.0548248,-0.6030535,-2.0381680,1.0992366,-8.1641865,-3.0813217,19.6126022,152.6641235,214.6183167,234.1755676
1890,1.1923064,3.5218527,9.1984758,-0.9389313,-1.3740458,0.5419847,-0.8786675,-0.9289455,18.2437229,183.8167877,125.5114517,158.2519073
1900,1.1731528,3.3782012,9.3397331,-1.3969465,0.0992366,-0.1068702,0.6751614,3.8570392,6.2655940,154.1908417,-1.3511450,4.0458016
1910,1.2162483,3.3566537,9.3971939,-0.8778626,0.8396947,-0.4885496,-0.2633608,4.9416070,3.9791429,121.8702316,-31.7786255,-44.8854980
1920,1.1899122,3.3375001,9.4259243,0.7633588,0.4809160,-0.6335878,-1.2162483,4.7596488,2.7964132,62.1526718,5.5190840,-90.1374054
1930,1.0127422,3.5146701,9.1817169,1.6106870,-0.5725191,-1.1221374,-10.8265247,1.8363433,6.8018923,55.4580154,-69.8091583,-156.5572510
1940,1.1228749,3.5529771,9.1841106,1.3740458,-1.0000000,-1.1984733,-13.1871958,2.4085546,5.5162125,53.7938919,-116.3129807,-147.0458069
1950,1.0893562,3.4835455,9.1888990,0.7786260,-1.3664122,-1.5877863,-14.3962612,2.7605004,4.0270267,38.4427490,-146.4351196,-124.4732819
1960,1.1132981,3.4931223,9.1649570,0.6183206,-1.3740458,-1.3816794,-14.4656925,2.6479735,3.4667864,15.7404585,-147.3435059,-93.2595444
1970,1.2425843,3.5218527,9.1865053,0.3816794,-1.1984733,-1.5496184,-14.9110117,2.3486998,4.3286943,-4.8091602,-108.4809189,-55.4503822
1980,1.1587877,3.5457945,9.2655134,0.4961832,-0.8320611,-1.5725191,-16.0243092,2.0254843,6.4116392,-13.4274807,-32.1832047,-6.2671757
1990,1.1707586,3.4691806,9.2415714,0.3358779,0.0992366,-2.0076337,-17.2644997,2.0805507,9.0117292,-7.9541984,53.9694672,48.6259537
2000,1.2449785,3.4739690,9.1865053,-0.1145038,0.7709923,-2.3664122,-17.3147774,2.1092808,11.1305866,8.2442751,117.2671738,100.6946564
2010,1.1851238,3.4667864,9.1027079,-0.5648855,1.1679389,-2.7404580,-16.5294838,1.8339491,12.0858688,28.5038166,150.5801544,140.4961853
2020,1.1132981,3.4763632,9.2080526,-1.3511450,1.0381680,-2.7557251,-15.8782644,1.5777708,12.3923244,50.8625946,148.8854980,164.4961853
2030,1.0486550,3.4907281,9.2679071,-1.3282443,0.4961832,-2.8015268,-15.0067797,1.5681942,11.4657736,71.0763321,120.9236679,175.0992432
2040,1.0055596,3.4931223,9.2798786,-1.1526718,0.5114504,-2.4656489,-14.2909164,1.9201399,9.9263096,82.6717529,81.5572510,177.1221313
2050,0.9600700,3.5026991,9.2655134,-1.0152671,0.9083970,-2.0458016,-14.1209297,2.4396791,7.7643566,83.2900772,42.0687027,178.4961853
2060,0.9552816,3.6176202,9.2894554,-0.9389313,1.3664122,-1.3435115,-14.1783895,3.0214672,6.5600791,75.4656525,20.3587780,189.1755676
2070,0.9768293,3.5457945,9.2080526,-0.8549618,1.8396946,-0.7251908,-14.0850163,3.3662305,6.1027889,67.4274826,21.0916023,211.0000000
2080,0.9385223,3.5625539,9.1051025,-1.3206106,1.7938931,-0.1603053,-13.4314032,3.2177906,5.9830794,62.8167953,36.8702278,240.5496216
2090,0.9289455,3.3829896,9.3995876,-1.4503816,1.3358779,3.2137403,-7.2280579,0.8499373,3.0621684,47.8473282,73.9465637,250.1297760
2100,0.8331779,3.3734128,9.2798786,-1.0916030,1.0229008,4.4961834,-4.9990678,0.4309541,2.8826041,35.3740463,65.9770966,250.1297760
2110,1.0486550,3.4356618,9.1960821,-1.9007634,-1.9847329,7.0687022,1.4053892,0.0478838,3.4404502,21.9694653,79.7633591,250.1297760
2120,1.1683644,3.5481887,9.3971939,-1.8091604,0.0305344,6.8854961,4.1132174,-0.7469871,1.8578910,22.6106873,83.5267181,250.1297760
2130,1.1611819,3.5984666,9.5073261,-0.6870229,1.0916030,6.4580154,5.7173243,-0.9696468,0.5171449,14.3664122,82.9007645,250.1297760
2140,1.0654143,3.7708483,9.4881725,0.5190840,1.9312977,5.9541984,7.1346846,-1.4101776,-0.8020535,-1.8473282,69.4122162,250.1297760
2150,1.0414724,3.7157819,9.1673517,2.2519083,1.8854961,4.5648856,11.8632088,-1.2282192,-1.1779412,-39.2900772,42.9771004,250.1297760
2160,0.8786675,3.7062054,9.0835552,2.4122138,0.7709923,4.2442746,15.5789909,-0.6272776,-0.8906385,-56.1908379,29.6412220,237.6717529
2170,0.9624642,3.6583214,8.9877872,2.0305343,-0.2061069,4.0610685,19.0577488,0.1819584,-0.1795642,-73.8473282,20.4961834,169.3435059
2180,0.9600700,3.5481887,9.0093346,1.1984733,-2.1908398,3.7786260,19.6126022,1.4724265,0.9600700,-90.4198456,15.4351149,93.3969498
2190,1.0390782,3.4308734,9.0620070,0.4656489,-3.7328243,3.3664122,19.6126022,2.8227494,1.5658000,-111.0076370,9.5725193,7.0000000
2200,1.1276633,3.4165084,9.1338329,-0.1603053,-4.9465647,2.8320611,19.6126022,2.9616125,2.4420733,-115.5877838,53.4122124,-80.2977066
2210,1.1994889,3.3446827,9.2750902,-0.2748092,-5.7557254,2.4503818,19.6126022,2.8275378,1.4820032,-114.4503784,117.4656525,-168.5114441
2220,1.3335636,3.2944047,9.3995876,-0.0992366,-6.8778625,2.2748091,19.6126022,1.5993185,-0.4213773,-119.3969498,191.0610657,-250.1374054
2230,1.4772149,3.1244173,9.4762020,0.5343512,-7.6870227,1.9618320,19.6126022,-0.9409165,-0.5530578,-122.5725174,250.1297760,-250.1374054
2240,1.6855093,3.0861101,9.5336628,1.3511450,-6.5114503,1.2061069,18.1383801,-4.9104824,-0.1867468,-120.2137375,250.1297760,-250.1374054
2250,1.8267666,3.2728570,9.5360565,1.6793894,-4.8854961,0.6183206,14.2286682,-9.9622221,1.2401901,-119.4732819,250.1297760,-250.1374054
2260,1.9560528,3.3087699,9.4833841,1.7938931,-3.1526718,-1.0534351,7.3022780,-15.0259333,4.7117648,-110.2366409,223.0915985,-250.1374054
2270,2.0015423,3.4045374,9.3397331,1.7709924,-0.4809160,-3.0305343,0.7900825,-17.3746338,8.2120695,-91.9465637,99.3969498,-250.1374054
2280,1.8770446,3.4979107,9.1266499,0.8091603,2.9847329,-4.8549619,-6.3158717,-18.5142670,11.7004042,-76.7862625,-34.7022896,-250.1374054
2290,1.7166338,3.6511390,9.0308828,-1.1832061,6.2824426,-6.5419846,-13.4768925,-18.2676659,14.9948082,-62.2671738,-128.2671814,-250.1374054
2300,1.5753766,3.6295912,9.0117292,-2.8549619,9.0229006,-8.7709923,-19.5150375,-17.5063133,17.7241840,-33.8778610,-146.3435059,-250.1374054
2310,1.1300575,3.7133877,9.1745338,-2.5190840,8.1603050,-9.7862597,-19.6131992,-16.3978043,19.0601425,21.8931293,-121.9083939,-250.1374054
2320,0.9026094,3.7660601,9.0787668,-2.7251909,6.8396945,-8.6793890,-19.6131992,-14.8966465,16.9101601,94.5801544,-66.0763321,-250.1374054
2330,0.6296718,3.7349355,9.2032642,-3.1832061,7.1297708,-8.2442751,-19.6131992,-10.2303715,13.0579090,164.2519073,-1.4198474,-250.1374054
2340,0.4070122,3.6415622,9.1242561,-2.6412213,5.9847326,-7.4885497,-19.6131992,-3.9863255,8.0971489,194.0839691,51.3282433,-250.1374054
2350,0.2801202,3.6894460,9.1553802,-1.1603054,2.6183207,-5.1679387,-19.6131992,-0.2633608,2.7269819,178.4503784,91.5496216,-149.4961853
2360,0.2370248,3.6463506,9.0236998,-1.5114504,3.1297710,-2.5343511,-19.6131992,0.8164186,-1.0917504,123.5114517,113.8244247,-34.2442741
2370,0.2274480,3.5505829,9.1553802,-2.3664122,3.2290077,-0.7480916,-19.6131992,1.6160779,-1.0414724,53.9083977,116.8015289,23.5801525
2380,0.2178712,3.4787574,9.2774839,-1.8244275,1.2977099,1.4580153,-16.9388905,1.9105632,1.4293311,-0.9923664,99.7557220,40.7404594
2390,0.4429250,3.4619980,9.4211359,-0.5038168,-2.6564887,3.4809160,-13.2063494,2.1930776,4.8721757,-28.0534344,66.7251892,33.4961815
2400,1.5442522,3.5194585,9.1314383,-0.8015267,0.1755725,0.0229008,-7.9295554,1.4748207,4.8099265,32.8778610,-0.8473282,-35.6946564
2410,0.7924767,3.6056492,9.2319946,-1.6335878,2.7328243,-0.8549618,-8.5544386,0.9409165,5.6718349,-5.8549619,8.2977095,-14.8396950
2420,0.6440369,3.5721307,9.2870607,-1.6870229,1.8015267,0.3664122,-7.9367380,0.6177009,6.3757267,-7.0305343,-1.1450381,-14.6106873
2430,0.6871324,3.5817075,9.2343884,-1.2366412,0.9465649,1.7022901,-7.4746594,0.3830703,6.6750002,-3.3358779,-5.6335878,-18.1679382
2440,1.5346755,3.3446827,9.2176294,-1.5343511,-1.6106870,1.5801526,-10.6996326,1.0510491,5.1522956,-3.2748091,-51.8549614,-45.8091621
2450,1.5993185,3.3758070,9.4163475,-1.5190840,-0.7022901,0.6564885,-11.1784706,1.1516051,5.6047974,-9.4198475,-42.6641235,-32.2061081
2460,1.6065011,3.4380560,9.4546537,-0.7709923,-0.7480916,-0.8015267,-11.1832590,1.1707586,6.1219425,-11.3587790,-31.5190830,-18.8167934
2470,1.4700323,3.4117200,9.4259243,0.1603053,-0.1908397,-1.7022901,-10.8983507,1.0845678,6.6127515,-9.5190840,-18.6030540,-5.8549619
2480,1.3814473,3.4979107,9.3708572,0.9160305,0.5877863,-1.8702290,-10.3476868,0.8858501,7.1227136,-4.6183205,-6.8167939,2.4274809
2490,1.3000449,3.5649481,9.3924055,1.1145039,0.9618320,-2.2671757,-9.8281479,0.8451489,7.3501616,2.5801528,4.2366414,7.1679387
2500,1.2928623,3.5529771,9.2439651,1.0916030,1.3435115,-3.3969467,-9.4091644,0.8068419,7.2927012,10.9694653,15.7175570,9.6183205
2510,1.1635761,3.6511390,9.1410151,0.8549618,1.3664122,-4.1221375,-9.0500364,0.9528874,7.1729918,16.8473282,19.7633591,9.0076332
2520,1.0414724,3.6032550,9.1242561,0.0000000,1.1374046,-4.5725193,-8.8225880,1.3096216,6.8617468,21.1297703,19.1068707,6.3435116
2530,1.0127422,3.6487448,9.2391768,-0.1145038,0.8167939,-5.1526718,-8.7651272,1.5418580,6.5361371,23.8549614,16.2519093,3.5877862
2540,0.9361281,3.6176202,9.2894554,0.3664122,0.1221374,-5.1450381,-8.6166878,1.6448082,6.0549049,24.4122143,12.6641226,0.9541985
2550,0.9097920,3.6391680,9.3157911,1.3816794,-0.5496183,-4.4122138,-8.6095057,1.7118455,5.8035154,22.2366409,9.3969469,-0.6870229
2560,0.9792235,3.6319854,9.3924055,2.3969467,-0.9541985,-3.7175572,-8.7938576,1.7094513,5.5808558,18.9465656,6.8320613,-2.0534351
2570,1.0869620,3.6439564,9.3517036,3.1221373,-0.6106870,-3.7557251,-9.1290445,1.4173602,5.6407104,14.0610685,0.7862595,-3.4045801
2580,1.1300575,3.5625539,9.2750902,3.4580152,-0.2595420,-3.9694657,-9.5839405,1.5681942,5.9280128,9.2213745,-4.2137403,-5.7557254
2590,1.1396341,3.5410061,9.1505919,3.2061069,-0.2061069,-4.4045801,-10.4985209,1.6879035,6.4403696,8.3282442,-3.1374047,-4.1832061
2600,1.1516051,3.5386121,9.1721401,2.9083970,-0.3816794,-4.2442746,-11.1425581,1.5801650,6.6630292,10.5572519,3.6793892,2.5190840
2610,1.2186425,3.5410061,9.1673517,2.1908398,-0.5419847,-4.3969464,-11.7602587,1.5203103,6.9575148,12.8625956,8.1145039,9.9312973
2620,1.1683644,3.5074875,9.1673517,1.6106870,-0.0381679,-4.6870227,-11.9493999,1.6088953,7.1610208,13.9770994,6.8244276,18.2671757
2630,1.1755470,3.5386121,9.1769285,1.4427481,0.1374046,-4.7328243,-12.2702208,1.6424140,7.3190370,14.8320608,4.7557254,25.0305347
2640,1.0893562,3.5170643,9.2703018,1.3435115,0.4503817,-4.1526718,-12.5024576,1.6711442,7.4148049,16.0916023,0.6259542,31.6488552
2650,1.0199248,3.5050933,9.2798786,1.2900764,0.6641222,-3.3893130,-12.5671005,1.5729824,7.6159167,17.6259537,-1.1984733,39.0228996
2660,0.9361281,3.5290353,9.3325500,1.3358779,0.6259542,-2.8244274,-12.6796274,1.4796091,7.7164726,19.6641216,-0.7022901,45.7404594
2670,0.9433106,3.4883339,9.3086090,1.5877863,0.8396947,-2.0152671,-13.0124197,1.4365137,7.9415264,22.8778629,-1.3664122,50.5877876
2680,0.9121862,3.5290353,9.2272062,1.3282443,1.2671756,-0.8396947,-13.6085730,1.5083394,7.9558916,26.5648861,-5.1603055,55.5648842
2690,0.8666966,3.6439564,9.2248116,1.4427481,1.6717557,-0.0916031,-14.2214851,1.5203103,7.9415264,29.3435116,-9.6412210,61.1984749
2700,0.8379663,3.5649481,9.0811605,1.0839695,1.3740458,0.9312977,-14.8703108,1.3359578,8.0540533,30.4809170,-11.7862597,69.2748108
2710,0.8571198,3.6128318,9.0883436,1.1679389,0.7709923,1.6183206,-15.8710823,1.2401901,8.2407999,30.7633591,-13.1297712,79.4885483
2720,0.8307837,3.6798692,8.9710283,0.7862595,0.0381679,2.4809160,-17.3722382,1.0007712,8.4682484,32.1832047,-18.5954189,91.9083939
2730,0.9145803,3.6583214,9.1194677,0.6488550,-0.6641222,2.8778627,-18.4568062,0.8738791,8.6071110,33.1145020,-25.8320618,110.0534363
2740,1.0702027,3.6535332,9.0931320,0.0687023,-0.9618320,2.8854961,-19.1080265,0.6775556,8.7052727,33.6106873,-32.7557259,132.8015289
2750,1.0797794,3.5625539,9.1314383,-0.3740458,-0.6870229,2.9847329,-19.1439381,0.7206510,9.0356712,35.9160309,-34.6183205,159.1068726
2760,1.0702027,3.6056492,9.2559366,-0.6641222,-0.6870229,2.6946564,-18.6866493,0.3998296,9.1601686,41.2900772,-27.4198475,185.3206177
2770,1.1611819,3.5841017,9.2056589,-0.9236641,-1.0458015,2.6793892,-18.1742916,0.1699875,9.2750902,50.3664131,-16.1526718,209.9084015
2780,1.2018831,3.6343796,9.2703018,-0.7862595,-1.2366412,2.6793892,-17.7744617,0.3423691,9.3110027,62.4732819,-9.3053436,233.8854980
2790,1.1516051,3.6271970,9.1793222,-0.5648855,-1.0381680,2.5343511,-17.0011387,0.1316804,8.6693602,73.7938919,-5.2137403,250.1297760
2800,1.1420283,3.6463506,9.2631187,-0.4961832,-0.7404580,2.6870229,-15.7154598,-0.1244979,7.9894104,82.4732819,-0.6946565,250.1297760
2810,1.1492109,3.5888901,9.2248116,-0.4961832,-0.2900763,2.2519083,-14.1544485,-0.5482694,6.7947097,89.5343475,3.0687022,250.1297760
2820,1.1324517,3.6894460,9.1170731,-0.9694657,1.2824427,1.8320611,-10.3141680,-1.3766589,4.8123207,86.5725174,10.3893127,250.1297760
2830,1.0079538,3.6104376,9.2607250,0.4351145,-0.2977099,3.9618320,1.6280488,-2.0901275,3.8977404,73.8473282,-0.3816794,250.1297760
2840,1.9560528,3.6200144,9.4857788,0.4961832,2.6030533,3.6412213,13.8791161,0.1723816,1.1276633,49.4885483,-55.7251892,181.7175598
2850,0.9816177,3.8833754,9.0524302,5.6106873,-2.0000000,-0.2824427,13.8743277,2.0398495,0.5315101,48.6717567,-11.2137403,103.0229034
2860,1.0678085,3.7493007,9.0189114,4.2900763,-7.0916033,1.4656489,13.7426472,2.5929072,-0.2489957,42.1221390,-4.0916033,67.6641235
2870,1.0318956,3.5553713,9.0907373,3.5267177,-5.5725193,0.8473282,13.4002781,2.9017577,-0.7613522,29.1145039,-5.5267177,32.9541969
2880,1.3191984,3.6511390,9.0787668,3.1984732,-4.4351144,-0.2137405,12.6939926,3.0478032,-0.7876883,14.2595415,-12.1832066,-0.6106870
2890,1.2713146,3.6918402,9.0859489,2.8320611,-4.9770994,-0.7633588,12.1960011,3.1028695,-0.5243275,1.7022901,-24.5190830,-30.1603050
2900,1.2713146,3.5003049,9.1721401,2.0152671,-4.1297708,-0.9847328,11.9254580,2.8658447,-0.5075682,-8.8167934,-39.5496178,-59.5038185
2910,1.4101776,3.6942344,9.0835552,0.8396947,-2.6641221,-1.8778626,12.0499554,2.6360025,-0.4309541,-18.6946564,-49.8549614,-87.2671738
2920,1.6136837,3.4524212,9.1529865,0.2595420,0.0839695,-4.4274807,11.8871508,2.5641768,-0.2466015,-26.9694653,-47.8778610,-110.1297684
2930,1.4341195,3.5697365,9.1649570,1.1068702,0.2137405,-5.0229006,11.6860390,2.3271523,0.3208214,-30.4427490,-39.2824440,-131.4045868
2940,1.4748207,3.5074875,9.2248116,0.6946565,-3.2824428,-3.8167939,11.5136566,1.9488702,0.6799498,-29.3740463,-28.7633591,-151.9770966
2950,1.6304430,3.5721307,9.1434097,0.4732825,-3.5954199,-4.0839696,11.5016861,1.5466464,0.5075682,-27.6717548,-19.3511448,-173.5343475
2960,1.6112895,3.6702924,8.9973640,0.0229008,-1.6259542,-4.8549619,11.5471754,1.0678085,-0.1987177,-27.5114498,-8.9847326,-194.8931274
2970,1.5322813,3.7014170,9.0404596,-1.2671756,0.4809160,-6.2977099,11.5232334,0.4860204,-0.9576758,-31.0992374,3.8625953,-216.7099304
2980,1.3598996,3.7612717,9.0021524,-2.9312978,3.1679389,-6.7251906,11.6429434,-0.2226596,-1.6831152,-38.9236641,16.7862587,-238.2290039
2990,1.1252691,3.7373297,9.0284882,-4.2671757,5.4732823,-6.2900763,12.0475616,-1.2114599,-2.3989778,-48.9007645,25.4961834,-250.1374054
3000,1.0821736,3.8283088,9.2152348,-4.3206105,4.1984735,-5.2290077,12.1912127,-2.4157372,-3.1363883,-61.3053436,32.0076332,-250.1374054
3010,0.9600700,3.8235207,9.2080526,-3.6488550,3.0076337,-5.3587785,12.1313581,-3.9432299,-3.7301471,-77.8702316,35.4809151,-250.1374054
3020,0.6823440,3.7876077,9.1912937,-2.9465649,2.5801528,-3.9847329,12.0020714,-5.4204450,-3.8115497,-96.5572510,45.9694672,-250.1374054
3030,0.6224893,3.7157819,9.0308828,-3.9465649,4.6870227,-2.1526718,10.4434547,-6.5217719,-3.5218527,-110.1526718,57.8625946,-250.1374054
3040,0.6033357,3.7349355,9.0452480,-4.8167939,6.4198475,-1.4122137,8.5496502,-7.6254935,-3.1052637,-117.5648880,71.4427490,-250.1374054
3050,0.4118006,3.7540891,9.1481981,-4.6183205,6.5648856,0.5419847,5.9950504,-9.1434097,-3.0430148,-126.4656525,76.6259537,-250.1374054
3060,0.5075682,3.7109938,9.2487535,-3.9694657,4.5954199,1.6412214,1.9704180,-11.1234045,-2.3798244,-134.7633514,79.0992355,-250.1374054
3070,0.4716553,3.6774750,9.3301563,-1.9389313,0.3969466,3.1221373,-4.5920553,-12.9836893,-1.6519908,-141.5877838,67.9389343,-250.1374054
3080,0.6272776,3.5864959,9.3540983,0.2213740,-4.1755724,4.7404580,-14.7984848,-14.5806141,-0.8092360,-154.6106873,22.3816795,-250.1374054
3090,0.8283895,3.5505829,9.4402885,2.0076337,-7.0305343,5.4885497,-19.6131992,-15.3156300,0.0502780,-187.8396912,-47.2671738,-250.1374054
3100,0.9816177,3.6343796,9.3708572,3.0916030,-7.8244276,5.8625956,-19.6131992,-14.1041698,2.9328821,-246.1679382,-84.9007645,-250.1374054
3110,1.1731528,3.5338237,9.2296000,3.1145039,-7.5572519,5.5877862,-19.6131992,-10.3668404,10.4554253,-250.1374054,-73.5343475,-250.1374054
3120,1.3838415,3.5864959,9.1529865,2.8778627,-6.8015265,5.3893127,-19.6131992,-6.3613615,19.6126022,-250.1374054,-53.8473282,-250.1374054
3130,1.5394639,3.6631098,9.0979195,2.1526718,-5.8854961,4.6106873,-19.6131992,-6.2320752,19.6126022,-236.3053436,-14.7328243,-120.2824402
3140,1.6208663,3.6008608,9.1051025,1.3740458,-4.4122138,3.4274809,-19.6131992,-5.7077475,19.6126022,-124.0076370,52.3358765,4.7328243
3150,1.7405758,3.6176202,9.0811605,0.9312977,-2.9847329,2.1145039,-19.6131992,-3.9264708,19.6126022,-11.1984730,132.8778687,70.0152664
3160,1.7022687,3.7445123,9.1218615,0.3435115,-1.5343511,0.3664122,-19.6131992,-3.0621684,19.6126022,57.2442741,184.7786255,100.4122162
3170,1.6472024,3.7660601,9.0452480,-0.6030535,-0.3358779,-1.1832061,-19.3546276,-1.8411317,14.7913027,83.6488571,185.2213745,106.0839691
3180,1.5227045,3.7588775,9.1266499,-1.6030535,1.5877863,-2.1068702,-15.1911325,-0.1628049,11.3364868,83.5038147,139.3358765,89.9236679
3190,1.1755470,3.7229645,9.0332766,-3.0152671,4.3435116,-3.2824428,-10.9246864,1.4508789,7.7092900,60.0763359,4.1984735,36.1755714
3200,0.9265513,3.6942344,9.2152348,-2.8854961,4.1374044,-3.0381680,-8.7483683,2.5737536,5.9758968,41.7709923,-62.1221390,3.8702290
3210,0.8523315,3.6966286,9.2128410,0.3129771,-1.7022901,0.3969466,-6.5792327,2.0925217,3.1387823,46.8931313,-5.2366414,-8.5419846
3220,1.0318956,3.6607156,9.1529865,0.4656489,-1.8778626,1.0992366,-6.8306227,2.1380112,2.6623387,42.9694672,6.8549619,-9.0305347
3230,1.0630201,3.6319854,9.1410151,0.6793893,-2.1832061,1.3129771,-7.0604649,2.0709739,2.3750360,35.4656487,13.0839691,-9.3511448
3240,1.1947005,3.6607156,9.2104464,0.8625954,-2.3129771,1.5496184,-6.9287844,1.7836711,2.4133430,25.8473282,15.9923668,-8.7786255
3250,1.2282192,3.6224086,9.1338329,0.5114504,-2.0076337,1.5190840,-7.0844064,1.5418580,2.5498118,16.7633591,16.6106873,-11.6564884
3260,1.2689204,3.6607156,9.0811605,0.0839695,-1.0381680,1.0305344,-7.3932571,1.3527170,2.8682389,9.3206110,12.7557249,-16.1832066
3270,1.2689204,3.6583214,9.1458035,-0.2366412,-0.6259542,0.8320611,-7.9606800,1.2808913,3.1675127,3.1603053,4.2213740,-20.5954189
3280,1.2689204,3.6942344,9.0883436,-1.1832061,0.3893130,-0.2213740,-8.6334467,1.2162483,3.7469065,-6.5267177,-14.7022905,-25.1374054
3290,1.1707586,3.6798692,9.0691900,-1.8396946,1.2290076,-0.5954198,-9.0644016,1.3958124,4.0461802,-8.8244276,-21.0381680,-25.1526718
3300,1.0582317,3.7014170,9.1338329,-2.3435113,2.3435113,-0.5801527,-9.4378948,1.3168042,4.3119354,-10.5190840,-29.1068707,-24.3129768
3310,1.0654143,3.6367738,9.0620070,-2.5419848,1.9923664,-0.1603053,-9.4570484,1.2258250,4.4029145,-11.9694653,-36.2366409,-22.2442741
3320,0.9744351,3.7133877,9.1601686,-2.3969467,1.1603054,0.1984733,-9.8760319,1.4508789,4.5752959,-15.0916033,-44.2671738,-23.5648861
3330,0.9720409,3.6583214,9.2032642,-1.4961832,0.3358779,0.4809160,-10.2327662,1.5107336,5.0876527,-17.5801525,-48.8396950,-19.0229015
3340,1.0390782,3.6918402,9.1505919,-1.4045801,-0.7480916,0.6717557,-10.1369982,1.4580613,5.3127065,-18.0229015,-48.8473282,-12.4961834
3350,1.0366840,3.6463506,9.2391768,-1.0916030,-1.3587786,0.9465649,-9.7467451,1.2234308,5.5688848,-16.0229015,-44.9236641,-8.4961834
3360,1.0175306,3.7085996,9.1505919,-1.1679389,-1.5267175,0.9312977,-9.4522600,1.3215926,5.7316895,-12.6870232,-37.7862587,-5.9541984
3370,1.0127422,3.6271970,9.1434097,-1.4198474,0.1603053,-0.1221374,-8.1570034,1.0103480,5.7269011,0.0839695,-7.0839696,-9.8091602
3380,1.0247130,3.6295912,9.2032642,-1.1450381,0.0839695,0.1908397,-8.2910776,1.0845678,5.7676024,1.0152671,-4.2213740,-9.6030531
3390,1.0821736,3.7014170,9.3110027,-0.6564885,-0.2061069,0.0305344,-8.3820572,1.0438666,5.8298512,2.8931298,-0.6946565,-8.1908398
3400,1.0845678,3.6080434,9.1936874,-0.5267175,-0.7786260,-0.0381679,-8.4562769,1.0749911,5.8490047,5.6259542,2.3206108,-6.5190840
3410,1.0462608,3.5888901,9.2080526,-0.2213740,-1.0610687,0.1297710,-8.2743187,1.0510491,5.8442163,8.1374044,5.2290077,-5.6259542
3420,1.0702027,3.6367738,9.2703018,0.1374046,-1.7328244,0.4656489,-8.2336178,1.1300575,5.8011212,10.1679392,8.1908398,-6.3358779
3430,1.1875180,3.5864959,9.2104464,0.5572519,-2.1145039,0.5801527,-8.1665802,1.2569494,5.6670465,12.9694653,11.1832066,-6.9312978
3440,1.3191984,3.5841017,9.1865053,0.6717557,-2.0305343,0.3969466,-8.0923605,1.3670821,5.6143742,15.9312973,13.1832066,-8.8702288
3450,1.3575054,3.6008608,9.1338329,-0.0152672,-1.1450381,-0.7099237,-8.3557215,1.7238164,5.3965030,20.5190830,11.3664122,-15.0229006
3460,1.2617378,3.6271970,9.1697454,-0.6793893,0.5801527,-1.3053435,-8.3868456,2.5282640,5.2767935,23.0381680,0.4885496,-23.5114498
3470,1.0318956,3.7038112,9.0476418,-1.1832061,1.8396946,-1.4122137,-8.5017672,3.0023136,5.3246775,26.2366409,-10.2366409,-41.7175560
3480,0.9672526,3.6678982,9.0859489,-1.3206106,-0.2366412,-0.7938932,-11.8177195,2.0183017,5.7125359,32.5267181,27.5190830,-60.8625946
3490,0.9792235,3.8953462,8.9997578,-1.7862595,-0.6259542,1.1679389,-14.4130201,1.7764885,5.6814117,33.8167953,30.9541988,-59.4198456
3500,1.1970947,3.6631098,9.1290445,-2.2977099,-1.4351145,1.8320611,-17.3075962,1.5562232,5.4802995,31.5267181,25.9312973,-50.5114517
3510,1.2617378,3.5481887,9.1960821,-1.9312977,-1.0839695,0.7404580,-19.6131992,1.4820032,5.5545197,24.5190830,16.4732819,-32.8549614
3520,1.2377959,3.5817075,9.1122847,-3.0305343,-0.4427481,0.2137405,-19.6131992,0.8283895,6.4786768,1.9847329,21.2137413,33.2748108
3530,1.2306134,3.5936785,9.2008705,-3.5267177,-0.4732825,0.3816794,-19.6131992,0.0622489,8.7531567,-3.2824428,39.8854980,121.8396912
3540,1.1348459,3.6822634,9.3205795,-2.5954199,0.0534351,-0.0076336,-19.6131992,-0.5937590,9.6844959,5.8015265,49.8931313,159.0610657
3550,0.9959828,3.6750808,9.3732519,-2.0687022,0.6335878,1.3053435,-19.6131992,-1.3287752,9.7802639,18.1145039,55.4580154,190.9618378
3560,1.0199248,3.7229645,9.2870607,-1.6030535,0.8473282,2.3282442,-19.6131992,-1.8052188,9.7994175,29.2748089,52.6259537,217.3816833
3570,0.9935886,3.7038112,9.2176294,-0.5572519,0.8549618,2.1068702,-19.6131992,-2.2098370,9.3828287,37.4045792,39.7404594,242.1832123
3580,0.9911944,3.7421181,9.1481981,-0.1450382,0.1603053,1.9923664,-19.6131992,-2.6862805,9.0284882,42.6259537,17.7022896,250.1297760
3590,0.9313397,3.6918402,9.1194677,-0.2213740,-0.2061069,2.3816793,-19.6131992,-3.0262554,8.4802189,46.8396950,-10.5725193,250.1297760
3600,1.0151364,3.6224086,9.2176294,-0.3893130,-0.2977099,2.5877862,-19.6131992,-3.6678982,7.5081782,51.4961815,-30.9541988,250.1297760
3610,1.1970947,3.5529771,9.2679071,-0.1526718,-0.8244275,2.5419848,-18.8901539,-4.4340386,6.7444315,55.2442741,-39.4351158,250.1297760
3620,1.2186425,3.5793133,9.3708572,0.4351145,-1.0687023,2.2290077,-16.1751442,-4.7955613,6.0788469,58.0610695,-40.3969460,250.1297760
3630,1.2665262,3.4643922,9.3397331,1.0305344,-1.2366412,1.8625954,-13.1584654,-5.1020179,5.4611464,61.2213745,-34.6793900,250.1297760
3640,1.3958124,3.4548154,9.2200232,0.8549618,-1.0763359,1.7786260,-10.4817610,-5.3821378,4.6950054,63.6946564,-16.7022896,250.1297760
3650,1.3958124,3.5290353,9.1434097,0.6259542,-1.2519084,0.9694657,-8.2384062,-5.4946647,4.3310885,65.0687027,1.0000000,250.1297760
3660,1.3718705,3.6032550,9.0811605,0.1221374,-0.7251908,0.0305344,-6.5888095,-5.4060798,4.1778607,67.5267181,9.7557249,250.1297760
3670,1.3742647,3.7684543,9.0955257,-0.9312977,0.3816794,-0.1221374,-4.8362627,-5.4994531,3.6367738,70.0076370,15.8854961,250.1297760
3680,1.3000449,3.8474624,9.1697454,-1.7404580,1.7786260,-0.8702290,-3.2632802,-5.4779053,3.1315999,71.5190811,17.9770985,250.1297760
3690,1.1994889,3.8737986,9.1410151,-2.0687022,3.1145039,-1.6946565,-1.8483143,-5.6670465,2.5138988,70.2519073,18.2824421,250.1297760
3700,0.9433106,3.8618276,9.1362267,-1.6641221,3.9007633,-1.3664122,-1.0582317,-5.6143742,1.6136837,67.3740463,13.6412210,250.1297760
3710,0.8212070,3.8259149,9.1290445,-1.2137405,3.4427481,-0.7251908,-0.5865764,-5.3988972,0.8714849,61.2213745,-7.2977099,250.1297760
3720,0.7924767,3.8043671,9.1458035,-0.4885496,2.8702290,-0.0534351,1.2569494,-5.8585815,-0.3519458,49.2671738,-31.9083977,250.1297760
3730,0.7398046,3.8067613,9.0883436,-0.1755725,1.4427481,0.2824427,4.6064205,-6.4499464,-0.9241571,30.7786255,-41.5190849,250.1297760
3740,0.7014975,3.6990228,9.0572186,-0.3053435,-0.5801527,0.7633588,8.9399033,-6.3709383,-0.0933734,13.4351149,-30.9160309,250.1297760
3750,0.7972651,3.6535332,9.1170731,0.0152672,-3.0152671,1.0687023,13.8096848,-5.5664907,1.5538290,6.2061067,-1.3893130,250.1297760
3760,0.9289455,3.4811516,9.1553802,-0.0076336,-4.6106873,1.2442749,17.9492378,-4.4603748,2.5115047,13.4732828,46.2824440,250.1297760
3770,1.0630201,3.3973548,9.2439651,-0.0687023,-5.6412215,1.4351145,19.6126022,-3.6295912,2.7102225,28.2213745,104.2671738,250.1297760
3780,1.0845678,3.3279233,9.3564920,0.2137405,-6.0305343,1.8244275,19.6126022,-2.7030399,2.1356170,41.0228996,152.9313049,204.0839691
3790,1.2952565,3.2273674,9.4283180,0.8473282,-5.7938933,2.9007633,19.6126022,-1.4580613,1.0534433,42.4656487,174.7786255,138.6412201
3800,1.6831152,3.3327117,9.4283180,2.1450381,-3.6030533,3.1984732,19.6126022,-0.9983770,0.2370248,8.0610685,126.7328262,20.4198475
3810,1.7884595,3.5625539,9.2726955,1.9694656,-1.4885496,2.8931298,19.6126022,-1.2713146,0.9265513,-11.8473282,74.8244247,-41.3053436
3820,1.9057748,3.6367738,9.0332766,1.1450381,1.2519084,1.5190840,19.5485573,-1.5490406,1.6208663,-23.5648861,27.8015270,-101.4732819
3830,1.7740943,3.7085996,8.8752604,-1.1374046,3.9083970,-0.3511450,18.1264076,-1.7645177,2.0398495,-28.5343513,-7.5801525,-153.4122162
3840,1.5107336,3.7708483,8.7914639,-3.2824428,5.6564884,-1.9312977,16.6707420,-1.9704180,2.5210814,-30.5877857,-32.0992355,-196.8702240
3850,1.3072275,3.8642218,8.8585014,-5.1297708,6.6793895,-2.7328243,15.4927998,-2.0590029,2.8131726,-29.8015270,-46.5877876,-233.9389343
3860,1.1420283,3.8426740,8.9638453,-6.3969464,6.7099237,-3.4198472,14.4465389,-2.3630650,3.0047078,-25.4503822,-50.6335869,-250.1374054
3870,0.8044477,3.8378856,9.0811605,-7.0076337,6.9770994,-3.2442749,13.4649220,-2.6695213,2.4899571,-17.6946564,-44.8167953,-250.1374054
3880,0.6560079,3.7947903,9.2272062,-6.5038166,6.7022901,-2.6030533,12.4928808,-2.9735832,1.5538290,-10.2748089,-28.4274807,-250.1374054
3890,0.4788379,3.7493007,9.3708572,-5.0839696,5.9083967,-1.0458015,11.4274664,-3.9025288,0.1005560,-7.8625956,-10.7251911,-250.1374054
3900,0.3208214,3.6774750,9.3373384,-3.2290077,4.4274807,0.8625954,11.2838144,-4.6902170,-1.1420283,-10.1221371,9.9847326,-250.1374054
3910,0.2825144,3.6559272,9.5025377,-1.2137405,1.8396946,3.1068702,10.1441803,-5.8897061,-1.7693061,-13.9312973,23.5877857,-250.1374054
3920,0.3854645,3.5601597,9.3133974,0.3511450,-1.1984733,4.9770994,8.9686337,-7.0652533,-2.2649033,-21.4045811,25.2977104,-250.1374054
3930,0.6679789,3.5266411,9.2942438,1.5801526,-4.2213740,6.4122138,7.5584559,-8.2647419,-2.4324965,-34.5572510,16.6793900,-250.1374054
3940,0.9265513,3.5266411,9.1769285,2.0839694,-6.7557254,6.6564884,5.6215568,-9.8568783,-1.7645177,-52.0534363,-4.5954199,-250.1374054
3950,1.1707586,3.5290353,9.1314383,1.7862595,-7.7175574,6.0076337,2.3319404,-11.5543585,-0.6320660,-67.9618301,-33.3740463,-250.1374054
3960,1.4029950,3.5864959,9.0189114,1.4427481,-7.4198475,5.2748094,-1.6567791,-13.1393118,0.9504932,-82.5114517,-72.0916061,-250.1374054
3970,1.5227045,3.5481887,9.0835552,0.6335878,-6.4122138,3.8854961,-6.3876977,-15.1743727,2.4372849,-97.9083939,-125.1297684,-250.1374054
3980,1.5969244,3.5290353,9.3445215,0.7251908,-6.1374044,3.0000000,-11.9398232,-17.5613804,4.2999644,-118.9465637,-177.0686951,-250.1374054
3990,1.7908537,3.5912843,9.3421268,0.8015267,-4.4961834,1.5648855,-19.6131992,-19.2277355,7.0652533,-148.4122162,-224.6488495,-250.1374054
4000,1.8195840,3.5505829,9.3253679,0.7099237,-2.2671757,0.6183206,-19.6131992,-18.0090923,11.6261835,-181.3740387,-250.1374054,-250.1374054
4010,1.6663558,3.5218527,9.3181858,0.7404580,-0.3206107,-0.2977099,-19.6131992,-11.5495701,17.3961811,-200.0839691,-243.4885559,-250.1374054
4020,1.6256547,3.5218527,9.1577749,0.4122137,1.2595420,-1.0229008,-19.6131992,-7.1538382,19.6126022,-173.7404633,-175.7862549,-250.1374054
4030,1.5442522,3.5529771,9.1577749,-0.0916031,2.7557251,-1.9923664,-19.6131992,-5.8490047,19.6126022,-95.3740463,-43.9160309,-160.5114441
4040,1.4053892,3.5697365,9.0859489,-0.6641222,4.1221375,-3.0152671,-19.6131992,-4.4555864,19.6126022,-2.7480917,120.4732819,-11.7480917
4050,1.2952565,3.5912843,9.1553802,-1.0839695,4.5648856,-3.3893130,-19.6131992,-3.3446827,16.8790359,56.3282433,250.1297760,87.9770966
4060,1.1994889,3.6511390,9.2080526,-1.1145039,4.4351144,-3.6335878,-19.6131992,-2.5641768,13.2518387,74.8015289,250.1297760,134.8473358
4070,1.0749911,3.6583214,9.1577749,-0.7251908,3.8396947,-3.8091602,-17.6715126,-1.4676381,11.3915539,71.5267181,250.1297760,130.1603088
4080,0.9864060,3.6678982,9.2056589,-0.2213740,2.6641221,-3.6946564,-13.4361916,-0.8331779,10.1920643,59.4045792,193.2900696,90.6183243
4090,1.0127422,3.7564833,9.0141230,0.8702290,-1.5572519,-0.9389313,-9.7012558,2.1619530,6.5385313,59.1908379,-111.4274826,-73.9923630
4100,1.1252691,3.7157819,9.1170731,1.2595420,-1.9541985,0.0000000,-10.0364418,2.8107784,5.2073622,68.1374054,-103.9083939,-72.8244247
4110,0.9983770,3.6128318,9.1601686,1.0534351,-2.7557251,-2.1450381,-9.9933472,2.9855542,3.7014170,72.8244247,-87.1221390,-63.3282433
4120,1.2330076,3.6200144,8.9518747,-0.0534351,-2.5190840,1.5496184,-9.5384512,2.9879484,1.3814473,64.3816757,-58.3511467,-40.0000000
4130,1.5155219,3.6607156,9.1697454,-1.2900764,2.0916030,-3.0229008,-8.5664101,2.8083842,0.0335187,35.3893127,-47.3206100,-19.9312973
4140,1.0893562,3.6511390,9.2056589,-0.9236641,1.1450381,-2.7328243,-8.1809454,2.5306582,-0.2154770,14.9083967,-36.8702278,-10.5572519
4150,0.9337339,3.6367738,9.1458035,-1.4427481,0.3587786,1.1374046,-7.9271612,2.1595588,0.2873027,-7.5038166,-23.9847336,-1.2366412
4160,1.2090657,3.5673423,9.2559366,-2.0305343,1.3816794,1.2519084,-7.6374645,1.6376256,1.0630201,-24.9312973,-8.4961834,3.7251909
4170,1.1563935,3.6463506,9.3349447,-0.5496183,2.1068702,-0.7404580,-7.7739329,1.2162483,2.1739240,-37.2290077,4.6793895,7.1374044
4180,0.8666966,3.6128318,9.1745338,-0.4351145,0.5038168,0.2366412,-7.8768835,0.7972651,3.0430148,-46.3664131,14.5267172,8.0076332
4190,0.8762733,3.5793133,9.1434097,-0.9389313,0.6870229,2.6870229,-8.1234846,0.3208214,4.2065907,-50.9160309,20.2519093,5.9465647
4200,0.9816177,3.4859397,9.1888990,-0.8931298,0.4045801,3.4961832,-8.5831690,-0.0143651,5.5784616,-52.1450386,21.4274807,2.9847329
4210,1.1947005,3.7397239,9.2918491,-0.8320611,-0.1526718,2.6641221,-8.4419117,-0.1173153,7.4818420,3.0229008,-24.9923668,-14.8549614
4220,1.1372399,3.4189026,9.2439651,2.1145039,-6.8625956,2.5725191,-8.1139078,0.6272776,5.7676024,-9.5343513,-12.8625956,3.2671757
4230,1.3407460,3.4404502,9.2679071,1.8473282,-5.6717558,2.6946564,-7.6877422,0.5362985,6.0094156,-6.6564884,-7.8778625,1.6183206
4240,1.5227045,3.4117200,9.3373384,1.7786260,-4.7099237,2.1832061,-7.5823979,0.4429250,6.2464404,-2.9694657,-3.7786260,-2.0381680
4250,1.6567791,3.4236910,9.3588867,2.2290077,-3.5343511,1.2137405,-7.7906923,0.4788379,6.1578555,0.8931298,-0.3358779,-4.2671757
4260,1.7956421,3.4691806,9.2894554,2.2595420,-1.8778626,0.3893130,-8.1713686,0.4285599,6.0261750,4.7022901,-0.2519084,-7.0687022
4270,1.8052188,3.5888901,9.1458035,2.1526718,-0.4351145,-0.7404580,-8.4945841,0.5027798,5.8298512,7.2748094,-1.6564885,-7.8167939
4280,1.8578910,3.6200144,9.0165176,1.4351145,0.7862595,-1.9083970,-8.8010406,0.5315101,5.5808558,8.5190840,-3.1297710,-8.3435116
4290,1.8315549,3.7181761,8.8776541,0.0229008,3.2137403,-3.2061069,-9.0907373,0.5386927,5.4826937,8.6030531,-3.4885497,-7.3969464
4300,1.5921360,3.7325413,8.8345594,-2.0000000,5.6870227,-4.5038166,-9.1458035,0.6320660,5.0804701,7.9236641,-2.6335878,-5.5877862
4310,1.4628497,3.8067613,8.8537130,-3.9236641,7.2290077,-5.9312978,-9.2367830,0.7014975,4.9320302,6.8854961,-0.2900763,-3.2213740
4320,1.1324517,3.8163381,8.8848372,-5.1297708,7.8167939,-6.4198475,-9.0763721,0.7469871,4.8123207,4.2748094,1.1984733,-0.4045801
4330,0.9792235,3.7900019,9.0620070,-5.4580154,7.2748094,-6.5877862,-9.0141230,0.7374104,4.8985114,1.0610687,0.9770992,1.7328244
4340,0.8116302,3.7516949,9.2296000,-5.4961834,6.7251906,-6.1984735,-8.5999289,0.7014975,5.0469513,-2.1450381,-0.5572519,3.0229008
4350,0.5746055,3.7516949,9.2894554,-4.2671757,5.2977099,-5.1297708,-8.3772688,0.6871324,5.3318601,-3.4656489,-1.4885496,2.8091602
4360,0.4357425,3.6966286,9.3517036,-3.2824428,3.8091602,-4.0152674,-8.0684185,0.7493813,5.6191626,-2.9694657,-0.3282443,1.1450381
4370,0.3064562,3.7014170,9.3612804,-1.3969465,1.9236641,-2.2366412,-7.9918046,0.7445929,5.7580256,-0.3358779,-0.0687023,-0.2900763
4380,0.2873027,3.6056492,9.2559366,-0.5114504,-0.2061069,-0.1374046,-8.0157461,0.8188128,5.8681583,2.6488550,-0.6335878,-3.0534351
4390,0.4405309,3.5218527,9.2104464,0.7175573,-2.7786260,1.8702290,-8.0779953,0.7996593,5.7484488,5.6259542,-0.5954198,-4.6641221
4400,0.6464311,3.5960727,9.2822723,1.8244275,-4.9541984,3.5648854,-8.0851774,0.7254394,5.5353661,6.9465647,1.6793894,-6.4274807
4410,0.8571198,3.5984666,9.2008705,2.4351146,-6.5954199,4.5190840,-8.4419117,0.7374104,5.4300218,7.3511453,3.5801528,-7.7938933
4420,1.0462608,3.6104376,9.2846670,2.7175572,-7.0229006,4.7709923,-9.0117292,0.8595140,5.3605900,7.3969464,4.0152674,-7.2061067
4430,1.3024391,3.6176202,9.1721401,2.3206108,-5.8854961,4.3206105,-9.4426832,0.9026094,5.2456689,6.6564884,3.8931298,-5.9923663
4440,1.4939742,3.6631098,9.1769285,1.5267175,-5.1221375,3.4580152,-9.7108326,0.7996593,5.1403246,5.1755724,4.1832061,-2.1603053
4450,1.6160779,3.6008608,9.0763721,0.7022901,-3.8854961,2.6870229,-9.7611103,0.7038917,5.2887645,3.2824428,5.0992365,0.8931298
4460,1.6088953,3.7421181,9.0572186,-0.4503817,-2.4503818,1.7022901,-9.8401184,0.7733232,5.4491754,1.9694656,5.7328243,4.0610685
4470,1.6208663,3.6559272,9.0572186,-1.0916030,-0.8625954,0.5496183,-9.9358864,0.6991033,5.6383162,1.6793894,6.5877862,5.0839696
4480,1.6448082,3.6343796,9.0476418,-1.7480916,0.6030535,-0.7404580,-10.1393919,0.6177009,5.9950504,2.5496182,6.2977099,5.8473282
4490,1.5466464,3.6678982,9.1721401,-2.1297710,1.5648855,-1.8625954,-10.3716288,0.6081241,6.1985564,3.8167939,3.4351146,4.3969464
4500,1.3551112,3.6870518,9.1074963,-2.2748091,2.9389312,-2.3816793,-11.0084829,0.6057299,6.1722202,5.8015265,-2.7633588,2.6412213
4510,1.1851238,3.6104376,9.2176294,-2.5190840,3.6259542,-2.7404580,-11.7123747,0.6751614,6.4164276,7.0763359,-10.8091602,1.7557251
4520,1.0606259,3.5721307,9.1434097,-2.7022901,4.1145039,-2.4961832,-12.5240049,0.7421987,6.5840211,8.0458012,-21.6106873,3.0687022
4530,0.8930327,3.6319854,9.1577749,-2.7480917,3.6564887,-2.1297710,-13.2039547,0.6248835,6.7013364,7.8931298,-32.4961815,6.0381680
4540,0.8762733,3.6511390,9.2367830,-1.3740458,-0.1984733,-0.7786260,-15.5023766,0.2059003,6.9670911,5.3893127,-37.3435097,29.9083977
4550,0.9289455,3.6583214,9.3133974,-0.8015267,-1.0763359,-0.1679389,-17.0921192,-0.0574605,7.2639709,3.3358779,-27.3893127,48.0152664
4560,0.9720409,3.6319854,9.3397331,-0.2442748,-1.2977099,-0.0381679,-18.7010136,-0.2801202,7.3860745,-0.9465649,-18.3511448,70.7175598
4570,1.0582317,3.6607156,9.2726955,0.1603053,-1.5572519,0.1374046,-19.6131992,-0.4548960,7.8553357,-5.9465647,-13.9236641,99.4580154
4580,1.1587877,3.6319854,9.2248116,0.3358779,-1.7175573,0.0458015,-19.6131992,-0.8834559,8.6166878,-11.1832066,-11.2671757,128.9160309
4590,1.1827296,3.7109938,9.2655134,0.2977099,-1.2977099,-0.2290076,-19.6131992,-1.1348459,9.3110027,-14.5190840,-12.2213745,160.2671814
4600,1.2904681,3.7133877,9.1290445,0.2824427,-1.3893130,-0.9923664,-19.5317974,-1.5370697,10.3764172,-11.7251911,-16.7709923,187.7633514
4610,1.2784972,3.6966286,9.1458035,-0.0076336,-1.0687023,-1.7786260,-18.3730106,-1.5753766,11.1449518,-1.3511450,-22.1679382,210.3358765
4620,1.2856797,3.6726866,9.0859489,-0.8091603,-1.0687023,-2.5267177,-17.2573185,-1.7956421,11.2670555,17.3816795,-26.1450386,230.0458069
4630,1.2784972,3.6367738,9.2200232,-1.3053435,-0.8167939,-3.2900763,-16.1751442,-2.0661855,10.8001890,38.5725174,-26.3206100,249.4503784
4640,1.2617378,3.6439564,9.1481981,-1.5801526,-0.4274809,-3.6183207,-15.3204184,-2.1236460,10.0771437,58.3740463,-21.2442741,250.1297760
4650,1.1803354,3.5457945,9.2391768,-1.5572519,0.1832061,-3.6717558,-14.8894644,-2.0566087,9.2798786,75.4427490,-14.3435116,250.1297760
4660,1.1061156,3.6391680,9.1817169,-1.7022901,-0.0610687,-3.5343511,-14.0874109,-2.0159075,8.2719250,87.6412201,-12.2824430,250.1297760
4670,1.0199248,3.6008608,9.1912937,-1.3740458,0.2137405,-3.2595420,-12.8424320,-2.5019281,7.2711535,97.9083939,-12.2061071,250.1297760
4680,0.9624642,3.6631098,9.2798786,-0.7709923,0.2137405,-2.9312978,-11.0611553,-2.9448531,6.3733325,104.7328262,-12.8549614,250.1297760
4690,0.9361281,3.5697365,9.1793222,-0.8015267,-0.2595420,-2.0916030,-8.5688038,-3.3518653,5.4156566,109.9847336,-11.7251911,250.1297760
4700,0.8786675,3.6152260,9.1793222,-0.8396947,-0.6793893,-1.4961832,-5.9663200,-3.7588775,4.5154414,113.1145020,-2.9007633,250.1297760
4710,0.8475431,3.6056492,9.1362267,-0.5038168,-0.8854962,-1.0305344,-3.7038112,-3.8498566,3.6750808,112.4503784,18.4580154,250.1297760
4720,0.9624642,3.7229645,9.1242561,-0.3893130,-1.5267175,-0.6106870,-2.0159075,-3.8522508,3.5266411,108.6717529,43.5419846,250.1297760
4730,0.9193687,3.6607156,9.1553802,-1.0305344,-1.5801526,-0.0152672,-0.5865764,-3.8546450,3.6152260,106.8015289,65.1908417,250.1297760
4740,1.0127422,3.6583214,9.1410151,-1.0458015,-1.9618320,0.5954198,0.9337339,-3.9623835,3.8977404,107.1908417,83.1450348,250.1297760
4750,1.0893562,3.6750808,9.2224178,-0.5725191,-2.0534351,0.5496183,2.4612267,-4.0366035,4.3239059,111.5419846,98.0763321,250.1297760
4760,1.1324517,3.6726866,9.2032642,-0.8396947,-2.0610688,0.7328244,3.4476328,-3.8618276,4.3741841,118.8015289,106.4351120,250.1297760
4770,1.1396341,3.5960727,9.1745338,-0.7709923,-1.5572519,0.7404580,4.4484038,-3.7349355,3.7684543,124.1450348,109.4809189,250.1297760
4780,1.1539993,3.6774750,9.2032642,-1.0152671,-0.8549618,0.7633588,5.0732875,-3.8211265,3.4476328,125.3358765,109.3893127,250.1297760
4790,1.1563935,3.5841017,9.1912937,-0.8015267,-0.3816794,0.7480916,5.7699966,-4.0389977,3.6224086,127.1068726,93.4961853,250.1297760
4800,1.1109039,3.6319854,9.2296000,-0.8778626,-0.5038168,0.8778626,7.1346846,-4.4005203,3.4811516,131.7099304,63.9694672,250.1297760
4810,1.1013272,3.6104376,9.1290445,-1.1832061,-0.5954198,0.6793893,9.6653433,-4.6088147,2.5713594,136.7251892,36.3893127,250.1297760
4820,1.1204807,3.6559272,9.2008705,-1.1068702,-1.0687023,0.9694657,12.1169930,-4.1132174,1.4389079,138.4122162,21.2519093,250.1297760
4830,1.1228749,3.6224086,9.2391768,-1.0687023,-0.9236641,1.1374046,14.5854025,-3.2991931,0.1244979,135.8015289,14.7709923,250.1297760
4840,1.0965388,3.5936785,9.2367830,-0.9618320,-0.3282443,0.6641222,17.1687317,-2.1212518,-0.8690908,126.2290039,11.1603050,245.5648804
4850,1.1156923,3.5793133,9.2583303,-0.5114504,0.1832061,1.0305344,19.6126022,-0.7398046,-2.0781565,109.0763321,8.8778629,189.8473358
4860,1.1228749,3.6942344,9.2080526,-0.1526718,0.0152672,1.4122137,19.6126022,0.5434810,-3.1004753,84.9542007,5.3435116,124.0763321
4870,1.0749911,3.7349355,9.1745338,0.2442748,0.1679389,1.4885496,19.6126022,1.6184721,-3.3087699,56.5419846,-1.1374046,51.3511467
4880,1.1755470,3.7756367,9.1410151,0.5038168,-0.2366412,1.4656489,19.6126022,2.2050486,-3.5960727,26.4351139,-13.3511448,-35.2977104
4890,1.1300575,3.7205703,9.0308828,0.0763359,-0.6717557,1.2671756,19.6126022,2.0470319,-3.8211265,-4.6870227,-27.5419846,-129.8320618
4900,1.1300575,3.6966286,9.0213060,-0.3969466,-0.8244275,0.9312977,19.6126022,1.2138541,-3.5601597,-35.9007645,-43.9618340,-223.9160309
4910,1.1587877,3.6726866,9.1434097,-1.0076336,-0.4274809,0.2977099,19.6126022,-0.0478838,-3.0789278,-65.4885483,-63.7175560,-250.1374054
4920,1.2377959,3.6702924,9.1865053,-0.9389313,-0.1679389,0.0152672,19.6126022,-2.0685797,-2.8706331,-94.1145020,-80.0076370,-250.1374054
4930,1.1228749,3.6295912,9.2870607,-0.6641222,0.3511450,-0.0992366,19.6126022,-4.7668314,-2.8419030,-122.5877838,-80.6183243,-250.1374054
4940,1.2234308,3.6319854,9.3110027,0.1297710,0.3740458,-0.1297710,18.3323078,-7.6757712,-2.4205256,-152.0915985,-74.3740463,-250.1374054
4950,1.1228749,3.5314295,9.2942438,1.0381680,0.0534351,0.0000000,15.1743727,-11.3724003,-0.9145803,-180.2519073,-79.4885483,-250.1374054
4960,1.1061156,3.5673423,9.3157911,1.6793894,-0.4656489,-0.1374046,12.1289635,-15.1743727,0.2537841,-202.2366486,-81.4503784,-250.1374054
4970,1.1276633,3.6152260,9.2463598,1.6564885,-0.8625954,-0.1755725,7.4986014,-18.6866493,1.4580613,-215.0305328,-72.3664093,-250.1374054
4980,1.0725969,3.6463506,9.1577749,1.5877863,-0.8549618,-0.3511450,1.5179161,-19.6131992,2.3630650,-215.2061005,-54.7709923,-250.1374054
4990,1.1635761,3.6990228,9.1553802,1.4198474,-0.5114504,-0.0610687,-8.1546097,-19.6131992,3.4260850,-203.1145020,-70.9618301,-250.1374054
5000,1.1827296,3.7828193,9.1314383,0.9083970,-0.1450382,-0.3358779,-19.6131992,-19.6131992,4.3861551,-194.6335907,-146.8625946,-250.1374054
5010,1.1587877,3.7708483,9.1338329,0.7175573,0.7099237,-0.9007633,-19.6131992,-19.6131992,5.2743993,-211.6717529,-233.5114441,-250.1374054
5020,1.1994889,3.7229645,9.1601686,0.1526718,0.9541985,-1.1908396,-19.6131992,-12.4521790,8.0899658,-250.1374054,-240.4045868,-250.1374054
5030,1.0438666,3.6846576,9.1673517,0.3511450,1.0992366,-0.7709923,-16.2828827,-1.9129574,13.2853575,114.5725174,250.1297760,169.4732819
5040,1.0486550,3.7157819,9.1769285,0.7175573,0.7480916,-0.2900763,-12.5694942,0.1436514,9.9382801,111.1374054,250.1297760,145.7862549
5050,0.9840119,3.6200144,9.2487535,0.9083970,0.1221374,0.1068702,-10.8720140,1.3982066,8.2695303,92.5038147,250.1297760,98.1755753
5060,1.0247130,3.6990228,9.1218615,1.1984733,-0.3435115,0.7709923,-9.6078825,2.9831600,5.8825235,46.2442741,31.2671757,3.1068702
5070,1.1156923,3.6942344,9.1218615,0.9083970,0.2061069,0.6641222,-7.2472115,2.4588325,5.8202744,50.1755714,-42.0228996,-53.5267181
5080,1.1109039,3.7014170,9.2008705,0.4732825,0.3435115,0.8167939,-7.4076223,2.4875629,4.7141590,63.1832047,-30.8015270,-54.9618340
5090,1.0007712,3.7660601,9.1721401,0.4274809,0.7557252,0.9007633,-7.5416965,2.6120608,3.5577655,68.7786255,-23.0916023,-55.5267181
5100,1.0199248,3.6846576,9.0763721,0.0610687,0.4198473,0.8473282,-7.9606800,2.6431851,2.5857246,66.5648880,-18.2900772,-54.7022896
5110,1.1348459,3.7516949,9.0380650,0.8778626,0.3435115,0.4885496,-8.6597834,2.7988074,1.9919657,58.5114517,-19.0458012,-52.7099228
5120,0.9983770,3.7157819,9.1242561,-0.7709923,3.0610688,1.8702290,-10.0268650,2.6647329,1.5777708,32.5954208,-29.8015270,-44.5877876
5130,0.9720409,3.7516949,9.0452480,-0.0992366,1.3206106,1.6717557,-10.6517487,2.5569944,1.8459201,17.7404575,-31.2366409,-40.5038185
5140,1.1300575,3.7612717,9.0213060,-0.4274809,-1.2137405,2.6488550,-13.3356352,1.9033806,4.4292507,-10.5572519,9.5572519,-13.1450386
5150,1.2234308,3.7636659,9.0117292,-1.3435115,-0.9083970,2.2213740,-14.7649660,1.9273225,5.6718349,-10.8702288,18.8167934,-5.1603055
5160,1.2066715,3.6463506,8.9063845,-2.1908398,-0.5496183,1.7328244,-16.4887829,2.1020982,6.7013364,-6.2824426,13.2442751,1.8167939
5170,1.1611819,3.6295912,8.9375095,-3.2748091,-0.6793893,1.4809160,-18.2844257,2.3295465,7.5512733,2.0000000,-2.7709923,12.2137403
5180,1.2425843,3.6343796,9.1266499,-4.0534353,-0.6183206,1.5877863,-19.6131992,2.2792683,7.9223728,12.9007635,-23.1526718,26.2519093
5190,1.1875180,3.6248028,9.1529865,-5.0381680,-0.2748092,1.8473282,-19.6131992,2.5067163,7.9846220,25.0839691,-40.9618340,44.0152664
5200,0.9744351,3.7876077,9.4977493,-1.4351145,0.4732825,2.1679389,-19.6131992,3.0597742,6.5648675,68.6106873,-69.4503784,176.4045868
5210,0.9959828,3.7876077,9.4570484,-0.0305344,0.7404580,2.3435113,-19.6131992,2.3175755,5.4443870,69.9618301,-45.3358765,225.8091583
5220,0.9672526,3.8785870,9.2655134,1.3664122,2.0000000,2.4961832,-19.6131992,1.4006008,4.6614871,67.0687027,-6.0152674,250.1297760
5230,0.9241571,3.9719603,9.2224178,2.2366412,2.9236641,2.5725191,-18.7824154,0.7637464,4.3454537,60.3129768,38.8396950,250.1297760
5240,0.8810617,3.8833754,9.0428534,2.1450381,3.2213740,3.0458016,-16.7665081,0.3471575,4.3646073,52.4809151,73.4274826,250.1297760
5250,1.1085097,3.5721307,9.0236998,-0.4656489,-4.4580154,0.8931298,-8.3222027,-2.1212518,4.4675574,30.4961834,83.5877838,250.1297760
5260,1.1755470,3.5457945,9.1793222,-0.6488550,-5.5343513,0.6870229,-5.7723908,-2.6072724,4.4579806,26.2977104,68.0916061,250.1297760
5270,1.2545552,3.6008608,9.3612804,-0.3816794,-5.6183205,0.4732825,-3.5362179,-2.7197993,4.2999644,24.4961834,54.1603050,250.1297760
5280,1.3766589,3.5984666,9.4019823,2.0458016,-1.9007634,0.7480916,0.9600700,-3.0382264,3.3063757,23.2213745,35.7709923,250.1297760
5290,1.3886299,3.6918402,9.0644016,2.0076337,-0.5038168,0.0992366,2.6024840,-3.0813217,3.0861101,21.3816795,33.3664131,250.1297760
5300,1.4748207,3.7876077,8.9159613,1.2290076,0.3053435,-0.7786260,4.2233500,-3.0813217,3.0262554,19.2900772,29.3740463,250.1297760
5310,1.3168042,3.8115497,8.8728657,-2.3435113,0.9465649,-2.9694657,7.6278877,-2.8155668,2.8610563,17.0229015,4.1297708,250.1297760
5320,1.2641320,3.7612717,8.9446917,-3.1832061,1.4503816,-3.5114503,10.1298151,-2.9448531,2.7365584,14.4885492,-27.4732819,250.1297760
5330,1.1827296,3.6822634,9.1721401,-3.5038168,1.9007634,-3.8625953,13.8240499,-2.8012016,2.0278785,9.7175570,-66.7557220,250.1297760
5340,1.0749911,3.6367738,9.3110027,-3.2213740,1.9770992,-3.1984732,18.1120434,-2.4660151,1.5346755,2.9389312,-94.5114517,200.4809113
5350,0.9648584,3.6032550,9.3014259,-2.5343511,1.8702290,-2.2442749,19.6126022,-1.9991482,1.7022687,0.4580153,-98.6870193,138.0763397
5360,0.9768293,3.6894460,8.9351149,-1.6717557,-0.7862595,2.8854961,19.6126022,-2.0326669,-2.6982515,53.4885483,228.6870270,-171.1908417
5370,1.1324517,3.7540891,8.9877872,-2.5572519,-0.8854962,2.7862597,19.6126022,-1.4006008,-2.3941894,39.0381660,234.2061005,-241.6870270
5380,1.1132981,3.7923961,8.9686337,-3.5190840,-0.5801527,2.1297710,18.1695042,-4.8410511,-1.2569494,26.1145039,201.4656525,-250.1374054
5390,1.1276633,3.7229645,9.0476418,-4.3129773,-0.4198473,1.9770992,16.5414543,-6.3876977,-0.0766141,16.8854961,110.1755753,-250.1374054
5400,1.1516051,3.8211265,9.1194677,-4.3206105,-0.3511450,1.8167939,16.1440201,-6.4403696,0.3998296,0.9541985,15.9160309,-250.1374054
5410,1.1085097,3.8211265,9.1769285,-4.4122138,0.0152672,1.6030535,14.3411951,-8.2455883,1.4197544,-14.2900763,-46.6335869,-250.1374054
5420,1.0510491,3.8235207,9.3014259,-3.6641221,0.4809160,1.7633588,12.0834742,-10.1154509,3.1770895,-18.7938938,-83.0687027,-250.1374054
5430,1.0175306,3.6559272,9.2846670,-3.1450381,1.0839695,1.9007634,9.8209648,-12.0595322,4.3813667,-12.7022905,-87.3206100,-250.1374054
5440,1.0318956,3.6942344,9.2870607,-2.4656489,0.8091603,1.8931298,5.7053533,-14.8679161,5.1331420,6.5114503,-76.2900772,-250.1374054
5450,0.9289455,3.6391680,9.3086090,-1.5038168,-0.3816794,3.4580152,-1.8363433,-18.7776279,4.7381010,31.9312973,-80.7862625,-250.1374054
5460,1.0295014,3.6631098,9.1146793,-1.5801526,-1.2366412,2.9160306,-11.1952295,-19.6131992,3.3734128,48.1526718,-111.8854980,-250.1374054
5470,1.1228749,3.6463506,9.2319946,-1.2748091,-1.2824427,1.8396946,-19.6131992,-19.6131992,1.6328372,41.9083977,-178.2366486,-250.1374054
5480,0.9864060,3.6343796,9.3229742,-0.5190840,-2.7938931,2.5648854,-19.6131992,-17.3506908,1.1109039,-2.7328243,-245.0610657,-250.1374054
5490,1.2066715,3.5577655,9.2296000,-0.1526718,-4.4427481,2.9847329,-19.6131992,-8.6861191,2.8730273,-74.1374054,-250.1374054,-250.1374054
5500,1.3144100,3.6224086,9.4307127,0.8091603,-4.0610685,2.4732823,-19.6131992,-1.0151364,7.0508881,-134.8931274,-250.1374054,-250.1374054
5510,1.3790531,3.6583214,9.3588867,1.6946565,-3.9923663,1.0458015,-19.6131992,-1.6711442,11.8823624,-148.9923706,-192.3358765,-178.0381622
5520,1.3622938,3.7612717,9.1673517,1.9312977,-3.7328243,0.9923664,-19.6131992,-2.3917952,13.9054527,-113.6488571,-44.9618340,-34.2900772
5530,1.3551112,3.6702924,9.0883436,1.3358779,-3.0381680,0.5267175,-19.6131992,-2.2553265,13.5319586,-55.9312973,111.8625946,34.0076332
5540,1.3910241,3.7157819,9.0045462,0.5648855,-1.8778626,-0.2671756,-19.6131992,-1.5562232,12.2414904,-9.0000000,223.1603088,56.2213745
5550,1.2449785,3.7995787,8.9973640,-0.3740458,-0.2900763,-0.8625954,-18.0713425,-0.4501076,11.0300312,19.6183205,247.2442780,49.1068687
5560,1.2090657,3.8546450,8.9303265,-1.5419847,0.8625954,-0.4045801,-16.5079365,0.4860204,9.7563219,35.7862587,196.3206177,23.6793900
5570,1.2497669,3.5960727,9.1051025,-1.7709924,0.6641222,-0.7328244,-15.7920732,1.0558375,8.3150196,43.3587799,105.3740463,-5.0992365
5580,1.1563935,3.7062054,9.2487535,-1.8015267,0.8702290,-0.7938932,-14.9612904,1.4221486,6.7228842,43.6564903,22.1297703,-26.1297703
5590,1.0582317,3.6415622,9.3349447,-1.4809160,0.8854962,-0.1603053,-14.6620159,1.7621235,5.2696109,40.1603050,-39.4427490,-39.1526718
5600,1.1420283,3.4979107,9.2511482,-1.3435115,-0.5038168,0.3511450,-15.9046001,2.4133430,3.9240766,28.6870232,-85.7328262,-45.3053436
5610,1.0845678,3.6343796,9.3014259,-0.6412213,0.1603053,0.4503817,-17.1040897,2.9400647,3.9719603,23.5572510,-93.4732819,-26.5190830
5620,1.0845678,3.5984666,9.2631187,-0.5725191,0.1374046,0.7709923,-14.7841196,2.7916248,3.4979107,20.7404575,-102.6488571,-1.7404580
5630,1.1587877,3.6367738,9.1673517,-0.5267175,-0.2290076,0.8549618,-11.7746239,2.5258698,3.0669568,18.1603050,-104.5648880,11.1145039
5640,1.1061156,3.7732425,9.0213060,-0.1221374,-0.6030535,0.8702290,-7.6063399,1.9847831,2.5737536,8.4961834,-95.5877838,12.1984730
5650,1.1252691,3.8091555,9.1074963,-0.0916031,-0.7786260,0.9923664,-6.4499464,1.6304430,2.6288199,2.4885497,-85.0000000,6.3816795
5660,1.3239868,3.5266411,9.3493099,-0.8931298,-0.6641222,0.8320611,-8.8058290,0.9361281,4.6447277,-26.0458012,-52.3435097,-9.6564884
5670,1.3311694,3.5936785,9.3995876,-0.2442748,-0.5038168,0.4427481,-8.8513184,0.7805058,5.0517397,-27.9236641,-60.9923668,-9.2213745
5680,1.2761030,3.6990228,9.2631187,1.2290076,-0.5190840,-0.0763359,-8.6430235,0.8236012,5.7101417,-26.2290077,-62.5190849,-7.5954199
5690,1.2617378,3.7493007,9.1625633,1.4198474,-0.5496183,-0.2671756,-8.6789370,0.8643024,5.9926562,-22.7404575,-59.1679382,-5.7862597
5700,1.2521610,3.7469065,9.0404596,1.4198474,-0.3969466,-1.0152671,-8.6597834,0.9002152,6.1027889,-17.8625946,-55.4580154,-5.6106873
5710,1.1970947,3.7708483,9.0332766,0.8167939,-1.0763359,-1.4885496,-8.5879574,0.9026094,6.1458845,-13.2137403,-52.5572510,-4.5648856
5720,1.2832855,3.6750808,9.1673517,-0.3129771,-0.4656489,-2.6106870,-8.2096758,1.1563935,5.6311336,-5.3511453,-49.1221390,-1.7709924
5730,1.2401901,3.6655040,9.2319946,-0.5725191,-0.2213740,-2.9389312,-8.1785507,1.1324517,5.6550756,-7.0763359,-48.8015251,-2.4198472
5740,1.2976507,3.6702924,9.1745338,-0.5419847,-0.2213740,-3.1679389,-8.1953106,1.0342898,5.5760674,-9.4427481,-48.1603050,-2.2595420
5750,1.2401901,3.6774750,9.2032642,-0.4122137,-0.2213740,-3.2595420,-8.2527714,0.9648584,5.7053533,-11.8167934,-46.6946564,-2.4656489
5760,1.1779412,3.6918402,9.1745338,-0.7633588,0.0229008,-3.3664122,-8.4155760,1.0366840,5.8298512,-13.4274807,-41.8549614,-0.7938932
5770,1.0103480,3.6702924,9.2056589,1.1603054,0.0916031,-1.6870229,-7.7954807,1.0869620,6.6462698,-13.6412210,-24.5877857,3.6641221
5780,1.0558375,3.7157819,9.1505919,1.4503816,-0.5190840,-0.5648855,-7.8649125,1.0342898,6.6917596,-9.9465647,-24.5801525,5.8244276
5790,1.1324517,3.7660601,9.2774839,1.9923664,-0.4274809,-0.0458015,-7.8912482,0.9744351,6.8809004,-7.5877862,-24.2519093,6.2671757
5800,1.2138541,3.7229645,9.1194677,2.0687022,-0.3129771,-0.0458015,-7.8337879,0.8307837,6.9024482,-5.1984735,-23.7175579,6.1679387
5810,1.1755470,3.6966286,9.1051025,2.0610688,-0.2671756,0.1297710,-7.6733770,0.9768293,6.7899213,-2.5419848,-21.3893127,5.5572519
5820,1.1731528,3.7828193,9.0620070,1.9694656,-0.1679389,-0.2213740,-7.5249376,1.0534433,6.7037306,-0.3129771,-18.4351139,4.9160304
5830,1.1875180,3.6966286,9.0500364,1.6412214,0.0992366,-0.2824427,-7.5464849,1.1803354,6.4714942,0.6259542,-17.2442741,3.8320611
5840,1.1037214,3.6774750,8.9470863,1.2213740,-0.0992366,-0.3740458,-7.5728211,1.2330076,6.4307928,0.6183206,-17.4045811,2.5801528
5850,1.1683644,3.6990228,8.9399033,0.6946565,0.1068702,0.1679389,-7.6494355,1.3742647,6.3924856,-0.3206107,-17.5190830,2.1221373
5860,1.1468167,3.7612717,9.0404596,0.4122137,-0.0839695,0.2137405,-7.5752153,1.3144100,6.2727766,-1.4045801,-19.2366409,1.4580153
5870,1.2354017,3.7540891,9.1697454,0.1755725,-0.1679389,0.2671756,-7.6757712,1.3622938,6.2703824,-2.6488550,-20.0763359,1.2519084
5880,1.1013272,3.7014170,8.9997578,0.0916031,-0.8473282,0.5038168,-7.6374645,1.3598996,6.2871413,-4.0458016,-20.3511448,1.8091604
5890,1.1492109,3.7277529,8.9806042,-1.7404580,0.6106870,0.4503817,-7.6422529,1.3407460,6.2368636,-5.4274807,-21.2748089,1.3587786
5900,1.1755470,3.6702924,9.0691900,-2.3358779,3.1679389,1.4656489,-7.5321202,1.1731528,6.3517847,-6.8549619,-21.7633591,0.1679389
5910,1.1276633,3.7109938,9.0165176,-2.5801528,3.2977099,2.0381680,-7.3501616,1.0893562,6.3613615,-7.7404580,-21.0534344,-1.0000000
5920,1.0941446,3.7229645,9.0835552,-3.4809160,2.8931298,2.9694657,-7.3334022,1.0749911,6.4499464,-8.6717558,-20.1297703,-2.2977099
5930,1.1611819,3.6655040,9.1051025,-3.4656489,2.7022901,2.9007633,-7.2089043,1.0869620,6.6031747,-9.3358774,-18.1450386,-3.9694657
5940,1.0821736,3.6535332,9.1553802,-3.5267177,1.0763359,2.4580152,-7.3238254,1.0199248,6.8928714,-9.4198475,-16.3206100,-4.5496182
5950,1.1204807,3.7301471,9.4426832,-2.1755726,0.1603053,2.7175572,-7.4555058,0.9145803,7.2065101,-3.2213740,-6.1145039,-4.9007635
5960,1.1276633,3.8259149,9.6773138,0.0458015,0.1221374,2.6793892,-7.4339581,0.8738791,7.1442614,-1.0839695,-3.4503818,-4.2977099
5970,1.0965388,3.8570392,9.5456333,2.3206108,0.1068702,2.3435113,-7.2927012,0.8882443,7.2400289,1.1374046,-1.2137405,-4.0534353
5980,1.0486550,3.9480183,9.3540983,4.3358779,-0.6946565,2.0458016,-7.2591825,0.9050036,7.0197635,3.0458016,0.8549618,-4.8702292
5990,0.9528874,3.8857694,9.2319946,5.1755724,-1.5648855,1.5496184,-7.2112985,0.9073978,6.9646969,4.1145039,3.6106870,-5.1755724
6000,1.0606259,3.8570392,8.9542685,4.9389315,-2.2519083,1.4885496,-7.2567883,0.9504932,6.9239960,4.5954199,7.0916033,-6.3969464
6010,1.1420283,3.7780309,8.9231443,4.0687022,-2.8320611,1.0839695,-7.2089043,0.9720409,6.9790621,5.7022901,10.4198475,-7.6564884
6020,1.3455344,3.7109938,8.8321648,2.1755726,-3.6717558,0.3816794,-7.2496057,0.9361281,6.9886389,7.0305343,12.3206110,-9.7328243
6030,1.3958124,3.6032550,8.8561068,0.8473282,-3.8931298,-0.4656489,-7.2136927,0.9528874,6.9670911,8.3511448,14.4809160,-11.1603050
6040,1.7573351,3.5529771,9.5073261,-0.0916031,-0.8473282,-2.5801528,-7.5009956,1.0821736,7.0772243,11.2519083,21.3435116,-20.8473282
6050,1.6902977,3.6439564,9.4594421,0.5954198,2.0152671,-3.2671757,-7.9798336,1.1779412,7.1035600,13.5572519,20.2900772,-23.8702297
6060,1.5873476,3.7540891,9.3373384,1.2977099,4.1603055,-4.6183205,-8.4395180,1.2473727,7.0532823,16.3358784,19.9541988,-24.6564884
6070,1.3407460,3.8211265,9.2200232,1.5877863,6.2671757,-5.2671757,-9.0093346,1.1587877,6.8162575,17.7633591,21.9083977,-24.6870232
6080,1.1444225,3.9719603,9.0715837,1.6259542,6.5725193,-5.2290077,-9.6198530,1.1516051,6.8282285,17.4122143,26.4809170,-23.7862587
6090,0.6775556,4.0796990,8.8585014,0.2900763,2.4351146,-5.0763359,-11.9230633,1.0917504,7.0269461,14.6106873,55.9923668,-6.4732823
6100,0.5458752,3.9049230,8.8273764,-0.4427481,1.0839695,-4.9465647,-12.8879223,1.3287752,7.3142486,11.7099237,59.1374054,1.9312977
6110,0.3687052,3.8402798,9.0524302,-0.9236641,0.2519084,-3.0916030,-14.0658627,1.6256547,7.6997132,7.5343513,52.6259537,10.9465647
6120,0.5602403,3.5673423,9.3924055,0.7633588,-4.4656487,0.8702290,-15.7489786,1.3982066,9.0763721,5.2290077,18.8854961,37.2137413
6130,0.7302278,3.5003049,9.3301563,2.0000000,-6.8015265,2.7786260,-15.3778791,1.2617378,9.4115591,11.1603050,-4.3969464,50.7557259
6140,1.4245427,3.9959023,8.9327211,-3.9389312,6.0763359,-2.8320611,-14.7098999,0.6584021,8.1426382,66.9160309,-23.0534344,142.4122162
6150,1.1899122,4.0246325,9.0045462,-4.4045801,6.1297708,-3.5343511,-14.5638542,0.5434810,8.1258793,73.0687027,-3.4503818,168.2977142
6160,1.0175306,4.0605454,8.9806042,-4.2671757,5.5190840,-3.8778627,-14.2119083,0.4357425,7.6949248,80.8244247,35.9618340,200.4656525
6170,0.8212070,3.9982965,9.0380650,-3.9541984,4.8778625,-3.4580152,-13.4768925,0.3064562,7.0532823,86.1145020,91.8854980,235.3740387
6180,0.6105183,3.9528067,9.0907373,-3.5801528,4.1984735,-2.7557251,-12.6915979,0.4070122,6.3637557,89.8778610,158.6793823,250.1297760
6190,0.4884146,3.9168940,9.0332766,-3.4122138,3.4427481,-1.6946565,-11.8105364,0.4788379,5.7915444,87.1145020,218.9618378,250.1297760
6200,0.5003856,3.7995787,9.0811605,-3.3893130,2.5419848,-0.5648855,-10.8456783,0.5099624,5.1331420,78.0610657,248.3358765,250.1297760
6210,0.5746055,3.6319854,9.3038206,-1.1221374,-3.2442749,2.6488550,-8.4443064,0.3926471,3.7995787,46.1908379,220.0000000,250.1297760
6220,1.0462608,3.6607156,9.4043760,2.8931298,-8.2671757,3.7022901,-6.2272868,0.4764437,3.2680686,9.0305347,130.5801544,250.1297760
6230,1.2473727,3.7133877,9.4426832,3.6259542,-8.1908398,3.8320611,-5.0397687,0.6631905,3.2441268,-4.4274807,84.9923630,250.1297760
6240,1.5921360,3.9049230,8.9375095,1.0534351,0.2519084,-1.3664122,1.5370697,2.5282640,2.5761478,-6.3282442,40.3969460,250.1297760
6250,1.5035510,3.9360476,8.8680773,0.0305344,1.5114504,-2.3129771,1.9297167,2.7437410,2.1643472,-6.6106873,48.5572510,244.9541931
6260,1.4508789,3.9432299,8.8896255,-1.0610687,2.6106870,-3.4503818,2.4995339,2.8658447,2.0039365,-9.4122133,50.3206100,237.1450348
6270,0.9169745,3.8378856,9.1577749,-2.0076337,2.9312978,-2.4351146,5.0637107,2.9161227,2.5857246,-28.0534344,8.0687027,185.2366486
6280,0.8331779,3.7804251,9.2535419,-0.4809160,0.5038168,-0.8931298,5.1068063,2.9041519,2.0877333,-33.5648842,-15.7404585,167.3740387
6290,0.9002152,3.7612717,9.2487535,-0.0152672,-1.0763359,0.1068702,5.5042415,2.5953014,1.7477583,-37.6946564,-20.8702297,162.8625946
6300,1.0151364,3.7516949,8.9806042,0.3129771,-1.8549619,2.1679389,6.2655940,1.7932479,0.6320660,-43.7328262,6.3129773,148.3053436
6310,1.0869620,3.9504125,9.2726955,-0.6641222,0.7862595,0.2977099,18.5382080,3.1914546,4.6519103,0.6488550,11.4656487,-130.8396912
6320,1.0941446,3.7397239,9.1601686,2.4885497,-4.5343513,1.0916030,16.8048153,-2.8155668,-0.8475431,-6.0000000,6.4580154,-250.1374054
6330,1.2186425,3.8283088,9.1793222,2.4122138,-4.0305343,1.2824427,12.4569674,-8.8489246,-0.4022238,-43.1526718,-67.4809189,-250.1374054
6340,1.2976507,3.8115497,9.0045462,2.2519083,-3.5114503,1.1679389,5.0493455,-15.5837793,0.0670373,-84.9236679,-161.7862549,-250.1374054
6350,1.3982066,3.8043671,9.0404596,1.4351145,-2.6793892,0.7862595,-5.9064655,-19.6131992,0.2777260,-136.3587799,-250.1374054,-250.1374054
6360,1.4173602,3.7756367,8.9494801,0.8091603,-2.1297710,0.3511450,-19.0433826,-19.6131992,-0.8499373,-212.1068726,-250.1374054,-250.1374054
6370,1.4197544,3.7971845,9.0500364,-0.0992366,-1.1755725,-0.0534351,-19.6131992,-19.6131992,-0.4836263,-250.1374054,-250.1374054,-250.1374054
6380,1.4149660,3.8642218,8.9829988,-0.9847328,-0.7175573,-0.4656489,-19.6131992,-19.6131992,6.7252784,-250.1374054,-219.7022858,-250.1374054
6390,1.3814473,3.8330972,8.9782104,-1.9160305,0.3511450,-0.9923664,-19.6131992,-18.9739513,19.6126022,-250.1374054,88.5343475,-250.1374054
6400,1.2784972,3.9623835,8.9422979,-2.5725191,1.3129771,-0.9312977,-19.6131992,-14.1089582,19.6126022,-250.1374054,250.1297760,-250.1374054
6410,1.2162483,3.8115497,9.0213060,-3.3740458,1.9618320,-0.9389313,-19.6131992,-9.8544836,19.6126022,-87.2595444,250.1297760,-137.7786255
6420,1.0773853,3.8115497,9.1146793,-3.9923663,2.3129771,-0.7099237,-19.6131992,-6.0118098,19.6126022,147.7022858,250.1297760,18.2824421
6430,0.9696468,3.7588775,9.0572186,-4.1145039,1.6564885,0.1221374,-19.6131992,-4.3526363,19.6126022,250.1297760,235.2442780,90.2595444
6440,0.9840119,3.7780309,9.0787668,-3.9770992,1.0992366,0.7099237,-19.6131992,-4.9056940,11.8871508,250.1297760,172.9465637,130.9313049
6450,0.9457048,3.7540891,9.1266499,-3.4198472,0.2671756,1.4122137,-17.9659977,-3.0693510,3.6894460,250.1297760,137.6335907,153.3664093
6460,1.0103480,3.6774750,9.2080526,-2.8244274,-0.1450382,2.4427481,-10.6134415,1.1132981,-2.0685797,250.1297760,110.2977066,148.2595367
6470,1.0318956,3.7636659,9.2056589,-2.0076337,-0.7251908,2.9618320,-7.6877422,2.9951310,-3.9959023,158.7099304,72.3664093,121.5343475
6480,1.3479286,3.7325413,9.0644016,-1.3511450,-2.0916030,3.5954199,-6.8378053,3.8019729,-1.4293311,38.7175560,-46.4274826,53.0076332
6490,1.2976507,3.8354914,8.7770987,-2.8320611,-2.2137403,2.8778627,-6.6821828,4.5369892,-0.3447633,13.1374044,-92.1832047,24.1374054
6500,1.4245427,3.7732425,8.8968077,-4.7557254,-0.3511450,2.5801528,-6.7971039,4.7404952,1.5059452,-16.8015270,-118.8549652,-2.6183207
6510,1.3096216,3.7804251,8.9422979,-6.2213740,-0.7328244,1.4045801,-6.6797886,4.7740140,2.6024840,-21.3206100,-112.1068726,-4.0534353
6520,1.3479286,3.6607156,9.1505919,-6.8625956,0.4961832,1.5572519,-5.3869262,3.9959023,3.6726866,-8.3740454,-79.3129807,-5.5572519
6530,1.1444225,3.7349355,9.3421268,-5.8015265,0.4045801,1.3664122,-4.9392128,3.6415622,3.5721307,0.8549618,-53.3816795,-8.1679392
6540,1.0941446,3.7038112,9.4809904,-4.4732823,0.1450382,1.8167939,-5.1211715,3.4787574,3.2991931,7.8015265,-25.8854961,-9.9389315
6550,1.0773853,3.7732425,9.6437950,-2.5954199,0.1526718,2.4198472,-5.5712790,3.1746953,2.8371146,9.5725193,-1.4503816,-10.3969469
6560,1.0630201,3.8642218,9.5288744,-0.5648855,0.2824427,2.7404580,-6.3613615,3.0789278,2.5282640,7.2824426,16.8396950,-9.4122133
6570,1.0295014,3.9168940,9.3612804,0.7022901,1.0534351,2.9083970,-7.1275020,3.0932927,2.6886747,2.0687022,21.9541988,-8.1221371
6580,0.8978211,3.9264708,9.1745338,1.5877863,0.5572519,2.9007633,-7.5656385,2.8203552,2.8562679,-5.2824426,16.4351139,-5.9923663
6590,0.9480990,3.8450682,8.9997578,1.6641221,-0.3816794,3.3511450,-7.3693151,2.5857246,3.1507533,-13.2137403,7.9618320,-4.3893127
6600,1.1659702,3.7612717,8.9207497,1.0992366,-1.8244275,3.5877862,-7.0820122,2.3822186,3.5290353,-19.9770985,0.6488550,-4.3587785
6610,1.3120158,3.7540891,8.9159613,0.1526718,-2.9007633,2.9694657,-6.7755561,2.1068866,4.1012464,-23.7786255,-2.8778627,-7.3206105
6620,1.4748207,3.7469065,8.8848372,-1.0000000,-3.3282442,1.5343511,-6.6917596,1.8243724,4.6112089,-24.8473282,-4.2671757,-12.6106873
6630,1.4748207,3.7085996,9.0739784,-1.5038168,-3.3740458,0.2366412,-6.6678176,1.7262106,5.0708933,-23.2213745,-6.0916033,-18.4427490
6640,1.4341195,3.6224086,9.2248116,-1.9770992,-2.7709923,-0.5190840,-6.7755561,1.7309990,5.3893204,-20.7633591,-8.9465647,-25.5725193
6650,1.5083394,3.5769191,9.3181858,-1.3358779,-2.3893130,-0.9541985,-6.8856888,1.6424140,5.5401545,-17.9923668,-11.7862597,-31.3969460
6660,1.4843974,3.6128318,9.3708572,-1.1374046,-0.9770992,-0.7251908,-7.1777802,1.4053892,5.5856438,-16.0763359,-12.8931293,-38.1832047
6670,1.5274929,3.7349355,9.4067707,-0.5877863,1.3969465,-0.6717557,-7.3573442,1.2808913,5.6119800,-15.4045801,-15.3129768,-43.5190849
6680,1.3359578,3.7612717,9.3157911,0.1526718,2.4732823,-0.8015267,-7.7571740,1.3383518,5.6431046,-15.9770994,-19.9923668,-47.2290077
6690,1.2473727,3.8785870,9.1458035,0.5648855,2.4961832,-0.9236641,-8.0588417,1.2377959,5.8154860,-16.5877857,-25.6564884,-49.7938919
6700,1.2330076,3.9456241,8.9973640,0.5877863,2.0687022,-1.2595420,-8.2479830,1.1252691,6.0836353,-15.8015270,-32.9160309,-52.7175560
6710,1.1228749,3.9312592,8.8154058,-0.3587786,1.3053435,-1.8320611,-8.2719250,1.2545552,6.3326311,-13.7709923,-40.4656487,-54.6259537
6720,1.1228749,3.8785870,8.7770987,-1.5190840,0.5038168,-2.0152671,-8.1953106,1.1444225,6.3350253,-10.9770994,-45.1068687,-55.0992355
6730,1.0318956,3.8043671,8.9829988,-2.0305343,-0.0229008,-2.2061069,-8.0971489,0.9073978,6.2871413,-6.9160304,-44.7022896,-57.3969460
6740,1.0678085,3.6894460,9.1649570,-2.3282442,-0.5572519,-1.6793894,-8.9518747,1.0965388,6.0333576,-5.0076337,-47.7022896,-61.9465637
6750,0.9959828,3.6559272,9.3205795,-1.5343511,-0.9694657,-1.0610687,-10.9103212,1.3072275,6.0860295,-5.9618320,-48.0992355,-60.1450386
6760,1.1156923,3.5673423,9.3684635,-0.4885496,-1.8625954,-0.3893130,-11.9158812,1.5801650,6.4068508,-3.9770992,-40.6335869,-47.7709923
6770,1.1444225,3.6056492,9.3636751,0.8320611,-2.5954199,0.4274809,-12.2845860,1.6950861,6.3853035,-0.5419847,-30.9923668,-33.5648842
6780,1.3311694,3.5146701,9.2032642,1.2595420,-2.7175572,1.6488550,-11.9733410,1.7573351,6.3326311,7.0229006,-14.9618320,-8.8396950
6790,1.5442522,3.5362179,9.1338329,0.5648855,-1.6564885,1.7786260,-10.9151096,1.7908537,5.9830794,10.2366409,-11.0763359,0.1603053
6800,1.6519908,3.6798692,9.0069408,-0.7022901,0.6030535,1.2442749,-9.5791521,1.7070571,5.9447722,11.8473282,-7.1068702,4.9389315
6810,1.6352314,3.7038112,8.9901810,-1.9160305,2.6183207,0.3511450,-8.3629036,1.6663558,5.6526814,12.0992365,-3.9618320,4.4809160
6820,1.6065011,3.8307030,9.0093346,-3.0229008,4.1450381,-0.7099237,-7.5871863,1.5825592,5.5305777,11.2213745,-1.6412214,2.2900763
6830,1.3287752,3.9240766,9.0691900,-3.4809160,4.0916033,-1.3282443,-7.1562324,1.4891858,5.4228392,10.3435116,-1.0305344,-2.4809160
6840,1.1923064,3.9336534,9.0955257,-3.1450381,3.6335878,-1.1450381,-6.9455438,1.4652439,5.5688848,9.8091602,-1.1679389,-6.7404580
6850,0.7972651,3.9025288,9.1074963,-2.9847329,3.5801528,-0.0152672,-6.8617468,1.1420283,5.6502872,11.5954199,1.2748091,-18.1679382
6860,0.6823440,3.8235207,9.1314383,-2.5267177,3.0687022,0.9007633,-7.1179252,1.1228749,5.6862001,12.9770994,2.2061069,-21.1450386
6870,0.6895266,3.7900019,9.1410151,-2.2290077,1.2671756,1.9541985,-7.4459291,1.1396341,5.6838059,13.8473282,0.9083970,-23.3282452
6880,0.7398046,3.7133877,9.2774839,-1.2213740,-0.9847328,3.2137403,-7.6326761,1.2282192,5.6383162,14.1297712,0.4045801,-24.7099228
6890,0.9313397,3.6846576,9.3636751,-0.3740458,-3.1984732,4.2061067,-7.6853480,1.3311694,5.7125359,13.8244276,1.5267175,-24.1679382
6900,1.0989330,3.6056492,9.3684635,0.9541985,-4.6259542,4.3206105,-7.9223728,1.5131277,5.7987270,13.5419846,4.5496182,-24.3664131
6910,1.2593436,3.6583214,9.3086090,1.6946565,-5.4274807,4.4580154,-8.1115141,1.6328372,5.7867560,14.0534353,7.4656487,-24.0763359
6920,1.3455344,3.6319854,9.2296000,2.0229008,-5.5419846,4.1603055,-8.3940287,1.7309990,5.9735026,14.6870232,8.7099237,-24.7404575
6930,1.5538290,3.6056492,9.1888990,2.2290077,-4.8931298,3.9160306,-8.5185261,1.7046629,6.0070214,14.9770994,8.2519083,-26.1908398
6940,1.6495966,3.6535332,9.0715837,1.8549619,-3.9236641,2.8549619,-8.5257082,1.6495966,6.3781209,15.6641226,9.5648851,-29.3053436
6950,1.8554969,3.6798692,9.0141230,1.1068702,-2.3129771,1.8167939,-8.8800488,1.6017127,6.6678176,18.2519093,9.4351149,-34.4274826
6960,1.8435259,3.8043671,8.9901810,0.0839695,-0.2671756,0.3129771,-9.3732519,1.6184721,6.7516141,22.0000000,5.1832061,-39.1832047
6970,1.6424140,3.8522508,8.9973640,-2.3587787,4.1068702,-3.0076337,-10.4434547,1.4006008,6.7492199,28.9541988,-8.6259546,-48.8549614
6980,1.4293311,3.8043671,8.8585014,-3.1603053,5.5496182,-3.7709923,-11.5663290,1.2952565,6.7013364,31.1832066,-13.8015270,-52.1679382
6990,1.1420283,3.7540891,9.0476418,-3.5572519,6.2748094,-3.7022901,-13.3308468,1.1947005,6.7061248,32.3511467,-19.2977104,-53.4351158
7000,0.9121862,3.7301471,9.0955257,-3.9312978,5.3587785,-2.9160306,-15.0953646,0.9433106,6.5217719,31.3511448,-20.8167934,-47.6412201
7010,0.7565638,3.7804251,9.1553802,-4.0610685,4.4656487,-1.9083970,-16.9508610,0.7637464,6.4954362,27.5267181,-16.4122143,-34.8702278
7020,0.6631905,3.6702924,9.1314383,-3.6412213,2.9465649,-0.3587786,-18.5166607,0.9169745,6.7540083,21.9160309,-7.0763359,-13.8167934
7030,0.6296718,3.7469065,9.2774839,-3.1145039,1.0992366,1.2213740,-19.6131992,1.2090657,7.3166428,17.0839691,2.1908398,16.0305347
7040,0.7374104,3.6870518,9.3229742,-1.9770992,-0.4732825,2.4580152,-19.6131992,1.2665262,7.9606800,15.7938929,7.0610685,49.9083977
7050,0.7158626,3.6678982,9.2774839,-0.9083970,-2.1908398,3.8091602,-19.2468891,0.9528874,8.6023226,19.2519093,8.4885492,84.4580154
7060,1.3096216,3.6798692,9.2224178,1.7709924,-5.0000000,5.3664122,-13.8360205,-0.3998296,8.6214762,55.1832047,35.1221390,142.5496216
7070,1.4676381,3.6894460,9.2511482,1.9770992,-4.6412215,4.6946564,-12.7969427,-0.6895266,8.0277176,66.8244247,52.4809151,148.6030579
7080,1.5681942,3.6678982,9.2272062,2.0000000,-3.7099237,3.6641221,-12.3803539,-0.3543400,7.7380204,75.7328262,67.1221390,154.1374054
7090,1.6328372,3.6894460,9.1984758,1.9007634,-3.1526718,2.5419848,-12.1696653,-0.1699875,7.1777802,81.6412201,75.7862625,160.7022858
7100,1.6711442,3.6750808,9.2128410,1.8625954,-1.9541985,1.6183206,-12.1864243,-0.2489957,6.5145893,84.7175598,82.0381699,166.7328186
7110,1.3072275,3.6894460,9.0141230,0.2213740,-0.6259542,-3.8931298,-0.9648584,0.8020535,-0.1101327,-62.9847336,132.6793823,250.1297760
7120,1.3024391,3.6966286,9.0859489,-0.2442748,-0.0916031,-3.9083970,-0.1699875,0.4932030,-0.4860204,-80.8320618,134.6030579,250.1297760
7130,1.3096216,3.7373297,9.1146793,-0.6183206,0.1984733,-3.7862597,0.1149211,0.2825144,-0.6392486,-101.9694672,130.6793823,250.1297760
7140,1.2593436,3.6774750,9.0260944,-1.3740458,0.6106870,-3.7480917,0.0909792,0.0407012,-0.6560079,-123.3053436,113.8167953,250.1297760
7150,1.3646880,3.7205703,9.0332766,-1.7099236,0.6412213,-3.1984732,0.0861908,-0.5746055,-0.3495516,-143.4809113,87.0229034,250.1297760
7160,1.4748207,3.6894460,9.0859489,-1.9236641,0.6106870,-2.2442749,0.6512195,-1.4245427,0.3615226,-159.3587799,54.4656487,250.1297760
7170,1.8363433,3.8330972,9.0452480,-2.5801528,2.0152671,-1.2366412,1.6735384,-2.3175755,1.2354017,-167.0992432,25.1374054,250.1297760
7180,2.4612267,4.0581512,9.0117292,-3.8549619,5.3282442,-3.7633588,3.0932927,-2.7820482,2.3175755,-167.2213745,-0.4198473,250.1297760
7190,2.4731977,4.3047528,8.9399033,-5.7862597,9.4732828,-9.9847326,4.5729017,-2.9544299,3.3925664,-159.7480927,-20.6183205,250.1297760
7200,2.0709739,4.1611013,8.7387915,-7.4580154,11.1450386,-15.8396950,6.1865854,-2.7245877,4.4747400,-146.9084015,-31.9923668,250.1297760
7210,1.3694763,3.9097114,8.5807753,-9.3740454,10.6335878,-19.6488552,7.2639709,-2.3917952,5.4372044,-129.6412201,-36.4809151,250.1297760
7220,0.8619082,3.7588775,8.6765423,-11.3206110,9.9618320,-20.2366409,8.5496502,-1.6352314,6.4738884,-108.3358765,-34.2519073,250.1297760
7230,0.4094064,3.6631098,8.9494801,-13.1908398,11.3511448,-18.3358784,10.3021975,-0.9265513,7.5057840,-83.4045792,-32.1526718,233.6335907
7240,0.2777260,3.5912843,9.4498653,-13.3129768,13.1984730,-15.6870232,12.5838594,0.4572902,8.1546097,-59.6488533,-30.6412220,191.8549652
7250,0.0287303,3.5673423,9.5911226,-11.4122133,13.6641226,-13.1984730,14.9158001,0.9073978,9.0189114,-33.9923668,-29.3664131,143.3969421
7260,-0.2082945,3.4476328,9.9454632,-7.8244276,10.7099237,-10.5954199,18.7225609,2.3367288,9.1697454,-4.4961834,-25.2137413,77.3282471
7270,-0.5099624,3.3662305,9.8903971,-3.2213740,5.8473282,-6.4198475,19.6126022,3.3015873,8.5735922,20.1984730,-13.0610685,-5.4580154
7280,-0.5674229,3.2800395,9.6461897,0.6106870,-0.9694657,-1.2977099,19.6126022,4.2903876,7.1753860,37.2977104,12.1603050,-102.0610657
7290,-0.4572902,3.2680686,9.4618368,3.4580152,-6.9694657,3.5038168,19.6126022,4.2209558,5.5617023,41.2442741,43.0534363,-204.7709961
7300,-0.0287303,3.2824337,9.3900108,4.8778625,-11.0687027,7.7862597,19.6126022,2.7916248,4.5322008,35.4351158,76.2213745,-250.1374054
7310,0.3782819,3.4452386,9.2487535,4.7328243,-12.7022905,11.0916033,19.6126022,0.0694315,4.2377152,32.0076332,110.8015289,-250.1374054
7320,0.9313397,3.5098817,9.1673517,4.3740458,-13.4274807,12.3435116,19.6126022,-3.6846576,3.6942344,34.9694672,138.5114441,-250.1374054
7330,1.2832855,3.5553713,9.1505919,4.6412215,-13.1526718,12.7328243,15.5765963,-8.1330614,2.7916248,40.7557259,158.8396912,-250.1374054
7340,1.5203103,3.6200144,9.0835552,4.4427481,-13.2519083,12.0687027,10.1681223,-13.0938225,2.4827745,48.1755714,166.6946564,-250.1374054
7350,1.6687500,3.7995787,9.0404596,3.6183207,-11.8167934,10.2748089,4.2664456,-18.7584743,3.2824337,62.0228996,146.4427490,-250.1374054
7360,1.7477583,3.8378856,8.9494801,2.3282442,-8.0610685,8.2519083,-1.8842272,-19.6131992,4.4699516,80.6488571,86.4580154,-250.1374054
7370,1.6543850,3.9528067,8.9566631,0.6183206,-3.8702290,6.8625956,-10.0939026,-19.6131992,5.2576399,97.4809189,-31.4198475,-250.1374054
7380,1.5418580,3.9743545,8.8848372,-0.7480916,-1.0687023,5.1755724,-18.3945580,-19.6131992,4.7668314,94.2366409,-165.0839691,-250.1374054
7390,1.3958124,4.0030847,9.0428534,-1.4045801,1.1145039,3.5496182,-19.6131992,-19.6131992,5.1929970,57.7099228,-250.1374054,-250.1374054
7400,1.1252691,3.9671719,9.0955257,-1.6259542,1.9847329,2.6793892,-19.6131992,-18.4831429,8.2503767,3.3511450,-250.1374054,-250.1374054
7410,0.9624642,3.8378856,9.0835552,-1.5038168,2.5190840,2.0000000,-19.6131992,-10.8337069,10.4602137,-56.3740463,-250.1374054,-250.1374054
7420,0.8427547,3.7612717,9.1769285,-1.1221374,1.8244275,2.5114503,-19.6131992,-4.0677280,13.5870247,-111.6793900,-250.1374054,-250.1374054
7430,0.8164186,3.7445123,9.3852224,-0.2213740,-0.1145038,2.8473282,-19.6131992,-2.1595588,17.9157200,-111.1679382,-250.1374054,-122.3053436
7440,0.7996593,3.6463506,9.3301563,0.6641222,-2.2061069,3.3969467,-19.6131992,-2.5785420,19.6126022,-38.9160309,31.6946564,111.7404556
7450,0.9864060,3.6152260,9.3133974,2.0763359,-4.4732823,3.1679389,-19.6131992,-2.8897867,19.6126022,46.6488533,250.1297760,250.1297760
7460,1.0917504,3.6104376,9.3110027,3.2824428,-5.7633586,2.8702290,-17.9133263,-2.9065459,16.6827126,101.3816757,250.1297760,250.1297760
7470,1.2737088,3.5841017,9.2224178,3.6793892,-6.9923663,2.5648854,-12.1816359,-1.4724265,14.6093445,127.2061081,250.1297760,250.1297760
7480,1.4508789,3.5194585,9.1386213,3.5496182,-7.1297708,2.1297710,-8.9303265,0.1556223,12.8208847,137.6793823,250.1297760,239.8167877
7490,1.6448082,3.5050933,9.1003141,2.7251909,-6.6030536,1.4580153,-6.6007805,1.6160779,11.0443964,143.3587799,250.1297760,166.0610657
7500,1.8507085,3.6104376,8.9853926,0.2595420,-4.2519083,-0.2519084,-4.3358769,3.6990228,5.5329719,138.3816833,-17.8091602,28.2671757
7510,1.9177457,3.6678982,8.9806042,-0.8702290,-3.7480917,-1.8396946,-4.0389977,3.9168940,2.9280937,123.2824402,-98.0305328,-19.9160309
7520,1.8602852,3.7062054,8.9734221,-1.8854961,-2.2595420,-3.8549619,-4.4986820,3.8235207,0.8858501,103.3969498,-135.2061005,-54.9618340
7530,1.6112895,3.7349355,8.8608952,-3.3358779,0.4427481,-5.0152674,-5.3055239,3.7301471,-0.0814024,83.0687027,-146.5572510,-75.3587799
7540,1.4245427,3.7828193,9.0236998,-4.9312978,3.3893130,-5.4580154,-6.2799587,3.8354914,-0.4141948,61.8396950,-149.2748108,-86.5877838
7550,1.1013272,3.7732425,9.2415714,-5.2290077,5.2519083,-5.0458016,-7.1729918,3.8283088,-0.1197095,42.3511467,-143.6717529,-87.6717529
7560,0.8666966,3.7804251,9.3564920,-4.3206105,5.0687022,-3.7786260,-8.1737623,3.9240766,0.3878587,24.8244267,-132.2213745,-77.8167953
7570,0.7637464,3.7684543,9.3014259,-3.1755726,4.5114503,-2.7099237,-8.7555504,3.9647777,0.9983770,11.9083967,-106.6641235,-59.6106873
7580,0.4141948,3.7876077,9.0955257,-0.8320611,1.8244275,0.8702290,-8.4203644,3.7253587,2.5330524,2.4351146,-38.6870232,-11.5648851
7590,0.5674229,3.7923961,9.0165176,-0.9847328,1.2366412,2.4656489,-7.6087341,3.3375001,2.7700772,3.3893130,-2.4198472,9.1755724
7600,0.5315101,3.7852135,9.0596132,-1.3664122,0.3053435,4.3664122,-6.6606350,2.8993635,3.0501974,5.2900763,29.4809170,21.6412220
7610,0.6344602,3.7181761,9.2655134,-1.5038168,-1.6106870,5.7328243,-5.8897061,2.5641768,2.9424589,5.9541984,50.8931313,26.7251911
7620,0.8451489,3.6128318,9.2846670,-0.9083970,-2.8778627,6.7175574,-5.3797436,2.4277081,2.9017577,5.0763359,66.7251892,25.4809170
7630,1.0630201,3.6894460,9.3157911,0.1984733,-4.7557254,6.8625956,-5.2767935,2.3510940,2.8538737,1.8396946,77.6030502,20.1908398
7640,1.2234308,3.6822634,9.3708572,1.3969465,-5.5801525,6.9236641,-5.6287394,2.2481439,3.1052637,-2.1297710,79.3893127,13.3740454
7650,1.4341195,3.5864959,9.3133974,1.9541985,-6.0076337,6.3511453,-5.8992829,2.1332228,3.3542595,-6.6412215,74.2290039,4.9847326
7660,1.5945302,3.6080434,9.1505919,1.7404580,-5.1297708,5.6106873,-6.2224984,1.9464760,3.6319854,-10.4809160,64.5343475,-3.1832061
7670,1.1899122,3.8498566,8.9279327,1.3282443,2.5038168,-0.7862595,-8.5281029,1.5394639,5.5736732,-29.6793900,-26.7786255,-46.0076332
7680,1.1683644,3.8857694,8.8345594,0.4427481,2.8015268,-0.7175573,-8.6238708,1.4676381,6.1794028,-23.3206100,-18.7022896,-45.2671738
7690,1.0031654,3.9001346,8.7459745,-1.2519084,2.5190840,-0.8549618,-8.6645718,1.4269369,6.4427638,-12.9541988,-6.2519083,-44.7786255
7700,1.1037214,3.8330972,8.8154058,-2.5496182,1.7633588,-1.0458015,-8.6573887,1.3766589,6.4403696,-0.7099237,6.9923663,-44.5038185
7710,1.1611819,3.6367738,9.2511482,-3.7099237,-0.2442748,-1.2213740,-9.6868906,1.4724265,5.9351954,21.1374054,31.8244267,-50.3664131
7720,1.1587877,3.5769191,9.3086090,-3.4427481,-1.0916030,-0.8396947,-10.8217363,1.4891858,5.4755111,29.2442741,33.7328262,-54.2671738
7730,1.2617378,3.5529771,9.2726955,-2.8625953,-1.3358779,-0.3816794,-11.7243462,1.5322813,5.0206151,33.2595406,31.3129768,-54.9771004
7740,1.3551112,3.4763632,9.2415714,-2.2442749,-1.4809160,-0.0229008,-12.9094696,1.5346755,4.5800843,33.1450386,25.6030540,-55.6030540
7750,1.5107336,3.4883339,9.2703018,-2.1755726,-0.6335878,-0.0381679,-14.3962612,1.6328372,4.2808108,31.5496178,14.8549614,-54.1908379
7760,1.6400198,3.5074875,9.4067707,-1.8091604,1.0916030,-0.8167939,-16.0410690,1.6998745,3.9456241,28.5343513,-0.0381679,-48.9618340
7770,1.6160779,3.6224086,9.3900108,-1.0916030,3.1679389,-1.8931298,-17.8534698,1.7453641,3.4572096,22.5496178,-7.2213740,-36.7938919
7780,1.5155219,3.6798692,9.2774839,-1.2442749,4.2824426,-2.9770992,-19.4791260,2.1475880,3.5026991,14.4503813,-5.1679387,-13.4885492
7790,1.3263810,3.7349355,9.1984758,-0.7633588,3.9618320,-3.7938931,-19.6131992,2.6336083,3.6056492,5.7022901,-1.7099236,19.9312973
7800,1.1156923,3.8139439,9.0691900,-0.3816794,2.4732823,-4.2671757,-19.6131992,2.7892308,4.1156116,-1.0000000,0.3129771,57.1679382
7810,0.9768293,3.8809812,8.8585014,-0.6488550,1.5648855,-4.4198475,-17.7912216,2.4037662,4.5417776,-3.9847329,4.7786260,89.0152664
7820,0.8810617,3.9288650,8.9853926,-1.0229008,1.5419847,-3.6412213,-15.1624022,2.0829449,4.8530221,-1.3587786,12.2137403,110.5267181
7830,0.8403605,3.8402798,9.1577749,-1.5343511,2.9007633,-2.5725191,-11.4585905,1.7621235,4.7500720,12.8625956,37.3740463,122.9389343
7840,0.8331779,3.7277529,9.1481981,-0.9618320,2.0763359,-1.5496184,-10.4673967,1.8842272,4.6255741,18.9847336,42.7480927,120.4198456
7850,1.0462608,3.5673423,9.1841106,1.5801526,-3.0229008,0.0458015,-9.3540983,1.7693061,3.3111639,19.6335869,40.0458031,101.8473282
7860,1.1731528,3.5745249,9.1529865,1.7786260,-3.7251909,-0.1755725,-9.8856087,1.7094513,3.2824337,13.5038166,36.5267181,96.9312973
7870,1.2042773,3.6128318,9.3205795,2.0000000,-4.0152674,-0.0381679,-11.0276365,1.8267666,3.4667864,7.4885497,29.3358784,94.7480927
7880,1.2880739,3.5936785,9.2750902,2.0839694,-3.7480917,-0.2671756,-12.1983957,1.7645177,3.6583214,3.6641221,20.3435116,95.5419846
7890,1.3694763,3.6583214,9.3110027,2.4580152,-3.2671757,-0.4198473,-14.0802279,1.3359578,3.7469065,0.8931298,13.2900763,99.5190811
7900,1.3886299,3.6535332,9.3469152,3.1297710,-1.4198474,-0.7175573,-17.8199520,0.4046180,3.8522508,-11.8320608,2.7709923,126.0305328
7910,1.3958124,3.6655040,9.1194677,2.9618320,-0.8778626,-1.0763359,-19.6131992,1.0941446,4.6303625,-21.0992374,-1.6946565,151.7786255
7920,1.3503228,3.6798692,9.0931320,2.6564887,-0.0076336,-1.4656489,-19.6131992,1.9488702,5.5018473,-24.8625946,-26.2824421,190.7862549
7930,1.3431402,3.7995787,8.9829988,2.0763359,0.9618320,-1.8854961,-19.6131992,1.4317253,5.8418221,-22.9847336,-54.1145020,234.6564941
7940,1.2258250,3.7900019,8.9446917,1.3511450,1.5038168,-2.0839694,-17.9923344,0.4860204,5.6766233,-17.7480907,-67.1832047,250.1297760
7950,1.3646880,3.8115497,8.8896255,0.2519084,1.6641221,-2.0687022,-15.6771526,-0.0861908,5.1403246,-9.0839691,-73.0229034,250.1297760
7960,1.3479286,3.7469065,8.9782104,-0.3129771,1.3587786,-2.0839694,-13.3859129,-0.5793939,3.9647777,-0.2671756,-75.3893127,250.1297760
7970,1.0079538,3.6631098,8.9446917,-0.7328244,-0.0839695,-3.0076337,-11.2502966,-1.1061156,2.7054341,3.1908398,-62.4503822,250.1297760
7980,1.2138541,3.6439564,8.8154058,-4.5267177,0.6412213,-0.5496183,-7.3118544,-1.1180865,1.0151364,-7.0610685,-9.0534353,250.1297760
7990,0.9911944,3.7373297,9.0213060,-4.3969464,0.7480916,-1.8854961,-4.9559722,-1.1132981,1.0295014,-17.6335869,20.5190830,250.1297760
8000,0.8212070,3.6678982,8.8896255,-6.0992365,-0.6870229,0.8778626,-3.3087699,-1.1109039,1.5586174,-26.6488552,50.3282433,250.1297760
8010,1.0366840,3.7133877,9.2008705,-6.4274807,-0.0687023,2.0305343,-2.1404054,-0.9457048,2.2792683,-30.3129768,67.3740463,250.1297760
8020,1.0366840,3.7804251,9.2822723,-5.5419846,-0.2366412,1.8549619,-0.7876883,-0.8451489,2.8706331,-29.6717548,70.1832047,250.1297760
8030,0.9672526,3.6990228,9.4235296,-4.0916033,-0.9618320,2.1221373,0.7948709,-0.8595140,3.2082138,-27.7633591,69.8320618,250.1297760
8040,0.8930327,3.7229645,9.4259243,-2.2366412,-0.7328244,3.4809160,1.9129574,-0.7541697,3.4093258,-26.6106873,66.7862625,250.1297760
8050,0.8810617,3.8330972,9.4115591,-1.2595420,-0.6641222,4.7251906,3.2489152,-0.6847382,3.5003049,-25.4656487,58.1832047,250.1297760
8060,0.7637464,3.8067613,9.2032642,1.2671756,0.4580153,5.5496182,6.3996682,-0.6440369,2.9927368,-23.3740463,37.4045792,250.1297760
8070,0.8259954,3.7923961,8.9782104,1.2290076,0.5648855,6.7862597,7.6111283,-0.5219333,2.4301023,-26.3664131,20.4809170,250.1297760
8080,0.9528874,3.7756367,9.0165176,1.1450381,0.8320611,7.8778625,8.7699156,-0.3782819,1.9081690,-32.5343513,-3.3435113,250.1297760
8090,1.0845678,3.7995787,9.0596132,0.9389313,0.1221374,8.0763359,10.0843258,-0.3208214,1.7453641,-39.4885483,-30.9312973,250.1297760
8100,1.3120158,3.7612717,9.0548248,0.2290076,-0.9770992,7.9389315,11.5567522,-0.4477134,1.7070571,-45.1832047,-53.6717567,250.1297760
8110,1.3120158,3.6439564,9.0452480,0.0152672,-2.0839694,7.0610685,12.4785156,-0.3327923,1.8578910,-47.5267181,-63.8244286,231.5038147
8120,1.4173602,3.6152260,9.0141230,-0.7175573,-3.9694657,6.2824426,12.9693241,-0.1388630,1.7549409,-47.8167953,-64.2519073,200.5038147
8130,1.5274929,3.5817075,9.0404596,-1.5038168,-4.5572519,5.4427481,13.1943779,0.1604107,1.8028246,-48.0763359,-55.2671738,169.1374054
8140,1.6615674,3.5457945,9.1577749,-1.9541985,-4.0992365,4.3129773,13.2901459,0.4141948,1.6831152,-49.1908379,-43.3893127,138.6106873
8150,1.6495966,3.4763632,9.4474716,-2.1984732,-2.9160306,3.0381680,13.4170380,0.5458752,1.5394639,-51.3282433,-29.1984730,110.9618301
8160,1.5586174,3.7349355,9.3397331,0.2137405,1.0381680,1.1908396,12.7442703,0.5841822,1.9512644,-58.7251892,71.5038147,42.1679382
8170,1.2665262,3.8714044,9.0763721,0.8091603,1.3664122,-2.0992367,14.0634689,0.0837966,5.0254035,-46.9694672,118.8396912,-23.2671757
8180,1.1611819,3.9288650,8.9255381,0.0000000,0.7404580,-1.8015267,15.0043850,0.3160330,6.1315193,-33.5877876,106.3664093,-73.9389343
8190,1.1683644,3.8570392,9.0021524,-0.3587786,0.1755725,-2.1755726,16.8526993,0.5746055,6.1578555,-23.5190830,71.3358765,-133.8473358
8200,1.1683644,3.9168940,9.1027079,-0.0534351,-0.9770992,-3.4274809,18.5908813,1.0462608,5.7101417,-22.7709923,44.1526718,-204.0610657
8210,1.1516051,3.7923961,9.2319946,0.6793893,-1.4580153,-3.5648854,18.9811344,1.6783268,5.6670465,-27.1908398,27.4961834,-250.1374054
8220,1.1420283,3.7253587,9.3014259,1.1450381,-1.2213740,-2.9541984,18.4520187,0.3998296,7.2376347,-24.6641216,11.8320608,-250.1374054
8230,1.1827296,3.6032550,9.2008705,0.9236641,-0.4809160,-2.1221373,18.5406036,0.1723816,7.8529415,-13.3969469,10.2061071,-250.1374054
8240,1.2090657,3.5984666,8.9973640,0.0229008,-0.0458015,-1.9847329,16.6587696,-3.5697365,6.8354111,11.1221371,39.2366409,-250.1374054
8250,1.2880739,3.5434003,8.9542685,-0.9007633,-0.9923664,-1.7709924,14.8607340,-6.9407554,6.2512288,21.2595425,64.0076370,-250.1374054
8260,1.4293311,3.5242469,9.0859489,-1.6488550,-1.9847329,-1.6183206,11.2407198,-12.5383701,5.2767935,33.6717567,93.9083939,-250.1374054
8270,1.5011568,3.6080434,9.1888990,-1.7862595,-2.0916030,-2.4809160,5.0756817,-18.7632618,4.6519103,57.2900772,119.5572510,-250.1374054
8280,1.5155219,3.6271970,9.2008705,-1.9923664,-0.9923664,-2.7557251,-3.4260850,-19.6131992,3.6152260,88.2977066,98.8015289,-250.1374054
8290,1.4221486,3.7325413,9.1386213,-2.5801528,1.0458015,-3.0687022,-16.1296539,-19.6131992,2.0733681,122.0916061,-14.0610685,-250.1374054
8300,1.3263810,3.7157819,9.1912937,-3.1832061,2.8702290,-3.0839694,-19.6131992,-19.6131992,-2.1691356,118.6412201,-192.4274750,-250.1374054
8310,1.1635761,3.7852135,9.0045462,-3.1679389,3.0687022,-2.9007633,-19.6131992,-18.2221756,-5.6933827,26.2442741,-250.1374054,-250.1374054
8320,0.9672526,3.7325413,9.1122847,-3.1221373,2.6030533,-2.7480917,-19.6131992,-13.6636391,-4.9487896,-125.1450348,-250.1374054,-250.1374054
8330,0.8858501,3.8091555,9.1027079,-3.0076337,2.0610688,-1.6641221,-19.6131992,-5.3558016,4.6423335,-250.1374054,-250.1374054,-250.1374054
8340,0.8212070,3.9288650,9.1745338,-2.0916030,1.0763359,-0.7709923,-19.6131992,-1.4221486,17.6116581,-250.1374054,-250.1374054,-243.1221313
8350,0.7254394,3.7612717,9.1505919,-1.9389313,1.0534351,1.0229008,-19.6131992,-3.5888901,19.6126022,-250.1374054,-74.0229034,-4.3664122
8360,0.7134684,3.7828193,9.0931320,-2.2519083,1.2442749,1.7709924,-19.6131992,-5.9950504,19.6126022,-113.6335907,159.0229034,174.2671814
8370,0.6416427,3.7085996,9.1697454,-1.9236641,1.3816794,3.0000000,-19.6131992,-5.4946647,19.6126022,69.3282471,250.1297760,250.1297760
8380,0.7374104,3.6607156,9.1146793,-1.1450381,-0.4885496,4.5648856,-12.1912127,-3.9599893,19.6126022,193.5343475,250.1297760,250.1297760
8390,0.9193687,3.6870518,9.2846670,-0.3435115,-2.6793892,5.9160304,-8.7938576,-2.3415172,15.9836092,250.1297760,250.1297760,234.1068726
8400,1.1324517,3.6535332,9.3421268,0.3129771,-3.9083970,6.7404580,-7.3812861,-0.7014975,10.8528605,250.1297760,250.1297760,175.3816833
8410,1.3551112,3.6750808,9.3397331,1.0839695,-3.9847329,6.5419846,-7.5967631,1.3144100,5.7269011,250.1297760,250.1297760,101.5038147
8420,1.3886299,3.6894460,9.1769285,1.5038168,-3.7175572,5.5725193,-7.2687593,3.0717452,1.1851238,223.5954132,72.8702316,29.9465656
8430,1.4341195,3.6319854,9.1051025,1.2213740,-3.2824428,5.0381680,-7.5129666,4.1251884,-2.8849983,169.2824402,-62.8931313,-23.0458012
8440,1.4939742,3.6487448,9.0691900,0.2748092,-2.2213740,4.5801525,-8.0516596,4.7668314,-5.0445571,102.1068726,-148.5648804,-52.9923668
8450,1.5562232,3.7301471,9.0452480,-0.5496183,-1.0763359,3.7175572,-8.0372944,4.6854286,-4.8985114,38.2824440,-204.1374054,-63.8015251
8460,1.5969244,3.6870518,9.0404596,-1.4045801,-0.0229008,2.2519083,-7.4650826,4.3286943,-3.2704628,-9.8549614,-236.7480927,-69.0763321
8470,1.6088953,3.6607156,9.1673517,-1.4198474,0.6183206,1.0229008,-7.2089043,4.0509686,-1.3694763,-39.1908379,-236.2595367,-67.3511429
8480,1.4580613,3.6535332,9.2679071,-1.1603054,0.4503817,0.6259542,-7.7284436,3.8761928,0.3160330,-53.6564903,-199.1450348,-57.1450386
8490,1.3742647,3.6319854,9.2319946,-0.6412213,0.0152672,0.2366412,-8.5257082,3.7684543,1.6735384,-56.0228996,-129.2900696,-32.6717567
8500,1.3287752,3.6391680,9.2607250,-0.2748092,0.0992366,-0.2061069,-8.8728657,3.5601597,3.1746953,-47.3511467,-51.5572510,-1.8625954
8510,1.2162483,3.6415622,9.2415714,0.2824427,0.1679389,-0.1221374,-8.4754305,3.1603301,4.4316444,-30.7862587,17.6183205,26.4961834
8520,1.2665262,3.7085996,9.2128410,0.7099237,0.0305344,-0.1908397,-7.7308378,2.6264257,4.8195033,-10.9541988,62.1145020,45.2519073
8530,1.2210367,3.7516949,9.1936874,0.5877863,-0.3587786,0.3435115,-6.9383612,2.1523764,4.7931671,6.1068702,82.8015289,52.3435097
8540,1.2569494,3.6774750,9.2511482,1.0076336,-0.7480916,-0.1450382,-6.2224984,1.9919657,4.3406653,15.7251911,84.7480927,49.1908379
8550,1.2737088,3.8067613,9.0691900,0.5267175,-1.1908396,0.2061069,-5.5976148,1.9776005,3.7301471,17.6335869,77.5343475,39.9007645
8560,1.2880739,3.7325413,9.1673517,1.0381680,-0.5877863,-0.2213740,-5.2767935,1.8267666,3.3782012,14.1603050,64.0610657,27.0458012
8570,1.3479286,3.8043671,8.9829988,-0.1374046,-0.4427481,-0.6030535,-5.3222833,1.8267666,3.1890604,8.2824430,45.9083977,11.1297712
8580,1.3575054,3.7540891,9.1027079,0.4809160,-0.5801527,-1.2137405,-5.5928264,1.9273225,3.4260850,2.3511450,22.1984730,-5.6030536
8590,1.3718705,3.7229645,8.9901810,0.1221374,-0.7557252,-2.0229008,-6.0860295,2.1236460,3.7852135,-3.4503818,-26.1145039,-37.7862587
8600,1.3096216,3.7038112,9.1170731,-0.9465649,1.2900764,-1.6717557,-6.3709383,2.0805507,3.9360476,-4.8244276,-36.9465637,-48.7404594
8610,1.3622938,3.7373297,9.1314383,-1.6641221,2.0610688,-1.9847329,-6.6486640,1.9847831,4.1539187,-4.9236641,-38.7786255,-56.9465637
8620,1.2904681,3.6918402,9.0715837,-2.0839694,1.9923664,-2.4732823,-7.1035600,1.9321109,4.2377152,-3.4732823,-34.8778610,-63.7557259
8630,1.2258250,3.7157819,9.0979195,-2.5267177,1.8778626,-2.1908398,-7.7547798,1.7836711,4.4843168,-0.2977099,-26.2213745,-66.3358765
8640,1.0534433,3.6918402,9.2056589,-2.4809160,2.0687022,-1.3358779,-9.8903971,1.7405758,4.8937230,6.1679387,-2.0839694,-62.1603050
8650,0.9816177,3.6942344,9.2391768,-1.9618320,1.5343511,-0.3664122,-11.0156660,2.0039365,5.1211715,9.7251911,1.5419847,-58.9389305
8660,0.8954269,3.6655040,9.1984758,-0.3664122,-0.2366412,2.4885497,-12.8615856,2.2696917,5.0541339,17.1755733,-12.7862597,-48.9389305
8670,1.0151364,3.6248028,9.2200232,-0.4809160,-0.1221374,3.7480917,-13.3236647,2.1068866,4.8195033,18.4503822,-22.8320618,-43.5114517
8680,1.0151364,3.7038112,9.2463598,0.9541985,-1.5343511,4.1221375,-13.7857428,2.0949159,4.5274124,17.1068707,-25.9465656,-38.4885483
8690,1.2306134,3.7301471,9.2128410,0.7938932,-2.9847329,4.1221375,-14.9062233,2.1835008,4.4771342,15.3129768,-20.4198475,-31.9312973
8700,1.3431402,3.6894460,9.1458035,0.3969466,-1.7175573,4.0839696,-17.8462887,2.2672975,4.8218975,13.9160309,4.2061067,-6.3358779
8710,1.4006008,3.7157819,9.1314383,0.2290076,-1.6412214,2.9236641,-19.6131992,2.4851687,5.0613165,14.6641226,9.9236641,9.8549614
8720,1.4269369,3.7349355,9.1074963,-0.2213740,-1.2824427,2.4045801,-19.6131992,2.9256995,5.4491754,17.2061062,4.0229006,30.4503822
8730,1.4628497,3.7469065,9.1266499,-0.7175573,-0.7557252,2.2824428,-19.6131992,3.1411765,5.4874821,20.4503822,-11.5725193,52.3358765
8740,1.3910241,3.7660601,9.0620070,-0.6946565,0.7709923,-0.0687023,-19.1870346,3.0932927,5.5880380,35.9465637,-58.0152664,95.1297684
8750,1.2425843,3.7732425,9.0955257,-0.9770992,1.2366412,-0.6488550,-19.2013988,2.5905130,5.0948353,46.8396950,-64.4427490,98.7251892
8760,1.2689204,3.7660601,9.0883436,-1.2977099,1.2977099,-0.6717557,-19.6131992,2.2265961,4.4627690,55.2748108,-69.5419846,106.4656525
8770,1.2473727,3.6774750,9.1769285,-1.2213740,1.1450381,-1.0458015,-19.6131992,2.3415172,3.5769191,55.9465637,-63.0916023,126.2213745
8780,1.1707586,3.6942344,9.2056589,-1.3206106,1.0687023,-0.9541985,-19.6131992,2.3702476,2.8514795,49.2290077,-45.2900772,160.6946564
8790,1.1827296,3.7157819,9.1865053,-0.8473282,0.3969466,-0.9618320,-19.6131992,1.7908537,2.0087249,36.7786255,-19.2824421,204.3587799
8800,1.2018831,3.6726866,9.2583303,0.7175573,-0.7633588,-0.4351145,-18.3514614,-0.0454896,1.9752063,-0.3740458,35.8702278,250.1297760
8810,1.2066715,3.6200144,9.2200232,1.0534351,-0.6717557,-0.3511450,-16.4935703,-0.9744351,2.5402350,-19.4885502,57.5877876,250.1297760
8820,1.2856797,3.6439564,9.1505919,1.1297710,-0.7862595,-0.6488550,-14.6356802,-1.8674678,3.2608860,-35.7480927,66.8167953,250.1297760
8830,1.2569494,3.6583214,9.1242561,1.0152671,-1.0763359,-0.7633588,-12.5168228,-2.8419030,4.2041965,-46.5725174,63.3435097,250.1297760
8840,1.2497669,3.6774750,9.1386213,0.7862595,-0.9312977,-0.0152672,-10.4482431,-3.3901722,4.8625989,-53.2061081,48.2290077,250.1297760
8850,1.3958124,3.6248028,9.1601686,0.2442748,-0.4809160,-0.6030535,-8.2862902,-3.8426740,5.4443870,-54.9389305,31.1297703,250.1297760
8860,1.3479286,3.7349355,9.1769285,0.0687023,0.2213740,-1.1755725,-6.2392578,-4.0677280,6.0549049,-51.3129768,18.1297703,250.1297760
8870,1.2904681,3.6415622,9.1218615,-0.3511450,0.9465649,-1.1068702,-4.4172797,-4.2353210,6.5265603,-41.8396950,7.5114503,250.1297760
8880,1.2497669,3.6750808,9.0476418,-0.6259542,1.4809160,-0.5267175,-2.5019281,-4.2185616,6.4595232,-29.9770985,3.5648854,250.1297760
8890,1.1731528,3.7684543,9.2056589,-0.3435115,0.8854962,-0.4961832,-0.8571198,-3.9528067,6.4619174,-18.6870232,10.3969469,250.1297760
8900,1.0941446,3.8283088,9.0093346,0.6564885,0.1679389,-0.2671756,3.2848279,-3.3183465,5.2001796,-0.6030535,85.3511429,250.1297760
8910,1.4125718,3.7085996,9.2439651,0.2748092,-1.9847329,-1.0839695,7.4674768,-3.8857694,6.8497758,-10.9541988,95.4198456,250.1297760
8920,1.5179161,3.6583214,9.2990322,0.4580153,-1.7175573,-1.8320611,8.6047173,-3.5745249,7.9295554,-0.6030535,102.0305328,250.1297760
8930,1.4963684,3.6176202,9.3756456,0.8091603,-1.2900764,-2.3206108,9.9239149,-3.3351059,8.7747040,14.9923668,114.3053436,250.1297760
8940,1.5346755,3.5218527,9.3349447,1.2824427,-0.9847328,-2.6412213,11.3724003,-3.0478032,9.4307127,32.1374054,126.6870193,250.1297760
8950,1.5490406,3.5673423,9.3086090,1.6412214,0.0305344,-3.0916030,13.1105814,-2.3534882,9.9670105,50.0000000,131.8854980,250.1297760
8960,1.4197544,3.6559272,9.3253679,1.8473282,1.3740458,-3.8091602,15.8040447,-1.7142396,10.3357162,66.9694672,120.7251892,226.8320618
8970,1.3096216,3.7564833,9.2176294,2.1297710,2.0229008,-4.5572519,18.3514614,-1.6017127,10.4338779,85.7404556,84.7404556,172.3206177
8980,1.1683644,3.8115497,9.1505919,2.4885497,2.4732823,-4.4503818,19.6126022,-1.3168042,9.8329363,104.2290039,33.6335869,100.3816757
8990,1.0342898,3.8809812,9.0787668,2.5267177,2.5725191,-3.8396947,19.6126022,-1.2306134,8.3341732,122.2213745,-23.5648861,13.3129768
