timestamp,rxacclX,rxacclY,rxacclZ,rxgyroX,rxgyroY,rxgyroZ,txacclX,txacclY,txacclZ,txgyroX,txgyroY,txgyroZ
0,-2.0805507,-1.4532729,9.2822723,-8.5190840,-2.9541984,-4.5496182,-1.6400198,1.8483143,10.0555954,-20.1374054,-29.5572510,7.4503818
10,-2.2194135,-1.6160779,9.4163475,-9.5496187,-2.6259542,-4.6259542,-1.4772149,1.7214222,10.1753054,-21.1145039,-30.1068707,8.0152674
20,-2.4301023,-1.5969244,9.5671806,-9.3282442,-3.9389312,-4.0992365,-1.2976507,1.5610116,10.5440102,-19.7709923,-28.8091602,8.6717558
30,-2.4588325,-1.5849534,9.6940727,-8.8244276,-3.9389312,-2.6412213,-1.1061156,1.5083394,10.6349897,-18.1679382,-25.6030540,8.8091602
40,-2.5019281,-1.6855093,9.7108326,-7.6946564,-3.1068702,-0.9541985,-1.1516051,1.3862357,10.8504667,-14.7251911,-23.1068707,9.2671757
50,-2.4827745,-1.6831152,9.8281479,-5.7404580,-3.2824428,1.3129771,-0.9361281,1.4341195,10.7283630,-12.4427481,-22.1297703,7.6870227
60,-2.3798244,-1.6376256,9.8089943,-3.1221373,-4.1679387,4.0381680,-0.8762733,1.4891858,10.6756907,-11.9312973,-21.7480907,5.3511453
70,-1.8076130,-1.6184721,9.3732519,1.3129771,-9.7480917,-3.1755726,-10.4147243,0.6943150,16.1128960,118.9083939,250.1297760,167.5419922
80,-2.0135133,-1.6017127,9.5312681,0.5343512,-7.1526718,-1.6183206,-8.3389616,0.9768293,15.8974180,140.7175598,250.1297760,218.5496216
90,-2.0446377,-1.6328372,9.5049324,-0.1068702,-6.9083967,-0.8931298,-4.3837609,1.1779412,16.3666782,154.1908417,250.1297760,247.8167877
100,-2.0949159,-1.6663558,9.4283180,-1.2748091,-5.4122138,0.3435115,-0.5626345,1.3311694,15.9285421,155.5038147,250.1297760,237.3129730
110,-2.2002602,-1.6256547,9.4929609,-2.9694657,-4.9312978,2.6564887,0.7062859,1.4460905,15.7417955,154.2442780,250.1297760,203.5419922
120,-2.1164634,-1.5993185,9.5959110,-3.8702290,-4.8320613,4.8244276,0.5530578,1.9704180,14.9038296,150.4351196,250.1297760,163.0229034
130,-2.1020982,-1.5466464,9.7204094,-2.7862597,-4.8167939,6.0839696,-0.3926471,2.4253139,13.9126348,148.8931274,223.3969421,128.6259613
140,-1.9081690,-1.5107336,9.5073261,-2.2824428,-3.6488550,6.7862597,-1.3814473,3.0597742,12.4952745,150.2290039,184.3511505,105.1832047
150,-1.7238164,-1.4460905,9.6509781,-2.3282442,-2.6946564,7.2748094,-2.2002602,3.5529771,10.4099360,150.3435059,169.9313049,91.0152664
160,-1.5442522,-1.3862357,9.6677370,-1.7099236,-3.1068702,6.6335878,-2.6599445,4.0940638,8.3868456,147.9084015,184.0229034,84.2595444
170,-1.4867916,-1.3790531,9.5959110,-1.1755725,-3.4656489,4.8244276,-3.0071020,4.3215117,6.7468257,142.5038147,208.2748108,81.5190811
180,-1.3886299,-1.2952565,9.6054878,-1.2900764,-2.5725191,2.8854961,-3.2824337,4.5154414,5.4348102,133.7480927,221.1908417,79.8473282
190,-1.4269369,-1.3886299,9.5552101,-1.6335878,-1.4732825,1.3206106,-3.1076579,5.1858144,4.4292507,119.7251892,219.4351196,74.8473282
200,-1.5035510,-1.4460905,9.5049324,-1.4885496,-1.6488550,0.3893130,-1.8124014,6.5361371,4.6926112,101.3282471,236.0229034,56.5801544
210,-1.5466464,-1.4077834,9.4929609,-0.7175573,-3.1908398,-1.1526718,-1.4173602,6.0860295,3.4021432,88.8320618,230.1374054,36.5267181
220,-1.5993185,-1.4915800,9.4809904,-1.3893130,-2.7022901,-2.2900763,-3.0094962,5.9064655,2.9256995,80.2748108,184.5190887,28.2748089
230,-1.7357874,-1.5825592,9.4953556,-2.8778627,-1.3893130,-2.3129771,-3.2824337,5.9711084,2.4779861,71.4351120,138.1145020,25.3282452
240,-1.9249283,-1.6663558,9.5432396,-2.8244274,-1.2213740,-1.5190840,-3.3087699,6.3110833,1.6543850,61.3587799,106.0457993,22.1068707
250,-2.0733681,-1.6902977,9.6414013,-2.3511450,-3.4961832,-0.4503817,-3.0525916,6.6342988,0.7948709,47.8396950,84.6946564,14.9007635
260,-2.0446377,-1.7932479,9.6366129,-1.9236641,-4.0839696,1.1450381,-2.8586621,6.8904772,-0.0861908,32.6030540,65.4351120,3.1832061
270,-1.9464760,-1.6902977,9.7371683,-1.9541985,-3.1450381,3.0000000,-2.8706331,6.9048424,-0.7398046,15.9770994,45.6183205,-7.8854961
280,-1.8339491,-1.7094513,9.7204094,-1.1068702,-1.8931298,4.1374044,-2.5809362,6.9527264,-1.5945302,-4.1984735,21.2671757,-21.6259537
290,-1.8554969,-1.6711442,9.5695753,0.0076336,-1.2366412,4.6793895,-2.6024840,6.9431496,-1.8866212,-25.6183205,-0.4122137,-36.0839691
300,-1.7788827,-1.6184721,9.4331064,-0.4198473,-1.3740458,5.2366414,-3.0334380,7.0053983,-1.3622938,-44.5801544,-14.4580154,-46.6564903
310,-1.7190280,-1.5274929,9.3852224,-1.4656489,-3.0229008,4.8396945,-3.6702924,6.8425937,-0.0814024,-59.7557259,-16.0839691,-52.7480927
320,-1.6735384,-1.4484847,9.3971939,-1.5419847,-5.3587785,3.7862597,-4.0174499,6.9168134,1.4891858,-65.7633591,-10.8244276,-60.7404594
330,-1.6112895,-1.3934183,9.4546537,-2.1603053,-5.5343513,3.1984732,-4.2808108,5.9088597,2.8754215,-61.8473282,-7.3816795,-74.3358765
340,-1.6208663,-1.4101776,9.3732519,-3.0687022,-3.3511450,2.8244274,-4.9870968,5.1092005,3.8953462,-52.3969460,-0.2366412,-86.2900772
350,-1.6831152,-1.4245427,9.5384512,-3.4961832,-2.4656489,2.5038168,-5.9591374,4.9296360,3.9552009,-40.2748108,2.2137403,-88.1297684
360,-1.7094513,-1.4173602,9.5767574,-2.6717558,-2.4198472,2.5114503,-7.2184811,4.8266859,3.5338237,-32.0534363,-8.0381680,-74.9847336
370,-1.8483143,-1.4772149,9.5288744,-2.7557251,-3.1526718,3.0000000,-7.3501616,5.2336984,2.5330524,-33.5496178,-16.8549614,-47.3435097
380,-1.8363433,-1.5035510,9.4977493,-2.9083970,-2.8931298,3.3206108,-6.5313487,5.7987270,1.9704180,-42.2061081,-10.3206110,-26.4961834
390,-1.8818330,-1.6136837,9.5240860,-4.6870227,-1.3282443,4.4122138,-5.6766233,5.8059096,2.5378408,-48.9465637,12.0000000,-21.6335869
400,-1.9704180,-1.5897418,9.4857788,-4.9541984,-0.8854962,5.3740458,-5.9735026,5.4252334,3.0238612,-50.1755714,31.4885502,-24.7251911
410,-1.8890154,-1.6136837,9.5264797,-5.2900763,-0.5648855,6.4198475,-6.4236102,5.3629842,3.0286496,-49.0534363,36.7328262,-27.2061062
420,-1.8818330,-1.6352314,9.6054878,-5.0458016,-0.4351145,7.5954199,-6.9168134,5.5593081,2.4899571,-55.2519073,21.8854961,-30.9465656
430,-1.8985922,-1.6448082,9.6174593,-4.6717558,-2.4045801,8.3969469,-7.0149751,5.5257893,2.1930776,-70.3435135,-6.9770994,-34.9083977
440,-1.7309990,-1.5705882,9.5743637,-4.1603055,-4.0000000,8.2442751,-6.6271162,5.3414369,2.5976956,-86.7328262,-37.9771004,-40.2519073
450,-1.7597293,-1.6448082,9.6414013,-2.7404580,-6.5114503,8.0763359,-6.0165982,4.9056940,3.3398943,-99.8015289,-62.0992355,-47.2137413
460,-1.7429699,-1.5610116,9.6318245,-1.1526718,-10.1450386,8.4045801,-5.3941088,4.4053087,3.9982965,-107.1832047,-78.1221390,-56.6259537
470,-1.4772149,-1.5250987,9.5001440,-0.3511450,-11.3282442,8.1450386,-5.4755111,4.1826491,4.7716198,-110.0687027,-82.4580154,-65.2290039
480,-1.4197544,-1.4748207,9.4594421,-0.3435115,-10.4732828,7.0305343,-6.2033448,3.9121056,5.6024032,-109.3740463,-70.0305328,-67.2977066
490,-1.3239868,-1.4676381,9.6509781,-0.3358779,-9.7099237,7.0458016,-7.0053983,3.7133877,6.3374195,-106.3511429,-50.4656487,-64.2213745
500,-1.2689204,-1.5442522,9.6821022,0.9541985,-8.0305347,6.5877862,-7.5488791,3.5074875,6.8832946,-100.6412201,-37.4580154,-59.5725174
510,-1.2713146,-1.5179161,9.6485834,0.8320611,-5.9236641,6.6030536,-7.8960366,3.4212968,7.5033898,-93.6335907,-28.4580154,-53.6946564
520,-1.2952565,-1.4963684,9.6294298,-2.2137403,-3.5877862,7.0610685,-8.0348997,3.2991931,7.8864598,-86.5190811,-20.5419846,-46.8015251
530,-1.3934183,-1.4532729,9.6940727,-2.6488550,-2.9083970,6.2442746,-8.1689749,3.0238612,8.1498213,-79.1832047,-19.8625946,-40.6564903
540,-1.5370697,-1.4149660,9.6749191,-1.2442749,-2.8473282,6.0381680,-8.3365679,2.8035958,8.0229292,-73.6870193,-23.4809170,-35.0992355
550,-1.5011568,-1.5274929,9.6246414,-0.4274809,-3.2442749,6.2213740,-8.7507620,2.6599445,8.0803890,-68.7633591,-17.6183205,-26.8396950
560,-1.5346755,-1.5298871,9.6198530,-0.0763359,-3.2671757,5.4351144,-9.3804340,2.6096666,8.5688038,-62.4580154,3.1755726,-12.2977095
570,-1.5538290,-1.5155219,9.5911226,0.2290076,-3.9541984,4.9770994,-9.3277617,2.0949159,9.0787668,-41.8015251,38.6870232,18.3129768
580,-1.5538290,-1.6017127,9.5121145,-0.2519084,-4.8167939,4.8931298,-8.7268209,1.9153515,9.1673517,-31.9007626,35.8854980,25.8778629
590,-1.5274929,-1.6136837,9.5216913,-1.2137405,-6.3969464,4.1374044,-8.1809454,1.8483143,8.9494801,-24.5190830,25.6335869,27.6183205
600,-1.5179161,-1.6376256,9.5384512,-1.3893130,-7.6793895,3.8167939,-7.5201492,1.8507085,8.7459745,-18.3893127,15.2366409,26.9465656
610,-1.4484847,-1.7429699,9.5983057,-1.5267175,-7.8320613,3.6717558,-6.8162575,1.9392935,8.5257082,-13.4732828,5.2290077,24.4122143
620,-1.5346755,-1.6902977,9.6198530,-1.1145039,-8.2748089,3.5648854,-6.0692701,2.2002602,8.4131813,-9.1832066,-2.3587787,17.0916023
630,-1.3982066,-1.5681942,9.5192976,-1.1832061,-7.4809160,3.3587787,-5.8274570,2.3367288,8.3126259,-4.5419846,-10.3664122,8.8320608
640,-1.4269369,-1.6519908,9.5599985,-1.2977099,-6.0229006,3.2061069,-5.6311336,2.5641768,8.0564480,0.6412213,-17.7786255,-0.4503817
650,-1.4125718,-1.6280488,9.6150646,-1.9083970,-5.6030536,3.1068702,-5.5233951,2.8179610,7.6254935,4.8167939,-24.1450386,-9.6183205
660,-1.4460905,-1.5250987,9.6485834,-1.7938931,-5.1526718,3.3129771,-5.4539638,3.0262554,6.7037306,6.6259542,-30.0076332,-17.7328243
670,-1.4460905,-1.5179161,9.7275915,-0.4580153,-6.3435116,2.6030533,-5.3007355,3.2153964,5.8513989,4.7328243,-35.5114517,-23.9007626
680,-1.5035510,-1.4413021,9.6102762,1.0152671,-7.1374044,2.6793892,-5.3893204,3.2225790,5.0301919,-0.8702290,-36.4122124,-30.3664131
690,-1.5729824,-1.4556671,9.7587166,1.6335878,-9.8625956,2.4427481,-6.2081332,3.3686244,4.9440012,-7.2519083,-27.0000000,-32.3129768
700,-1.4843974,-1.4293311,9.5911226,0.0305344,-10.6106873,2.3129771,-7.2065101,3.5625539,5.6143742,-11.5877867,-14.3969469,-27.2824421
710,-1.5993185,-1.4317253,9.6006994,1.4961832,-10.9541988,2.8244274,-7.5560617,3.5697365,6.1075773,-12.8244276,-9.8091602,-20.8396950
720,-1.5538290,-1.4077834,9.6198530,2.2519083,-10.7175570,3.2900763,-7.6374645,3.5529771,6.4236102,-12.0992365,-12.0610685,-17.0992374
730,-1.4053892,-1.3838415,9.4139528,0.1374046,-7.9236641,5.0687022,-7.4914188,3.6176202,6.7037306,-10.4809160,-16.8473282,-13.9465647
740,-1.2569494,-1.4508789,9.6126709,-1.5267175,-5.8320613,4.8244276,-7.3573442,3.5386121,6.9216018,-7.3206105,-21.5343513,-12.0687027
750,-1.2186425,-1.5107336,9.5695753,-3.2900763,-5.5572519,4.1832061,-6.9958215,3.4979107,7.1849627,-3.4656489,-22.7633591,-10.1526718
760,-1.1947005,-1.4820032,9.7754755,-2.7251909,-7.2061067,3.1755726,-6.6558466,3.3997490,7.1801744,1.6870229,-21.0076332,-10.2824430
770,-1.1707586,-1.5346755,9.7563219,-0.9694657,-10.1068707,2.1908398,-6.4834652,3.4045374,6.8090749,5.6412215,-16.6030540,-11.6183205
780,-1.1156923,-1.5873476,9.8449068,0.0000000,-10.8167934,1.4045801,-6.4834652,3.3758070,6.5864153,7.9618320,-14.3587790,-13.5496187
790,-1.2569494,-1.5849534,9.8089943,1.1755725,-10.8015270,0.2748092,-6.3709383,3.3638363,6.2153158,7.8854961,-18.8320618,-16.8473282
800,-1.2569494,-1.6376256,9.7395630,2.0458016,-11.0916033,0.5190840,-6.2248926,3.3159523,5.9615316,4.9465647,-24.4122143,-21.0076332
810,-1.2473727,-1.5658000,9.5408449,1.6641221,-10.6183205,0.9083970,-6.1961622,3.3207407,5.8753409,0.4732825,-24.5648861,-25.8625946
820,-1.2880739,-1.6065011,9.5815458,0.7175573,-9.3511448,0.8015267,-6.5193777,3.3111639,5.8346395,-3.3893130,-21.5648861,-28.7938938
830,-1.3120158,-1.5562232,9.6557665,0.2519084,-8.5801525,1.6259542,-6.8473821,3.1770895,6.0549049,-6.0610685,-17.9541988,-29.9618320
840,-1.2282192,-1.4652439,9.7443514,-0.4045801,-8.2595415,2.6717558,-7.1586266,3.1603301,6.1985564,-7.9618320,-16.7251911,-29.7099228
850,-1.1468167,-1.4173602,9.7204094,-0.2137405,-7.5572519,3.3206108,-7.8361821,3.1555417,6.3278427,-9.5572519,-12.1984730,-26.3664131
860,-1.0151364,-1.3982066,9.7874460,-0.7022901,-5.9389315,3.8702290,-8.9111729,3.1651185,6.9120250,-10.0839691,-2.0839694,-18.3587780
870,-0.9409165,-1.3862357,9.7970228,0.1450382,-4.0305343,3.6870229,-9.2822723,3.0813217,7.5943689,-7.2213740,7.9236641,-6.1068702
880,-0.9073978,-1.4867916,9.6030941,-1.3511450,-2.2137403,1.4885496,-9.5312681,2.6599445,8.5137377,14.1450386,27.8167934,25.5038166
890,-0.9385223,-1.3862357,9.5863342,-1.4961832,-2.4580152,0.9312977,-9.8473015,2.4899571,8.4850073,21.0458012,40.9694672,37.3587799
900,-1.0079538,-1.4269369,9.7347746,-2.5877862,-3.2061069,-0.5648855,-10.1705170,2.3917952,8.7603388,28.4580154,55.1450386,49.4656487
910,-1.1970947,-1.5274929,9.7539282,-1.4351145,-4.0076337,-1.2977099,-10.3883877,2.3079987,9.1003141,36.3206100,68.1679382,62.3969460
920,-1.1970947,-1.5011568,9.7419567,-0.9770992,-5.1526718,-0.9694657,-10.4937325,2.2337787,9.5360565,45.7480927,81.8625946,74.6870193
930,-1.2066715,-1.6400198,9.6318245,-1.3206106,-5.6030536,-0.6870229,-10.4793673,2.1954718,9.9526453,57.2442741,97.4809189,87.7328262
940,-1.1875180,-1.6543850,9.6892843,-1.6564885,-5.7862597,-0.1297710,-10.6254129,2.0925217,10.0460186,69.8244247,109.5877838,100.0534363
950,-1.2042773,-1.6902977,9.6701307,-2.0076337,-6.1145039,0.7633588,-10.4817610,2.1811066,9.9095497,81.8015289,116.7709961,112.3358765
960,-1.1252691,-1.6448082,9.6246414,-2.2366412,-6.2366414,1.9312977,-10.4195127,2.2289903,9.6006994,91.8549652,120.1832047,124.0839691
970,-1.1970947,-1.6112895,9.7395630,-1.9618320,-6.2366414,2.6488550,-10.3452930,2.3319404,9.2224178,100.4809189,125.9923630,133.9847260
980,-1.0725969,-1.6735384,9.6557665,-2.7862597,-5.8320613,3.2977099,-9.9454632,2.2720859,8.9949694,109.3587799,132.8396912,145.3740387
990,-0.9911944,-1.5466464,9.7251978,-2.5419848,-5.3816795,3.5877862,-9.4738073,2.1427996,8.5281029,118.2671738,140.1526642,155.8167877
1000,-1.0749911,-1.4748207,9.7323799,-1.9923664,-5.5267177,3.2977099,-9.2774839,2.3056045,8.3724804,126.6183243,152.0076294,164.9770966
1010,-1.0725969,-1.4820032,9.8664551,0.5114504,-7.0381680,2.6412213,-8.9782104,2.4755919,8.2575598,135.4274750,161.1984711,172.9007568
1020,-1.0055596,-1.3191984,9.8233595,1.9160305,-8.1908398,2.3282442,-9.2319946,2.7533178,7.9989872,144.2824402,166.8091583,182.6717529
1030,-0.9840119,-1.4460905,9.6414013,0.9847328,-6.6946564,2.0076337,-8.8369532,2.8658447,7.4914188,152.8244324,169.2977142,193.4885559
1040,-0.9576758,-1.3790531,9.5839405,0.0916031,-4.8931298,1.9923664,-7.9606800,2.9448531,6.3278427,158.9770966,173.0992432,203.3282471
1050,-0.9888002,-1.3742647,9.6797075,-1.0839695,-5.0992365,2.1374047,-7.1370788,3.2920105,5.4611464,162.4427490,183.8091583,210.7099304
1060,-0.8858501,-1.4436963,9.6916790,-0.9694657,-5.8854961,1.7938931,-6.4475522,3.5098817,4.8721757,165.0076294,196.4732819,218.2748108
1070,-0.8451489,-1.4820032,9.8377247,-0.7938932,-7.0534353,1.3969465,-5.4779053,4.1299767,4.0389977,165.8549652,208.6641235,226.2137451
1080,-0.7757174,-1.5873476,9.7156210,-0.8244275,-6.7022901,1.0000000,-4.2496862,5.0493455,2.7413468,166.0534363,216.3893127,230.1908417
1090,-0.8954269,-1.5658000,9.7036495,-1.1450381,-6.0992365,0.6412213,-2.9687948,5.7221127,1.4413021,161.9389343,226.8244324,230.7557220
1100,-0.9864060,-1.5993185,9.6677370,-1.3740458,-5.7175574,0.8473282,-2.0087249,6.2201042,-0.2489957,155.4351196,236.1526642,232.3358765
1110,-0.9816177,-1.5873476,9.6677370,-1.6717557,-5.8549619,1.0992366,-0.5985473,6.8856888,-1.8746504,146.5877838,239.4732819,234.2366486
1120,-1.0199248,-1.5586174,9.7371683,-1.3893130,-5.7328243,1.1679389,1.0558375,7.4195933,-4.2089849,134.0458069,240.0839691,232.3435059
1130,-0.9744351,-1.5610116,9.8065996,-0.6946565,-6.1297708,1.4885496,2.6838863,7.8768835,-5.9663200,116.6564865,242.9618378,225.3893127
1140,-0.9888002,-1.5753766,9.7970228,-0.3969466,-7.0687022,2.4580152,4.7452836,8.3533268,-7.8242111,94.8854980,247.3816833,212.1603088
1150,-0.9193687,-1.4556671,9.8113880,-0.1908397,-6.3282442,3.2519083,6.4786768,8.4969788,-9.4259243,68.0839691,240.8396912,190.8091583
1160,-0.8738791,-1.4460905,9.8544836,0.9389313,-5.8396945,3.5267177,8.0756006,8.8656836,-10.0986910,35.9847336,209.8854980,159.8473358
1170,-0.7589580,-1.3934183,9.7778702,1.1450381,-5.8396945,4.0000000,9.8281479,9.2343884,-10.0627785,0.4274809,151.3206177,115.5343475
1180,-0.5793939,-1.4101776,9.7563219,1.8244275,-5.2442746,3.7557251,11.5136566,9.2798786,-9.3181858,-33.8091621,76.1908417,60.1908379
1190,-0.6320660,-1.3503228,9.7156210,1.2595420,-4.7480917,4.0305343,11.8512383,9.1505919,-8.0396881,-61.5343513,9.1908398,-0.3816794
1200,-0.4453192,-1.3622938,9.6557665,0.3358779,-2.6946564,3.1221373,11.2574787,8.9183559,-7.1059542,-82.1832047,-37.0305328,-54.4732819
1210,-0.5147507,-1.3646880,9.7730818,-0.4503817,-0.9541985,3.0229008,10.0436249,8.5616217,-5.9639258,-98.1526718,-70.4351120,-101.8702316
1220,-0.5482694,-1.3168042,9.6964674,-0.9389313,0.1526718,2.0687022,8.8920193,7.9798336,-5.0038562,-112.6335907,-84.4122162,-140.3893127
1230,-0.5865764,-1.3335636,9.7132263,-0.7557252,-0.6793893,1.3816794,7.2448173,7.4602942,-4.0940638,-122.8244247,-87.8396912,-173.8244324
1240,-0.5889706,-1.3598996,9.6868906,-1.6564885,-0.7328244,0.8244275,5.0349803,6.9239960,-3.2704628,-130.2900696,-88.5267181,-200.4809113
1250,-0.7134684,-1.4173602,9.6054878,-1.9007634,-0.7404580,-0.0305344,2.9903426,6.7157016,-2.7940190,-137.6030579,-96.9007645,-220.8320618
1260,-0.6703730,-1.5346755,9.7036495,-3.0916030,0.5572519,-0.0381679,0.9528874,6.1530671,-2.2337787,-147.5267181,-114.4580154,-237.6106873
1270,-0.7948709,-1.5897418,9.7491398,-2.8931298,1.3053435,-0.3282443,-0.4309541,5.5114241,-1.5729824,-159.2671814,-138.8778687,-250.1374054
1280,-0.8236012,-1.6495966,9.7228031,-3.4274809,1.1450381,0.0687023,-2.0374553,4.6471219,-0.8834559,-172.0686951,-162.3664093,-250.1374054
1290,-0.7613522,-1.7860653,9.7994175,-3.2213740,0.8854962,-0.2290076,-3.4572096,3.8618276,0.4118006,-183.9847260,-185.0305328,-250.1374054
1300,-0.9385223,-1.6136837,9.8592720,-0.2900763,-1.9236641,-0.4580153,-5.0804701,3.1315999,1.8171898,-193.8244324,-200.7251892,-250.1374054
1310,-0.8714849,-1.6567791,9.6988611,-1.0687023,-2.4351146,1.1297710,-8.1186962,2.0829449,3.5649481,-197.5343475,-192.2290039,-250.1374054
1320,-0.7733232,-1.7381816,9.7515335,-1.6030535,-1.1221374,0.6106870,-13.0962162,2.1236460,5.2169390,-190.8854980,-141.8778687,-228.0152740
1330,-0.8786675,-1.5777708,9.7587166,-1.1221374,-1.6183206,0.8854962,-18.6291885,2.7389526,7.4722652,-177.1374054,-58.9083977,-168.0076294
1340,-0.8547257,-1.5801650,9.6701307,-1.2748091,-1.2290076,1.4503816,-19.6131992,3.5649481,10.0077124,-155.5954132,31.7938938,-84.6870193
1350,-0.7805058,-1.5705882,9.6246414,-2.1297710,-0.1297710,1.1068702,-19.6131992,4.0389977,12.8376436,-124.3740463,99.6641235,8.8778629
1360,-0.8882443,-1.4820032,9.7515335,-1.9083970,0.2442748,1.0381680,-19.6131992,3.3877780,15.4736462,-80.6564865,128.0992432,98.8091583
1370,-0.8475431,-1.4963684,9.7491398,-1.6793894,0.0992366,1.5954199,-19.6131992,2.3750360,16.1679611,-25.4961834,126.6106873,169.1145020
1380,-0.8619082,-1.4939742,9.6725254,-1.5267175,0.4885496,1.8931298,-19.6131992,1.8291607,15.3754845,32.0839691,127.4656525,215.6335907
1390,-1.0342898,-1.4556671,9.6054878,-2.2442749,-0.3053435,2.4656489,-16.7545376,1.4891858,13.6349087,78.3435135,138.8931274,239.4198456
1400,-0.9409165,-1.4149660,9.6485834,-2.2519083,-1.8702290,3.3587787,-13.3356352,1.5921360,11.1569233,108.1450348,152.0992432,250.1297760
1410,-0.9097920,-1.4413021,9.7132263,-2.6793892,-3.0381680,3.5877862,-10.8480721,2.0087249,8.8465300,122.5496216,146.7480927,250.1297760
1420,-0.9002152,-1.4341195,9.7658987,-2.4274809,-4.5267177,3.2824428,-9.2990322,2.4324965,6.6319046,123.9694672,127.1755753,244.9770966
1430,-0.8403605,-1.4556671,9.7084379,-2.8244274,-5.2671757,3.4351146,-8.6262646,2.9759774,5.4970589,121.0763321,102.7862625,237.5877838
1440,-0.8259954,-1.5059452,9.7275915,-3.1374047,-4.7099237,3.5877862,-7.5249376,3.3758070,5.0517397,118.0610657,78.0305328,232.7099304
1450,-0.8714849,-1.6017127,9.7180147,-3.3206108,-4.6106873,4.2977099,-6.2201042,3.7373297,4.1012464,118.4809189,51.8854980,225.4427490
1460,-0.8810617,-1.6591733,9.7395630,-3.2442749,-4.8091602,4.6641221,-5.3366485,4.4771342,3.0980811,120.4198456,32.4122124,219.2977142
1470,-0.8786675,-1.6017127,9.8042059,-2.6106870,-5.4503818,5.2595420,-4.7261300,5.1642666,2.2457497,121.9465637,23.8244267,219.5648804
1480,-0.8188128,-1.6639616,9.8927908,-1.7633588,-6.1450381,5.4045801,-3.8714044,5.6742291,1.3862357,124.8091583,26.8015270,225.4274750
1490,-0.7421987,-1.6376256,9.8449068,-0.6030535,-6.6106873,5.5954199,-2.8658447,6.3613615,0.3758878,130.1221313,35.9541969,235.7251892
1500,-0.5985473,-1.5753766,9.8951855,0.4503817,-6.5038166,5.6488547,-1.7022687,6.8521700,-1.0223188,133.6183167,42.1526718,248.3053436
1510,-0.5506636,-1.5394639,9.8520899,0.8244275,-5.9312978,5.7022901,-0.1651991,6.9982157,-2.4109488,132.4351196,40.5038185,250.1297760
1520,-0.5243275,-1.4891858,9.8042059,0.6030535,-4.2595420,5.5877862,1.6448082,7.0915890,-3.8714044,126.7022934,36.9847336,250.1297760
1530,-0.4525018,-1.5155219,9.7371683,0.3435115,-3.3053436,5.1679387,3.6439564,6.9934273,-5.2863703,117.1068726,49.4656487,250.1297760
1540,-0.3447633,-1.4317253,9.7491398,0.5114504,-3.3969467,4.3053436,5.7867560,6.7587967,-6.5002246,103.7022934,78.3282471,250.1297760
1550,-0.3950413,-1.3694763,9.7299862,-0.1068702,-3.1068702,3.1068702,8.3748751,6.5241661,-7.2280579,88.6106873,108.2671738,250.1297760
1560,-0.4046180,-1.3622938,9.6414013,-0.9923664,-2.1374047,1.8549619,10.9079275,6.5074067,-7.8337879,73.3435135,129.7251892,250.1297760
1570,-0.5506636,-1.3479286,9.6964674,-0.7022901,-2.2442749,0.4122137,13.6923695,6.6151457,-7.9702568,55.0228996,140.7557220,231.1526642
1580,-0.5769997,-1.4413021,9.8185711,-0.6106870,-2.0916030,-0.2977099,16.3379498,7.2136927,-7.7380204,30.3206100,134.3969421,186.0000000
1590,-0.6679789,-1.4317253,9.7275915,-0.5572519,-2.1450381,-0.1984733,18.7536869,7.3094602,-7.3118544,5.5267177,101.0457993,124.8778610
1600,-0.7182568,-1.5610116,9.6844959,-0.6793893,-1.9312977,0.2366412,19.6126022,7.4674768,-6.3493905,-13.9694653,47.4732819,53.0763359
1610,-0.7661406,-1.6328372,9.8425131,-0.3816794,-2.9618320,0.4656489,19.5198269,7.7332320,-5.6215568,-32.4809151,-9.0076332,-16.5267181
1620,-0.7110743,-1.6448082,9.7922344,-0.7099237,-3.3282442,1.3435115,18.1359844,7.8553357,-5.0996237,-55.8167953,-61.8396950,-80.3129807
1630,-0.6967092,-1.6998745,9.6581602,-0.7099237,-3.7251909,1.8854961,16.1727505,7.6278877,-4.1850433,-76.0763321,-94.4503784,-132.4503784
1640,-0.6153067,-1.6902977,9.7012558,-0.9236641,-3.2519083,2.2824428,14.1376886,7.1059542,-2.8682389,-87.0000000,-103.4503784,-174.8549652
1650,-0.5913648,-1.6567791,9.7132263,-1.2519084,-2.6946564,2.2748091,11.9685535,6.6845770,-1.8770446,-89.3893127,-93.8473282,-206.9541931
1660,-0.4932030,-1.5993185,9.7371683,-1.4885496,-2.4885497,1.8625954,9.5456333,6.4667058,-1.4963684,-87.9923630,-80.5267181,-230.3282471
1670,-0.7038917,-1.6256547,9.7778702,-1.5190840,-2.5343511,1.5190840,7.6350703,6.3493905,-1.6711442,-87.2442780,-70.6488571,-250.1374054
1680,-0.6440369,-1.5370697,9.8113880,-2.0687022,-2.2061069,1.5190840,5.8154860,6.0812411,-1.7166338,-90.0000000,-71.6641235,-250.1374054
1690,-0.6512195,-1.4963684,9.7347746,-1.8396946,-1.2900764,1.6641221,4.2329268,5.6502872,-1.7309990,-95.7099228,-77.6870193,-250.1374054
1700,-0.6703730,-1.4389079,9.7922344,-1.8015267,-0.7709923,1.5572519,2.5330524,5.1020179,-1.4987626,-104.2442780,-85.1755753,-250.1374054
1710,-0.6272776,-1.4796091,9.8520899,-1.1679389,-1.1221374,1.0229008,0.6057299,4.7835903,-1.1755470,-113.2824402,-99.9236679,-250.1374054
1720,-0.7086801,-1.4580613,9.8137827,0.8549618,-2.3282442,0.7786260,-1.4700323,4.4172797,-0.6129125,-122.7099228,-122.1221390,-250.1374054
1730,-0.6775556,-1.4796091,9.7515335,0.2442748,-2.6793892,1.6793894,-3.8067613,4.2257442,0.1460456,-130.9465637,-139.2442780,-250.1374054
1740,-0.6679789,-1.4843974,9.5192976,-1.3053435,-1.7099236,2.5038168,-6.8761120,4.1658897,1.3742647,-136.6030579,-147.4656525,-250.1374054
1750,-0.6536137,-1.5466464,9.7156210,-1.9465649,-1.5038168,2.4656489,-10.4195127,4.4412212,2.8897867,-136.6183167,-133.6106873,-250.1374054
1760,-0.7254394,-1.5274929,9.7922344,-1.9694656,-2.4961832,3.6488550,-14.7051115,5.1139889,4.5202298,-128.0763397,-90.7251892,-236.8167877
1770,-0.6607963,-1.5227045,9.8018112,-1.9465649,-3.3740458,3.2442749,-19.6131992,6.0309634,6.3302369,-110.3206100,-17.4656487,-168.2671814
1780,-0.6991033,-1.5179161,9.7682934,-2.1679389,-3.4503818,3.0992367,-19.6131992,7.2041159,8.7052727,-83.2366409,59.4732819,-80.4274826
1790,-0.6200951,-1.5346755,9.8449068,-1.3206106,-4.1603055,2.6641221,-19.6131992,7.4531116,10.0939026,-49.3358765,107.4351120,12.6183205
1800,-0.5458752,-1.5562232,9.7204094,-0.6335878,-4.5419846,2.5419848,-19.6131992,6.8186517,10.3788109,-10.8473282,120.2213745,93.5648880
1810,-0.5315101,-1.5274929,9.7994175,-0.4732825,-4.3435116,2.4580152,-19.6131992,6.3398137,9.6174593,27.9236641,123.2748108,151.3969421
1820,-0.5865764,-1.5945302,9.8377247,0.4732825,-4.9694657,1.6030535,-17.1663380,5.8418221,8.5352850,60.6946564,135.4503784,187.0915985
1830,-0.5650287,-1.5083394,9.6461897,0.2900763,-4.8854961,2.0534351,-14.2071199,5.6814117,6.9407554,79.2595444,145.3893127,208.9313049
1840,-0.5147507,-1.5753766,9.6605549,-0.5648855,-4.8167939,2.1221373,-11.4897156,5.7053533,5.1714492,86.4427490,140.0534363,217.8854980
1850,-0.4860204,-1.5298871,9.7754755,-0.9770992,-4.2824426,2.0992367,-9.2918491,5.9351954,3.6559272,85.3282471,116.7328262,215.2061005
1860,-0.3734936,-1.5083394,9.7084379,-1.4351145,-3.9312978,2.5114503,-7.8026633,6.1817970,2.8012016,79.4427490,82.5419846,208.0610657
1870,-0.3854645,-1.5322813,9.8329363,-1.0000000,-2.8625953,2.4809160,-6.3493905,6.3469963,2.2864509,73.5572510,43.0610695,200.3969421
1880,-0.2801202,-1.4652439,9.8880024,-0.7862595,-1.7022901,2.4351146,-4.8673873,6.7899213,1.7884595,70.2519073,4.3129773,193.7786255
1890,-0.3327923,-1.4149660,9.9574337,-0.0076336,-0.7251908,2.3129771,-3.4739690,7.1442614,1.5370697,69.9694672,-17.1984730,190.7709961
1900,-0.3232156,-1.4676381,9.9717989,0.8244275,0.5343512,1.6335878,-2.2242019,7.4890246,1.1970947,73.8167953,-17.4885502,192.9236603
1910,-0.5027798,-1.4772149,9.7443514,1.0839695,0.8167939,-0.2213740,1.9105632,7.6614060,-2.0183017,87.0839691,32.6335869,226.8167877
1920,-0.5267217,-1.3910241,9.7132263,0.6030535,1.1755725,-0.3435115,3.8019729,7.4531116,-3.1770895,84.0992355,55.1908379,235.1603088
1930,-0.6368544,-1.5825592,9.7898407,-0.0076336,0.6259542,-0.8549618,5.9926562,7.0173693,-4.4723458,77.4045792,80.0763321,237.8549652
1940,-0.7278336,-1.5227045,9.6533718,0.2671756,-0.8702290,-0.9770992,8.4658537,6.7276726,-5.2265158,67.0534363,104.1984711,231.1526642
1950,-0.6416427,-1.6328372,9.6318245,-0.2595420,-0.9923664,-0.4656489,10.8983507,6.7707677,-5.9399838,52.2977104,117.6335907,211.4885559
1960,-0.5841822,-1.6376256,9.7036495,-0.8778626,-1.1450381,0.2977099,13.4840746,7.1442614,-6.1746144,30.8549614,107.0916061,176.6335907
1970,-0.5746055,-1.6591733,9.7084379,-0.7404580,-1.6946565,1.1450381,15.3635139,7.2711535,-5.9543490,6.4427481,71.4503784,127.3358765
1980,-0.4716553,-1.6088953,9.7563219,-0.3816794,-2.0076337,1.4809160,16.8167858,7.4219875,-5.1546898,-14.8396950,24.1297703,69.0992355
1990,-0.4477134,-1.6543850,9.7754755,-0.9847328,-2.3740458,1.2213740,17.3961811,7.4938130,-4.4029145,-32.4885483,-16.9465656,8.9541988
2000,-0.4022238,-1.5011568,9.7922344,-0.8244275,-3.0381680,0.5496183,16.6563759,7.5273318,-3.5362179,-48.7404594,-47.9541969,-47.7175560
2010,-0.3710994,-1.5035510,9.7874460,-0.8702290,-2.2213740,-0.2061069,15.4449158,7.4507174,-2.5905130,-59.8473282,-69.8473282,-96.3435135
2020,-0.4118006,-1.4628497,9.7730818,-0.7175573,-1.8702290,-0.4580153,14.0155849,7.3693151,-1.6783268,-64.6870193,-77.9007645,-137.6412201
2030,-0.4572902,-1.4724265,9.8042059,-0.8015267,-1.4122137,-1.0076336,12.2845860,7.1035600,-0.7948709,-63.9083977,-76.3587799,-169.6870270
2040,-0.5746055,-1.4341195,9.7491398,-0.1374046,-1.5190840,-1.2900764,10.5392218,7.0772243,-0.4022238,-60.7404594,-66.9083939,-195.8473358
2050,-0.6224893,-1.4796091,9.8449068,0.3664122,-1.5267175,-1.4656489,8.7651272,6.9359670,-0.3064562,-57.7786255,-54.1145020,-217.8473358
2060,-0.6368544,-1.3934183,9.8616667,0.4961832,-1.6564885,-0.7480916,6.8928714,6.7204900,-0.5698171,-55.4885483,-49.0610695,-238.3358765
2070,-0.6751614,-1.4915800,9.7539282,-0.2900763,-2.6564887,0.6183206,5.3558016,6.6007805,-1.0725969,-55.8854980,-52.7709923,-250.1374054
2080,-0.6751614,-1.5418580,9.7443514,-0.9694657,-3.4427481,1.5648855,3.9863255,6.1770086,-1.1803354,-59.8091621,-55.3129768,-250.1374054
2090,-0.5051740,-1.5035510,9.7467451,-1.2442749,-3.8549619,2.2137403,2.0733681,5.8873119,-1.0151364,-65.5267181,-55.0000000,-250.1374054
2100,-0.4932030,-1.5346755,9.8592720,-0.8931298,-4.5419846,1.6641221,-0.3710994,5.6335278,-0.7062859,-71.2290039,-59.9847336,-250.1374054
2110,-0.5123565,-1.5250987,9.8281479,0.1526718,-5.2977099,1.4427481,-3.0190730,5.4348102,-0.4453192,-75.1145020,-68.8778610,-250.1374054
2120,-0.3806761,-1.5346755,9.7180147,-0.5419847,-5.0839696,1.2519084,-6.1770086,5.5066357,0.0550664,-76.9312973,-68.8015289,-250.1374054
2130,-0.3830703,-1.5346755,9.8113880,0.5648855,-5.9389315,0.0000000,-10.1393919,5.8394279,0.7493813,-75.4656525,-51.1450386,-250.1374054
2140,-0.4165890,-1.5394639,9.6246414,-0.6106870,-5.7022901,-0.1297710,-14.7051115,6.8761120,1.7812769,-70.1755753,-16.6335869,-216.8167877
2150,-0.3327923,-1.4843974,9.8281479,-0.5419847,-4.6946564,-0.8702290,-19.6131992,8.0516596,3.2728570,-60.9236641,22.0763359,-153.9236603
2160,-0.4548960,-1.5107336,9.8473015,-0.9770992,-4.9694657,-0.7862595,-19.6131992,8.7866755,4.9918852,-47.0381660,50.1068687,-80.2748108
2170,-0.4764437,-1.5849534,9.8832140,-0.3053435,-5.5114503,-0.4656489,-19.6131992,8.6956959,6.5385313,-26.1221371,60.9312973,-9.2977095
2180,-0.3232156,-1.6136837,9.8520899,-0.2900763,-4.7251906,1.1603054,-19.6131992,7.7188668,8.0181408,31.8702297,73.9160309,106.1984711
2190,-0.3160330,-1.4389079,9.8425131,0.3053435,-3.9923663,1.0916030,-17.0538120,7.3645267,7.7308378,58.5343513,91.9007645,144.7633514
2200,-0.1747758,-1.4628497,9.8999729,0.1984733,-3.1755726,0.9770992,-14.4824524,7.1753860,6.6678176,80.5343475,106.6335907,170.0763397
2210,-0.1963235,-1.4389079,9.8377247,-0.1908397,-2.5954199,0.3358779,-12.4976692,6.9311786,5.2073622,94.6412201,112.0992355,186.0229034
2220,-0.3016679,-1.4365137,9.7419567,0.2977099,-2.4809160,-0.5954198,-10.7810354,6.9694853,3.4380560,100.4732819,108.9847336,196.6870270
2230,-0.3064562,-1.4843974,9.6749191,-1.1984733,-1.6488550,-0.5038168,-8.8010406,7.0748301,1.9967541,98.9694672,95.8091583,205.4732819
2240,-0.4429250,-1.4029950,9.6246414,-2.0916030,-1.5496184,-0.5954198,-6.9646969,7.2448173,0.9313397,94.5114517,76.4580154,210.7404633
2250,-0.5195391,-1.4125718,9.8185711,-1.8625954,-2.1068702,-0.7709923,-5.0397687,7.5297260,-0.1867468,89.6106873,56.1145020,214.4580078
2260,-0.6009415,-1.4915800,9.7682934,-2.6030533,-1.9770992,0.3664122,-3.3566537,7.6685886,-1.0845678,83.5114517,43.8015251,219.9160309
2270,-0.5626345,-1.5346755,9.8808203,-2.5038168,-1.7786260,1.2366412,-1.6591733,7.7835097,-2.2242019,76.8167953,44.2442741,229.9389343
2280,-0.5267217,-1.4748207,9.9837704,-0.6488550,-1.8015267,1.2748091,0.4932030,7.5369086,-3.5577655,69.3053436,44.0152664,242.9313049
2290,-0.4357425,-1.4628497,9.9646168,-0.4122137,-1.3358779,2.0381680,2.5067163,7.2998838,-4.2472920,59.8167953,48.2290077,250.1297760
2300,-0.2801202,-1.4652439,9.8377247,-0.1679389,-0.1068702,2.5725191,4.7213416,6.9694853,-4.4053087,49.0305328,60.9923668,250.1297760
2310,-0.2944853,-1.4101776,9.7994175,-0.2061069,0.2061069,2.7709923,7.4435349,6.4379754,-4.7117648,38.2519073,73.1374054,250.1297760
2320,-0.1340746,-1.4149660,9.6773138,-0.5267175,0.1068702,2.8167939,10.2854376,5.8561873,-4.8099265,28.4503822,82.0916061,246.3893127
2330,-0.1316804,-1.4269369,9.7922344,-1.0000000,0.2824427,2.0916030,13.5726604,5.7963328,-4.8195033,19.2977104,86.3969498,220.5954132
2340,-0.1053443,-1.5035510,9.7850523,-1.1755725,0.3282443,0.9236641,16.1631737,5.8466105,-4.7548604,7.5267177,84.2671738,180.3206177
2350,-0.1556223,-1.4556671,9.8065996,-0.8396947,0.7022901,0.0916031,18.2820301,5.9782910,-4.5106530,-7.1526718,69.4198456,127.5572510
2360,-0.1580165,-1.5442522,9.8353300,-0.7862595,1.3893130,0.0000000,19.6126022,6.1434903,-4.3861551,-25.7557259,31.0916023,63.7557259
2370,-0.1867468,-1.6065011,9.8592720,-0.8854962,1.5648855,-0.5648855,19.6126022,6.2416520,-3.6535332,-43.6335869,-20.6106873,-0.8320611
2380,-0.2298422,-1.6256547,9.6461897,-2.3664122,2.5496182,0.0229008,19.3067436,6.3254485,-2.2242019,-57.9694672,-74.3740463,-62.6183205
2390,-0.1388630,-1.7932479,9.8161764,-2.5190840,1.8244275,-0.8931298,18.2748489,6.0381460,-0.9600700,-64.2366409,-108.3511429,-117.2137375
2400,-0.2801202,-1.6256547,9.6749191,-1.5038168,0.2519084,-1.3358779,16.3954086,6.1363077,-0.0981618,-62.6564903,-115.9465637,-160.8473358
2410,-0.3423691,-1.6591733,9.8065996,-1.5343511,-0.3206107,-1.5038168,14.4345684,6.1267309,0.4572902,-56.9389305,-101.1526718,-193.0152740
2420,-0.3950413,-1.7501525,9.8209648,-1.0381680,-0.2213740,-1.6717557,12.3109226,6.1626434,0.2513899,-48.8778610,-80.4198456,-220.1679382
2430,-0.4022238,-1.6855093,9.7611103,-0.3282443,-0.1755725,-1.5419847,10.3812056,5.9495606,-0.0263361,-41.5190849,-63.0076332,-243.1374054
2440,-0.4525018,-1.6136837,9.7443514,-0.6488550,0.3358779,-1.6870229,8.2503767,5.8705525,-0.5362985,-37.5267181,-58.1603050,-250.1374054
2450,-0.3710994,-1.5969244,9.7730818,-1.1679389,0.2519084,-2.0000000,6.2751703,5.7316895,-0.9241571,-37.5877876,-62.9160309,-250.1374054
2460,-0.4405309,-1.5298871,9.6749191,-1.1221374,-0.2137405,-1.6106870,4.3478479,5.3629842,-1.3862357,-42.4732819,-75.9542007,-250.1374054
2470,-0.4405309,-1.4963684,9.7898407,-1.3206106,-0.0381679,-1.9083970,1.9656296,5.1642666,-1.6591733,-51.2519073,-95.2213745,-250.1374054
2480,-0.5219333,-1.4053892,9.7658987,-1.2671756,-0.6335878,-1.8320611,-0.2082945,4.8913293,-1.8531027,-63.3664131,-115.0687027,-250.1374054
2490,-0.5913648,-1.4365137,9.7587166,-0.9389313,-0.7862595,-1.3053435,-3.1507533,4.6734576,-1.8435259,-75.8702316,-128.6641235,-250.1374054
2500,-0.6248835,-1.4676381,9.7156210,-1.1374046,-1.5877863,-0.3893130,-6.7779503,4.6255741,-1.4269369,-83.8091583,-120.9542007,-250.1374054
2510,-0.5051740,-1.4077834,9.9167328,-0.2900763,-2.6488550,0.5572519,-12.3612003,5.3773494,-0.3303981,-82.7557220,-77.6946564,-250.1374054
2520,-0.5722113,-1.4101776,9.7587166,-0.4503817,-3.4732823,1.7480916,-19.4982796,7.3094602,1.0917504,-74.4580154,-3.0610688,-227.9389343
2530,-0.4908088,-1.5011568,9.8065996,-1.1221374,-3.9847329,3.1374047,-19.6131992,8.8465300,2.2744799,-60.5801544,67.7328262,-137.3282471
2540,-0.4596844,-1.4413021,9.7802639,-1.0534351,-4.0992365,3.6870229,-19.6131992,9.6605549,3.6032550,-42.4885483,108.2290039,-37.8625946
2550,-0.3543400,-1.5250987,9.6940727,-1.7022901,-4.1297708,4.2824426,-19.6131992,9.1410151,4.7261300,-19.5648861,117.8015289,52.8091621
2560,-0.2633608,-1.4915800,9.7754755,-1.9083970,-4.6717558,3.3435113,-19.6131992,8.3844519,5.0301919,6.8015265,122.0687027,126.3129807
2570,-0.2513899,-1.5658000,9.8377247,-1.6870229,-3.3969467,2.8015268,-19.6131992,7.4243813,4.5968437,28.8549614,135.4809113,179.8931274
2580,-0.2298422,-1.6017127,9.9717989,-0.5267175,-3.7709923,1.9541985,-16.1488075,6.8521700,3.7612717,41.8549614,140.9160309,213.9770966
2590,-0.2585725,-1.5921360,9.8640604,0.4732825,-4.5954199,1.3664122,-13.1871958,6.6390872,2.9616125,47.9007645,130.5648804,230.3435059
2600,-0.3016679,-1.6400198,9.7132263,0.2900763,-5.1145039,1.3282443,-10.4913378,6.6079631,2.2505381,48.0228996,108.2442780,234.9541931
2610,-0.3208214,-1.6663558,9.8880024,0.8091603,-5.6641221,1.3893130,-8.0157461,6.5935979,1.4820032,44.4885483,75.1603088,230.9694672
2620,-0.2537841,-1.5634058,9.7395630,0.2595420,-5.4198475,1.7328244,-5.9040713,6.6845770,1.1300575,39.7862587,40.1221390,221.0381622
2630,-0.1819584,-1.5681942,9.7946291,0.1450382,-5.3282442,1.6793894,-4.1587071,6.9790621,0.9648584,35.9389305,14.1908398,212.3969421
2640,-0.1723816,-1.5346755,9.7826586,-1.0152671,-4.6335878,1.6106870,-2.8323262,7.2160869,0.5339043,34.2977104,-4.1374044,207.6030579
2650,-0.1268920,-1.5322813,9.7778702,-0.4732825,-4.0534353,1.7480916,-1.6519908,7.5488791,0.1101327,35.2748108,-12.4198475,209.1603088
2660,-0.0143651,-1.4508789,9.8880024,-0.4961832,-3.5267177,2.0152671,-0.2849085,7.4746594,-0.3639168,37.8625946,-12.6793890,215.3282471
2670,0.0550664,-1.4963684,9.8568783,-0.1984733,-1.6183206,1.2671756,1.2090657,7.2472115,-1.3910241,39.2824440,-4.2748094,224.9618378
2680,0.0622489,-1.3694763,9.8137827,-0.1679389,-0.0381679,0.4351145,2.7724714,6.9335728,-2.4899571,37.6335869,11.8015270,236.4198456
2690,-0.0263361,-1.3862357,9.7922344,-0.3511450,2.5648854,-0.6641222,6.2919297,6.5888095,-4.2520804,18.7328243,33.9847336,250.1297760
2700,-0.0694315,-1.3934183,9.6581602,-0.7328244,2.2748091,-1.4198474,8.3030491,6.4020624,-4.6590929,4.9465647,32.4656487,244.6488495
2710,-0.2298422,-1.4245427,9.7754755,-0.9160305,1.8778626,-1.8549619,10.2231894,6.2847471,-4.6327567,-10.7709923,18.5877857,229.4351196
2720,-0.3639168,-1.5250987,9.7898407,-1.3816794,1.6106870,-1.6259542,12.3851423,6.3254485,-4.1850433,-27.9083977,0.4580153,203.1068726
2730,-0.3256098,-1.5681942,9.7371683,-3.1908398,2.4122138,0.1374046,14.5375185,6.3015065,-3.7852135,-43.3511467,-23.1450386,165.7862549
2740,-0.3495516,-1.5729824,9.7802639,-1.8473282,0.8244275,-0.9312977,16.4193516,6.4068508,-3.0047078,-53.5725174,-48.4045792,119.5190811
2750,-0.3806761,-1.6041069,9.8640604,-0.7099237,0.3511450,-0.4122137,17.7648849,6.4547348,-1.9728121,-55.8167953,-59.6106873,71.3740463
2760,-0.2633608,-1.7238164,9.7778702,-1.0992366,-0.1221374,0.0839695,17.9803619,6.7420373,-1.1204807,-51.5648842,-52.7022896,25.0076332
2770,-0.2849085,-1.7166338,9.7658987,-1.0992366,-0.4732825,0.6030535,17.6523590,7.0820122,-0.9121862,-45.4198456,-37.8473282,-17.8396950
2780,-0.2729376,-1.6424140,9.7395630,-0.9083970,-1.0229008,0.5572519,16.7665081,7.3621325,-0.5171449,-40.1984749,-24.3129768,-57.6564903
2790,-0.1771700,-1.6280488,9.9023676,-1.2519084,-1.5954199,0.2748092,15.4401274,7.4938130,-0.5195391,-35.0305328,-16.6641216,-95.2519073
2800,-0.2729376,-1.5634058,9.8784256,0.1297710,-2.6030533,-1.1908396,13.8264437,7.3788919,-0.6248835,-30.2900772,-16.0687027,-127.9007645
2810,-0.3112446,-1.5849534,9.7874460,-0.3053435,-2.7022901,-1.0839695,12.5599174,7.3741035,-0.9026094,-27.5954189,-10.0763359,-157.6717529
2820,-0.2130829,-1.6376256,9.7611103,-0.0763359,-2.7022901,-1.4122137,11.1425581,7.2160869,-1.4149660,-26.7633591,-0.1145038,-185.2900696
2830,-0.3280039,-1.4963684,9.8496952,0.0305344,-2.0916030,-1.3435115,9.6509781,6.9431496,-1.5681942,-26.8396950,6.1145039,-210.3511505
2840,-0.3016679,-1.5155219,9.7635050,0.5648855,-2.3129771,-1.1832061,8.3509331,6.7396431,-2.0637913,-29.9312973,5.5343513,-236.2366486
2850,-0.3639168,-1.4173602,9.7850523,0.8931298,-1.7709924,-0.4122137,6.7779503,6.3446021,-2.4205256,-36.9083977,-4.0381680,-250.1374054
2860,-0.3399749,-1.5155219,9.7874460,0.7709923,-2.3664122,0.6641222,5.1786318,5.9136481,-2.5881188,-47.6412201,-20.9694653,-250.1374054
2870,-0.2346306,-1.4580613,9.7419567,-0.0458015,-2.9541984,1.1679389,3.4955165,5.3198891,-2.5569944,-60.1145020,-45.6183205,-250.1374054
2880,-0.1963235,-1.3862357,9.6844959,0.1374046,-3.4961832,0.9083970,1.8028246,4.7237358,-2.0637913,-74.1221390,-73.4274826,-250.1374054
2890,-0.2082945,-1.4963684,9.7156210,-1.0305344,-3.1374047,1.4122137,-0.3447633,4.0940638,-1.4197544,-85.8244247,-96.9083939,-250.1374054
2900,-0.2059003,-1.5179161,9.7850523,-1.3129771,-3.3816793,1.1908396,-3.7684543,3.5888901,-0.1723816,-93.4809189,-103.8473282,-250.1374054
2910,-0.2250538,-1.4628497,9.7826586,-1.3053435,-3.6183207,0.8549618,-8.6645718,3.9982965,1.0055596,-92.5877838,-79.5648880,-250.1374054
2920,-0.1987177,-1.4580613,9.9095497,-0.3740458,-4.4961834,-0.2824427,-15.3204184,5.7747850,2.2026544,-83.4580154,-22.5343513,-250.1374054
2930,-0.3423691,-1.4867916,9.6844959,-0.6488550,-4.5954199,0.0458015,-19.6131992,7.8026633,3.7109938,-72.4961853,32.4732819,-199.9084015
2940,-0.3208214,-1.5394639,9.8496952,-0.5648855,-4.8015265,0.3435115,-19.6131992,9.3038206,5.8370337,-59.7251892,60.3511467,-108.7251892
2950,-0.2106887,-1.4221486,9.8161764,-0.7480916,-4.2442746,1.3129771,-19.6131992,9.6366129,7.5536675,-38.3206100,57.9389305,-19.7862587
2960,-0.1388630,-1.5274929,9.7826586,-0.2748092,-3.7786260,1.4122137,-19.6131992,8.9829988,8.1067257,-8.2290077,34.8549614,62.0228996
2970,-0.1221037,-1.5155219,9.7970228,-0.3969466,-3.5725191,1.9389313,-19.6131992,7.8194227,7.6925306,24.5343513,29.8702297,130.5572510
2980,-0.0359128,-1.5035510,9.8281479,0.4732825,-3.2595420,2.0229008,-16.9891682,7.1322904,7.0580707,53.6106873,44.6717567,181.7786255
2990,0.0670373,-1.5227045,9.8544836,0.4503817,-2.3740458,1.8778626,-12.6556854,6.7372489,6.0572991,76.2061081,71.0839691,210.5877838
3000,-0.1197095,-1.4532729,9.8975792,-2.1755726,4.2824426,-2.1068702,0.0191535,8.0037756,-1.6711442,47.4427490,-47.3358765,201.0305328
3010,-0.1987177,-1.5250987,9.8664551,-1.8778626,4.1984735,-2.6183207,1.1013272,7.9846220,-1.8554969,44.1145020,-45.1297722,206.9465637
3020,-0.2059003,-1.5490406,9.7826586,-1.5877863,3.7175572,-2.3664122,2.3846128,7.7930865,-2.4396791,42.6717567,-33.0000000,215.9236603
3030,-0.3591284,-1.6783268,9.8185711,-0.5648855,2.5877862,-2.0152671,4.2065907,7.3070664,-2.6743097,41.6946564,-11.3893127,225.5954132
3040,-0.3112446,-1.6519908,9.7802639,-0.2137405,1.7328244,-1.1068702,6.0070214,6.9910331,-2.9999194,39.2977104,13.2977095,229.6946564
3050,-0.3351865,-1.7142396,9.7563219,-1.4045801,1.1221374,-0.2290076,7.9894104,6.9431496,-3.2034254,34.0763359,29.8702297,223.9618378
3060,-0.1987177,-1.7764885,9.8089943,-0.8549618,0.5190840,-0.6030535,9.3804340,6.7899213,-3.1723011,26.4274807,23.8625946,209.2977142
3070,-0.2106887,-1.5753766,9.8305416,-0.7709923,0.4732825,-0.3816794,10.8289185,6.8617468,-2.8371146,18.0152664,2.7022901,184.7633514
3080,-0.1316804,-1.6256547,9.8401184,-0.4122137,0.0305344,-0.6717557,12.3061342,6.9527264,-2.8035958,8.5725193,-24.5419846,150.9847260
3090,-0.2944853,-1.5490406,9.7515335,-0.0229008,-0.0076336,-1.0534351,13.5343533,6.9144192,-2.9999194,-1.6946565,-47.3664131,115.1755753
3100,-0.2609667,-1.5658000,9.7946291,-0.4580153,0.4809160,-0.7099237,14.4824524,6.8761120,-3.0813217,-10.5038166,-60.0228996,77.7022934
3110,-0.2537841,-1.4053892,9.7730818,-0.0763359,0.7022901,-0.7175573,15.1025467,6.8641410,-2.9807658,-16.3053436,-55.8854980,40.0152664
3120,-0.3256098,-1.4508789,9.7204094,-0.5419847,0.2442748,-0.2290076,15.1025467,6.9718795,-2.9687948,-20.0381680,-45.9160309,4.9160304
3130,-0.2968795,-1.4484847,9.6892843,-1.0534351,-0.2442748,0.3435115,14.5638542,7.1083484,-2.8083842,-23.0381680,-36.5801544,-28.9770985
3140,-0.2537841,-1.4891858,9.8185711,-1.3969465,-0.4961832,0.8702290,13.8408089,7.3214312,-2.5474176,-27.3664131,-32.2442741,-60.7175560
3150,-0.2609667,-1.4820032,9.8353300,-1.3511450,-0.4427481,1.1603054,13.4792862,7.4387465,-2.3846128,-33.3893127,-38.4045792,-92.6335907
3160,-0.2178712,-1.4867916,9.8113880,-0.5343512,-1.0000000,1.9007634,12.7275114,7.1658092,-2.1619530,-38.0763359,-47.3740463,-125.4961853
3170,-0.2322364,-1.5490406,9.8018112,-0.5572519,-1.7557251,2.3893130,11.4490137,7.1705976,-1.8171898,-39.9389305,-51.3358765,-151.9007568
3180,-0.1915352,-1.5083394,9.7371683,-0.6641222,-1.9923664,1.7404580,10.5990763,6.9958215,-1.6591733,-41.4198456,-48.8244286,-174.6946564
3190,-0.1651991,-1.5538290,9.6964674,-1.2748091,-1.8396946,1.5954199,9.4402885,7.0101867,-1.5586174,-42.3816795,-43.3206100,-196.2900696
3200,-0.1412572,-1.6065011,9.7180147,-2.0534351,-2.3129771,1.1374046,8.0109577,6.7324610,-1.5179161,-43.0839691,-39.2977104,-215.2366486
3210,-0.2130829,-1.5203103,9.7275915,-2.2977099,-2.3053436,1.1832061,6.7659793,6.7587967,-1.6184721,-44.7786255,-36.9389305,-230.5419922
3220,-0.2537841,-1.6280488,9.9310980,-1.4656489,-2.6564887,0.8244275,5.3270717,6.8976598,-1.8746504,-47.0839691,-35.8549614,-243.1679382
3230,-0.2657550,-1.5610116,9.9406748,-1.0916030,-2.6412213,1.0763359,3.9264708,6.9503322,-2.0542145,-51.1832047,-39.2290077,-250.1374054
3240,-0.2250538,-1.5370697,9.8640604,-1.1145039,-2.6793892,1.6412214,2.6240315,7.2352405,-2.1260402,-56.5267181,-45.4732819,-250.1374054
3250,-0.1292862,-1.5418580,9.8712435,-0.7099237,-1.3816794,2.4656489,1.5849534,7.5177550,-1.9225341,-62.0152664,-55.4198456,-250.1374054
3260,-0.1029501,-1.4987626,9.7682934,-0.9160305,-1.0992366,2.9618320,0.9433106,7.6350703,-1.4556671,-66.3206100,-66.9389343,-250.1374054
3270,0.0718257,-1.5442522,9.8808203,-0.7175573,-1.1908396,2.4580152,0.3303981,7.8242111,-0.9480990,-69.0457993,-78.2061081,-250.1374054
3280,0.1149211,-1.4772149,9.8473015,-0.5419847,0.1908397,1.3893130,0.2418131,7.9918046,-0.3471575,-70.3816757,-88.7404556,-250.1374054
3290,0.1987177,-1.5035510,9.8329363,0.0458015,0.0305344,0.4351145,0.2130829,7.7475972,0.0502780,-71.3511429,-100.2213745,-250.1374054
3300,0.1173153,-1.4341195,9.7371683,-0.8320611,1.7938931,0.1221374,0.1819584,7.5057840,0.1292862,-72.3587799,-111.8931274,-250.1374054
3310,0.1675933,-1.5705882,9.8353300,-1.2900764,2.4274809,-1.0381680,-0.4644727,6.8593526,0.0167593,-75.5572510,-127.4427490,-250.1374054
3320,-0.0550664,-1.4269369,9.7539282,-0.3969466,2.3282442,-2.2748091,-1.2832855,5.9926562,-0.2489957,-82.2519073,-145.7022858,-250.1374054
3330,-0.1532281,-1.5729824,9.7970228,-0.2748092,2.0763359,-2.4809160,-3.1531475,4.9870968,-0.6751614,-91.3893127,-160.1450348,-250.1374054
3340,-0.3327923,-1.5562232,9.7204094,-0.8091603,1.7099236,-2.2442749,-6.7516141,4.3837609,-0.7757174,-97.4961853,-155.9465637,-250.1374054
3350,-0.3902529,-1.6112895,9.6270361,-3.2366412,2.4809160,-0.6717557,-11.7937775,4.5082588,-0.1149211,-97.0076370,-107.7709961,-250.1374054
3360,-0.3639168,-1.6041069,9.8664551,-1.0458015,1.7251909,-0.5419847,-18.1431675,5.4036856,1.3072275,-90.4656525,-15.1526718,-201.6030579
3370,-0.3208214,-1.6472024,9.7323799,-2.1145039,2.1832061,1.2061069,-19.6131992,6.7276726,2.9209111,-81.1221390,89.6106873,-115.9007645
3380,-0.1508339,-1.6735384,9.7204094,-2.7480917,1.2748091,1.8396946,-19.6131992,7.3693151,5.2743993,-74.8625946,161.7175598,-24.0076332
3390,-0.1699875,-1.6256547,9.9478569,-1.7709924,0.0534351,1.5877863,-19.6131992,7.2927012,7.7332320,-66.0305328,178.8244324,56.1603050
3400,-0.0790083,-1.5825592,9.9406748,0.1297710,-1.1221374,0.0534351,-19.6131992,6.7611909,9.1074963,-48.5114517,142.3893127,120.9083939
3410,-0.0622489,-1.6543850,9.8425131,0.7557252,-0.6717557,-0.8244275,-19.6131992,5.3605900,10.4219065,-24.4351139,84.7022934,171.9541931
3420,-0.1316804,-1.6352314,9.7754755,0.7328244,-1.2061069,-1.3282443,-17.1495800,4.5752959,10.8983507,2.9083970,47.8015251,205.3053436
3430,-0.2489957,-1.5418580,9.6461897,0.1679389,-0.9770992,-1.2748091,-13.4505568,4.3574247,11.0683374,30.7480907,41.0000000,221.6946564
3440,-0.2896969,-1.6256547,9.6605549,-0.7480916,-0.1603053,-1.2671756,-10.6230183,4.3071470,10.4865494,58.1068687,56.9847336,225.8625946
3450,-0.3543400,-1.5131277,9.7922344,-1.3129771,0.2748092,-1.0076336,-8.9159613,4.5848727,9.3014259,80.1603088,80.5496216,224.6946564
3460,-0.3806761,-1.5179161,9.7635050,-1.5496184,0.0839695,-0.0458015,-7.7523856,4.9799142,7.5464849,95.0076370,96.9160309,221.1984711
3470,-0.2896969,-1.5562232,9.8736372,-0.2671756,-0.8625954,0.2519084,-7.3142486,5.5880380,5.8178802,102.0839691,100.2061081,218.0229034
3480,-0.3040621,-1.5274929,9.8927908,0.0916031,-0.9923664,1.1068702,-7.0460997,6.5217719,4.2927818,102.4885483,92.0457993,219.6641235
3490,-0.2418131,-1.5179161,9.8592720,0.5801527,-1.4427481,1.3206106,-6.3110833,7.1705976,2.8969693,98.7404556,72.3587799,223.9236603
3500,-0.1675933,-1.4772149,9.6485834,-0.2519084,-1.3816794,1.6259542,-5.1929970,7.8218169,1.4700323,92.4503784,48.1832047,231.0000000
3510,-0.1436514,-1.4915800,9.5767574,-1.0534351,-1.6564885,1.1221374,-3.8546450,8.2479830,0.1699875,85.0457993,33.0458031,240.7480927
3520,-0.1915352,-1.5945302,9.6437950,-1.8015267,-2.1908398,0.8167939,-2.3654592,8.1881275,-0.9935886,77.1221390,27.3893127,250.1297760
3530,-0.1747758,-1.4652439,9.7299862,-1.8931298,-2.9847329,0.2824427,-0.7733232,7.7523856,-2.0590029,69.8778610,31.1450386,250.1297760
3540,-0.2011119,-1.5346755,9.8544836,-1.6870229,-2.2213740,0.4656489,1.1779412,7.3884687,-3.1268115,61.7633591,43.8702278,250.1297760
3550,-0.2035061,-1.6639616,10.0172882,-0.8320611,-1.5877863,1.1297710,3.2824337,6.7468257,-4.3071470,51.9312973,59.9923668,250.1297760
3560,-0.1292862,-1.5179161,9.8544836,0.1297710,-1.1526718,1.7099236,5.1163831,6.2272868,-4.8769641,39.4274826,77.1145020,250.1297760
3570,-0.0239419,-1.5658000,9.7994175,0.8778626,-1.0458015,2.0152671,7.2950954,6.0357518,-5.2001796,23.8320618,86.8091583,250.1297760
3580,0.0502780,-1.5274929,9.7228031,0.8167939,0.0229008,1.5267175,9.2750902,5.8561873,-5.2313042,5.5419846,83.8473282,250.1297760
3590,0.0933734,-1.5107336,9.6701307,0.0992366,0.5190840,1.0687023,11.4801388,5.9304070,-4.7021880,-13.7938929,70.5343475,237.3511505
3600,0.0574605,-1.4867916,9.7395630,-0.3435115,0.3969466,0.0534351,13.8144732,5.9423780,-3.9911139,-32.4503822,44.3053436,196.3893127
3610,-0.0335187,-1.5107336,9.7994175,-1.1297710,0.9007633,-0.7175573,16.1248665,5.8226686,-3.0047078,-45.6030540,9.4045801,146.5114441
3620,-0.1244979,-1.4939742,9.6940727,-1.4732825,0.7175573,-1.2519084,17.9492378,5.8609757,-2.1667414,-52.1068687,-20.2824421,90.0992355
3630,-0.1412572,-1.4891858,9.8353300,-1.6946565,0.8091603,-1.6488550,19.0146523,6.0932121,-1.6448082,-54.9389305,-39.2824440,30.1526718
3640,-0.2106887,-1.5418580,9.8113880,-0.6106870,0.3206107,-2.4198472,18.7967815,6.1794028,-1.2976507,-57.3587799,-47.9771004,-25.7633591
3650,-0.2896969,-1.5873476,9.7946291,-0.2442748,0.2748092,-1.2900764,17.4871597,6.2129216,-0.8547257,-60.5343513,-52.4122124,-76.0457993
3660,-0.3256098,-1.5873476,9.7778702,-0.3282443,-0.3816794,-0.4045801,16.0793762,6.3422079,-0.3112446,-63.0916023,-57.9694672,-119.5725174
3670,-0.2178712,-1.5729824,9.6844959,-0.6412213,-0.6488550,0.3053435,14.2358503,6.1937680,0.6368544,-62.7099228,-58.7328262,-155.6641235
3680,-0.0766141,-1.5921360,9.7180147,-0.5877863,-0.3435115,0.1221374,12.5838594,6.0860295,1.3527170,-56.3587799,-55.6946564,-185.5190887
3690,-0.1197095,-1.6328372,9.7898407,-1.1450381,-1.0229008,0.1984733,10.8959560,5.8825235,1.4915800,-48.1145020,-47.6488533,-211.5648804
3700,-0.0191535,-1.5466464,9.8018112,-0.8015267,-1.2977099,-0.3511450,9.1673517,5.8873119,1.1755470,-40.1832047,-36.0992355,-233.3358765
3710,-0.0885850,-1.6448082,9.8473015,-0.5038168,-1.6488550,-1.2519084,7.7236552,5.5712790,0.6631905,-34.9083977,-28.2748089,-250.1374054
3720,-0.1244979,-1.5897418,9.8592720,-0.5725191,-2.4732823,-1.9923664,6.1315193,5.4419928,0.0790083,-33.4503822,-25.1145039,-250.1374054
3730,-0.1915352,-1.6376256,9.7395630,-0.6335878,-2.1679389,-1.8473282,4.6471219,5.2863703,-0.5099624,-36.7633591,-31.2213745,-250.1374054
3740,-0.3040621,-1.5801650,9.6797075,-0.7709923,-1.2366412,-0.9083970,3.0813217,4.9511838,-0.8786675,-45.3206100,-46.5343513,-250.1374054
3750,-0.2657550,-1.5322813,9.7180147,-1.0152671,-0.8167939,-0.2137405,1.3838415,4.5776901,-0.6895266,-56.7404594,-67.8167953,-250.1374054
3760,-0.2250538,-1.5274929,9.7778702,-0.8854962,-1.6870229,-0.0610687,-0.6584021,4.1802549,-0.4333483,-67.7328262,-88.3282471,-250.1374054
3770,-0.1580165,-1.5466464,9.8377247,-0.1755725,-1.5572519,-0.3816794,-3.2896163,3.9049230,0.4908088,-74.6335907,-97.9083939,-250.1374054
3780,-0.1699875,-1.5274929,9.9095497,0.0229008,-1.8854961,0.2900763,-6.9144192,3.9911139,1.5993185,-74.9465637,-87.0687027,-250.1374054
3790,-0.1173153,-1.4676381,9.8065996,0.2290076,-1.7709924,0.4198473,-12.3085279,5.0349803,2.6814921,-68.4580154,-51.2900772,-250.1374054
3800,-0.1173153,-1.4724265,9.8137827,0.0534351,-2.2213740,0.5343512,-17.8103752,6.5002246,3.7852135,-56.5954208,0.6641222,-225.3435059
3810,-0.0047884,-1.4484847,9.8257532,0.0229008,-2.9465649,-0.1450382,-19.6131992,8.0827837,5.3366485,-42.9007645,46.5267181,-147.2290039
3820,-0.1268920,-1.3862357,9.7347746,-0.2519084,-2.6106870,-0.1450382,-19.6131992,8.9446917,6.8449879,-27.3053436,66.7480927,-62.5419846
3830,-0.2466015,-1.4053892,9.6749191,-1.1450381,-3.3435113,-0.0229008,-19.6131992,9.1314383,7.7356262,-6.5267177,61.9236641,17.6412220
3840,-0.1364688,-1.5777708,9.6749191,-1.0687023,-2.4732823,-0.0534351,-19.6131992,8.4012108,8.1641865,21.0687027,47.0000000,88.1068726
3850,-0.2011119,-1.5586174,9.7347746,-1.0229008,-2.2977099,0.3435115,-19.0026817,7.6949248,7.3429790,50.1450386,48.4198456,142.0229034
3860,-0.1771700,-1.6112895,9.8137827,-1.6564885,-2.5725191,1.2061069,-15.4640694,7.2328463,6.7444315,73.1603088,61.8320618,175.4656525
3870,-0.1987177,-1.5729824,9.7778702,-1.5267175,-2.3511450,2.0916030,-12.6269550,6.9886389,5.5018473,90.1832047,74.7251892,193.0763397
3880,-0.0646431,-1.6136837,9.7922344,-0.8091603,-2.6335878,2.3969467,-10.1034794,7.0389171,3.4667864,95.9312973,74.3358765,200.3511505
3890,0.0478838,-1.5250987,9.7970228,-0.6183206,-2.2290077,2.1679389,-8.1306677,7.1562324,1.4006008,93.2366409,56.2748108,200.6793823
3900,0.1747758,-1.5610116,9.8209648,-0.2442748,-1.9541985,1.4961832,-6.4930420,7.3262196,0.3543400,83.5038147,25.2061062,197.1068726
3910,0.1939293,-1.5131277,9.8065996,-1.0763359,-1.0458015,0.9083970,-5.0182209,7.7068958,-0.2609667,71.7404556,-13.2977095,190.5343475
3920,0.2298422,-1.5179161,9.7682934,-0.8473282,-0.6183206,-1.0229008,-3.6200144,8.1067257,-0.5817881,61.7786255,-48.6183205,184.3053436
3930,0.1221037,-1.5083394,9.8496952,-0.4427481,0.3129771,-1.6641221,-2.2050486,8.4059992,-0.7733232,55.5343513,-70.1297684,182.6564941
3940,0.0478838,-1.4820032,9.7395630,-0.9007633,1.4656489,-1.3435115,-0.9121862,8.6406298,-1.0606259,53.9847336,-75.8549652,188.8549652
3950,-0.0167593,-1.5394639,9.7323799,-2.1374047,1.4198474,-1.7251909,0.2753318,8.8824425,-1.4149660,55.3587799,-65.9312973,200.6183167
3960,-0.1843526,-1.5179161,9.8329363,-0.7709923,0.6717557,-2.3969467,1.4221486,8.9135675,-2.0877333,57.0381660,-49.4809151,217.0915985
3970,-0.2035061,-1.5705882,9.8353300,-1.1068702,0.2290076,-1.4885496,2.9520357,8.7316093,-2.6910689,57.2977104,-26.9007626,234.5114441
3980,-0.1508339,-1.6639616,9.8089943,-1.2137405,0.5801527,-1.0992366,5.4587522,8.3341732,-3.7445123,53.8931313,-1.9770992,246.4580078
3990,-0.2322364,-1.5586174,9.7635050,-0.9160305,0.6870229,-0.5038168,8.1833391,7.5943689,-4.3502421,45.7328262,21.2290077,249.0229034
4000,-0.0383070,-1.6711442,9.7682934,-1.5954199,-0.2442748,0.4503817,11.4178896,7.1298962,-4.9440012,34.8931313,46.2900772,237.5801544
4010,0.0263361,-1.6376256,9.7682934,-1.2061069,-0.0381679,0.2671756,14.5159702,6.6438756,-5.1475072,24.7022896,66.0839691,210.5114441
4020,0.0119709,-1.6591733,9.8903971,-0.3740458,-1.2366412,-0.5572519,16.9915619,6.6151457,-5.2480631,12.6564884,71.9542007,167.6488495
4030,-0.0119709,-1.5562232,9.8042059,-0.0839695,-2.4656489,-1.1984733,18.7872047,6.9383612,-5.0732875,-2.9618320,62.5267181,110.5267181
4040,-0.0143651,-1.6615674,9.8257532,-0.0229008,-1.9541985,-1.6183206,19.0769024,6.8880830,-4.8195033,-21.0152664,33.6793900,50.9694672
4050,-0.1101327,-1.6304430,9.6844959,-0.5954198,-2.1603053,-1.4045801,18.3299141,7.0125809,-4.0294209,-39.1679382,-8.3129768,-8.6106873
4060,-0.0526722,-1.5729824,9.6749191,-0.3129771,-1.6488550,-1.0229008,17.1160603,7.0652533,-2.5569944,-52.7786255,-39.4503822,-61.5343513
4070,-0.0071826,-1.5705882,9.6581602,-1.9694656,0.6106870,-2.0152671,15.6388454,6.9503322,-1.4843974,-59.6641235,-53.2748108,-102.2290039
4080,-0.3160330,-1.4987626,9.7635050,-3.6106870,-4.5877862,-1.9465649,13.9341822,6.8330169,-0.3303981,-59.7328262,-56.3129768,-134.8854980
4090,-0.2657550,-1.6376256,9.9837704,-0.8015267,-3.0000000,-0.8702290,12.3803539,6.7300668,0.5698171,-53.0152664,-43.8015251,-160.5496216
4100,-0.2753318,-1.6184721,9.9789820,0.5267175,-3.1526718,0.4503817,10.8384953,6.9048424,1.0414724,-43.2519073,-23.4656487,-182.1374054
4110,-0.0478838,-1.3814473,9.7563219,1.2366412,-1.4732825,1.6717557,8.9734221,6.8330169,1.3455344,-32.8244286,1.0000000,-197.9847260
4120,-0.0167593,-1.5921360,9.7826586,0.4732825,-2.7328243,1.3969465,7.2065101,6.9455438,1.2138541,-22.0687027,21.2824421,-212.4961853
4130,-0.0191535,-1.3766589,9.6773138,-0.2824427,-4.1221375,0.6183206,5.3007355,6.6199336,-0.0526722,-13.1832066,28.5343513,-227.3358765
4140,-0.0526722,-1.4532729,9.6916790,-0.8320611,-3.3358779,1.2442749,2.9687948,6.3829093,-0.8523315,-8.9160309,32.0839691,-241.5038147
4150,-0.0526722,-1.4604555,9.7419567,-1.9923664,-3.3664122,1.4198474,-0.0454896,6.2943239,-1.6376256,-7.6946564,43.7633591,-248.2442780
4160,-0.0981618,-1.4915800,9.8113880,-1.9389313,-4.0000000,0.9389313,-3.7828193,6.6773944,-2.1882892,-8.0534353,61.3969460,-242.3053436
4170,-0.0718257,-1.4532729,9.8473015,-0.7786260,-3.8854961,0.2366412,-8.0013809,7.6470413,-2.4851687,-9.4045801,68.5038147,-224.1374054
4180,-0.0981618,-1.5849534,9.7970228,-0.9465649,-3.6335878,0.5496183,-11.5711174,8.3174143,-2.2840567,-11.9465647,62.3358765,-191.8625946
4190,-0.0837966,-1.6424140,9.7802639,-0.9694657,-2.9618320,1.4961832,-15.0450869,9.3469152,-1.5346755,-16.7862587,55.4351158,-148.4961853
4200,-0.0215477,-1.5538290,9.7754755,-1.0687023,-2.1984732,2.4580152,-17.7912216,10.1369982,-0.4429250,-23.5190830,47.9236641,-92.1832047
4210,0.1604107,-1.5562232,9.8401184,-1.0534351,-1.9083970,2.6412213,-18.6651001,10.2926207,0.9480990,-27.2900772,31.0458012,-31.5038166
4220,0.2944853,-1.6041069,9.8616667,-0.5954198,-0.9007633,1.9160305,-18.0809193,10.0101061,2.5330524,-23.0458012,17.6946564,26.2671757
4230,0.2944853,-1.5011568,9.9143381,-0.2366412,0.3740458,1.1603054,-16.1392307,9.3493099,3.8522508,-11.8778629,17.0534344,77.3053436
4240,0.2609667,-1.4436963,9.7706871,-1.2519084,1.8702290,-0.1679389,-10.7858238,8.0947542,5.0349803,22.8167934,53.7557259,144.4503784
4250,0.2920911,-1.6400198,9.8616667,-1.8320611,0.8854962,-1.6488550,-8.6166878,7.9750452,4.5274124,38.1603050,68.4274826,157.3435059
4260,-0.0622489,-1.5011568,9.8927908,-0.2824427,1.4580153,-2.4198472,-6.8473821,8.0253229,3.3542595,47.6641235,66.1221390,161.7022858
4270,-0.0766141,-1.6232605,9.8113880,-1.2748091,1.1450381,-1.9770992,-5.6431046,7.9870162,1.9799947,50.8244286,47.2900772,160.6564941
4280,-0.1508339,-1.6424140,9.7802639,-1.0687023,0.6564885,-1.6717557,-4.6566987,8.0492649,0.6584021,49.2290077,15.4274807,158.6183167
4290,-0.1747758,-1.6807210,9.8089943,-0.4580153,0.0076336,-1.3816794,-3.5601597,8.1809454,-0.2825144,43.6564903,-20.1679382,155.0610657
4300,-0.1651991,-1.6974803,9.7611103,-0.8396947,-1.0763359,-0.0229008,-2.4372849,8.3389616,-0.9457048,36.5267181,-44.6870232,153.6412201
4310,-0.0550664,-1.6998745,9.7658987,-0.7709923,-1.8702290,0.3587786,-1.3048333,8.4658537,-1.4053892,29.9694653,-54.6030540,157.3358765
4320,0.0359128,-1.6256547,9.7323799,-0.9389313,-1.9007634,0.4885496,-0.2106887,8.4634600,-1.7238164,26.3740463,-49.3740463,167.1221313
4330,0.0742199,-1.6112895,9.7994175,-0.6030535,-2.2519083,-0.1908397,1.0247130,8.2719250,-1.9488702,25.9236641,-32.5267181,180.8167877
4340,0.0574605,-1.7046629,9.8592720,-0.3511450,-2.1679389,-0.6564885,2.4061604,8.2551651,-2.4205256,25.6717548,-13.3206110,196.0152740
4350,0.0383070,-1.5227045,9.8305416,-0.8396947,-2.6793892,-0.8778626,4.0509686,8.0516596,-3.1459649,22.2213745,4.1832061,210.7480927
4360,0.0790083,-1.5274929,9.7730818,-0.7862595,-2.3053436,-0.8320611,5.9902620,7.7380204,-3.4979107,12.7328243,22.9770985,218.9160309
4370,0.0430954,-1.6065011,9.8329363,-0.6488550,-2.0839694,-1.0916030,8.0348997,7.4124107,-3.6798692,0.9541985,35.3053436,220.1755676
4380,0.0263361,-1.5131277,9.7323799,0.2595420,-1.8625954,-1.2366412,10.2088242,6.9000540,-3.2680686,-11.7862597,42.3816795,213.7557220
4390,-0.0790083,-1.5274929,9.7850523,-0.4885496,-1.2366412,-0.4732825,12.9765072,6.5792327,-2.4684093,-22.3282452,50.0610695,194.7862549
4400,-0.0191535,-1.5514348,9.7874460,-0.1832061,-1.8396946,0.0916031,16.2517586,6.3613615,-1.4413021,-28.7175579,52.3511467,161.0686951
4410,0.0263361,-1.4939742,9.7635050,-0.3969466,-1.6717557,0.7404580,18.4951134,6.1913738,-0.8834559,-31.3969460,41.6030540,114.6259537
4420,0.0000000,-1.5969244,9.7826586,-0.9770992,-1.8320611,1.3282443,19.6126022,6.1937680,-0.2849085,-31.4885502,25.6259537,60.3511467
4430,-0.0383070,-1.4724265,9.7754755,-0.9389313,-2.8549619,1.2442749,19.2133713,6.2751703,-0.0287303,-31.2442741,-22.9312973,-48.7099228
4440,0.0335187,-1.4556671,9.7156210,-1.4274809,-2.8778627,0.9847328,18.0066986,6.4236102,0.1628049,-31.8702297,-40.6183205,-98.1145020
4450,-0.0167593,-1.5155219,9.8137827,-1.5648855,-2.7328243,1.2977099,16.4385052,6.4858594,-0.0454896,-31.7328243,-52.3358765,-139.3511505
4460,-0.0478838,-1.5011568,9.7826586,-1.3435115,-2.6030533,1.1145039,14.4920292,6.3254485,-0.0814024,-30.4198475,-57.1374054,-174.3435059
4470,0.0167593,-1.5801650,9.7371683,-1.4427481,-2.7022901,1.5954199,12.7801828,6.3541789,-0.1699875,-28.5877857,-50.9465637,-202.9618378
4480,0.0526722,-1.5993185,9.7587166,-1.4656489,-3.0152671,2.3129771,11.1808643,6.1889796,-0.5410868,-28.2824421,-44.1450386,-226.4732819
4490,0.0454896,-1.6232605,9.9023676,-1.0610687,-2.9618320,2.5114503,9.3564920,5.9950504,-0.7374104,-29.2213745,-41.9465637,-249.5954132
4500,0.1197095,-1.6424140,9.7323799,-0.9847328,-2.5190840,3.0152671,7.7859039,5.8154860,-1.1803354,-31.5114498,-45.3282433,-250.1374054
4510,0.2896969,-1.5442522,9.8999729,-0.3511450,-2.0687022,2.7557251,6.0836353,5.4060798,-1.7022687,-38.3587799,-55.2595406,-250.1374054
4520,0.3088504,-1.5681942,9.8473015,0.0687023,-1.2061069,2.0305343,3.9815371,4.9607606,-1.8219782,-48.6259537,-68.2290039,-250.1374054
4530,0.4118006,-1.4939742,9.6988611,-0.0458015,-0.5496183,1.0305344,1.4748207,4.5681133,-1.5562232,-58.8091621,-76.6793900,-250.1374054
4540,0.4118006,-1.4820032,9.7156210,-0.6641222,0.4656489,-0.1450382,-2.0925217,4.3765783,-1.0606259,-65.4580154,-71.4198456,-250.1374054
4550,0.2609667,-1.5155219,9.7730818,-0.7633588,1.2061069,-0.6183206,-7.1705976,4.9440012,-0.2202654,-64.3740463,-35.8244286,-250.1374054
4560,0.1221037,-1.5897418,9.7587166,-0.8015267,1.0305344,-0.9389313,-13.7019463,6.8330169,0.7517755,-58.3587799,23.0229015,-250.1374054
4570,0.0837966,-1.4484847,9.7515335,-0.6717557,3.3893130,-0.2595420,-19.0218353,9.2224178,1.5729824,-54.8625946,61.7786255,-191.2671814
4580,0.1675933,-1.6136837,9.6390066,-1.2290076,4.3664122,-0.7633588,-19.6131992,10.4985209,3.0334380,-52.5877876,74.4656525,-106.9694672
4590,-0.0023942,-1.5346755,9.7754755,-3.3358779,-0.4351145,-1.5648855,-19.6131992,10.6780853,4.4795284,-42.9847336,65.3893127,-24.1755733
4600,-0.1819584,-1.6017127,9.9263096,-3.5114503,-2.3358779,0.1755725,-19.6131992,10.2830439,5.9256191,-23.7099228,48.4961815,53.4580154
4610,-0.0359128,-1.8507085,9.9334917,-1.8702290,-1.8091604,1.6717557,-19.2612534,9.2846670,6.5600791,3.9618320,48.2748108,121.7480927
4620,0.1843526,-1.4772149,9.7204094,-0.3587786,0.9236641,1.6412214,-11.6453371,8.2384062,5.3797436,52.7328262,95.7480927,203.0305328
4630,0.2944853,-1.5993185,9.7635050,-1.7633588,0.9236641,0.7557252,-8.7052727,7.9439206,3.7014170,64.8396912,108.2977066,217.2671814
4640,0.2082945,-1.5610116,9.9095497,0.4809160,1.7099236,-2.5801528,-2.1044924,8.1665802,-0.3280039,49.1755714,27.9389305,203.9541931
4650,0.1125269,-1.6519908,9.7898407,0.2824427,0.5572519,-2.7175572,-0.7805058,8.1258793,-1.0965388,36.5572510,-16.1526718,195.5877838
4660,-0.0311245,-1.6448082,9.7419567,0.0992366,0.1679389,-2.4656489,0.3280039,8.1474266,-1.2545552,26.2290077,-52.8473282,192.9465637
4670,-0.1197095,-1.5681942,9.7587166,0.0305344,-0.8244275,-2.8931298,1.8961980,7.9894104,-1.3096216,19.7557259,-66.7557220,194.3358765
4680,-0.2825144,-1.6280488,9.5935173,-0.8091603,-1.5343511,-2.0076337,3.5146701,7.5728211,-1.3551112,17.4122143,-59.8167953,199.8244324
4690,-0.3184272,-1.6424140,9.6677370,-1.5725191,-2.4274809,-0.9236641,5.3390427,7.1586266,-1.3766589,17.2671757,-40.5877876,205.2290039
4700,-0.2322364,-1.5562232,9.7946291,-1.4122137,-2.2061069,1.1297710,7.7882981,6.7779503,-1.5658000,17.2977104,-17.2290077,205.4274750
4710,-0.0143651,-1.5753766,9.9095497,-0.6335878,-1.9923664,2.2442749,10.7546988,6.5457139,-2.0111191,15.3664122,0.5038168,193.9236603
4720,0.1412572,-1.5418580,9.8568783,0.3358779,-2.4274809,3.1221373,16.7856617,6.3805151,-2.2936335,4.3664122,2.3587787,122.0381699
4730,0.2777260,-1.5011568,9.7108326,-0.5419847,-1.5877863,2.6412213,18.3514614,6.5624733,-2.2649033,-3.7938931,-2.3206108,69.0763321
4740,0.2992737,-1.4389079,9.6773138,-0.3511450,-1.2213740,1.7480916,18.6603127,6.6845770,-2.0278785,-12.7862597,-14.4045801,14.5267172
4750,0.2370248,-1.4532729,9.7299862,-0.6412213,-0.5801527,0.4580153,17.9181137,6.8952656,-1.6208663,-22.1526718,-31.7328243,-37.2213745
4760,0.1268920,-1.5801650,9.6821022,-1.7480916,-0.4885496,-0.5496183,16.5462437,6.9694853,-1.3503228,-31.6183205,-55.4961815,-84.5267181
4770,0.0215477,-1.5705882,9.8161764,-1.4198474,-1.9694656,-1.4427481,15.1384602,7.0628591,-0.7996593,-39.7099228,-76.4885483,-126.2900772
4780,-0.1197095,-1.6041069,9.9670105,-0.9465649,-3.0687022,-0.7633588,13.2709923,6.9503322,-0.2657550,-43.0916023,-85.9160309,-160.4274750
4790,-0.0981618,-1.7022687,9.9095497,-0.0076336,-3.8854961,0.3358779,11.5519638,6.9575148,0.0909792,-42.7938919,-83.1221390,-188.5572510
4800,0.0047884,-1.7142396,9.8113880,0.5343512,-3.9770992,2.0534351,9.8927908,6.9287844,-0.0814024,-41.9389305,-75.6717529,-211.1832123
4810,0.1484398,-1.5993185,9.7539282,0.3664122,-4.5190840,2.4274809,8.1115141,6.8976598,-0.4884146,-42.9312973,-69.9312973,-230.1832123
4820,0.2633608,-1.5298871,9.8257532,0.5954198,-3.7022901,2.5267177,6.3182659,6.6678176,-0.6775556,-45.5954208,-66.0076370,-245.3893127
4830,0.3710994,-1.5155219,9.7682934,0.1603053,-1.6335878,2.5496182,4.3741841,6.6007805,-0.8116302,-49.2442741,-63.1908379,-250.1374054
4840,0.6248835,-1.4556671,9.8329363,-0.3129771,1.1679389,2.6335878,1.9536586,6.2129216,-0.4357425,-51.4885483,-55.5725174,-250.1374054
4850,0.6751614,-1.4317253,9.8449068,0.1068702,3.1145039,1.3816794,-1.1875180,6.3709383,-0.4141948,-48.9312973,-35.5114517,-250.1374054
4860,0.6991033,-1.4508789,9.9023676,-0.0763359,4.4732823,-1.1374046,-4.8362627,6.9216018,-0.1891410,-42.4122124,-0.2519084,-242.1374054
4870,0.5243275,-1.4413021,9.7467451,-0.6335878,4.8625956,-2.7404580,-9.1242561,7.9319496,0.0742199,-35.3129768,40.8931313,-206.8015289
4880,0.3615226,-1.6256547,9.8089943,-1.0687023,4.6488547,-3.9389312,-13.6133614,9.4618368,0.7493813,-32.5496178,73.9542007,-155.5648804
4890,0.0981618,-1.5179161,9.7108326,-1.1908396,5.8549619,-4.0000000,-16.5558205,10.4721851,1.5418580,-32.0228996,84.3053436,-97.4580154
4900,-0.1292862,-1.6807210,9.6030941,-3.3587787,4.5648856,-3.1984732,-18.1982346,11.0013008,2.8251436,-26.5038166,76.8854980,-38.8778610
4910,-0.2681492,-1.7238164,9.6988611,-4.4198475,2.3511450,-2.7404580,-18.4304695,11.2909975,4.0485744,-13.7022905,60.2824440,21.5190830
4920,-0.3710994,-1.6831152,9.8544836,-3.1297710,0.2061069,-1.4045801,-17.1280308,10.7930059,4.6902170,3.6412213,50.5572510,76.3816757
4930,-0.4165890,-1.6519908,9.9694052,-1.3816794,-0.6946565,-0.2671756,-14.1089582,10.0436249,4.6231799,22.8931293,52.0534363,122.5114517
4940,-0.2920911,-1.6926919,9.9239149,-0.7709923,-0.8396947,1.4351145,-11.3460636,9.6294298,3.9671719,38.5877876,61.0381660,155.0763397
4950,-0.1436514,-1.6543850,9.8664551,-0.1145038,-1.2748091,2.7633588,-8.5424681,9.1697454,3.0286496,47.5190849,67.6946564,174.2671814
4960,0.0598547,-1.6328372,9.8018112,-0.2442748,-1.9923664,3.0763359,-6.1363077,8.8369532,1.8890154,50.8473282,65.0534363,183.0763397
4970,0.3351865,-1.6543850,9.7922344,-0.0229008,-2.2671757,2.3969467,-3.8091555,8.6238708,0.6751614,48.4885483,47.8015251,184.3969421
4980,0.4141948,-1.6902977,9.7371683,-0.4580153,-2.7328243,1.4580153,-2.1499822,8.4251528,-0.1077385,41.7099228,17.4274807,181.2290039
4990,0.3687052,-1.6519908,9.8664551,-0.6412213,-2.7786260,0.4503817,-0.6871324,8.4203644,-0.4477134,33.2366409,-11.9007635,176.2671814
5000,0.2896969,-1.6136837,9.8042059,-0.5496183,-2.8167939,-0.9083970,0.3830703,8.4179697,-0.6703730,25.7328243,-35.7480927,173.5496216
5010,0.2537841,-1.6495966,9.7994175,-0.7633588,-2.3282442,-1.8473282,1.8052188,8.1857338,-0.5817881,21.9847336,-48.9312973,175.6564941
5020,0.1364688,-1.6160779,9.7778702,-0.6717557,-1.9389313,-2.6030533,3.5362179,7.8481531,-0.5602403,21.3206100,-47.5038185,178.9694672
5030,-0.0071826,-1.6017127,9.7228031,-1.1450381,-1.8702290,-2.2519083,5.3845320,7.4794478,-0.5458752,22.8015270,-33.3893127,182.6641235
5040,-0.0047884,-1.5969244,9.8496952,0.4351145,-1.2061069,-2.1374047,8.0995426,7.3381906,-0.7948709,24.6106873,-18.8091602,179.4045868
5050,-0.0837966,-1.7142396,10.0532017,1.4885496,-1.9312977,-0.9312977,11.2215662,6.8018923,-1.5227045,24.5038166,-6.4351144,165.0076294
5060,-0.0454896,-1.5705882,9.7323799,1.5496184,-2.9465649,0.3893130,14.2430334,6.5864153,-2.0973101,22.5648861,9.3969469,136.6412201
5070,0.1532281,-1.5227045,9.7108326,0.2977099,-2.4427481,0.0839695,17.5111008,6.7276726,-3.2584918,5.7938933,15.9083967,49.7022896
5080,0.0095768,-1.3886299,9.6773138,-1.5267175,-6.0381680,-0.9007633,17.4009686,7.1179252,-3.6224086,-11.4885492,-5.5954199,-2.0534351
5090,-0.1364688,-1.5346755,9.7563219,-1.9770992,-7.7328243,-0.1908397,16.3547077,7.1418672,-2.9903426,-31.5114498,-45.0458031,-52.8702278
5100,-0.1747758,-1.5993185,9.7898407,-0.6946565,-7.9007635,0.8320611,15.4808292,7.0796180,-1.7932479,-46.0000000,-79.2977066,-94.7404556
5110,0.0000000,-1.5562232,9.8281479,1.4351145,-5.5114503,1.1755725,14.1352949,6.9455438,-0.5626345,-52.2061081,-99.4809189,-131.0992432
5120,-0.0335187,-1.5155219,9.7922344,0.5648855,-6.4732823,1.7938931,12.6461086,6.7947097,0.3375807,-51.2290077,-101.0457993,-159.9465637
5130,0.0335187,-1.5729824,9.6940727,-0.4427481,-7.4885497,2.6259542,11.2335367,6.8210459,0.7182568,-45.4045792,-88.5343475,-182.7099304
5140,0.2035061,-1.6208663,9.8856087,-0.8320611,-7.1221375,4.2137403,9.7635050,6.7611909,0.4979914,-39.6488533,-72.4961853,-200.4045868
5150,0.3567342,-1.5969244,9.9765873,0.6412213,-6.0152674,4.5725193,8.2671366,6.8425937,0.0814024,-36.4885483,-59.9389305,-219.0152740
5160,0.5626345,-1.4676381,9.9957409,1.7862595,-4.7404580,3.6564887,6.7276726,6.7085190,-0.3232156,-36.6717567,-52.6946564,-236.0229034
5170,0.7086801,-1.4221486,9.7850523,1.0458015,-3.3511450,3.2213740,5.1068063,6.5217719,-0.6033357,-39.9847336,-53.6412201,-250.1374054
5180,0.7900825,-1.4820032,9.6270361,-0.0687023,-1.4427481,2.2519083,3.6080434,6.2177100,-0.8188128,-45.5954208,-62.1374054,-250.1374054
5190,0.7733232,-1.4628497,9.7132263,-0.7633588,0.3511450,0.3129771,1.8985922,6.0477223,-0.6344602,-52.3587799,-70.5954208,-250.1374054
5200,0.6799498,-1.5442522,9.7802639,-1.6488550,1.1908396,-1.3053435,-0.7302278,5.7676024,-0.4836263,-58.0381660,-74.7862625,-250.1374054
5210,0.5195391,-1.5107336,9.8233595,-1.6564885,1.0916030,-2.7328243,-4.0413918,5.7532372,0.0143651,-60.4809151,-65.7938919,-250.1374054
5220,0.2226596,-1.5945302,9.8329363,-1.4732825,1.0305344,-2.9389312,-8.5831690,6.4092450,0.6919208,-57.4580154,-35.3740463,-250.1374054
5230,0.0383070,-1.5921360,9.8137827,-1.4961832,1.4198474,-1.7022901,-13.9677010,7.7547798,1.4700323,-49.7251892,7.4427481,-213.2748108
5240,0.0622489,-1.6926919,9.7778702,-1.5801526,-0.3740458,-0.9236641,-18.6770725,9.4953556,2.6695213,-41.7099228,47.9236641,-145.0076294
5250,0.0047884,-1.6855093,9.8616667,-1.1679389,-2.0839694,-0.6183206,-19.6131992,10.4434547,3.9552009,-32.3740463,71.2137375,-70.6030502
5260,0.0335187,-1.6711442,9.8042059,-1.2671756,-3.7480917,0.4656489,-19.6131992,10.6637201,5.1044121,-17.6641216,75.9236679,0.8473282
5270,0.2298422,-1.6376256,9.8233595,-0.9847328,-3.6259542,1.3969465,-19.6131992,10.3261395,5.7436604,3.7633588,68.5343475,67.6030502
5280,0.4405309,-1.5274929,9.8233595,-0.3206107,-2.1068702,0.2519084,-14.7027178,9.0404596,5.1475072,49.2519073,83.8244247,164.2824402
5290,0.5099624,-1.4843974,9.7395630,1.0000000,-4.8320613,2.5343511,17.9420567,6.1410961,-3.8259149,-5.2442746,26.6641216,113.8625946
5300,0.4620786,-1.6400198,9.7467451,-1.1679389,-4.7251906,0.0381679,14.3340120,6.3062949,-0.0861908,-64.9847336,-100.4809189,-143.4274750
5310,0.3854645,-1.7094513,9.8401184,-0.9541985,-4.7099237,0.5114504,12.3396521,6.2991123,0.8283895,-61.6106873,-95.9465637,-171.7633514
5320,0.4501076,-1.5873476,9.8377247,0.5114504,-4.8931298,0.6183206,10.6397781,6.2584114,1.0318956,-54.5114517,-79.7557220,-192.2977142
5330,0.4237715,-1.5945302,9.9478569,1.4198474,-4.7251906,1.2442749,9.0236998,6.3206601,0.6248835,-48.1832047,-61.6030540,-210.3129730
5340,0.6536137,-1.5586174,9.7898407,1.2137405,-3.1374047,1.4045801,7.6063399,6.4140334,0.0694315,-45.1526718,-50.0228996,-226.1984711
5350,0.7733232,-1.4293311,9.7682934,0.6183206,-1.5877863,0.6030535,6.2129216,6.3206601,-0.3998296,-46.4351158,-47.0992355,-243.1526642
5360,0.8355721,-1.3527170,9.6701307,-0.0534351,0.3587786,-0.3282443,4.3263001,6.0596933,-0.5554519,-51.5954208,-50.7938919,-250.1374054
5370,0.7421987,-1.4245427,9.7778702,-0.4503817,1.5801526,-1.0839695,2.5210814,5.9184365,-0.5195391,-56.6717567,-55.1679382,-250.1374054
5380,0.5458752,-1.3910241,9.8999729,-0.7709923,1.8167939,-1.5801526,0.1364688,5.6191626,-0.4046180,-60.8778610,-56.4885483,-250.1374054
5390,0.4429250,-1.5035510,9.7730818,-2.0000000,1.3129771,-1.2519084,-3.3782012,5.5928264,-0.1843526,-61.3511467,-43.9007645,-250.1374054
5400,0.3687052,-1.5562232,9.7587166,-1.8244275,0.6106870,-1.4427481,-8.4443064,6.3685441,0.5961532,-55.3587799,-9.8931293,-250.1374054
5410,0.2968795,-1.5394639,9.8712435,-0.7175573,0.5343512,-1.3511450,-15.2845058,8.3916340,1.4077834,-47.0381660,39.2442741,-206.6870270
5420,0.3016679,-1.6256547,9.7299862,-0.9236641,-0.2671756,-0.6030535,-19.6131992,9.9502516,2.4827745,-41.4732819,82.7709961,-132.4122162
5430,0.3112446,-1.6831152,9.6797075,-2.0076337,-1.3511450,0.2977099,-19.6131992,10.7307568,3.5864959,-35.9160309,101.5725174,-52.1908379
5440,0.3639168,-1.7429699,9.7419567,-1.6946565,-1.1908396,0.8778626,-19.6131992,10.9294748,5.1139889,-22.4580154,91.5877838,24.8320618
5450,0.3256098,-1.6256547,9.8544836,-1.4503816,-2.7404580,0.7862595,-19.6131992,10.3165627,6.0189924,0.0381679,72.6412201,97.1908417
5460,0.3710994,-1.6950861,9.9382801,-0.8625954,-4.8702292,0.5877863,-18.8805771,9.2942438,5.9519548,26.7251911,71.0076370,155.4045868
5470,0.5602403,-1.6567791,9.9717989,-0.0534351,-5.6641221,-0.2213740,-15.2725344,8.9063845,5.1882086,47.8473282,90.3129807,197.0992432
5480,0.4788379,-1.5729824,9.8880024,0.9312977,-5.7328243,-0.6412213,-12.0595322,8.4658537,4.1874375,61.2900772,107.6106873,222.6412201
5490,0.4213773,-1.4724265,9.8544836,1.5954199,-5.1755724,-0.8702290,-9.1673517,8.2719250,2.5450234,65.9770966,102.1068726,236.9236603
5500,0.4740495,-1.5418580,9.8137827,1.2595420,-4.8320613,-0.5419847,-6.3039007,8.1163025,1.0654143,61.1755714,76.5038147,240.1068726
5510,0.3734936,-1.4772149,9.6414013,0.5419847,-4.3740458,-0.4885496,-3.8857694,8.0013809,-0.0143651,49.6412201,37.9236641,237.1526642
5520,0.5530578,-1.4149660,9.7419567,0.3358779,-4.0992365,-0.2061069,-1.8674678,7.8361821,-0.2537841,36.1984749,-3.9465649,230.5877838
5530,0.4932030,-1.4101776,9.8329363,0.3129771,-3.1526718,0.4503817,-0.0861908,7.6207051,-0.1891410,27.8396950,-37.8625946,225.8549652
5540,0.5339043,-1.4580613,9.9215212,1.3816794,-3.5572519,0.5038168,1.6376256,7.3118544,-0.3351865,24.2519093,-56.3816795,224.9618378
5550,0.5315101,-1.4077834,9.8736372,0.6870229,-3.3664122,1.1755725,3.8546450,6.9263902,-0.4740495,24.9847336,-55.2213745,227.3893127
5560,0.5865764,-1.4317253,9.6222477,0.3129771,-4.0534353,0.5114504,6.1267309,6.4475522,-0.8714849,27.6564884,-34.0228996,229.7022858
5570,0.4716553,-1.4173602,9.6821022,-0.8549618,-3.8320611,0.4351145,9.0691900,6.1315193,-1.5442522,29.4656487,-3.3587787,226.8854980
5580,0.4213773,-1.4460905,9.6437950,-1.9923664,-3.5648854,0.9923664,13.0172081,5.6502872,-2.0015423,28.2900772,24.1145039,210.0152740
5590,0.4213773,-1.5227045,9.8520899,-1.8854961,-4.2900763,0.8167939,17.0585995,5.4563580,-2.5881188,25.5267181,47.1755714,174.7480927
5600,0.4070122,-1.5681942,9.8999729,-1.3816794,-4.6106873,1.2824427,19.6126022,5.7604198,-3.3829896,15.0534353,59.1603050,121.4885483
5610,0.3687052,-1.5298871,9.9885588,-0.4045801,-5.1068702,1.8854961,19.6126022,6.1578555,-3.8570392,-2.6793892,52.9083977,60.2671738
5620,0.5123565,-1.5705882,9.8736372,0.6259542,-5.5801525,2.4656489,19.6126022,6.2033448,-3.6774750,-24.0687027,25.4045811,-1.4122137
5630,0.5722113,-1.5179161,9.8927908,1.4198474,-5.4503818,2.9007633,19.6126022,6.4595232,-2.8634505,-43.1450386,-8.2213745,-59.0839691
5640,0.7469871,-1.4963684,9.7108326,0.6030535,-4.1068702,3.0534351,18.1503506,6.2895355,-1.9153515,-56.0152664,-37.7938919,-107.1526718
5650,0.9050036,-1.4604555,9.7587166,0.6946565,-3.2824428,2.2519083,16.3164005,6.2009506,-0.9983770,-62.5190849,-50.2824440,-145.9160309
5660,1.0103480,-1.4197544,9.8137827,-0.1679389,-1.5343511,1.0000000,14.4489336,6.1482787,-0.2370248,-63.6793900,-39.4045792,-175.0686951
5670,0.9193687,-1.4772149,9.8233595,-1.3053435,0.0152672,0.5725191,12.7562418,6.1698260,0.2657550,-61.3893127,-17.9465656,-196.0076294
5680,0.9457048,-1.4748207,9.7467451,-2.8473282,0.9694657,-0.4656489,10.9605989,6.1674318,0.6607963,-55.7328262,0.3358779,-213.9770966
5690,0.8690908,-1.4460905,9.8401184,-2.3206108,1.8320611,-1.9236641,9.1505919,6.0189924,0.6057299,-48.6259537,13.5496187,-231.4809113
5700,0.6799498,-1.3982066,9.9287033,-1.2442749,2.5190840,-2.4274809,7.6063399,6.0525107,0.2322364,-43.2900772,19.2442741,-249.1832123
5710,0.5674229,-1.5274929,9.9646168,-0.7938932,2.8244274,-2.4656489,6.1913738,5.7149301,-0.1149211,-40.9541969,17.1450386,-250.1374054
5720,0.3854645,-1.4413021,9.7658987,-1.7251909,2.8778627,-1.0839695,4.4914994,5.3797436,-0.3854645,-42.9160309,5.4809160,-250.1374054
5730,0.5410868,-1.6160779,9.7395630,-2.2442749,2.3435113,-0.1068702,2.4109488,5.1906028,-0.6584021,-48.8931313,-16.9923668,-250.1374054
5740,0.4716553,-1.5586174,9.7108326,-1.3206106,2.2977099,-0.4351145,-0.4046180,5.0134325,-0.5482694,-58.0992355,-47.6488533,-250.1374054
5750,0.4788379,-1.5921360,9.7419567,-1.4351145,1.1450381,0.0610687,-3.4572096,5.0014620,-0.0694315,-66.7099228,-73.9847336,-250.1374054
5760,0.5003856,-1.6711442,9.8975792,-1.3587786,-0.2519084,-0.4961832,-7.6015515,5.3294659,0.9648584,-70.3129807,-81.5114517,-250.1374054
5770,0.4788379,-1.5921360,9.8233595,-0.9160305,-0.9694657,-0.3511450,-12.8783455,6.2679882,2.4708035,-67.8396912,-60.7022896,-250.1374054
5780,0.4908088,-1.6615674,9.9670105,0.1832061,-1.3587786,-0.1221374,-18.2102051,7.6661944,3.9528067,-59.7404594,-23.5725193,-216.4580078
5790,0.4788379,-1.5801650,9.8832140,0.4885496,-1.3740458,0.1297710,-19.6131992,8.8800488,5.5186067,-46.7709923,0.6793893,-141.0458069
5800,0.5267217,-1.5753766,9.8137827,0.2366412,-2.0305343,0.2977099,-19.6131992,9.2631187,6.7300668,-26.9465656,11.2519083,-63.4885483
5810,0.6081241,-1.4939742,9.7395630,-0.6564885,-2.1832061,0.3893130,-19.6131992,9.1122847,7.3286138,-2.1526718,20.5572510,13.0152674
5820,0.5578461,-1.5227045,9.7994175,-0.8244275,-2.1679389,0.1603053,-19.6131992,8.6549950,7.1753860,23.8549614,40.6030540,80.2748108
5830,0.6392486,-1.4293311,9.8544836,0.3587786,-1.7328244,-0.4503817,-18.8638191,8.1378498,6.6199336,46.5267181,65.9770966,130.2442780
5840,0.5291159,-1.3862357,9.8137827,0.6412213,-0.9694657,-0.2061069,-15.8136215,7.8481531,5.6478930,64.0687027,80.6870193,163.9618378
5850,0.5913648,-1.4963684,9.7012558,0.2824427,-1.8625954,0.1679389,-13.3523941,7.6566176,4.4699516,73.6335907,73.5419846,182.3206177
5860,0.5841822,-1.4796091,9.7132263,-0.0152672,-2.5801528,0.0610687,-10.9558105,7.5728211,2.8466914,74.8854980,46.0076332,190.0915985
5870,0.4716553,-1.4796091,9.7204094,-0.5954198,-2.7786260,0.2595420,-8.7555504,7.5249376,1.6328372,69.2671738,13.1450386,190.3740387
5880,0.5267217,-1.5083394,9.7635050,-0.0992366,-2.8702290,0.3511450,-7.1610208,7.4459291,1.0606259,60.8473282,-14.2824430,186.6793823
5890,0.5482694,-1.5083394,9.7802639,-0.1603053,-2.7557251,0.4732825,-5.5856438,7.2807302,0.9073978,53.6946564,-38.7099228,182.5648804
5900,0.5075682,-1.5346755,9.7587166,-0.5038168,-3.9465649,0.6946565,-4.1371593,7.3262196,0.7781116,49.5038185,-57.2824440,178.3435059
5910,0.5171449,-1.4724265,9.7635050,-0.1908397,-4.6106873,1.0000000,-3.1124463,7.4842362,0.6464311,47.6641235,-67.9923630,176.9770966
5920,0.5051740,-1.5011568,9.7922344,0.5038168,-4.3816795,1.2213740,-2.1164634,7.6638002,0.3974355,47.4732819,-70.4427490,180.0534363
5930,0.6129125,-1.4796091,9.7970228,0.1603053,-3.2442749,2.3740458,-1.1204807,8.0325060,-0.2705434,48.4274826,-66.4885483,192.5267181
5940,0.7781116,-1.3790531,9.8640604,0.9007633,-1.8244275,1.4885496,0.3327923,8.2000990,-1.3311694,47.9007645,-56.1908379,210.4961853
5950,0.9720409,-1.3575054,9.7778702,0.7404580,2.5343511,0.9312977,3.8498566,7.8385763,-2.8730273,38.3206100,-8.0534353,248.3129730
5960,0.9672526,-1.3622938,9.9119444,0.1755725,5.2824426,0.1908397,9.3014259,6.8569584,-4.1036406,15.3053436,29.6641216,250.1297760
5970,0.9600700,-1.3982066,9.7084379,-0.3816794,6.0992365,-0.7480916,17.4536419,5.7556314,-3.4787574,-12.0687027,29.9465656,214.3587799
5980,0.8619082,-1.5083394,9.5863342,-3.7404580,5.6335878,-1.1984733,19.6126022,5.6095858,-2.7150109,-20.2366409,26.7786255,161.3740387
5990,0.7398046,-1.4987626,9.6509781,-5.3358779,4.5877862,-2.9312978,19.6126022,5.8106980,-2.1212518,-25.6870232,18.9236641,99.6793900
6000,0.5817881,-1.6400198,9.7443514,-6.7328243,4.3206105,-3.1374047,19.6126022,5.9543490,-1.6495966,-30.4503822,3.7022901,34.2671738
6010,0.4908088,-1.8435259,9.9741936,-5.0000000,3.2595420,-3.7786260,19.6126022,6.0549049,-1.2497669,-36.2671738,-13.1221371,-29.0381680
6020,0.2657550,-1.7884595,10.1513634,-0.6870229,1.0534351,-4.8244276,19.6126022,6.1458845,-0.7757174,-42.5114517,-25.4580154,-85.2977066
6030,0.1843526,-1.7621235,9.8568783,0.8473282,-1.7251909,-3.9083970,18.2030220,5.8442163,-0.1675933,-45.7633591,-33.6412201,-129.8473358
6040,0.1651991,-1.8650736,9.7682934,-0.2748092,-4.3129773,-1.9236641,15.8399572,5.6694407,0.2633608,-44.6259537,-34.6106873,-164.3664093
6050,0.2705434,-1.8339491,9.5695753,-1.0152671,-6.0610685,-0.4427481,13.4314032,5.5473371,0.5602403,-40.1603050,-24.4580154,-189.6335907
6060,0.3280039,-1.6208663,9.7299862,-1.0687023,-5.4198475,0.1068702,11.4873209,5.6766233,0.5506636,-34.4809151,-13.7862597,-209.7480927
6070,0.4548960,-1.6208663,9.8832140,-1.3435115,-5.4809160,1.4656489,9.7706871,5.5473371,0.4525018,-29.8244267,-2.7709923,-227.1068726
6080,0.5913648,-1.5035510,10.0651722,-0.1221374,-5.1603055,0.9770992,8.3772688,5.5186067,0.0502780,-26.9694653,0.1450382,-243.5114441
6090,0.6536137,-1.3646880,10.0148945,1.8396946,-4.5343513,0.9465649,7.0939832,5.3127065,-0.2346306,-28.2595425,-0.8625954,-250.1374054
6100,0.7110743,-1.3910241,9.9909525,2.1450381,-4.1068702,1.7862595,5.4850879,5.0948353,-0.6847382,-31.7404575,-5.2671757,-250.1374054
6110,0.8403605,-1.3263810,9.8449068,2.9312978,-3.2671757,1.1832061,4.0294209,4.9248476,-1.0869620,-39.8778610,-15.9541988,-250.1374054
6120,0.8331779,-1.3263810,9.7994175,2.8396947,-1.7251909,1.1679389,2.2265961,4.5250182,-1.0989330,-50.0534363,-28.5954189,-250.1374054
6130,0.8954269,-1.3431402,9.6078825,0.3587786,-1.2290076,1.0076336,-0.0526722,4.3023586,-0.8020535,-60.4580154,-41.7175560,-250.1374054
6140,0.8092360,-1.3527170,9.6102762,-1.7022901,-1.2824427,0.2137405,-3.2058196,4.2520804,-0.4620786,-69.5190811,-56.2748108,-250.1374054
6150,0.6296718,-1.4053892,9.7658987,-2.0992367,-1.0916030,-0.6335878,-7.8840661,4.6016321,0.1484398,-74.7557220,-63.4885483,-250.1374054
6160,0.5195391,-1.4772149,9.8233595,-1.9389313,-1.7328244,-0.4122137,-14.0730457,5.4707227,1.0582317,-73.3282471,-48.9541969,-250.1374054
6170,0.3256098,-1.5466464,9.9550400,-1.5648855,-2.6946564,0.6870229,-19.6131992,7.3405848,2.0973101,-68.2824402,-13.2977095,-234.7022858
6180,0.4309541,-1.4724265,9.8856087,-1.2748091,-2.8625953,1.7786260,-19.6131992,8.9710283,3.4356618,-63.5114517,21.7786255,-144.7404633
6190,0.5075682,-1.5681942,9.8592720,-1.0458015,-3.4122138,2.6335878,-19.6131992,9.8784256,5.5114241,-53.6106873,40.3435097,-50.2671738
6200,0.5961532,-1.5131277,9.8616667,0.2671756,-3.3053436,2.1145039,-19.6131992,9.6509781,7.1993275,-33.5114517,44.2824440,36.0534363
6210,0.6560079,-1.4843974,9.8927908,0.9312977,-2.3969467,2.4274809,-19.6131992,8.8393478,7.7906923,-6.9007635,44.6335869,108.9312973
6220,0.7948709,-1.5179161,9.8305416,0.9694657,-1.3587786,3.2213740,-19.6131992,8.0660238,7.6278877,18.4045811,55.4885483,164.7175598
6230,0.8834559,-1.5203103,9.6988611,0.7633588,-0.5877863,3.6717558,-16.4624462,7.4986014,6.9359670,37.3587799,66.2824402,199.2061005
6240,0.9217629,-1.4700323,9.8496952,-0.9236641,4.4809160,-2.1832061,-3.5649481,6.8665352,2.8682389,38.2442741,-63.0458031,191.5725250
6250,0.7110743,-1.4245427,9.6677370,-2.1832061,5.6106873,-1.1755725,-1.9464760,6.9718795,2.7078283,39.4427490,-84.5954208,189.1755676
6260,0.6368544,-1.5825592,9.7323799,-1.9541985,4.0839696,-2.3664122,-0.9457048,7.1562324,2.6767037,44.0305328,-91.2213745,193.7404633
6270,0.5051740,-1.5514348,9.9478569,-0.6870229,3.5801528,-3.1908398,0.3088504,7.3764977,2.3175755,52.7557259,-81.0457993,205.3664093
6280,0.2753318,-1.6376256,9.7108326,-1.2061069,2.0992367,-0.6106870,4.3095412,7.1275020,0.5578461,72.7786255,-30.0534344,239.9694672
6290,0.4070122,-1.7166338,9.6318245,-2.7404580,-0.0152672,1.2213740,7.9654684,6.4762826,-1.1324517,76.6259537,-4.3587785,247.3358765
6300,0.5075682,-1.7166338,9.6892843,-3.0916030,0.1832061,2.2824428,12.4090843,5.9591374,-2.3008161,75.6946564,29.0076332,240.2977142
6310,0.6655847,-1.6495966,9.8808203,-2.1679389,-1.1297710,1.4351145,17.2956238,5.8011212,-3.4955165,68.4961853,67.5801544,210.7022858
6320,0.6751614,-1.5610116,9.9957409,-1.1679389,-1.8320611,-0.0534351,19.6126022,6.0453281,-4.4938936,50.9083977,91.4656525,158.4732819
6330,0.7278336,-1.5418580,9.9047613,-0.4580153,-2.7786260,-0.2213740,19.6126022,6.4762826,-4.9248476,27.8167934,83.1832047,91.1832047
6340,0.6057299,-1.4843974,9.8377247,0.3893130,-1.5877863,-0.6259542,19.6126022,6.8761120,-3.5960727,-21.4351139,-20.6183205,-55.3206100
6350,0.6584021,-1.4389079,9.7443514,-0.0687023,-0.7709923,-0.6030535,19.6126022,6.8856888,-2.3750360,-38.0916023,-74.3282471,-119.3435135
6360,0.7182568,-1.5059452,9.7156210,-1.3435115,-0.8167939,-0.6106870,17.8031921,6.6462698,-1.2210367,-47.9312973,-99.7862625,-169.5954132
6370,0.6105183,-1.5274929,9.9526453,0.0458015,-1.4961832,-1.4122137,15.1288834,6.3350253,-0.1125269,-50.4885483,-95.3511429,-204.6030579
6380,0.6296718,-1.5322813,9.9358864,0.8778626,-0.5343512,-0.9465649,12.7251167,6.3158717,0.3639168,-46.7786255,-77.2290039,-230.4198456
6390,0.5817881,-1.4700323,9.8185711,0.6564885,-1.4732825,0.1374046,10.7499104,6.2991123,0.0909792,-42.1297722,-55.7480927,-250.1374054
6400,0.6177009,-1.6472024,9.8449068,0.9007633,-3.6106870,0.6641222,8.8369532,6.1243367,-0.2226596,-40.2213745,-41.0152664,-250.1374054
6410,0.4979914,-1.4436963,9.8760319,0.5419847,-4.3129773,0.0076336,6.9024482,5.7987270,-0.8619082,-42.4961815,-34.9847336,-250.1374054
6420,0.4309541,-1.5418580,9.7299862,0.1450382,-6.0458016,0.3740458,4.6638808,5.3031297,-1.1085097,-49.0228996,-35.7862587,-250.1374054
6430,0.4261657,-1.6256547,9.7108326,-0.3129771,-6.7404580,0.6335878,2.1835008,4.6423335,-1.1947005,-57.8625946,-39.5648842,-250.1374054
6440,0.4453192,-1.4915800,9.8161764,-0.2137405,-7.5038166,0.7099237,-1.2928623,4.1419477,-0.8212070,-65.3740463,-39.0992355,-250.1374054
6450,0.4381367,-1.4915800,9.9981356,0.6793893,-9.2900763,0.6870229,-5.7197185,4.1443419,-0.3950413,-68.3969498,-24.7251911,-250.1374054
6460,0.5602403,-1.5466464,10.0196829,1.6259542,-10.2824430,1.2366412,-11.6381550,4.9751258,0.3615226,-65.7328262,4.4580154,-250.1374054
6470,0.6153067,-1.4820032,9.8712435,2.3664122,-9.6946564,1.5038168,-18.9308567,6.9431496,1.9009864,-62.8167953,39.9083977,-243.2900696
6480,0.7565638,-1.4245427,9.7730818,2.4427481,-9.2137403,2.3053436,-19.6131992,8.6980906,3.7301471,-59.1374054,68.1374054,-164.0915985
6490,0.8236012,-1.3694763,9.7826586,1.6564885,-8.4427481,3.0000000,-19.6131992,9.6725254,5.7699966,-50.5190849,66.7938919,-77.3206100
6500,1.1132981,-1.4029950,9.7156210,-0.4045801,-6.7404580,3.5954199,-19.6131992,9.5647869,7.6590118,-30.6717548,39.3969460,10.9312973
6510,1.2952565,-1.2904681,9.7850523,-1.5038168,-1.2213740,2.3893130,-19.6131992,7.8840661,8.5951405,35.8473282,28.3740463,151.9465637
6520,1.3622938,-1.3838415,9.8784256,-1.2519084,0.9083970,1.0992366,-17.4584293,7.2807302,7.9080076,65.2137375,55.9923668,192.8778687
6530,1.3910241,-1.3287752,9.8592720,-0.4885496,2.4809160,-1.0229008,-14.1329002,6.8928714,6.1458845,85.8778610,74.4656525,215.8396912
6540,1.1731528,-1.3886299,9.8999729,-0.0229008,3.8702290,-2.7328243,-11.0491848,6.7324610,4.1515245,94.3664093,65.5267181,223.3587799
6550,0.7182568,-1.5681942,9.6677370,-4.3282442,6.1908398,-0.4351145,-1.9943599,6.3302369,0.2274480,70.1068726,-42.3893127,176.8167877
6560,0.6177009,-1.5538290,9.7467451,-4.4809160,5.7022901,-0.2137405,-0.6200951,6.2344694,-0.1149211,65.4656525,-55.3816795,165.4580078
6570,0.7278336,-1.5418580,9.9239149,-2.9312978,4.4351144,-0.7862595,1.1420283,6.2560172,-0.2106887,64.5190811,-59.9694672,152.9007568
6580,0.6512195,-1.5969244,10.0867205,-0.9618320,3.2900763,-1.4580153,2.1164634,6.3972740,-0.3303981,66.0000000,-53.9389305,139.0305328
6590,0.7517755,-1.5466464,9.9646168,-0.0763359,1.5267175,-1.6106870,2.6192431,7.1275020,-0.9792235,67.3053436,-49.7175560,128.3129730
6600,0.7350162,-1.5610116,9.8401184,-0.3358779,0.2595420,-1.4885496,3.2082138,7.8553357,-2.0661855,64.9694672,-58.1755714,122.9007645
6610,0.6751614,-1.5538290,9.8018112,0.5877863,0.4961832,-1.9694656,3.9264708,8.6286592,-2.9304879,57.9923668,-69.4961853,123.6793900
6620,0.6512195,-1.5131277,9.7467451,-0.0763359,1.3206106,-2.0000000,5.3534074,9.1098909,-3.6822634,49.6870232,-71.1450348,129.0686951
6630,0.6368544,-1.4580613,9.7228031,-0.8931298,1.3740458,-1.5114504,7.3429790,9.0596132,-4.3406653,42.9160309,-55.4809151,136.7480927
6640,0.7900825,-1.4508789,9.8233595,-1.3282443,2.5267177,-1.1832061,9.5839405,8.9255381,-4.9535780,36.3740463,-26.6183205,143.1297760
6650,0.8571198,-1.4700323,9.8137827,-0.8702290,3.6641221,-1.2748091,11.7698355,8.8249826,-5.2408805,28.0610695,11.2442751,145.0458069
6660,0.9552816,-1.5107336,9.9837704,0.0458015,3.0458016,-2.0687022,14.0443153,8.7363977,-5.8944945,16.4503822,31.0381680,137.2824402
6670,0.7733232,-1.5801650,9.8042059,1.1755725,0.6106870,-2.4503818,18.9787407,8.2910776,-5.1259594,-15.7862597,24.8702297,79.3740463
6680,0.4788379,-1.5155219,9.7156210,1.0534351,1.1526718,-1.8778626,19.6126022,8.0061693,-4.3454537,-31.6030540,10.0152674,30.7938938
6690,0.4692611,-1.4796091,9.5983057,-0.2442748,0.3053435,-1.6717557,19.6126022,7.6757712,-3.3398943,-43.9007645,-11.1603050,-22.5648861
6700,0.3926471,-1.4604555,9.6533718,-1.5648855,-0.9618320,-0.8091603,19.5150375,7.6159167,-2.1835008,-51.8473282,-30.0152664,-75.2442780
6710,0.3878587,-1.4891858,9.6988611,-2.1297710,-1.9847329,0.1374046,17.8295288,7.2304521,-1.5155219,-58.0763359,-49.5877876,-124.7709961
6720,1.0797794,-1.3239868,9.8377247,0.3282443,3.4961832,0.2061069,0.8403605,3.6726866,-0.8786675,-72.9847336,-51.8320618,-250.1374054
6730,0.9888002,-1.3934183,9.7922344,-0.2213740,3.7480917,-0.5877863,-2.8251436,2.9831600,-0.3256098,-82.2213745,-68.2442780,-250.1374054
6740,0.9624642,-1.4389079,9.7754755,-1.0534351,4.3129773,-1.7175573,-7.6757712,2.6503677,0.3016679,-85.6183243,-67.1221390,-250.1374054
6750,0.9385223,-1.4149660,9.7635050,-0.8244275,3.4351146,-3.0916030,-15.0474806,3.8402798,1.6567791,-80.8549652,-38.5190849,-250.1374054
6760,0.7445929,-1.4748207,9.7922344,-0.3282443,3.1068702,-3.8778627,-19.6131992,6.2392578,3.7325413,-72.5954208,11.6106873,-228.5801544
6770,0.6272776,-1.6615674,9.8137827,-2.3129771,1.6335878,-2.6335878,-19.6131992,8.0875721,6.0165982,-62.6183205,54.8167953,-130.0000000
6780,0.6057299,-1.5993185,9.7491398,-1.6564885,1.0152671,-3.4732823,-19.6131992,8.6214762,8.4921904,-45.9083977,72.8854980,-21.8473282
6790,0.4932030,-1.6902977,9.7826586,-3.1984732,0.3587786,-2.0152671,-19.6131992,7.8673067,10.0675669,-16.0916023,70.6946564,73.9389343
6800,0.5841822,-1.6974803,9.7898407,-2.4351146,-0.9389313,-1.9847329,-19.6131992,6.7827387,10.3189564,25.2748089,79.5496216,144.9770966
6810,0.5817881,-1.7669119,9.8951855,-0.9465649,-1.4427481,-1.8396946,-19.1271801,6.4116392,9.3636751,63.0839691,104.0229034,186.3664093
6820,0.5339043,-1.6759326,9.8568783,-0.7862595,-1.8091604,-1.0916030,-14.7362356,6.3278427,7.4962072,89.4809189,117.1832047,205.5267181
6830,0.5554519,-1.7022687,9.8903971,-1.3053435,-4.1755724,-0.2748092,-11.6908274,6.5337429,4.8458395,99.7938919,100.8167953,209.0000000
6840,0.6464311,-1.6448082,9.7994175,-1.0458015,-4.5038166,-0.2366412,-9.4546537,6.5193777,2.6096666,95.6564865,57.0992355,200.9236603
6850,0.6584021,-1.5322813,9.9095497,-0.5038168,-2.9541984,-0.5190840,-7.3334022,6.7468257,1.2449785,83.0457993,4.2137403,187.5419922
6860,0.7278336,-1.4915800,9.9382801,0.1984733,-2.3740458,-1.1603054,-5.6814117,7.0939832,0.4932030,69.1374054,-47.5954208,175.4732819
6870,0.6895266,-1.4029950,9.9310980,1.2519084,-2.2748091,-1.4427481,-3.6367738,7.2639709,0.1723816,59.8396950,-83.8778610,169.1297760
6880,0.7852941,-1.4796091,9.8113880,1.6717557,-2.4351146,-0.9236641,-2.0278785,7.5464849,0.0837966,56.3664131,-95.6412201,170.3206177
6890,0.7685348,-1.3766589,9.7994175,1.0305344,-2.3129771,-0.2671756,-0.5578461,7.9678626,-0.2250538,58.6488533,-82.9312973,179.1832123
6900,0.7326220,-1.3072275,9.7539282,0.1908397,-2.8015268,0.2748092,1.0031654,8.3700867,-0.5626345,65.1984711,-53.1145020,196.0534363
6910,0.8236012,-1.3790531,9.7922344,-0.0763359,-3.7175572,-0.3664122,3.0358322,8.2695303,-1.5346755,72.0916061,-17.5038166,214.7938995
6920,0.6967092,-1.4269369,9.9622221,0.1297710,-3.5877862,-0.0152672,6.0860295,7.9918046,-2.9687948,75.8549652,20.4732819,227.7251892
6930,0.6009415,-1.5083394,9.8568783,-0.0916031,-3.0916030,1.4961832,13.2063494,7.3573442,-5.7173243,58.4503822,64.9083939,213.3893127
6940,0.6272776,-1.5442522,9.7467451,-0.3893130,-2.8244274,2.1526718,16.8335457,7.1849627,-6.4236102,38.4045792,64.9465637,176.1984711
6950,0.6248835,-1.4580613,9.5911226,-1.1221374,-2.2671757,2.5725191,19.0649300,7.1203194,-6.5457139,14.8854961,54.0610695,121.2290039
6960,0.7517755,-1.5107336,9.7108326,-2.1374047,-1.7022901,2.6259542,19.6126022,7.2903070,-6.1434903,-8.1679392,23.4503822,58.2671738
6970,0.8020535,-1.5322813,9.9167328,-1.1832061,-1.4045801,2.2824428,19.5509510,7.5129666,-5.3965030,-30.5877857,-20.4122143,-5.4198475
6980,0.7709290,-1.5107336,9.9095497,-0.4503817,-1.0000000,2.3435113,18.0713425,7.6757712,-4.4077029,-48.8625946,-60.3358765,-64.1068726
6990,0.7565638,-1.5035510,9.9263096,0.1068702,-0.5648855,2.4732823,16.2972469,7.6398587,-3.1770895,-61.6488533,-90.9083939,-112.4580154
7000,0.8714849,-1.4556671,9.8377247,0.7633588,-0.1832061,2.5190840,14.3076763,7.3190370,-2.2194135,-69.0000000,-105.5267181,-151.9313049
7010,0.8475431,-1.4365137,9.7946291,0.5267175,0.5343512,2.0229008,12.3300753,7.1969333,-1.4197544,-70.3587799,-105.0076370,-182.3740387
7020,0.9193687,-1.3910241,9.7802639,-0.1374046,1.1297710,1.5725191,10.5990763,7.1897511,-0.9385223,-69.7862625,-94.4732819,-206.1832123
7030,1.0055596,-1.4125718,9.7036495,-0.1908397,1.9236641,0.8702290,8.8632889,6.8162575,-0.8978211,-69.9923630,-83.0305328,-227.5038147
7040,0.9169745,-1.3766589,9.7898407,-0.3129771,2.2748091,0.3587786,6.9383612,6.3972740,-0.9648584,-73.3435135,-76.5343475,-249.1603088
7050,0.9145803,-1.4341195,9.9502516,0.1908397,2.2519083,-0.6717557,4.6447277,6.0094156,-1.0055596,-78.5267181,-79.0305328,-250.1374054
7060,0.9385223,-1.4245427,9.8640604,0.8625954,1.9541985,-1.4122137,2.2505381,5.5353661,-0.7158626,-86.3129807,-85.3206100,-250.1374054
7070,0.7733232,-1.4724265,9.8161764,0.9083970,1.0381680,-1.9007634,-0.6631905,4.9775200,-0.3519458,-93.0534363,-88.3816757,-250.1374054
7080,0.6775556,-1.5059452,9.7467451,0.2213740,0.8167939,-1.6946565,-4.6782460,4.7692256,0.8283895,-93.7099228,-71.2442780,-250.1374054
7090,0.5578461,-1.5969244,9.5767574,-2.1221373,-0.0305344,-0.3587786,-10.1824875,5.2600341,2.0230901,-83.8473282,-29.3893127,-250.1374054
7100,0.6847382,-1.5921360,9.7371683,-1.8702290,-1.1145039,-1.0305344,-17.2980194,7.1298962,2.9855542,-68.5267181,25.3740463,-209.1832123
7110,0.6200951,-1.5801650,9.7682934,-2.3587787,-1.4351145,-0.3053435,-19.6131992,8.7555504,4.4699516,-56.1450386,69.5267181,-131.4732819
7120,0.6368544,-1.6088953,9.8616667,-2.1068702,-2.2824428,0.1832061,-19.6131992,9.8137827,6.0405402,-46.8091621,84.6946564,-47.7862587
7130,0.7062859,-1.5993185,9.8496952,-1.7633588,-2.3511450,0.9541985,-19.6131992,9.7850523,7.5752153,-28.9389305,71.6717529,31.8702297
7140,0.7685348,-1.4987626,9.8808203,-1.1374046,-1.8091604,0.7786260,-19.6131992,8.8034344,8.8992023,1.4503816,45.9847336,100.8473282
7150,0.7972651,-1.4269369,9.8257532,-0.9541985,-1.6488550,0.3816794,-18.9524040,7.8002691,8.9207497,38.8015251,46.7022896,153.0305328
7160,0.8475431,-1.4125718,9.7922344,-0.8396947,-1.8778626,-0.2671756,-15.0043850,7.3836803,7.9630742,70.2824402,64.7099228,186.1832123
7170,0.8666966,-1.4724265,9.8712435,-0.1908397,-1.6183206,-0.8778626,-11.6142130,7.1610208,6.1219425,92.1603088,79.8015289,202.4809113
7180,0.7733232,-1.4413021,9.8113880,0.4885496,-0.7404580,-1.0229008,-8.9470863,7.1562324,3.7636659,101.4503784,76.7633591,208.3969421
7190,0.7134684,-1.4436963,9.8401184,0.6641222,-1.1603054,-0.1755725,-6.5050125,7.2903070,1.4221486,97.2519073,53.4732819,206.6488495
7200,0.7302278,-1.4460905,9.7826586,0.3282443,-1.4885496,0.5496183,-2.7485294,7.5129666,-0.6536137,73.1297684,-14.2900763,199.4122162
7210,0.7254394,-1.3958124,9.7371683,0.3358779,-1.8931298,0.7862595,-1.1611819,7.5512733,-1.2066715,64.4503784,-40.9771004,198.2213745
7220,0.7254394,-1.4149660,9.7515335,-0.0076336,-2.5572519,0.4198473,0.3543400,7.8194227,-1.4317253,59.1374054,-48.8549614,202.4809113
7230,0.7829000,-1.4365137,9.8209648,-0.2748092,-3.3587787,0.2442748,2.4708035,7.6302819,-2.3750360,56.6641235,-38.2977104,212.0076294
7240,0.6655847,-1.4221486,9.7922344,-0.4580153,-3.1450381,0.4045801,5.0589223,7.1682034,-3.3063757,55.0916023,-15.6335878,221.3969421
7250,0.7685348,-1.4365137,9.8042059,0.0458015,4.1908398,-3.3511450,1.9895715,4.9870968,0.1891410,-44.4503822,-13.0687027,-250.1374054
7260,0.6560079,-1.5035510,9.7635050,-0.9770992,2.7938931,-2.2824428,-2.5737536,5.3534074,0.5267217,-39.1679382,2.8931298,-250.1374054
7270,0.5769997,-1.5729824,9.8664551,-1.1984733,0.5343512,-1.8473282,-7.2065101,5.7101417,0.4620786,-29.3969460,28.4274807,-250.1374054
7280,0.6296718,-1.4939742,9.7898407,-0.8015267,0.5648855,-0.7709923,-12.2558556,6.8737178,0.2896969,-17.0610695,56.0687027,-245.1145020
7290,0.5506636,-1.5394639,9.8760319,-0.2366412,-0.2442748,-0.2061069,-18.3251266,8.2168579,0.1197095,-6.4656487,87.6488571,-183.9160309
7300,0.5506636,-1.4413021,9.8784256,0.1068702,-0.9694657,0.2366412,-19.6131992,8.9183559,0.1843526,-2.0076337,110.6870193,-113.9007645
7310,0.5746055,-1.3934183,9.8760319,-0.3053435,-1.7022901,0.8931298,-19.6131992,9.5169029,0.4764437,-5.6870227,126.3206100,-51.7480927
7320,0.6775556,-1.4867916,9.8065996,-0.9236641,-2.3740458,1.0534351,-19.6131992,9.6461897,1.0103480,-6.4274807,129.1297760,0.8320611
7330,0.7517755,-1.4389079,9.7395630,-2.0152671,-2.5419848,1.1526718,-19.6131992,9.3157911,1.6687500,0.3206107,121.9312973,49.8778610
7340,0.8140244,-1.5203103,9.7443514,-2.7175572,-2.7022901,1.1908396,-19.6131992,8.9303265,2.0446377,9.8091602,110.6717529,93.0839691
7350,0.8954269,-1.4891858,9.7970228,-2.5801528,-2.4427481,1.7099236,-19.6131992,8.8369532,1.8483143,15.9847326,94.9542007,124.9618301
7360,0.8810617,-1.5250987,10.0603838,-1.0381680,-1.7480916,1.2061069,-17.8007984,8.5424681,1.4604555,15.7022905,69.3435135,146.1755676
7370,0.8643024,-1.4460905,9.9382801,0.2366412,-0.1832061,1.5419847,-15.5789909,8.1737623,1.4053892,12.0381680,35.7557259,161.4045868
7380,0.9169745,-1.3886299,9.7467451,0.5114504,-0.8091603,1.1679389,-11.0755205,7.1394730,2.3463056,14.4580154,-21.9465656,182.1297760
7390,0.8403605,-1.4436963,9.6294298,-0.3358779,-0.7557252,0.7786260,-9.0715837,6.8138633,2.6192431,20.5343513,-39.1221390,190.7557220
7400,0.8092360,-1.3670821,9.6294298,-1.2977099,-0.6259542,0.8625954,-7.0915890,6.6390872,2.2649033,29.0839691,-55.7938919,201.1832123
7410,0.8116302,-1.4365137,9.7395630,-1.6412214,-1.3511450,0.2824427,-5.2193332,6.5265603,1.8028246,38.7175560,-67.3740463,213.0763397
7420,0.8331779,-1.4269369,9.9454632,-1.1450381,-1.1984733,0.5038168,-3.1387823,6.5433197,0.8762733,47.5419846,-71.3969498,227.7938995
7430,0.8164186,-1.5274929,9.9717989,-0.1526718,-0.4122137,1.5496184,-0.6512195,6.4978304,-0.3495516,54.8167953,-63.1603050,246.0686951
7440,0.9792235,-1.3431402,9.8329363,2.0839694,1.6412214,2.1068702,5.6502872,5.3629842,-3.2944047,67.3129807,-8.1374044,250.1297760
7450,1.1156923,-1.3622938,9.6366129,-0.2290076,2.8396947,0.6335878,16.9963512,4.2257442,-6.3158717,68.1145020,84.5190811,250.1297760
7460,1.1132981,-1.3383518,9.6581602,-0.6106870,3.1221373,-1.1221374,19.6126022,4.4795284,-7.7739329,51.4351158,112.1832047,210.8167877
7470,0.9193687,-1.4508789,9.8065996,-1.2519084,3.5954199,-1.8091604,19.6126022,4.9751258,-8.4107876,18.5419846,101.5343475,137.3893127
7480,0.8427547,-1.5274929,9.8951855,-1.4198474,3.0534351,-2.3816793,19.6126022,5.8777351,-7.6805596,-22.3969460,52.7938919,56.9083977
7490,0.6296718,-1.5873476,9.9119444,-0.9847328,2.3969467,-2.4122138,19.6126022,6.2416520,-5.7388721,-57.2213745,-16.1984730,-18.3358784
7500,0.5578461,-1.5346755,9.8305416,0.1068702,1.2366412,-2.0000000,19.6126022,6.2584114,-3.0310438,-79.6335907,-81.6870193,-85.6793900
7510,0.6560079,-1.5777708,9.7898407,0.2671756,0.4656489,-1.0076336,19.6126022,6.0309634,-1.1180865,-88.6488571,-120.9694672,-139.3664093
7520,0.6823440,-1.5370697,9.7275915,-0.1450382,0.0916031,-0.1755725,17.6547527,5.8537931,0.0359128,-86.3664093,-129.3129730,-177.1068726
7530,0.7469871,-1.4843974,9.7156210,-1.0076336,-0.0763359,0.3740458,15.4113979,6.0549049,0.4620786,-77.6335907,-118.0076370,-203.8931274
7540,0.8020535,-1.4389079,9.8281479,-1.4427481,-0.8473282,0.0152672,13.1584654,5.9950504,0.3998296,-67.9312973,-93.1374054,-225.4351196
7550,0.7709290,-1.4939742,9.7180147,-1.5572519,-1.4580153,-0.5114504,10.6828737,5.9591374,0.1197095,-61.1603050,-68.3893127,-242.5267181
7560,0.7637464,-1.4101776,9.7754755,-1.5038168,-2.6106870,-0.5725191,8.7411861,5.7843618,-0.2537841,-58.6946564,-51.7786255,-250.1374054
7570,0.7254394,-1.4413021,9.8377247,-2.0763359,-3.1145039,-0.3816794,6.5337429,5.3270717,-0.7876883,-61.1603050,-46.1450386,-250.1374054
7580,0.6991033,-1.4149660,9.7132263,-2.5267177,-2.8931298,-0.0458015,4.3095412,4.9009056,-0.9744351,-67.5496216,-48.3053436,-250.1374054
7590,0.7206510,-1.5442522,9.8999729,-1.8854961,-3.4122138,0.3053435,1.5921360,4.3047528,-1.0271072,-76.1526718,-54.6488533,-250.1374054
7600,0.7398046,-1.3694763,9.9526453,-0.0076336,-2.1221373,0.5114504,-2.0374553,3.8402798,-0.7254394,-85.0992355,-62.2671738,-250.1374054
7610,0.7110743,-1.3886299,9.9263096,0.7251908,-1.9007634,1.5496184,-6.4116392,3.8402798,-0.1244979,-92.2977066,-61.5496178,-250.1374054
7620,0.8140244,-1.4341195,9.7706871,1.3053435,-2.0916030,2.1450381,-12.7299051,4.7381010,0.6967092,-92.2900772,-33.7786255,-250.1374054
7630,0.9337339,-1.3575054,9.5336628,0.6259542,-1.4122137,1.9770992,-19.6131992,6.8186517,1.9847831,-84.9083939,13.8549614,-231.6106873
7640,0.9289455,-1.3910241,9.5863342,-0.9465649,-1.1374046,1.2824427,-19.6131992,8.7483683,3.5769191,-74.6030502,55.2977104,-153.0076294
7650,0.8307837,-1.3838415,9.7419567,-2.5648854,-1.8549619,0.2213740,-19.6131992,9.5863342,5.7556314,-59.5114517,75.8396912,-66.6717529
7660,0.7086801,-1.4317253,9.8042059,-2.6717558,-2.1603053,-0.1221374,-19.6131992,9.3469152,7.3453732,-34.6183205,75.2213745,14.0992365
7670,0.6368544,-1.6041069,9.9215212,-1.3358779,-3.9312978,1.1526718,-19.6131992,7.8840661,7.8122401,29.0839691,76.2290039,133.9618378
7680,0.6009415,-1.4652439,9.8544836,0.0152672,-4.6564884,1.6412214,-17.2142220,7.5345144,7.1586266,56.1374054,93.6793900,168.0152740
7690,0.7134684,-1.5274929,9.9502516,1.6717557,-4.9236641,2.4885497,-13.8575687,7.1083484,5.6814117,75.7251892,106.0992355,187.9541931
7700,0.8451489,-1.4963684,9.9095497,2.4656489,-4.2213740,2.7938931,-11.4394369,6.9407554,3.8546450,85.2519073,96.8320618,196.7175598
7710,1.3910241,-1.3527170,9.7395630,-1.2977099,0.4351145,0.4351145,-4.3813667,7.1490498,-0.1101327,58.7022896,-40.8854980,199.3816833
7720,1.3431402,-1.3742647,9.8760319,-0.9007633,2.9236641,-1.8015267,-3.0382264,7.3717093,-0.6081241,53.3740463,-60.3587799,207.3664093
7730,1.1037214,-1.3551112,9.9310980,-0.2671756,4.4122138,-2.5725191,-1.5011568,7.4219875,-0.7876883,53.4503822,-65.8778610,221.0915985
7740,0.8786675,-1.5634058,9.7635050,-1.4885496,3.4427481,-2.0992367,0.2394189,7.2328463,-1.2449785,56.6564903,-54.0076332,240.6717529
7750,0.8140244,-1.4939742,9.6940727,-2.4198472,3.3740458,-1.9770992,2.6695213,6.7372489,-2.4851687,61.2213745,-32.1145020,250.1297760
7760,0.8188128,-1.4891858,9.7778702,-3.1832061,4.2137403,-1.3969465,5.6431046,5.9495606,-3.0669568,66.2213745,-0.7099237,250.1297760
7770,0.6703730,-1.5203103,9.7611103,-3.1221373,3.5648854,-2.0458016,9.8473015,5.2911587,-4.0964580,70.8549652,40.1145020,250.1297760
7780,0.6224893,-1.5131277,9.8808203,-2.5496182,1.9465649,-1.8931298,14.8942528,4.8554163,-5.2145448,70.3587799,89.8244247,250.1297760
7790,0.5865764,-1.5394639,10.0172882,-0.7022901,0.3664122,-1.9694656,19.6126022,4.7428894,-6.1937680,59.8320618,125.2900772,220.6793823
7800,0.5554519,-1.4796091,9.8808203,-0.2213740,-0.6259542,-0.3664122,19.6126022,5.1499014,-7.3669209,36.9007645,128.3740387,153.7633514
7810,0.6584021,-1.4867916,9.7275915,-0.6259542,-2.4656489,1.2366412,19.6126022,6.4427638,-6.0932121,-32.1374054,41.0992355,4.5801525
7820,0.6871324,-1.4341195,9.6868906,-1.0076336,-2.1374047,1.9465649,19.6126022,6.2440462,-4.2257442,-56.7328262,-20.1297703,-62.8854980
7830,0.7900825,-1.4915800,9.7108326,-2.2671757,-3.1374047,2.0992367,19.6126022,5.9399838,-2.3917952,-67.5343475,-65.4885483,-119.1679382
7840,0.9337339,-1.3790531,9.8832140,-0.9923664,-3.8015268,0.8396947,17.7361546,5.8035154,-1.1539993,-68.6717529,-92.4122162,-163.5038147
7850,1.0678085,-1.4053892,10.0364418,0.5114504,-3.1297710,0.2595420,15.4066095,5.9256191,-0.4333483,-63.7862587,-96.0763321,-194.3282471
7860,1.0151364,-1.4676381,9.9310980,1.0152671,-3.6335878,0.1450382,13.2015610,6.2512288,-0.1987177,-57.6717567,-83.0381699,-217.0000000
7870,0.8786675,-1.4173602,9.7395630,1.1603054,-3.6030533,0.1832061,10.9701757,6.4331870,-0.4022238,-52.1908379,-63.8396950,-232.2977142
7880,0.8427547,-1.4436963,9.7419567,1.4580153,-3.2061069,0.3282443,9.0141230,6.3661499,-0.8523315,-49.1603050,-52.2977104,-243.1526642
7890,0.8571198,-1.3742647,9.7060442,0.7328244,-2.4656489,0.2442748,7.4842362,6.1722202,-1.2593436,-50.0000000,-45.2748108,-250.1374054
7900,0.7421987,-1.4101776,9.8018112,-0.5725191,-3.0992367,0.9541985,5.3869262,5.5880380,-1.4197544,-53.5114517,-39.8473282,-250.1374054
7910,0.8259954,-1.4173602,9.6461897,-1.8015267,-3.6183207,1.5419847,3.1315999,5.0613165,-1.1827296,-57.1145020,-30.5877857,-250.1374054
7920,0.8619082,-1.3383518,9.8257532,-2.0305343,-3.5877862,1.1908396,-0.4788379,4.5034704,-0.6248835,-58.9541969,-18.5572510,-250.1374054
7930,0.8355721,-1.3742647,9.8473015,-1.8396946,-3.9083970,1.1526718,-5.9926562,4.9631548,-0.2489957,-55.8625946,2.9541984,-250.1374054
7940,0.9337339,-1.4341195,9.9334917,-0.9236641,-3.9083970,1.4427481,-12.0308018,5.9615316,-0.2035061,-50.0381660,32.0992355,-250.1374054
7950,1.0079538,-1.4341195,9.9191265,-0.0839695,-2.7251909,1.6412214,-18.5765152,7.7667508,0.5123565,-44.5114517,63.4503822,-197.8396912
7960,1.1061156,-1.3958124,9.9454632,0.7175573,-1.1297710,2.1145039,-19.6131992,9.8353300,1.4389079,-40.1908379,87.6488571,-128.0381622
7970,1.2210367,-1.4029950,9.8712435,1.6946565,0.2061069,1.1068702,-19.6131992,10.6230183,2.5186872,-35.2748108,91.0000000,-56.1679382
7980,1.2018831,-1.3503228,9.7228031,0.1603053,3.0152671,-0.3435115,-19.6131992,10.7762470,4.9894910,-12.9389315,69.2824402,64.6335907
7990,1.1420283,-1.2354017,9.8425131,-0.1221374,3.3893130,-1.3206106,-19.6131992,9.9430685,5.1810260,5.9465647,53.1374054,109.9694672
8000,1.0223188,-1.3790531,9.7084379,-2.4351146,3.8778627,-1.4885496,-16.8096046,9.0380650,4.6590929,25.4427490,42.3511467,141.7862549
8010,0.8666966,-1.3910241,9.6054878,-2.5877862,3.1145039,-2.0000000,-14.0491037,8.4993725,4.2855992,40.6946564,31.4885502,161.4961853
8020,0.7733232,-1.6472024,9.7874460,-3.8167939,1.8931298,-0.9694657,-11.4609852,7.9080076,3.3494711,51.4274826,19.6106873,174.1297760
8030,0.6368544,-1.5729824,9.8760319,-0.2900763,1.6564885,-1.3587786,-7.3621325,7.4938130,1.4173602,55.9694672,-16.5114498,190.2748108
8040,0.5985473,-1.5873476,9.8209648,-0.1755725,-0.2519084,0.5725191,-5.5784616,7.4722652,0.7709290,52.4427490,-38.1221390,198.5648804
8050,0.7829000,-1.5035510,9.7299862,-0.4351145,-1.1526718,1.5725191,-3.6870518,7.3501616,-0.0335187,48.3435097,-58.0763359,210.5801544
8060,1.0031654,-1.5179161,9.6797075,-0.6335878,-1.2366412,0.9007633,-1.8315549,7.1969333,-0.4141948,45.6488533,-68.4274826,225.8244324
8070,0.9600700,-1.4604555,9.8544836,-1.0000000,-1.3893130,0.3358779,0.1795642,6.9072366,-0.8786675,46.3740463,-63.6870232,243.2824402
8080,0.9528874,-1.4915800,9.7970228,-0.9236641,-2.4503818,-0.4656489,2.5330524,6.4068508,-1.6519908,48.4503822,-47.3969460,250.1297760
8090,0.8092360,-1.4796091,9.8042059,-1.0458015,-3.4809160,-0.8244275,5.5018473,5.6167684,-2.4564383,51.6030540,-15.0076332,250.1297760
8100,0.7206510,-1.5250987,9.8281479,-1.3282443,-3.8778627,-0.3816794,10.0723553,4.7692256,-3.1699069,56.9618340,33.5343513,250.1297760
8110,0.7158626,-1.5322813,9.8065996,-0.7022901,-3.9083970,-0.0763359,14.6715927,4.2855992,-3.8522508,62.6259537,82.3969498,250.1297760
8120,0.7206510,-1.4556671,9.7802639,-0.3129771,-3.7022901,0.4427481,19.6126022,4.4148855,-4.7381010,62.5954208,117.0992355,231.6412201
8130,0.7757174,-1.4317253,9.8281479,0.6564885,-4.2366414,0.3740458,19.6126022,4.5824785,-5.6024032,50.8854980,125.0381699,165.6946564
8140,0.9600700,-1.4796091,9.8784256,0.8167939,-4.9618320,1.8091604,19.6126022,5.4372044,-6.1410961,-12.0152674,27.7404575,11.8549614
8150,1.0390782,-1.3359578,9.7299862,0.9923664,-3.8778627,2.0229008,19.6126022,6.2775645,-5.1163831,-53.2137413,-44.9007645,-62.6259537
8160,1.0079538,-1.4556671,9.8018112,0.9389313,-4.4885497,1.4580153,19.6126022,6.2560172,-3.6535332,-82.8778610,-113.5572510,-123.6564865
8170,1.0606259,-1.3431402,9.7180147,0.0763359,-4.7404580,0.6335878,19.3570213,5.7771792,-1.9728121,-96.9465637,-159.3129730,-172.9770966
8180,1.0103480,-1.3790531,9.7706871,-0.5190840,-4.9007635,0.0839695,17.7720680,5.5090299,-0.8283895,-99.2900772,-173.0381622,-214.5801544
8190,1.0031654,-1.4029950,9.7251978,-0.7786260,-4.3664122,-0.0381679,15.5358953,5.5353661,-0.4932030,-95.6335907,-168.3587799,-247.6564941
8200,0.9457048,-1.4556671,9.8257532,-0.9389313,-4.2061067,0.2900763,13.1967726,5.6191626,-0.8140244,-91.5648880,-158.7404633,-250.1374054
8210,0.9959828,-1.3718705,9.8664551,-0.3358779,-4.1832061,0.0000000,11.0635490,5.3797436,-1.0295014,-91.3435135,-146.0458069,-250.1374054
8220,0.9121862,-1.4029950,9.8544836,-0.3664122,-4.4274807,1.1297710,8.8465300,5.0541339,-1.3598996,-95.6183243,-136.2595367,-250.1374054
8230,1.0630201,-1.3790531,9.7850523,-0.5725191,-3.6106870,1.5190840,6.7444315,4.7428894,-1.5131277,-103.0457993,-125.3129807,-250.1374054
8240,1.0558375,-1.3431402,9.7994175,-0.7404580,-2.3816793,1.3511450,3.6032550,4.1443419,-1.3168042,-109.7709961,-114.3511429,-250.1374054
8250,1.2473727,-1.4293311,9.7874460,-0.8167939,-2.4961832,1.5114504,0.3447633,3.6966286,-0.9337339,-113.8702316,-91.4198456,-250.1374054
8260,1.2617378,-1.3622938,9.7994175,-0.5801527,-0.2213740,0.8625954,-3.7828193,3.4859397,-0.4429250,-112.5343475,-47.7786255,-250.1374054
8270,1.3263810,-1.3838415,9.7754755,-0.7480916,1.0992366,0.3893130,-9.1769285,4.0557570,-0.0622489,-106.5343475,11.0381680,-250.1374054
8280,1.2258250,-1.3598996,9.8760319,-0.2900763,2.6259542,-0.3282443,-15.7705259,5.6502872,1.0917504,-97.5725174,68.0763321,-238.8854980
8290,1.1731528,-1.3910241,9.8999729,0.1145038,4.3282442,-0.2290076,-19.6131992,7.2376347,3.0693510,-86.9312973,118.5877838,-170.0992432
8300,1.2018831,-1.3503228,9.7443514,0.4809160,5.3740458,-0.7022901,-19.6131992,8.4921904,5.2241216,-73.0610657,154.5648804,-91.6793900
8310,0.9888002,-1.3742647,9.5959110,-1.9465649,5.5190840,-0.5572519,-19.6131992,9.3924055,6.8928714,-57.5877876,164.9694672,-14.6641226
8320,1.0175306,-1.3551112,9.5863342,-3.3053436,4.2671757,-1.9847329,-19.6131992,9.2439651,8.2503767,-38.7709923,148.4732819,52.4274826
8330,1.0223188,-1.5227045,9.7898407,-3.3587787,3.7786260,-2.7938931,-19.6131992,8.4969788,9.2966375,-14.6564884,115.4274826,103.9236679
8340,0.7852941,-1.4580613,9.9430685,-0.9694657,3.0458016,-3.6030533,-17.8774128,7.8385763,9.0428534,14.0458012,82.1603088,139.6106873
8350,0.6536137,-1.5346755,9.8401184,-1.7480916,1.2900764,-0.8396947,-14.9469252,7.6518297,7.8026633,39.5343513,65.6564865,165.1526642
8360,0.7469871,-1.5777708,9.8377247,-1.2137405,-0.1603053,-0.2290076,-11.8751793,7.6087341,6.5505023,59.6488533,62.8015251,175.6870270
8370,0.7709290,-1.6184721,9.6342182,-1.8473282,-0.0534351,1.2366412,-9.9694052,7.2448173,4.9799142,73.8473282,61.9236641,177.2671814
8380,0.9624642,-1.6208663,9.7156210,-1.9312977,-0.7480916,0.8167939,-8.6071110,7.0269461,3.2393384,80.6183243,55.0610695,182.8167877
8390,1.0031654,-1.5250987,9.7850523,-1.9923664,-1.1068702,0.1221374,-7.4028339,7.4411407,1.7525467,80.1755753,42.7938919,194.9694672
8400,0.9983770,-1.5562232,9.9191265,-1.5267175,-1.6641221,0.0229008,-5.6431046,7.6135225,0.6895266,74.5572510,33.2061081,208.8244324
8410,0.9888002,-1.5705882,9.9287033,-1.1297710,-1.8396946,0.1984733,-3.6487448,7.7140784,-0.3710994,65.6564865,28.7022896,224.4885559
8420,0.9002152,-1.5394639,9.8951855,-0.2290076,-2.3358779,0.3206107,-1.6615674,7.7739329,-1.3790531,55.2519073,28.2977104,241.3816833
8430,0.9121862,-1.5083394,9.7994175,-0.6335878,-2.9312978,0.4045801,0.5195391,7.4770536,-2.3702476,45.5725174,28.3511448,250.1297760
8440,0.8619082,-1.4197544,9.7180147,-1.3587786,-3.7557251,0.2290076,2.6503677,6.9072366,-3.1866663,36.4427490,30.5877857,250.1297760
8450,0.8236012,-1.4748207,9.8496952,-0.8320611,-3.8625953,-0.1450382,5.5090299,6.2751703,-3.7995787,28.4961834,37.8167953,250.1297760
8460,0.8188128,-1.4460905,9.7922344,-0.8854962,-2.6793892,0.6488550,8.8585014,5.6478930,-4.2425036,21.4809170,54.2442741,250.1297760
8470,0.9480990,-1.4413021,9.8664551,-0.2900763,-2.6259542,1.4885496,12.9358053,5.2528515,-3.9982965,15.0763359,74.8854980,250.1297760
8480,1.1324517,-1.4413021,9.7635050,0.2671756,-2.4503818,1.4732825,18.7991753,6.3924856,-4.3263001,-16.8778629,83.4122162,197.5572510
8490,1.1803354,-1.3694763,9.8353300,0.1603053,-3.1679389,0.2519084,19.6126022,6.9359670,-4.3670015,-49.9847336,27.6259537,133.5114441
8500,1.0941446,-1.5897418,9.7371683,-0.6564885,-2.8396947,-0.3282443,19.6126022,7.0317345,-3.6176202,-79.0381699,-53.4274826,66.0152664
8510,0.9145803,-1.5179161,9.6557665,-1.9389313,-2.9007633,0.5038168,19.6126022,6.9239960,-2.4229198,-96.4427490,-128.0610657,0.8015267
8520,0.8978211,-1.4915800,9.6557665,-3.8015268,-5.1984735,1.0992366,19.6126022,6.3493905,-1.7262106,-104.0076370,-164.6717529,-58.6717567
8530,1.2258250,-1.3311694,9.8137827,-4.6335878,-6.6412215,0.0916031,19.5150375,6.0142040,-1.4915800,-106.5725174,-160.5496216,-107.4503784
8540,1.2832855,-1.3910241,9.5935173,-4.0916033,-5.6793895,-2.9847329,17.4775829,5.8729467,-1.4365137,-104.6564865,-136.0610657,-143.8549652
8550,1.0031654,-1.3168042,9.6916790,-4.6946564,-7.8015265,-4.3053436,15.2581692,5.7580256,-1.3862357,-101.0229034,-106.8320618,-171.3664093
8560,0.9672526,-1.4269369,9.7467451,-4.7557254,-9.3740454,-4.2900763,12.6892042,6.0142040,-1.3694763,-99.7480927,-79.2442780,-193.2442780
8570,0.7805058,-1.5203103,9.8473015,-4.8320613,-8.4961834,-3.5572519,10.8911676,6.2560172,-1.6591733,-102.1221390,-62.2366409,-210.2977142
8580,0.8236012,-1.6208663,10.0675669,-3.5496182,-8.4961834,-1.9847329,9.1386213,5.9998388,-1.7645177,-108.5114517,-53.0076332,-227.6183167
8590,0.8906385,-1.5490406,10.1106625,-1.0610687,-7.3587785,1.1374046,7.2735476,5.6957769,-1.4772149,-116.3816757,-48.5267181,-243.0381622
8600,1.1252691,-1.5729824,10.0675669,1.0839695,-6.0839696,3.8778627,5.0732875,5.4132624,-1.1707586,-122.9923630,-40.1374054,-250.1374054
8610,1.3168042,-1.5777708,9.9382801,2.7022901,-4.2824426,5.2900763,2.0446377,4.7668314,-0.2801202,-128.2824402,-23.6488552,-250.1374054
8620,1.4748207,-1.3646880,9.7443514,3.7404580,-2.1374047,5.2213740,-2.0997043,4.7620430,1.2976507,-127.9542007,14.1755724,-250.1374054
8630,1.5514348,-1.3455344,9.5959110,2.4656489,0.1297710,4.3129773,-6.8330169,5.3581958,3.1411765,-120.1374054,68.6488571,-241.4503784
8640,1.5897418,-1.3718705,9.6581602,1.5496184,1.9083970,2.3206108,-12.5910425,6.5935979,4.8266859,-107.3358765,129.0458069,-203.4503784
8650,1.5155219,-1.4365137,9.7108326,1.1984733,4.3358779,0.3053435,-18.5358143,8.2791071,5.8849177,-92.7404556,157.6717529,-145.5954132
8660,1.3742647,-1.3814473,9.7635050,1.2748091,6.4045801,-0.8702290,-19.6131992,9.2200232,6.9551206,-80.2061081,140.9465637,-79.3206100
8670,1.3168042,-1.5921360,9.8281479,-0.1832061,7.0229006,-0.7099237,-19.6131992,9.8329363,8.5281029,-67.8473282,97.6717529,-8.1068707
8680,1.2641320,-1.5490406,9.8018112,0.4885496,7.9541984,-1.9007634,-19.6131992,9.7012558,10.9845409,-47.7938919,55.3053436,61.7862587
8690,1.1037214,-1.4269369,9.9239149,1.6946565,9.0687027,-1.5267175,-19.6131992,9.2152348,12.5671005,-17.2366409,28.4809170,123.8549652
8700,1.1539993,-1.5753766,10.0460186,1.4351145,9.2595415,-0.8854962,-16.8167858,8.2743187,12.4114780,21.8702297,19.8931293,172.7786255
8710,1.4053892,-1.4772149,10.7906122,3.7480917,7.4198475,-2.0229008,-13.8192616,7.8289995,10.9127159,59.6793900,34.1984749,208.8244324
8720,1.5705882,-1.1372399,11.2886028,11.1603050,4.9160304,-2.9465649,-11.6237898,7.5249376,8.7938576,86.2824402,48.8244286,238.3358765
8730,1.8818330,-1.3335636,11.0228481,20.5343513,12.2366409,-4.7633586,-9.3756456,7.2041159,5.7460546,99.1450348,48.8702278,250.1297760
8740,1.5394639,-1.5897418,11.2287483,31.7022896,25.5343513,-7.0000000,-7.0652533,6.9192076,2.9687948,98.2519073,28.3893127,250.1297760
8750,0.5027798,-1.9991482,11.5998478,42.7480927,28.1679382,-4.2213740,-4.7548604,6.3805151,0.6081241,89.3587799,-4.7938933,250.1297760
8760,-0.0718257,-2.2337787,12.4042959,55.8167953,23.7022896,2.8244274,-2.2960277,5.7676024,-0.7541697,77.1984711,-32.6793900,250.1297760
8770,-0.1580165,-2.1523764,13.0124197,76.1832047,21.5572510,11.9465647,0.8212070,4.9152708,-1.8531027,67.0000000,-52.0305328,250.1297760
8780,0.5291159,-2.0805507,12.8184900,100.9160309,36.3282433,19.5572510,4.0222383,4.0581512,-2.4708035,59.3206100,-57.4274826,250.1297760
8790,0.8523315,-2.1954718,12.1265697,124.2824402,46.1450386,23.9847336,7.6781654,3.6056492,-2.7126167,53.7633591,-47.4580154,250.1297760
8800,0.8451489,-1.4413021,11.9589767,144.4580078,47.4503822,26.1374054,12.2702208,3.2656744,-2.6288199,48.4122124,-27.8549614,250.1297760
8810,0.0646431,-0.5817881,11.6884327,158.0305328,28.0076332,29.9389305,17.2381649,3.3183465,-2.7820482,40.6106873,-9.2748089,250.1297760
8820,0.0694315,-0.7996593,10.5559816,160.1603088,-2.7862597,25.6564884,19.6126022,3.5529771,-2.7868366,28.4427490,7.6564884,216.0839691
8830,0.3758878,-0.9911944,9.6222477,151.4809113,-19.8015270,18.7251911,19.6126022,4.1874375,-2.9017577,12.8244276,12.6106873,157.2824402
8840,1.2042773,-0.9528874,8.4131813,139.2671814,-18.3664131,8.2213745,19.6126022,4.3167233,-3.3279233,-6.1603055,-5.0381680,91.8854980
