timestamp,rxacclX,rxacclY,rxacclZ,rxgyroX,rxgyroY,rxgyroZ,txacclX,txacclY,txacclZ,txgyroX,txgyroY,txgyroZ
0,1.2569494,3.3087699,9.0955257,-12.9770994,0.5267175,-5.6717558,-2.0637913,0.7637464,11.0108776,-31.9389305,-29.7251911,4.6946564
10,1.1683644,3.1315999,9.1888990,-16.3053436,-0.6183206,-10.5267172,-1.8985922,0.6727672,11.2287483,-27.3664131,-26.9007626,2.2824428
20,0.9600700,2.9065459,9.4809904,-19.0687027,-2.0000000,-13.0152674,-1.8291607,0.7038917,11.5040808,-21.2900772,-22.9465656,1.9236641
30,0.6464311,2.7700772,9.7515335,-20.2290077,-1.0458015,-12.1984730,-1.8507085,0.6009415,11.5208397,-14.4961834,-20.3435116,-0.0839695
40,0.3687052,2.5210814,9.8305416,-18.5343513,-0.6488550,-9.4885492,-1.7381816,0.6296718,11.5232334,-7.4885497,-19.0839691,-1.9694656
50,0.3351865,2.5737536,10.1082678,-15.2519083,-6.4274807,-8.7709923,-1.7262106,0.7469871,11.1760759,-1.5267175,-17.6488552,-4.3816795
60,0.3902529,2.5019281,9.9095497,-13.0305347,-11.1908398,-9.3969469,-1.8650736,0.9002152,10.8313131,2.3282442,-16.5648861,-6.4274807
70,0.2681492,2.4995339,9.6797075,-12.9618320,-18.0610695,-8.5954199,-1.9895715,0.9840119,10.5679522,4.3053436,-15.4122133,-7.6793895
80,0.2657550,2.7533178,9.5767574,-15.3206110,-25.8320618,-7.1450381,-2.1284344,1.0630201,10.2279778,4.3893127,-13.3053436,-7.9389315
90,0.5339043,2.9089401,9.6102762,-20.7404575,-36.7175560,-6.2824426,-2.2672975,1.1539993,10.1489687,3.1832061,-10.4809160,-6.5725193
100,0.2226596,2.9568241,9.3086090,-28.9160309,-51.9007645,-3.0229008,-2.2888451,1.1276633,10.1010857,1.1526718,-5.9083967,-4.1603055
110,-0.0837966,3.0190730,9.5145092,-38.6564903,-75.1526718,3.6259542,-2.4061604,1.1276633,10.0771437,-1.0000000,0.5343512,-1.6870229
120,-0.2442073,2.7557120,9.9670105,-48.3129768,-98.0381699,14.4427481,-2.2625091,1.1061156,10.3931761,-1.9847329,4.0534353,0.8015267
130,-1.2928623,2.5162930,10.2710724,-57.6030540,-111.8473282,37.3893127,-2.2289903,1.0462608,10.4985209,-1.8702290,4.4656487,1.9083970
140,-1.9871773,2.3463056,10.5631638,-63.4045792,-135.9618378,71.9465637,-2.1068866,1.0079538,10.3859940,-0.9389313,4.1526718,1.3893130
150,-1.1348459,1.9105632,10.2974091,-63.7404594,-163.7251892,107.6641235,-1.9823889,0.9816177,10.4554253,-0.0381679,3.4122138,0.0992366
160,0.8307837,0.9217629,9.8065996,-59.2671738,-168.9160309,131.9618378,-2.0590029,0.9528874,10.3883877,0.1984733,1.8625954,-1.1832061
170,2.9400647,-0.0407012,9.2248116,-49.4885483,-151.0458069,138.5877838,-2.2050486,1.0702027,10.3500814,0.3969466,0.2900763,-2.5343511
180,4.2760224,-0.3974355,9.2391768,-36.3740463,-121.5267181,126.8931274,-2.3032103,0.9959828,10.2638903,0.2137405,-1.4732825,-2.6412213
190,5.1642666,0.2657550,9.9358864,-19.8625946,-103.3053436,100.0152664,-2.3965836,0.9600700,10.1322098,-0.4427481,-2.9541984,-2.2977099
200,5.7795734,0.9289455,11.0659437,-6.0687022,-116.0000000,64.2900772,-2.4468615,0.9672526,10.1106625,-1.6793894,-3.8473282,-2.0992367
210,6.0932121,1.3742647,11.2790270,3.1297710,-142.1145020,28.9312973,-2.3870070,1.0103480,10.0627785,-2.8854961,-4.7786260,-1.4580153
220,5.8561873,1.4389079,10.8791971,9.3206110,-175.5496216,0.8396947,-2.3846128,0.9672526,10.2136126,-4.0839696,-5.5038166,-0.6641222
230,5.2145448,1.2090657,9.8018112,12.1297712,-199.8167877,-16.6183205,-2.3917952,0.9840119,10.2686787,-4.5343513,-6.3129773,0.2137405
240,4.8266859,1.0821736,8.9518747,12.1374044,-208.7022858,-23.7557259,-2.3151813,0.9816177,10.2710724,-4.9847326,-7.2748094,0.6412213
250,3.5960727,1.4963684,8.5664101,11.5801525,-211.0305328,-20.1832066,-2.2265961,0.9241571,10.3165627,-5.2442746,-7.8396945,0.2137405
260,3.6942344,1.5729824,8.4059992,11.9618320,-212.2137451,-11.0458012,-2.1212518,0.9457048,10.3596573,-5.3587785,-8.0305347,0.4503817
270,4.7764082,1.2904681,8.0971489,13.0763359,-200.6717529,-4.0763359,-2.1188576,0.9504932,10.3261395,-5.4198475,-8.0839691,0.3129771
280,5.6598639,1.0366840,7.8146343,15.2442751,-185.4274750,-1.0534351,-2.0925217,0.9864060,10.3405046,-5.3664122,-8.0381680,-0.0305344
290,6.2655940,1.0486550,7.5991573,18.0687027,-168.1374054,-2.8778627,-2.0637913,1.0342898,10.3524752,-5.6564884,-7.3740458,0.6564885
300,6.7133074,1.3455344,7.4004397,21.3282452,-144.8244324,-7.3129773,-2.0925217,1.0630201,10.3788109,-5.6030536,-7.2977099,0.5496183
310,6.6319046,1.5394639,7.4387465,24.7251911,-115.1679382,-10.5496187,-2.0302727,0.9768293,10.4099360,-5.3664122,-6.8473282,0.4580153
320,7.0676475,1.3814473,7.6661944,27.0305347,-95.8244247,-11.3129768,-1.9752063,0.9169745,10.5679522,-4.4503818,-6.0610685,-0.4580153
330,7.9582858,1.3431402,7.7428088,28.6641216,-64.9770966,-15.8244276,-1.9943599,0.8882443,10.5176744,-3.6030533,-5.1755724,-0.6793893
340,8.0157461,2.3798244,7.8505473,32.6259537,-0.8625954,-21.8167934,-2.0159075,0.8690908,10.5751352,-2.7251909,-4.2213740,-1.2137405
350,7.3046722,2.4013720,7.3310080,34.9465637,75.7938919,-18.7328243,-2.0685797,0.8475431,10.6421719,-1.8625954,-3.5419848,-1.5954199
360,6.5433197,1.7142396,6.3589673,35.7328262,149.7251892,-5.7480917,-2.0230901,0.8786675,10.4985209,-0.7175573,-2.5877862,-1.9847329
370,5.4443870,1.2952565,5.2313042,33.2595406,225.7099304,22.1297703,-2.1332228,0.8547257,10.4506369,0.0763359,-2.1297710,-1.9007634
380,4.1467361,1.5466464,4.3981261,25.8625946,250.1297760,63.5954208,-2.1715298,0.8738791,10.4338779,0.9312977,-1.7175573,-2.1603053
390,3.9599893,1.4700323,3.7493007,14.1297712,250.1297760,103.6183243,-2.1404054,0.8786675,10.3524752,1.2748091,-1.4656489,-1.6870229
400,4.4316444,1.4987626,3.9935081,0.3206107,250.1297760,126.4351120,-2.2696917,0.9193687,10.3069859,0.9770992,-1.2213740,-1.0381680
410,3.0238612,1.4101776,4.9248476,-12.2824430,250.1297760,136.9923706,-2.2960277,0.9911944,10.2255831,0.3206107,-1.5114504,-0.7251908
420,1.2042773,1.1563935,6.0237808,-26.2061062,250.1297760,150.5801544,-2.3175755,1.0151364,10.1729107,-0.7175573,-1.9007634,-0.1832061
430,-0.6943150,4.1730723,12.2893744,-11.7938929,250.1297760,156.0839691,-2.2840567,1.0151364,10.0316534,-2.1145039,-3.2595420,0.2137405
440,2.8849983,4.2568688,10.3405046,-55.1984749,207.9770966,116.4732819,-2.2864509,0.9073978,10.1441803,-3.5343511,-4.6106873,-0.0763359
450,5.1211715,3.5457945,11.3747940,-67.9618301,101.8473282,59.4045792,-2.1882892,0.9289455,10.1896706,-4.6488547,-5.7786260,0.4961832
460,4.7189474,2.7245877,14.0538921,-39.1450386,73.1832047,23.3816795,-2.1595588,0.9457048,10.2495251,-5.6412215,-6.2519083,0.3740458
470,4.0078731,1.6400198,15.4808292,3.7557251,36.4427490,1.2977099,-2.1715298,0.9026094,10.2638903,-6.5419846,-6.8320613,0.6335878
480,3.7804251,0.1005560,14.4632988,40.5725174,-5.7557254,-21.0916023,-2.1068866,0.9313397,10.3620520,-6.7175574,-7.2442746,-0.2213740
490,4.3981261,-0.7230452,14.3818960,80.8625946,-27.6793900,-47.1221390,-2.0973101,0.8283895,10.4506369,-6.4961834,-6.9389315,-0.3816794
500,2.6958573,-0.0478838,14.0084028,135.9007568,-37.7709923,-73.3893127,-2.0781565,0.8331779,10.6182299,-5.9694657,-6.8244276,-0.6717557
510,2.5091105,-0.2178712,14.1736012,195.4045868,-51.3358765,-97.0381699,-1.9632354,0.7613522,10.4602137,-5.2824426,-6.3740458,-1.0152671
520,2.0757623,-0.5506636,15.4281569,250.1297760,-44.6183205,-114.3816757,-2.0135133,0.7757174,10.4841557,-4.8015265,-5.5954199,-1.5954199
530,2.1835008,-0.3232156,16.3547077,250.1297760,-91.3282471,-126.1068726,-2.0230901,0.7781116,10.3979645,-4.6030536,-5.1374044,-2.1450381
540,1.2497669,-0.1053443,14.9469252,250.1297760,-150.3740387,-138.7557220,-2.0566087,0.8188128,10.3859940,-4.4656487,-5.1984735,-2.3435113
550,1.0965388,0.7014975,12.8424320,250.1297760,-139.6641235,-142.4427490,-2.0278785,0.7948709,10.3285332,-4.4580154,-4.8854961,-2.1755726
560,0.9528874,1.4628497,10.6661139,250.1297760,-66.8549652,-129.0610657,-2.1164634,0.7326220,10.3141680,-4.7404580,-4.2366414,-2.2595420
570,-6.9527264,5.6047974,2.6599445,250.1297760,-140.4656525,-86.3282471,-2.0230901,0.7996593,10.2638903,-5.1984735,-3.8396947,-2.9389312
580,-2.0111191,6.0165982,1.6495966,141.6335907,-163.0381622,-22.7404575,-2.1188576,0.7493813,10.0843258,-5.9312978,-3.7404580,-2.2137403
590,3.5793133,5.8442163,4.3239059,91.1221390,26.9541988,10.3664122,-2.3558824,-0.1819584,8.5257082,-10.7404585,3.3129771,-2.9770992
600,5.8418221,5.8849177,9.9239149,76.7022934,117.5725174,2.0687022,-1.8985922,1.2234308,10.0220766,-13.4809160,-7.4732823,-1.1374046
610,4.8554163,5.7819676,13.3069048,95.6335907,90.8244247,-23.5954189,-1.9105632,0.9361281,10.2016411,-14.1526718,-4.6870227,-2.9923663
620,2.8969693,5.6957769,13.5128050,142.2748108,36.8320618,-41.9694672,-2.1906834,0.6368544,10.4195127,-12.9312973,-9.6412210,-4.1679387
630,1.2521610,4.9248476,14.3507719,198.8091583,-21.8549614,-47.1832047,-2.1667414,0.6248835,10.4937325,-12.7709923,-11.2442751,-3.4274809
640,0.3543400,3.3422885,13.0794573,250.1297760,-36.7175560,-38.9312973,-2.1739240,0.7493813,10.6206245,-12.0992365,-9.7709923,-3.9923663
650,-0.5602403,2.2002602,9.3924055,250.1297760,10.8244276,-16.6183205,-2.1619530,0.6272776,10.6421719,-10.5114508,-8.6946564,-3.4503818
660,-1.2545552,2.3056045,4.0988522,250.1297760,94.7633591,14.4732828,-2.1595588,0.5889706,10.7331514,-8.7251911,-7.9160304,-2.2213740
670,-1.0390782,3.8067613,-0.4118006,235.1984711,158.2366486,41.7404594,-2.0733681,0.5602403,10.6565371,-7.2442746,-6.9847326,-2.0687022
680,-0.5291159,5.4755111,-2.5234756,188.2671814,189.1221313,61.2595406,-2.0613971,0.5027798,10.7020273,-5.8931298,-6.4122138,-2.5038168
690,0.3256098,7.7116842,-3.9911139,153.9770966,153.7786255,70.7709961,-1.9129574,0.5746055,10.5248566,-4.9541984,-5.0229006,-2.4580152
700,1.4245427,9.4857788,-5.5353661,133.5419922,72.5725174,68.2061081,-1.9488702,0.4213773,10.3428984,-4.9465647,-4.0076337,-2.7557251
710,1.6926919,10.1800938,-7.5153608,112.3129807,-34.6335869,53.7480927,-2.1116750,0.3878587,9.8760319,-7.2442746,-3.8625953,-2.9770992
720,1.7070571,10.1968527,-9.0907373,76.5572510,-128.9389343,37.2977104,-1.7669119,0.6296718,9.9646168,-9.7328243,-5.3435116,-2.2137403
730,2.4253139,9.7802639,-9.1865053,26.8091602,-166.7862549,25.8625946,-1.9440818,0.6296718,10.0532017,-11.3511448,-5.9694657,-2.0229008
740,3.5841017,9.0260944,-8.0851774,-28.3129768,-131.6412201,22.4427490,-2.0853391,0.5458752,10.1872759,-12.3893127,-5.4351144,-1.9389313
750,4.5944495,8.9399033,-7.1729918,-82.6488571,-53.2977104,22.2061062,-2.4157372,0.2082945,9.8401184,-13.0916033,-3.9465649,-1.0687023
760,4.9894910,8.7747040,-5.9064655,-134.6793823,28.7099228,16.1908398,-2.2242019,0.4979914,10.9438400,-11.3893127,-6.5801525,0.5190840
770,4.5729017,7.8529415,-3.7157819,-181.9618378,99.4122162,3.9083970,-2.1595588,0.4381367,11.1497402,-7.0687022,-4.5114503,0.4961832
780,3.9791429,6.8330169,-0.9409165,-212.5648804,138.5419922,-7.7175574,-2.1715298,0.2920911,11.1641054,-1.8854961,0.0992366,0.5419847
790,3.0885043,6.3685441,1.6184721,-227.1679382,157.4732819,-18.2824421,-2.0925217,0.1460456,10.7427282,2.9007633,4.4809160,0.8167939
800,2.3870070,6.0716643,2.5162930,-232.4427490,166.3053436,-27.4045811,-1.9368993,0.4357425,10.9701757,6.3587785,5.0458016,0.3969466
810,2.0326669,5.9399838,2.4779861,-238.8625946,171.7328186,-36.2213745,-1.8554969,0.3064562,10.6541433,8.5954199,7.1603055,-0.2977099
820,1.1061156,5.5976148,3.7014170,-248.3435059,167.6641235,-45.6793900,-1.8267666,0.4094064,10.4051476,9.4274807,6.5267177,-0.9160305
830,-0.3543400,4.9009056,6.0501165,-250.1374054,137.8015289,-53.5954208,-2.0757623,0.4309541,10.3405046,8.1145039,6.7022901,-1.6106870
840,-1.3215926,3.9911139,8.2240410,-240.0152740,101.1603088,-54.1679382,-2.0230901,0.4884146,10.0795374,6.1603055,7.5419846,-2.6183207
850,-1.7573351,3.1723011,9.4091644,-219.1221313,59.9465637,-47.7557259,-2.0446377,0.7182568,10.1633339,3.9923663,4.2824426,-3.6641221
860,-1.4125718,3.3398943,9.1434097,-198.2213745,34.9312973,-37.3969460,-2.1595588,0.6512195,9.9478569,2.1603053,3.1984732,-3.8167939
870,-0.6991033,3.8402798,8.1977043,-189.7022858,28.3511448,-27.5190830,-2.4301023,0.5123565,9.7180147,-0.3893130,2.0992367,-4.4198475
880,0.0861908,4.1251884,7.2352405,-194.2900696,34.3206100,-22.8473282,-2.1571648,0.9145803,10.2998028,-3.3969467,-3.9770992,-3.6030533
890,0.5123565,4.3143296,7.0939832,-207.4351196,38.5954208,-28.0687027,-2.4588325,0.6033357,9.7539282,-5.6412215,-0.9389313,-4.0992365
900,0.6560079,4.6016321,7.9199786,-224.3206177,37.0152664,-41.6030540,-2.2553265,0.6871324,10.1393919,-7.4580154,-4.0992365,-3.2900763
910,-0.3016679,4.4938936,9.5815458,-243.1068726,23.3893127,-56.9160309,-2.5258698,0.4022238,9.7515335,-10.8549614,-3.9694657,-3.1755726
920,-1.6519908,3.1268115,11.6285782,-244.5648804,17.1450386,-60.6183205,-2.1356170,0.6153067,9.9119444,-13.2595415,-7.4885497,-2.9007633
930,-2.5186872,1.9943599,12.1888189,-230.1374054,19.3893127,-51.5954208,-2.4588325,0.4070122,9.9861641,-16.8778629,-9.8702288,-3.0229008
940,-1.8602852,0.6703730,13.1297350,-213.5114441,-7.6793895,-45.5801544,-2.4612267,0.0526722,9.4450769,-19.7251911,-8.5038166,-3.4503818
950,-1.1132981,-0.1699875,13.7641954,-189.7022858,-32.6030540,-43.8931313,-1.8842272,0.5386927,10.2303715,-21.9160309,-11.9007635,-3.1679389
960,-0.8690908,0.1077385,13.6492739,-157.0610657,-44.0916023,-43.7709923,-3.0334380,0.0646431,9.8568783,-27.0687027,-6.5496182,-0.5190840
970,-1.3215926,0.5650287,13.4050665,-124.7862625,-57.1450386,-39.5572510,-1.9033806,0.2561783,9.9454632,-25.5343513,-4.4427481,0.1603053
980,0.0526722,0.8379663,14.0898046,-106.4885483,13.7099237,-36.7786255,-3.0023136,-0.0814024,9.8233595,-29.2366409,0.6106870,4.7175574
990,-0.1891410,1.4652439,14.1640244,-105.1374054,79.3969498,-32.4580154,-1.4029950,0.5985473,10.5272512,-25.4427490,2.1221373,4.6030536
1000,-1.6352314,0.6224893,13.2733860,-98.1603088,97.6870193,-23.4580154,-2.8586621,-0.6224893,9.5743637,-26.6183205,13.5725193,6.4732823
1010,-2.2505381,0.4381367,12.9693241,-78.0839691,73.7251892,-12.4045801,-0.8690908,0.8020535,11.0731258,-22.9007626,11.6641226,7.0152674
1020,-1.9704180,0.4357425,12.6724443,-53.4045792,46.2061081,-3.0305343,-2.1092808,-0.2992737,10.0699606,-21.7786255,26.6946564,6.9465647
1030,-1.6735384,0.4237715,12.3851423,-31.8015270,17.7633591,2.4656489,-1.2641320,0.4884146,10.8791971,-21.8320618,31.9847336,8.2137403
1040,-1.2593436,0.5075682,11.9517937,-11.7786255,-3.7709923,5.1603055,-2.0326669,-0.0239419,10.2734671,-22.5038166,48.1297722,8.7480917
1050,-0.4764437,0.6033357,11.2167778,2.2824428,-9.8320608,5.1450381,-1.9847831,0.1556223,10.7379398,-22.4885502,57.0152664,9.6946564
1060,-0.3567342,0.8762733,10.6613255,9.0152674,-7.2442746,3.4885497,-2.1882892,0.1484398,10.6780853,-21.2748089,63.5190849,9.6412210
1070,-0.4357425,0.8331779,10.0484133,9.9694653,-6.7633586,0.6564885,-2.3486998,-0.4165890,10.6469603,-19.6717548,69.5114517,7.3511453
1080,-0.6560079,0.9864060,9.7084379,9.0000000,-10.8473282,-2.6793892,-1.9440818,-0.8954269,10.0101061,-19.9923668,80.6030502,2.6946564
1090,-0.6081241,1.1420283,9.7084379,7.8091602,-12.8244276,-6.3893127,-1.8507085,-0.6919208,10.0460186,-22.5572510,112.3435135,-8.0763359
1100,-0.6584021,1.0271072,9.6437950,6.3358779,-8.0229006,-9.4809160,-2.4636209,-1.0271072,9.8257532,-26.2900772,140.4656525,-15.9389315
1110,-0.9720409,1.0079538,9.5504217,3.9618320,-7.8320613,-11.0610685,-2.8802099,-1.0247130,9.8065996,-31.8702297,167.0000000,-24.5190830
1120,-0.9864060,0.9480990,9.5456333,3.6335878,-10.0076332,-10.6870232,-4.0174499,-0.7805058,10.1346035,-36.7251892,197.1984711,-31.1832066
1130,-0.9217629,1.0127422,9.5983057,2.5877862,-8.5877867,-8.9083967,-5.9351954,-0.8283895,10.7379398,-40.6793900,215.0534363,-32.3206100
1140,-0.8643024,1.1037214,9.7467451,0.7862595,-5.4045801,-6.8320613,-8.6717539,-0.8427547,11.7004042,-46.2595406,207.8549652,-29.1526718
1150,-0.8690908,1.1109039,9.8209648,-0.1908397,-6.4961834,-5.3129773,-11.3819771,-0.7852941,13.2997227,-52.6793900,180.3358765,-18.9465656
1160,-0.6943150,1.2066715,9.8353300,0.3587786,-9.6717558,-5.0610685,-13.1967726,-0.9888002,15.1600075,-53.8244286,133.3511505,-1.6259542
1170,-0.4620786,1.2737088,9.9789820,1.9083970,-9.6488552,-5.9160304,-13.8791161,-1.5969244,16.8766422,-44.8854980,76.0229034,19.3511448
1180,-0.4165890,1.3383518,9.9670105,3.0305343,-7.5801525,-6.7328243,-13.1943779,-2.3127871,17.9372673,-24.4122143,22.7404575,37.0458031
1190,-0.4692611,1.3096216,9.9502516,3.4580152,-7.1679387,-7.0610685,-11.7099810,-2.9472473,18.0258522,5.1526718,-14.5648851,48.5038185
1200,-0.5123565,1.3694763,9.8664551,4.0152674,-9.4656487,-7.4045801,-10.3261395,-3.4308734,17.4632187,38.0610695,-33.5648842,53.4198456
1210,-0.3710994,1.4556671,9.7922344,4.3206105,-9.8015270,-7.6717558,-9.1410151,-3.3039815,16.1895084,67.0305328,-35.0839691,56.9236641
1220,-0.3112446,1.5155219,9.6509781,3.9541984,-6.6564884,-8.3969469,-8.3676920,-3.1507533,14.6428623,89.2977066,-27.5343513,60.5801544
1230,-0.3591284,1.4915800,9.6485834,3.0305343,-4.5725193,-8.9770994,-8.1354561,-2.8634505,13.2805691,102.0687027,-14.2213745,65.0229034
1240,-0.3351865,1.5179161,9.5528164,1.8778626,-3.9083970,-9.5572519,-8.2958660,-2.4133430,12.3923244,108.1679382,0.9312977,72.2595444
1250,-0.3088504,1.5131277,9.6318245,0.9694657,-3.8854961,-10.0992365,-8.6118994,-2.2792683,11.6213961,110.5114517,15.4427481,83.0534363
1260,-0.1795642,1.4006008,9.6054878,-0.0916031,-2.1755726,-10.8702288,-8.7340031,-1.9081690,11.3484583,110.3664093,27.2595425,96.3206100
1270,-0.3902529,1.3239868,9.5480280,-1.8320611,0.1679389,-12.1450386,-8.8656836,-1.4245427,11.4322548,110.2061081,33.6488533,110.8320618
1280,-0.5386927,1.3431402,9.3684635,-4.0305343,-0.3969466,-12.9770994,-8.7579451,-1.1252691,11.3005743,112.4198456,37.2366409,126.1755753
1290,-0.6033357,1.2784972,9.3325500,-6.9465647,0.2213740,-13.0381680,-8.3916340,-1.0654143,11.1880474,117.1221390,39.7022896,140.3969421
1300,-0.7326220,1.1539993,9.4833841,-9.0839691,1.2900764,-12.3511448,-7.7284436,-1.0414724,10.8313131,122.4045792,42.8167953,153.2290039
1310,-0.9672526,1.1444225,9.5264797,-10.6793890,0.2290076,-10.5725193,-7.1753860,-0.9720409,10.4338779,127.9312973,46.6717567,164.4503784
1320,-1.1516051,1.2162483,9.7012558,-11.8778629,-2.1984732,-8.5648851,-6.7899213,-1.0007712,10.0077124,134.3893127,51.8244286,173.1450348
1330,-1.2282192,1.2018831,9.9646168,-11.3435116,-8.9312973,-5.9389315,-6.4212160,-0.7421987,9.7994175,139.8702240,58.4961815,181.6259613
1340,-0.9983770,1.2354017,10.2327662,-9.4885492,-9.6412210,-3.6717558,-6.1219425,-0.4381367,9.5959110,145.5114441,64.7557220,191.6259613
1350,-0.7996593,1.2114599,10.3357162,-7.4045801,-5.8015265,-2.2213740,-5.5257893,-0.1149211,9.3564920,152.0610657,67.3816757,201.9694672
1360,-0.8451489,1.1492109,10.2399483,-4.5725193,-7.1297708,-1.0000000,-4.7261300,0.2226596,8.7196379,159.7557220,66.9389343,210.0000000
1370,-0.8259954,1.1731528,10.0388365,-1.6641221,-7.4427481,0.2290076,-3.6798692,0.4094064,7.8481531,167.5572510,65.5419846,216.8015289
1380,-0.7709290,1.1611819,9.8664551,0.2595420,-9.8244276,1.3816794,-2.4923513,0.4955972,7.0868006,174.3587799,64.6793900,219.2977142
1390,-0.6536137,1.1947005,9.7299862,1.0152671,-11.2900763,1.7480916,-1.3862357,0.7374104,6.2177100,179.6641235,63.9389305,219.3816833
1400,-0.6560079,1.2162483,9.7275915,0.4809160,-12.8167934,1.5190840,-0.0383070,1.0031654,5.2959471,183.2595367,65.5648880,215.8015289
1410,-0.6943150,1.2832855,9.7156210,-0.1297710,-12.4732828,0.6793893,1.0678085,1.2976507,4.3550305,183.6717529,69.7480927,208.1145020
1420,-0.5865764,1.2928623,9.8281479,-1.1221374,-8.5267172,-0.0916031,2.1739240,1.8435259,3.5074875,179.6793823,74.0763321,196.4885559
1430,-0.7158626,1.2761030,9.8592720,-1.1984733,-7.8702292,-0.2290076,2.9759774,2.2744799,2.5522060,171.5114441,78.7633591,181.1374054
1440,-0.6943150,1.1923064,10.0196829,-1.0152671,-8.1679392,0.4809160,3.7325413,2.8251436,1.8147956,159.8396912,80.3740463,163.3893127
1450,-0.5506636,1.1300575,10.0699606,0.3740458,-7.8702292,1.0458015,4.1323709,3.4093258,1.3000449,144.4427490,79.4503784,141.5496216
1460,-0.5171449,1.1348459,10.0460186,2.7404580,-12.4580154,1.5496184,4.3646073,3.9264708,0.9217629,126.6259537,76.0229034,119.2595444
1470,-0.2082945,1.1420283,10.0077124,4.0610685,-12.4274807,0.9160305,4.3550305,4.4531922,0.6655847,108.4045792,67.9160309,96.6030502
1480,0.0143651,0.9888002,9.8377247,4.9389315,-9.4503813,-1.6183206,3.5649481,5.5162125,0.8499373,59.8320618,32.3664131,33.2290077
1490,0.0526722,0.9792235,10.0172882,5.8702292,-10.2748089,-2.3206108,2.7820482,6.0189924,1.0606259,35.0610695,3.1297710,-0.6641222
1500,0.1197095,1.0247130,9.9574337,5.6183205,-8.1984730,-2.5648854,2.2888451,6.2344694,1.1875180,24.2824421,-9.1145039,-14.3816795
1510,0.0359128,1.1396341,9.8161764,5.0000000,-6.0229006,-2.9770992,1.3215926,6.5337429,1.5298871,5.7099237,-31.5725193,-36.7480927
1520,-0.1053443,1.3479286,9.5863342,3.0305343,-3.9389312,-4.1526718,0.6631905,6.7587967,1.9943599,-10.4885492,-42.8320618,-53.5114517
1530,-0.2035061,1.3575054,9.6916790,1.5038168,-2.7557251,-4.4656487,0.3184272,6.7324610,2.1715298,-15.2824430,-43.5496178,-62.0534363
1540,-0.2298422,1.3910241,9.6892843,0.4580153,-2.2137403,-4.5572519,0.0215477,6.7923155,2.4492557,-18.1450386,-41.1068687,-70.4809189
1550,-0.2633608,1.3862357,9.6916790,-0.1068702,-1.8473282,-4.6793895,-0.5075682,6.8904772,2.6120608,-20.3282452,-36.0000000,-78.7938919
1560,-0.3663110,1.3766589,9.7826586,-0.3587786,-2.0610688,-4.2748094,-1.1013272,6.8162575,2.6838863,-21.8625946,-31.2366409,-86.1450348
1570,-0.3136388,1.4149660,9.7730818,-0.1221374,-3.7099237,-3.2366412,-1.8914096,6.8449879,2.7485294,-24.4961834,-28.2061062,-93.2213745
1580,-0.2298422,1.5035510,9.8329363,-0.4809160,-2.3206108,-2.8396947,-2.6264257,6.8809004,2.8419030,-28.3129768,-27.7786255,-98.5419846
1590,-0.3734936,1.4293311,9.8018112,-0.8625954,-1.6488550,-2.4503818,-3.3398943,6.9455438,2.8059900,-34.2748108,-30.6870232,-101.0152664
1600,-0.4046180,1.3383518,9.6390066,-1.1526718,-1.6412214,-1.3206106,-3.9504125,6.9120250,2.7581062,-42.5038185,-37.0381660,-101.5648880
1610,-0.3639168,1.3407460,9.7060442,-1.9007634,-1.6030535,-0.3893130,-4.3358769,6.8545642,2.9664006,-53.1374054,-42.6259537,-99.4198456
1620,-0.3615226,1.2928623,9.6629486,-2.5419848,-1.1755725,1.0152671,-4.6112089,6.6414814,3.3949606,-63.9541969,-47.4503822,-99.3740463
1630,-0.3902529,1.2784972,9.7587166,-3.6335878,-0.3435115,2.0458016,-4.8218975,6.4882536,3.8929520,-73.4122162,-51.2213745,-98.3816757
1640,-0.2585725,1.3120158,9.8257532,-4.5267177,0.0916031,3.2824428,-5.1020179,6.3398137,4.5800843,-80.3816757,-52.6870232,-97.4503784
1650,-0.1747758,1.2042773,9.7371683,-5.1297708,0.8778626,3.8549619,-5.3797436,6.2081332,5.0972295,-84.7022934,-51.1221390,-96.5496216
1660,-0.0239419,1.3263810,9.8568783,-5.7862597,1.9465649,3.7175572,-5.5928264,6.1195483,5.7053533,-85.9389343,-46.1679382,-94.5114517
1670,0.0814024,1.2377959,9.7515335,-5.8473282,3.4351146,2.5114503,-5.9351954,6.1482787,6.2991123,-84.6641235,-40.1755714,-92.2900772
1680,0.0550664,1.2593436,9.9119444,-5.6717558,3.8396947,1.9465649,-6.3086891,6.0788469,6.8617468,-81.0457993,-33.7557259,-88.5496216
1690,-0.0047884,1.2306134,9.8592720,-5.2290077,4.1679387,1.3206106,-6.6582408,5.9471664,7.2232695,-75.5267181,-27.6259537,-85.2977066
1700,-0.1005560,1.2018831,9.8712435,-5.1450381,4.5343513,0.7633588,-6.9670911,5.9471664,7.2879128,-69.5877838,-24.8702297,-82.8778610
1710,-0.2753318,1.1875180,9.6916790,-5.9389315,4.6259542,1.1526718,-7.2735476,5.9471664,7.4195933,-64.5801544,-26.2900772,-80.3358765
1720,-0.3184272,1.1923064,9.6461897,-7.0534353,4.6183205,2.1374047,-7.6039457,5.8921003,7.3214312,-61.3893127,-30.5038166,-76.2137375
1730,-0.3423691,1.2354017,9.7395630,-7.8244276,5.5190840,2.6717558,-7.6781654,5.9854736,7.3022780,-60.2366409,-36.8396950,-71.8702316
1740,-0.2657550,1.1851238,9.8377247,-8.7099237,6.4198475,2.8091602,-7.5464849,5.8418221,7.3166428,-60.4580154,-44.1984749,-66.7557220
1750,-0.3447633,1.1611819,9.8137827,-8.7938929,6.3740458,3.1221373,-7.2519999,5.6742291,7.1059542,-62.2519073,-49.3511467,-61.8854980
1760,-0.3184272,1.0678085,9.9574337,-8.4427481,4.6717558,3.2519083,-6.9287844,5.4850879,7.1131368,-64.9770966,-52.2442741,-58.0839691
1770,-0.3016679,1.0606259,10.0532017,-7.0152674,3.7633588,2.9312978,-6.7659793,5.3581958,7.1634150,-67.8091583,-51.7557259,-54.3282433
1780,-0.2801202,1.1132981,10.0627785,-5.0916033,2.0229008,2.4656489,-6.7013364,5.0445571,7.3453732,-70.5343475,-45.0152664,-50.0610695
1790,-0.2154770,1.0773853,10.1058741,-3.1374047,-0.2213740,2.0381680,-6.6678176,4.8266859,7.6159167,-71.9160309,-32.1297722,-45.3206100
1800,-0.1340746,1.0869620,10.1441803,-0.8854962,-2.0610688,1.3511450,-7.0030041,4.6519103,7.9965930,-71.6793900,-19.0763359,-42.1832047
1810,-0.1651991,1.0845678,10.0029240,0.9694657,-2.8931298,0.7022901,-7.2927012,4.5609307,8.1857338,-70.7328262,-5.8549619,-39.0152664
1820,-0.1771700,1.0797794,10.0005293,2.7404580,-4.4656487,0.2977099,-8.0085640,4.5345950,8.5927458,-70.2977066,5.0839696,-34.9083977
1830,-0.1915352,1.1539993,9.9478569,3.9236641,-6.1297708,0.2366412,-8.8992023,4.6566987,8.9183559,-70.2900772,12.4503813,-27.9389305
1840,-0.1987177,1.1947005,9.9885588,4.4351144,-4.9618320,-0.2671756,-9.4402885,4.7859845,9.3540983,-70.3587799,16.1068707,-16.8091602
1850,-0.2298422,1.2282192,9.9670105,5.1221375,-5.5877862,-0.6183206,-9.6198530,4.7740140,9.8401184,-69.6641235,17.1908398,-3.1374047
1860,-0.1053443,1.1994889,9.8544836,6.1221375,-6.7938933,-1.4427481,-9.6797075,4.6064205,10.3045912,-67.0839691,15.7099237,10.1679392
1870,-0.0598547,1.2880739,9.8808203,6.7022901,-5.7938933,-2.2213740,-9.5001440,4.3310885,10.8863792,-61.1068687,16.8931293,22.2290077
1880,-0.1077385,1.3718705,9.8951855,7.1755724,-6.0305343,-2.9847329,-9.1194677,4.0653338,11.3652172,-51.3893127,22.0000000,31.7099228
1890,-0.1197095,1.3694763,9.8951855,7.5725193,-6.5877862,-3.5801528,-8.8920193,3.9743545,11.6166077,-39.7404594,26.0305347,37.1755714
1900,-0.0574605,1.3646880,9.7658987,7.5496182,-6.5496182,-4.1221375,-8.5831690,3.8929520,11.6788559,-27.2595425,27.4961834,40.9771004
1910,-0.0981618,1.3239868,9.7491398,7.2824426,-6.5725193,-4.7557254,-8.4371233,3.8570392,11.6261835,-15.2061071,25.4045811,43.6259537
1920,-0.1795642,1.3311694,9.7060442,6.5725193,-6.2442746,-4.6335878,-8.2288294,3.9575951,11.3197279,-4.5419846,21.1526718,43.7862587
1930,-0.2370248,1.2234308,9.8640604,0.7022901,-1.2977099,-0.2595420,-8.3437500,4.3717899,9.4498653,19.8473282,4.7404580,47.7251892
1940,-0.2106887,1.1970947,9.8473015,0.7786260,-1.3511450,0.7404580,-8.9303265,4.4675574,9.4163475,18.5725193,12.2519083,55.6030540
1950,-0.0383070,1.2186425,9.8975792,1.3816794,-1.2595420,0.7862595,-9.5240860,4.6064205,9.7898407,18.6183205,21.9770985,68.5114517
1960,-0.0047884,1.2713146,9.8209648,1.6564885,-1.1068702,0.9389313,-10.1154509,4.3741841,10.4769726,21.4885502,31.9007626,84.4580154
1970,-0.0047884,1.3096216,9.8951855,1.4961832,-1.0458015,0.7480916,-10.8911676,4.3263001,11.3077564,28.0305347,40.3816795,101.5725174
1980,0.0909792,1.2569494,9.7299862,1.4274809,-1.0534351,0.5038168,-11.5375986,4.3622131,12.0978394,39.1908379,36.8854980,121.1526718
1990,-0.0311245,1.1923064,9.6653433,0.9389313,-0.6335878,0.0229008,-11.3843708,3.6655040,12.3564119,54.1755714,22.8549614,141.0305328
2000,0.0383070,1.2880739,9.7347746,-0.1526718,-0.3816794,-0.1755725,-10.2902260,3.2728570,12.2103662,70.8473282,14.4961834,157.3893127
2010,0.0478838,1.1875180,9.6390066,-1.2519084,0.7328244,-0.5954198,-8.9686337,3.2560976,11.8368731,86.9694672,13.7022905,169.6488495
2020,-0.0598547,1.1731528,9.6485834,-2.6335878,1.3587786,-0.6488550,-8.4682484,3.1818779,11.7626524,102.3587799,18.6717548,179.9236603
2030,-0.0885850,1.2162483,9.7084379,-3.3893130,2.0610688,-0.2137405,-8.3198080,3.1315999,11.6190014,117.4427490,19.0610695,190.4274750
2040,-0.2633608,1.1420283,9.8065996,-3.9389312,2.5801528,0.4732825,-8.0229292,2.7964132,11.1497402,132.1603088,12.4580154,202.7862549
2050,-0.2585725,1.1659702,9.9023676,-4.0229006,2.2290077,1.6488550,-7.2232695,2.5833304,10.2327662,145.7404633,2.6488550,213.6488495
2060,-0.3040621,1.2018831,9.8544836,-3.2290077,1.7251909,2.6717558,-5.8418221,2.3678534,8.9470863,156.6335907,-2.9083970,221.7022858
2070,-0.3447633,1.2521610,10.0436249,-2.1603053,1.0687023,3.4274809,-4.1850433,2.3391230,7.6230993,164.2977142,4.7557254,227.7557220
2080,-0.2753318,1.4006008,9.9765873,-1.0916030,0.1068702,3.7328243,-2.5929072,2.4755919,6.5600791,167.9084015,25.2137413,230.3053436
2090,-0.2154770,1.4460905,9.9263096,0.0916031,-0.6335878,3.6106870,-1.3407460,2.6216373,5.5593081,167.1221313,49.4961815,233.4656525
2100,0.0023942,1.4772149,9.9023676,0.8091603,-0.9160305,2.1908398,0.7661406,2.9999194,4.0413918,159.6183167,90.7938919,233.5496216
2110,-0.0933734,1.4796091,9.7299862,0.6106870,-0.8702290,1.5725191,1.7812769,3.1555417,3.3734128,154.5190887,107.4809189,231.0000000
2120,-0.0646431,1.3718705,9.7228031,0.3435115,-1.3053435,1.2519084,2.7341642,3.3063757,2.9209111,149.0076294,124.1374054,225.6030579
2130,-0.0095768,1.2808913,9.8473015,0.0610687,-1.0610687,0.6488550,3.6774750,3.3039815,2.4181314,142.2061005,133.6717529,218.3358765
2140,0.0239419,1.2162483,9.8161764,-0.4809160,-0.7480916,0.2061069,4.4172797,3.3111639,1.7980363,133.7022858,129.7557220,208.2824402
2150,-0.0814024,1.1947005,9.7970228,-0.8778626,-0.8320611,-0.1984733,5.2935529,3.3015873,1.2018831,122.5419846,126.3511429,196.9847260
2160,0.0023942,1.1492109,9.8329363,-0.5572519,-1.3969465,-0.7786260,5.9280128,3.0597742,0.4285599,108.9160309,122.0534363,183.9236603
2170,-0.1915352,1.3407460,9.8592720,1.3511450,-0.7099237,-3.9389312,11.7865944,0.9552816,-2.5665710,-7.6183205,-48.7480927,64.7099228
2180,-0.2418131,1.4365137,9.8425131,1.0839695,-0.7022901,-4.1374044,12.8759508,0.6368544,-2.3175755,-29.2213745,-54.2519073,34.1297722
2190,-0.2489957,1.3814473,9.7611103,1.0992366,-0.8625954,-3.8167939,14.0826225,0.6560079,-1.8578910,-43.3511467,-50.1984749,-1.5419847
2200,-0.3280039,1.4365137,9.8161764,1.1603054,-0.5267175,-3.3053436,15.9596672,0.6296718,-2.2098370,-52.9923668,-50.7862587,-46.5343513
2210,-0.3878587,1.4245427,9.8640604,1.1068702,-1.2137405,-2.5190840,17.9013538,-0.0430954,-1.9225341,-61.3511467,-40.5343513,-94.5419846
2220,-0.4118006,1.3503228,9.9502516,1.3511450,-1.8778626,-1.4580153,19.6126022,-0.6200951,-2.2601149,-74.2595444,-13.1374044,-160.0534363
2230,-0.3160330,1.3311694,9.8880024,1.9389313,-3.2519083,-0.2671756,19.6126022,-2.0111191,-2.3199697,-89.2900772,20.7480907,-234.7709961
2240,-0.2753318,1.2545552,9.8640604,2.1755726,-3.3816793,1.1145039,19.6126022,-3.9121056,-1.1539993,-103.5038147,72.3282471,-250.1374054
2250,-0.1388630,1.2976507,9.8089943,2.4427481,-3.9923663,1.7709924,19.6126022,-4.7620430,0.7445929,-97.4580154,123.0992355,-250.1374054
2260,0.0119709,1.2545552,9.7108326,1.9923664,-2.8702290,2.2977099,19.6126022,-7.7452030,2.6886747,-67.3511429,143.1908417,-250.1374054
2270,0.0909792,1.2689204,9.7491398,1.2137405,-2.3435113,2.0381680,19.6126022,-14.2238798,2.3247581,-28.4122143,147.9618378,-250.1374054
2280,0.2130829,1.1779412,9.7132263,0.5496183,-2.2442749,1.5190840,16.3690739,-19.6131992,0.6057299,-4.2824426,142.9847260,-250.1374054
2290,0.1915352,1.1707586,9.7132263,-0.3282443,-0.5114504,0.7786260,1.7309990,-19.6131992,0.5410868,5.9770994,106.2366409,-250.1374054
2300,0.2130829,1.2066715,9.7323799,-1.1755725,0.1450382,0.0000000,-19.6131992,-19.6131992,1.1061156,14.8167934,-16.1297703,-250.1374054
2310,0.1628049,1.2066715,9.8496952,-1.3282443,0.4732825,-0.5801527,-19.6131992,-19.6131992,1.2808913,-2.7786260,-117.9770966,-250.1374054
2320,0.1556223,1.2186425,9.9239149,-1.3358779,0.5038168,-1.2366412,-19.6131992,-19.6131992,5.0086441,-70.3129807,-116.3969498,-250.1374054
2330,0.0311245,1.2210367,9.8233595,-0.8931298,1.1068702,-1.5572519,-19.6131992,0.6871324,12.9621420,-154.3816833,-139.2442780,-250.1374054
2340,-0.1292862,1.3359578,9.7898407,-0.4656489,0.7709923,-1.0992366,-19.6131992,-4.6950054,19.6126022,-162.7404633,-211.5343475,-212.4809113
2350,-0.3040621,1.4029950,9.6940727,-1.1068702,0.6030535,-0.1526718,-19.6131992,0.3184272,19.6126022,-56.8244286,-248.3206177,17.3053436
2360,-0.2489957,1.4436963,9.7180147,-1.9007634,0.3587786,0.8702290,-19.6131992,1.1492109,16.5893383,74.9312973,-121.1526718,76.7633591
2370,-0.3088504,1.4389079,9.6797075,-2.0076337,1.1145039,1.2213740,-19.6131992,-2.5474176,8.6621771,152.9160309,52.8854980,115.0457993
2380,-0.3160330,1.4772149,9.7706871,-2.7404580,1.3358779,1.2366412,-12.4856977,-2.2649033,2.7868366,166.8854980,207.7099304,146.6259613
2390,-0.2250538,1.4820032,9.6821022,-3.5114503,0.7404580,2.0458016,-8.0803890,0.4596844,-0.4046180,139.6030579,250.1297760,136.4351196
2400,-0.1412572,1.4317253,9.7611103,-3.8015268,1.3129771,3.0458016,-9.3804340,1.6831152,-1.0702027,94.7022934,250.1297760,98.9007645
2410,-0.1340746,1.4987626,9.7611103,-4.6412215,1.4045801,1.2366412,-11.6884327,2.5665710,-0.6416427,46.9007645,173.2977142,56.9312973
2420,-0.2274480,1.5322813,9.7922344,-3.4427481,-0.3664122,2.4503818,-12.3971128,3.3063757,-0.2322364,2.3282442,40.0610695,23.8091602
2430,-0.1628049,1.4436963,9.6844959,-5.1603055,1.3587786,3.7938931,-11.7865944,3.5290353,0.0095768,-35.7099228,-64.7862625,5.1603055
2440,-0.0885850,1.5705882,9.5671806,-7.0992365,3.4122138,3.2977099,-10.0579901,3.1076579,0.3950413,-62.7480927,-128.1145020,-3.2290077
2450,-0.2106887,1.4676381,9.3756456,-8.3969469,3.6106870,3.3053436,-8.5783806,2.7197993,1.0941446,-77.7938919,-154.0076294,-9.2442751
2460,-0.2178712,1.4604555,9.4953556,-10.7480917,5.0152674,3.7251909,-7.8768835,2.6383967,1.9823889,-83.0687027,-150.7786255,-9.5877867
2470,-0.3208214,1.3862357,9.3564920,-13.6717558,7.5877862,5.1221375,-7.9606800,2.6192431,3.0573800,-81.1221390,-128.7099304,-4.6488547
2480,-0.5003856,1.2354017,9.2655134,-16.7480907,8.9007635,7.0992365,-8.1115141,2.3606708,4.0294209,-74.5038147,-101.8931274,4.9389315
2490,-0.5913648,1.2306134,9.3780403,-19.5648861,9.8320608,8.5496187,-7.7859039,1.7884595,4.9799142,-64.2671738,-79.2137375,14.3587790
2500,-0.5650287,1.3263810,9.3947992,-21.7786255,10.6412210,9.9083967,-6.8114691,1.2569494,5.6383162,-50.9771004,-61.7328262,17.3358784
2510,-0.4525018,1.3479286,9.5240860,-24.1297703,11.2290077,10.1984730,-5.9854736,0.9217629,5.9663200,-35.0000000,-46.1984749,13.2519083
2520,-0.3974355,1.1875180,9.5887289,-26.3511448,12.3511448,10.1374044,-5.5449429,0.7637464,6.1003947,-20.4274807,-35.0152664,3.0839694
2530,-0.3088504,1.0462608,9.6892843,-28.4045811,13.2137403,10.3511448,-5.5640965,0.7924767,5.9399838,-9.0152674,-30.6259537,-9.6717558
2540,-0.1771700,0.9337339,9.7419567,-29.6870232,12.9236641,10.5648851,-5.8873119,0.7589580,5.8035154,-1.6717557,-33.6641235,-22.1145039
2550,-0.1484398,0.8451489,9.9526453,-30.5954189,12.7862597,9.9694653,-6.4451580,0.8355721,5.7532372,2.5114503,-43.1297722,-33.0000000
2560,-0.0814024,0.7733232,10.0005293,-30.9923668,10.7709923,10.1145039,-6.8186517,0.9720409,5.6718349,4.5877862,-56.5496178,-41.5419846
2570,-0.0885850,0.7445929,10.0508070,-30.3664131,13.0152674,10.9465647,-7.0628591,1.1204807,5.6287394,5.0000000,-68.2671738,-48.0458031
2580,-0.0885850,0.5506636,10.1298151,-29.1908398,12.2213745,10.8396950,-7.2950954,1.1276633,5.6526814,4.9618320,-74.5038147,-51.0763359
2590,-0.0167593,0.5243275,10.2112179,-26.9236641,11.4503813,10.1832066,-7.5225434,1.1492109,5.4874821,4.5801525,-74.2290039,-52.3053436
2600,-0.0478838,0.4908088,10.1489687,-24.9312973,11.8854961,8.9236641,-7.7547798,1.1372399,5.5138183,4.0076337,-66.0763321,-50.5572510
2610,-0.1508339,0.4381367,10.2016411,-23.0763359,10.2595415,7.6488547,-8.0348997,1.0438666,5.6263452,3.3664122,-53.7557259,-46.8931313
2620,-0.0239419,0.3998296,10.3955708,-20.2748089,9.7022905,5.8015265,-8.3413563,1.0702027,5.5090299,2.9694657,-40.4351158,-41.8167953
2630,-0.1149211,0.4046180,10.5009146,-15.6259546,7.7480917,4.2290077,-8.5807753,1.1851238,5.6311336,1.7709924,-27.7557259,-36.4961815
2640,-0.1987177,0.5075682,10.4266949,-11.6106873,6.3511453,3.3511450,-8.9015961,1.0462608,5.7029591,-0.3435115,-17.9389305,-31.7480907
2650,-0.1628049,0.4405309,10.4219065,-8.6106873,5.1068702,2.3206108,-9.2487535,1.0199248,5.8801293,-3.3740458,-11.6564884,-28.2748089
2660,-0.1628049,0.4692611,10.1010857,-6.0916033,4.7480917,0.2595420,-9.5815458,1.1372399,6.0118098,-5.9465647,-9.4274807,-23.5419846
2670,-0.2489957,0.4213773,10.1441803,-3.3053436,3.7786260,-1.0610687,-9.9334917,1.1875180,6.3422079,-6.6564884,-12.3511448,-19.4809170
2680,-0.4118006,0.4189832,10.1298151,-1.6641221,3.4961832,-1.8931298,-9.9287033,1.1156923,6.5552907,-6.0534353,-17.8473282,-16.2824421
2690,-0.3495516,0.3974355,10.0747490,-0.5572519,2.8244274,-2.1297710,-9.7467451,0.8858501,6.5696559,-5.1297708,-23.7404575,-15.8396950
2700,-0.5099624,0.3734936,10.0891142,1.4580153,1.7175573,-1.9160305,-9.6246414,0.8858501,6.6773944,-4.4885497,-30.4656487,-17.6030540
2710,-0.6105183,0.3543400,10.0627785,3.2977099,0.7175573,-1.4274809,-9.6414013,0.6967092,6.8234401,-4.0992365,-40.2061081,-20.1374054
2720,-0.6464311,0.4333483,9.9263096,4.2137403,-0.3129771,-0.5419847,-9.5121145,0.7541697,6.8737178,-3.6488550,-50.4122124,-23.0916023
2730,-0.6440369,0.4908088,9.7826586,3.8778627,-0.4580153,0.1221374,-9.5216913,0.7757174,6.9431496,-3.4503818,-60.5877876,-24.2519093
2740,-0.6416427,0.6991033,9.8377247,1.5190840,-0.2671756,-0.5496183,-9.0308828,0.6416427,6.9886389,-0.0152672,-72.0000000,-22.7862587
2750,-0.6799498,0.7398046,9.9095497,1.1908396,-0.8549618,-0.3816794,-8.9063845,0.5817881,6.9359670,2.8167939,-67.0457993,-20.4656487
2760,-0.6919208,0.6464311,9.8975792,0.9236641,-1.7328244,-0.1908397,-8.9470863,0.4261657,6.7683735,5.2366414,-60.5190849,-17.5038166
2770,-0.6272776,0.4716553,9.8137827,1.1984733,-2.1450381,3.9618320,-10.4099360,0.3160330,7.0125809,-1.9618320,-62.3511467,-4.1297708
2780,-0.4548960,0.4118006,9.9430685,1.3893130,-2.4809160,5.2824426,-11.7051926,-0.2059003,7.4148049,-5.7328243,-65.8244247,7.1068702
2790,-0.3495516,0.3926471,9.9741936,1.7328244,-3.3206108,4.8167939,-12.9860840,-0.1149211,7.6973190,-9.1679392,-49.1145020,20.8091602
2800,-0.1628049,0.4141948,9.9574337,2.0992367,-3.7099237,3.7099237,-14.3268299,0.0119709,8.2120695,-12.8320608,-29.2366409,44.9618340
2810,-0.1699875,0.4094064,9.9789820,3.0458016,-4.0152674,2.5190840,-14.9301653,-0.0622489,8.9351149,-15.4885492,-16.9236641,73.6946564
2820,-0.0766141,0.5051740,9.9861641,3.5954199,-4.3740458,1.0687023,-15.4808292,-0.3471575,9.6270361,-15.3969469,-14.5648851,98.5343475
2830,-0.0407012,0.4381367,9.8927908,3.9236641,-3.9236641,-0.7251908,-16.0362816,-0.4979914,10.6014709,-11.8396950,-17.0229015,120.6412201
2840,-0.0766141,0.4548960,9.8520899,4.0305343,-3.5038168,-2.1603053,-16.7186241,-1.0558375,10.8935623,-4.1603055,-21.1145039,147.6946564
2850,-0.1221037,0.5410868,9.7898407,3.7404580,-2.4351146,-3.8778627,-17.0083218,-1.6759326,11.2167778,5.4427481,-20.0305347,176.4732819
2860,-0.2154770,0.6440369,9.7228031,3.2595420,-2.4274809,-5.2137403,-17.7624912,-1.4963684,11.6644907,17.4427490,-22.0229015,206.0839691
2870,-0.2082945,0.5219333,9.7467451,2.6946564,-2.9541984,-6.3206105,-18.2963963,-1.4820032,11.9015160,30.7099228,-32.9541969,241.2977142
2880,-0.2489957,0.5746055,9.9239149,2.8091602,-3.1374047,-6.0534353,-17.4775829,-1.9967541,11.4585905,44.5801544,-39.4809151,250.1297760
2890,-0.1484398,0.6488253,9.9598284,3.1374047,-1.9083970,-6.5496182,-15.2150736,-2.6743097,11.1521349,56.9465637,-21.2442741,250.1297760
2900,-0.4668669,0.4836263,9.7706871,3.3435113,-2.2900763,-7.3893127,-13.4744978,-2.9975252,11.0731258,71.1603088,14.2824430,250.1297760
2910,-0.5530578,0.4740495,9.9095497,5.2366414,-2.6335878,-6.5190840,-12.3923244,-3.1579359,10.8600435,87.6106873,47.9771004,250.1297760
2920,-0.5434810,0.4213773,9.9191265,5.4656487,0.1984733,-5.6412215,-10.9965124,-3.4667864,10.2614956,107.5190811,68.0916061,250.1297760
2930,-0.5506636,0.5219333,9.7635050,4.0305343,1.8702290,-4.4351144,-8.7770987,-3.7181761,9.1793222,123.8244247,78.0305328,250.1297760
2940,-0.5458752,0.7086801,9.7587166,2.6259542,4.0076337,-3.2519083,-6.6031747,-3.6774750,7.0820122,133.1068726,86.6488571,250.1297760
2950,-0.5243275,0.7852941,9.7587166,0.9770992,3.6259542,-2.3664122,-4.9511838,-3.2704628,4.7141590,131.1908417,101.0763321,250.1297760
2960,-0.6200951,0.7733232,9.7371683,-1.6183206,3.8091602,-1.6717557,-3.5721307,-3.2034254,2.7461352,117.5572510,112.4274826,250.1297760
2970,-0.7589580,0.7398046,9.8018112,-2.7099237,4.6183205,-1.1755725,-1.5921360,-3.1675127,1.4125718,94.4580154,145.8167877,250.1297760
2980,-0.8092360,0.8427547,9.9789820,-2.7557251,4.0916033,0.2977099,-0.3471575,-3.1028695,1.6232605,68.6488571,194.7786255,250.1297760
2990,-0.7517755,0.8236012,10.0101061,-1.4274809,3.3511450,1.6641221,0.3112446,-2.7796540,3.5577655,48.3893127,236.9847260,250.1297760
3000,-0.7996593,0.7589580,9.9263096,-1.0534351,2.5190840,3.3816793,1.3120158,-2.8562679,5.4228392,37.0000000,250.1297760,250.1297760
3010,-0.7230452,0.7230452,9.7754755,-1.2519084,2.2671757,5.1297708,2.9209111,-3.0597742,7.0269461,34.0992355,250.1297760,250.1297760
3020,-0.6081241,0.6512195,9.6509781,-2.1908398,2.7175572,6.8396945,4.7764082,-3.4619980,8.0061693,37.1374054,226.6030579,250.1297760
3030,-0.4165890,0.6631905,9.6773138,-4.1450381,3.9847329,7.8396945,6.7971039,-3.8378856,8.2120695,44.1679382,191.0915985,250.1297760
3040,-0.2753318,0.4788379,9.8544836,-6.0381680,6.3740458,7.5114503,8.8680773,-3.8139439,7.4459291,52.4809151,160.3129730,250.1297760
3050,-0.1939293,0.4189832,9.9550400,-6.3511453,6.1374044,6.1679387,10.4338779,-3.3590479,7.1873569,59.3206100,134.3969421,250.1297760
3060,-0.2154770,0.3974355,10.0699606,-5.9236641,4.9694657,4.6183205,13.1249466,-2.8012016,6.4188218,66.9160309,106.2519073,250.1297760
3070,-0.2274480,0.4429250,10.0125008,-4.8244276,3.0916030,3.1679389,16.7138367,-1.9776005,5.1882086,71.4503784,66.6335907,242.3969421
3080,-0.3950413,0.4022238,9.9502516,-3.7938931,2.6870229,1.6106870,19.6126022,-0.9193687,3.2273674,66.8015289,25.8473282,167.0076294
3090,-0.5123565,0.4979914,9.9885588,-3.0152671,1.8091604,1.4809160,19.6126022,0.4046180,1.3934183,48.9847336,-0.2137405,73.0229034
3100,-0.6655847,0.5698171,9.9215212,-2.3893130,1.7022901,2.0229008,19.6126022,1.6280488,0.5554519,21.5648861,-12.5190840,-31.8702297
3110,-0.6679789,0.6488253,9.9406748,-1.9618320,0.7633588,2.6183207,19.6126022,2.2888451,0.6727672,-7.6106873,-21.4809170,-141.8396912
3120,-0.6344602,0.8044477,9.8065996,-1.5190840,-0.1679389,2.9236641,19.6126022,2.0326669,1.6950861,-32.1908379,-32.1679382,-248.8778687
3130,-0.5889706,0.8810617,9.7994175,-1.7022901,-0.4656489,2.4427481,19.6126022,0.0143651,2.9161227,-49.5496178,-48.4580154,-250.1374054
3140,-0.5674229,0.8307837,9.8161764,-1.9236641,-2.0152671,1.1755725,19.6126022,-2.6168492,4.3789725,-59.3893127,-64.7251892,-250.1374054
3150,-0.4477134,0.7972651,9.8568783,-2.7099237,-1.8015267,0.2290076,17.9707851,-5.2791877,5.6814117,-63.4961815,-80.6106873,-250.1374054
3160,-0.5219333,0.7086801,9.7754755,-3.9618320,-1.1374046,-0.1679389,14.0514975,-8.2264347,6.6438756,-61.7938919,-90.1603088,-250.1374054
3170,-0.4692611,0.5458752,9.8161764,-5.2061067,0.2061069,0.2595420,10.3357162,-11.5687237,7.5943689,-52.9236641,-86.2442780,-250.1374054
3180,-0.4884146,0.4405309,9.8161764,-6.3282442,0.7251908,0.7938932,6.1602492,-14.6859579,8.4107876,-35.6870232,-67.4580154,-250.1374054
3190,-0.3734936,0.3782819,9.8209648,-7.7557254,2.9541984,1.6946565,-0.2011119,-18.1742916,8.9111729,-11.7175570,-65.6412201,-250.1374054
3200,-0.4285599,0.2346306,9.8161764,-9.5801525,6.3435116,3.7175572,-7.3956513,-19.6131992,8.8177996,15.1450386,-103.6641235,-250.1374054
3210,-0.3926471,0.1819584,9.9454632,-11.2290077,9.1832066,5.7099237,-15.8160152,-19.6131992,7.9080076,35.8396950,-191.3053436,-250.1374054
3220,-0.3710994,0.2059003,9.8065996,-12.2213745,11.1068707,7.1603055,-19.6131992,-18.3466740,6.4212160,27.7328243,-250.1374054,-250.1374054
3230,-0.3663110,0.2729376,9.7778702,-12.6870232,11.7709923,7.3358779,-19.6131992,-15.0977583,5.5377603,-24.7251911,-250.1374054,-250.1374054
3240,-0.4932030,0.2370248,9.8640604,-12.8702288,13.4885492,6.0763359,-19.6131992,-9.2128410,7.6518297,-109.4580154,-250.1374054,-250.1374054
3250,-0.5746055,0.2968795,9.9358864,-12.2290077,12.5725193,4.4961834,-19.6131992,-3.0310438,13.4792862,-171.8778687,-250.1374054,-250.1374054
3260,-0.6607963,0.2896969,9.8616667,-11.8473282,11.7328243,4.0534353,-19.6131992,-2.0590029,19.6126022,-146.5648804,-55.9236641,-149.2519073
3270,-0.6823440,0.3567342,9.9406748,-11.7557249,11.6106873,4.5648856,-19.6131992,-2.9304879,19.6126022,-22.9694653,250.1297760,89.1450348
3280,-0.6967092,0.4165890,9.9478569,-11.0000000,12.8931293,4.6412215,-19.6131992,-1.0462608,19.6126022,112.8625946,250.1297760,214.8549652
3290,-0.8116302,0.5003856,9.8664551,-11.0992365,11.6870232,4.2900763,-13.1273403,-1.7238164,14.2502155,177.1221313,250.1297760,235.3664093
3300,-0.8236012,0.5722113,9.8640604,-11.1297712,12.3282442,4.4045801,-8.9494801,-2.4492557,10.3788109,189.4122162,250.1297760,180.3969421
3310,-0.9289455,0.5219333,9.7515335,-11.4732828,13.4122133,4.2442746,-7.6207051,-1.6495966,8.1139078,182.9389343,250.1297760,77.0076370
3320,-0.9624642,0.6033357,9.6270361,-12.8091602,12.2366409,3.9618320,-8.3461447,0.0359128,5.2408805,163.9541931,42.1526718,-35.9312973
3330,-0.9337339,0.5913648,9.5264797,-15.0458012,11.8015270,3.8320611,-10.4362717,1.4604555,2.8442972,128.7404633,-130.8625946,-112.5114517
3340,-0.8236012,0.4141948,9.6437950,-16.5572510,11.3053436,2.7175572,-12.3899307,2.5043221,1.1324517,85.1679382,-225.6793823,-140.8244324
3350,-0.8523315,0.3399749,9.6964674,-17.3282452,9.4809160,0.8549618,-13.1153698,3.4069316,0.7278336,46.4656487,-250.1374054,-137.3435059
3360,-0.7733232,0.2202654,9.7419567,-17.5877857,9.6870232,-0.4656489,-12.8927097,4.1371593,1.1611819,20.5801525,-250.1374054,-119.1221390
3370,-0.9050036,0.0718257,9.6198530,-19.1297703,11.1068707,-0.3511450,-11.6525202,4.0964580,1.6424140,7.1145039,-250.1374054,-96.2671738
3380,-0.9409165,0.0023942,9.5025377,-21.9618320,12.3893127,1.0992366,-10.7954006,3.7852135,1.6112895,4.2366414,-210.0610657,-73.8473282
3390,-1.0797794,-0.1149211,9.4642305,-25.2748089,14.7175570,4.2748094,-11.3580351,4.5010762,1.9512644,8.6412210,-122.0610657,-38.5954208
3400,-1.1180865,-0.2442073,9.5791521,-28.4274807,17.5190830,7.2900763,-11.3532467,4.5992379,2.0685797,16.0687027,-32.1526718,7.4885497
3410,-1.1683644,-0.4046180,9.7778702,-30.3511448,22.4809170,10.5190840,-9.8784256,3.9623835,1.9991482,18.3435116,27.6412220,44.7328262
3420,-1.7621235,-0.7158626,9.9239149,-31.4503822,28.5038166,17.0458012,-7.9846220,3.0310438,1.8722562,13.9923668,56.3969460,63.8625946
3430,-1.8650736,-0.4237715,9.6629486,-29.9465656,29.6335869,23.8473282,-6.7755561,2.4588325,1.9440818,5.8396945,70.6412201,69.2442780
3440,-1.8387375,-0.1699875,9.9598284,-27.8320618,21.1679382,24.4580154,-6.0165982,2.0949159,2.1811066,-3.0763359,80.5038147,67.5267181
3450,-1.4197544,-0.0981618,9.8975792,-23.8167934,12.0687027,21.1526718,-5.6670465,1.7693061,2.4660151,-11.0229006,81.6488571,60.6564903
3460,-1.6065011,-0.4884146,9.7778702,-20.1984730,5.4580154,19.4198475,-5.7149301,1.3575054,2.8203552,-17.9694653,73.3664093,48.3511467
3470,-1.5562232,-0.3782819,9.8281479,-19.7251911,-0.3893130,20.7557259,-6.0046272,1.4628497,3.3566537,-25.3664131,56.3816795,32.5801544
3480,-1.1827296,-0.1867468,10.1178446,-18.1526718,-0.1374046,20.9160309,-6.4571290,1.6256547,3.7469065,-33.8778610,32.0992355,16.5801525
3490,-0.9816177,-0.1412572,10.2638903,-14.6564884,0.7251908,18.8244267,-6.9263902,1.6543850,4.1922259,-40.7022896,4.0152674,4.0152674
3500,-0.8283895,-0.1244979,10.1848822,-11.1832066,-0.1984733,15.1679392,-7.2256637,1.5753766,4.7907729,-44.1526718,-22.2366409,-5.4961834
3510,-0.6440369,-0.1221037,9.9550400,-8.8167934,-1.6564885,11.6183205,-7.2519999,1.3958124,5.3510137,-44.5114517,-41.7862587,-12.5572519
3520,-0.4812321,-0.1316804,9.7251978,-7.1221375,-3.6259542,6.9389315,-7.3717093,1.2952565,5.7915444,-41.7022896,-55.1984749,-18.6717548
3530,-0.3303981,-0.0814024,9.8449068,-6.1068702,-4.5267177,1.6412214,-7.3884687,1.1899122,6.1458845,-37.1908379,-65.3664093,-24.2290077
3540,-0.2106887,-0.1388630,10.0651722,-5.0381680,-4.4427481,-4.3664122,-7.3717093,1.1683644,6.2344694,-31.5801525,-73.3435135,-28.0687027
3550,-0.4716553,-0.2106887,10.0723553,-3.3129771,-3.1984732,-9.4122133,-7.2041159,1.1276633,6.2895355,-26.1832066,-78.0000000,-31.4198475
3560,-0.7110743,-0.3950413,10.0555954,-1.1526718,-3.7099237,-12.9236641,-7.1945391,1.1970947,6.2129216,-21.6793900,-79.6564865,-33.6793900
3570,-0.9169745,-0.5123565,10.0939026,1.4198474,-5.9007635,-15.4732828,-7.4100165,1.1444225,6.1865854,-17.6488552,-77.6488571,-35.5572510
3580,-1.1827296,-0.6129125,10.1705170,4.0839696,-9.1297712,-16.8702297,-7.6877422,1.1252691,6.0908179,-14.6106873,-74.0610657,-33.6717567
3590,-1.2880739,-0.5003856,10.1633339,5.0000000,-15.7862597,-17.1603050,-7.7523856,1.1563935,5.8873119,-12.5725193,-66.5954208,-31.8625946
3600,-1.1348459,-0.8666966,10.3979645,8.9236641,-17.9847336,-18.5725193,-7.7978749,1.1611819,5.7652082,-12.1832066,-55.7251892,-27.7862587
3610,-1.3144100,-0.6799498,10.5009146,15.3206110,-19.9541988,-18.1832066,-7.9319496,1.1875180,5.5281835,-13.2900763,-45.4198456,-23.6564884
3620,-1.4029950,-0.5650287,10.4745789,21.0763359,-22.3511448,-15.4122133,-8.1450329,1.2449785,5.3007355,-16.9389305,-44.2977104,-20.4045811
3630,-1.2377959,-0.5434810,10.5248566,27.1755733,-26.4503822,-12.7938929,-8.8345594,1.4724265,5.2743993,-25.7328243,-56.7786255,-20.0763359
3640,-1.0486550,-0.5075682,10.6038647,34.2366409,-30.8931293,-12.1145039,-12.2055779,1.7190280,4.9128766,-64.1450348,-165.0915985,-39.8549614
3650,-0.9935886,-0.3950413,10.7570934,42.5725174,-35.6335869,-11.9694653,-13.8384151,0.5650287,6.6534524,-105.3053436,-250.1374054,-44.4122124
3660,-0.8930327,-0.4046180,10.8959560,51.7251892,-40.7251892,-11.8702288,-11.4873209,-0.1077385,8.7531567,-113.2824402,-250.1374054,-32.0687027
3670,-0.8834559,-0.2585725,10.5631638,60.4351158,-39.0305328,-10.4580154,-7.2711535,0.3543400,10.1441803,-93.6717529,-250.1374054,-23.8854961
3680,-1.0989330,-0.0646431,10.0915089,64.8015289,-41.7862587,-6.8931298,-4.0318151,0.7398046,10.1585455,-63.6641235,-250.1374054,-32.3816795
3690,-0.9840119,0.0837966,9.5671806,63.4503822,-43.3893127,-3.8015268,-2.9376705,0.3734936,9.3995876,-38.9389305,-219.5419922,-50.7633591
3700,-0.8020535,0.2418131,9.0955257,56.5267181,-42.5343513,-1.3206106,-4.1036406,-0.3303981,8.6047173,-26.5954189,-181.7404633,-62.7633591
3710,-0.5530578,0.4309541,8.7818871,45.6259537,-33.3053436,-0.1832061,-6.1746144,-0.2178712,8.3054428,-25.7633591,-131.0305328,-61.1526718
3720,-0.3902529,0.6033357,8.5137377,31.9389305,-24.4351139,0.7862595,-8.1737623,0.0766141,8.9303265,-31.0305347,-80.6488571,-44.0687027
3730,-0.3806761,0.7421987,8.5089493,18.7709923,-14.9160309,2.4656489,-8.5879574,-0.1819584,9.6629486,-35.3511467,-38.4198456,-20.2442741
3740,-0.2011119,0.7972651,8.7148495,8.4122133,-7.6641221,3.7557251,-7.3094602,-0.4836263,10.3716288,-32.7862587,-10.8396950,-2.0229008
3750,0.0287303,0.8523315,9.4618368,-4.7709923,0.9007633,2.2061069,-5.0493455,-0.7445929,10.8217363,-9.4885492,14.3129768,7.0534353
3760,0.1268920,0.8307837,9.8137827,-6.4274807,2.3053436,0.0992366,-4.7883787,-0.8259954,10.6158361,3.0534351,15.8473282,3.7480917
3770,0.0454896,0.7661406,9.9215212,-6.2213740,2.4732823,-1.5114504,-4.6183915,-0.7421987,10.1920643,12.8931293,12.9083967,-1.3282443
3780,-0.0119709,0.7733232,10.0436249,-5.3893127,2.0000000,-2.8473282,-4.5441718,-0.5410868,9.7467451,19.7404575,11.3969469,-7.2671757
3790,-0.0742199,0.6655847,9.9191265,-4.9160304,2.3358779,-3.4427481,-4.9487896,-0.3519458,9.0979195,23.7404575,12.8320608,-12.9923668
3800,-0.2154770,0.5913648,9.8927908,-4.6564884,3.1526718,-3.4351146,-5.5329719,-0.2202654,8.7244263,25.6412220,14.5725193,-17.9160309
3810,-0.4070122,0.5362985,9.9310980,-4.6564884,3.3282442,-2.8702290,-6.2631998,-0.1125269,8.5759869,26.1679382,18.9083977,-20.6259537
3820,-0.5339043,0.4548960,9.9119444,-4.3053436,3.7099237,-1.7786260,-7.0724359,0.1819584,8.4036045,26.3816795,25.9312973,-20.6030540
3830,-0.6320660,0.4836263,9.9789820,-4.0610685,2.7480917,-0.1068702,-8.1378498,0.2466015,8.2647419,26.6412220,36.2671738,-16.7175579
3840,-0.5267217,0.4477134,9.9526453,-3.1984732,0.4351145,1.1297710,-9.3062143,0.2585725,8.3174143,25.3587780,56.3511467,-7.1603055
3850,-0.4955972,0.5434810,9.9358864,-2.8549619,0.5572519,1.3664122,-10.0795374,0.1508339,8.3988171,23.0992374,86.9618301,8.1984730
3860,-0.4979914,0.5386927,9.9382801,-2.5496182,-0.7404580,1.5801526,-10.6709023,-0.0359128,8.5352850,17.9770985,123.8167953,25.3129768
3870,-0.4644727,0.5889706,9.7826586,-2.5572519,-0.7709923,1.9389313,-11.9446115,-0.2130829,9.0500364,10.5496187,155.1450348,43.4961815
3880,-0.3184272,0.5769997,9.8736372,-2.9007633,-0.4656489,2.0305343,-13.8886929,-0.3806761,9.6725254,0.6412213,168.6030579,61.0763359
3890,-0.2825144,0.5698171,9.9047613,-3.1984732,-0.1297710,2.2442749,-16.7401733,-0.5027798,10.8049774,-8.8167934,161.3435059,78.0229034
3900,-0.2106887,0.5698171,10.0005293,-3.2519083,0.2290076,1.8625954,-19.3977222,-0.6512195,11.8249016,-14.7099237,132.2900696,99.4274826
3910,-0.2202654,0.4740495,9.9478569,-1.9541985,-0.8625954,1.4656489,-19.6131992,-1.0845678,12.8496151,-14.9083967,89.6717529,127.4885483
3920,0.0047884,0.4477134,9.8544836,-2.1374047,0.7557252,-0.7175573,-19.6131992,-1.8147956,13.6253319,-8.8473282,47.5267181,160.6488495
3930,-0.0957676,0.4477134,9.8209648,-4.8702292,1.3053435,0.5801527,-19.6131992,-2.3271523,14.0275564,0.9160305,18.6641216,194.6335907
3940,-0.0814024,0.4381367,10.2447367,-1.6183206,-0.6412213,-2.1908398,-19.6131992,-2.9496415,14.4800577,15.0000000,-0.6641222,226.3129730
3950,-0.2322364,0.4932030,10.4506369,2.5572519,-3.0610688,-4.0381680,-19.2229462,-3.1315999,14.6452570,36.5877876,-16.0687027,250.1297760
3960,-0.4740495,0.4596844,10.1848822,3.1221373,-4.3740458,-2.7175572,-17.4847660,-3.2632802,14.4680872,61.4503822,-25.1984730,250.1297760
3970,-0.4932030,0.3447633,9.8425131,3.7862597,-5.1221375,-1.7862595,-15.9046001,-3.5026991,13.7426472,86.9007645,-28.1908398,250.1297760
3980,-0.4141948,0.5746055,9.7946291,4.4503818,-5.3053436,-1.2366412,-14.4130201,-3.5074875,13.1105814,108.8091583,-22.6259537,250.1297760
3990,-0.4309541,0.7230452,9.7132263,3.4427481,-3.3206108,-1.1145039,-12.4066896,-3.3135581,12.6006193,128.8015289,-19.7938938,250.1297760
4000,-0.2968795,0.6967092,9.7826586,1.7557251,-3.2442749,-0.9465649,-10.0412302,-3.4931223,11.9853125,149.9389343,-20.1526718,250.1297760
4010,-0.1508339,0.7876883,9.8257532,1.7251909,-2.9618320,-2.2442749,-7.8289995,-3.5386121,11.1401634,172.3435059,-19.4961834,250.1297760
4020,-0.0311245,0.8116302,9.8401184,0.8625954,-1.9847329,-3.6183207,-5.7628140,-3.6056492,9.7180147,194.5725250,-15.0763359,250.1297760
4030,-0.0837966,0.6464311,9.8305416,1.0610687,-1.8931298,-4.2671757,-4.0222383,-3.6367738,7.8816719,213.8931274,-6.8549619,250.1297760
4040,-0.1819584,0.4764437,9.9526453,2.0916030,-2.7709923,-4.0229006,-1.7238164,-3.4548154,5.5257893,225.7786255,12.7328243,250.1297760
4050,-0.1651991,0.3998296,9.8712435,1.7251909,-2.8167939,-3.6793892,0.5602403,-3.0118904,3.4236910,228.7480927,42.5190849,250.1297760
4060,-0.2561783,0.3830703,9.9239149,1.5801526,-2.7557251,-3.5038168,2.4564383,-2.7581062,1.6926919,222.3358765,85.4961853,250.1297760
4070,-0.2106887,0.4165890,9.8712435,1.8167939,-2.9541984,-2.8625953,3.6176202,-2.2960277,0.8236012,209.1221313,137.7099304,250.1297760
4080,-0.2896969,0.4213773,9.8305416,0.9618320,-2.1755726,-1.8167939,4.5369892,-1.8890154,0.6344602,194.7786255,181.6564941,250.1297760
4090,-0.1819584,0.4740495,9.8520899,-0.2824427,-0.5419847,-0.9236641,5.8513989,-1.7381816,1.0031654,180.2137451,210.7175598,250.1297760
4100,-0.1771700,0.5171449,9.8353300,-0.8549618,0.2519084,-0.4198473,7.3788919,-1.5107336,1.1994889,165.6106873,214.2671814,250.1297760
4110,-0.1244979,0.5698171,9.8856087,-1.0687023,0.3282443,-0.2213740,8.6813307,-1.2665262,0.8547257,150.4732819,195.5648804,250.1297760
4120,-0.0957676,0.6751614,9.9239149,-1.2671756,1.9083970,-0.1068702,9.3947992,-0.9217629,-0.0790083,130.4351196,158.9618378,250.1297760
4130,-0.2729376,0.6344602,9.8544836,-1.0839695,1.5648855,-0.2748092,9.1338329,-0.4046180,-1.4101776,104.2137375,108.5496216,250.1297760
4140,-0.5530578,0.6895266,9.8353300,-2.1984732,1.5038168,2.5725191,6.9934273,0.6320660,-5.8537931,-31.3969460,41.9083977,208.1297760
4150,-0.5219333,0.6943150,9.7850523,-3.1450381,1.6335878,3.3435113,9.2703018,0.9911944,-2.3199697,-68.5419846,77.2977066,205.0610657
4160,-0.3926471,0.6823440,9.6964674,-3.6946564,1.4580153,3.5954199,12.2797976,1.1707586,1.4149660,-79.7480927,95.4809189,181.8854980
4170,-0.3351865,0.7781116,9.7946291,-4.2519083,1.9389313,3.6030533,16.2780933,1.1731528,4.5441718,-68.1984711,93.1755753,135.4045868
4180,-0.2202654,0.6272776,9.8927908,-5.8320613,2.0305343,2.6030533,19.6126022,0.9217629,4.2209558,-50.8320618,46.4351158,-19.7404575
4190,-0.2561783,0.6584021,9.9215212,-5.6335878,1.9389313,1.9618320,19.6126022,0.8930327,4.3215117,-50.9771004,11.1221371,-116.3435135
4200,-0.2322364,0.5434810,9.9526453,-5.4656487,1.6106870,1.6030535,19.6126022,1.0941446,4.5585365,-45.6259537,-2.2977099,-214.4351196
4210,-0.1771700,0.4716553,10.0125008,-5.4351144,2.0839694,2.2366412,19.6126022,0.8786675,5.1092005,-34.7633591,-8.3435116,-250.1374054
4220,-0.1268920,0.4812321,9.8784256,-4.8396945,2.4732823,1.2977099,18.3777981,-0.2825144,4.7117648,-22.0305347,-10.9389315,-250.1374054
4230,-0.0598547,0.4668669,9.9933472,-4.0992365,1.8854961,-0.2748092,14.5303354,-1.4245427,3.8378856,-11.3893127,-24.0000000,-250.1374054
4240,-0.1843526,0.4405309,9.9287033,-3.7404580,2.2213740,-0.0992366,9.4714136,-2.4827745,2.5833304,-9.5954199,-53.9083977,-250.1374054
4250,-0.2322364,0.3950413,9.8496952,-4.4885497,3.3435113,0.9847328,5.3869262,-3.5457945,1.6256547,-24.8931293,-96.5954208,-250.1374054
4260,-0.1508339,0.4213773,9.9358864,-4.4122138,3.4122138,0.5343512,3.0142846,-5.3390427,1.0007712,-57.7099228,-129.9541931,-250.1374054
4270,-0.1292862,0.5626345,10.0268650,-3.2213740,2.5725191,-1.5496184,2.0805507,-8.7938576,1.8722562,-95.6183243,-127.0381699,-250.1374054
4280,-0.2106887,0.5291159,10.0340481,-1.8015267,2.2442749,-2.1068702,0.6536137,-12.9525652,3.7780309,-121.4885483,-89.1297684,-250.1374054
4290,-0.2896969,0.5171449,9.9406748,-1.9465649,2.4427481,-1.1068702,-4.3741841,-17.5733509,5.8801293,-120.6412201,-58.4274826,-250.1374054
4300,-0.2537841,0.5027798,9.7419567,-2.8396947,3.0763359,-1.3282443,-11.0827026,-19.3522339,7.6638002,-99.5419846,-65.4427490,-250.1374054
4310,-0.3351865,0.5243275,9.6485834,-4.2366414,4.5877862,-1.9007634,-19.6131992,-19.4887028,9.5384512,-77.1068726,-121.1221390,-250.1374054
4320,-0.4118006,0.5722113,9.5863342,-6.9465647,7.0992365,-1.1755725,-19.6131992,-14.1616306,11.8320847,-66.9236679,-250.1374054,-250.1374054
4330,-0.5458752,0.5243275,9.6198530,-10.3053436,8.2900763,0.1145038,-19.6131992,-7.5369086,12.9669304,-95.6412201,-250.1374054,-250.1374054
4340,-0.4908088,0.5075682,9.7754755,-12.7633591,9.5267172,0.8549618,-19.6131992,-2.6910689,14.8296099,-163.1603088,-250.1374054,-250.1374054
4350,-0.4692611,0.4453192,9.8856087,-13.6106873,9.6106873,0.9770992,-19.6131992,-1.5921360,18.2485123,-215.5038147,-250.1374054,-250.1374054
4360,-0.6105183,0.3567342,9.8688488,-13.4351149,8.7022905,1.4045801,-19.6131992,-3.5888901,19.6126022,-186.0534363,-250.1374054,-113.2366409
4370,-0.5099624,0.3375807,9.9933472,-14.3511448,8.1374044,2.7099237,-19.6131992,-3.5266411,19.6126022,-53.3206100,-52.5496178,77.0000000
4380,-0.4836263,0.3399749,9.8975792,-14.8396950,10.3587790,3.4503818,-19.6131992,-1.7333932,19.6126022,84.7328262,250.1297760,217.9847260
4390,-0.3639168,0.3639168,9.6725254,-15.6106873,11.4198475,3.7328243,-18.3993454,-2.2002602,15.2940826,144.9084015,250.1297760,250.1297760
4400,-0.3375807,0.3423691,9.7467451,-15.8473282,12.3511448,2.8091602,-12.8017311,-1.7429699,10.8696203,135.6793823,250.1297760,250.1297760
4410,-0.3926471,0.3016679,9.9406748,-16.2290077,11.9312973,1.6564885,-8.6645718,-1.0366840,9.5192976,100.5038147,250.1297760,250.1297760
4420,-0.4596844,0.2849085,9.8903971,-16.5648861,12.3435116,1.1297710,-5.0373745,-0.2298422,9.2774839,72.3435135,250.1297760,247.1145020
4430,-0.5602403,0.1101327,9.8353300,-17.5648861,13.4274807,1.5038168,-2.4875629,0.5147507,9.0117292,58.4351158,218.8702240,167.3053436
4440,-0.6272776,0.1149211,9.8329363,-18.5496178,13.9160309,1.6335878,-1.4101776,1.1683644,8.1306677,53.3587799,90.0152664,90.7709961
4450,-0.5889706,0.1149211,9.7994175,-18.8320618,13.6717558,1.4656489,-1.4580613,1.8746504,6.9359670,50.3893127,-3.1297710,27.0381680
4460,-0.6560079,0.0239419,10.0101061,-17.8091602,12.4961834,1.5190840,-2.0135133,2.4085546,6.0764527,48.8625946,-62.3740463,-19.4809170
4470,-0.6679789,-0.0191535,10.0532017,-15.9618320,10.4961834,1.0534351,-2.8826041,2.6000898,5.1762376,48.9007645,-100.1450348,-52.1374054
4480,-0.7541697,-0.0646431,10.2902260,-13.1603050,8.0076332,1.1221374,-3.6942344,2.7269819,4.3550305,52.1984749,-115.8549652,-72.5267181
4490,-0.7445929,-0.0981618,10.3405046,-9.3893127,5.6717558,0.7633588,-4.5178356,3.0334380,3.6798692,56.1603050,-115.6564865,-83.7709961
4500,-0.7398046,-0.0574605,10.2614956,-5.2748094,3.2900763,0.9236641,-5.6215568,3.1675127,2.9304879,57.9694672,-106.0381699,-88.4580154
4510,-0.7254394,-0.1149211,10.2543135,-1.3435115,0.9160305,1.3282443,-6.8401995,3.4093258,2.3343346,57.1832047,-82.1221390,-83.4503784
4520,-0.6296718,-0.0430954,10.1585455,1.8702290,-1.4580153,0.9007633,-8.3916340,3.4979107,2.1284344,55.8167953,-50.4427490,-69.2900772
4530,-0.6200951,-0.0407012,10.1010857,4.6946564,-2.9236641,0.1526718,-9.6198530,3.4931223,1.9776005,54.4045792,-20.4885502,-49.9160309
4540,-0.6368544,-0.0311245,10.0244713,6.8549619,-4.1221375,-0.8473282,-10.1872759,3.3063757,1.6902977,49.5572510,4.5572519,-29.0610695
4550,-0.5793939,-0.0047884,9.8401184,7.8091602,-4.4351144,-1.6793894,-10.1130562,2.8012016,1.5131277,40.0916023,24.6488552,-11.6946564
4560,-0.5817881,0.0239419,9.7563219,8.1145039,-4.6793895,-1.8931298,-9.7706871,2.4899571,1.5394639,26.8702297,39.4503822,0.9160305
4570,-0.5865764,0.0718257,9.6940727,7.1374044,-4.2213740,-2.2519083,-9.3349447,2.3151813,1.9081690,10.9847326,47.1374054,8.0381680
4580,-0.5698171,0.1436514,9.7299862,4.1984735,-2.4351146,-2.7480917,-8.3557215,1.9273225,2.9544299,-18.2213745,30.0610695,10.8625956
4590,-0.6200951,0.0526722,9.7563219,2.5801528,-1.0152671,-3.2748091,-7.0604649,1.2186425,4.3358769,-35.6717567,-1.1145039,-0.5801527
4600,-0.7374104,0.1268920,9.7874460,1.3511450,-0.5190840,-2.4427481,-6.4355812,0.9888002,5.1139889,-39.9465637,-13.9312973,-11.0305347
4610,-0.7972651,0.0718257,9.7563219,0.3740458,-0.1755725,-1.8244275,-6.0908179,0.8355721,5.6885943,-40.7099228,-23.4427490,-21.9541988
4620,-0.8882443,0.0383070,9.7778702,-0.5496183,-0.0610687,-1.0687023,-6.1889796,0.6153067,6.1770086,-38.2061081,-31.2290077,-31.8931293
4630,-0.8690908,0.1005560,9.7922344,-1.1068702,-0.1374046,-0.0381679,-6.4116392,0.4309541,6.6079631,-33.8473282,-38.4427490,-40.9160309
4640,-0.8643024,0.0502780,9.7802639,-2.0305343,-0.2977099,1.0687023,-6.6630292,0.3423691,6.8042865,-28.9465656,-47.2061081,-49.1374054
4650,-0.8259954,0.0885850,9.7682934,-3.1297710,0.0839695,1.7786260,-7.0437055,0.2298422,7.1203194,-24.2824421,-55.7938919,-55.6183205
4660,-0.7661406,0.0478838,9.8856087,-3.4122138,0.1908397,2.3969467,-7.4315639,0.1843526,7.2783360,-19.7022896,-62.2519073,-60.7480927
4670,-0.6919208,0.0311245,9.9215212,-4.0916033,0.4045801,2.9770992,-7.8146343,0.2011119,7.3142486,-14.3587790,-67.0076370,-62.8549614
4680,-0.6775556,-0.0383070,9.9430685,-3.7862597,0.8625954,3.0076337,-8.2024927,0.2825144,7.1993275,-8.9923668,-69.5572510,-62.9618340
4690,-0.7421987,-0.0287303,9.9813757,-3.6488550,0.7099237,3.8549619,-8.3868456,0.3256098,6.9048424,-4.0916033,-68.2290039,-60.9389305
4700,-0.7541697,-0.0478838,9.8640604,-3.5877862,1.3206106,5.1526718,-8.4610653,0.2370248,6.7755561,-0.9312977,-63.7251892,-59.2061081
4710,-0.7374104,-0.0430954,9.8640604,-4.0610685,3.0229008,5.8244276,-8.5209198,0.3447633,6.3015065,0.4656489,-55.8396950,-56.1908379
4720,-0.6416427,-0.0143651,9.8137827,-4.8167939,3.6870229,6.4045801,-8.7196379,0.3830703,6.2344694,-0.4732825,-48.1145020,-52.3129768
4730,-0.4477134,0.0143651,9.7898407,-4.8167939,3.5343511,5.9541984,-8.9111729,0.5650287,6.0956063,-2.9236641,-42.2366409,-48.6793900
4740,-0.3232156,-0.0383070,9.9598284,-4.1526718,3.6641221,4.3435116,-8.8680773,0.6081241,6.1506729,-6.7022901,-38.2977104,-44.6030540
4750,-0.2178712,0.0574605,9.9909525,-3.6870229,3.5572519,1.9694656,-8.7004843,0.5602403,6.1123657,-10.2671757,-34.3664131,-40.8778610
4760,-0.3064562,0.0000000,9.9454632,-3.0381680,3.8931298,0.1526718,-8.3293848,0.4022238,6.1650376,-13.0229006,-28.3969460,-39.0076332
4770,-0.3998296,-0.0095768,9.9095497,-2.4122138,3.9465649,-1.0000000,-7.9678626,0.1939293,6.2440462,-14.9770994,-19.5496178,-40.5801544
4780,-0.6153067,-0.0071826,9.8329363,-2.2748091,3.2595420,-1.6259542,-7.9798336,0.1699875,6.2224984,-18.2595425,-12.2900763,-43.6030540
4790,-0.8331779,0.0550664,9.9143381,-1.7786260,3.2519083,-1.9083970,-8.3916340,0.2346306,6.2967181,-24.5190830,-9.7862597,-46.1297722
4800,-0.8595140,0.1149211,9.8568783,-2.0839694,3.0305343,-1.9923664,-8.8992023,0.2322364,6.7324610,-31.6488552,-9.7480917,-47.9160309
4810,-0.9792235,0.2130829,9.8568783,-1.5877863,2.6335878,-1.6259542,-9.1170731,0.1651991,7.1203194,-36.4961815,-14.4732828,-47.6717567
4820,-1.0318956,0.2920911,9.8736372,-0.7404580,1.9465649,-1.5190840,-9.0093346,-0.1364688,7.5416965,-38.7557259,-21.1297703,-49.1068687
4830,-1.1563935,0.2609667,9.8473015,-0.0229008,-0.1374046,-0.8396947,-8.5568333,-1.1420283,7.9343438,-36.1832047,-30.0763359,-55.8091621
4840,-1.0845678,0.2106887,9.8257532,0.3664122,-1.8625954,0.2137405,-7.6829538,-1.7525467,8.6190825,-28.6335869,-33.2442741,-67.6641235
4850,-0.9648584,0.2346306,9.8616667,0.4198473,-1.7328244,0.9541985,-7.7404146,-1.6208663,10.1992474,-14.0000000,-17.2671757,-83.3511429
4860,-0.8978211,0.1604107,9.8520899,0.1145038,-1.6030535,1.0610687,-8.9207497,-1.5849534,11.2359314,13.8396950,-12.8091602,-91.9694672
4870,-0.8331779,0.0909792,9.7323799,-0.4580153,-1.6717557,1.4503816,-10.5248566,-1.4101776,11.3580351,44.6870232,-15.6030531,-93.6259537
4880,-0.7709290,-0.0071826,9.8018112,-1.4198474,-1.5801526,1.4351145,-12.3109226,-1.0534433,10.9246864,68.9236679,-22.2595425,-86.2824402
4890,-0.7350162,-0.0478838,9.8880024,-2.1450381,-1.0610687,1.5801526,-13.7330704,-0.8355721,10.0603838,84.1297684,-35.2442741,-69.8167953
4900,-0.6655847,-0.0837966,9.7994175,-2.8778627,-1.4351145,1.8778626,-14.4369621,-0.5985473,8.9494801,90.7022934,-50.0916023,-47.8778610
4910,-0.5746055,-0.2681492,9.8401184,-2.9694657,-1.3969465,1.9160305,-14.1424770,-0.5626345,8.0564480,94.2519073,-58.7480927,-23.6870232
4920,-0.5027798,-0.4046180,9.8568783,-3.0000000,-2.1832061,2.0610688,-13.7067347,-0.5865764,7.2160869,91.1374054,-58.1068687,-2.0992367
4930,-0.3327923,-0.3687052,9.9694052,-2.7022901,-0.8015267,2.1603053,-13.6732159,-0.6607963,6.4140334,85.3358765,-46.4961815,19.7099228
4940,-0.3375807,-0.3974355,9.9717989,-2.7862597,0.7480916,2.4274809,-14.3747139,-0.6823440,6.0549049,74.7862625,-21.7022896,46.0839691
4950,-0.2896969,-0.2896969,9.9287033,-2.8931298,2.0076337,2.0534351,-15.3443604,-0.4692611,6.0142040,61.3740463,10.4503813,81.0916061
4960,-0.3998296,-0.2011119,9.8089943,-3.1679389,3.3129771,1.2290076,-15.8902349,-0.2298422,6.1961622,47.3511467,40.8167953,121.2748108
4970,-0.4620786,-0.2226596,9.7826586,-3.9541984,3.1526718,0.4580153,-16.3906212,0.1077385,6.8425937,33.6335869,58.3435097,161.2442780
4980,-0.5722113,-0.0502780,9.9215212,-4.0687022,2.2061069,-0.0305344,-16.4672356,0.2561783,7.8481531,21.7633591,63.1450386,200.8244324
4990,-0.6727672,0.0167593,9.9837704,-4.1145039,3.2671757,-0.4274809,-16.5893383,0.1244979,9.2870607,16.3282452,53.7480927,236.8778687
5000,-0.8643024,0.0861908,10.0220766,-3.2977099,3.9312978,-0.5343512,-16.4289284,-0.3280039,10.6876621,22.4885502,31.1068707,250.1297760
5010,-1.0055596,0.1340746,9.9047613,-2.5190840,3.8320611,0.1145038,-15.4425220,-1.1899122,11.7411051,42.5343513,-0.1984733,250.1297760
5020,-1.1563935,0.2274480,9.8377247,-2.1908398,3.1297710,0.7633588,-13.0315733,-2.1212518,11.5232334,70.0076370,-26.3740463,250.1297760
5030,-1.1156923,0.2059003,9.7515335,-2.1297710,2.4503818,1.0229008,-10.7163916,-2.9520357,10.8959560,98.5496216,-39.5572510,250.1297760
5040,-1.0773853,0.2346306,9.7371683,-2.2442749,3.2824428,1.3511450,-8.9638453,-2.9185169,10.0244713,127.7175598,-51.6335869,250.1297760
5050,-1.0486550,0.2418131,9.7275915,-2.7633588,1.2977099,1.3587786,-7.1131368,-2.7557120,8.7076674,153.2366486,-53.7557259,250.1297760
5060,-0.9050036,0.1029501,9.6605549,-3.4885497,0.5267175,0.8244275,-5.0254035,-2.5091105,6.8904772,173.5190887,-50.0152664,250.1297760
5070,-0.9528874,0.0837966,9.7922344,-4.3282442,0.7557252,0.9465649,-2.0518203,-1.8626794,5.0661049,185.8015289,-42.0534363,250.1297760
5080,-0.8930327,-0.0071826,9.8592720,-4.7557254,1.0534351,1.1526718,0.3112446,-1.0103480,3.1411765,185.0305328,-13.5648851,250.1297760
5090,-0.9217629,-0.2154770,9.8425131,-4.4732823,1.3816794,1.9923664,1.2258250,-0.2250538,1.5466464,174.4122162,20.5954189,250.1297760
5100,-0.7637464,-0.1843526,10.1130562,-3.5496182,-0.0305344,2.5267177,2.1188576,0.7876883,0.0023942,157.4961853,40.7480927,250.1297760
5110,-0.6751614,-0.2370248,10.0220766,-1.9770992,-0.5419847,2.3282442,3.2584918,1.7214222,-0.8140244,133.8015289,57.7786255,250.1297760
5120,-0.6177009,-0.2968795,9.9789820,-1.2442749,-0.6870229,2.0610688,3.6535332,2.4492557,-0.6751614,107.9770966,77.9389343,246.8167877
5130,-0.6033357,-0.2944853,9.8113880,-1.1908396,-1.0763359,2.2213740,3.9312592,3.0932927,-0.2489957,86.6717529,77.9465637,228.9160309
5140,-0.5339043,-0.2873027,9.7539282,-2.3435113,0.5572519,3.0534351,4.7045822,3.5074875,-0.2226596,68.4656525,49.6488533,206.3053436
5150,-0.5937590,-0.2370248,9.6102762,-4.3816795,1.9847329,2.6106870,5.6622581,3.6846576,-0.7493813,51.3206100,10.1450386,176.0686951
5160,-0.7398046,-0.2681492,9.7754755,-6.4427481,5.3664122,3.9007633,6.5744443,4.2568688,-1.7142396,32.1526718,-26.4732819,140.1603088
5170,-0.9026094,-0.2346306,9.8353300,-8.0000000,6.9465647,6.4656487,7.2711535,4.7979555,-2.7700772,11.0839691,-61.4427490,103.3053436
5180,-0.9313397,-0.2346306,9.9263096,-7.9007635,7.9770994,7.8625956,8.3126259,5.2313042,-3.8618276,-16.0076332,-92.2442780,66.8702316
5190,-0.9097920,-0.1053443,10.0603838,-6.1221375,6.8625956,7.4656487,9.1936874,5.3653784,-4.8434453,-50.6106873,-117.5038147,27.1145039
5200,-0.9169745,-0.1125269,10.0388365,-3.5725191,4.3816795,6.7633586,9.7419567,5.1355362,-5.4826937,-90.2213745,-136.5877838,-14.5267172
5210,-0.8523315,-0.0526722,9.9909525,-1.5419847,1.7175573,5.7862597,9.8281479,4.8745699,-5.2528515,-132.3206177,-144.1068726,-54.7557259
5220,-0.7876883,0.0430954,9.8473015,-1.0687023,0.5190840,4.6030536,9.3804340,4.5393834,-4.5154414,-172.2519073,-141.5954132,-91.3969498
5230,-0.7493813,0.0359128,9.7419567,-0.9618320,-0.0992366,3.0076337,8.4586716,3.9647777,-3.0765336,-205.8167877,-134.0992432,-124.7938919
5240,-0.8379663,0.0239419,9.7228031,-1.0534351,-1.0152671,1.9541985,8.1617918,3.3255291,-2.0206959,-232.6259613,-119.7022934,-151.3740387
5250,-0.8307837,0.0095768,9.9071560,-0.7099237,-2.4885497,1.2595420,8.4945841,2.3127871,-1.0295014,-250.1374054,-79.4122162,-178.0610657
5260,-0.8690908,-0.1268920,9.9310980,-1.2671756,-2.2061069,0.6793893,8.6789370,1.0702027,0.3854645,-250.1374054,-14.9770994,-209.1450348
5270,-0.8379663,-0.2106887,9.8113880,-1.8396946,-1.2748091,0.6946565,9.0404596,-0.3423691,1.5274929,-250.1374054,57.8167953,-250.1374054
5280,-0.7374104,-0.2082945,9.9526453,-1.7022901,-0.8549618,0.1068702,8.5688038,-1.7645177,2.5067163,-250.1374054,137.9160309,-250.1374054
5290,-0.7493813,-0.0574605,9.9454632,4.8702292,-4.2977099,-3.2824428,-14.3435888,2.2505381,1.3215926,44.7557259,141.7099304,103.2900772
5300,-0.5865764,-0.0694315,9.9454632,6.0458016,-4.5190840,-4.6030536,-10.2591019,3.7684543,1.3982066,7.2366414,148.5267181,101.1297684
5310,-0.5817881,0.0095768,9.8832140,6.5648856,-4.2213740,-5.0839696,-11.2287483,2.7030399,0.9768293,-7.1755724,113.5954208,96.7786255
5320,-0.5530578,0.0191535,9.8688488,6.6793895,-3.5877862,-5.9007635,-10.8863792,2.6575503,1.2761030,-23.0305347,72.3358765,98.2595444
5330,-0.5123565,-0.0287303,9.9861641,7.0076337,-4.1832061,-6.5343513,-10.0340481,2.7748656,2.0159075,-36.0152664,38.0228996,99.4580154
5340,-0.3734936,-0.0407012,10.1513634,8.1450386,-5.6946564,-8.0152674,-8.7651272,2.3822186,2.5953014,-42.4274826,11.9389315,97.9007645
5350,-0.3878587,-0.0526722,10.2064295,10.3969469,-6.6106873,-10.0458012,-7.2376347,2.0111191,3.0645626,-41.5496178,-5.7709923,92.2900772
5360,-0.5506636,-0.2154770,9.9837704,12.4198475,-7.6030536,-11.0534353,-5.9256191,2.0302727,3.4093258,-36.5190849,-18.0305347,82.6183243
5370,-0.8930327,-0.2346306,9.5480280,12.7557249,-11.0839691,-9.4732828,-5.0134325,2.0925217,3.6726866,-30.1068707,-24.1145039,70.9694672
5380,-1.0247130,-0.0167593,9.5025377,10.8091602,-9.9236641,-6.1450381,-4.6016321,2.0997043,3.6056492,-23.8625946,-25.7251911,59.2824440
5390,-1.0438666,0.1364688,9.3828287,5.8702292,-6.8015265,-2.8091602,-4.2113791,2.0422437,3.7133877,-18.1679382,-25.9618320,48.1908379
5400,-0.9361281,0.2322364,9.4355011,-0.2061069,-1.7251909,-0.7557252,-3.7516949,1.8100072,3.7325413,-13.7175570,-22.9770985,37.4122124
5410,-0.9528874,0.2944853,9.8113880,-6.2519083,4.2290077,1.3053435,-3.1603301,1.5370697,3.7852135,-5.9083967,-9.2061071,9.1145039
5420,-0.9289455,0.3232156,9.9622221,-6.4961834,4.3435116,2.0381680,-3.5745249,1.2928623,3.7205703,-4.1603055,-1.2900764,-7.0839696
5430,-0.9145803,0.2466015,9.9406748,-6.3206105,4.8091602,2.9389312,-4.3047528,1.2138541,3.8067613,-4.1755724,4.7557254,-22.5572510
5440,-0.9385223,0.2968795,9.9813757,-5.6259542,1.8625954,3.0916030,-5.6885943,1.1396341,4.1539187,-4.9160304,3.9923663,-35.6946564
5450,-0.8930327,0.1292862,9.9382801,-3.9541984,-0.5267175,2.9618320,-7.1825686,1.1731528,4.4172797,-6.0076337,-3.4351146,-44.8167953
5460,-0.9816177,0.0885850,9.9382801,-2.9389312,-2.7022901,3.2595420,-8.6214762,1.2904681,4.5848727,-6.8244276,-17.5725193,-49.1984749
5470,-0.9361281,0.1316804,9.9574337,-1.7786260,-4.8625956,4.2442746,-9.7898407,1.3359578,4.8673873,-7.1374044,-36.7633591,-49.3969460
5480,-0.6919208,-0.0311245,10.0819321,-1.0152671,-2.9236641,4.5572519,-10.3213511,1.2952565,4.8482337,-7.7480917,-58.1755714,-43.7480927
5490,-0.5985473,-0.1508339,9.9933472,-0.4351145,-1.8702290,4.9007635,-10.0532017,1.1492109,4.9559722,-8.9770994,-68.3435135,-36.8625946
5500,-0.3399749,-0.2418131,10.1010857,0.5648855,-1.6412214,5.6183205,-9.3277617,0.9385223,5.0852585,-9.2366409,-68.1984711,-30.1603050
5510,-0.0574605,-0.1939293,10.1824875,1.8702290,-0.9847328,4.7251906,-8.6645718,0.9840119,5.0780759,-6.7862597,-63.1221390,-26.4961834
5520,0.1029501,-0.1268920,10.1896706,2.9847329,-0.4809160,2.3969467,-7.9463148,1.1587877,5.0158267,-3.9389312,-51.5725174,-25.2213745
5530,0.1388630,-0.0550664,10.0915089,4.1450381,2.4427481,-0.3435115,-7.6614060,1.2306134,4.9176650,-2.2748091,-35.1984749,-26.3511448
5540,-0.0430954,0.1077385,9.7826586,3.1832061,4.8244276,-2.8854961,-7.7236552,1.2066715,4.7428894,-1.3893130,-21.0610695,-28.0610695
5550,-0.2250538,0.1340746,9.6414013,1.2595420,6.5419846,-5.1221375,-7.9558916,1.1755470,4.5848727,-1.7175573,-12.1679392,-30.0839691
5560,-0.7805058,0.2370248,9.7060442,-0.7328244,4.9236641,-6.7938933,-8.5185261,1.3239868,4.3957319,-6.9923663,-4.5801525,-33.8167953
5570,-1.0390782,0.4405309,9.6342182,-1.4427481,5.1068702,-6.9236641,-8.8704720,1.2377959,4.3670015,-10.8396950,-5.5038166,-35.5725174
5580,-1.1539993,0.3950413,9.6940727,-2.3435113,4.7480917,-5.6488547,-9.3325500,1.1396341,4.3909435,-15.3664122,-7.5343513,-38.5114517
5590,-1.3934183,0.4213773,9.7012558,-2.0916030,5.2671757,-4.4427481,-9.8856087,1.0534433,4.4914994,-19.5190830,-12.3740454,-40.3740463
5600,-1.4820032,0.3998296,9.7299862,-1.9694656,2.7099237,-2.6870229,-10.2926207,1.0678085,4.4723458,-24.4503822,-21.8473282,-42.8854980
5610,-1.2401901,0.2537841,9.7994175,-2.2213740,0.2519084,-1.5114504,-10.9869356,1.0199248,4.8602047,-28.7328243,-31.6641216,-44.8473282
5620,-1.1468167,0.1340746,9.7754755,-2.4656489,-0.7633588,-0.4885496,-11.2933912,0.7709290,5.0421629,-31.6259537,-38.9160309,-42.4961815
5630,-1.0151364,-0.0047884,9.8808203,-2.8320611,-0.8778626,0.3740458,-11.5471754,0.4381367,5.4850879,-31.9312973,-39.8778610,-34.8854980
5640,-1.0151364,-0.1556223,9.8257532,-3.8091602,-0.8244275,2.7709923,-11.7411051,0.3351865,6.0142040,-29.8473282,-36.9771004,-27.5877857
5650,-0.7086801,-0.3040621,9.8425131,-4.4503818,-1.4427481,3.3282442,-12.0930510,0.4644727,6.4403696,-26.3435116,-35.4274826,-23.6412220
5660,-0.7134684,-0.3423691,9.9550400,-3.7175572,-2.7251909,4.0229006,-12.9358053,0.3136388,6.6031747,-22.2824421,-35.7328262,-19.3053436
5670,-0.5171449,-0.3375807,9.9526453,-3.0687022,-2.8549619,6.3969464,-14.0179796,0.0359128,6.8090749,-17.7862587,-37.4580154,-12.1374044
5680,-0.4429250,-0.1077385,9.8712435,-3.4809160,-1.0992366,6.9236641,-15.0570574,-0.3303981,6.9000540,-13.4351149,-37.6335869,-0.5801527
5690,-0.3878587,-0.0981618,9.7730818,-4.6259542,0.7862595,6.6870227,-16.1128960,-0.6057299,7.3166428,-9.9236641,-37.1984749,15.6259546
5700,-0.3591284,0.0335187,9.7898407,-4.3206105,2.4503818,5.2213740,-17.1471844,-0.4572902,7.6230993,-7.4351144,-39.8625946,35.1374054
5710,-0.4046180,0.1484398,9.7635050,-5.9160304,4.1221375,3.9541984,-17.9779682,-0.0742199,8.1210909,-3.2061069,-43.3129768,59.5190849
5720,-0.6536137,0.1412572,9.7347746,-7.5419846,5.9923663,2.7633588,-18.0019112,-0.0023942,8.4227581,4.5114503,-48.1832047,86.6717529
5730,-0.8475431,0.1149211,9.7563219,-8.5114508,5.9923663,2.4427481,-17.8127689,-0.2513899,8.5281029,13.6717558,-48.3664131,115.3969498
5740,-1.0175306,0.1029501,9.8305416,-8.6564884,5.7480917,2.6106870,-17.0657825,-0.4477134,8.5807753,22.9465656,-43.4809151,143.0763397
5750,-1.0390782,0.0239419,10.0340481,-8.2671757,5.5267177,3.2290077,-16.0434628,-0.3471575,8.6478119,31.5572510,-36.6870232,168.8396912
5760,-1.1516051,0.0023942,9.9885588,-7.0916033,4.5877862,4.4045801,-15.5550489,-0.1915352,8.8944139,38.2824440,-31.9541988,189.6106873
5770,-1.0845678,0.0909792,9.9598284,-5.5572519,1.4809160,5.2137403,-15.8016500,-0.2513899,9.3636751,45.7251892,-37.7022896,210.5267181
5780,-0.8331779,0.0742199,9.8161764,-4.6183205,-0.3053435,5.0000000,-16.4744167,-0.6512195,10.0962973,58.3511467,-52.2748108,232.4885559
5790,-0.7206510,0.0430954,9.7467451,-4.7022901,-0.4503817,4.1068702,-17.3267498,-1.1659702,10.8696203,76.8702316,-70.8244247,250.1297760
5800,-0.6057299,-0.0861908,9.7778702,-5.6793895,0.9160305,3.3206108,-17.6547527,-1.5610116,11.6692791,100.9465637,-91.0152664,250.1297760
5810,-0.5626345,-0.0814024,9.7036495,-7.5267177,3.1068702,2.8091602,-15.4473104,-2.5689652,11.7195578,131.1603088,-102.3969498,250.1297760
5820,-0.6799498,-0.1795642,9.7275915,-9.3740454,4.2900763,2.8473282,-11.6453371,-2.8490853,10.5511932,167.4809113,-98.9694672,250.1297760
5830,-0.7182568,-0.2777260,9.8856087,-10.3893127,6.4198475,3.6106870,-8.6047173,-3.4931223,8.2527714,200.0915985,-88.7709961,250.1297760
5840,-0.7517755,-0.3280039,9.9526453,-11.0458012,9.0458012,5.0458016,-5.4467812,-3.2537034,5.3773494,215.5648804,-53.2442741,250.1297760
5850,-0.7996593,-0.1867468,10.1585455,-9.4122133,10.1068707,5.3816795,-3.3901722,-1.8052188,3.1459649,212.9007568,-2.7480917,250.1297760
5860,-0.7709290,-0.1364688,10.1393919,-7.1068702,9.8702288,4.7251906,-2.3774302,-0.1149211,1.4341195,195.9465637,45.7938919,250.1297760
5870,-0.7421987,-0.1604107,10.0651722,-4.5648856,7.6488547,3.4045801,-2.5067163,0.9576758,0.5913648,169.6946564,86.5725174,250.1297760
5880,-0.7996593,-0.0574605,9.9167328,-2.7862597,5.2137403,2.0687022,-2.8802099,1.8267666,0.3280039,141.0763397,116.0610657,250.1297760
5890,-0.7972651,-0.0383070,9.7443514,-1.7328244,3.1908398,0.6793893,-3.2201848,1.9847831,0.6272776,115.5190811,136.7862549,250.1297760
5900,-0.8212070,0.0143651,9.7299862,-2.1832061,2.1984732,-0.2213740,-2.8897867,1.8866212,1.1252691,93.7938919,151.7480927,250.1297760
5910,-0.8978211,0.0287303,9.7108326,-3.1145039,2.8167939,-1.2061069,-1.9823889,1.3072275,1.7070571,78.9770966,158.2366486,250.1297760
5920,-0.9983770,-0.1268920,9.8042059,-3.6183207,3.8091602,-1.6259542,-0.5889706,0.8188128,2.0566087,70.0992355,149.0686951,250.1297760
5930,-1.1731528,-0.1268920,9.8401184,-3.2748091,2.9618320,-1.3893130,1.3622938,0.5003856,1.9799947,65.0457993,134.9541931,250.1297760
5940,-1.2138541,-0.1508339,9.8473015,-3.4198472,2.1526718,-0.6870229,3.7229645,0.4261657,1.3670821,58.9618340,130.7328186,250.1297760
5950,-1.2354017,-0.2849085,9.9263096,-3.4427481,1.6412214,0.5190840,4.9487896,0.5147507,1.1492109,48.5267181,137.7938995,250.1297760
5960,-1.0534433,-0.1867468,9.9598284,-2.3053436,0.1374046,1.3053435,5.8083038,0.8379663,1.4939742,37.4122124,142.4427490,250.1297760
5970,-0.9457048,-0.2681492,9.9502516,-1.4961832,-0.2442748,1.0152671,6.7851329,0.8954269,2.0757623,29.6030540,139.4961853,250.1297760
5980,-0.9337339,-0.2873027,9.8856087,-1.3053435,-0.7786260,1.2137405,7.7523856,0.9337339,2.5402350,25.6946564,137.2137451,250.1297760
5990,-0.9289455,-0.2489957,10.0148945,0.1297710,-2.2137403,1.1145039,9.0189114,0.9888002,2.4372849,24.1068707,125.6717529,247.3664093
6000,-0.8523315,-0.2657550,10.0053177,1.2061069,-3.3129771,0.8320611,10.9749641,1.2258250,1.9560528,19.2442741,101.6183243,218.4274750
6010,-0.7924767,-0.2250538,9.8568783,2.4122138,-4.2061067,-0.2290076,13.4744978,1.7477583,0.9002152,6.9618320,74.9465637,178.1068726
6020,-0.7661406,-0.1915352,9.8281479,2.6106870,-3.9923663,-1.0152671,15.2270451,1.1348459,0.7062859,-9.5419846,49.7328262,132.0381622
6030,-0.8164186,-0.1915352,9.7850523,1.5496184,-3.0534351,-1.4580153,17.6092644,2.0637913,1.1013272,-22.9160309,29.4122143,72.0305328
6040,-0.8331779,-0.1268920,9.8257532,0.2748092,-0.6946565,-2.2977099,19.6126022,2.4923513,0.7685348,-45.5801544,-8.7099237,-68.5496216
6050,-0.9169745,-0.1987177,9.8544836,0.5419847,0.0839695,-2.7251909,19.6126022,2.1954718,0.3758878,-58.5267181,2.9160306,-143.0534363
6060,-0.9145803,-0.1604107,9.9574337,0.9389313,-0.7328244,-2.4503818,19.6126022,1.8866212,0.4764437,-69.3511429,33.4809151,-213.3511505
6070,-0.9504932,-0.1891410,9.9454632,1.3969465,-1.0458015,-2.4656489,19.6126022,1.1635761,1.0558375,-73.7862625,74.9618301,-250.1374054
6080,-0.8571198,-0.1388630,9.9550400,2.4351146,-2.2977099,-2.9541984,19.6126022,-0.1819584,1.9632354,-71.4351120,114.5190811,-250.1374054
6090,-0.8451489,-0.1292862,10.0101061,3.7862597,-2.9847329,-3.4809160,19.6126022,-2.3199697,2.7126167,-63.5190849,145.0076294,-250.1374054
6100,-0.8116302,-0.1077385,9.9717989,5.2213740,-4.3587785,-4.5419846,16.7377777,-4.9894910,3.5050933,-51.0534363,164.3511505,-250.1374054
6110,-0.6536137,-0.1244979,10.0364418,7.0305343,-5.9541984,-6.4885497,12.7251167,-8.3796635,4.5681133,-30.3206100,170.4045868,-250.1374054
6120,-0.6512195,-0.1508339,10.0364418,9.5114508,-8.5725193,-8.5343513,7.3932571,-12.7011747,5.4491754,6.1068702,162.1068726,-250.1374054
6130,-0.5554519,-0.1675933,10.0651722,12.0305347,-11.0000000,-10.8778629,-0.6081241,-17.0969067,5.5928264,54.3816795,128.2824402,-250.1374054
6140,-0.5099624,-0.2106887,10.2399483,14.0992365,-11.0839691,-12.4732828,-9.2942438,-19.0026817,4.8961172,99.1526718,59.4045792,-250.1374054
6150,-0.5722113,-0.1939293,10.3141680,17.3816795,-12.3740454,-13.1603050,-19.6131992,-18.5789108,3.8187323,126.5954208,-67.0916061,-250.1374054
6160,-0.5578461,-0.1292862,10.3261395,21.4580154,-15.0763359,-13.6641226,-19.6131992,-14.2095146,2.1308286,107.8702316,-250.1374054,-250.1374054
6170,-0.5817881,-0.0670373,10.4602137,26.4732819,-17.7709923,-14.4045801,-19.6131992,-9.4235296,1.4149660,29.1603050,-250.1374054,-250.1374054
6180,-0.4644727,0.0047884,10.3883877,31.2671757,-21.7786255,-15.6030531,-19.6131992,-6.3015065,4.2927818,-62.4351158,-250.1374054,-250.1374054
6190,-0.4165890,0.1125269,10.4434547,37.4427490,-25.1603050,-18.0000000,-19.6131992,-2.7676830,8.6669655,-99.2977066,-222.9084015,-250.1374054
6200,-0.3088504,0.1699875,10.3213511,41.9160309,-30.9312973,-20.1297703,-19.6131992,-1.0630201,12.0930510,-66.6717529,5.2442746,-211.8473358
6210,-0.2753318,0.0478838,10.1968527,45.4503822,-30.5267181,-22.3282452,-19.6131992,-1.0103480,12.3564119,17.4656487,247.7251892,-17.4427490
6220,-0.3136388,0.1053443,9.9789820,44.6641235,-26.6030540,-21.3282452,-19.6131992,0.2274480,10.4482431,104.3053436,250.1297760,91.4351120
6230,-0.6153067,0.3327923,9.2296000,38.3893127,-24.1068707,-17.3816795,-19.6131992,2.3439114,6.0620875,149.1984711,250.1297760,135.1145020
6240,-0.3902529,0.5482694,8.6549950,28.6183205,-16.9618320,-14.6106873,-19.6131992,2.2768741,3.0142846,141.4732819,250.1297760,146.9160309
6250,-0.6392486,0.9672526,8.1881275,17.5877857,-9.4198475,-12.5877867,-15.9476957,2.0254843,1.2138541,99.1297684,246.3206177,139.0152740
6260,-0.6679789,0.9768293,8.1402445,3.8320611,-1.6259542,-11.6259546,-11.1904411,2.0781565,0.6895266,51.1297722,127.3206100,112.3282471
6270,-0.7254394,0.9480990,8.6262646,-8.4122133,7.2366414,-11.1221371,-7.3477674,2.5067163,1.0462608,19.0381680,20.4732819,67.8549652
6280,-1.0247130,0.7110743,9.1074963,-17.0763359,13.1526718,-9.2748089,-5.5664907,3.1363883,1.3144100,1.6641221,-58.6335869,16.9389305
6290,-1.2377959,0.6536137,9.5264797,-21.3358784,14.0916033,-6.4580154,-5.7460546,3.7277529,1.4891858,-7.7328243,-108.1221390,-27.5954189
6300,-1.3120158,0.5434810,9.9215212,-22.1374054,12.2900763,-3.0839694,-6.8976598,4.0461802,1.7932479,-13.3129768,-138.7175598,-55.7480927
6310,-1.2114599,0.4237715,10.2926207,-20.3816795,9.7251911,0.8778626,-7.8912482,4.1706781,2.1332228,-14.9847326,-156.5648804,-65.6030502
6320,-1.1587877,0.2968795,10.3452930,-18.1221371,6.3511453,4.6946564,-8.2695303,4.0892754,2.4540441,-12.6030531,-168.3053436,-65.2061081
6330,-0.8666966,0.2370248,10.2088242,-15.5801525,4.3740458,7.3282442,-7.9534974,3.9959023,2.7341642,-6.8473282,-173.0610657,-60.5114517
6340,-0.5793939,0.2944853,10.0436249,-12.7709923,2.6030533,7.9160304,-7.2903070,3.6200144,2.5881188,0.7938932,-167.8167877,-56.8320618
6350,-0.3687052,0.2657550,10.0316534,-10.7862597,2.6717558,7.2977099,-6.9287844,3.3087699,2.2720859,8.5190840,-146.8854980,-53.5725174
6360,-0.2298422,0.2968795,10.0436249,-9.6641226,2.5267177,5.8625956,-6.9886389,3.0238612,1.6735384,14.8778629,-109.3358765,-46.6946564
6370,-0.1340746,0.2154770,10.0148945,-9.0687027,2.1526718,3.6412213,-7.4171991,2.7892308,1.1635761,16.3893127,-65.1145020,-37.8396950
6380,-0.0287303,0.2418131,10.2040358,-7.6106873,1.3740458,1.4045801,-8.2958660,2.5210814,0.7589580,12.6335878,-27.5725193,-26.7022896
6390,-0.1101327,0.2537841,10.1848822,-5.8091602,1.6335878,-0.7862595,-8.9925756,2.3534882,0.8906385,3.1374047,-5.4732823,-17.1068707
6400,-0.3184272,0.2537841,10.0627785,-2.5572519,4.0839696,-2.9236641,-9.4929609,2.0877333,1.7022687,-18.3358784,-2.4503818,-4.1679387
6410,-0.5961532,0.2873027,10.0172882,-1.8167939,3.8396947,-2.1679389,-9.3038206,1.8052188,2.3367288,-25.7709923,-9.6259546,-0.8625954
6420,-0.7110743,0.2920911,9.9478569,-1.1526718,3.0076337,-1.1526718,-8.8992023,1.6855093,2.9735832,-30.4503822,-18.6412220,-1.2137405
6430,-0.7062859,0.3639168,9.9071560,-0.6183206,2.6335878,-0.6870229,-8.3365679,1.4652439,3.8211265,-31.8091602,-24.1603050,-3.3511450
6440,-0.7445929,0.3519458,9.8760319,-0.0610687,1.4045801,-0.1297710,-7.9295554,1.3910241,4.2784166,-29.4274807,-24.2213745,-7.8244276
6450,-0.7805058,0.3495516,9.8784256,0.3587786,-0.0152672,-0.0610687,-7.8912482,1.4772149,4.6854286,-24.4427490,-25.0534344,-13.6106873
6460,-0.7062859,0.3208214,9.9023676,0.7404580,-1.1526718,0.3740458,-7.7978749,1.5227045,4.9751258,-18.3740463,-27.0610695,-18.5801525
6470,-0.7589580,0.3112446,9.7754755,0.1450382,-1.6870229,0.5267175,-7.8098459,1.5681942,5.0852585,-12.5877867,-27.6793900,-24.1679382
6480,-0.6584021,0.2035061,9.8927908,-0.3587786,-1.8702290,1.3740458,-7.9367380,1.6855093,5.0254035,-6.9923663,-27.8015270,-28.5648861
6490,-0.6320660,0.0837966,9.8018112,-0.9923664,-2.0381680,2.2213740,-8.1809454,1.7836711,4.6662750,-3.9465649,-33.0534363,-32.1145020
6500,-0.5530578,0.1364688,9.8161764,-1.0687023,-2.6564887,2.8778627,-8.3724804,1.9057748,4.6423335,-3.5419848,-39.2290077,-34.5725174
6510,-0.4118006,0.1173153,9.8760319,-0.9236641,-3.1145039,3.3053436,-8.4538832,1.8985922,4.5322008,-3.9847329,-42.7709923,-35.5648842
6520,-0.3495516,0.1747758,9.8281479,-1.3282443,-1.8167939,3.1297710,-8.3293848,1.8626794,4.4675574,-4.0839696,-43.3358765,-35.2442741
6530,-0.2274480,0.2394189,9.8544836,-2.1068702,0.4045801,2.7709923,-8.3605099,1.8746504,4.4555864,-3.8396947,-44.3282433,-35.5954208
6540,-0.3447633,0.3112446,9.7922344,-4.0610685,2.7251909,2.2137403,-8.3940287,1.8985922,4.4340386,-4.0916033,-44.5419846,-35.6183205
6550,-0.3687052,0.3040621,9.8018112,-5.3893127,5.2824426,2.0763359,-8.5113440,1.7836711,4.3239059,-4.8473282,-42.0610695,-34.8244286
6560,-0.5362985,0.3136388,9.8832140,-6.2366414,6.1603055,1.7099236,-8.6909075,1.7908537,4.3837609,-6.1603055,-38.7938919,-33.2366409
6570,-0.5961532,0.3878587,9.8233595,-7.0687022,6.4427481,1.6793894,-8.9446917,1.7501525,4.3047528,-7.2595420,-37.0000000,-32.0839691
6580,-0.6248835,0.3591284,9.8353300,-7.2061067,7.1603055,1.9160305,-8.9997578,1.5322813,4.4053087,-8.9007635,-34.4580154,-30.2671757
6590,-0.7278336,0.2442073,9.8089943,-7.6259542,7.5877862,2.1526718,-9.0476418,1.4532729,4.5130472,-9.7862597,-30.7175579,-28.5496178
6600,-0.7038917,0.3184272,9.7563219,-8.3129768,7.1297708,2.2366412,-9.1721401,1.4389079,4.5130472,-9.6870232,-26.8778629,-27.3740463
6610,-0.7876883,0.2418131,9.8449068,-8.8015270,5.3129773,2.1603053,-9.3421268,1.4915800,4.4148855,-9.0687027,-25.0381680,-25.5114498
6620,-0.6631905,0.2681492,9.8089943,-8.8244276,5.3358779,1.6793894,-9.4833841,1.3431402,4.4412212,-9.1984730,-21.8396950,-23.2595425
6630,-0.7637464,0.2466015,9.8880024,-9.3129768,5.4656487,2.2213740,-9.4283180,1.3455344,4.5417776,-9.7099237,-18.8778629,-20.7404575
6640,-0.7278336,0.1891410,9.8520899,-9.5648851,6.4809160,1.6793894,-9.5025377,1.3431402,4.5705075,-10.2519083,-15.3587790,-19.6793900
6650,-0.8307837,0.1508339,9.8425131,-10.5725193,8.1221371,2.0992367,-10.0484133,1.3144100,4.4531922,-11.6259546,-19.2748089,-22.6793900
6660,-0.8666966,-0.0407012,9.8975792,-11.9923668,9.9236641,4.4503818,-10.8600435,1.3383518,4.2137733,-18.2671757,-35.0152664,-26.7862587
6670,-0.8236012,-0.0526722,9.7539282,-14.3511448,14.3664122,6.9465647,-11.3340931,1.2761030,4.5441718,-24.9618320,-48.4351158,-24.6335869
6680,-0.9217629,-0.0335187,9.5408449,-17.3206100,18.7251911,9.6030531,-11.0084829,1.2928623,4.8769641,-26.3435116,-49.3435097,-14.3969469
6690,-0.9600700,-0.1987177,9.5767574,-21.7099228,24.5343513,12.9847326,-10.1034794,1.3694763,5.4372044,-22.7404575,-39.9465637,-2.9160306
6700,-1.3287752,-0.4979914,9.5767574,-26.9160309,32.9007645,19.3206100,-9.1505919,1.4053892,5.4802995,-17.0916023,-27.5572510,2.3511450
6710,-1.5610116,-0.5434810,9.7850523,-30.8015270,39.5267181,27.3587780,-8.5017672,1.3191984,5.5593081,-11.1450386,-14.6946564,2.9236641
6720,-1.5753766,-0.2082945,9.9861641,-30.0763359,38.5572510,31.2290077,-8.2144642,1.2282192,5.2504573,-7.5343513,-9.5725193,1.0610687
6730,-1.1468167,0.1556223,10.1274214,-23.7175579,27.8931293,27.2977104,-8.0109577,1.2258250,5.1594782,-7.0992365,-7.6412215,-3.7022901
6740,-0.8882443,0.1604107,10.1944590,-15.7480917,13.5954199,20.2137413,-8.0564480,1.1635761,5.2480631,-7.9083967,-6.0916033,-8.7709923
6750,-0.6153067,0.0550664,10.4961262,-4.9694657,-4.6870227,13.6564884,-8.3485384,1.2593436,5.3845320,-8.2900763,-0.9694657,-13.5954199
6760,-0.5291159,-0.1173153,10.1824875,-2.1679389,-3.8015268,8.7557249,-9.1314383,1.2976507,5.4108682,-7.4961834,4.7480917,-16.4122143
6770,-0.4046180,-0.2346306,10.0292597,-3.8778627,-2.3587787,8.1755724,-10.0053177,1.1492109,5.5832496,-6.7786260,6.3664122,-17.8167934
6780,-0.3734936,-0.1436514,9.9550400,-3.6183207,1.2977099,5.5038166,-11.3412752,0.6871324,5.5449429,-8.2061071,6.5496182,-19.6564884
6790,-0.4405309,-0.1508339,9.7970228,-2.6793892,3.2061069,2.6717558,-13.3691540,0.3208214,5.4970589,-12.8931293,11.3282442,-19.0916023
6800,-0.5769997,-0.1077385,9.9047613,-1.5648855,3.5801528,0.2977099,-15.8686876,0.2202654,5.6814117,-20.5343513,14.5267172,-11.7251911
6810,-0.6464311,-0.0766141,9.9334917,0.2442748,2.0229008,-2.7786260,-19.0409889,0.0071826,6.3853035,-28.9007626,10.3893127,7.4351144
6820,-0.7469871,-0.1364688,10.0101061,1.6870229,1.0687023,-5.2061067,-19.6131992,0.2274480,7.2591825,-33.7633591,-3.3740458,40.0534363
6830,-0.8475431,-0.2035061,9.9478569,2.6717558,0.4198473,-6.1984735,-19.6131992,0.4955972,8.2096758,-30.4885502,-25.6488552,80.2290039
6840,-1.0414724,-0.1747758,9.8664551,3.1221373,-0.7633588,-7.0687022,-19.6131992,0.5937590,8.6885138,-20.8396950,-47.5343513,123.8320618
6850,-1.1659702,-0.1987177,9.7012558,3.3206108,-2.0076337,-7.7862597,-19.6131992,0.4357425,9.0308828,-8.6335878,-63.8167953,165.0915985
6860,-1.2569494,-0.2106887,9.8185711,3.2442749,-1.7786260,-7.4961834,-19.6131992,-0.0454896,9.0644016,7.5114503,-73.0992355,202.6870270
6870,-1.3215926,-0.2896969,9.8808203,3.0992367,-1.4732825,-6.2824426,-18.5477848,-0.2202654,9.0236998,23.4580154,-73.2213745,238.3206177
6880,-1.3838415,-0.2537841,9.8544836,3.1755726,-2.0076337,-5.0687022,-16.9460735,-0.6033357,8.9399033,36.1755714,-60.9618340,250.1297760
6890,-1.3168042,-0.2011119,9.7563219,3.1526718,-2.7175572,-3.7022901,-14.7865143,-1.0414724,8.8034344,48.4656487,-40.5877876,250.1297760
6900,-1.2761030,-0.2059003,9.6964674,2.7099237,-2.8931298,-3.0000000,-13.5774488,-0.9073978,8.9590569,62.2824440,-21.3053436,250.1297760
6910,-1.2258250,-0.1292862,9.7515335,1.9847329,-2.9618320,-2.1374047,-13.0579090,-1.2090657,9.5743637,78.4809189,-17.2137413,250.1297760
6920,-1.0654143,-0.0861908,9.8137827,1.2442749,-2.1145039,-1.6106870,-12.4186611,-2.1404054,9.0476418,105.8549652,-43.3969460,250.1297760
6930,-1.1348459,-0.1675933,9.7706871,1.0534351,-2.1068702,-1.5267175,-10.3668404,-3.4763632,7.6350703,141.8015289,-76.1297684,250.1297760
6940,-1.0702027,-0.1723816,9.7898407,1.2595420,-2.3435113,-1.2519084,-7.8361821,-4.0174499,5.8561873,166.2900696,-72.9312973,250.1297760
6950,-1.0989330,-0.1221037,9.8903971,2.0076337,-3.0916030,-1.2595420,-4.9272418,-4.4938936,4.1108232,179.4885559,-49.2595406,250.1297760
6960,-1.0127422,-0.1771700,9.8353300,2.7251909,-3.9160306,-1.5419847,-1.4221486,-5.0756817,2.8873925,186.7633514,-6.1984735,250.1297760
6970,-0.9433106,-0.1747758,9.8520899,3.3664122,-4.1984735,-2.0381680,2.2026544,-4.9080882,2.5402350,191.4427490,45.0763359,250.1297760
6980,-1.0247130,-0.2346306,9.7132263,2.3969467,-2.4961832,-1.6564885,6.8090749,-3.6056492,2.3750360,193.3053436,102.3969498,250.1297760
6990,-1.1659702,-0.1364688,9.6294298,0.5954198,-1.1755725,-0.4580153,8.9686337,-4.0294209,2.7006457,195.0076294,154.4885559,250.1297760
7000,-1.1516051,-0.1819584,9.6653433,-0.5954198,-0.1984733,1.0305344,10.1609402,-3.4596038,3.1244173,198.1450348,179.7328186,250.1297760
7010,-1.1539993,-0.1771700,9.6437950,-1.3282443,0.1755725,1.7938931,12.0834742,-1.7429699,2.7317703,203.7480927,170.3893127,250.1297760
7020,-1.0414724,-0.1675933,9.8113880,-2.0076337,0.4045801,2.4809160,14.1927547,0.0047884,1.4891858,204.2442780,136.5725250,250.1297760
7030,-0.9528874,-0.0861908,9.8568783,-1.9160305,0.5572519,2.6259542,17.2166157,1.9273225,-0.4429250,195.0152740,88.0763321,203.9313049
7040,-0.7900825,-0.0694315,9.9454632,-1.7709924,0.5114504,1.9923664,19.6126022,3.3566537,-3.1172347,167.8778687,56.8702278,122.2824402
7050,-0.7350162,-0.1005560,9.8616667,-1.3740458,0.9007633,0.6793893,19.6126022,4.1180058,-5.2408805,121.3587799,44.6488533,32.8015251
7060,-0.6392486,-0.0454896,9.7443514,-1.2824427,1.3129771,-1.1297710,19.6126022,4.4555864,-5.2791877,65.4351120,43.9847336,-62.1374054
7070,-0.7038917,-0.1053443,9.7922344,-1.7557251,1.7480916,-3.0305343,14.8607340,4.5226240,-4.5561423,17.1526718,18.6488552,-149.8625946
7080,-0.8259954,-0.1460456,9.8161764,-2.5496182,2.2213740,-4.6183205,9.8377247,4.0629396,-3.8115497,-23.1908398,-33.1526718,-208.6793823
7090,-0.9959828,-0.1221037,9.9430685,-2.3053436,1.8244275,-5.6335878,6.9120250,4.4412212,-3.7397239,-60.4045792,-85.3664093,-248.8396912
7100,-1.1539993,-0.1747758,9.8975792,-1.4198474,0.6259542,-6.2977099,4.5537481,3.5386121,-3.4380560,-96.8931274,-137.8702240,-250.1374054
7110,-1.3982066,-0.1795642,9.8568783,0.6259542,-1.3511450,-3.9236641,7.0197635,2.1188576,-0.2896969,-170.3816833,-214.5725250,-250.1374054
7120,-1.3527170,-0.2489957,9.8544836,0.9083970,-1.5496184,-1.8473282,9.5384512,0.3782819,1.1563935,-195.2595367,-200.3282471,-250.1374054
7130,-1.3503228,-0.1939293,9.6964674,0.5419847,-1.2061069,0.3664122,10.6589317,-2.5330524,2.6838863,-207.9618378,-159.0610657,-250.1374054
7140,-1.2018831,-0.1987177,9.7275915,-0.1374046,-0.6946565,1.8625954,10.5511932,-6.2847471,4.6471219,-208.2290039,-103.8854980,-250.1374054
7150,-1.0630201,-0.2346306,9.8137827,-0.2824427,0.2595420,2.5877862,8.0708122,-10.7690639,6.4762826,-198.4885559,-43.2213745,-250.1374054
7160,-0.8595140,-0.2609667,9.8544836,-1.1297710,0.1984733,2.1297710,3.6918402,-15.5981445,8.1067257,-171.9923706,18.4580154,-250.1374054
7170,-0.7350162,-0.1819584,9.9310980,-0.6793893,-0.3511450,0.4885496,-3.1723011,-19.6131992,9.5599985,-122.9618301,89.0687027,-250.1374054
7180,-0.8643024,-0.2106887,9.9478569,0.5343512,-1.1374046,-1.2213740,-11.6405487,-19.6131992,10.0986910,-61.4122124,141.6641235,-250.1374054
7190,-1.0151364,-0.0909792,10.0268650,1.8778626,-1.6412214,-2.3435113,-19.6131992,-18.1958389,12.3204985,5.8625956,138.6183167,-250.1374054
7200,-0.9864060,0.0383070,9.8449068,3.0610688,-2.0458016,-3.2900763,-19.6131992,-9.1505919,12.5024576,53.6793900,30.7099228,-250.1374054
7210,-1.2354017,0.1221037,9.8736372,3.0687022,-1.8702290,-3.2824428,-19.6131992,0.9840119,15.3946381,74.7480927,-153.2824402,-250.1374054
7220,-1.2976507,0.0598547,9.7611103,2.9694657,-2.1526718,-2.4885497,-19.6131992,9.1170731,16.2972469,54.0763359,-250.1374054,-190.8625946
7230,-1.3239868,0.1723816,9.6797075,2.9694657,-2.5877862,-1.4732825,-19.6131992,4.1467361,10.7451220,35.9007645,-250.1374054,15.7099237
7240,-1.2306134,0.0742199,9.6821022,2.5801528,-3.0152671,-1.2213740,-19.6131992,-3.3590479,4.6375451,40.7786255,-250.1374054,84.5419846
7250,-1.0725969,0.0502780,9.6485834,1.5648855,-2.8549619,-0.9160305,-10.5799236,-5.4060798,0.8259954,34.8625946,-250.1374054,101.8702316
7260,-1.0079538,-0.0215477,9.7132263,1.0687023,-3.1526718,-1.4580153,-4.7428894,-1.4867916,0.4979914,7.4198475,-152.3969421,109.8396912
7270,-0.9457048,-0.1556223,9.7778702,0.7480916,-4.1221375,-2.1450381,-3.4117200,1.7166338,2.1643472,-18.0381680,65.2137375,112.3282471
7280,-0.9169745,-0.3327923,9.7515335,0.8015267,-4.8244276,-2.0992367,-4.4124913,2.4109488,4.7141590,-24.7251911,202.1374054,108.9847336
7290,-0.8499373,-0.4309541,9.8496952,0.5572519,-6.0992365,-2.1526718,-6.1410961,2.5689652,6.4978304,-19.3358784,250.1297760,103.2824402
7300,-0.7182568,-0.5362985,9.9454632,1.1297710,-5.7022901,-1.8549619,-7.3884687,3.0286496,7.0724359,-12.0229006,250.1297760,95.1984711
7310,-0.7829000,-0.4740495,9.9287033,1.0763359,-3.6717558,-0.6564885,-7.6350703,3.2082138,7.0748301,-6.9541984,226.1908417,86.6793900
7320,-0.6967092,-0.4165890,9.8042059,0.7786260,-1.0687023,0.1450382,-7.3286138,3.1196289,6.7396431,-5.7328243,172.1679382,77.5190811
7330,-0.6895266,-0.1388630,9.7658987,-0.2824427,2.5114503,-0.3435115,-4.9080882,2.2864509,5.9663200,-6.9847326,59.9541969,45.9847336
7340,-0.7374104,-0.0239419,9.8568783,-0.6183206,3.3664122,-0.6412213,-3.4715748,1.9009864,5.6431046,-5.1755724,26.3206100,22.6335869
7350,-0.9457048,0.0119709,9.7850523,-0.8320611,1.4885496,-2.2213740,-2.6144550,1.5634058,5.2767935,3.5267177,4.2442746,-29.4351139
7360,-1.1444225,0.1197095,9.9143381,-0.6946565,1.4274809,-2.6564887,-3.2944047,1.3790531,5.0373745,9.2290077,2.9465649,-52.6335869
7370,-1.5011568,0.0885850,9.6557665,0.2748092,-3.4732823,1.7404580,-13.3930960,2.4013720,3.5888901,5.6564884,-73.9465637,-101.4732819
7380,-1.3383518,-0.0215477,9.7539282,0.2671756,-5.8702292,4.0000000,-15.0426922,2.0877333,4.0006905,-3.3511450,-88.5954208,-80.4122162
7390,-0.8283895,0.0047884,9.8185711,-0.0381679,-5.7633586,2.9923663,-14.9636841,1.4628497,4.0605454,-11.9007635,-99.3206100,-45.7022896
7400,-0.6847382,-0.0454896,9.9239149,0.4503817,-4.6641221,0.6870229,-13.2446556,1.3886299,4.4100971,-17.8625946,-97.6793900,-14.2671757
7410,-0.7445929,-0.1675933,9.8880024,1.8015267,-5.6106873,0.4122137,-10.9390516,1.3766589,5.0852585,-20.3053436,-81.5725174,5.8396945
7420,-0.6344602,-0.1340746,9.8401184,0.9694657,-5.4351144,0.7480916,-9.0476418,1.6136837,5.4731169,-20.5801525,-56.0000000,14.9389315
7430,-0.6009415,-0.1771700,9.8425131,-0.1297710,-4.2519083,0.5954198,-7.8361821,1.6041069,5.8944945,-17.1068707,-27.0916023,17.3511448
7440,-0.5171449,-0.1771700,9.8760319,0.2595420,-1.6564885,-0.3206107,-7.2017217,1.6280488,5.8849177,-11.5190840,-2.0152671,14.8854961
7450,-0.7158626,-0.1915352,9.8544836,-1.0839695,2.1603053,-1.4809160,-7.2304521,1.5801650,5.6215568,-9.1679392,1.2977099,7.6488547
7460,-0.7326220,-0.1388630,9.9071560,-1.9389313,3.2519083,-1.8473282,-7.1203194,1.4508789,5.6766233,-11.0992365,-7.2824426,3.4274809
7470,-0.8236012,-0.0311245,9.8640604,-1.0839695,3.8015268,-2.2213740,-7.0987716,1.4077834,5.8178802,-13.0534353,-12.1603050,-0.8015267
7480,-0.8738791,-0.0646431,9.8640604,-0.4274809,3.6564887,-2.7404580,-7.0820122,1.2784972,5.7891502,-13.5114508,-9.5954199,-5.6717558
7490,-1.0965388,-0.0143651,9.9622221,0.6412213,2.0992367,-3.0610688,-7.3980455,1.3479286,5.7460546,-13.5725193,-2.7557251,-8.8854961
7500,-1.1779412,-0.0766141,9.8856087,1.7328244,0.3511450,-2.1221373,-7.8625183,1.2138541,5.4276276,-14.2595415,0.5343512,-10.6183205
7510,-1.1755470,-0.0646431,9.9167328,2.7022901,-1.1755725,-1.4122137,-8.3389616,1.2354017,5.4515696,-15.6564884,-0.4809160,-10.8625956
7520,-1.1013272,0.0766141,9.7802639,2.7328243,-1.7251909,-1.3206106,-8.5520449,1.1659702,5.4802995,-16.5954189,-1.9160305,-9.8702288
7530,-1.1013272,0.0454896,9.8496952,2.2061069,-1.7328244,-0.9007633,-8.5209198,1.1468167,5.6383162,-16.4503822,-1.4427481,-8.1450386
7540,-1.1085097,-0.0023942,9.6821022,1.2213740,-1.7938931,-0.0458015,-8.4467001,1.0630201,5.7340837,-15.5877867,0.1374046,-7.5114503
7550,-1.0462608,0.0526722,9.7754755,0.0610687,-1.9083970,0.1908397,-8.2910776,0.9169745,5.6766233,-13.4885492,0.8625954,-8.3053436
7560,-0.9935886,-0.0790083,9.8951855,-0.4732825,-1.5114504,0.1679389,-7.9654684,0.8499373,5.8394279,-7.7938933,3.2900763,-11.7786255
7570,-0.9121862,-0.1125269,10.0603838,1.4885496,-2.0152671,0.3358779,-8.0923605,0.9409165,5.7484488,-5.7175574,4.5190840,-15.9618320
7580,-0.7254394,-0.0023942,9.8568783,4.8702292,-3.5190840,-1.1297710,-8.3245964,0.7541697,5.8106980,-3.6412213,4.0687022,-20.8778629
7590,-0.6847382,0.0814024,10.0292597,5.5648856,-4.5801525,-3.6412213,-8.9566631,0.6847382,5.9974446,-5.9007635,-0.8549618,-27.3358784
7600,-0.7302278,0.1173153,9.9167328,7.6335878,-7.7251906,-5.4961834,-10.1322098,0.4261657,6.1195483,-7.5648856,-7.2519083,-33.3206100
7610,-0.6871324,0.0239419,9.9981356,9.8625956,-8.9923668,-7.2671757,-11.6668854,-0.0143651,6.5481081,-10.3053436,-18.9923668,-38.6564903
7620,-0.7996593,-0.0287303,10.0244713,10.1984730,-7.7480917,-6.5877862,-13.6468801,-0.3926471,7.2256637,-13.0381680,-36.9236641,-40.8396950
7630,-1.0151364,0.0023942,9.8592720,9.0000000,-5.5572519,-4.3969464,-15.8184099,-0.4261657,8.0396881,-15.1603050,-57.8778610,-34.4503822
7640,-0.9648584,-0.0239419,9.7587166,8.7328243,-3.8396947,-2.7251909,-17.6188393,-0.0478838,9.1003141,-14.8396950,-74.4656525,-17.2137413
7650,-1.1109039,0.1101327,9.7036495,8.1297712,-4.1832061,-1.8549619,-18.7369270,-0.3208214,10.0340481,-8.5648851,-79.1068726,8.9465647
7660,-1.0773853,0.0933734,9.5623922,6.0458016,-4.5954199,-0.6335878,-19.6131992,-0.5793939,10.8313131,3.5877862,-68.1755753,43.2290077
7670,-1.0271072,0.1532281,9.5647869,3.1755726,-2.4732823,0.4198473,-19.6131992,-0.4285599,11.7985659,21.3893127,-46.5190849,86.5267181
7680,-0.9193687,0.1795642,9.5264797,0.6335878,-1.9923664,1.6106870,-19.6131992,-0.4860204,12.7610302,42.5343513,-13.1297712,138.1908417
7690,-0.8212070,0.1867468,9.4666252,-1.6106870,-1.4809160,2.2671757,-19.6131992,-0.5171449,13.0794573,66.5572510,28.6564884,193.0610657
7700,-0.5698171,0.1604107,9.6749191,-2.9541984,0.0000000,1.8549619,-19.4216652,-0.8379663,12.6724443,94.1068726,65.0839691,241.7480927
7710,-0.6272776,0.1819584,9.7275915,-3.8167939,0.9465649,0.6641222,-17.0945129,-0.9696468,11.8656025,119.8778610,94.4198456,250.1297760
7720,-0.6488253,0.1412572,9.7946291,-4.7099237,1.2290076,-0.5496183,-14.2957048,-1.1085097,9.9215212,142.3206177,117.1832047,250.1297760
7730,-0.7014975,0.0047884,9.7778702,-5.2748094,1.1374046,-0.9160305,-12.0140429,-0.7445929,7.8433647,157.6717529,145.6641235,250.1297760
7740,-0.9217629,0.0598547,9.7946291,-5.5725193,1.0000000,-0.7557252,-10.7044210,-0.4501076,5.7939386,163.1755676,159.1984711,250.1297760
7750,-1.0127422,0.0526722,9.8520899,-5.9770994,1.1374046,0.2671756,-9.5097208,-0.0383070,4.1922259,158.9770966,156.6793823,250.1297760
7760,-1.1085097,0.1508339,9.6821022,-6.7328243,1.3893130,1.0000000,-7.9199786,0.3280039,2.8466914,146.8396912,146.7709961,250.1297760
7770,-1.2880739,0.3256098,9.4211359,-8.9465647,1.9160305,2.8549619,-5.4635406,0.6799498,1.8195840,127.3358765,147.3129730,250.1297760
7780,-1.2928623,0.2753318,9.2272062,-13.5343513,2.1984732,4.8167939,-4.2664456,0.3830703,0.8978211,104.2061081,152.2595367,250.1297760
7790,-1.1300575,0.1053443,9.3540983,-18.5648861,3.0534351,5.5877862,-2.8873925,0.2370248,0.3495516,81.3664093,140.0000000,250.1297760
7800,-0.8571198,0.0861908,9.4881725,-22.6335869,6.0763359,5.7099237,-0.7876883,0.1484398,0.2777260,63.3816795,123.0305328,250.1297760
7810,-0.7948709,-0.0263361,9.7204094,-24.9694653,7.4122138,5.9007635,1.3790531,0.5458752,0.3016679,46.5648842,113.4198456,250.1297760
7820,-0.7182568,-0.2394189,10.0843258,-24.6335869,7.2442746,5.3358779,3.3782012,1.1228749,0.6177009,30.6564884,118.9160309,250.1297760
7830,-0.4764437,-0.2489957,10.4338779,-21.5267181,6.0839696,3.6793892,4.3239059,1.4508789,1.2354017,17.5648861,134.7175598,250.1297760
7840,-0.4237715,-0.3327923,10.6565371,-16.1145039,3.9236641,0.9160305,4.6782460,1.8147956,1.9368993,7.9389315,151.7022858,237.4198456
7850,-0.3710994,-0.3280039,10.6589317,-10.0305347,2.2290077,-1.5343511,5.2552457,1.9799947,2.3534882,0.9160305,166.0229034,217.6259613
7860,-0.4070122,-0.3184272,10.4195127,-4.2366414,1.5648855,-3.5190840,6.7516141,2.1547706,2.8275378,-3.8702290,191.1755676,199.9618378
7870,-0.6200951,-0.2753318,10.1657286,-0.7404580,1.5267175,-4.1450381,8.1019373,2.3032103,2.3056045,-8.0992365,227.5954132,183.9007568
7880,-0.8379663,-0.1388630,9.9574337,0.8473282,1.5343511,-4.6335878,8.7794924,2.5282640,1.2497669,-11.5038166,250.1297760,167.2824402
7890,-0.8738791,-0.1029501,9.9741936,1.6870229,1.1603054,-5.3664122,9.4785957,3.0262554,0.3208214,-14.4274807,250.1297760,147.3282471
7900,-1.0965388,-0.0071826,9.9095497,2.8702290,0.7862595,-5.3358779,10.1274214,3.7493007,-0.1771700,-13.9541988,244.3969421,122.5343475
7910,-1.1731528,0.1077385,9.9694052,5.1297708,-1.8702290,-5.0305343,9.3732519,2.2050486,-0.1723816,-23.5877857,196.9160309,86.8091583
7920,-1.1492109,-0.0598547,10.0579901,7.7099237,-4.9694657,-5.0229006,9.8856087,2.3056045,0.9145803,-35.0305328,131.1832123,36.4809151
7930,-1.1109039,-0.0622489,9.9622221,8.9007635,-7.0763359,-4.9236641,10.5057030,1.6160779,1.7932479,-48.5267181,57.2977104,-25.2137413
7940,-1.1659702,-0.0646431,9.8113880,8.6946564,-8.4656487,-4.4122138,10.6014709,1.1228749,2.5929072,-67.1984711,-20.2366409,-98.0229034
7950,-1.1324517,-0.1891410,9.6246414,7.2748094,-8.1450386,-3.6564887,10.9965124,0.9504932,3.4979107,-87.9465637,-91.2519073,-169.6259613
7960,-1.0893562,-0.2561783,9.5839405,5.2213740,-7.2671757,-2.1068702,11.2742386,0.8666966,4.2903876,-108.0381699,-138.8167877,-235.5954132
7970,-0.9959828,-0.2777260,9.5288744,2.0763359,-5.9923663,-0.1221374,10.4626083,0.6081241,5.7628140,-123.9923630,-150.2061005,-250.1374054
7980,-0.8427547,-0.3256098,9.6701307,0.0534351,-4.4122138,1.2137405,10.1944590,-0.0933734,6.7109132,-133.2824402,-135.8778687,-250.1374054
7990,-0.6703730,-0.3902529,9.7347746,-1.1908396,-3.6793892,2.0381680,9.7036495,-1.6735384,7.4722652,-131.8167877,-104.0687027,-250.1374054
8000,-0.4644727,-0.4046180,9.8353300,-1.5419847,-3.2671757,2.2061069,7.4171991,-3.8905578,8.4203644,-117.7938919,-50.7709923,-250.1374054
8010,-0.4118006,-0.2992737,9.8880024,-1.8167939,-1.9694656,3.2137403,2.2170193,-6.2105274,9.2272062,-90.5267181,8.0381680,-250.1374054
8020,-0.3663110,-0.1651991,9.7946291,-1.4961832,1.2824427,2.2213740,-5.1929970,-8.6885138,8.1617918,-50.7099228,26.5343513,-250.1374054
8030,-0.4860204,-0.1436514,9.7802639,-2.4580152,2.6793892,-0.2977099,-11.5304165,-9.9215212,5.9280128,-6.4427481,-27.0687027,-250.1374054
8040,-0.7924767,-0.1244979,9.8616667,-3.0916030,2.9618320,-0.4274809,-16.5630035,-10.0412302,3.8378856,29.8091602,-149.9465637,-250.1374054
8050,-0.9744351,-0.1723816,9.9047613,-2.7175572,2.1145039,1.3740458,-19.6131992,-9.1745338,3.4141142,40.0534363,-250.1374054,-250.1374054
8060,-1.0749911,-0.1053443,9.9406748,-1.7862595,1.3053435,2.6793892,-19.6131992,-7.2735476,5.4779053,23.3664131,-250.1374054,-250.1374054
8070,-1.0654143,0.0071826,9.9622221,-1.6259542,0.5648855,2.5572519,-19.6131992,-4.2472920,8.8680773,-12.3511448,-250.1374054,-250.1374054
8080,-1.0702027,-0.0191535,9.8856087,-0.6030535,0.0916031,2.5954199,-19.6131992,-4.1299767,11.5136566,-54.9618340,-250.1374054,-250.1374054
8090,-1.1276633,0.0047884,9.8449068,0.0916031,-1.2213740,3.0305343,-19.6131992,-4.0366035,13.1728306,-80.4503784,-250.1374054,-250.1374054
8100,-0.9983770,0.0646431,9.7563219,-0.6488550,-2.1374047,2.6564887,-19.6131992,-2.2457497,12.9453821,-75.2977066,-212.7786255,-247.6946564
8110,-0.9552816,0.0957676,9.7635050,-1.1145039,-3.6030533,1.7633588,-19.6131992,-1.4700323,11.6213961,-47.3358765,-91.4961853,-116.5190811
8120,-0.8068419,-0.0598547,9.7850523,-1.1603054,-4.1068702,0.6870229,-19.6131992,-1.2473727,10.5440102,-10.6106873,15.8320608,-1.0381680
8130,-0.8331779,-0.0454896,9.8784256,-1.5038168,-3.7938931,0.9770992,-19.6131992,-0.8403605,9.8808203,17.8320618,102.1908417,90.8931274
8140,-0.9409165,-0.1484398,9.8449068,-1.6564885,-2.5419848,1.7862595,-17.1064835,-0.9097920,9.2511482,30.5801525,150.4045868,147.4045868
8150,-0.8212070,-0.2130829,9.8449068,-1.4961832,-2.5877862,2.5038168,-13.9102411,-0.3136388,8.8585014,33.7557259,159.6335907,168.8396912
8160,-0.7781116,-0.1628049,9.8856087,-1.5877863,-2.0839694,3.1374047,-11.2311430,0.1460456,8.2120695,35.7175560,143.8854980,165.7480927
8170,-0.7182568,-0.1963235,9.9023676,-1.7938931,-1.5343511,3.1068702,-8.7603388,0.3543400,7.5297260,37.8702278,116.4274826,144.5801544
8180,-0.7038917,-0.1963235,9.7419567,-2.4503818,-0.9007633,3.0992367,-7.0820122,0.6536137,6.6965480,40.4045792,89.2366409,115.3664093
8190,-0.6105183,-0.6727672,9.9622221,-4.4732823,-0.2366412,9.6030531,-4.8482337,0.9169745,4.0318151,27.0916023,-12.0916033,4.7709923
8200,-0.7733232,-0.2873027,9.8760319,-5.0381680,2.0839694,8.1755724,-4.9942794,1.0223188,3.7828193,26.0152664,-24.6641216,-6.8473282
8210,-0.6392486,0.0095768,9.8329363,-5.4427481,1.4885496,8.6488552,-5.0541339,1.0510491,3.7852135,24.3511448,-41.6717567,-15.9160309
8220,-0.4501076,-0.1675933,9.8544836,-5.8015265,1.1374046,7.4656487,-5.1403246,0.9241571,3.9360476,22.8244267,-56.8396950,-24.4580154
8230,-0.3040621,-0.1819584,9.7898407,-6.0534353,2.0152671,4.9923663,-5.1906028,0.7374104,3.8498566,21.0992374,-64.3435135,-32.6030540
8240,-0.2777260,-0.0790083,9.9502516,-5.8778625,2.1679389,2.7099237,-5.5114241,0.7158626,3.9073172,18.6030540,-66.4809189,-39.8244286
8250,-0.2346306,-0.1508339,9.9191265,-5.9236641,3.2519083,0.4198473,-5.9543490,0.8810617,4.1156116,15.0458012,-64.9847336,-44.1526718
8260,-0.4189832,-0.1963235,10.0460186,-5.9236641,4.2900763,-1.3893130,-6.2608056,0.8212070,4.3550305,10.9618320,-57.3206100,-44.4427490
8270,-0.5961532,-0.1987177,9.9957409,-5.2442746,5.3740458,-2.2366412,-6.7396431,0.8188128,4.5202298,6.5572519,-45.0000000,-42.5496178
8280,-0.6392486,-0.2130829,9.9981356,-4.2748094,5.8091602,-3.0000000,-7.3764977,0.6871324,4.6064205,2.0687022,-33.9618340,-38.1450386
8290,-0.7781116,-0.2705434,10.0125008,-3.8167939,5.5114503,-3.9770992,-7.6973190,0.6512195,4.9463954,-2.1145039,-27.0076332,-32.8854980
8300,-0.9026094,-0.2298422,9.9765873,-3.3664122,4.9160304,-4.9618320,-7.9415264,0.4405309,5.1690550,-6.1450381,-24.9007626,-28.7786255
8310,-0.9600700,-0.3112446,9.9526453,-2.8854961,3.6946564,-4.8320613,-8.0899658,0.2537841,5.4611464,-9.6946564,-27.2977104,-26.4885502
8320,-1.1156923,-0.2896969,9.9071560,-2.3282442,1.9694656,-4.7251906,-8.0827837,0.1484398,5.8921003,-11.2748089,-32.0534363,-26.3282452
8330,-1.0390782,-0.2681492,10.0819321,-0.7175573,-0.1145038,-4.1068702,-8.0684185,0.1795642,6.3829093,-10.4503813,-38.3511467,-27.5496178
8340,-0.9648584,-0.2370248,10.0771437,1.4427481,-1.7328244,-3.9007633,-7.9846220,0.0670373,6.7085190,-7.6717558,-42.8778610,-31.1908398
8350,-0.9433106,-0.2657550,10.0172882,3.2671757,-2.3435113,-3.4885497,-7.8697009,0.0646431,6.8665352,-4.0763359,-45.0076332,-34.7557259
8360,-0.9073978,-0.2489957,9.9023676,4.2977099,-2.6030533,-2.8702290,-7.7595682,0.2059003,6.8785062,-1.2748091,-46.3587799,-39.4656487
8370,-0.8499373,-0.2250538,9.8329363,4.4045801,-3.2061069,-2.9923663,-7.9080076,0.2178712,6.8545642,0.7480916,-48.3129768,-41.7862587
8380,-0.8403605,-0.1987177,9.7180147,3.5954199,-2.8778627,-3.1450381,-7.8984308,0.2681492,6.7947097,1.7099236,-50.8015251,-43.8473282
8390,-0.7924767,-0.1963235,9.6701307,2.2366412,-2.3816793,-3.1145039,-8.7292147,0.2777260,6.8330169,0.8396947,-61.8091621,-46.5725174
8400,-0.7086801,-0.1604107,9.6366129,0.3129771,-1.3664122,-3.2977099,-9.5743637,0.5793939,7.0604649,-1.3740458,-74.6412201,-50.6106873
8410,-0.8116302,-0.1891410,9.6988611,-1.2061069,-1.0687023,-3.8931298,-9.8832140,0.3351865,7.2472115,-3.5190840,-82.1145020,-51.2748108
8420,-0.8116302,-0.2968795,9.7970228,-2.1450381,-0.2748092,-3.5725191,-10.6685085,0.3160330,7.4507174,-4.4274807,-76.3129807,-46.9694672
8430,-0.9217629,-0.3256098,9.8185711,-2.5877862,-0.1908397,-2.3969467,-11.1449518,0.2705434,7.6614060,-3.7251909,-60.1526718,-37.2442741
8440,-1.0678085,-0.3471575,9.9382801,-2.5496182,0.1908397,-0.8778626,-11.2790270,0.2466015,7.6781654,-2.1832061,-40.7480927,-23.0229015
8450,-1.0558375,-0.3710994,9.8999729,-2.5648854,0.9694657,0.2137405,-10.8791971,0.2705434,7.6925306,-0.0916031,-20.2824421,-6.4885497
8460,-0.9600700,-0.3591284,9.7898407,-2.3587787,0.5496183,1.2061069,-10.4290895,0.3758878,7.9630742,1.9847329,-1.2748091,9.2671757
8470,-0.9840119,-0.3136388,9.7874460,-2.2519083,-0.1374046,1.9770992,-10.3835993,0.4644727,8.2240410,4.5954199,13.6946564,22.3740463
8480,-0.8595140,-0.2753318,9.9071560,-2.0839694,-1.4351145,2.0534351,-10.7163916,0.4022238,8.4012108,9.0152674,17.7557259,33.6564903
8490,-0.7733232,-0.2609667,9.8329363,-1.7480916,-2.2824428,1.1297710,-11.2215662,0.4165890,8.4586716,14.8549614,10.5648851,41.8931313
8500,-0.7996593,-0.1723816,9.8784256,-1.4274809,-2.4045801,0.2290076,-11.9517937,0.2178712,8.2288294,22.6641216,-10.8091602,47.6717567
8510,-0.7876883,-0.2154770,9.7587166,-1.7709924,-2.0000000,-0.3358779,-12.6437149,-0.1556223,8.2503767,31.1679382,-44.0839691,51.8549614
8520,-0.8666966,-0.1699875,9.7946291,-2.4122138,-1.2519084,-0.2824427,-13.6349087,-0.4668669,8.4347296,40.5648842,-75.2519073,55.5572510
8530,-0.8595140,-0.2082945,9.7994175,-3.4809160,-0.3816794,-0.2519084,-14.8750992,-0.6224893,9.0332766,49.7709923,-93.8854980,62.8396950
8540,-0.8595140,-0.2489957,9.8377247,-3.5954199,0.0916031,0.0687023,-14.8176384,-0.4261657,9.8712435,49.2824440,-65.2671738,74.8854980
8550,-1.0031654,-0.2537841,9.9095497,-3.3358779,-0.8244275,0.4045801,-15.9572725,-0.1101327,10.4410601,21.5572510,46.0458031,103.1908417
8560,-0.8643024,-0.2202654,10.0244713,-2.5114503,-1.2671756,0.8167939,-18.5836983,0.0119709,10.3476868,7.6259542,76.9847336,147.4274750
8570,-0.7948709,-0.2489957,10.0053177,-1.4351145,-1.0458015,0.7251908,-18.8662128,-0.0574605,11.3963413,12.1450386,52.4427490,191.1450348
8580,-0.6871324,-0.3064562,9.8305416,-1.0763359,-0.3511450,0.8091603,-18.0162754,-0.6967092,12.0547438,22.3587780,30.0610695,228.0992432
8590,-0.6177009,-0.3758878,9.8042059,-0.9312977,-0.2824427,0.2977099,-16.6683464,-1.1252691,11.7027979,37.2519073,9.4580154,250.1297760
8600,-0.4860204,-0.4620786,9.8999729,-1.0000000,0.4274809,-0.9312977,-14.9780493,-1.4341195,11.1210098,53.2290077,-9.5419846,250.1297760
8610,-0.4955972,-0.4165890,10.1202393,-0.3893130,0.4427481,-2.1603053,-13.7378588,-1.5490406,10.5655584,66.8167953,-23.4274807,250.1297760
8620,-0.5458752,-0.5147507,9.9574337,0.4122137,0.3206107,-3.4503818,-13.0722742,-1.5035510,10.1130562,78.9923630,-31.7862587,250.1297760
8630,-0.5410868,-0.3926471,9.9670105,1.2900764,-0.5725191,-4.5267177,-12.0499554,-1.4365137,9.4714136,89.0534363,-40.1374054,250.1297760
8640,-0.7062859,-0.3184272,9.9909525,2.1221373,-0.2290076,-5.1297708,-10.6110477,-1.4580613,8.8608952,94.5267181,-40.2213745,250.1297760
8650,-0.7421987,-0.2609667,10.0412302,2.3511450,0.2213740,-5.0305343,-8.8848372,-1.5227045,8.2671366,98.6946564,-36.1450386,250.1297760
8660,-0.9888002,-0.1173153,9.8616667,2.4580152,1.4198474,-4.5648856,-6.8186517,-1.6926919,8.0013809,104.0916061,-25.5496178,250.1297760
8670,-1.1300575,-0.0167593,9.7204094,2.0076337,1.9923664,-3.7099237,-4.9870968,-1.6735384,7.6183109,112.2671738,-11.8091602,250.1297760
8680,-1.3048333,0.0981618,9.6988611,1.2900764,1.6183206,-2.7786260,-2.9927368,-1.6376256,6.9886389,122.5343475,-4.8702292,250.1297760
8690,-1.3790531,0.0670373,9.6150646,0.0152672,0.8854962,-1.5343511,-1.1659702,-1.6998745,6.2201042,131.7404633,-2.1450381,250.1297760
8700,-1.3575054,0.0311245,9.6246414,-0.8091603,-1.0152671,-0.5496183,0.5698171,-1.4317253,5.4850879,138.4656525,4.8473282,250.1297760
8710,-1.2330076,-0.0790083,9.5743637,-1.9007634,-1.9465649,0.0992366,2.3846128,-1.0462608,4.6686692,141.7557220,16.6030540,250.1297760
8720,-1.1539993,-0.1675933,9.7850523,-2.3511450,-3.2748091,0.9389313,3.7373297,-0.4884146,3.8905578,141.8473358,29.8320618,250.1297760
8730,-1.0869620,-0.3663110,9.9550400,-2.1145039,-4.1526718,1.6946565,4.8266859,-0.0023942,3.0454090,138.6183167,49.0534363,250.1297760
8740,-0.9313397,-0.4525018,9.9454632,-1.5648855,-5.0839696,2.5801528,5.2696109,0.3495516,2.7245877,133.7786255,70.6793900,250.1297760
8750,-0.6847382,-0.5674229,10.0651722,-0.4427481,-6.2442746,2.7480917,5.4898763,0.6847382,2.1715298,129.3282471,79.7404556,250.1297760
8760,-0.4405309,-0.5698171,10.0340481,0.6488550,-5.8396945,2.3893130,6.2847471,1.3958124,1.7286048,123.8473282,76.3511429,238.9389343
8770,-0.3064562,-0.5530578,10.0364418,0.8778626,-4.9770994,2.0687022,8.1258793,1.8052188,0.5123565,114.9694672,58.4427490,218.6946564
8780,-0.2082945,-0.5267217,9.8712435,0.7557252,-2.6564887,1.5954199,11.2431135,1.9368993,-1.7860653,99.3206100,37.6488533,184.7251892
8790,-0.2011119,-0.4764437,9.8185711,0.1450382,0.1755725,0.9160305,14.1448717,2.0757623,-4.0054789,72.5801544,35.7862587,137.8854980
8800,-0.2585725,-0.4429250,9.7754755,-1.0458015,1.9923664,-0.5343512,16.0913467,2.4133430,-5.9351954,34.4351158,51.8473282,83.8549652
8810,-0.4477134,-0.3519458,9.7539282,-2.1526718,3.2824428,-1.2442749,16.7377777,2.6551561,-6.9551206,-11.9847326,81.4809189,27.2366409
8820,-0.6392486,-0.3112446,9.8113880,-2.8244274,4.1068702,-1.2061069,16.0841656,2.7293761,-6.5289545,-59.2900772,110.8854980,-28.6793900
8830,-0.7709290,-0.2035061,9.8927908,-2.7938931,4.0305343,-0.9007633,13.8623571,1.7549409,-4.9080882,-104.9694672,119.9236679,-79.1832047
8840,-0.9050036,-0.0694315,9.9287033,-2.0610688,3.2824428,-1.0229008,13.6851873,1.4484847,-2.9855542,-140.2671814,101.9389343,-131.0000000
