timestamp,rxacclX,rxacclY,rxacclZ,rxgyroX,rxgyroY,rxgyroZ,txacclX,txacclY,txacclZ,txgyroX,txgyroY,txgyroZ
0,1.0941446,9.4881725,1.5897418,-2.1145039,-3.8473282,1.1755725,-0.2274480,6.0022330,8.6549950,-4.5190840,-2.7099237,-1.8625954
10,1.0558375,9.5384512,1.6424140,-2.0763359,-2.7175572,2.4503818,-0.2298422,6.0596933,8.7028790,-4.5725193,-1.2442749,-1.4122137
20,1.1827296,9.4714136,1.6663558,-2.4198472,-1.0381680,3.1297710,-0.3303981,6.0549049,8.7387915,-5.0076337,0.1221374,-1.0229008
30,1.1611819,9.3995876,1.7022687,-2.1374047,-0.3206107,3.9694657,-0.2585725,5.9926562,8.9782104,-5.0916033,0.7938932,-0.4961832
40,1.1061156,9.5336628,1.7381816,-0.7480916,-0.1908397,4.9083967,-0.1747758,6.0118098,9.1553802,-3.5877862,0.4885496,-0.7404580
50,1.2066715,9.6485834,1.5993185,0.3969466,-1.0000000,4.9770994,-0.1125269,6.0213866,9.3876171,-1.3587786,-0.8091603,-1.6030535
60,1.3215926,9.7347746,1.6352314,0.7786260,-1.0534351,4.8167939,-0.0837966,5.9735026,9.3804340,0.5343512,-2.5648854,-2.6488550
70,1.4006008,9.8449068,1.6519908,0.8015267,-0.4732825,4.3664122,-0.0837966,6.0261750,9.1769285,2.3053436,-4.9083967,-3.9923663
80,1.3622938,9.8209648,1.6735384,0.8320611,0.6412213,3.9083970,-0.0670373,6.0118098,8.9015961,3.3664122,-6.5954199,-4.4580154
90,1.4341195,9.8401184,1.7740943,1.4961832,1.9770992,3.2977099,-0.0407012,5.9926562,8.7292147,3.8473282,-7.3358779,-5.0000000
100,1.2808913,9.8640604,1.7453641,2.0534351,3.9541984,3.1068702,-0.0766141,6.0285692,8.5831690,3.5648854,-6.9160304,-5.7633586
110,1.3383518,9.9023676,1.5849534,2.1297710,6.0687022,3.6641221,-0.1771700,6.0716643,8.5017672,3.4351146,-6.3587785,-4.8396945
120,1.3359578,9.9933472,1.6783268,2.0076337,8.1145039,4.2595420,-0.2466015,6.0908179,8.3940287,3.1908398,-5.1832061,-3.4427481
130,1.4820032,10.0603838,1.8028246,2.8625953,8.3816795,4.4198475,-0.2274480,6.1434903,8.3317795,2.6564887,-4.5267177,-2.6717558
140,1.6328372,10.0148945,1.8004304,4.4580154,7.2061067,3.9160306,-0.0191535,6.1698260,8.3988171,1.7709924,-4.4580154,-1.8320611
150,1.6208663,10.0867205,1.7956421,6.2595420,5.8320613,2.9847329,-0.0287303,6.1123657,8.3652983,1.4274809,-4.4809160,-1.9465649
160,1.6783268,10.0986910,1.8435259,7.6183205,4.1832061,1.7862595,0.0023942,6.0525107,8.3222027,1.6335878,-4.6335878,-3.0610688
170,1.5681942,10.0962973,1.7621235,8.4503813,2.7786260,0.2977099,0.0622489,6.0956063,8.3844519,1.4961832,-4.6488547,-4.0229006
180,1.5107336,10.0484133,1.6759326,9.0916033,1.9923664,-1.1603054,-0.0263361,6.1578555,8.3988171,0.7328244,-4.9083967,-5.5267177
190,1.4125718,10.0986910,1.6065011,8.6030531,1.8244275,-2.4732823,-0.1125269,6.2679882,8.4203644,0.1145038,-5.7557254,-6.4198475
200,1.3024391,10.0053177,1.5179161,7.5725193,3.2748091,-3.4351146,-0.2561783,6.2919297,8.4874020,0.0458015,-6.6412215,-6.5954199
210,1.2880739,9.9813757,1.4053892,6.3587785,6.2366414,-4.2671757,-0.2896969,6.2943239,8.4826136,0.4427481,-6.4122138,-6.9007635
220,1.0127422,9.9933472,1.4460905,5.2824426,8.7938929,-4.2366414,-0.4405309,6.3446021,8.4945841,0.2519084,-6.3511453,-7.0229006
230,0.9337339,9.9215212,1.4269369,5.2824426,10.1755724,-3.8549619,-0.3710994,6.4260044,8.4682484,0.0458015,-6.3282442,-6.6259542
240,0.9002152,9.9550400,1.3910241,5.2977099,10.8549614,-3.7099237,-0.4596844,6.4499464,8.5233145,0.5648855,-6.2671757,-5.8702292
250,0.7278336,9.9382801,1.2521610,5.1374044,11.2213745,-3.3282442,-0.3687052,6.4379754,8.4945841,0.5496183,-6.2900763,-5.3053436
260,0.6536137,9.9119444,1.3191984,4.5496182,9.6641226,-2.4580152,-0.4022238,6.4882536,8.4682484,0.0687023,-5.8396945,-5.5267177
270,0.6943150,9.8880024,1.3598996,4.3816795,6.8549619,-1.1603054,-0.4740495,6.4236102,8.4658537,-0.4503817,-5.7404580,-5.7404580
280,0.9169745,9.7491398,1.3742647,4.7786260,3.6870229,-0.4885496,-0.4596844,6.5289545,8.6382351,-0.6946565,-6.1297708,-6.1603055
290,1.0318956,9.5240860,1.4460905,5.6183205,0.8702290,0.4809160,-0.5291159,6.5050125,8.7603388,-0.1755725,-6.5419846,-4.9694657
300,1.1994889,9.3253679,1.5370697,6.7709923,-2.1603053,1.7709924,-0.4644727,6.4978304,8.8345594,0.2290076,-6.6488547,-5.2213740
310,1.3479286,9.0332766,1.5035510,8.5877867,-5.7938933,4.4045801,-0.5961532,6.4762826,8.8896255,0.9770992,-5.7862597,-4.6488547
320,1.6567791,8.7052727,1.5705882,10.8244276,-10.2061071,7.7938933,-0.6296718,6.4810710,8.9255381,1.3282443,-5.1908398,-2.6793892
330,3.0813217,7.9367380,0.0502780,2.7938931,-21.2213745,1.1374046,0.0814024,6.6271162,9.5240860,13.5725193,-7.0229006,-4.1984735
340,2.6096666,8.0181408,-0.1508339,-1.6030535,-11.4885492,-2.3358779,0.1580165,6.5528965,9.6940727,16.6030540,-7.0076337,-4.8625956
350,-0.5386927,9.6054878,-0.6153067,-12.7480917,14.4580154,13.3664122,0.2681492,6.6630292,9.1817169,29.1450386,-10.3969469,-11.1908398
360,-0.4716553,10.0484133,-0.6631905,-11.8091602,7.4503818,18.6793900,0.1436514,6.6917596,9.0189114,30.6259537,-10.6564884,-11.8473282
370,-0.2082945,10.4195127,-0.5769997,-11.9007635,-3.9160306,22.3893127,0.1340746,6.7276726,8.7770987,31.7175579,-9.9007635,-12.1145039
380,0.2873027,10.7977943,-0.4525018,-12.8778629,-15.9465647,23.5877857,0.0143651,6.6486640,8.7220325,33.2442741,-8.8473282,-11.7633591
390,0.9145803,11.0252428,-0.0263361,-13.8702288,-25.0839691,22.4427490,-0.1316804,6.5265603,8.7268209,34.5114517,-7.9236641,-11.4656487
400,1.4580613,11.3029680,0.4022238,-14.8320608,-30.0839691,20.0000000,-0.1580165,6.6582408,8.4371233,35.6412201,-6.6793895,-10.5725193
410,1.8243724,11.3628235,0.9217629,-15.5419846,-30.0534344,14.9923668,-0.1508339,6.5289545,8.3150196,37.4961815,-4.7404580,-10.3053436
420,2.1451938,11.3700056,1.5059452,-14.7938929,-24.8320618,8.9694653,-0.3687052,6.3853035,8.5520449,39.2900772,-1.0152671,-9.0305347
430,2.2289903,11.2287483,1.7501525,-12.9541988,-16.5419846,2.5114503,-0.2873027,6.4020624,8.4538832,43.1145020,4.9465647,-7.2137403
440,2.1236460,10.9175043,1.7621235,-11.2290077,-7.9389315,-3.7175572,-0.3351865,6.1817970,8.4993725,49.3893127,12.0687027,-4.5954199
450,1.7908537,10.7092094,1.6950861,-10.6564884,-1.6183206,-8.0381680,-0.3591284,6.1339135,8.3150196,55.3206100,17.3282452,-3.6030533
460,1.5634058,10.4171181,1.7357874,-10.5114508,3.4045801,-11.3206110,-0.4692611,6.1578555,7.9391322,58.4732819,20.3664131,-2.7633588
470,1.2521610,10.2184010,1.8770446,-9.1068707,6.5343513,-13.5877867,-0.4812321,6.2177100,7.5009956,58.6717567,20.0916023,-2.5648854
480,0.8164186,10.0412302,1.9392935,-6.9618320,7.2900763,-13.7938929,-0.6368544,6.3469963,7.0221577,55.6259537,16.4274807,-2.4580152
490,0.6368544,9.7778702,1.7980363,-1.2900764,5.9770994,-11.2290077,-0.6344602,6.5241661,6.4499464,43.6946564,2.8396947,-2.1832061
500,0.7350162,9.6318245,1.7477583,0.3511450,5.2366414,-9.7633591,-0.5985473,6.5888095,6.2751703,36.5267181,-4.2595420,-2.3511450
510,0.7996593,9.4498653,1.5322813,0.8320611,6.5877862,-8.0992365,-0.5578461,6.7252784,5.9543490,28.9007626,-10.6030531,-4.0839696
520,0.8403605,9.3708572,1.2880739,0.3740458,9.0000000,-6.4503818,-0.6440369,6.7085190,6.1219425,22.4885502,-15.3587790,-4.7175574
530,0.9480990,9.2774839,1.2569494,-1.2061069,10.8702288,-4.6335878,-0.6392486,6.8473821,5.9615316,17.5877857,-18.3206100,-4.3969464
540,1.1037214,9.2822723,1.3191984,-2.6030533,12.6106873,-3.1526718,-0.6536137,6.7276726,6.1075773,14.1374044,-19.0000000,-3.8702290
550,1.1755470,9.2726955,1.3742647,-3.2977099,14.5190840,-2.2748091,-0.6512195,6.7779503,6.2536230,12.6564884,-15.3129768,-3.0229008
560,1.4413021,9.0332766,1.3622938,-10.5038166,25.2595425,-3.5114503,-0.5865764,7.0221577,6.3374195,16.7022896,9.5725193,1.2900764
570,1.8219782,9.1242561,1.9776005,-16.7786255,15.0229006,-5.8091602,-0.5171449,8.0157461,6.3541789,-1.3816794,5.7557254,0.4961832
580,1.7812769,9.2535419,1.9368993,-17.0916023,15.4122133,-5.3893127,-0.3591284,8.0061693,6.5026188,-5.9160304,-0.3816794,-2.6641221
590,1.7214222,9.4043760,1.8291607,-17.3206100,14.8091602,-4.7709923,-0.2777260,7.9798336,6.6295104,-8.0534353,-2.5419848,-4.7022901
600,1.6615674,9.4546537,1.8219782,-16.9160309,13.9847326,-3.2748091,-0.2825144,8.0947542,6.7133074,-8.2748089,-2.8931298,-6.9160304
610,1.6591733,9.5528164,1.7429699,-16.4351139,13.3129768,-1.5267175,-0.4405309,8.0899658,6.8258343,-7.6564884,-2.3282442,-7.1984735
620,1.6879035,9.8449068,1.6232605,-14.8549614,6.8625956,1.8473282,-0.7182568,8.1977043,6.7372489,-7.8091602,-3.6412213,-5.4732823
630,1.7309990,9.9622221,1.6495966,-13.9770994,2.9160306,2.5267177,-0.7038917,8.2455883,6.5768385,-9.0534353,-5.5343513,-4.2748094
640,1.7980363,10.0867205,1.7669119,-12.5648851,-1.1679389,2.9160306,-0.4908088,8.2407999,6.5026188,-10.4045801,-8.5267172,-4.5114503
650,1.9464760,10.1250277,1.7238164,-11.2595415,-4.3816795,2.8473282,-0.1867468,8.2144642,6.3517847,-11.7938929,-10.9618320,-6.4427481
660,1.9871773,10.1872759,1.7142396,-10.3358774,-6.1755724,2.1526718,-0.1197095,8.1091194,6.4403696,-12.3587790,-10.8396950,-10.3587790
670,2.0470319,10.2112179,1.7190280,-9.4351149,-7.1832061,1.1297710,-0.1292862,8.1474266,6.3829093,-11.5267172,-11.3358774,-13.6717558
680,1.9752063,10.1920643,1.6807210,-9.1374044,-6.1374044,0.0839695,-0.4812321,8.2360115,5.7915444,-13.6488552,-17.7328243,-17.5038166
690,1.7357874,10.1106625,1.6567791,-9.3740454,-5.0916033,-0.5343512,-0.9073978,8.5017672,5.1235652,-21.9083977,-28.8702297,-20.3129768
700,1.5801650,9.9981356,1.6065011,-10.0458012,-3.7175572,-0.9541985,-1.0749911,8.6478119,4.3981261,-37.9389305,-42.9160309,-21.9083977
710,1.3814473,9.8305416,1.8746504,-10.1145039,-3.6106870,-0.7099237,-1.2138541,8.7555504,3.7493007,-59.3206100,-60.1450386,-21.6641216
720,1.0941446,9.7611103,1.9871773,-9.1526718,-4.1068702,0.0000000,-1.0462608,8.5735922,3.6702924,-81.6030502,-69.7938919,-19.5038166
730,1.0055596,9.7012558,2.0709739,-7.7557254,-4.8015265,1.1450381,-0.7637464,8.3054428,4.2975702,-98.9542007,-69.5343475,-15.9160309
740,0.7206510,9.6485834,2.2744799,-5.5496182,-5.4732823,2.9847329,-0.5841822,8.1258793,5.4108682,-108.2366409,-62.8702278,-10.5801525
750,0.7589580,9.5623922,2.3127871,-4.6106873,-5.2442746,4.0381680,-0.2274480,7.7619624,6.5409255,-110.1832047,-52.1526718,-5.2671757
760,0.7398046,9.6174593,2.4372849,-2.7022901,-4.4274807,5.0763359,0.2849085,7.8337879,7.6997132,-105.4580154,-41.3893127,-0.8549618
770,0.8523315,9.5647869,2.4612267,1.2290076,-2.6183207,7.2977099,1.2210367,7.4219875,8.9087791,-85.0457993,-23.7633591,-2.7938931
780,0.8882443,9.5384512,2.3391230,1.6717557,-0.1450382,8.1374044,1.4389079,7.5728211,9.1362267,-72.2442780,-15.5419846,-7.9236641
790,0.9696468,9.4666252,2.3965836,1.8778626,0.9847328,8.0839691,1.2904681,7.7188668,8.6095057,-62.7786255,-9.3511448,-13.4732828
800,1.0893562,9.3038206,2.5450234,2.8167939,1.1908396,7.7404580,1.1970947,7.9511032,7.9127960,-59.5419846,-9.0534353,-18.1603050
810,1.2306134,9.4642305,2.7509236,4.7404580,1.1908396,7.2900763,1.1061156,8.5831690,7.3788919,-64.4732819,-14.4809160,-22.6717548
820,1.3527170,9.3947992,2.6312141,6.8473282,1.6946565,7.1374044,1.2210367,8.9135675,6.9527264,-73.5801544,-21.1984730,-24.7251911
830,1.4245427,9.3038206,2.6288199,8.4885492,2.8167939,6.7633586,1.5514348,9.2128410,6.7348547,-84.0916061,-28.6717548,-29.4732819
840,1.6256547,9.2415714,2.3822186,9.4122133,4.4274807,6.5343513,2.1595588,9.7539282,7.0006099,-93.1374054,-30.8015270,-35.5877876
850,1.6950861,9.3014259,1.9129574,6.6335878,9.4351149,4.7938933,2.2984219,10.5942879,9.0404596,-91.0229034,-2.7175572,-65.1984711
860,1.6495966,9.2918491,1.8602852,5.7557254,9.5877867,3.9389312,0.8547257,10.9965124,9.3157911,-79.5648880,13.5114508,-72.5572510
870,1.5155219,9.6342182,1.8195840,3.0839694,-1.9465649,3.2366412,0.0239419,11.8608141,1.4006008,-152.9694672,-22.6259537,-28.3893127
880,1.5849534,9.7611103,2.0015423,3.6793892,-3.1297710,3.0229008,0.5315101,10.6780853,1.2234308,-200.6259613,-47.5343513,-31.1526718
890,1.6304430,9.9957409,2.1380112,5.4122138,-4.3664122,2.3664122,1.0295014,9.4163475,2.6934631,-239.0076294,-64.0992355,-35.3129768
900,1.5993185,10.2399483,2.2601149,6.9923663,-4.4045801,0.3511450,1.3335636,7.7380204,4.8099265,-250.1374054,-63.9465637,-38.5190849
910,1.5705882,10.4147243,2.4396791,8.1374044,-3.0229008,-2.7022901,1.0438666,6.7540083,7.2687593,-250.1374054,-44.7633591,-39.3282433
920,1.3479286,10.5033092,2.7126167,9.6183205,-0.0763359,-6.6793895,0.5769997,6.1171541,8.5879574,-236.1908417,-25.8320618,-36.9083977
930,1.1276633,10.6828737,3.1435707,10.9312973,4.0916033,-11.4580154,-0.1412572,4.9152708,6.9982157,-215.9847260,-4.5572519,-37.4580154
940,1.0199248,10.7714586,3.9168940,15.0763359,6.0458016,-15.8091602,-1.9967541,3.9025288,4.3933377,-211.6870270,10.1984730,-35.3511467
950,0.8882443,10.7738523,4.5322008,23.5877857,7.0229006,-17.9236641,-3.7732425,2.4157372,1.8315549,-228.7709961,13.2366409,-28.0000000
960,0.6943150,10.7882175,4.9990678,36.2977104,4.8625956,-16.8244267,-5.3534074,-0.5339043,0.4955972,-250.1374054,2.9160306,-20.8549614
970,0.5003856,11.0228481,4.9487896,50.8015251,1.0610687,-11.2137403,-7.7739329,-2.9975252,2.6862805,-250.1374054,13.3435116,-11.4198475
980,0.7278336,10.9222927,4.5992379,65.1068726,-1.6717557,-2.9312978,-11.7889891,-5.2863703,5.7292953,-250.1374054,49.7938919,18.8625946
990,1.3263810,11.0659437,3.8259149,78.0152664,-5.2900763,4.3740458,-16.3762550,-8.5448618,7.0125809,-242.9770966,98.6870193,76.2442780
1000,1.9009864,11.1569233,2.7413468,86.8931274,-11.3511448,8.4198475,-19.4767303,-11.5112629,6.2248926,-214.2442780,131.4503784,151.4885559
1010,2.6455793,11.1976242,1.1994889,90.3282471,-19.3129768,7.4274807,-19.6131992,-14.3435888,5.3988972,-205.6717529,140.4122162,231.8320618
1020,3.0573800,11.0348196,0.1532281,87.5190811,-25.2900772,2.0381680,-18.8662128,-17.7241840,5.8154860,-216.1832123,124.6641235,250.1297760
1030,3.4452386,10.6996326,-0.4932030,80.9007645,-26.2595425,-6.4122138,-15.0857878,-19.6131992,7.5728211,-227.9541931,93.9007645,250.1297760
1040,3.3087699,10.1657286,-0.6967092,73.3969498,-20.4885502,-15.5877867,-9.9765873,-19.6131992,10.9653873,-226.7022858,60.1832047,250.1297760
1050,2.8395088,9.6294298,-0.9097920,66.2061081,-10.7786255,-23.2900772,-3.2345500,-19.6131992,13.4577389,-206.3664093,28.9389305,250.1297760
1060,2.2720859,9.0189114,-1.3000449,57.8778610,1.0229008,-28.0152664,4.2257442,-19.6131992,15.1743727,-168.3129730,19.5725193,250.1297760
1070,1.6519908,8.6310530,-1.6902977,48.6183205,13.0992365,-30.4274807,10.8744087,-19.6131992,16.3211899,-121.6793900,13.2519083,250.1297760
1080,1.0773853,8.0516596,-1.9129574,39.1374054,25.0916023,-30.3816795,16.7521439,-19.6131992,18.2844257,-67.6793900,39.2519073,206.1603088
1090,0.6057299,7.5991573,-1.9895715,30.8625946,33.8778610,-28.3129768,19.6126022,-17.6643295,19.6126022,-11.7328243,66.5038147,112.7557220
1100,0.0215477,7.3645267,-1.8794388,23.3816795,37.0992355,-24.2824421,19.6126022,-15.9740324,19.6126022,37.3206100,46.5496178,-0.8931298
1110,-0.1867468,7.2304521,-1.7621235,18.5725193,35.7938919,-18.9541988,14.9014349,-15.2629576,19.6126022,84.6717529,-10.3206110,-112.0992355
1120,-0.1795642,6.9790621,-1.3742647,16.2213745,31.6870232,-13.1297712,9.4426832,-13.4768925,16.1727505,117.3206100,-54.1908379,-203.4351196
1130,-0.0287303,6.9886389,-1.1875180,15.9541988,24.6183205,-7.9160304,3.6798692,-12.3468351,11.5375986,127.3587799,-77.6641235,-250.1374054
1140,0.1268920,6.9383612,-1.1444225,15.2977095,17.6946564,-3.1603053,-2.5378408,-11.3077564,9.3564920,125.7862625,-80.0839691,-250.1374054
1150,0.4668669,7.0173693,-1.2737088,12.8625956,14.0381680,0.7175573,-7.1897511,-10.6445665,9.2463598,124.2671738,-70.5648880,-250.1374054
1160,0.8475431,7.0652533,-1.2569494,9.1755724,11.0000000,3.0992367,-10.9534168,-10.2902260,10.1130562,130.4045868,-56.3893127,-250.1374054
1170,1.1707586,7.1897511,-1.1252691,4.9694657,9.0458012,4.8473282,-12.8280668,-9.8496952,9.7850523,142.4656525,-42.1603050,-223.8702240
1180,1.3886299,7.4004397,-1.1492109,-0.1908397,9.1755724,6.4274807,-13.0052376,-9.7012558,9.6366129,165.7251892,-30.2366409,-181.5496216
1190,1.6783268,7.7428088,-1.2162483,-7.1908398,10.8625956,7.2137403,-11.2263546,-9.0260944,8.0684185,183.6793823,-12.6183205,-142.4122162
1200,1.7238164,8.1953106,-1.1707586,-14.8244276,12.9694653,7.7480917,-9.1769285,-7.7667508,7.2543941,191.0000000,0.6488550,-114.6641235
1210,1.8291607,8.6549950,-1.0414724,-22.1755733,15.0305347,8.0916033,-7.2879128,-6.6127515,6.5672617,191.1221313,9.6870232,-98.8778610
1220,1.7669119,9.1218615,-0.8690908,-27.6259537,15.7328243,8.9618320,-6.1267309,-5.5449429,6.6989422,186.4961853,5.5801525,-88.1221390
1230,1.9321109,9.6342182,-0.6368544,-30.9847336,15.6870232,8.6106873,-5.2959471,-4.1802549,6.5265603,175.7175598,-5.2137403,-82.4656525
1240,1.7908537,9.9095497,-0.2322364,-30.2824421,13.4809160,8.1526718,-3.8163381,-2.5953014,6.7061248,161.7557220,-19.4045811,-83.1145020
1250,1.7645177,10.3452930,0.0071826,-26.8244267,9.1908398,7.4503818,-4.2640514,-1.5562232,7.6135225,143.0229034,-17.3587780,-81.7938919
1260,1.8411317,10.7068148,-0.2346306,-23.3664131,5.3282442,8.1068707,-4.6806402,-1.2569494,9.2319946,128.3129730,-19.8015270,-77.8167953
1270,1.8578910,11.0132713,-0.2178712,-19.8167934,1.0152671,7.8625956,-6.0381460,-0.9840119,10.5847120,122.1450348,-24.2519093,-69.6259537
1280,1.8650736,11.2646618,-0.3208214,-16.4427490,-2.9694657,6.5419846,-6.1578555,-0.4429250,12.1553001,125.4045792,-30.9923668,-60.0000000
1290,1.8890154,11.3963413,-0.4309541,-13.6183205,-6.5648856,4.1908398,-6.3422079,0.6799498,12.8544035,133.5954132,-40.9160309,-51.3053436
1300,1.9536586,11.4035244,-0.4740495,-12.6335878,-8.7709923,1.5725191,-6.0836353,1.8818330,13.0722742,140.7404633,-53.8244286,-44.4503822
1310,1.8674678,11.3747940,-0.3423691,-11.5572519,-9.5419846,-1.5801526,-5.7460546,2.4995339,12.2486734,144.5572510,-65.6030502,-35.6870232
1320,1.6783268,11.2718439,-0.1819584,-10.1755724,-9.9236641,-4.0458016,-5.0158267,3.0478032,11.2981796,144.2213745,-71.7099228,-26.2595425
1330,1.5346755,11.0491848,-0.2082945,-9.1603050,-9.6793890,-5.8396945,-4.3837609,3.5074875,10.4937325,139.9770966,-65.4961853,-16.0687027
1340,1.5298871,10.8145542,-0.1580165,-8.0534353,-10.4351149,-7.3893127,-4.4555864,3.3231349,10.4554253,136.2137451,-46.8549614,-0.5877863
1350,1.4317253,10.5679522,0.1580165,-6.6183205,-12.7862597,-8.9618320,-4.1108232,3.0142846,11.1210098,139.0076294,-20.3893127,19.0534344
1360,1.3431402,10.2758608,0.3399749,-4.7251906,-15.7862597,-10.4198475,-3.0956869,3.0358322,11.9134865,153.0763397,9.7633591,36.8015251
1370,1.2928623,9.9981356,0.4333483,-2.8931298,-17.8625946,-11.4503813,-2.0709739,3.4955165,12.1050215,174.6106873,34.6183205,49.3664131
1380,1.2042773,9.6701307,0.5650287,-1.6412214,-19.5038166,-11.9389315,-0.9720409,3.9887197,11.5806942,195.2366486,50.2748108,55.0839691
1390,1.1468167,9.3924055,0.4596844,-1.6335878,-18.2213745,-11.5267172,0.2513899,4.6064205,10.4003592,211.0610657,61.3129768,53.2290077
1400,1.0079538,9.0811605,0.6536137,-1.9236641,-16.4198475,-10.2748089,0.3710994,5.0780759,9.1505919,220.5572510,70.0916061,49.1832047
1410,0.8499373,8.9279327,0.7278336,-1.6793894,-14.1984730,-8.4809160,0.0191535,5.3605900,8.1330614,222.6946564,71.5343475,44.9618340
1420,0.7038917,8.8752604,0.7852941,-1.3816794,-11.3053436,-6.2900763,-0.3974355,5.5832496,6.9934273,215.9770966,63.9923668,41.9007645
1430,0.7206510,8.7124557,0.7900825,-1.8091604,-8.3587790,-4.5419846,-0.6871324,5.7532372,5.9423780,201.3816833,49.5877876,38.9847336
1440,0.5458752,8.7340031,0.7278336,-1.9007634,-6.3969464,-1.7633588,-0.8379663,6.0860295,5.2887645,182.8015289,32.1221390,35.5038185
1450,0.1628049,9.1960821,0.4525018,-10.2061071,0.8625954,7.1068702,-0.2226596,7.6350703,4.7428894,120.8473282,-15.5419846,17.2671757
1460,0.0047884,9.9382801,0.8451489,-16.8015270,3.6564887,10.0381680,-0.9265513,7.4938130,3.5601597,105.1450348,14.5877867,19.5954189
1470,0.0383070,10.1561518,0.7661406,-15.8625956,8.1450386,12.0229006,-1.3910241,7.7284436,2.9640064,91.5419846,14.8778629,23.0305347
1480,0.2130829,10.2207947,1.0079538,-14.4122133,9.5954199,13.3206110,-1.6376256,8.1258793,2.5761478,77.3740463,10.7099237,26.5267181
1490,0.9552816,10.5751352,0.7230452,-9.0687027,8.1755724,12.3893127,-1.9656296,8.4395180,2.1930776,19.0229015,-21.5877857,38.1832047
1500,1.1635761,10.4817610,0.5985473,-8.4809160,6.6870227,11.1068707,-1.6711442,8.2360115,2.6455793,-1.3893130,-34.4580154,40.7709923
1510,1.2306134,10.3165627,0.5434810,-8.3206110,3.8015268,10.2519083,-1.3575054,7.8720951,3.5362179,-16.0610695,-40.8778610,43.2519073
1520,1.4269369,9.9741936,0.7230452,-7.9083967,-1.3587786,10.1297712,-1.1635761,7.6757712,4.2137733,-23.7251911,-41.6488533,44.1374054
1530,1.8507085,9.6342182,1.0151364,-5.4961834,-7.3129773,9.6183205,-1.1252691,7.4004397,4.8242917,-25.3816795,-36.1832047,44.4351158
1540,2.3678534,9.3684635,1.2665262,-0.3893130,-13.3969469,8.7022905,-1.0678085,7.1993275,5.4084740,-24.0305347,-25.2671757,45.7404594
1550,2.6168492,9.0596132,1.2593436,5.8931298,-20.0992374,7.7480917,-1.0151364,6.9718795,5.9064655,-20.3664131,-12.8244276,46.3511467
1560,3.1818779,8.6526003,0.3758878,14.5954199,-29.1755733,9.4351149,-1.4484847,6.7157016,6.4954362,-10.0916033,13.3587790,49.0839691
1570,3.3542595,8.2192526,-0.1221037,13.5725193,-32.0381660,11.3664122,-1.6807210,6.9024482,6.2991123,-8.7022905,20.8320618,50.9389305
1580,3.6822634,8.1378498,-0.3495516,10.9694653,-32.3816795,12.8931293,-1.6974803,7.1945391,6.1195483,-14.3282442,24.1450386,54.0152664
1590,4.0126615,8.1163025,-0.4860204,6.5496182,-30.6106873,12.0305347,-1.3407460,7.6063399,6.0884237,-25.5954189,21.5190830,58.3740463
1600,4.1371593,8.0971489,-0.5913648,1.2366412,-29.0687027,8.1679392,-1.0797794,7.8529415,6.4403696,-37.6183205,13.2061071,63.0228996
1610,4.0868812,8.1522150,-0.4141948,-6.0839696,-23.3664131,3.1068702,-0.6033357,7.8577299,6.7659793,-48.6641235,2.9389312,68.1755753
1620,3.5601597,8.1905222,-0.2489957,-12.0916033,-14.1755724,-2.9618320,0.2561783,7.7595682,7.1658092,-56.3206100,-8.7251911,71.5801544
1630,2.7102225,8.1665802,-0.0646431,-17.0916023,-3.8320611,-7.6412215,1.2976507,7.7045016,7.7452030,-58.2366409,-19.7557259,70.4809189
1640,1.7764885,8.1163025,-0.0981618,-21.0229015,6.0992365,-8.4198475,2.2792683,7.5632443,8.0085640,-55.3816795,-28.1297703,65.0229034
1650,0.8666966,8.2886839,-0.0646431,-23.4809170,14.9083967,-5.5190840,2.8658447,7.5943689,7.9941988,-49.2061081,-31.7862587,54.9312973
1660,-0.0191535,8.6717539,-0.0071826,-24.4656487,20.9083977,0.2137405,3.1507533,7.5991573,7.8289995,-41.1755714,-29.6412220,42.1221390
1670,-0.5171449,9.1577749,-0.1125269,-24.0839691,23.0076332,7.8931298,2.9233053,7.6733770,7.7116842,-33.2442741,-23.8702297,30.9847336
1680,-0.4692611,9.7228031,-0.2178712,-22.9847336,20.1526718,13.9694653,2.5115047,8.0085640,7.4770536,-25.9923668,-13.7709923,23.4198475
1690,-0.3232156,10.3452930,-0.0622489,-21.4198475,12.1755724,17.0839691,1.9871773,8.3054428,7.2735476,-23.0839691,-3.3206108,19.1603050
1700,-0.0909792,10.6445665,0.1651991,-18.9694653,0.5572519,17.7938938,1.5370697,8.4036045,7.5560617,-18.6641216,7.1068702,16.8015270
1710,0.4046180,10.8384953,0.5793939,-16.1297703,-9.6259546,16.5801525,1.1827296,8.4730368,7.6446471,-15.3053436,14.9923668,17.6106873
1720,0.7326220,11.1305866,1.1180865,-12.9541988,-16.8702297,14.6106873,1.0342898,8.3078375,7.8649125,-10.2213745,19.0992374,18.8931293
1730,1.1372399,11.1904411,1.3838415,-9.7862597,-18.5343513,12.6717558,1.1156923,8.1282730,7.6398587,-7.2824426,21.9847336,19.5954189
1740,1.4628497,11.3604288,1.7573351,-7.6717558,-15.3282442,10.3664122,1.2210367,8.1019373,7.5871863,-7.7862597,21.5877857,16.9541988
1750,1.8171898,11.3652172,1.9416877,-4.1603055,-2.6870229,6.6641221,1.1994889,7.6877422,7.6542239,-14.2595415,11.9465647,5.4351144
1760,1.8291607,11.3436699,2.0997043,-1.9007634,2.5038168,5.3358779,1.2521610,7.6494355,8.0133524,-18.7786255,4.4503818,-2.5114503
1770,2.0039365,11.1593170,2.2218077,2.2213740,4.2748094,3.5267177,1.1372399,7.6015515,8.3700867,-21.8396950,-2.6412213,-9.0992365
1780,2.1451938,11.0036945,2.2505381,6.8931298,3.6793892,1.3511450,0.9026094,7.4459291,8.8920193,-22.5572510,-7.0839696,-14.2290077
1790,2.2984219,10.6565371,2.2337787,12.6183205,1.6259542,-1.0305344,0.5267217,7.3764977,9.0979195,-20.5343513,-8.5343513,-16.9083977
1800,2.4013720,10.4386663,2.1308286,18.3435116,-0.2366412,-4.3511453,0.1987177,7.2759418,9.3349447,-16.6946564,-6.1679387,-16.2137413
1810,2.4133430,10.2471304,1.8004304,22.6641216,-1.2748091,-8.1450386,0.3232156,7.2232695,9.5599985,-10.3053436,-1.7862595,-13.3053436
1820,2.1260402,9.9310980,0.9145803,24.8625946,2.2671757,-13.9770994,0.0478838,6.9216018,9.5576038,3.5267177,6.3969464,-5.4656487
1830,1.8866212,9.7395630,0.7421987,23.2900772,5.9770994,-15.6335878,0.2298422,6.8689294,9.2056589,8.3053436,9.0458012,-2.8549619
1840,1.8124014,9.6078825,0.4094064,21.5114498,8.9923668,-17.1297703,0.4884146,6.7683735,8.8776541,9.8625956,10.3282442,-2.0458016
1850,1.2761030,9.2487535,-0.0430954,14.3435116,9.6259546,-19.9618320,0.5674229,6.7300668,8.9303265,12.6870232,7.6106873,-7.2442746
1860,1.0773853,9.2415714,0.0263361,12.1450386,8.3816795,-20.5343513,0.5219333,6.7013364,8.8968077,13.1145039,4.4045801,-10.0534353
1870,0.9480990,9.0907373,0.0023942,7.8244276,4.5038166,-20.0076332,0.5865764,6.7803445,9.3397331,12.9770994,5.7557254,-11.7022905
1880,0.8786675,9.0236998,0.0047884,5.6030536,2.5114503,-18.3893127,0.7086801,6.8018923,9.6773138,18.1984730,10.2213745,-12.5877867
1890,1.0175306,8.9039907,0.0790083,3.4656489,0.5801527,-16.5725193,0.6440369,6.7611909,9.8832140,24.3206100,17.9923668,-13.1908398
1900,1.1492109,8.9231443,0.3854645,2.2061069,-1.9236641,-14.8778629,0.9073978,6.8401995,10.3045912,31.2671757,26.7099228,-15.8473282
1910,1.2042773,8.8608952,0.3471575,0.9770992,-2.0992367,-13.1374044,0.8619082,6.9072366,10.6445665,38.8320618,34.2061081,-20.1145039
1920,1.2258250,8.9111729,0.5506636,-0.3358779,-1.9923664,-11.2213745,0.4596844,7.0844064,10.9438400,47.5038185,39.5267181,-24.4580154
1930,1.2162483,9.0093346,0.5410868,-1.6641221,-0.6870229,-9.3969469,0.0837966,7.4267755,11.0467901,55.2137413,43.5877876,-27.1679382
1940,1.2258250,9.1314383,0.6967092,-2.9694657,0.5038168,-7.3511453,-0.2944853,7.8289995,11.4131012,60.9694672,44.0916023,-28.8015270
1950,1.1563935,9.2343884,0.6727672,-4.0687022,0.8320611,-5.5877862,-0.7086801,7.9774394,11.8368731,67.0000000,41.9389305,-30.5419846
1960,1.0127422,9.3995876,0.7517755,-5.0229006,0.0458015,-3.1068702,-1.6232605,8.0995426,11.8560257,73.5267181,36.8167953,-29.0000000
1970,0.9864060,9.4929609,0.8666966,-5.8473282,-0.6641222,-0.5343512,-2.2385671,8.3940287,11.9637651,78.9160309,25.4198475,-23.7099228
1980,0.9935886,9.7515335,1.3646880,-2.0229008,-3.0687022,3.8854961,-1.9680238,8.5688038,10.6565371,81.2366409,-22.6717548,-18.0000000
1990,1.1132981,10.1322098,0.3495516,18.7022896,-5.3511453,14.8244276,-0.4046180,7.6374645,5.4132624,96.7938919,-24.6106873,-27.6870232
2000,1.2473727,10.0077124,-0.1005560,17.5496178,-4.1297708,15.9541988,-0.5889706,7.5297260,4.7620430,103.3053436,-9.6870232,-23.0229015
2010,1.7764885,10.0603838,-0.3758878,14.8167934,-2.5725191,15.1450386,-0.6320660,7.2472115,4.1036406,107.5801544,2.3206108,-18.1450386
2020,1.8339491,10.0460186,-0.3184272,13.3816795,-2.5114503,12.6641226,-0.5339043,7.1227136,3.2345500,108.9160309,13.4045801,-14.2977095
2030,1.7286048,10.0364418,-0.3040621,13.4198475,-3.6870229,9.4961834,-0.4548960,6.9024482,2.5713594,106.9389343,23.0458012,-11.2900763
2040,1.5227045,10.0125008,-0.5051740,13.3358774,-3.5954199,6.9923663,-0.4046180,6.8234401,2.2577207,103.3129807,31.9389305,-7.4351144
2050,0.6416427,9.6198530,-0.9768293,8.8778629,-1.7175573,6.9541984,-0.4022238,6.6271162,1.7812769,93.9847336,42.2519073,-1.9465649
2060,0.4309541,9.5288744,-0.8858501,5.4045801,-2.5648854,10.4045801,-0.4333483,6.6821828,1.5322813,87.6106873,40.5572510,1.0839695
2070,0.3064562,9.4594421,-0.7182568,3.6106870,-4.1221375,14.1526718,-0.3447633,6.6630292,1.1396341,74.8244247,34.8167953,1.4809160
2080,0.7781116,9.6988611,-0.3447633,4.6488547,2.0229008,16.5496178,-0.9624642,6.7755561,1.4484847,10.3053436,-2.9694657,-7.0076337
2090,1.0079538,9.8449068,-1.2354017,-2.6717558,13.0992365,12.8320608,-1.1228749,6.8593526,2.1787124,-11.8931293,-17.5725193,-5.7862597
2100,0.9816177,9.9957409,-0.9624642,-6.7480917,15.8778629,9.6335878,-1.1779412,6.8162575,2.3606708,-20.5038166,-21.2290077,-4.3893127
2110,0.9888002,9.8592720,-0.7924767,-10.0305347,14.2519083,7.0992365,-1.1683644,6.9168134,2.6168492,-27.8320618,-22.1755733,-2.0152671
2120,1.1037214,9.6461897,-0.7086801,-12.6870232,9.7328243,5.4427481,-1.2856797,6.9575148,2.7054341,-34.4427490,-21.8015270,0.2595420
2130,1.3958124,9.5959110,-0.2657550,-13.5877867,3.1603053,4.2213740,-1.2042773,7.1059542,2.9759774,-39.9923668,-20.3969460,3.3893130
2140,1.8363433,9.3133974,0.0335187,-13.3816795,-5.0687022,2.9541984,-1.2186425,7.2136927,3.1938488,-44.3664131,-18.5038166,5.9465647
2150,2.1140692,8.9877872,0.1556223,-13.3206110,-11.4885492,2.9236641,-1.1085097,7.3214312,3.5505829,-47.1221390,-16.1145039,8.4274807
2160,2.4324965,8.4107876,0.4764437,-13.4045801,-15.9007635,4.4580154,-0.9217629,7.4052281,3.5386121,-49.4351158,-14.9694653,10.0000000
2170,2.6886747,8.0516596,0.7493813,-12.4732828,-18.4351139,7.4198475,-0.7733232,7.5752153,3.5074875,-52.9007645,-14.0229006,10.7404585
2180,3.0573800,7.8098459,0.8906385,-10.4580154,-18.9770985,11.0458012,-0.4644727,8.0037756,3.7540891,-59.2213745,-14.9236641,10.6946564
2190,3.4404502,7.7164726,1.1994889,-6.6564884,-17.1374054,14.6412210,-0.3112446,8.2120695,4.1204000,-64.6335907,-17.8549614,9.6106873
2200,3.9575951,8.1115141,0.7852941,-3.6259542,-14.6183205,16.0305347,-0.0359128,8.5161324,4.3670015,-69.1145020,-18.8015270,8.1603050
2210,4.1180058,8.4467001,0.4213773,-1.1374046,-10.7557249,15.3358774,0.2370248,8.7052727,4.6519103,-72.9847336,-19.1832066,8.4427481
2220,4.2903876,8.7268209,-0.1699875,-2.6488550,-4.8091602,11.1450386,0.5243275,8.8968077,5.3917146,-73.9389343,-16.6106873,8.7862597
2230,3.4643922,9.4570484,-0.7637464,-11.2213745,7.4885497,-2.4885497,0.7374104,8.8656836,6.6103573,-59.8931313,-6.6412215,14.5801525
2240,2.6120608,9.5863342,-0.7469871,-15.2442751,13.7175570,-8.9694653,0.9816177,8.5688038,6.6247220,-50.0228996,-2.0458016,18.0839691
2250,1.5250987,9.9454632,-0.9217629,-18.1221371,20.5496178,-13.1145039,1.4341195,8.3245964,6.2871413,-39.9694672,3.2900763,21.2137413
2260,0.4955972,9.8137827,-1.1276633,-22.0076332,26.0763359,-13.3664122,1.6926919,8.1210909,5.8777351,-31.1374054,6.6488547,22.8244267
2270,-0.3830703,9.7275915,-1.1204807,-26.5114498,27.1603050,-10.3740454,2.2672975,8.0372944,5.2528515,-25.8931293,9.7328243,19.9694653
2280,-0.9816177,9.7922344,-0.7685348,-28.6259537,23.8473282,-4.4732823,2.4779861,8.1474266,4.7979555,-24.9312973,11.9618320,8.7251911
2290,-1.2880739,9.8137827,-0.0095768,-26.8931293,15.1297712,2.7328243,1.9967541,8.3581152,4.1563129,-28.3358784,11.7786255,-5.1832061
2300,-1.2066715,10.0077124,0.5769997,-21.6793900,2.7633588,9.9694653,0.7014975,8.8249826,3.7277529,-38.6641235,6.6564884,-14.0687027
2310,-0.7829000,10.0651722,0.8451489,-15.7480917,-8.2671757,16.5343513,-0.5674229,9.3780403,3.3758070,-55.7938919,-6.0534353,-17.2137413
2320,-0.0670373,10.2255831,1.0175306,-11.2519083,-15.0992365,21.5801525,-1.3431402,10.0005293,3.2201848,-77.6488571,-24.1984730,-16.4732819
2330,0.8140244,10.3381100,1.2066715,-8.9541988,-15.3435116,24.0916023,-1.3239868,10.3572636,3.5242469,-98.1145020,-39.9007645,-13.6412210
2340,1.6184721,10.3644457,1.4293311,-7.7175574,-11.5954199,23.9083977,-0.8666966,10.3548698,4.1156116,-113.7022934,-47.4274826,-11.8549614
2350,2.2936335,10.2279778,1.6735384,-7.2671757,-6.5877862,21.9847336,-0.3016679,10.2902260,5.0445571,-120.7938919,-44.1908379,-13.9007635
2360,2.8179610,10.1561518,1.8961980,-6.2977099,-1.8244275,18.4580154,0.4213773,10.5272512,6.5528965,-117.0610657,-30.9770985,-19.2061062
2370,3.0813217,9.9191265,2.0973101,-4.6488547,2.6488550,13.9236641,0.9050036,11.2239599,7.4243813,-106.6564865,-12.9541988,-28.1679382
2380,2.5450234,9.3780403,1.1587877,6.8244276,11.3893127,1.2824427,2.9807658,15.6484222,3.9743545,-7.5801525,1.1221374,-107.9923630
2390,2.4684093,9.3876171,1.0366840,6.6183205,9.7099237,0.0229008,2.8873925,17.1184540,1.3239868,-7.6793895,11.6564884,-121.4961853
2400,2.5234756,9.3995876,0.8092360,6.2290077,8.6564884,-1.2366412,2.4109488,18.3538570,-0.9600700,-16.5114498,43.3053436,-127.3282471
2410,2.4229198,9.2750902,0.5769997,4.8167939,7.6412215,-2.6106870,0.7038917,19.5365868,-2.2984219,-33.4809151,87.2366409,-120.5267181
2420,2.3510940,9.2343884,0.3519458,2.2748091,6.8473282,-3.6412213,-1.3527170,19.3761749,-1.8985922,-52.1832047,132.0229034,-100.7938919
2430,2.2337787,9.1481981,0.3160330,-1.0305344,6.1832061,-4.0229006,-2.2720859,18.7129841,0.2346306,-63.4732819,166.8625946,-76.3358765
2440,2.1523764,9.1625633,0.2202654,-4.4503818,4.9160304,-4.3358779,-1.9871773,17.8486824,2.5474176,-63.7022896,194.4427490,-57.6488533
2450,2.1499822,9.1170731,0.4309541,-6.5496182,3.8167939,-4.4351144,-1.7980363,16.4337158,3.7205703,-57.5496178,211.2824402,-47.2595406
2460,2.1308286,9.0763721,0.6607963,-7.3435116,2.6412213,-4.1984735,-1.2976507,14.6739874,3.5960727,-52.8015251,220.0381622,-45.6259537
2470,2.1906834,9.1051025,0.8307837,-7.6030536,1.6870229,-4.0839696,-0.8283895,12.6054077,2.9185169,-52.7328262,221.9007568,-54.8702278
2480,2.1356170,9.2942438,0.6440369,-8.4809160,2.0229008,-3.8625953,-0.6607963,10.6804790,1.9392935,-56.5954208,219.9389343,-70.8854980
2490,2.0326669,9.4019823,0.6368544,-9.5114508,3.4274809,-4.0458016,-1.3527170,8.3629036,0.1508339,-72.0229034,206.8778687,-90.3664093
2500,1.9392935,9.4642305,0.7469871,-11.0152674,4.1297708,-3.9847329,-2.2361729,5.3438311,-1.5370697,-98.0229034,187.2748108,-118.2671738
2510,1.8339491,9.5073261,0.8810617,-11.1221371,4.4198475,-3.5877862,-3.4835455,2.1380112,-2.9783716,-131.3511505,168.3282471,-148.8396912
2520,1.7309990,9.5456333,0.9792235,-10.0000000,4.3282442,-2.6259542,-5.7819676,-1.5681942,-3.9384418,-170.7938995,148.5648804,-176.9694672
2530,1.7046629,9.4857788,1.0079538,-8.6870232,4.8396945,-1.0610687,-9.3014259,-6.1530671,-3.6367738,-210.5267181,119.8549652,-199.8931274
2540,1.5921360,9.6390066,0.9504932,-7.9389315,4.7328243,1.2748091,-11.7387114,-9.6629486,-2.7006457,-249.3893127,94.3435135,-212.1755676
2550,1.5705882,9.6318245,0.9816177,-7.2213740,3.8778627,3.8015268,-14.9421368,-13.0866394,-1.2545552,-250.1374054,80.2748108,-205.1297760
2560,1.8124014,9.6557665,0.9409165,-6.1679387,3.2442749,6.2977099,-18.2389355,-16.6300392,1.5466464,-250.1374054,78.8702316,-168.6259613
2570,1.9321109,9.7922344,1.0366840,-4.5496182,1.6106870,8.0687027,-19.6131992,-19.0361996,4.6590929,-250.1374054,95.2137375,-111.2900772
2580,2.1356170,9.7275915,1.0223188,-2.8473282,0.2595420,9.4580154,-19.6131992,-19.6131992,8.2192526,-250.1374054,117.1526718,-46.3282433
2590,2.1835008,9.7587166,1.0989330,-0.7786260,-0.8931298,9.9923668,-19.6131992,-19.6131992,11.3604288,-250.1374054,142.7022858,15.8854961
2600,2.2074428,9.7323799,0.9457048,0.4961832,-0.3053435,10.5038166,-17.8343182,-19.6131992,15.3323889,-250.1374054,165.3282471,73.5267181
2610,2.2960277,9.7922344,1.0725969,1.3969465,0.4045801,10.5572519,-14.3388004,-16.9748039,19.2540722,-228.4427490,175.6946564,122.8549652
2620,2.3558824,9.8401184,1.1204807,2.9541984,0.9618320,9.7175570,-10.3381100,-13.7618008,19.6126022,-194.9313049,156.4351196,163.3816833
2630,2.2649033,9.8042059,1.1324517,4.6870227,1.3969465,8.7022905,-4.6088147,-11.7794123,19.6126022,-166.6717529,124.2977066,185.1908417
2640,2.1858950,9.7898407,1.1803354,6.5419846,2.0000000,7.3740458,0.7661406,-10.9486284,19.6126022,-128.2137451,79.9542007,167.5496216
2650,2.0829449,9.7970228,1.2306134,8.7404585,1.6412214,6.6564884,3.6631098,-10.5033092,19.6126022,-66.6564865,16.2900772,113.5038147
2660,2.1284344,9.8760319,0.9552816,12.2824430,1.2977099,4.9770994,1.7333932,-9.3540983,19.6126022,93.2213745,-112.1603088,-4.0000000
2670,2.2864509,9.9741936,0.9193687,13.2442751,1.9847329,3.1145039,-0.8978211,-8.9231443,15.3874559,139.9236603,-150.7480927,-44.5343513
2680,2.4851687,10.1968527,0.8762733,13.8854961,0.5190840,0.1068702,-3.7708483,-8.2862902,9.8640604,150.3435059,-174.5954132,-72.4885483
2690,2.7724714,10.2495251,0.5674229,13.8396950,-0.7175573,-5.4503818,-7.2208753,-7.5129666,7.0844064,153.0686951,-183.1755676,-85.2671738
2700,2.7174051,10.3716288,0.5650287,13.5343513,-3.1603053,-12.4045801,-9.9574337,-6.6606350,4.7357068,144.4580078,-173.9313049,-81.0687027
2710,2.8778157,10.7594872,0.4213773,12.8625956,-11.0229006,-21.3053436,-11.8488436,-5.7340837,3.8929520,129.7709961,-164.0763397,-65.5725174
2720,2.9592183,10.5966825,0.3974355,11.5954199,-16.7099228,-30.6870232,-12.7442703,-4.4723458,3.3279233,114.0687027,-159.0000000,-44.3358765
2730,2.7628946,10.5296450,0.3471575,10.2824430,-20.0381680,-38.6564903,-13.1225519,-3.5841017,3.0430148,96.9312973,-159.2977142,-17.4045811
2740,2.6407909,10.3165627,0.4357425,8.9770994,-20.9312973,-43.2061081,-12.4354200,-3.0047078,2.8083842,74.3893127,-161.0992432,9.0763359
2750,2.1164634,10.1585455,0.3543400,8.0534353,-16.8015270,-43.6717567,-10.5727406,-2.2074428,2.9089401,50.8015251,-167.6564941,31.0000000
2760,1.9680238,10.2327662,0.0478838,3.5877862,-7.6946564,-42.0534363,-8.0492649,-1.5681942,3.6798692,34.9007645,-166.7709961,39.3587799
2770,1.8507085,10.1058741,0.1436514,-0.0992366,2.9847329,-39.3664131,-5.7843618,-0.6871324,4.9942794,29.1984730,-143.8167877,35.5496178
2780,1.8291607,9.9837704,0.0526722,-1.8396946,8.1297712,-36.6488533,-3.8929520,0.4908088,6.9646969,37.7709923,-106.9083939,22.7786255
2790,1.6831152,10.0532017,0.3926471,-1.5877863,9.1679392,-32.0228996,-6.1123657,2.5067163,10.5248566,82.2137375,-29.5801525,-7.8702292
2800,1.6926919,9.7395630,0.4572902,0.4045801,5.6870227,-31.3969460,-7.9678626,2.4995339,11.5184450,108.8396912,-2.3664122,-10.2137403
2810,1.7333932,9.6557665,0.4764437,2.6641221,1.6946565,-31.1526718,-10.0843258,2.8371146,11.6429434,135.8244324,6.3206105,-2.8396947
2820,1.2617378,9.6437950,0.5722113,4.6870227,1.0458015,-30.2137413,-11.0994625,2.9137285,10.3117743,150.9847260,-5.7022901,10.0687027
2830,0.9720409,9.4115591,0.8427547,8.1755724,1.6641221,-23.2137413,-10.9821472,3.1699069,8.8154058,149.5725250,-30.2366409,21.4427490
2840,1.5227045,9.6102762,0.6751614,10.9694653,-2.0534351,-20.3053436,-9.9095497,4.0940638,7.0604649,135.6564941,-59.5190849,28.7862587
2850,1.2928623,9.6773138,0.5243275,13.9160309,-5.7328243,-18.4580154,-8.2216463,4.8889351,5.8011212,111.6870193,-84.0992355,32.1984749
2860,1.1204807,9.4426832,0.0909792,14.9618320,-8.2137403,-14.0763359,-6.2392578,5.6071916,4.9368186,82.3893127,-101.0457993,34.0000000
2870,1.2042773,9.3947992,-0.0191535,13.3816795,-8.4732828,-10.9389315,-4.5178356,5.9184365,5.6550756,56.6106873,-109.4732819,31.5496178
2880,1.1180865,9.5169029,0.1484398,11.7862597,-7.5496182,-7.9618320,-3.9073172,5.9830794,6.3972740,40.5877876,-105.6870193,27.0229015
2890,1.0869620,9.5336628,0.2202654,10.6870232,-8.4351149,-5.1984735,-4.1251884,5.3318601,7.7260494,36.3129768,-97.9160309,25.1221371
2900,1.1276633,9.4666252,0.2633608,7.1603055,-10.0534353,-4.5343513,-3.4212968,5.8418221,7.3980455,57.3969460,-87.9083939,36.2061081
2910,0.4261657,9.2176294,0.4955972,-1.2595420,-1.7480916,-5.2748094,-1.1994889,6.1075773,6.6366930,45.1755714,-47.3587799,56.1297722
2920,0.0646431,9.0524302,0.9385223,1.3969465,7.1679387,-3.8091602,-0.3016679,6.1961622,7.6159167,39.3129768,-35.2519073,48.0381660
2930,0.0143651,9.2583303,0.2059003,2.7557251,7.5801525,-5.5038166,-1.9871773,9.2439651,3.8570392,38.1526718,-40.0687027,25.3511448
2940,0.3280039,9.3493099,0.0574605,-1.6030535,10.3129768,-6.3893127,-0.8307837,10.9414454,3.0382264,-16.5725193,-44.6870232,21.7099228
2950,0.4932030,9.2535419,0.0143651,-3.4961832,10.3740454,-6.3587785,0.0502780,11.0994625,4.2640514,-33.0839691,-35.7099228,14.4580154
2960,0.9576758,9.1936874,0.0574605,-4.8549619,7.6183205,-6.3816795,-0.0550664,11.4945040,6.5385313,-31.5954189,-24.6488552,8.5190840
2970,1.3455344,9.1386213,0.0263361,-5.4351144,4.4503818,-6.9083967,-1.0510491,11.5806942,7.5704269,-15.4885492,-17.4885502,10.3282442
2980,1.5825592,8.9734221,-0.1795642,-5.6564884,-3.4503818,-10.3587790,-1.1875180,11.7411051,6.5002246,21.0763359,6.4274807,24.4122143
2990,1.5514348,8.8130112,-0.4285599,-6.7786260,-6.9465647,-10.8167934,-1.0223188,11.8416615,5.0254035,25.7938938,15.6946564,30.6641216
3000,1.2952565,8.5257082,-0.4165890,-7.8320613,-10.7099237,-8.8549614,-0.4644727,11.6692791,4.0389977,17.7480907,17.0534344,35.8702278
3010,1.3120158,8.2479830,-0.3950413,-7.1984735,-15.3969469,-3.6030533,0.2226596,11.4968977,4.0366035,2.8854961,13.5648851,37.6183205
3020,1.5203103,7.9822278,-0.1651991,-4.3816795,-21.6030540,3.5648854,0.9744351,11.1832590,4.5226240,-11.3435116,9.8854961,33.7404594
3030,2.3750360,8.2120695,0.0933734,5.5190840,-30.9389305,17.1984730,2.1356170,10.0651722,6.4355812,-16.8091602,15.5038166,18.5801525
3040,2.9376705,8.5568333,-0.1364688,9.8396950,-31.3282452,19.2900772,2.4205256,9.5767574,7.0245519,-7.8167939,26.6946564,7.7480917
3050,3.1818779,9.6030941,-1.3790531,1.5725191,-13.4961834,4.0687022,1.8842272,9.3373384,6.2727766,8.3435116,56.7862587,-26.6946564
3060,1.1994889,10.0986910,-1.8171898,-13.7786255,6.1755724,-5.9465647,1.7190280,10.5679522,6.1817970,9.6641226,58.6412201,-43.6335869
3070,0.1149211,10.2710724,-1.8602852,-20.1984730,11.4809160,-5.5801525,1.5945302,11.4801388,5.0732875,7.7480917,61.9083977,-53.4274826
3080,-0.6248835,10.3907824,-1.5466464,-24.3282452,11.0000000,-2.5343511,2.3127871,10.8337069,4.8386569,6.7862597,59.0228996,-68.8625946
3090,-1.2521610,10.4889441,-0.9768293,-25.1679382,5.4274807,2.5343511,0.2011119,13.8216553,3.9144998,1.3129771,67.6641235,-79.7786255
3100,-1.3455344,10.6852674,-0.5746055,-23.2824421,-5.7938933,7.7175574,-0.8786675,14.3172531,3.1938488,-1.4503816,88.5114517,-77.8778610
3110,-0.9457048,10.8839855,-0.1340746,-20.0763359,-19.0000000,9.9083967,-2.1068866,14.1855726,2.0757623,-3.8473282,122.6183243,-63.0610695
3120,-0.5267217,10.9749641,0.3208214,-16.7099228,-30.3969460,9.2824430,-2.1787124,14.1065645,1.4508789,-8.7862597,155.6030579,-46.0763359
3130,-0.1867468,10.9534168,0.8834559,-14.3740454,-36.2213745,6.9770994,-1.4197544,14.0706511,2.0973101,-6.7480917,189.3740387,-33.0381660
3140,0.0933734,10.7355452,1.2641320,-12.9847326,-34.6259537,4.4809160,-0.6392486,13.3284531,2.2936335,-1.6106870,217.9160309,-22.1068707
3150,0.2992737,10.5487986,1.8028246,-11.6030531,-27.6946564,2.1832061,-1.6184721,14.3220415,1.6615674,-0.3740458,237.7022858,-14.3435116
3160,0.3782819,10.4075413,2.0302727,-10.3435116,-18.4198475,0.4809160,-1.1468167,13.1776190,0.2059003,-9.2977095,249.2824402,-12.9618320
3170,0.3926471,10.1154509,2.2098370,-9.4809160,-7.5801525,-0.1221374,0.2082945,11.8081427,-1.1180865,-29.1374054,237.3587799,-26.3664131
3180,0.3495516,10.1465750,2.3415172,-8.0305347,0.8931298,-0.0152672,0.6440369,10.1298151,-2.2960277,-51.9236641,226.8854980,-53.6488533
3190,0.4189832,10.1082678,2.5138988,-5.1984735,5.8091602,0.4656489,0.1005560,7.8361821,-2.4660151,-69.9007645,218.3206177,-86.6412201
3200,0.5554519,9.9981356,2.6814921,-1.0381680,6.9007635,0.7938932,-1.2521610,4.7620430,-2.4444675,-82.5496216,215.4809113,-115.0839691
3210,0.8714849,9.9215212,2.6503677,3.8854961,5.2290077,0.1984733,-3.3662305,0.9361281,-2.8538737,-89.4961853,213.5954132,-145.1297760
3220,1.1947005,9.8616667,2.6551561,9.0458012,3.1450381,-1.7175573,-6.2488346,-2.7940190,-3.5649481,-99.0916061,200.8549652,-176.3587799
3230,1.4532729,9.8305416,2.3750360,13.6259546,1.7480916,-5.0534353,-9.6940727,-6.7133074,-4.3741841,-117.4580154,188.0763397,-197.5954132
3240,1.5298871,9.8137827,2.0853391,16.3435116,2.8931298,-8.6793890,-15.1169119,-10.4673967,-5.1283536,-145.0686951,178.0305328,-200.3511505
3250,1.4652439,9.8233595,1.5993185,16.6564884,7.2137403,-11.6259546,-19.6131992,-13.9198179,-5.3558016,-181.2977142,159.3893127,-171.5648804
3260,1.2784972,9.8592720,1.2617378,14.7938929,13.4198475,-13.9236641,-19.6131992,-17.5302544,-4.1826491,-221.3511505,143.8854980,-113.6946564
3270,1.1228749,9.8544836,0.9504932,12.2595415,20.3206100,-14.7862597,-19.6131992,-19.6131992,-1.9129574,-250.1374054,139.5954132,-53.2290077
3280,0.9409165,9.7874460,0.8475431,10.8091602,25.3816795,-15.4351149,-19.6131992,-19.6131992,1.7525467,-250.1374054,138.7175598,-12.6793890
3290,0.7014975,9.8496952,0.7709290,11.5801525,25.4885502,-14.5877867,-19.3905411,-19.6131992,11.0372133,-250.1374054,156.4198456,13.8167934
3300,0.6009415,9.8712435,0.3902529,13.0229006,21.0534344,-12.1832066,-14.6907463,-14.7793312,19.6126022,-250.1374054,211.3358765,25.5954189
3310,0.7493813,10.0460186,0.1292862,13.4885492,14.2595415,-10.5572519,-11.8919392,-10.5104914,19.6126022,-226.5114441,170.5114441,38.0000000
3320,0.6943150,10.6445665,-0.0407012,13.2366409,7.9541984,-9.9083967,-9.8832140,-9.0428534,19.6126022,-85.2366409,114.8396912,44.6717567
3330,0.7996593,11.1377697,-0.0694315,11.9770994,4.4198475,-10.4427481,-9.0596132,-8.7747040,19.6126022,57.9694672,38.0763359,38.8549614
3340,0.9433106,11.2814207,0.0143651,10.3282442,4.3664122,-12.1374044,-8.8058290,-8.4754305,19.6126022,161.2671814,-32.1755714,28.4351139
3350,0.9480990,11.4777441,0.3926471,10.1145039,7.2061067,-13.1450386,-9.3517036,-8.0660238,17.7648849,204.6793823,-87.1832047,20.3129768
3360,0.8834559,11.4968977,0.4788379,12.0839691,8.7022905,-14.3358774,-10.3021975,-7.6207051,10.1274214,204.0229034,-134.4885559,10.6870232
3370,0.9409165,11.5423870,0.4381367,14.3969469,8.7862597,-15.6564884,-11.9637651,-7.1753860,5.3773494,182.3587799,-176.0534363,1.2671756
3380,0.9050036,11.4681673,0.3782819,15.5419846,8.3740454,-19.1374054,-13.2685976,-7.0676475,4.2855992,172.7480927,-197.7099304,4.6183205
3390,0.9289455,11.2024126,0.6177009,15.5496187,9.0763359,-24.6412220,-13.7977142,-7.0676475,2.9424589,169.1603088,-209.1526642,12.5419846
3400,0.7350162,10.5823174,0.7445929,14.8091602,11.2900763,-30.9618320,-13.4433737,-6.9694853,1.4006008,165.6412201,-217.9770966,21.2595425
3410,0.2059003,10.0196829,0.7685348,13.7480917,12.8473282,-35.5877876,-12.4545736,-6.3469963,0.2609667,159.8549652,-217.6030579,31.0992374
3420,-0.2896969,9.1434097,0.9289455,13.0305347,15.0229006,-36.9923668,-10.5511932,-4.9224534,-0.8714849,147.2977142,-213.3587799,37.9160309
3430,-0.9217629,8.5113440,0.9648584,14.0000000,17.6793900,-34.0610695,-9.2128410,-3.3470769,-0.6368544,130.1145020,-216.2061005,41.3587799
3440,-1.1563935,8.0061693,0.9959828,17.1679382,19.8396950,-27.9770985,-7.9534974,-1.5610116,-0.4213773,110.2595444,-223.7480927,39.3206100
3450,-1.2952565,7.5225434,0.8427547,21.9618320,21.0687027,-20.5801525,-6.1722202,0.2633608,-0.0861908,90.1755753,-227.7480927,33.9771004
3460,-1.2282192,7.3621325,0.3639168,26.7786255,21.4427490,-13.1679392,-4.1706781,2.0781565,0.4644727,73.1145020,-218.1221313,20.9770985
3470,-1.0534433,7.2089043,-0.2442073,28.4656487,19.9694653,-5.5801525,-3.1531475,3.3782012,1.9345051,62.1450386,-196.9923706,-0.5419847
3480,-0.6631905,7.2089043,-0.8164186,27.5954189,15.5954199,0.1832061,-3.6583214,4.1994085,3.7397239,60.8778610,-170.7175598,-26.1145039
3490,-0.1819584,7.3956513,-1.0749911,25.2900772,10.4580154,3.6412213,-5.4755111,4.8745699,4.8123207,66.1374054,-146.2977142,-44.1832047
3500,0.0933734,7.4555058,-1.4604555,21.6717548,6.0000000,6.3358779,-7.5943689,5.6311336,4.7620430,70.2977066,-130.6259613,-51.0763359
3510,0.3902529,7.4387465,-1.8028246,15.5114508,4.2061067,8.3893127,-9.4163475,7.0556765,4.3813667,67.1679382,-124.6259537,-44.3206100
3520,1.0318956,7.2783360,-1.7429699,0.7175573,5.7862597,11.0839691,-8.8297710,9.3852224,3.9743545,41.4198456,-128.3129730,-8.0687027
3530,1.2808913,7.4124107,-1.6065011,-4.9465647,6.8396945,11.2442751,-7.0796180,9.5025377,4.5537481,32.1832047,-112.4351120,7.7786260
3540,1.2665262,7.5991573,-1.5059452,-8.5038166,7.5572519,11.7557249,-5.8130918,8.9542685,5.5473371,32.3740463,-80.4427490,20.0610695
3550,1.3096216,8.0301113,-1.5873476,-11.5190840,7.0305343,12.3053436,-5.6024032,8.0205345,6.0764527,38.8931313,-47.0687027,28.9312973
3560,1.0869620,8.6549950,-1.7118455,-14.7175570,5.9160304,12.9694653,-5.3605900,6.8928714,6.7252784,44.9923668,-22.3740463,36.0381660
3570,1.0534433,9.4355011,-1.9416877,-19.8396950,5.1450381,13.4503813,-5.5904322,6.1961622,6.7037306,49.4274826,-8.8854961,37.9771004
3580,1.0725969,10.0651722,-1.9129574,-26.0916023,4.1526718,12.5114508,-5.4755111,5.9854736,6.9814563,51.2748108,-10.6793890,38.1068687
3590,1.3144100,10.6182299,-1.5993185,-31.0076332,2.7557251,9.6870232,-5.3558016,6.2081332,6.5744443,47.4274826,-22.1145039,36.4198456
3600,1.2784972,10.9965124,-1.0151364,-33.0458031,-0.4427481,5.1603055,-5.0373745,6.4044566,5.6838059,34.9312973,-40.4045792,34.6870232
3610,1.2449785,11.2550850,-0.5458752,-32.1374054,-3.9923663,1.0381680,-4.1084290,7.2208753,5.5042415,16.8244267,-60.4351158,32.6488533
3620,0.9959828,11.5519638,-0.0718257,-29.5496178,-6.2748094,-2.4122138,-3.3039815,7.6638002,5.9806852,-0.7404580,-74.7404556,32.1450386
3630,0.8666966,11.6309719,0.1508339,-25.9847336,-6.6641221,-4.5954199,-2.6431851,7.2256637,6.7540083,-9.2595415,-79.4961853,30.2977104
3640,0.6943150,11.6190014,0.2944853,-21.7786255,-6.8015265,-5.7557254,-2.0613971,6.5768385,7.5393028,-7.7633586,-71.1297684,27.9389305
3650,0.6751614,11.4753504,0.5171449,-17.9541988,-6.9083967,-7.1297708,-1.7453641,5.9878678,8.1163025,2.7786260,-52.1526718,24.3587780
3660,0.7278336,11.2838144,0.5362985,-14.3129768,-7.2290077,-8.0152674,-1.6807210,5.5928264,8.2455883,18.8244267,-28.6946564,19.0229015
3670,0.6703730,10.8983507,0.6727672,-10.4732828,-7.5038166,-8.3969469,-2.2337787,5.2791877,7.6494355,30.7328243,-11.5190840,13.1908398
3680,0.3806761,9.9526453,0.5913648,0.6946565,-11.1145039,-9.1603050,-2.6575503,6.9239960,6.7348547,26.3969460,-15.6412210,-0.2137405
3690,0.2992737,9.7275915,0.4453192,1.9389313,-10.1984730,-9.4122133,-2.6790979,7.1514440,6.3446021,21.0381680,-21.9389305,-3.5419848
3700,-0.1939293,9.0883436,0.3854645,1.4961832,-6.8244276,-8.0763359,-3.1339941,7.2974896,6.3206601,10.6717558,-23.8625946,-10.3358774
3710,-0.6129125,8.6765423,0.4884146,1.8396946,-7.9847326,-2.2900763,-4.7476778,6.2679882,6.9239960,-0.1297710,-20.0076332,-5.8244276
3720,-0.2873027,8.6861191,-0.0766141,-3.2366412,-4.6335878,2.9694657,-4.8793583,6.4427638,7.8864598,-17.6030540,-48.4961815,-2.7175572
3730,-0.2011119,8.7842808,-0.1388630,-7.6106873,-1.9389313,2.9618320,-4.4100971,6.3350253,8.0013809,-19.7786255,-50.8931313,0.5572519
3740,-0.1244979,8.8177996,-0.0814024,-12.5801525,-0.5190840,2.6412213,-3.8666160,5.9854736,8.1593981,-18.8473282,-47.1755714,1.4885496
3750,-0.0095768,8.9566631,0.1628049,-16.4656487,0.1603053,2.4656489,-3.4117200,5.7628140,8.1474266,-14.0839691,-36.3129768,0.9923664
3760,0.0933734,9.0524302,0.4548960,-18.5877857,0.2824427,1.7938931,-3.1148405,5.7915444,8.0756006,-7.2290077,-21.1908398,0.3664122
3770,0.2035061,9.1027079,0.8164186,-18.9541988,-0.1603053,1.5801526,-3.1531475,5.5449429,8.0037756,-1.0305344,-4.9236641,0.7633588
3780,0.3040621,9.3445215,0.7302278,-19.1145039,-0.1145038,1.6488550,-3.3375001,5.4156566,8.2312231,2.4885497,13.2519083,2.8625953
3790,0.4141948,9.4929609,0.7805058,-19.3511448,-0.2900763,0.8549618,-3.4859397,5.5784616,8.9231443,8.2824430,29.1603050,6.9694657
3800,0.5817881,9.6294298,0.8666966,-19.8854961,-0.0305344,-0.3206107,-3.4260850,5.5401545,9.2248116,18.0152664,40.7022896,10.9236641
3810,0.6200951,9.8760319,1.1228749,-19.4198475,0.8549618,-2.8702290,-2.9209111,5.4635406,9.1338329,32.7099228,44.0228996,8.1526718
3820,0.5841822,9.9478569,1.1827296,-17.9923668,1.9694656,-3.6717558,-3.2728570,5.4707227,9.2200232,34.4427490,33.7709923,0.5572519
3830,0.4836263,10.0699606,1.1013272,-16.3358784,3.5496182,-3.7404580,-3.6631098,5.8394279,8.9518747,33.8015251,21.8931293,-7.5954199
3840,0.2992737,10.1824875,0.9959828,-15.0152674,4.9770994,-3.6870229,-3.8809812,6.0261750,8.7962523,34.3053436,14.2213745,-9.9618320
3850,0.2011119,10.2375546,0.7613522,-13.8473282,6.4732823,-3.3740458,-3.9216824,5.9591374,8.4514885,35.6946564,11.7938929,-9.1984730
3860,0.1053443,10.4099360,0.7158626,-12.4427481,6.0458016,-2.7862597,-3.9839313,6.0788469,8.1785507,36.2137413,14.2977095,-8.1374044
3870,-0.0359128,10.5200682,0.6440369,-11.2900763,4.5419846,-3.2748091,-3.9791429,6.2751703,8.8273764,38.3511467,17.1908398,-4.3664122
3880,-0.0478838,10.6062593,0.5698171,-10.7099237,2.6183207,-3.7251909,-4.0078731,6.2631998,9.0835552,44.4732819,21.7633591,-0.0458015
3890,-0.0311245,10.6445665,0.7374104,-10.2748089,1.2213740,-4.9083967,-3.5314295,6.3829093,8.8680773,51.7557259,25.6412220,3.4351146
3900,-1.0893562,10.5344334,0.7469871,-3.6717558,14.7480917,-10.4885492,-3.5673423,7.8912482,6.4882536,60.1755714,39.9465637,-1.6030535
3910,-1.1563935,10.4458485,0.6823440,-3.6412213,16.0000000,-12.2290077,-3.6104376,7.9487090,6.0644817,61.9847336,43.2977104,0.0534351
3920,-1.3096216,10.3596573,0.6416427,-3.9312978,17.1450386,-13.8091602,-3.5050933,7.9415264,5.5832496,62.2595406,46.3969460,1.3435115
3930,-1.2042773,10.1561518,0.7685348,-4.0229006,18.9160309,-14.5496187,-3.4835455,8.0540533,5.2959471,60.2213745,47.6335869,2.4503818
3940,-1.0606259,9.7826586,0.7805058,-4.0839696,18.6030540,-14.9923668,-3.1770895,8.0923605,4.7021880,55.6030540,45.5877876,0.9541985
3950,-0.9265513,9.4163475,0.7876883,-3.6106870,17.1755733,-14.3511448,-3.1842721,8.1665802,4.4196739,49.2366409,38.8549614,-2.3358779
3960,-0.7517755,9.0380650,0.9840119,-1.8549619,13.9312973,-12.2290077,-3.1339941,8.1139078,4.1778607,41.8320618,30.7709923,-6.4732823
3970,0.0071826,8.1043310,0.9337339,9.0763359,-5.7709923,1.9465649,-3.0142846,8.1929159,3.0645626,20.8396950,15.1679392,-16.6259537
3980,0.3974355,7.9367380,0.7374104,11.9847326,-12.0305347,7.9160304,-2.8921809,8.2431946,2.5115047,13.1297712,14.2213745,-23.6870232
3990,0.8978211,7.7978749,0.6344602,14.1374044,-16.5190830,14.3206110,-3.2967989,8.3269911,2.4636209,4.6717558,13.5343513,-31.6717548
4000,1.3814473,7.7954807,0.5195391,17.1297703,-18.2671757,20.2748089,-3.6655040,8.5783806,2.9831600,-0.8854962,13.7938929,-38.6106873
4010,1.8914096,7.9941988,0.3064562,18.2442741,-19.9618320,25.1984730,-4.1730723,9.0476418,3.3566537,-0.0839695,15.3664122,-44.1450386
4020,2.3726418,8.4538832,-0.0167593,17.7480907,-19.8320618,27.1755733,-4.4555864,9.4115591,3.4093258,4.2290077,19.5801525,-45.9541969
4030,2.6671271,8.7363977,-0.5267217,13.4122133,-17.3587780,25.9312973,-4.3334827,9.6078825,2.5426292,5.1068702,24.3053436,-47.3358765
4040,2.6695213,9.1936874,-0.8666966,5.8549619,-12.2213745,19.9770985,-3.9647777,10.1609402,1.6424140,-1.6793894,25.9465656,-49.8091621
4050,2.3894010,9.5576038,-1.0630201,-4.5725193,-3.3893130,12.0305347,-2.6120608,10.9127159,1.6783268,-12.9694653,29.9389305,-50.3587799
4060,1.6328372,9.8377247,-1.0271072,-13.1297712,4.6412215,4.0305343,-0.7565638,11.5663290,3.0023136,-17.0992374,44.4809151,-55.0152664
4070,0.6584021,9.8975792,-1.0510491,-21.1145039,10.8015270,-1.4351145,1.0869620,12.1529055,4.6351509,-5.1145039,66.8778610,-70.8473282
4080,-0.2609667,9.8113880,-0.6871324,-26.5954189,13.7099237,-3.2213740,1.1516051,12.6939926,4.8171091,16.9160309,77.0916061,-95.4961853
4090,-1.0414724,9.7275915,-0.1987177,-28.5954189,11.0763359,-1.5419847,-0.7948709,13.0962162,1.9225341,28.9770985,75.0610657,-118.0381699
4100,-1.3287752,9.7419567,0.1173153,-26.8244267,3.9236641,1.9541985,-1.7357874,13.8432035,-0.7062859,22.6641216,69.1221390,-133.4961853
4110,-1.4317253,9.7539282,0.4525018,-23.0458012,-4.3282442,6.1145039,-2.5043221,14.4249916,-2.6024840,3.2595420,57.4198456,-147.2442780
4120,-1.3431402,10.0268650,0.8044477,-18.4580154,-11.9465647,9.1908398,-3.2369442,14.2621870,-3.9168940,-22.9160309,44.0916023,-157.6564941
4130,-1.0462608,10.1920643,0.8906385,-14.2519083,-17.9923668,9.9541988,-3.0525916,14.3244352,-4.5992379,-50.6106873,30.6793900,-163.7175598
4140,-0.8882443,10.4889441,0.8858501,-13.0229006,-18.7786255,9.3129768,-3.8594334,14.2071199,-5.4635406,-81.2061081,27.7022896,-166.5648804
4150,-0.7158626,10.7738523,0.9911944,-13.8854961,-14.8778629,7.1450381,-5.2528515,12.9334116,-5.8035154,-112.7557220,34.8320618,-161.3816833
4160,-0.6009415,10.9869356,1.2306134,-15.9770994,-7.7251906,4.2061067,-6.9958215,11.1928358,-5.3988972,-139.9465637,48.7251892,-148.6641235
4170,-0.7182568,11.0467901,1.6041069,-17.0839691,0.9389313,1.1068702,-8.0899658,8.6286592,-4.5681133,-161.9007568,72.3969498,-130.7786255
4180,-1.0031654,11.1784706,2.0039365,-16.0992374,8.0687027,-0.5190840,-8.7675219,5.8154860,-3.4332676,-177.6717529,98.8854980,-114.7633591
4190,-1.2521610,11.2933912,2.4085546,-12.7786255,12.2442751,-0.1603053,-10.0412302,2.3151813,-2.3486998,-190.0305328,122.7786255,-100.6106873
4200,-1.2737088,11.2095947,2.7581062,-5.7786260,13.8320608,2.4351146,-11.1641054,-0.8930327,-1.3096216,-198.8320618,143.4885559,-85.6793900
4210,-1.1755470,11.1521349,2.9233053,3.9389312,12.4732828,5.9465647,-12.1696653,-4.2305326,-0.0383070,-204.2061005,162.8015289,-66.3816757
4220,-0.8595140,11.1976242,3.0334380,15.6946564,9.0610685,9.0839691,-12.8520088,-7.7763271,1.7046629,-203.3282471,183.8625946,-47.1374054
4230,1.2210367,8.8010406,-0.4022238,47.0610695,-6.7404580,-9.4656487,-19.6131992,-6.4260044,5.1642666,169.5496216,-43.1145020,169.3969421
4240,0.9265513,8.3054428,-0.5889706,40.9618340,-5.5038166,-10.9083967,-19.6131992,-9.8161764,3.2201848,144.4274750,-171.9236603,186.6946564
4250,0.7302278,7.9056134,-0.6536137,34.0992355,-3.7786260,-11.1297712,-16.7282009,-10.8265247,0.1244979,133.6106873,-249.3435059,179.8396912
4260,0.4429250,7.5273318,-0.5626345,28.1755733,-2.3206108,-10.2824430,-14.3364067,-10.0939026,-2.0925217,133.2595367,-250.1374054,167.9084015
4270,0.1795642,7.2041159,-0.4189832,23.7480907,-2.1145039,-8.8702288,-12.4426022,-8.3365679,-3.8546450,139.8625946,-250.1374054,162.7022858
4280,0.0167593,6.8425937,-0.3208214,19.8091602,-3.2824428,-6.8015265,-10.7427282,-5.7867560,-4.9080882,148.5114441,-199.4503784,166.7251892
4290,-0.0742199,6.6247220,-0.2920911,15.5419846,-5.0229006,-4.2977099,-9.5911226,-4.0725164,-4.7069764,157.4809113,-127.6106873,177.2290039
4300,-0.0550664,6.4499464,-0.2944853,11.8854961,-5.9923663,-1.7022901,-8.8632889,-2.8347204,-3.7493007,164.0915985,-62.2366409,190.1984711
4310,-0.0191535,6.3422079,-0.1604107,8.7786255,-5.2137403,1.1450381,-8.3916340,-1.7669119,-2.9089401,167.2213745,-15.8473282,204.2671814
4320,0.2059003,6.3517847,-0.2896969,4.9007635,-3.1526718,2.7175572,-7.6183109,-0.7421987,-2.4324965,166.1068726,8.2748089,214.8167877
4330,0.3160330,6.5098009,-0.5243275,0.4961832,-0.3664122,2.9083970,-6.0381460,0.3830703,-2.0039365,162.2824402,14.5725193,216.1068726
4340,0.3136388,6.5600791,-0.8643024,-5.5419846,2.5419848,3.3206108,-4.2760224,1.2880739,-1.7214222,160.2519073,12.6259546,207.7404633
4350,0.3040621,6.8449879,-1.1635761,-12.9312973,7.7557254,4.6870227,-2.7054341,2.2098370,-1.9991482,161.7557220,7.7022901,191.0992432
4360,0.5291159,7.0939832,-1.3191984,-21.1068707,12.9541988,6.1374044,-1.2425843,3.3758070,-2.9951310,165.4809113,7.7022901,167.2671814
4370,0.7972651,7.2376347,-1.2617378,-28.4885502,16.0229015,5.2442746,-0.1963235,4.9416070,-4.3933377,165.3511505,13.6946564,139.2519073
4380,1.1516051,7.5680327,-1.4101776,-35.3282433,15.5801525,3.2213740,0.0933734,6.3805151,-5.8801293,158.7251892,19.5114498,109.1832047
4390,1.1755470,8.0827837,-1.7214222,-43.3053436,14.2442751,0.3511450,-0.6943150,7.3405848,-6.9718795,146.6793823,20.8091602,81.3816757
4400,0.9050036,8.7699156,-1.8698620,-54.3511467,13.4351149,-2.5496182,-2.5593886,7.9151902,-7.7763271,127.5496216,12.7480917,62.6870232
4410,0.6272776,9.3493099,-1.5298871,-64.3511429,11.5038166,-5.3893127,-4.5729017,8.2862902,-8.4179697,102.5801544,-7.8244276,53.2442741
4420,0.3327923,10.0699606,-0.7637464,-69.6946564,9.1832066,-7.3358779,-5.9519548,8.4730368,-8.9327211,74.3816757,-32.1068687,53.5877876
4430,-0.0670373,10.8504667,0.0790083,-69.4809189,7.3282442,-9.0076332,-7.0939832,8.6933022,-8.9686337,43.6030540,-53.0992355,64.0229034
4440,-0.3399749,11.4226780,0.7781116,-64.9236679,6.5801525,-9.8778629,-7.1275020,8.7962523,-8.6813307,11.9618320,-73.4732819,77.3587799
4450,-0.7661406,11.8775740,1.2737088,-57.2748108,6.9312978,-8.4274807,-6.5720501,8.5520449,-7.7691450,-16.6183205,-90.8244247,91.1526718
4460,-0.9768293,12.2821922,1.6926919,-45.6488533,6.3969464,-4.9007635,-5.2959471,8.1857338,-6.2368636,-36.9771004,-98.2824402,102.0687027
4470,-1.1707586,12.5766773,1.8411317,-31.1984730,2.8396947,-0.6183206,-3.9336534,7.6398587,-4.5537481,-45.6488533,-88.5190811,106.7786255
4480,-1.0678085,12.8256731,1.4508789,-17.7480907,-3.0305343,3.5038168,-2.6743097,7.1658092,-2.2026544,-42.5419846,-68.0152664,105.3664093
4490,-0.8212070,12.9765072,1.0079538,-7.3587785,-8.6564884,6.8167939,-2.1188576,6.7683735,-0.3088504,-29.8778629,-42.5038185,96.8091583
4500,-0.5650287,12.8927097,0.9050036,1.2519084,-13.8015270,9.0610685,-2.0542145,6.5313487,1.0366840,-9.8625956,-17.8244267,84.3664093
4510,0.9959828,10.9294748,1.1300575,16.0534344,-12.1374044,-0.1221374,-5.2384863,9.1410151,-2.4109488,53.1374054,-13.5038166,40.2519073
4520,0.8714849,10.3931761,1.1132981,17.2366409,-10.4885492,-4.4045801,-5.0613165,9.6102762,-3.6200144,41.2824440,-27.1755733,42.1374054
4530,0.7134684,9.8233595,0.9911944,17.8625946,-9.0458012,-8.0687027,-4.6279683,9.5456333,-3.9767487,26.8854961,-34.0916023,41.8549614
4540,0.4501076,9.2798786,1.0749911,17.3664131,-7.9847326,-11.2442751,-4.7165532,9.7682934,-3.6966286,14.9694653,-35.1068687,38.9465637
4550,0.2298422,8.8249826,1.1851238,16.6335869,-6.2366414,-13.0839691,-4.5561423,9.9622221,-3.2393384,10.1679392,-30.8015270,36.8244286
4560,-0.1771700,8.5400734,1.2401901,16.0152664,-3.0916030,-13.4351149,-4.5034704,10.1178446,-3.0501974,11.1145039,-21.5648861,35.1603050
4570,-0.3710994,8.3006544,1.0318956,15.5190840,0.6946565,-12.5572519,-4.6064205,10.3093796,-2.9041519,14.1526718,-11.6259546,34.7022896
4580,-0.5386927,8.1593981,0.7517755,14.3664122,3.7938931,-11.2824430,-4.9966736,10.7092094,-3.1555417,14.4122133,-6.7328243,34.8015251
4590,-0.6488253,8.1186962,0.3950413,11.8702288,5.4274807,-9.4656487,-5.2025738,11.0060892,-3.3470769,11.1603050,-8.5725193,38.5954208
4600,-0.7086801,8.2264347,0.1125269,8.0610685,6.3587785,-7.6106873,-5.0780759,11.0108776,-3.4356618,6.2061067,-13.4885492,43.4503822
4610,-0.6775556,8.2743187,-0.1005560,3.3664122,7.2442746,-6.4732823,-4.7931671,10.8600435,-3.4715748,0.3282443,-16.2290077,49.6717567
4620,-0.6751614,8.2024927,-0.1675933,-1.8625954,7.1603055,-5.7557254,-4.3765783,10.7379398,-3.1938488,-5.1297708,-14.9083967,55.6717567
4630,-0.7517755,8.3485384,-0.2082945,-6.8473282,7.8244276,-3.6564887,-3.7277529,10.4147243,-2.5665710,-7.3129773,-10.4809160,59.5648842
4640,-0.7014975,8.7747040,-0.0095768,-10.2595415,8.0229006,-1.8091604,-3.2273674,10.0484133,-1.4963684,-4.4580154,-3.8778627,60.3435097
4650,-0.2250538,8.9470863,-0.0981618,-15.0687027,9.0610685,0.1068702,-3.1220231,9.3325500,-0.7254394,11.2290077,11.5190840,56.8549614
4660,-0.1628049,9.0189114,-0.0909792,-17.4732819,9.6793890,0.6106870,-2.7533178,9.1003141,-0.5243275,21.2824421,21.0458012,55.3969460
4670,-0.1029501,9.2224178,-0.0933734,-20.4961834,9.8091602,1.9083970,-2.5737536,8.8585014,-0.4572902,31.3511448,30.4045811,52.0228996
4680,-0.0191535,9.3947992,0.0263361,-22.8931293,9.1374044,3.9694657,-2.6000898,8.6789370,-0.6296718,38.0916023,35.8549614,46.8625946
4690,0.7469871,10.2998028,0.7781116,-17.3969460,-1.6946565,0.1603053,-3.3997490,7.5823979,-1.5921360,23.3740463,10.4351149,28.0916023
4700,0.7134684,10.3716288,0.8571198,-15.5648851,-2.0916030,-1.8015267,-3.6535332,7.3214312,-1.6855093,17.1145039,3.1832061,28.1832066
4710,0.5243275,10.4075413,0.7254394,-14.1526718,-1.1297710,-3.1068702,-3.5769191,7.1131368,-1.8219782,10.2442751,-4.7175574,28.7862587
4720,0.4046180,10.5655584,0.6584021,-13.6870232,-0.2824427,-3.9694657,-3.3494711,6.8401995,-1.8866212,2.9770992,-10.3282442,29.3282452
4730,0.1963235,10.5200682,0.6440369,-14.1526718,0.0381679,-4.0992365,-3.0406206,6.5433197,-1.8171898,-2.5725191,-12.2290077,28.3129768
4740,0.1460456,10.4219065,0.8283895,-13.4732828,-0.1450382,-4.1755724,-2.8921809,6.2679882,-1.5825592,-5.6335878,-9.7328243,25.6564884
4750,-0.0047884,10.3500814,1.0271072,-11.6183205,-1.9312977,-4.2137403,-3.0214672,6.1123657,-1.4197544,-6.2595420,-6.0076337,24.6335869
4760,-0.0861908,10.3021975,1.2593436,-8.8702288,-5.2061067,-3.4656489,-3.1315999,6.0357518,-1.2569494,-5.5496182,-2.2061069,24.0458012
4770,-0.0933734,10.2830439,1.3694763,-5.8625956,-7.9465647,-3.2137403,-3.0573800,5.9543490,-1.2545552,-5.3816795,-0.4656489,23.0763359
4780,-0.1316804,10.2950144,1.4508789,-3.2824428,-9.2442751,-2.8778627,-2.9759774,6.1075773,-1.4676381,-7.1145039,-2.1221373,21.3664131
4790,-0.0359128,10.2447367,1.4748207,-1.2213740,-9.5114508,-3.3740458,-2.8969693,6.3446021,-1.6926919,-11.1832066,-7.4885497,19.4580154
4800,0.0622489,10.2423429,1.5298871,0.3129771,-8.7251911,-5.3053436,-2.8682389,6.5576849,-2.0206959,-18.2137413,-15.9083967,17.2977104
4810,-0.0885850,10.0627785,1.5107336,0.7862595,-6.0000000,-7.1755724,-2.5713594,6.7204900,-2.1140692,-26.2748089,-25.5038166,13.5496187
4820,-0.2896969,10.0077124,1.4676381,0.3511450,-2.8778627,-8.9312973,-2.3319404,6.8952656,-2.1164634,-33.9389305,-32.0076332,8.6106873
4830,-0.5626345,9.7036495,1.4029950,-0.2519084,0.6488550,-10.0610685,-2.0302727,7.0317345,-1.8435259,-37.0228996,-31.0916023,3.6870229
4840,-0.7829000,9.5671806,1.4197544,-0.4503817,3.0916030,-9.9389315,-2.0781565,7.2424231,-1.1970947,-33.9236641,-23.8549614,-2.1908398
4850,-0.9576758,9.4019823,1.4628497,0.1526718,4.8015265,-8.9694653,-2.3606708,7.6087341,-1.0127422,-25.6946564,-11.5419846,-5.0916033
4860,-2.0853391,9.7515335,-0.0215477,-7.1068702,18.8167934,-6.9312978,-3.0334380,9.3445215,-2.3271523,16.7251911,35.8778610,-20.7099228
4870,-1.9656296,9.6844959,0.0814024,-9.3587790,16.7175579,-5.4656487,-3.0813217,9.4019823,-2.4995339,14.0458012,29.5114498,-23.7633591
4880,-1.6831152,9.5312681,0.3974355,-9.7175570,13.8473282,-3.4274809,-3.0741394,9.3301563,-2.5617826,11.0610685,21.5648861,-26.3587780
4890,-1.4389079,9.3876171,0.6344602,-8.3969469,9.7633591,-0.8931298,-3.3566537,9.3804340,-2.5905130,8.4961834,15.7022905,-29.1145039
4900,-0.5650287,8.9255381,1.2449785,-1.3969465,-5.5496182,7.6106873,-3.5170643,9.5887289,-2.3486998,9.2900763,13.7480917,-28.3206100
4910,0.2059003,8.8752604,1.3359578,2.7786260,-12.6183205,11.6488552,-3.2537034,9.4618368,-2.0135133,14.2671757,18.6717548,-26.4274807
4920,0.7517755,8.7148495,1.5442522,7.6870227,-17.2595425,14.7557249,-2.9089401,9.4690189,-1.7166338,21.4885502,24.7022896,-26.1908398
4930,1.2210367,8.6645718,1.5083394,12.2977095,-20.2824421,17.9694653,-2.6503677,9.3397331,-1.6687500,29.3053436,28.7709923,-27.4656487
4940,1.6352314,8.7124557,1.3910241,15.9083967,-19.8244267,21.0763359,-2.2792683,9.1098909,-1.7501525,37.8854980,31.9541988,-30.3969460
4950,2.1188576,8.5209198,1.0486550,18.5725193,-17.3282452,24.7786255,-2.0470319,9.0165176,-2.0877333,45.0000000,34.6183205,-34.1755714
4960,2.5593886,8.6430235,0.6607963,19.4045811,-14.8244276,25.9770985,-1.7980363,8.9039907,-2.2912393,51.2519073,36.9847336,-38.2900772
4970,2.8634505,9.3349447,-0.8212070,4.7328243,-0.1450382,8.0305347,-1.1085097,8.2623482,-2.8778157,69.2137375,41.3206100,-50.2900772
4980,2.2026544,9.6174593,-1.3191984,-6.7557254,8.1450386,-2.6870229,-0.7062859,7.9487090,-3.3734128,75.6946564,42.4198456,-56.3206100
4990,1.3766589,9.5336628,-1.4484847,-18.5343513,14.6793890,-10.6717558,-0.3351865,7.6901364,-4.0461802,81.6106873,44.9541969,-63.1679382
5000,0.2537841,9.3062143,-1.1444225,-28.6030540,19.0458012,-14.4122133,-0.2059003,7.4267755,-4.3957319,88.0076370,50.3664131,-70.3816757
5010,-0.7014975,9.2703018,-0.4884146,-33.2366409,20.0610695,-13.9694653,-0.3088504,7.3429790,-4.9080882,93.2595444,59.2061081,-76.6946564
5020,-1.5203103,9.2200232,-0.1460456,-32.9694672,16.9465656,-9.6870232,-0.9648584,7.5416965,-5.0876527,94.8091583,63.5419846,-80.0000000
5030,-2.0853391,9.4067707,0.0981618,-29.8244267,11.7786255,-2.8854961,-1.5418580,7.9032192,-5.5784616,88.9542007,58.9771004,-81.4732819
5040,-2.2218077,9.6533718,0.1340746,-26.0610695,4.8931298,4.9847326,-1.9991482,8.3700867,-5.8466105,77.7786255,45.4351158,-80.7099228
5050,-2.1451938,10.0196829,0.2489957,-22.5343513,-2.5267177,11.1679392,-2.0853391,8.4802189,-5.5497313,61.7022896,23.0381680,-81.0457993
5060,-1.9656296,10.5823174,0.3447633,-19.8854961,-10.2748089,15.1297712,-1.7357874,8.6956959,-5.1211715,49.1374054,1.5725191,-82.5725174
5070,-1.6783268,10.9965124,0.5626345,-17.9312973,-16.4122143,16.9389305,-1.0989330,8.6358414,-4.2425036,45.5343513,-7.5190840,-84.6030502
5080,-1.2808913,11.3724003,0.8451489,-17.3587780,-18.6106873,16.2900772,-0.5937590,8.1641865,-3.6678982,51.6183205,-3.6183207,-89.7099228
5090,-0.8379663,11.4945040,1.1396341,-18.2061062,-17.3129768,13.7557249,0.0478838,7.5488791,-3.1627243,67.0839691,7.9465647,-97.0610657
5100,-0.5195391,11.6357603,1.5849534,-19.0381680,-12.6106873,10.3206110,0.5195391,7.0269461,-3.1387823,89.9923630,26.5954189,-109.0152664
5110,-0.3519458,11.5447817,2.1284344,-18.9236641,-6.0916033,7.6717558,0.5219333,6.7300668,-3.7062054,114.3511429,50.4580154,-121.9083939
5120,-0.3495516,11.6070309,2.7988074,-15.5190840,-0.4580153,6.2213740,0.4165890,6.5576849,-4.5657191,137.9084015,75.0000000,-133.0763397
5130,-0.4046180,11.8727856,3.2489152,-8.4961834,4.5343513,6.2977099,0.4740495,6.5145893,-5.4755111,158.8854980,94.1450348,-144.0915985
5140,-0.3687052,12.0738974,3.6822634,1.1984733,7.6106873,7.2671757,0.3567342,6.5265603,-6.3733325,177.8702240,106.8244247,-155.0610657
5150,-0.1891410,12.1816359,3.8091555,11.8549614,7.1832061,7.3358779,-0.0861908,6.3972740,-7.2041159,196.0534363,109.0534363,-162.5725250
5160,0.0694315,12.1529055,4.0437860,23.7633591,6.4351144,6.6717558,-0.0861908,6.0740585,-8.4083929,213.0686951,99.5725174,-166.0000000
5170,0.2154770,11.9829178,3.9767487,36.1832047,4.9618320,5.8778625,0.1340746,5.8322453,-10.3955708,223.0763397,89.6946564,-163.0305328
5180,0.2370248,11.8656025,3.8187323,48.5877876,4.0687022,5.6717558,1.1037214,5.5425487,-13.4385853,219.1297760,75.6641235,-152.5038147
5190,0.4285599,11.7363167,3.3087699,60.0228996,2.6564887,5.9923663,2.6168492,4.4747400,-15.9476957,201.3129730,66.9847336,-142.8473358
5200,0.6967092,11.5926657,2.4708035,67.7862625,0.8244275,4.3816795,3.8761928,3.2058196,-16.6611652,179.6183167,68.7251892,-134.3587799
5210,0.8930327,11.4107065,1.8267666,72.5725174,0.2366412,0.9389313,4.3909435,1.7645177,-15.3539371,166.8320618,91.4503784,-130.7251892
5220,1.0678085,11.1760759,1.3144100,75.0610657,-1.1832061,-3.6412213,3.3398943,-0.1197095,-12.8639803,167.0534363,117.3511429,-129.6564941
5230,1.0295014,10.7499104,0.7805058,74.6412201,-1.2137405,-8.6259546,1.8650736,-2.7197993,-10.5320396,181.4580078,133.3969421,-131.1297760
5240,0.9720409,10.1872759,0.3399749,72.2748108,0.1068702,-13.3206110,0.1628049,-6.1387019,-8.7076674,202.2442780,147.6030579,-143.1374054
5250,0.8092360,9.6006994,0.1149211,68.4580154,2.4198472,-17.3435116,-1.7693061,-9.3349447,-7.8505473,223.7328186,148.4503784,-163.3206177
5260,0.5985473,9.1098909,-0.0909792,64.3587799,5.2366414,-19.9618320,-3.3949606,-12.6030130,-7.4483232,238.7099304,142.5572510,-200.9389343
5270,0.2873027,8.2743187,-0.4548960,59.2671738,7.5954199,-21.6564884,-5.7843618,-15.6101151,-7.3166428,244.5114441,131.6183167,-250.1374054
5280,0.0095768,7.7499914,-0.7278336,53.6641235,8.3969469,-22.2442741,-9.8568783,-17.2214050,-7.4363523,239.7938995,117.6717529,-250.1374054
5290,-0.4046180,7.1921453,-0.8666966,47.2824440,6.9770994,-20.9923668,-16.0482521,-16.9197369,-7.9056134,222.6106873,101.0152664,-250.1374054
5300,-0.6727672,6.7252784,-1.1492109,39.7633591,4.5801525,-18.2061062,-19.6131992,-14.3435888,-8.8369532,190.3816833,88.8778610,-250.1374054
5310,-0.9002152,6.3015065,-1.1994889,30.7709923,-0.0992366,-12.9389315,-19.6131992,-9.2176294,-10.2567072,136.1984711,78.3893127,-250.1374054
5320,-0.9457048,5.8944945,-0.7254394,23.1297703,-6.1908398,-6.6641221,-19.6131992,-3.1818779,-12.4042959,47.3740463,39.9465637,-250.1374054
5330,-0.7038917,5.7556314,-0.1125269,19.0916023,-10.4885492,-1.7786260,-19.6131992,2.3463056,-12.3372583,-64.7938919,-50.6946564,-250.1374054
5340,-0.4141948,5.7316895,0.1388630,16.2519093,-10.4503813,1.2061069,-19.6131992,5.8825235,-6.7851329,-166.3511505,-161.2366486,-228.7709961
5350,-0.4884146,6.2320752,-0.0287303,11.8167934,-3.7480917,3.6641221,-19.6131992,7.7787213,0.5793939,-209.6717529,-248.4961853,-169.4503784
5360,-0.4740495,6.8066807,-0.4261657,3.3969467,8.0610685,4.0839696,-19.6131992,9.2319946,6.5193777,-190.6183167,-250.1374054,-96.2061081
5370,-0.4932030,7.2400289,-0.6224893,-7.5877862,22.8854961,2.6412213,-19.6131992,8.4969788,7.6302819,-122.0610657,-191.3282471,-8.4503813
5380,-0.9840119,7.7332320,-0.4979914,-16.1908398,37.1526718,3.9007633,-19.6131992,4.5345950,3.7540891,-51.2595406,-128.5419922,81.4961853
5390,-1.6304430,8.3245964,-0.4764437,-20.5725193,45.1679382,9.7175570,-19.6131992,-0.6392486,-0.6943150,-2.7557251,-69.6793900,156.3282471
5400,-2.1715298,9.2272062,-0.6296718,-19.9236641,45.1832047,20.1755733,-17.4033623,-4.9727316,-4.3119354,29.4274807,-16.0152664,209.0686951
5410,-1.8674678,9.8856087,-0.5339043,-14.9847326,35.9923668,31.4503822,-13.1321287,-8.3222027,-7.6398587,44.3129768,33.4809151,238.8320618
5420,-1.2425843,10.5895004,-0.4668669,-5.9312978,21.3511448,39.6793900,-9.7371683,-10.1633339,-10.2710724,37.8396950,72.5801544,247.8244324
5430,-0.1795642,11.2143831,-0.6799498,5.1374044,6.7557254,43.4198456,-7.8242111,-10.3333216,-10.9773588,15.3969469,92.7251892,243.4961853
5440,0.7637464,11.6477318,-0.9121862,15.2442751,-4.2748094,41.8091621,-7.0460997,-9.7515335,-10.7642756,-15.2977095,92.8702316,236.8091583
5450,1.6065011,11.9613705,-1.3814473,21.9770985,-9.6641226,35.9160309,-6.4451580,-8.9686337,-10.0436249,-46.7786255,77.3969498,230.7404633
5460,2.0302727,12.0020714,-2.0230901,22.5648861,-9.5572519,28.3435116,-6.0357518,-8.1737623,-9.6868906,-80.4732819,48.4274826,224.0152740
5470,2.2720859,11.8847561,-2.3582766,18.7786255,-6.2671757,20.5496178,-5.5521255,-7.3836803,-9.5528164,-116.3511429,4.3587785,216.0305328
5480,2.3965836,11.5519638,-2.3032103,13.2519083,-1.7862595,12.4961834,-4.8195033,-6.4954362,-9.1601686,-148.3511505,-48.8244286,205.4274750
5490,2.3463056,11.0491848,-2.1236460,7.3664122,2.7480917,4.9389315,-3.8498566,-5.1283536,-9.0572186,-177.3282471,-100.7480927,190.9923706
5500,2.1787124,10.5033092,-1.6687500,3.2290077,6.1526718,-0.9541985,-3.5481887,-4.0270267,-8.9901810,-198.6641235,-146.2213745,175.7404633
5510,1.8411317,9.9454632,-1.3000449,1.0687023,7.5954199,-5.5267177,-2.5665710,-2.8419030,-8.3964224,-204.5114441,-174.3282471,161.3969421
5520,1.6208663,9.4426832,-1.0702027,-0.2977099,6.7251906,-9.1374044,-1.1563935,-1.3144100,-7.5249376,-193.4122162,-182.0992432,146.9084015
5530,1.1994889,8.7938576,-0.8116302,-1.2442749,4.8854961,-11.6335878,-0.1915352,0.4357425,-6.8904772,-168.2671814,-172.3969421,125.3664093
5540,0.9337339,8.3174143,-0.7038917,-2.0229008,4.0687022,-13.4580154,-0.4022238,2.1332228,-6.9168134,-137.6870270,-155.3358765,100.9083939
5550,0.5458752,7.8289995,-0.6320660,-3.0000000,1.2748091,-13.8320608,-1.5634058,3.0047078,-7.2855186,-105.6106873,-137.3206177,79.0839691
5560,0.1197095,7.5393028,-0.5985473,-3.7862597,-1.0839695,-12.2290077,-3.0214672,3.8881636,-7.9654684,-76.5954208,-118.8015289,62.4961815
5570,-0.1819584,7.3022780,-0.5602403,-4.4351144,-3.1526718,-9.4809160,-4.3861551,5.1044121,-9.1912937,-56.5877876,-108.0839691,53.3282433
5580,-0.3471575,7.1155310,-0.7038917,-6.0916033,-5.2061067,-6.2213740,-5.7652082,6.2895355,-10.9414454,-48.8625946,-105.7480927,52.2442741
5590,-0.5482694,7.0365229,-0.6847382,-7.9312978,-6.9618320,-2.1832061,-6.4164276,7.3286138,-12.8256731,-55.5190849,-108.8396912,57.7099228
5600,-0.6679789,7.1825686,-0.7374104,-10.1984730,-8.8778629,3.0000000,-6.4738884,7.9104018,-13.6899757,-72.0839691,-112.5954208,65.8244247
5610,-0.5291159,7.2160869,-0.8499373,-13.5343513,-9.9694653,8.6412210,-6.5169835,7.8361821,-13.4936514,-90.7709961,-112.8244247,73.3435135
5620,-0.2801202,7.6422529,-0.6967092,-16.7175579,-11.2213745,12.9770994,-6.5145893,7.4435349,-12.1720591,-104.0381699,-108.3587799,77.1908417
5630,0.2489957,7.9678626,-0.5769997,-18.4961834,-14.1221371,15.0381680,-6.7348547,7.1801744,-10.6756907,-107.8473282,-101.4122162,81.7862625
5640,0.5865764,8.5855637,-0.4501076,-19.6259537,-16.7480907,14.9618320,-6.6845770,6.9048424,-9.4785957,-105.5343475,-89.8091583,85.0992355
5650,0.8068419,8.9734221,-0.4740495,-20.7786255,-18.5267181,14.1526718,-6.8449879,6.7228842,-8.3820572,-98.7480927,-75.2595444,86.9389343
5660,0.9744351,9.2798786,-0.4237715,-22.6335869,-19.5877857,13.3664122,-6.9216018,6.6797886,-7.4243813,-89.1297684,-61.4351158,90.0992355
5670,1.1539993,9.5839405,-0.3663110,-24.5190830,-18.6717548,13.0229006,-6.8521700,6.5552907,-6.6223278,-78.3511429,-50.6183205,94.0457993
5680,1.3886299,9.8185711,-0.2585725,-25.4732819,-16.4351139,13.1145039,-6.2895355,6.3541789,-6.2847471,-67.9389343,-40.1374054,96.1908417
5690,1.5107336,10.0364418,-0.3663110,-26.2595425,-13.6030531,12.7938929,-5.6550756,6.0908179,-5.7508430,-58.2671738,-29.8396950,96.2900772
5700,1.7669119,10.1561518,-0.4118006,-27.2442741,-10.2977095,12.2977095,-5.3390427,5.7747850,-5.3510137,-50.7862587,-23.5572510,94.1450348
5710,1.9536586,10.3979645,-0.5123565,-28.5725193,-8.0229006,9.9694653,-5.0110383,5.5640965,-5.0948353,-46.8015251,-18.8091602,90.6717529
5720,2.2984219,10.4602137,-0.7493813,-31.0152664,-6.5877862,5.5877862,-5.0062504,5.5497313,-4.7788019,-45.4885483,-15.4427481,88.7938919
5730,2.3774302,10.4027529,-0.9073978,-35.7938919,-4.7633586,-0.6946565,-5.0445571,5.4036856,-4.4507980,-46.3969460,-17.1145039,88.8015289
5740,2.1380112,10.2160063,-0.8810617,-42.0534363,-2.2748091,-7.1221375,-4.7117648,5.3965030,-4.1515245,-48.5725174,-19.4045811,93.1526718
5750,1.6807210,9.9885588,-0.5219333,-47.2824440,1.6946565,-11.6106873,-4.3693957,5.1570840,-3.8498566,-50.5267181,-20.2137413,96.7633591
5760,1.1300575,10.0388365,-0.0239419,-49.4045792,4.5190840,-14.0992365,-3.9168940,4.7045822,-3.4332676,-53.2061081,-23.0839691,101.3740463
5770,0.6584021,10.1824875,0.1747758,-49.2442741,4.1679387,-14.4885492,-3.4763632,4.3574247,-3.2560976,-57.0610695,-29.4045811,103.6335907
5780,0.3639168,10.2207947,0.2106887,-48.9007645,2.8015268,-14.5648851,-2.7628946,3.9599893,-3.0358322,-62.1984749,-38.0152664,103.3969498
5790,0.1316804,10.3500814,0.3136388,-48.6412201,-0.0687023,-14.2824430,-2.1044924,3.6631098,-2.4899571,-67.4885483,-47.1526718,100.2519073
5800,0.0622489,10.3141680,0.5985473,-48.2595406,-5.0229006,-13.4732828,-1.4101776,3.4691806,-2.2361729,-71.9465637,-53.7404594,95.9694672
5810,0.2202654,10.2614956,1.2449785,-45.7557259,-10.7633591,-14.0610685,-0.6703730,3.4165084,-1.9943599,-76.0916061,-56.6183205,88.6335907
5820,0.5003856,10.1824875,1.9033806,-40.6641235,-17.0763359,-16.0839691,-0.1723816,3.3853838,-1.6807210,-80.4732819,-58.9465637,79.0000000
5830,0.8331779,10.0986910,2.3774302,-33.0763359,-21.6564884,-19.9236641,0.4309541,3.2967989,-1.0630201,-81.5496216,-59.9160309,66.6259537
5840,0.7900825,9.9047613,2.5905130,-25.6793900,-23.5267181,-24.7328243,0.7158626,3.2177906,-0.3232156,-77.8854980,-55.0152664,54.2213745
5850,0.4788379,9.7036495,2.4277081,-21.2442741,-22.6183205,-28.2900772,0.4908088,3.4667864,0.5722113,-69.7404556,-45.7480927,41.3206100
5860,0.1125269,9.3445215,2.4971397,-18.4809170,-20.8931293,-29.3206100,-0.3303981,3.9839313,1.0821736,-57.7022896,-38.6106873,33.4656487
5870,-0.1819584,9.0500364,2.8586621,-14.1755724,-16.6335869,-28.5801525,-0.9457048,4.4747400,1.4365137,-42.2213745,-34.0839691,30.6564884
5880,-0.5003856,8.7220325,3.2130022,-7.2061067,-14.2824430,-26.7862587,-1.2066715,4.8099265,1.4963684,-25.6488552,-29.5114498,29.5648861
5890,-0.4261657,8.5017672,3.3686244,2.7480917,-14.8396950,-25.2213745,-1.4724265,5.1858144,0.6703730,-10.4427481,-25.4885502,27.6870232
5900,-0.5650287,8.4826136,3.1627243,13.9923668,-15.8244276,-24.0229015,-1.6065011,5.5880380,-0.0861908,0.8549618,-23.8625946,25.5648861
5910,-0.5985473,8.2958660,2.9233053,23.8244267,-15.7786255,-22.4351139,-1.8531027,6.0333576,-0.9385223,7.8778625,-23.2442741,21.4351139
5920,-0.5746055,8.3413563,2.7437410,32.5496178,-13.4351149,-20.8091602,-1.9273225,6.3853035,-1.6926919,13.7786255,-24.1679382,14.1832066
5930,-0.8451489,8.4179697,2.1404054,40.8702278,-10.7557249,-17.4427490,-1.9345051,6.7180958,-2.3079987,20.6946564,-23.2671757,2.0687022
5940,-1.1803354,8.7196379,1.3790531,45.6030540,-8.3053436,-11.7480917,-2.3726418,7.2615767,-2.6431851,26.8931293,-17.3282452,-12.9541988
5950,-1.2904681,8.9973640,0.3663110,44.6717567,-6.7709923,-4.5648856,-3.7445123,7.9391322,-3.3279233,31.3129768,-12.5343513,-26.2900772
5960,-1.2641320,9.3445215,-0.5674229,38.5648842,-6.2748094,1.9770992,-5.5545197,8.8441362,-4.2065907,32.0992355,-12.0076332,-28.7633591
5970,-1.1947005,9.5240860,-0.9241571,30.0916023,-8.6717558,8.5877867,-7.0006099,9.7443514,-5.0780759,28.0687027,-13.4580154,-18.0839691
5980,-0.8666966,9.5504217,-0.6991033,22.5496178,-13.1984730,15.7251911,-7.6135225,10.3524752,-6.1482787,16.8549614,-15.6412210,4.1755724
5990,-0.4429250,9.5983057,-0.2298422,18.6870232,-18.6870232,22.0839691,-7.0149751,10.4530315,-6.7468257,0.0534351,-16.3969460,27.6106873
6000,-0.0598547,9.5935173,0.3782819,20.0305347,-24.9923668,27.7175579,-5.8202744,10.3452930,-6.8497758,-20.1984730,-16.5190830,47.4656487
6010,0.4860204,9.8329363,0.6009415,25.4961834,-27.7786255,31.9618320,-4.1371593,9.9502516,-6.3206601,-40.0687027,-17.1679382,60.0305328
6020,0.8427547,10.0843258,0.2466015,31.5190830,-28.0076332,33.1221390,-2.7221935,9.4019823,-5.1307478,-55.2442741,-14.4809160,64.6641235
6030,1.0917504,10.4410601,-0.4285599,34.3587799,-25.6412220,30.9618320,-1.3000449,8.8992023,-3.5026991,-62.0916023,-10.0381680,63.3587799
6040,1.0318956,10.7211800,-1.4508789,32.0687027,-20.7175579,27.1832066,-0.3016679,8.7052727,-1.9177457,-60.4885483,-4.6870227,57.0534363
6050,0.9457048,10.8935623,-2.0829449,25.8244267,-13.9465647,22.4885502,0.3591284,8.4586716,-0.5315101,-51.7404594,1.0534351,44.8931313
6060,0.8212070,11.1042509,-2.5091105,18.1679382,-5.8091602,16.9770985,0.6368544,8.2096758,0.6129125,-34.7022896,7.0229006,30.4045811
6070,0.1077385,11.0611553,-3.3351059,-1.4122137,6.3816795,3.8091602,-0.1412572,8.0827837,0.9600700,9.9236641,13.8854961,-1.0152671
6080,-0.5147507,11.0946741,-3.1746953,-10.3587790,8.9465647,-0.7022901,-0.7182568,8.0708122,0.1795642,29.0458012,13.5954199,-12.7480917
6090,-1.0678085,11.1234045,-2.9520357,-17.6183205,10.4351149,-2.9389312,-1.3646880,8.2695303,-0.8475431,41.2366409,11.7328243,-22.0687027
6100,-1.4436963,10.8456783,-2.4085546,-23.0916023,12.4809160,-3.0992367,-1.9704180,8.3748751,-1.9153515,46.4961815,9.9847326,-28.3282452
6110,-1.6783268,10.6613255,-1.8842272,-25.9083977,12.8396950,-2.1068702,-2.5809362,8.3892403,-2.8754215,46.0381660,7.9847326,-30.2748089
6120,-1.7477583,10.5918941,-1.2784972,-25.4732819,9.8778629,0.5496183,-3.0932927,8.3245964,-3.5170643,41.5419846,5.1679387,-29.4045811
6130,-1.7764885,10.4171181,-0.7829000,-22.0305347,4.4885497,3.3816793,-3.4619980,8.2336178,-3.7133877,34.1755714,2.9847329,-27.0305347
6140,-1.6232605,10.3261395,-0.4884146,-18.1908398,-2.4503818,5.6564884,-3.8283088,8.1163025,-3.6990228,26.2671757,1.3358779,-24.2824421
6150,-1.6041069,10.1226330,-0.0885850,-14.1526718,-8.2977095,8.0076332,-4.1874375,8.0444765,-3.6583214,18.6106873,-0.7404580,-20.1221371
6160,-1.3622938,10.1226330,0.1556223,-10.8778629,-12.5648851,10.1755724,-4.3215117,8.0133524,-3.4643922,12.3969469,-3.4961832,-16.3893127
6170,-1.0630201,10.1322098,0.4692611,-7.9923663,-14.9160309,11.6946564,-4.4340386,7.9606800,-3.0717452,8.0763359,-5.1526718,-13.4045801
6180,-0.8355721,10.1968527,0.5219333,-6.5419846,-13.8320608,12.2824430,-4.2520804,8.0756006,-2.9185169,5.1450381,-5.9236641,-10.3969469
6190,-0.6009415,10.2327662,0.6655847,-6.2366414,-9.1908398,12.1145039,-4.1826491,8.0013809,-2.9999194,2.9847329,-7.5496182,-8.8473282
6200,-0.3830703,10.2926207,0.6943150,-6.9847326,-3.1679389,11.9465647,-4.1347651,8.0037756,-3.0358322,0.4656489,-9.3587790,-7.8167939
6210,-0.2896969,10.2830439,0.7254394,-8.0610685,1.4351145,11.1603050,-4.0222383,8.1091194,-2.9137285,-1.7328244,-11.8549614,-6.6717558
6220,-0.0526722,10.2806492,0.8451489,-9.0534353,5.0534353,9.9770994,-3.8570392,8.0708122,-3.0166788,-3.7251909,-13.8091602,-6.2061067
6230,0.0981618,10.2136126,0.8714849,-9.4351149,6.5954199,8.2213745,-3.7373297,8.0468712,-2.9256995,-5.6335878,-14.9618320,-6.7862597
6240,0.2178712,10.2064295,1.0414724,-8.6717558,6.6870227,6.2061067,-3.5098817,7.9774394,-2.7054341,-5.5114503,-14.6717558,-7.2442746
6250,0.2274480,10.2231894,1.3191984,-6.4732823,6.5419846,5.3969464,-3.4596038,8.0325060,-2.5881188,-3.1603053,-12.4656487,-9.0992365
6260,1.1635761,10.1753054,1.2641320,6.4274807,6.6641221,1.1145039,-4.0222383,8.4945841,-3.2465210,1.9541985,0.7022901,-19.0763359
6270,1.1276633,10.3333216,1.3024391,8.6946564,7.5114503,-0.8320611,-4.4819226,8.6645718,-3.3398943,-1.9160305,-4.1603055,-19.3511448
6280,1.1228749,10.5320396,1.0989330,10.3969469,8.1068707,-2.4580152,-4.8290801,8.8513184,-3.3231349,-5.9618320,-10.3053436,-17.5572510
6290,1.0127422,10.7092094,0.8259954,11.1603050,8.9694653,-3.9083970,-4.9894910,8.9207497,-3.3590479,-9.5801525,-15.7709923,-13.0534353
6300,1.0007712,10.7762470,0.7685348,11.6488552,10.3969469,-4.7022901,-4.8937230,8.9063845,-3.2967989,-12.1145039,-18.7938938,-9.4732828
6310,0.9385223,11.0348196,0.7805058,12.3358774,12.0534353,-6.2595420,-4.4244623,8.8872309,-3.2106080,-13.7099237,-20.1908398,-6.6412215
6320,0.8212070,11.2335367,0.8834559,13.7480917,13.6870232,-7.7175574,-4.1156116,8.8345594,-3.1723011,-13.8167934,-20.4580154,-5.5343513
6330,0.6943150,11.3987360,0.9217629,16.0000000,16.3282452,-9.3511448,-3.8235207,8.9351149,-3.0310438,-12.8549614,-19.4351139,-6.1755724
6340,0.4501076,11.4945040,1.1707586,20.6183205,16.5572510,-10.0076332,-3.6056492,9.0045462,-2.9568241,-10.5038166,-17.9007626,-7.1984735
6350,0.2968795,11.3676119,1.3790531,27.9694653,14.4427481,-9.7404585,-3.2058196,9.1458035,-2.9256995,-7.3969464,-16.0534344,-8.7786255
6360,0.3375807,11.4011297,1.4197544,37.1832047,10.4122133,-8.3587790,-2.8419030,9.3971939,-2.6503677,-3.1297710,-14.2290077,-11.9465647
6370,0.5027798,11.4298601,1.2306134,47.3969460,4.7099237,-6.9770994,-2.6240315,9.6174593,-2.3151813,3.4732823,-11.9694653,-14.9160309
6380,0.8068419,11.3843708,0.8427547,56.6564903,-1.7175573,-7.3969464,-2.3726418,9.6318245,-2.2074428,12.3816795,-7.0992365,-17.9312973
6390,1.0869620,11.2574787,0.2729376,61.5725174,-6.6030536,-10.4122133,-1.9321109,9.5192976,-2.3343346,23.6870232,0.2137405,-20.0763359
6400,1.1994889,10.9246864,-0.1628049,62.1297722,-6.5954199,-14.1374044,-1.2545552,9.5456333,-2.6814921,35.1068687,9.0152674,-25.3969460
6410,1.2832855,10.6254129,-0.6105183,59.5114517,-2.1450381,-18.0992374,-0.8427547,9.4953556,-3.1579359,46.7557259,17.1984730,-31.9083977
6420,1.2569494,10.1298151,-1.1156923,53.4656487,6.6946564,-22.7862587,-0.6153067,9.4307127,-3.5218527,58.3358765,24.1984730,-37.0916023
6430,0.9696468,9.5288744,-1.4460905,44.9083977,17.6259537,-26.9312973,-0.3112446,9.3325500,-4.2065907,68.9007645,28.4809170,-39.3816795
6440,0.6296718,8.9159613,-1.5825592,36.3282433,28.2290077,-30.1374054,0.2130829,9.2343884,-4.8290801,78.5190811,27.7404575,-39.5190849
6450,0.0263361,8.2862902,-1.9009864,27.9618320,36.4274826,-31.9694653,0.9217629,9.1481981,-5.7699966,86.0381699,25.4503822,-35.8320618
6460,-0.6224893,7.6470413,-1.8866212,20.6259537,41.8931313,-31.9160309,2.1308286,8.9399033,-6.7204900,89.8091583,23.5801525,-31.6793900
6470,-1.4197544,7.1107426,-2.1356170,13.8396950,42.2442741,-28.6030540,3.6702924,8.2934723,-7.6638002,93.5572510,25.4809170,-31.0381680
6480,-2.1020982,6.6414814,-1.9728121,7.7709923,34.2671738,-21.5877857,5.4060798,7.6470413,-8.3652983,98.5648880,35.0916023,-38.3435097
6490,-2.3463056,6.2991123,-1.0845678,5.6793895,17.4809170,-12.6183205,6.2943239,7.1682034,-8.8345594,103.4274826,52.1068687,-50.5267181
6500,-2.2337787,6.1003947,-0.0071826,10.2977095,-3.0458016,-3.8854961,6.9359670,6.6319046,-8.1450329,112.5954208,72.9312973,-65.4732819
6510,-1.7477583,6.1578555,0.5051740,18.1068707,-20.1374054,4.3511453,7.1993275,6.2727766,-7.0341287,129.9007568,93.5496216,-84.5190811
6520,-1.0558375,6.1219425,0.6775556,25.1145039,-27.2824421,12.5190840,6.5145893,6.0357518,-6.0956063,153.9389343,105.2824402,-103.4274826
6530,-0.3902529,6.4619174,0.6033357,29.8473282,-23.9465656,19.0610695,5.1211715,5.2959471,-5.8226686,181.7175598,101.2366409,-118.2748108
6540,0.4309541,7.1466556,0.0023942,30.1297703,-13.2900763,23.7022896,3.5984666,4.9703374,-5.8035154,211.3816833,82.5419846,-126.4732819
6550,0.9050036,7.8697009,-0.9935886,24.8015270,-0.1526718,24.3511448,1.5131277,5.0182209,-6.5265603,236.2824402,50.8320618,-126.5190811
6560,1.5059452,8.4490948,-1.6448082,14.4885492,13.1984730,21.9694653,-0.8188128,4.2089849,-8.0971489,249.1908417,16.3893127,-116.7175598
6570,1.6783268,8.7914639,-1.7669119,5.1450381,21.0610695,16.3053436,-2.7724714,3.3518653,-9.5863342,247.4274750,-16.2748089,-96.3969498
6580,1.6472024,9.1003141,-2.0039365,-1.6870229,21.3587780,9.7328243,-3.2920105,1.8698620,-10.7738523,231.8091583,-39.7480927,-78.5496216
6590,1.4029950,9.1122847,-2.0805507,-7.7022901,16.2519093,4.0992365,-1.8866212,0.3830703,-12.5144281,199.1068726,-49.6793900,-76.0152664
6600,1.1851238,9.1529865,-2.2696917,-14.3511448,9.1297712,0.8549618,0.7565638,-0.8547257,-14.7506008,150.0458069,-42.6946564,-100.7099228
6610,1.0342898,9.1170731,-1.9967541,-20.9389305,2.9236641,-1.1297710,2.9233053,-1.9871773,-17.0969067,88.5572510,-5.1832061,-148.9389343
6620,1.0582317,8.9542685,-1.5993185,-24.9541988,0.4122137,-2.2977099,2.6312141,-3.9049230,-17.5111008,14.6793890,48.5114517,-212.4122162
6630,0.8403605,8.8537130,-1.3215926,-26.9389305,0.8854962,-2.1068702,-1.7764885,-6.8138633,-14.0203733,-50.9923668,97.7786255,-250.1374054
6640,0.6224893,8.7723103,-1.1468167,-27.9694653,1.3435115,-0.2824427,-7.7595682,-8.9183559,-8.1977043,-92.2671738,137.1526642,-250.1374054
6650,0.3758878,8.7340031,-1.0151364,-28.0992374,1.3206106,3.0610688,-14.6284971,-10.3045912,-1.3910241,-102.7480927,164.0000000,-250.1374054
6660,0.4908088,8.7387915,-0.9672526,-27.0229015,-1.0916030,6.2137403,-19.6131992,-10.9725704,2.5641768,-93.2366409,141.4274750,-250.1374054
6670,0.4860204,8.6765423,-0.8259954,-24.7862587,-5.2519083,9.4122133,-19.6131992,-10.4745789,2.5162930,-95.5038147,63.3129768,-250.1374054
6680,0.5482694,8.7292147,-1.0271072,-23.0458012,-11.1297712,11.2137403,-19.6131992,-7.0915890,0.7709290,-135.5190887,-28.9770985,-250.1374054
6690,0.6224893,8.7723103,-1.1563935,-21.9465656,-17.4122143,12.3893127,-19.6131992,-3.2393384,0.5219333,-205.1145020,-104.9770966,-246.5801544
6700,0.6703730,8.5161324,-1.3120158,-22.0000000,-23.3587780,14.4045801,-19.6131992,-0.3687052,3.9863255,-250.1374054,-155.2519073,-230.6564941
6710,0.7182568,8.7004843,-1.5442522,-24.2671757,-28.5877857,16.5038166,-18.2125988,1.7884595,10.4099360,-250.1374054,-161.9160309,-231.2671814
6720,0.8571198,8.6334467,-1.4843974,-26.6030540,-33.3587799,18.0458012,-19.5940456,4.1395535,15.4688578,-227.4503784,-138.5954132,-231.0076294
6730,0.9026094,8.6573887,-1.4221486,-29.1832066,-38.8778610,20.1603050,-19.6131992,6.0812411,18.0881004,-129.8702240,-117.7709961,-212.6488495
6740,0.9552816,9.0859489,-1.3551112,-31.5572510,-45.9007645,22.7099228,-19.6131992,6.7324610,15.4904060,-35.9923668,-102.4274826,-159.7022858
6750,1.2689204,9.1290445,-1.0773853,-32.7709923,-54.4580154,23.8778629,-19.6131992,6.2631998,10.8911676,28.1374054,-91.5267181,-73.8473282
6760,1.5753766,9.4474716,-0.8690908,-33.8854980,-61.3282433,23.5038166,-19.6131992,4.1467361,6.2512288,64.4580154,-88.3282471,25.2519093
6770,1.8890154,9.9239149,-0.5530578,-36.6641235,-63.7633591,21.1908398,-19.6131992,0.9361281,1.5586174,81.9236679,-88.2595444,120.8167953
6780,2.1164634,10.4578199,-0.3974355,-41.1755714,-61.7328262,16.9007626,-19.6131992,-1.9488702,-3.0717452,79.2290039,-74.7557220,203.9923706
6790,2.2888451,10.6086531,-0.0742199,-47.7404594,-55.8396950,10.0229006,-19.6131992,-4.0940638,-6.8449879,53.1526718,-62.6870232,250.1297760
6800,2.1164634,10.6278067,0.4860204,-54.3358765,-48.0152664,2.6946564,-19.3163204,-6.0022330,-9.2918491,12.1984730,-73.0076370,250.1297760
6810,1.6304430,10.5751352,1.2114599,-57.5114517,-40.3511467,-2.8167939,-14.3890781,-7.0125809,-10.4745789,-34.2519073,-102.3816757,250.1297760
6820,0.7733232,10.6086531,2.1643472,-54.0763359,-34.6183205,-5.6564884,-10.5296450,-6.8186517,-10.3524752,-80.7022934,-138.8015289,250.1297760
6830,0.2178712,10.6397781,2.4899571,-46.3816795,-30.5648861,-6.5496182,-7.6230993,-5.7221127,-9.2248116,-116.8244247,-177.5725250,250.1297760
6840,-0.4094064,10.6230183,2.4253139,-38.7099228,-24.9160309,-6.3893127,-6.1267309,-4.1658897,-7.8649125,-138.6946564,-211.0152740,242.1374054
6850,-0.8307837,10.5176744,2.4109488,-31.1450386,-18.0534344,-4.7404580,-4.8506279,-2.3127871,-6.6678176,-146.4351196,-237.2748108,211.6412201
6860,-1.2713146,10.4386663,2.4516499,-21.0152664,-11.5877867,-0.3893130,-3.5625539,-0.4716553,-5.4539638,-140.6870270,-248.1603088,179.3358765
6870,-1.3311694,10.9127159,1.2354017,-1.4351145,-11.6564884,6.6641221,-3.9719603,3.6152260,-3.8905578,-106.7251892,-239.1297760,109.7099228
6880,-1.0151364,11.4250717,0.6488253,4.3816795,-10.1374044,3.8854961,-5.3103123,4.9775200,-3.4117200,-87.9694672,-230.2290039,81.4961853
6890,-0.8236012,11.7770176,-0.1244979,5.3206105,-4.4732823,-2.9160306,-6.2536230,5.8250628,-3.2177906,-67.9770966,-217.9084015,58.7786255
6900,-0.9983770,12.0260134,-0.6727672,1.9770992,3.0916030,-12.3206110,-6.9455438,6.7827387,-2.7317703,-41.6488533,-195.7404633,41.4656487
6910,-1.2162483,12.1960011,-1.0821736,-4.2824426,10.0076332,-21.5038166,-7.9439206,8.3198080,-2.0853391,-9.1832066,-160.9007568,32.2977104
6920,-1.3455344,12.0164366,-1.0821736,-11.6259546,12.9541988,-30.0839691,-9.1194677,9.6174593,-2.1044924,26.6488552,-115.2900772,32.8702278
6930,-1.4843974,11.4897156,-0.3423691,-16.6488552,12.4885492,-35.8396950,-10.0148945,10.2710724,-2.6982515,57.5954208,-65.4656525,42.2137413
6940,-1.6735384,10.8049774,0.7996593,-16.4656487,10.9694653,-35.9923668,-10.8552551,10.8672256,-3.9216824,76.5801544,-24.1755733,58.7404594
6950,-1.6232605,10.2614956,1.5179161,-11.1221371,6.4503818,-32.0000000,-10.6709023,11.4442253,-5.2456689,80.6717529,3.6412213,78.4656525
6960,-1.4293311,9.6030941,2.1978660,-1.2595420,-0.7709923,-23.3664131,-9.8113880,11.5639353,-6.4068508,70.4122162,12.7328243,92.2290039
6970,-1.0271072,9.1410151,2.6719155,11.5038166,-11.0381680,-12.4122133,-9.0356712,11.4873209,-7.0077925,48.7328262,3.0916030,99.5114517
6980,-0.4548960,8.6693602,2.8419030,25.9923668,-22.9083977,-0.9007633,-8.7148495,11.2981796,-7.0365229,21.5267181,-17.7022896,102.8778610
6990,0.1747758,8.4490948,2.1164634,38.7099228,-32.5801544,9.8549614,-8.0444765,10.8049774,-6.3853035,-2.6717558,-36.7557259,107.0305328
7000,0.8690908,8.2336178,1.1994889,45.3816795,-36.1374054,18.7709923,-7.2256637,10.1585455,-5.1714492,-19.0839691,-48.0916023,111.6488571
7010,1.3886299,8.1785507,0.4070122,46.3435097,-34.8854980,26.3816795,-6.4882536,9.5432396,-4.0988522,-24.9770985,-49.7022896,115.2442780
7020,1.9249283,8.2886839,-0.0598547,44.6259537,-32.5419846,30.7633591,-5.5688848,8.6741486,-3.0837159,-23.6259537,-41.5572510,117.8702316
7030,2.3415172,8.1641865,-0.4429250,42.3664131,-27.7328243,34.0076332,-4.8003497,7.9511032,-2.2864509,-15.7404585,-25.8015270,119.5343475
7040,2.5737536,8.2407999,-1.1468167,38.0992355,-21.1984730,34.2137413,-3.9647777,7.2663651,-1.7477583,-5.5496182,-5.0610685,119.4045792
7050,2.5976956,8.6047173,-1.5442522,31.2748089,-15.7022905,31.7022896,-3.5912843,6.6606350,-1.5107336,3.2900763,13.5496187,118.4351120
7060,2.6575503,8.7507620,-2.1427996,21.9236641,-9.6259546,28.1221371,-3.3782012,6.2416520,-1.2808913,9.8320608,25.0000000,117.1221390
7070,2.5162930,8.8776541,-2.5546002,9.4580154,-3.7022901,21.5572510,-3.0621684,5.7891502,-0.8643024,15.2595415,31.1755733,115.7786255
7080,2.1499822,9.0644016,-2.6623387,-3.5877862,0.4580153,13.2748089,-2.6982515,5.4970589,-0.5386927,20.5267181,33.9236641,114.2824402
7090,1.6184721,8.9853926,-2.4277081,-15.4274807,1.6641221,5.8473282,-2.1068866,5.1858144,-0.3423691,25.9236641,34.1679382,113.0839691
7100,0.9337339,8.8177996,-2.0853391,-24.9847336,0.8549618,-0.1221374,-1.5466464,5.0301919,-0.5434810,29.0076332,31.9923668,109.9312973
7110,0.1436514,8.7172441,-1.5993185,-31.4198475,1.1603054,-2.1984732,-1.1037214,4.7955613,-0.8762733,29.5419846,27.7709923,105.4885483
7120,-0.4932030,8.5137377,-1.1420283,-35.5725174,2.7099237,1.0381680,-0.4884146,4.5106530,-1.3096216,27.5496178,21.5343513,100.3282471
7130,-0.9888002,8.5233145,-0.5578461,-36.2213745,3.5648854,7.5496182,0.0023942,4.2999644,-1.6687500,24.3129768,15.9007635,92.5801544
7140,-1.1563935,8.6358414,-0.0383070,-32.5419846,0.9923664,16.0687027,0.4477134,4.2065907,-1.9608412,19.3893127,12.3511448,85.4198456
7150,-1.1875180,9.0308828,0.1795642,-26.7404575,-3.5419848,23.9160309,0.5722113,4.2257442,-2.3870070,12.2595415,8.2595415,78.8091583
7160,-0.6631905,9.9861641,-0.0047884,-16.9160309,-13.7022905,33.9236641,0.9385223,4.5992379,-2.8083842,-7.4427481,-0.0534351,66.0992355
7170,-0.3423691,10.4243011,-0.2274480,-15.5954199,-16.2900772,34.4274826,0.8834559,4.7811961,-2.6264257,-17.9312973,-3.2213740,62.5877876
7180,0.0430954,10.8025827,-0.1292862,-16.7404575,-17.1832066,31.5877857,0.7110743,5.0038562,-2.1356170,-26.2442741,-6.7709923,58.0534363
7190,0.5195391,10.9629936,0.0047884,-20.0687027,-15.0916033,26.9465656,0.4884146,5.2720051,-1.6160779,-32.1908379,-10.8931293,54.5648842
7200,0.8403605,11.0060892,0.4525018,-22.7938938,-10.0916033,20.6412220,0.1029501,5.8370337,-1.5921360,-37.7862587,-16.9236641,51.4198456
7210,1.0127422,10.8863792,0.8738791,-24.3587780,-4.5267177,13.8702288,-0.0023942,6.2584114,-1.6424140,-44.6641235,-27.6717548,48.0763359
7220,1.0582317,10.8073711,1.3622938,-23.6259537,1.3435115,7.2900763,-0.0359128,6.9527264,-1.8746504,-52.4198456,-39.8702278,43.2290077
7230,0.9840119,10.6038647,1.5059452,-22.1755733,6.5114503,0.7862595,-0.1364688,7.6997132,-2.0183017,-61.2977104,-48.7862587,37.9541969
7240,0.6943150,10.4266949,1.6591733,-19.8473282,12.0534353,-4.4503818,-0.2920911,8.5328913,-1.8315549,-68.5419846,-54.6183205,34.4274826
7250,0.3974355,10.3261395,1.7286048,-17.4427490,17.6717548,-8.2595415,-0.3519458,8.7914639,-1.1851238,-70.2366409,-55.0763359,31.1755733
7260,0.1915352,10.2255831,1.6160779,-15.5801525,22.5648861,-10.8931293,-0.4285599,9.0596132,-0.4333483,-65.3282471,-48.1526718,26.2900772
7270,-0.0694315,10.0699606,1.4676381,-14.3053436,26.3587780,-12.1145039,-0.5195391,9.4498653,0.0023942,-54.5343513,-37.7786255,20.1297703
7280,-0.2729376,9.8161764,1.5969244,-12.6870232,28.3664131,-11.8473282,-1.1420283,9.8185711,0.2657550,-40.4198456,-24.8854961,14.4580154
7290,-0.4668669,9.7802639,1.5921360,-10.7251911,29.0458012,-10.1755724,-1.8602852,10.3931761,0.3687052,-25.6335869,-13.0000000,11.3358774
7300,-0.5195391,9.6390066,1.6136837,-8.5038166,29.1145039,-7.0992365,-2.4085546,10.6756907,0.3399749,-11.9847326,-2.3893130,10.8854961
7310,-0.4477134,9.8616667,1.5945302,-6.5267177,30.2061062,-4.1603055,-2.7102225,11.0156660,-0.2753318,-1.6488550,6.3053436,11.9160309
7320,-0.3040621,9.9047613,1.5274929,-5.0076337,31.6946564,-1.7786260,-2.8131726,11.0587606,-1.0414724,3.0992367,11.7022905,12.2824430
7330,-0.0933734,10.2136126,1.4580613,-4.1832061,32.9541969,-0.2900763,-2.9520357,10.9103212,-1.6639616,1.2061069,13.2748089,13.6259546
7340,0.1699875,10.4290895,1.4772149,-2.4961832,33.2442741,-0.3435115,-3.1986370,10.6924505,-2.1020982,-6.6717558,10.3664122,14.9083967
7350,0.2825144,10.4889441,1.5681942,-0.9694657,33.5496178,-0.9083970,-3.3758070,10.4937325,-2.2218077,-18.2900772,5.2366414,19.2671757
7360,0.3687052,10.6589317,1.6615674,0.5877863,35.2519073,-1.6946565,-3.0813217,10.1417866,-2.1212518,-31.0916023,1.3358779,24.9541988
7370,0.3591284,10.7930059,1.8339491,2.9389312,38.3969460,-1.8625954,-2.4468615,9.8161764,-1.5634058,-44.0000000,-1.6106870,30.1374054
7380,0.3256098,11.0348196,1.6280488,6.5725193,40.8167953,-0.8854962,-1.7357874,9.3277617,-0.6727672,-52.9160309,-3.7938931,33.7557259
7390,0.3734936,11.4298601,1.4149660,10.9160309,42.5572510,0.2900763,-1.0462608,8.9015961,0.2729376,-55.5954208,-4.0076337,32.5954208
7400,0.4381367,11.7411051,1.2473727,15.2366409,44.5419846,1.8625954,-0.4189832,8.6262646,1.2689204,-50.9083977,-1.2213740,28.4809170
7410,2.0206959,12.2774038,1.4053892,43.4274826,28.6717548,0.3282443,-0.7541697,8.5640154,0.3447633,-8.2442751,16.0000000,-17.1068707
7420,2.3678534,12.4330254,1.1731528,50.2442741,21.9618320,-4.0152674,-1.0342898,8.7435799,-0.1651991,-11.1832066,13.9007635,-22.8854961
7430,2.6431851,12.2319136,0.9624642,54.3282433,18.4274807,-9.2595415,-1.5514348,8.8656836,-0.6536137,-18.8167934,7.4656487,-25.6564884
7440,2.8466914,12.1337519,0.7254394,56.1755714,17.7862587,-15.4732828,-2.1763182,9.0691900,-0.8882443,-29.9083977,-1.5114504,-25.4885502
7450,2.8490853,11.7482872,0.6871324,56.5877876,19.2824421,-21.9847336,-2.5378408,9.1649570,-0.5434810,-41.3206100,-11.7786255,-20.8549614
7460,2.6767037,11.3700056,0.4836263,56.7480927,22.1450386,-27.8015270,-2.1930776,8.9231443,-0.0598547,-49.9694672,-20.1068707,-16.5572510
7470,2.4779861,10.8959560,0.1987177,56.5114517,25.5801525,-32.1832047,-1.6759326,8.6741486,0.4022238,-53.6030540,-23.0534344,-14.9007635
7480,2.1499822,10.5440102,-0.2274480,54.9389305,25.7251911,-36.2900772,-1.2976507,8.6693602,0.9073978,-52.4961815,-23.3435116,-17.1526718
7490,1.6902977,9.9358864,-0.5889706,53.5801544,21.0229015,-39.5877876,-1.2282192,8.7603388,1.2737088,-46.9083977,-21.4885502,-22.1603050
7500,1.2737088,9.5097208,-0.8690908,51.6183205,11.5190840,-41.3893127,-1.2784972,8.9087791,1.5634058,-38.6030540,-17.4809170,-25.9923668
7510,0.9672526,8.8752604,-0.9073978,49.6793900,0.9923664,-41.8396950,-1.7094513,9.1386213,1.3790531,-29.8167934,-11.5954199,-29.1374054
7520,0.5698171,8.3772688,-0.8164186,48.0534363,-8.1297712,-40.5343513,-2.1044924,9.3876171,0.8283895,-24.2595425,-5.8702292,-30.2748089
7530,0.1628049,7.7499914,-0.5817881,46.9923668,-15.5343513,-36.7251892,-2.3415172,9.6725254,0.3591284,-24.0458012,-3.8778627,-28.5114498
7540,-0.1556223,7.3238254,-0.4692611,45.8473282,-22.0458012,-31.2137413,-2.7054341,9.8927908,0.2106887,-26.7251911,-4.5801525,-25.0610695
7550,-0.2609667,6.7923155,-0.2489957,45.4122124,-24.6106873,-24.5954189,-2.5857246,10.1250277,0.1484398,-30.4274807,-6.8702292,-19.8625946
7560,-0.3782819,6.3805151,-0.2226596,44.0228996,-24.4045811,-17.3664131,-2.0853391,10.4745789,0.0454896,-35.7404594,-9.3969469,-15.3435116
7570,-0.5458752,6.2248926,-0.3303981,42.1450386,-25.3129768,-9.5343513,-1.4891858,11.1114330,-0.2873027,-45.3816795,-23.5038166,-13.4503813
7580,-0.2657550,6.2009506,-0.4908088,39.0763359,-25.4198475,-1.5267175,-0.2059003,12.2702208,-0.8930327,-63.9847336,-55.4885483,-16.5572510
7590,-0.0885850,5.9615316,-0.5650287,34.4351158,-22.9923668,4.6870227,1.0295014,13.7905312,-1.7046629,-92.9236679,-116.4809189,-22.0763359
7600,0.2537841,6.0333576,-0.5506636,28.7251911,-21.0839691,9.0992365,3.0310438,14.1903610,-3.5793133,-131.3664093,-194.7709961,-27.8396950
7610,0.7996593,5.8274570,-0.6895266,22.8473282,-16.6870232,10.0916033,5.3031297,13.4457684,-5.3390427,-173.9694672,-249.8625946,-39.2137413
7620,1.4772149,5.9136481,-0.7421987,16.2977104,-11.7938929,6.5343513,7.4148049,12.7514534,-4.9679432,-204.6641235,-250.1374054,-56.6335869
7630,1.6400198,5.7652082,-0.7972651,9.7404585,-5.1832061,0.8015267,8.2815018,11.9901009,-2.4372849,-212.0000000,-224.3435059,-80.7251892
7640,1.4293311,5.7029591,-1.0223188,1.9618320,1.2824427,-4.6641221,7.2376347,11.6429434,0.2825144,-191.5114441,-151.1755676,-106.1984711
7650,0.9337339,5.5497313,-1.4197544,-7.8091602,7.9083967,-6.7480917,4.9727316,11.6549139,1.8507085,-151.6717529,-68.4961853,-122.3282471
7660,0.4979914,5.6694407,-1.3575054,-17.1450386,13.2442751,-5.6183205,2.4492557,12.2247314,2.8682389,-107.1068726,-2.2137403,-130.5572510
7670,0.2537841,5.7939386,-1.5705882,-24.9465656,17.1221371,-0.5725191,0.2657550,13.1201582,2.4899571,-72.0534363,27.0229015,-134.0992432
7680,0.2992737,6.0501165,-1.6519908,-30.8167934,19.0534344,6.2671757,-1.4293311,13.7450418,0.5889706,-56.8167953,26.2213745,-135.1068726
7690,0.6009415,6.5265603,-1.6567791,-34.0687027,16.8625946,11.4809160,-2.4636209,14.4609041,-1.8578910,-62.5648842,10.1297712,-134.7557220
7700,1.0223188,7.1921453,-1.9057748,-35.9771004,11.1755724,13.8320608,-3.3303175,14.7242651,-4.4316444,-88.8167953,-13.0839691,-132.8244324
7710,1.2234308,8.0229292,-2.6000898,-40.2137413,4.9160304,13.6717558,-3.7588775,14.5806141,-6.7923155,-131.6030579,-39.0458031,-128.7251892
7720,1.2210367,8.8728657,-3.1004753,-49.5801544,0.8778626,11.1755724,-2.9568241,13.9605188,-7.9223728,-182.8625946,-59.9083977,-122.7328262
7730,1.0055596,9.6916790,-3.3853838,-61.8320618,-1.6335878,6.5648856,-2.0853391,12.4904861,-7.1945391,-228.6488495,-56.5190849,-118.3206100
7740,0.5769997,10.3788109,-2.9687948,-73.5954208,-2.9465649,1.8702290,-1.7621235,10.5057030,-5.0110383,-250.1374054,-33.1832047,-115.5801544
7750,0.0550664,10.8265247,-1.9991482,-82.0152664,-3.6335878,-1.2137405,-1.7573351,8.4227581,-2.3223639,-250.1374054,-2.0534351,-117.3206100
7760,-0.4764437,11.2694502,-1.2186425,-83.5572510,-2.2366412,-2.2290077,-2.7197993,6.0836353,0.0167593,-250.1374054,27.1145039,-123.3969498
7770,-1.0534433,11.5759058,-0.4548960,-79.8702316,-1.4045801,-0.5190840,-4.2089849,3.5745249,0.7589580,-250.1374054,53.8091621,-130.2290039
7780,-1.3958124,11.9134865,0.0885850,-72.3053436,-3.5114503,3.6335878,-5.4132624,0.9672526,1.2282192,-250.1374054,76.0763321,-136.8702240
7790,-1.5538290,12.2343082,0.4955972,-62.0305328,-8.0839691,9.1908398,-6.3829093,-2.2672975,1.5873476,-244.7022858,101.9160309,-146.9770966
7800,-1.3503228,12.3923244,0.9792235,-48.9236641,-15.5801525,14.5877867,-7.5081782,-5.7077475,2.4277081,-235.3358765,133.1221313,-159.2748108
7810,-0.9624642,12.4306316,1.3598996,-35.0992355,-23.5343513,17.0610695,-9.4235296,-9.3876171,3.4883339,-223.1603088,158.2137451,-171.4427490
7820,-0.2059003,12.6293497,1.4341195,-22.4351139,-28.4580154,16.6183205,-11.3101511,-12.6700506,3.7540891,-212.3435059,169.9236603,-182.5648804
7830,0.4908088,12.3588057,1.2665262,-12.5572519,-27.8702297,12.0763359,-13.5678720,-15.0594521,3.5912843,-212.8778687,166.5343475,-185.7099304
7840,0.7445929,12.6173782,1.2425843,-7.1221375,-22.8473282,5.4961834,-15.6819410,-16.6970768,3.8067613,-230.7251892,152.0076294,-176.9541931
7850,0.6177009,12.5599174,1.2449785,-3.1145039,-18.8854961,-0.4809160,-16.9125538,-17.2812595,6.0453281,-250.1374054,135.6564941,-152.3435059
7860,0.5434810,12.1481171,1.2832855,-1.3358779,-14.8549614,-7.4503818,-16.9101601,-15.7992563,11.0779142,-250.1374054,128.0152740,-113.0152664
7870,0.3806761,11.4466200,1.2401901,-1.0763359,-8.8778629,-14.9465647,-16.0314922,-13.2733860,17.4392757,-250.1374054,127.0152664,-63.2977104
7880,-0.0933734,10.8313131,1.1587877,-2.5267177,-1.7099236,-20.5725193,-14.4824524,-10.3883877,19.6126022,-227.6335907,129.1221313,-11.3282442
7890,-0.5674229,10.1441803,1.3359578,-3.9389312,4.3435116,-24.0610695,-12.6389265,-8.5185261,19.6126022,-165.3587799,133.4351196,32.9923668
7900,-1.0199248,9.3684635,1.4245427,-3.6564887,9.9389315,-25.1755733,-11.5591469,-7.4243813,19.6126022,-92.7938919,125.5190811,65.6030502
7910,-1.4891858,8.9638453,1.4365137,-1.8396946,14.6259546,-23.8778629,-10.8791971,-7.1945391,19.6126022,-21.7709923,87.4656525,88.6335907
7920,-1.8818330,8.4443064,1.4700323,1.0839695,16.1832066,-20.6870232,-9.3612804,-7.7619624,19.6126022,39.5954208,24.9694653,101.2290039
7930,-2.2361729,8.0588417,1.3096216,4.2213740,15.7099237,-15.9923668,-7.3836803,-8.5400734,19.6126022,81.7022934,-48.8320618,97.1603088
7940,-2.2888451,7.8313937,1.1970947,7.0610685,15.5114508,-9.5190840,-5.8753409,-9.7563219,16.6348286,111.8244247,-114.6106873,77.2519073
7950,-2.1284344,7.8529415,0.8954269,9.6564884,13.9923668,-2.6946564,-4.9056940,-10.0723553,12.0858688,127.9923630,-154.4809113,49.6946564
7960,-1.6352314,8.0181408,0.4525018,11.6488552,11.4045801,2.0305343,-4.9487896,-9.7395630,8.6214762,135.5877838,-173.0610657,19.3511448
7970,-1.2090657,8.3269911,0.1125269,12.3740454,9.7175570,4.6564884,-6.4116392,-9.1003141,6.5648675,137.7709961,-178.6412201,-7.0076337
7980,-0.8164186,8.5807753,-0.5123565,9.4656487,10.5725193,5.2366414,-8.4993725,-8.1186962,5.4324160,137.4122162,-182.8854980,-19.9465656
7990,-0.2609667,8.7938576,-0.7589580,4.2137403,12.2519083,3.9541984,-9.8473015,-6.5576849,4.3502421,134.7175598,-184.6488495,-19.5572510
8000,0.0311245,9.1051025,-0.8140244,-1.5648855,13.6259546,1.4427481,-10.4147243,-4.8913293,3.6439564,129.0381622,-180.3358765,-12.0152674
8010,0.2274480,9.2966375,-1.0725969,-8.1297712,13.1145039,-2.3969467,-10.5655584,-3.6535332,3.2441268,120.4732819,-170.4351196,0.4656489
8020,0.2298422,9.5360565,-1.2114599,-15.6641226,12.9465647,-5.0076337,-10.1968527,-2.7341642,3.0765336,110.6030502,-161.7786255,13.7251911
8030,0.1867468,9.5839405,-1.1563935,-24.0152664,12.0381680,-6.0152674,-9.2894554,-1.6448082,3.0693510,98.8549652,-154.3664093,24.5190830
8040,0.2154770,9.7323799,-0.8547257,-30.1297703,10.5877867,-5.8854961,-8.3054428,-0.9576758,3.5841017,88.4351120,-146.5267181,28.9312973
8050,0.2274480,9.7371683,-0.3830703,-32.8167953,7.5801525,-3.9312978,-7.1490498,-0.2849085,4.4699516,82.9618301,-132.6870270,29.2748089
8060,0.3351865,9.6557665,0.0000000,-31.8091602,0.7328244,0.9541985,-5.9567432,0.5362985,5.1570840,85.0305328,-110.8015289,23.6183205
8070,0.6009415,9.6916790,0.5793939,-27.0687027,-9.9541988,7.5877862,-5.9016771,1.4987626,5.7460546,88.8320618,-91.0229034,12.4122133
8080,0.7805058,9.7299862,1.0414724,-19.3740463,-23.8702297,16.1603050,-6.5792327,2.5929072,6.2751703,90.6030502,-79.1984711,0.5038168
8090,1.3694763,9.6940727,1.3575054,-9.9923668,-40.6564903,25.6641216,-7.4890246,3.6990228,6.6127515,89.6870193,-79.0076370,-6.7175574
8100,2.0398495,9.6605549,1.5155219,0.4122137,-57.7022896,33.5801544,-8.0947542,4.9176650,6.5983863,85.2824402,-90.0305328,-10.9465647
8110,2.6767037,9.6677370,1.5969244,9.9236641,-71.7175598,38.5038185,-8.7244263,6.3900914,6.4427638,77.1908417,-105.5877838,-9.8931293
8120,3.2752512,9.5528164,1.3862357,16.6946564,-77.7175598,39.8320618,-9.1697454,7.2927012,6.2631998,67.9618301,-113.9923630,-2.7557251
8130,3.5146701,9.6270361,1.0630201,19.1679382,-74.8396912,37.8015251,-8.9135675,7.5871863,6.2320752,59.5648842,-113.2748108,9.9847326
8140,3.5721307,9.5408449,0.6177009,17.1908398,-62.9923668,32.9923668,-7.7882981,7.8313937,6.1746144,55.0076332,-104.3435135,23.7938938
8150,3.0334380,9.5480280,0.2274480,12.4885492,-44.9618340,27.0076332,-6.8066807,7.8050575,6.4068508,55.0000000,-88.9389343,32.2366409
8160,2.1499822,9.4690189,-0.3423691,5.6641221,-24.9083977,22.2442741,-6.3541789,7.2376347,6.2991123,57.4427490,-70.1755753,40.0916023
8170,1.2689204,9.5216913,-0.8738791,-2.0763359,-7.1755724,18.3129768,-5.9495606,6.6151457,6.3350253,61.2442741,-47.1526718,47.2213745
8180,0.4213773,9.5192976,-1.1899122,-8.0534353,4.5343513,16.5267181,-5.5640965,6.3182659,6.3254485,65.7251892,-21.8244267,54.5343513
8190,-0.1436514,9.7275915,-1.4556671,-10.5648851,6.9312978,15.5419846,-5.1092005,6.5768385,6.3613615,69.6793900,-1.1374046,59.4656487
8200,-0.5123565,9.9215212,-1.6735384,-12.5648851,3.5114503,13.6946564,-4.8027439,7.1634150,6.0549049,68.8549652,7.6335878,61.3664131
8210,-0.7134684,10.1896706,-2.1140692,-16.6106873,-1.4198474,10.5801525,-4.8458395,7.8912482,5.7747850,60.4732819,3.4427481,63.7251892
8220,-0.9026094,10.3835993,-2.2289903,-22.6946564,-7.1832061,6.2748094,-4.6016321,8.0396881,5.6814117,44.7633591,-10.7709923,66.0610657
8230,-0.9385223,10.3117743,-1.8459201,-29.2137413,-13.1221371,0.8473282,-3.8642218,7.7811155,5.8106980,28.3129768,-28.8625946,64.8091583
8240,-1.0055596,10.2878323,-0.9768293,-34.0458031,-15.4809160,-4.4503818,-2.7533178,7.5225434,6.0405402,16.6564884,-43.1679382,59.0992355
8250,-1.2497669,10.1705170,-0.2561783,-36.9160309,-13.2442751,-7.9770994,-1.9776005,7.3764977,6.0860295,10.9541988,-49.7328262,49.4580154
8260,-1.3670821,10.1106625,0.1939293,-38.4885483,-8.3893127,-10.0229006,-1.7525467,7.0628591,6.3182659,6.2595420,-45.7633591,37.9847336
8270,-1.4820032,10.0627785,0.6464311,-39.1221390,-2.1526718,-10.7022905,-1.9728121,7.3118544,6.9311786,5.7022901,-35.2519073,28.7251911
8280,-1.5777708,10.0125008,1.0127422,-38.6488533,3.0152671,-11.2213745,-2.2122312,7.5464849,7.7667508,13.4732828,-18.4503822,23.0458012
8290,-1.5035510,9.8975792,1.4365137,-37.0763359,5.5648856,-12.0839691,-2.8012016,7.9175844,8.1019373,24.1297703,0.0152672,23.7099228
8300,-1.4580613,9.9047613,1.7740943,-33.2824440,5.5648856,-13.3740454,-2.9735832,8.3844519,8.0899658,30.6335869,13.8625956,27.1145039
8310,-1.4700323,9.8401184,2.0350611,-29.7404575,5.1221375,-13.6412210,-2.7940190,8.5400734,8.2312231,34.6335869,22.3053436,29.2366409
8320,-1.3622938,9.7251978,2.0398495,-27.1145039,5.5343513,-12.4732828,-2.7628946,8.5161324,8.4778252,38.8167953,26.4809170,28.0381680
8330,-1.2282192,9.7658987,2.1978660,-26.0000000,8.6259546,-10.8473282,-3.2752512,8.4107876,8.3413563,41.7633591,27.8854961,25.0687027
8340,-1.2042773,9.7275915,2.1619530,-25.9236641,14.2137403,-7.8854961,-3.7780309,8.4299412,8.2838955,41.4122124,26.0687027,23.4809170
8350,-1.1611819,9.8449068,2.3654592,-25.9007626,20.5038166,-4.4580154,-4.1275826,8.4682484,8.2455883,40.3664131,20.9618320,22.8015270
8360,-1.0151364,9.9789820,2.6719155,-24.8931293,26.3816795,-0.0076336,-4.3789725,8.4778252,8.4012108,40.1908379,15.0763359,21.9923668
8370,-0.9480990,10.0843258,2.8227494,-22.5648861,30.2595425,4.1068702,-4.5537481,8.3724804,8.2264347,39.9618340,9.8091602,24.6335869
8380,-0.7421987,10.0891142,3.2082138,-18.1679382,32.2595406,9.0076332,-4.2185616,8.1761570,7.7068958,39.4351158,5.4809160,26.7175579
8390,-0.5769997,10.2112179,3.4428444,-10.3740454,30.5648861,13.8320608,-4.1395535,8.0612354,7.4387465,35.7480927,2.7404580,28.5114498
8400,-0.2489957,10.4386663,3.4500270,-0.2595420,25.7251911,17.5343513,-4.1826491,7.8577299,7.5608501,31.6259537,3.5954199,31.3435116
8410,0.1412572,10.6349897,3.2393384,9.2595415,20.9083977,19.5648861,-4.1994085,7.5393028,8.1665802,31.5954189,7.6106873,37.7480927
8420,0.4285599,11.0252428,2.9065459,15.4580154,19.3435116,19.4274807,-4.0557570,7.2184811,8.5520449,37.2290077,12.3740454,44.9923668
8430,0.5841822,11.4992924,2.6072724,19.5114498,21.1755733,17.9160309,-3.5505829,6.8689294,8.3317795,44.7557259,17.8702297,51.3129768
8440,0.6727672,11.4514084,2.2505381,20.7328243,25.8320618,15.6870232,-3.0382264,6.5864153,7.8816719,51.5114517,25.2595425,56.0992355
8450,0.5075682,11.5615406,2.3103929,21.7709923,30.4656487,14.8396950,-2.5474176,6.4236102,7.4004397,56.3816795,33.4427490,59.0076332
8460,0.5003856,11.6022425,2.5689652,25.6335869,32.5877876,15.5572519,-2.0829449,6.2655940,6.8737178,59.9312973,38.6564903,60.2366409
8470,0.6584021,11.4442253,2.8083842,32.5801544,30.9923668,16.0534344,-1.6280488,6.1530671,6.2655940,60.4885483,39.9007645,58.4274826
8480,0.7829000,11.4202833,2.7197993,41.0076332,27.0152664,16.4198475,-1.3503228,6.1243367,5.6526814,58.6946564,36.5114517,56.5496178
8490,1.1372399,11.0731258,2.3870070,48.7938919,22.8167934,15.8167934,-1.1132981,6.1123657,5.0182209,54.0839691,29.7480907,53.7099228
8500,1.4652439,10.9031391,2.0709739,54.7480927,19.4274807,14.0839691,-0.6536137,6.0381460,4.5178356,47.1679382,21.9618320,50.5343513
8510,1.7309990,10.6373835,1.8794388,58.8702278,17.5343513,10.8854961,-0.1125269,6.0525107,4.1395535,39.1984749,14.5190840,45.9389305
8520,1.9105632,10.3500814,1.5227045,61.7251892,16.4427490,7.3740458,-0.0095768,6.0405402,3.8761928,30.0229015,6.3664122,40.7328262
8530,2.0302727,9.9981356,1.1851238,62.7099228,16.7786255,3.2290077,-0.4429250,6.2009506,3.8283088,19.3282452,-0.7099237,37.3740463
8540,1.7860653,9.2679071,0.2202654,57.6106873,21.1145039,-3.8091602,-0.4165890,6.1578555,4.7069764,6.9465647,-4.4351144,34.6793900
8550,1.4221486,8.5161324,-0.4189832,46.0992355,26.8702297,-7.7099237,-0.9672526,6.4355812,5.0110383,8.7404585,5.7175574,28.9694653
8560,0.9983770,7.7475972,-0.7637464,32.1526718,28.2061062,-8.9389315,-1.3862357,6.8018923,5.3534074,11.5648851,18.9083977,28.4427490
8570,0.7302278,7.4842362,-0.6679789,26.3129768,23.9007626,-7.8396945,-1.3431402,6.9718795,5.2791877,11.8473282,21.7251911,24.9083977
8580,0.3615226,6.5864153,-0.2059003,16.2137413,1.5954199,1.6030535,-1.8914096,7.5321202,4.9296360,-2.5725191,0.4732825,8.4656487
8590,0.5961532,6.4619174,-0.0933734,14.6793890,-5.2748094,5.4198475,-2.0087249,7.6973190,4.9056940,-7.7175574,-7.9923663,1.6412214
8600,0.9002152,6.4858594,-0.0957676,12.8854961,-8.1145039,8.7633591,-2.3391230,7.9008250,4.6614871,-11.0916033,-14.2595415,-3.2671757
8610,1.1635761,6.6678176,-0.2561783,9.7175570,-7.5954199,11.1145039,-2.5162930,8.0779953,4.2975702,-13.5572519,-20.2366409,-6.8091602
8620,1.5346755,6.9431496,-0.5578461,5.1450381,-5.1068702,11.6564884,-2.6934631,8.1929159,3.9623835,-16.9007626,-23.8931293,-8.6793890
8630,1.5346755,7.3836803,-0.8475431,-0.2213740,-1.9312977,11.6412210,-2.9233053,8.0588417,3.6846576,-20.4732819,-23.2900772,-7.1984735
8640,1.4293311,7.9247670,-1.0749911,-6.1679387,1.8625954,11.0610685,-2.8490853,8.0109577,3.8043671,-22.5343513,-20.6793900,-4.8320613
8650,1.1109039,8.6262646,-1.2234308,-12.0458012,6.2137403,11.2824430,-2.7748656,7.6829538,3.7109938,-19.7251911,-0.3129771,-1.3816794
8660,0.6200951,10.0795374,-1.6160779,-22.8473282,12.6335878,10.5267172,-2.1475880,7.1610208,3.1196289,-8.9312973,5.8091602,4.0610685
8670,0.4141948,10.7211800,-1.4365137,-26.2442741,12.7022905,11.4732828,-2.2792683,6.9790621,1.9919657,-8.8778629,6.4580154,3.6793892
8680,0.2274480,11.2311430,-0.9504932,-26.1221371,9.4656487,12.9312973,-2.4684093,6.8234401,0.8020535,-19.2366409,3.9465649,5.1450381
8690,0.2466015,11.5663290,-0.6440369,-22.4198475,3.9847329,14.3511448,-2.4372849,6.8449879,-0.4094064,-40.3435097,-0.0534351,8.2366409
8700,0.4141948,11.8943329,-0.2226596,-15.7328243,-2.3129771,15.7709923,-3.0238612,6.6462698,-0.7398046,-66.7328262,-6.3740458,12.1526718
8710,0.6296718,12.0691090,-0.1005560,-8.2900763,-8.2595415,16.8015270,-3.0358322,6.5648675,0.0383070,-94.6564865,-14.0076332,17.0916023
8720,0.8858501,12.2295198,-0.2106887,-2.9007633,-11.1755724,16.5954189,-2.4420733,6.4786768,1.5658000,-115.3587799,-17.0229015,22.1526718
8730,1.2473727,12.2582502,-0.1149211,0.1832061,-10.8396950,14.8702288,-1.4987626,6.3876977,3.6631098,-124.8702316,-9.5496187,24.6335869
8740,1.5466464,12.1768475,0.0430954,2.4274809,-9.2671757,11.5801525,-0.4165890,6.2584114,5.3031297,-121.7328262,6.7251906,21.3282452
8750,1.7669119,10.9127159,1.3766589,16.8625946,-14.5572519,-2.7480917,-0.3088504,8.7124557,7.3645267,-55.3587799,72.6106873,-52.9007645
8760,1.6950861,10.4362717,1.6879035,21.9312973,-15.2519083,-6.2671757,-1.8243724,10.1513634,7.0820122,-47.7633591,71.1832047,-68.8015289
8770,1.6376256,9.9789820,1.6136837,26.7022896,-13.7404585,-10.0610685,-3.2632802,11.3508520,6.4475522,-49.8702278,55.1450386,-76.7480927
8780,1.4820032,9.5001440,1.4149660,30.0534344,-10.5419846,-13.6259546,-3.5505829,12.4354200,5.9351954,-60.9083977,31.5954189,-79.8931274
8790,1.1683644,9.0883436,1.0366840,31.8854961,-6.1603055,-15.8778629,-2.9927368,13.3667593,5.5952206,-78.0534363,7.2061067,-82.7709961
8800,0.9457048,8.7004843,0.6416427,31.5267181,-2.8320611,-17.1221371,-1.7573351,13.9533358,6.2512288,-91.8167953,-1.2977099,-89.5954208
8810,0.7158626,8.4945841,0.2298422,29.9847336,-0.8854962,-18.2748089,-0.5075682,14.2119083,8.1450329,-88.6641235,19.2671757,-99.3511429
8820,0.5099624,8.2216463,0.0407012,28.3664131,0.0534351,-18.8244267,0.4979914,15.0450869,10.8384953,-60.9389305,71.9694672,-110.8625946
8830,0.3758878,8.0612354,-0.4333483,26.4351139,0.9083970,-18.5725193,0.8499373,16.1488075,12.7753954,-8.8625956,148.1450348,-120.4732819
