timestamp,rxacclX,rxacclY,rxacclZ,rxgyroX,rxgyroY,rxgyroZ,txacclX,txacclY,txacclZ,txgyroX,txgyroY,txgyroZ
0,0.5482694,1.3958124,5.5521255,114.6412201,215.6183167,-199.9313049,-4.5609307,2.4731977,9.1027079,0.8702290,-0.6717557,-2.4427481
10,-2.3870070,1.6017127,5.1977854,101.0839691,203.4351196,-205.0076294,-4.5800843,2.4803803,9.0691900,1.3816794,-0.2213740,-3.0992367
20,-4.6878228,1.1180865,4.7428894,84.5190811,175.5190887,-192.4580078,-4.5561423,2.4803803,9.0596132,1.6564885,0.0534351,-2.8549619
30,-6.4331870,0.5961532,4.3909435,66.1526718,130.0000000,-167.3740387,-4.5944495,2.4755919,9.0021524,1.8854961,0.0152672,-2.7022901
40,-6.0596933,0.2633608,4.1443419,50.0228996,75.5038147,-141.7328186,-4.6279683,2.5091105,8.9782104,2.0458016,-0.3969466,-2.9389312
50,-4.5513539,1.4939742,4.5393834,38.8778610,30.6183205,-125.6870193,-4.6231799,2.5043221,9.0093346,1.6717557,-0.5190840,-2.9541984
60,-4.5202298,3.2393384,5.4946647,33.0534363,11.5801525,-117.5190811,-4.5776901,2.5282640,8.9710283,1.4427481,-0.9847328,-2.5419848
70,-6.0836353,5.0469513,6.8162575,32.8396950,2.6030533,-108.2900772,-4.5489597,2.5043221,8.9782104,1.3664122,-0.9236641,-2.6488550
80,-6.8713236,4.9032998,7.8720951,36.0534363,68.1221390,-89.5572510,-4.5872669,2.4803803,8.9135675,1.3740458,-0.6870229,-3.0076337
90,-4.4962878,3.5577655,5.1762376,21.7557259,79.3358765,-71.1832047,-4.5920553,2.5282640,8.9806042,1.5496184,-0.1297710,-2.7557251
100,-5.9902620,0.7733232,6.5816269,-30.4274807,-59.7709923,-45.1221390,-4.6183915,2.5593886,8.9566631,1.8091604,0.3969466,-2.4351146
110,-4.6112089,1.0941446,5.6718349,-50.3969460,-80.9083939,-37.7175560,-4.6758518,2.4875629,8.8561068,1.3740458,0.4885496,-1.9770992
120,-4.5082588,1.5705882,5.9040713,-66.4274826,-54.3969460,-27.1832066,-4.7285242,2.4827745,8.8034344,0.9770992,0.5801527,-1.7404580
130,-3.9528067,2.2026544,6.1147599,-77.0000000,-4.6717558,-16.4427490,-4.6686692,2.4708035,8.8058290,0.6106870,0.4885496,-2.1450381
140,-4.8745699,2.2984219,7.0149751,-83.2442780,-1.6183206,-4.3129773,-4.7907729,2.4229198,8.8393478,0.2977099,-0.1679389,-2.2137403
150,-5.7604198,2.4037662,7.3741035,-86.3282471,-12.5801525,10.5267172,-4.7572546,2.4492557,8.7914639,0.0534351,-0.7099237,-1.6870229
160,-4.5944495,2.4923513,8.0205345,-86.2290039,-18.2824421,17.1755733,-4.8003497,2.4205256,8.9135675,-0.1679389,-1.2213740,-1.5496184
170,-3.4069316,2.2385671,7.8409705,-82.8320618,-21.0152664,17.0916023,-4.7596488,2.4013720,8.7794924,0.2213740,-1.5038168,-1.9770992
180,-3.2297616,1.6902977,7.9056134,-77.6564865,-14.4961834,17.2671757,-4.7452836,2.4037662,8.7723103,0.6259542,-2.1374047,-2.6030533
190,-3.4763632,1.3718705,8.3413563,-72.2290039,-5.3816795,20.1908398,-4.8171091,2.4540441,8.7483683,0.3435115,-2.6641221,-2.1450381
200,-4.0150557,1.0582317,8.3796635,-67.9160309,5.4885497,25.9770985,-4.7309184,2.4348907,8.7890692,-0.1297710,-3.2977099,-2.1068702
210,-4.7620430,0.7302278,8.6430235,-65.2595444,10.5419846,33.9236641,-4.7045822,2.5186872,8.8273764,-0.7099237,-3.4656489,-2.3282442
220,-4.7955613,0.6057299,9.0883436,-63.0610695,1.9389313,40.7709923,-4.8314743,2.5210814,8.9446917,-0.9083970,-3.5954199,-0.9160305
230,-5.8394279,0.7038917,9.4067707,-59.8167953,-4.3206105,46.7633591,-4.7764082,2.5067163,8.9063845,-0.9312977,-3.6488550,-0.5038168
240,-5.5569139,0.9744351,9.7491398,-53.1603050,-6.7709923,49.4274826,-4.6159973,2.5809362,8.9925756,-0.5114504,-2.5648854,0.5114504
250,-5.1283536,0.9026094,9.6270361,-44.6564903,-0.9007633,49.2290077,-4.6303625,2.5929072,9.0069408,-0.2137405,-1.4732825,0.6488550
260,-5.4443870,0.5650287,8.3844519,-19.5572510,35.0839691,44.7404594,-4.5034704,2.6479735,8.9997578,1.1145039,0.5801527,1.1374046
270,-5.1044121,0.5913648,8.1210909,-13.0152674,49.1679382,42.4351158,-4.4651632,2.6455793,9.0739784,1.3358779,0.8625954,0.6030535
280,-4.8889351,0.8595140,8.1761570,-3.8244274,49.4198456,40.0763359,-4.4412212,2.6862805,8.9159613,1.5877863,0.8015267,0.5648855
290,-5.0445571,1.0510491,8.3796635,2.9389312,35.4351158,38.1526718,-4.4531922,2.6527619,8.8417416,1.8396946,1.3358779,-0.1297710
300,-4.9727316,1.1324517,8.2072811,9.7633591,15.9694653,33.7404594,-4.5992379,2.7078283,8.7986460,1.5725191,1.4503816,-0.6717557
310,-4.3933377,1.6831152,7.5728211,14.7022905,-70.4656525,-18.5877857,-4.7835903,2.6455793,8.7244263,0.0152672,-1.1603054,-1.4656489
320,-4.6183915,1.6902977,7.8744893,12.0916033,-91.5877838,-32.2671738,-4.8602047,2.5833304,8.7124557,-0.8549618,-2.2824428,-1.8167939
330,-4.6686692,1.3910241,7.8744893,7.0610685,-114.9847336,-44.7328262,-4.9104824,2.4971397,8.5304966,-1.8015267,-3.6030533,-1.6717557
340,-4.3071470,1.0965388,8.8273764,3.4503818,-126.6106873,-55.1297722,-4.8913293,2.4037662,8.6502066,-2.9618320,-4.9847326,-2.3511450
350,-3.9599893,0.4046180,10.9198980,9.9847326,-106.5572510,-59.2137413,-4.9224534,2.3917952,8.7124557,-3.5801528,-6.1984735,-2.8091602
360,-3.2441268,0.4572902,10.7930059,26.1526718,-79.0381699,-56.8320618,-4.8506279,2.3846128,8.7459745,-3.7709923,-6.9007635,-2.0458016
370,-4.0389977,0.4596844,9.1625633,39.2213745,-44.1603050,-45.0763359,-4.8242917,2.4612267,8.8585014,-3.9541984,-7.1297708,-2.8702290
380,-4.5513539,0.5985473,8.3198080,36.8396950,-26.5877857,-29.8244267,-4.8290801,2.5809362,8.8848372,-3.4427481,-7.3206105,-3.2442749
390,-4.3119354,1.0845678,7.4411407,15.8625956,-35.5954208,-22.0458012,-4.7021880,2.6216373,8.8656836,-3.1221373,-7.2900763,-3.0152671
400,-3.5122759,1.2186425,7.4483232,-9.7709923,-29.8244267,-24.3435116,-4.6279683,2.6144550,8.7316093,-3.4198472,-8.1755724,-2.9847329
410,-2.9951310,1.4053892,7.4171991,-24.3587780,-14.4045801,-34.7862587,-4.6830344,2.7150109,8.6573887,-5.0534353,-8.8778629,-3.1374047
420,-3.5146701,1.6304430,7.5967631,-33.4274826,-17.2061062,-45.6030540,-4.7045822,2.7006457,8.6909075,-7.3129773,-9.2366409,-2.6412213
430,-3.6104376,1.5538290,8.0085640,-38.1145020,-43.7480927,-52.7938919,-4.7644372,2.6024840,8.6621771,-9.8244276,-8.6717558,-1.3664122
440,-3.8785870,1.4987626,8.9183559,-37.0839691,-85.7099228,-55.6946564,-4.8314743,2.4109488,8.8082228,-11.7786255,-6.9312978,-0.3358779
450,-3.7085996,1.0342898,9.4498653,-32.6412201,-120.4503784,-55.8931313,-4.9440012,2.2720859,9.0548248,-13.1832066,-1.9541985,0.2442748
460,-3.6200144,0.1388630,10.4673967,-24.4656487,-149.3282471,-52.0076332,-4.9799142,2.1475880,9.5432396,-13.8625956,6.6564884,0.2442748
470,-3.2177906,-0.5458752,11.1234045,-9.0381680,-168.4198456,-44.9007645,-4.8051381,2.1427996,10.0268650,-11.6030531,17.1374054,-0.9007633
480,-2.9592183,-0.3016679,11.0515785,8.1832066,-158.6641235,-32.9541969,-4.8530221,2.1068866,10.0220766,-7.6641221,26.3740463,-3.8091602
490,-2.5953014,-0.2226596,11.2574787,26.1145039,-137.3893127,-17.6030540,-4.8027439,2.0398495,9.5791521,-4.4427481,33.7709923,-5.8702292
500,-2.0685797,-0.5602403,10.0316534,26.7099228,-128.7786255,-9.2519083,-4.7620430,2.2792683,9.8856087,-4.1908398,41.0228996,-10.7709923
510,-1.1420283,-0.1005560,8.8824425,18.6412220,-96.2366409,-3.2977099,-5.0780759,2.3439114,9.6078825,-3.2519083,44.5267181,-15.7251911
520,-0.2322364,0.0766141,9.3493099,2.3740458,-8.9465647,-0.0610687,-5.8106980,1.9081690,8.9734221,-8.0076332,47.5343513,-16.8091602
530,-0.9433106,0.4165890,8.6190825,-16.4809170,6.4198475,5.0229006,-7.1777802,2.5402350,9.5025377,-15.8396950,58.9389305,-12.0534353
540,-0.5003856,1.0821736,8.7148495,-31.5343513,11.2213745,4.3740458,-9.2583303,2.2984219,11.2287483,-17.1068707,84.7862625,2.9160306
550,-0.4429250,1.3694763,9.7084379,-39.8244286,32.4045792,-3.3511450,-10.9007444,1.8052188,12.6532917,-15.4503813,104.3740463,23.4045811
560,-0.5003856,1.2354017,10.3931761,-38.3129768,44.4122124,-14.1984730,-12.1720591,2.0063307,14.0826225,-7.4274807,115.2977066,48.1221390
570,-1.0151364,0.5841822,10.6541433,-31.8549614,40.1145020,-23.3053436,-12.8663740,2.1236460,15.0187502,8.5496187,122.0305328,76.0229034
580,-1.6400198,0.1149211,10.2950144,-23.5877857,32.1526718,-25.7404575,-12.3037395,1.5083394,15.5287132,32.0687027,134.0686951,106.7633591
590,-2.0781565,-0.0407012,9.7012558,-16.7175579,28.5114498,-22.5114498,-11.4011297,1.3742647,15.3826675,58.3511467,152.2824402,135.5801544
600,-2.3558824,-0.1532281,9.4426832,-14.6412210,27.6717548,-14.9541988,-10.4506369,1.1539993,15.1408539,84.3511429,172.3969421,157.5496216
610,-2.5713594,-0.1891410,9.3900108,-15.7404585,25.6870232,-7.6793895,-9.2559366,1.3287752,14.5470953,112.4961853,194.3816833,175.2137451
620,-2.4372849,-0.1795642,9.5767574,-15.2290077,19.5114498,-3.2595420,-8.2527714,1.0821736,13.2518387,137.3206177,215.6183167,188.4427490
630,-2.5402350,-0.1843526,9.6916790,-11.6946564,15.9923668,-0.6488550,-7.4746594,1.3120158,11.8799677,154.7404633,245.5496216,195.6564941
640,-2.5210814,-0.1460456,9.6988611,-9.4885492,17.7175579,3.0534351,-7.1035600,1.7932479,10.5511932,167.6412201,250.1297760,201.6946564
650,-2.4253139,-0.1771700,9.7060442,-9.0000000,13.7022905,6.8473282,-6.9216018,2.2840567,9.4402885,175.1145020,250.1297760,206.4656525
660,-2.4779861,-0.0311245,9.6509781,-8.0534353,9.4885492,9.2977095,-6.7947097,3.0238612,8.4634600,179.2519073,250.1297760,212.5725250
670,-2.4277081,-0.0742199,9.6988611,-5.4198475,4.7557254,10.1984730,-6.1889796,3.5074875,7.1586266,180.4122162,250.1297760,215.6564941
680,-2.6192431,0.1963235,10.0148945,-4.9007635,-1.8015267,7.9389315,-5.8226686,4.1012464,5.8418221,179.2061005,250.1297760,216.1297760
690,-2.6216373,0.2274480,10.2327662,-3.2137403,-11.4351149,6.4961834,-5.4683285,4.8410511,3.9647777,175.6870270,234.6641235,212.1526642
700,-2.3654592,0.0263361,10.1609402,-1.0839695,-15.7633591,6.4656487,-5.4324160,5.8226686,1.6256547,169.2442780,200.3664093,207.4351196
710,-2.1499822,-0.0454896,9.7443514,0.0305344,-14.7709923,8.1374044,-5.2265158,6.7971039,-0.8906385,154.7022858,153.3664093,203.5725250
720,-1.9392935,-0.0430954,9.5719690,0.4198473,-14.4122133,8.9389315,-5.1953912,7.6254935,-3.7229645,128.3053436,105.1984711,203.0686951
730,-1.5777708,0.1101327,9.5097208,0.8854962,-17.1068707,8.0229006,-4.3239059,8.1785507,-6.7204900,92.0839691,71.0381699,204.7328186
740,-1.4077834,0.1436514,9.5001440,1.2366412,-17.1450386,6.2595420,-3.4260850,8.4754305,-8.3868456,49.3053436,49.9236641,206.2366486
750,-1.3144100,0.0718257,9.6725254,1.5419847,-17.5267181,4.0000000,-1.9536586,8.4083929,-8.6861191,10.8167934,30.7251911,200.7251892
760,-1.4604555,0.0502780,10.0292597,2.9770992,-8.8854961,1.2824427,0.2322364,8.6190825,-8.7268209,-23.4198475,14.4427481,184.2213745
770,-1.3718705,0.1484398,10.4171181,2.4045801,4.0610685,-1.6870229,2.4468615,8.7435799,-8.1737623,-54.8778610,-10.8091602,152.9923706
780,-1.4149660,0.0766141,10.2614956,2.7328243,14.0610685,-4.3358779,4.8003497,8.3964224,-8.6573887,-87.9160309,-53.2442741,107.7022934
790,-1.5250987,0.0574605,9.9646168,2.3511450,22.2290077,-6.9007635,5.9184365,8.0181408,-8.8728657,-128.0534363,-92.5572510,56.1832047
800,-1.9225341,0.0598547,9.6222477,3.0229008,21.5419846,-8.0534353,5.7699966,7.8673067,-8.3006544,-174.1297760,-118.9465637,8.1526718
810,-2.1595588,0.1987177,9.1601686,4.6488547,18.6335869,-7.1145039,4.5058646,7.2280579,-6.7540083,-218.3969421,-140.3511505,-29.6335869
820,-2.2696917,0.4022238,8.4945841,1.8854961,20.1221371,-4.1526718,3.2489152,6.0740585,-4.8697815,-250.1374054,-158.4198456,-58.9618340
830,-2.0901275,0.3399749,8.0325060,-5.4198475,18.9083977,-1.6717557,0.8666966,3.8546450,-2.3726418,-250.1374054,-160.5190887,-75.5648880
840,-1.7956421,0.0861908,8.0181408,-15.4122133,16.8015270,-1.1145039,-1.5873476,2.6862805,0.7445929,-250.1374054,-125.3969498,-73.0992355
850,-1.6424140,-0.0526722,8.3557215,-26.4961834,17.3358784,-2.1068702,-5.2983413,1.2066715,5.0684991,-250.1374054,-43.1526718,-47.5190849
860,-1.7190280,-0.3112446,8.7363977,-36.0000000,21.0763359,-4.1450381,-9.9717989,0.6631905,11.0324249,-250.1374054,78.0305328,6.4351144
870,-1.8961980,-0.2226596,9.0907373,-44.2442741,24.1450386,-5.6564884,-13.9102411,0.6488253,17.7289734,-250.1374054,197.6946564,82.3129807
880,-2.0542145,-0.3998296,9.7395630,-47.8244286,22.2977104,-7.6183205,-16.6491928,-0.3351865,19.6126022,-194.9770966,250.1297760,161.7862549
890,-2.3391230,-0.6081241,10.1441803,-46.0381660,19.4656487,-11.2213745,-17.3123837,-1.8291607,19.6126022,-113.5190811,250.1297760,231.4656525
900,-2.7700772,-0.6177009,10.4961262,-39.2519073,10.9847326,-11.5954199,-15.8447456,-3.1723011,19.6126022,-21.5343513,250.1297760,250.1297760
910,-2.9424589,-0.6799498,10.7403336,-29.2748089,-3.1450381,-8.9465647,-11.9565821,-4.3813667,19.6126022,73.7557220,209.8854980,250.1297760
920,-2.8371146,-0.8523315,10.9294748,-15.8854961,-16.9236641,-6.9007635,-7.1753860,-4.7644372,19.6126022,165.0229034,179.7328186,250.1297760
930,-2.7892308,-0.7900825,11.2095947,-0.3129771,-28.3664131,-5.6183205,-4.1946201,-3.9432299,19.6126022,234.3816833,169.9618378,250.1297760
940,-2.8155668,-0.5937590,11.0108776,14.1068707,-34.5267181,-4.7709923,-2.9161227,-2.7389526,16.4720230,250.1297760,166.4732819,250.1297760
950,-2.6000898,-0.5434810,10.3524752,22.5954189,-30.7480907,-2.3664122,-2.0949159,-1.2282192,12.6580801,250.1297760,158.1221313,250.1297760
960,-2.3175755,-0.4812321,9.4139528,24.3587780,-22.9618320,1.1221374,-1.8339491,0.2896969,9.2607250,250.1297760,141.4045868,234.0152740
970,-2.0183017,-0.4381367,8.8920193,21.3435116,-17.5114498,2.3129771,-1.5394639,2.1380112,6.1674318,250.1297760,116.9542007,216.9923706
980,-1.8961980,-0.1723816,8.5879574,15.0763359,-12.0152674,1.1221374,-1.0797794,3.2177906,3.9121056,250.1297760,85.0839691,204.2290039
990,-1.8459201,-0.1197095,8.6262646,4.1832061,-3.9694657,-1.0458015,-0.1795642,4.3885493,2.1116750,250.1297760,56.4351158,194.3740387
1000,-1.9752063,-0.2585725,9.0500364,-2.5572519,4.1221375,-3.7862597,0.6607963,5.4419928,0.5793939,250.1297760,37.7404594,190.3893127
1010,-2.3223639,-0.3878587,9.3828287,-6.1374044,8.8320608,-5.5114503,1.9991482,5.8825235,-1.7262106,250.1297760,40.0839691,194.3587799
1020,-2.5426292,-0.3208214,9.3828287,-6.4885497,6.3358779,-5.7022901,4.1778607,6.5505023,-4.3119354,250.1297760,64.2900772,200.5267181
1030,-2.6503677,-0.4477134,9.5623922,-4.6870227,1.2748091,-4.1221375,7.3334022,6.9599090,-7.5129666,250.1297760,95.0305328,200.2366486
1040,-2.7150109,-0.4333483,9.7323799,-1.7938931,-3.6106870,-2.3282442,11.3436699,7.5776095,-11.1664991,250.1297760,120.0534363,182.7099304
1050,-2.7605004,-0.6679789,9.8018112,2.1145039,-8.1450386,0.1297710,15.5239248,8.2695303,-15.0929699,243.0763397,127.1603088,142.1984711
1060,-2.7197993,-0.5865764,9.6844959,4.3816795,-10.7404585,2.0839694,17.8462887,8.5975342,-19.0170460,188.4503784,113.0992355,79.9770966
1070,-2.5019281,-0.5267217,9.5001440,6.6641221,-10.6335878,4.8702292,19.6126022,10.8408899,-19.6131992,95.1221390,64.5648880,9.1755724
1080,-2.3534882,-0.5123565,9.2248116,5.6030536,-7.7480917,7.0763359,19.6126022,8.8465300,-18.2125988,9.2290077,-29.3358784,-99.0076370
1090,-2.1020982,-0.2274480,8.9327211,2.0687022,-3.8549619,8.3969469,17.9468441,9.3325500,-18.6603127,-88.8854980,-96.7557220,-171.3893127
1100,-2.0206959,-0.1173153,9.1314383,-1.9160305,-1.6564885,9.2061071,16.7210197,8.8417416,-14.0131912,-157.3587799,-153.8167877,-226.8167877
1110,-1.7118455,-0.2274480,9.3852224,-4.1603055,-0.7022901,9.5343513,14.0491037,7.6901364,-10.6134415,-201.0305328,-162.2671814,-250.1374054
1120,-1.7381816,-0.2609667,9.6318245,-5.7099237,-2.0916030,9.2671757,11.4107065,6.4475522,-7.6877422,-223.0076294,-150.0610657,-250.1374054
1130,-1.5586174,-0.2537841,9.9526453,-5.4122138,-4.8015265,8.3358774,7.0700417,5.3007355,-5.1187773,-230.9160309,-139.4427490,-250.1374054
1140,-1.4772149,-0.3495516,10.3165627,-4.2061067,-7.2519083,7.5114503,2.5546002,5.4204450,-2.9879484,-238.3129730,-141.9084015,-250.1374054
1150,-1.4245427,-0.2920911,10.2255831,-1.5801526,-8.9389315,5.8854961,-2.1930776,4.5752959,-1.0199248,-246.1679382,-141.4427490,-250.1374054
1160,-1.4556671,-0.2801202,10.1657286,1.0534351,-8.9541988,3.7404580,-8.8537130,3.0693510,0.9552816,-250.1374054,-81.7022934,-250.1374054
1170,-1.5897418,-0.4596844,9.8975792,2.8244274,-8.5343513,2.2748091,-18.1407738,3.5434003,4.6638808,-250.1374054,41.4045792,-237.5267181
1180,-1.7309990,-0.3878587,9.6294298,3.5877862,-9.0610685,1.5343511,-19.6131992,5.0469513,10.3093796,-228.2900696,156.8320618,-113.1984711
1190,-1.8411317,-0.4309541,9.4977493,2.9465649,-9.0305347,1.1221374,-19.6131992,5.2839761,15.8782644,-178.7786255,209.0992432,37.5343513
1200,-1.8435259,-0.4261657,9.4043760,2.0610688,-7.9847326,0.3282443,-19.6131992,3.6774750,19.2397060,-107.1755753,204.7251892,162.3282471
1210,-1.8578910,-0.4381367,9.4474716,1.8931298,-7.2748094,-0.3053435,-19.6131992,1.3598996,19.6126022,-22.8320618,188.6183167,237.6106873
1220,-2.0637913,-0.4908088,9.5288744,1.3129771,-5.5343513,-0.2977099,-19.6131992,0.6631905,18.5789108,54.8549614,182.9313049,250.1297760
1230,-2.1092808,-0.4118006,9.4570484,0.1984733,-3.4580152,0.6106870,-16.6060982,1.6591733,16.7377777,117.9312973,177.0610657,250.1297760
1240,-1.9823889,-0.3926471,9.6270361,-1.0076336,-2.4122138,1.4198474,-13.6492739,2.4731977,13.8384151,163.1908417,157.5572510,250.1297760
1250,-1.9009864,-0.2418131,9.6150646,-1.3282443,-2.0076337,1.1526718,-10.9605989,3.1579359,10.3357162,189.5725250,121.2442780,250.1297760
1260,-1.9895715,-0.3327923,9.7491398,-1.1755725,-2.2442749,1.0610687,-8.1617918,3.8905578,6.2584114,199.8702240,75.1755753,250.1297760
1270,-1.9967541,-0.3136388,9.5815458,-1.2213740,-2.4198472,1.1145039,-6.0501165,4.6040263,2.4995339,196.2213745,31.2671757,250.1297760
1280,-2.0398495,-0.4189832,9.8257532,-0.9847328,-3.3893130,1.5267175,-4.0389977,5.2911587,-0.4357425,180.2824402,-4.4427481,250.1297760
1290,-1.9368993,-0.3495516,9.6821022,-0.2900763,-4.0381680,2.5496182,-2.1930776,6.1985564,-2.3151813,156.8091583,-33.7404594,250.1297760
1300,-2.0230901,-0.3639168,9.6797075,0.9694657,-5.1374044,3.7938931,-0.3591284,6.9024482,-3.6894460,136.3664093,-57.3587799,250.1297760
1310,-2.0015423,-0.3519458,9.5839405,1.1832061,-6.5343513,4.8396945,2.0111191,6.9646969,-5.0277977,124.3893127,-69.7557220,250.1297760
1320,-1.9249283,-0.2274480,9.4833841,0.0152672,-7.1603055,5.0381680,4.9416070,6.4643116,-6.9503322,121.7099228,-60.7099228,250.1297760
1330,-1.7429699,-0.2346306,9.4474716,-0.9465649,-6.7328243,4.2137403,8.3964224,6.3972740,-8.7052727,120.7938919,-31.6793900,250.1297760
1340,-1.7693061,-0.2801202,9.4235296,-0.5343512,-4.6030536,4.1832061,12.0906563,6.3733325,-10.9198980,111.7786255,-14.3740454,250.1297760
1350,-1.6352314,-0.0742199,9.4259243,-1.5343511,-2.1450381,4.1603055,16.0937424,6.6055689,-12.7083578,89.4961853,-17.7938938,241.7938995
1360,-1.6400198,-0.1819584,9.5240860,-1.6412214,-1.5343511,4.2137403,18.9404335,6.6151457,-13.9413652,49.5954208,-49.0534363,190.8702240
1370,-1.5514348,-0.2513899,9.6246414,-2.1145039,-0.7022901,3.7022901,19.6126022,6.8018923,-14.6356802,-2.9541984,-91.0763321,129.7786255
1380,-1.5442522,-0.3184272,9.8353300,-3.9312978,0.9770992,2.7022901,19.6126022,6.8378053,-15.4640694,-65.1908417,-128.3511505,70.3816757
1390,-1.5514348,-0.3591284,9.7994175,-4.8015265,1.0763359,2.6183207,19.6126022,6.4834652,-13.4529505,-118.1450348,-144.1145020,9.3664122
1400,-1.5370697,-0.3854645,10.0220766,-4.4809160,-1.9389313,2.4732823,19.6126022,6.0956063,-11.7650471,-152.9694672,-125.5419846,-51.2442741
1410,-1.6400198,-0.4094064,10.1178446,-2.6030533,-5.2519083,2.2977099,19.6126022,5.6814117,-9.6868906,-173.7938995,-99.1145020,-115.0000000
1420,-1.6495966,-0.4812321,10.0172882,0.3282443,-8.5419846,1.9007634,19.6126022,5.8561873,-8.0588417,-186.2900696,-87.5267181,-173.4961853
1430,-1.6711442,-0.4261657,9.8353300,1.8549619,-10.3664122,1.8091604,18.7273502,5.5090299,-6.5313487,-200.2977142,-81.1221390,-228.5648804
1440,-1.6639616,-0.5362985,9.7108326,1.1450381,-11.3206110,1.7175573,16.2038746,4.8841467,-5.2863703,-214.9847260,-70.8702316,-250.1374054
1450,-1.7597293,-0.6320660,9.5504217,0.5801527,-12.6564884,1.9847329,12.9525652,3.7469065,-3.6152260,-227.5419922,-56.8015251,-250.1374054
1460,-1.6926919,-0.6129125,9.6006994,0.9694657,-13.2824430,2.1450381,9.7611103,2.1499822,-2.1571648,-235.6412201,-42.1984749,-250.1374054
1470,-1.7836711,-0.4860204,9.6390066,1.7480916,-13.3129768,2.6335878,5.7891502,0.4070122,-0.3471575,-240.3435059,-18.9923668,-250.1374054
1480,-1.7238164,-0.5003856,9.5959110,1.8091604,-12.6030531,3.0076337,0.2753318,-1.0749911,1.4436963,-240.7709961,34.2061081,-250.1374054
1490,-1.6495966,-0.4022238,9.5719690,1.0763359,-10.7099237,3.4732823,-8.9782104,-0.9026094,4.3837609,-231.5877838,119.2442780,-250.1374054
1500,-1.0606259,-0.2106887,8.8489246,-1.9007634,2.1526718,2.2137403,-19.6131992,1.6400198,9.2176294,-203.4045868,183.6564941,-250.1374054
1510,-0.4644727,0.1675933,8.1498213,-10.5343513,22.2061062,-4.0992365,-19.6131992,4.8745699,13.9677010,-159.1984711,187.2519073,-185.1603088
1520,-1.2282192,0.3184272,9.1051025,-18.1984730,43.1145020,-11.3129768,-19.6131992,6.7994981,18.8494530,-102.3969498,136.2824402,-29.9618320
1530,-1.3407460,-0.0933734,8.6885138,-25.7480907,46.9541969,-16.7709923,-19.6131992,5.2049680,19.6126022,-28.6335869,86.7480927,119.2213745
1540,-1.9704180,-0.3543400,9.0093346,-32.9923668,28.1908398,-21.0534344,-19.6131992,2.8203552,18.7536869,53.4198456,90.8854980,230.7786255
1550,-2.3415172,-0.0646431,9.7850523,-33.9923668,4.8778625,-23.3816795,-19.6131992,1.8914096,16.7377777,135.1068726,133.5343475,250.1297760
1560,-2.7174051,-0.2920911,10.6493549,-28.2671757,-17.2213745,-20.9770985,-16.0243092,1.9345051,14.1759958,205.1603088,164.6335907,250.1297760
1570,-2.5091105,-0.6823440,10.8289185,-18.2671757,-25.6641216,-15.0992365,-11.5663290,2.6240315,10.3716288,250.1297760,153.1526642,250.1297760
1580,-2.3486998,-1.0414724,10.4554253,-8.3740454,-23.1984730,-7.6946564,-7.4052281,3.2273674,6.0022330,250.1297760,106.8854980,250.1297760
1590,-2.4612267,-1.1994889,10.1346035,-3.3969467,-21.2366409,1.0610687,-3.6750808,4.3023586,0.9935886,250.1297760,44.8091621,250.1297760
1600,-2.4396791,-1.0893562,9.9694052,-0.8702290,-19.0916023,8.0305347,-0.9073978,5.3701668,-3.2944047,234.2290039,-12.4351149,250.1297760
1610,-2.2002602,-1.0175306,9.8473015,-0.1984733,-15.2748089,12.3816795,0.8427547,6.0094156,-6.3206601,182.9084015,-56.6717567,250.1297760
1620,-1.9129574,-1.0151364,9.7754755,0.3282443,-12.8473282,14.6183205,2.7509236,6.3996682,-8.6190825,127.7251892,-92.9389343,250.1297760
1630,-1.7118455,-0.8954269,9.4953556,-0.0152672,-9.5038166,13.8091602,6.2009506,5.7795734,-9.6509781,85.6488571,-116.4198456,250.1297760
1640,-1.6256547,-0.9241571,9.6437950,0.2366412,-9.0916033,12.6717558,12.4234495,5.0876527,-10.9534168,63.9236641,-112.4274826,250.1297760
1650,-1.4987626,-0.7038917,9.5815458,0.3664122,-9.2061071,12.1297712,19.4934902,4.9032998,-13.1632538,54.9541969,-87.2061081,228.5114441
1660,-1.4987626,-0.5841822,9.7515335,0.6488550,-13.1832066,11.9923668,19.6126022,5.3366485,-15.2366219,41.3206100,-49.0305328,159.7557220
1670,-1.3670821,-0.6823440,10.0986910,2.6488550,-18.0534344,12.5190840,19.6126022,6.1937680,-16.3834381,4.9923663,-42.0228996,70.5954208
1680,-1.1085097,-0.6823440,10.0627785,4.9160304,-21.1145039,13.2748089,19.6126022,6.4020624,-16.9532547,-61.1526718,-80.3053436,-23.0763359
1690,-0.7996593,-0.6081241,10.1393919,7.0687022,-22.8473282,12.8244276,19.6126022,6.5816269,-15.0977583,-140.3511505,-128.4427490,-108.7709961
1700,-0.7757174,-0.5339043,10.0436249,7.2748094,-21.7709923,11.4198475,19.6126022,6.0333576,-11.8799677,-203.5114441,-160.2824402,-178.7862549
1710,-0.9457048,-0.5961532,9.7706871,7.5648856,-19.4351139,9.7709923,19.6126022,5.3127065,-8.0732069,-235.0381622,-160.8396912,-234.9007568
1720,-1.0486550,-0.6847382,9.6629486,7.2213740,-16.7633591,8.5954199,19.6126022,4.6040263,-5.1618724,-239.6183167,-127.6564865,-250.1374054
1730,-1.1348459,-0.6081241,9.4594421,5.7480917,-13.6641226,7.8244276,17.9755745,3.9887197,-3.0501974,-229.0076294,-81.7251892,-250.1374054
1740,-1.3048333,-0.6392486,9.4331064,2.9389312,-11.2442751,7.4885497,14.3795023,3.4069316,-1.6591733,-213.1145020,-39.5725174,-250.1374054
1750,-1.2617378,-0.6512195,9.4714136,1.2595420,-9.1832066,6.9770994,10.8528605,2.6096666,-0.9409165,-200.0915985,-8.1603050,-250.1374054
1760,-1.2569494,-0.6775556,9.6006994,0.5267175,-6.6412215,6.4656487,6.0046272,1.6615674,-0.2154770,-194.0534363,3.8778627,-250.1374054
1770,-1.4293311,-0.6177009,9.7108326,0.2290076,-5.8244276,6.7786260,0.4429250,1.3239868,0.7445929,-196.5572510,-3.8091602,-250.1374054
1780,-1.4676381,-0.4908088,9.8808203,0.3435115,-5.3893127,7.4122138,-7.5464849,0.9026094,1.8219782,-205.5572510,-4.1832061,-250.1374054
1790,-1.4029950,-0.4788379,9.9071560,1.0992366,-4.0458016,8.5343513,-17.6858768,1.9895715,3.5338237,-211.2366486,24.6793900,-250.1374054
1800,-1.3622938,-0.4046180,9.9526453,1.9007634,-3.8702290,9.3587790,-19.6131992,4.2640514,7.0652533,-205.1068726,51.9236641,-225.4122162
1810,-1.2234308,-0.2825144,9.9741936,3.7022901,-3.4961832,9.3587790,-19.6131992,5.9926562,10.8935623,-180.1526642,60.0000000,-70.7328262
1820,-1.1396341,-0.1316804,9.6749191,4.5877862,-2.8931298,7.7480917,-19.6131992,5.3773494,14.2166967,-135.1603088,62.3664131,87.1374054
1830,-1.1396341,-0.1532281,9.5671806,3.5190840,-4.5877862,5.7480917,-19.6131992,3.8115497,16.7617207,-70.5801544,84.0534363,205.0992432
1840,-1.0151364,-0.1244979,9.5240860,1.8396946,-6.4122138,3.4732823,-19.6131992,2.8395088,17.5757446,3.8931298,106.3969498,250.1297760
1850,-1.1252691,-0.2322364,9.5671806,0.3206107,-7.0839696,1.0839695,-19.6131992,2.6240315,17.1352139,71.3969498,103.5954208,250.1297760
1860,-1.1563935,-0.4118006,9.7491398,-0.0152672,-7.7938933,-0.3893130,-14.2071199,2.8012016,15.5239248,125.0305328,81.3664093,250.1297760
1870,-1.2761030,-0.4860204,9.8616667,1.2061069,-8.9312973,-1.0839695,-9.0931320,3.5864959,12.7777891,164.0000000,45.7175560,250.1297760
1880,-1.3958124,-0.5650287,9.9047613,2.7328243,-10.9541988,-1.0381680,-4.9559722,4.0916696,8.9806042,186.6793823,6.6259542,250.1297760
1890,-1.5227045,-0.7206510,9.9454632,4.6106873,-14.1526718,-0.4122137,-2.1882892,4.6566987,5.0062504,193.5419922,-29.7022896,250.1297760
1900,-1.4628497,-0.7038917,9.8975792,7.0916033,-16.7099228,1.2824427,-0.3280039,5.2672167,0.9409165,180.0686951,-60.5419846,250.1297760
1910,-1.4652439,-0.7350162,9.8401184,8.0076332,-17.6641216,3.3664122,1.6495966,5.8059096,-2.1595588,151.1145020,-75.6564865,250.1297760
1920,-1.3191984,-0.6703730,9.7395630,7.0763359,-17.4274807,6.3587785,3.4835455,5.6287394,-3.8235207,125.5648880,-83.2977066,250.1297760
1930,-0.9672526,-0.5027798,9.7299862,5.6259542,-16.3893127,8.8320608,7.0269461,4.9966736,-5.4324160,114.9694672,-78.9542007,250.1297760
1940,-0.7302278,-0.1460456,9.7395630,3.5725191,-14.6870232,9.7557249,11.4226780,4.6926112,-7.0891948,118.0610657,-54.3511467,250.1297760
1950,-0.5099624,-0.1197095,9.8449068,1.2519084,-12.4427481,9.7862597,16.5366669,5.1738434,-9.7323799,118.1145020,-30.0916023,239.6870270
1960,-0.2322364,0.0023942,10.0196829,0.1221374,-10.0534353,8.9694653,19.6126022,5.7699966,-12.5192165,97.3511429,-27.2748089,187.2748108
1970,-0.0263361,-0.0502780,9.9287033,-0.7099237,-7.9083967,6.7786260,19.6126022,6.1722202,-15.7537670,46.6488533,-38.4198456,115.9312973
1980,-0.0526722,-0.1197095,9.9406748,-0.8396947,-5.6717558,3.2671757,19.6126022,6.8593526,-17.1830978,-31.1450386,-55.9771004,33.9389305
1990,-0.3567342,-0.0814024,9.8592720,-0.4122137,-3.6335878,-0.5190840,19.6126022,7.0389171,-15.4832230,-110.3816757,-87.7099228,-47.1145020
2000,-0.5746055,-0.1364688,9.7706871,-1.2519084,-3.7633588,-2.4961832,19.6126022,6.3182659,-12.4761209,-169.2137451,-109.9312973,-121.9694672
2010,-0.7445929,-0.4764437,9.7946291,-1.3893130,-4.1374044,-4.1450381,19.6126022,5.7436604,-9.2152348,-203.8396912,-103.2137375,-185.4732819
2020,-0.8834559,-0.5961532,9.8089943,-1.4198474,-3.4809160,-3.8778627,19.6126022,5.9184365,-5.5114241,-222.9541931,-72.8167953,-231.9313049
2030,-1.0366840,-0.5817881,9.9382801,-0.8549618,-3.9236641,-2.4885497,18.5262375,4.9056940,-3.4212968,-224.7633514,-30.5114498,-250.1374054
2040,-1.1731528,-0.6153067,9.8664551,-0.0229008,-4.0152674,-0.9923664,15.3994265,4.1682839,-1.5538290,-216.1908417,11.0305347,-250.1374054
2050,-1.0366840,-0.5362985,9.8305416,-0.3893130,-2.5267177,1.0152671,12.4497852,3.3638363,-0.0670373,-201.8702240,42.7022896,-250.1374054
2060,-0.9864060,-0.4884146,9.7323799,-0.9007633,-0.5572519,2.6335878,8.9159613,2.0781565,1.0151364,-187.6641235,62.2213745,-250.1374054
2070,-0.9911944,-0.3806761,9.6797075,-1.0687023,0.6488550,4.0534353,4.3861551,0.8547257,2.2026544,-177.3816833,72.6030502,-250.1374054
2080,-0.9193687,-0.2777260,9.8544836,-1.3969465,0.3129771,5.0000000,-1.0606259,-0.3136388,3.2848279,-169.9465637,92.9007645,-250.1374054
2090,-0.7374104,-0.2035061,9.9143381,-0.8931298,-0.9389313,3.4198472,-9.3900108,-0.7613522,4.6255741,-161.3129730,128.9694672,-250.1374054
2100,-0.7589580,-0.1819584,9.9215212,-1.2366412,-0.7404580,3.6564887,-19.6131992,0.7134684,7.0053983,-147.8778687,148.4580078,-250.1374054
2110,-0.5410868,-0.1675933,9.8736372,-0.7099237,0.2748092,2.8396947,-19.6131992,3.3925664,10.3285332,-126.9236679,128.4122162,-207.4961853
2120,-0.7014975,-0.1556223,9.8018112,-1.2061069,-0.9236641,1.5190840,-19.6131992,4.9823084,14.4178085,-94.0839691,96.4274826,-67.0534363
2130,-0.8116302,-0.1843526,9.7251978,-2.4809160,-2.4732823,0.9618320,-19.6131992,4.7524662,16.9987450,-45.7328262,78.4809189,74.5496216
2140,-0.9169745,-0.3591284,9.7443514,-2.6488550,-3.2061069,-0.1374046,-19.6131992,3.5936785,18.3825874,21.8015270,81.2671738,184.7480927
2150,-1.0749911,-0.4860204,9.7180147,-2.4732823,-4.4351144,0.1526718,-19.6131992,2.9664006,17.9827576,95.0534363,92.8549652,250.1297760
2160,-1.1587877,-0.5362985,9.8353300,-1.8549619,-6.8015265,1.1221374,-18.1311970,2.8849983,16.6994705,159.7557220,84.6259537,250.1297760
2170,-1.1731528,-0.5243275,9.6653433,-2.6564887,-7.1221375,2.9541984,-12.1840305,3.1699069,13.7330704,208.9923706,56.9236641,250.1297760
2180,-1.1779412,-0.5913648,9.6270361,-3.0229008,-6.0992365,4.9541984,-8.1641865,3.6319854,10.1058741,236.9465637,13.3511448,250.1297760
2190,-1.2425843,-0.6105183,9.7730818,-3.5572519,-8.5114508,6.9770994,-4.9990678,4.3191175,6.1506729,244.0763397,-37.6488533,250.1297760
2200,-1.2066715,-0.4357425,9.8856087,-1.9923664,-11.6564884,8.5114508,-2.2505381,4.9176650,2.0877333,231.6717529,-82.2442780,230.8625946
2210,-1.2593436,-0.4692611,10.1441803,0.8091603,-15.7175570,10.4732828,-0.1173153,5.8083038,-1.3646880,203.1450348,-110.9847336,216.9160309
2220,-1.2354017,-0.4429250,10.1322098,4.0610685,-21.0687027,14.4427481,1.8914096,6.5672617,-3.8809812,169.7786255,-122.6412201,211.4045868
2230,-1.1516051,-0.6751614,10.2207947,7.9770994,-30.4351139,18.5801525,3.8139439,7.0604649,-5.1020179,147.5801544,-121.8396912,214.6183167
2240,-0.8810617,-0.6344602,10.0867205,11.7557249,-38.9694672,21.9236641,7.8792777,7.0245519,-6.5576849,142.8931274,-100.7175598,217.7633514
2250,-0.8164186,-0.6057299,10.0603838,16.4198475,-47.5267181,23.9770985,12.6820211,7.0724359,-8.8872309,145.6412201,-66.1755753,206.1221313
2260,-0.6153067,-0.6057299,9.9502516,20.1603050,-54.7328262,26.3969460,17.7696743,7.7284436,-12.0715036,141.4351196,-17.9312973,175.8473358
2270,-0.6512195,-0.5650287,9.8760319,21.6564884,-59.3816795,30.3893127,19.6126022,8.7411861,-14.5662489,118.0916061,2.7404580,131.6870270
2280,-0.4596844,-0.8643024,9.7898407,21.3129768,-54.9007645,37.0000000,19.6126022,9.1817169,-16.9843807,70.2824402,-9.7480917,76.2748108
2290,-0.3256098,-0.8427547,9.7970228,17.8931293,-47.2519073,44.2900772,19.6126022,9.3971939,-18.3586445,0.4809160,-27.5572510,7.3206105
2300,-0.2442073,-0.5243275,9.9023676,13.5725193,-42.6183205,48.4503822,19.6126022,9.3469152,-17.7265778,-74.4580154,-37.5572510,-59.1374054
2310,-0.1364688,-0.4644727,10.3021975,13.5190840,-43.7328262,49.3206100,19.6126022,9.1458035,-14.7362356,-133.3435059,-42.7709923,-111.1679382
2320,0.0215477,-0.2825144,10.3883877,17.4351139,-42.2595406,49.6564903,19.6126022,8.7028790,-11.4490137,-171.6106873,-34.2061081,-152.7862549
2330,0.2609667,-0.1699875,10.8169479,23.0916023,-37.8396950,49.5648842,18.1671104,7.9870162,-8.5616217,-190.3511505,-14.8549614,-188.7022858
2340,0.4405309,0.1364688,11.2957859,29.8778629,-35.2213745,47.9160309,15.4808292,7.7140784,-6.1530671,-196.1832123,11.7099237,-216.2442780
2350,0.4884146,-0.1628049,11.3819771,37.9771004,-34.6259537,45.6335869,12.8759508,7.0053983,-4.3334827,-194.8625946,38.2977104,-237.2824402
2360,0.4213773,-0.1460456,11.2957859,46.7175560,-29.5114498,46.5801544,10.1657286,6.4164276,-2.9544299,-190.5572510,59.4580154,-250.1374054
2370,0.3663110,-0.3950413,11.4131012,52.2748108,-24.7709923,51.0458031,7.2974896,5.6981707,-1.9225341,-186.1221313,73.8473282,-250.1374054
2380,0.2082945,-0.3591284,10.6709023,55.2824440,-31.5267181,56.9618340,3.8546450,5.2911587,-1.0031654,-182.3816833,89.7175598,-250.1374054
2390,0.2681492,0.0311245,10.3740225,52.6793900,-42.8549614,58.8702278,-0.3303981,4.4938936,0.2202654,-178.0610657,109.7709961,-250.1374054
2400,0.2489957,0.4955972,10.4937325,48.8702278,-42.3893127,59.2213745,-5.7628140,3.9671719,1.3622938,-172.8244324,138.1679382,-250.1374054
2410,0.6105183,0.5985473,11.2598734,45.7404594,-37.0610695,65.2213745,-13.5582952,3.7205703,3.0286496,-165.6488495,160.5267181,-225.6335907
2420,1.7070571,0.4477134,12.3348637,42.8091621,-5.8473282,69.4122162,-19.6131992,4.1443419,5.6526814,-154.1984711,151.7251892,-169.4885559
2430,2.2696917,0.7900825,13.7330704,39.4961815,43.2442741,64.2137375,-19.6131992,4.3454537,8.8561068,-139.8015289,119.8015289,-95.5725174
2440,1.7214222,1.4556671,13.9677010,41.7251892,66.2595444,54.7022896,-19.6131992,4.1419477,12.1505117,-121.7251892,95.9312973,-11.4274807
2450,0.8786675,1.5514348,15.7417955,61.8244286,59.7862587,48.3206100,-19.6131992,3.4955165,15.5957499,-92.7251892,89.8091583,71.2748108
2460,0.8259954,1.7740943,15.5765963,101.2442780,32.8167953,36.8931313,-19.6131992,2.7413468,18.5406036,-43.7022896,85.1221390,140.9313049
2470,0.2777260,1.7094513,13.5870247,136.0686951,2.4961832,22.6870232,-19.6131992,2.2433555,19.4671535,20.4274807,68.6717529,187.9160309
2480,-0.0766141,1.5729824,11.3484583,150.0763397,-13.3358774,12.4809160,-16.4696293,1.7453641,18.2413292,86.8931274,46.4274826,209.6335907
2490,-0.4812321,1.8914096,8.9686337,141.7099304,-22.2366409,8.4122133,-13.0004492,2.0015423,15.6747580,141.7786255,26.7786255,214.4503784
2500,-0.6679789,2.0398495,8.3030491,126.1984711,-28.6793900,8.7557249,-10.1729107,2.3534882,12.5144281,181.2137451,-0.6259542,211.3511505
2510,-0.3854645,2.2625091,8.1522150,113.0152664,-24.0458012,12.5190840,-7.6207051,2.7054341,8.4419117,202.5267181,-33.6793900,202.2671814
2520,-0.0119709,2.1284344,7.3381906,106.2290039,-35.7404594,13.4809160,-5.6718349,3.2465210,4.9870968,206.8702240,-64.6870193,193.3587799
2530,-0.3375807,2.0757623,6.6295104,103.4427490,-65.9923630,14.2977095,-3.8785870,4.2281384,1.8914096,198.4809113,-89.9923630,188.7328186
2540,-1.0438666,2.1475880,5.9687142,103.6564865,-103.6870193,18.2137413,-2.1763182,5.2528515,-0.2298422,184.8931274,-107.5114517,191.0076294
2550,-1.4843974,2.4324965,5.4204450,100.2900772,-141.9160309,27.8625946,-0.4070122,6.1817970,-2.0829449,174.3740387,-110.5114517,204.4656525
2560,-1.1516051,2.2744799,5.0972295,93.0152664,-175.2137451,40.4427490,1.6998745,6.6678176,-4.1371593,173.3435059,-94.5877838,226.6641235
2570,-0.2130829,2.3510940,4.7189474,78.8931274,-191.5801544,52.1832047,5.0613165,6.5576849,-6.4188218,180.8854980,-60.8778610,249.0229034
2580,0.7134684,2.5498118,4.5657191,60.8854980,-194.6030579,61.0916023,9.5432396,6.4116392,-9.0811605,190.2977142,-11.6183205,250.1297760
2590,1.4341195,2.7365584,4.5752959,40.1221390,-185.3893127,67.8015289,13.6995516,7.0580707,-11.0156660,190.1068726,29.9847336,250.1297760
2600,2.4995339,2.9352763,4.9847026,19.9312973,-168.2671814,72.7557220,17.4703999,7.5177550,-13.8025026,171.5877838,36.5572510,232.9847260
2610,3.6439564,3.1387823,5.8154860,1.4656489,-139.6564941,73.3053436,19.6126022,8.0492649,-15.8519287,128.0000000,22.1450386,193.4351196
2620,5.0445571,3.4548154,6.6151457,-15.3664122,-93.7175598,68.9083939,19.6126022,8.5209198,-16.7090473,59.7175560,-8.1145039,141.1679382
2630,5.7723908,3.5601597,7.1825686,-26.1603050,-42.6412201,61.4961815,19.6126022,8.6047173,-16.2733059,-13.6717558,-47.4198456,83.7175598
2640,6.2033448,3.7660601,7.8026633,-31.3129768,-1.7251909,50.6641235,19.6126022,8.4107876,-14.2957048,-73.8778610,-71.4045792,20.5190830
2650,6.4427638,3.8546450,8.2838955,-31.5496178,22.9847336,37.8549614,19.6126022,8.0636301,-11.2550850,-113.8931274,-73.8015289,-41.9160309
2660,6.4331870,3.6295912,8.5472565,-28.6793900,36.9694672,24.3282452,19.6126022,8.1210909,-8.7866755,-137.9694672,-64.3206100,-95.9770966
2670,6.3015065,3.4524212,8.1354561,-25.9923668,43.1374054,12.4198475,19.2301292,7.6949248,-6.4954362,-151.9389343,-45.5877876,-141.7099304
2680,5.9399838,3.3183465,7.4746594,-27.9694653,44.1984749,2.4351146,16.8670654,7.3812861,-4.6830344,-157.7786255,-23.5190830,-179.4961853
2690,5.3893204,3.0262554,7.1849627,-33.7404594,37.9618340,-4.9618320,14.4249916,6.8114691,-3.1100521,-158.1068726,-0.2595420,-211.2519073
2700,5.3127065,2.9089401,6.7851329,-42.1603050,29.4580154,-9.9770994,12.0140429,5.9782910,-1.7357874,-154.8091583,23.2442741,-240.5267181
2710,5.1594782,2.6838863,6.6151457,-53.8778610,22.7633591,-13.2519083,9.2391768,4.9248476,-0.6895266,-149.0992432,47.8015251,-250.1374054
2720,4.9392128,2.2720859,7.0580707,-68.1145020,15.5267172,-14.8015270,5.6119800,3.8211265,0.1963235,-143.2213745,76.1297684,-250.1374054
2730,4.6543045,1.9416877,7.6326761,-78.1526718,9.9847326,-14.6030531,1.1731528,3.1004753,1.3144100,-137.0686951,111.1526718,-250.1374054
2740,4.2520804,1.7836711,8.1593981,-83.2595444,5.9236641,-12.4580154,-5.0900469,2.5857246,2.6407909,-129.4580078,145.5877838,-250.1374054
2750,3.7397239,1.6304430,8.4395180,-85.9542007,0.7175573,-8.3664122,-13.3787308,3.3686244,5.2720051,-119.3740463,149.3282471,-250.1374054
2760,3.7181761,1.6472024,7.6877422,-91.2900772,0.5267175,-5.8320613,-19.6131992,4.9894910,7.8146343,-108.1145020,100.7938919,-201.5877838
2770,3.6846576,1.5729824,7.1298962,-103.7175598,12.3282442,-4.3664122,-19.6131992,5.7197185,10.0795374,-98.3435135,32.8244286,-125.6870193
2780,3.3135581,1.2545552,7.4507174,-114.9542007,19.2519093,0.6641222,-19.6131992,5.4946647,12.2007895,-82.8167953,-9.1450386,-37.2977104
2790,2.6360025,1.1492109,8.2120695,-121.5419846,40.7938919,4.6259542,-19.6131992,4.8482337,14.0730457,-51.5038185,-3.9541984,44.8396950
2800,1.0295014,0.6847382,9.4450769,-121.8625946,96.0152664,17.3587780,-19.2780132,4.0916696,15.7872849,0.3053435,17.0610695,109.3358765
2810,1.5945302,0.4596844,8.9542685,-114.2442780,106.8931274,34.4198456,-15.5694141,3.7325413,15.7705259,66.8702316,30.8320618,145.4885559
2820,1.8124014,0.6679789,9.2056589,-97.6641235,75.0916061,52.2824440,-12.5144281,3.8785870,13.5104113,124.7175598,15.8473282,155.0076294
2830,2.4995339,1.5705882,8.8369532,-80.2366409,44.7862587,64.6030502,-10.0268650,4.0246325,10.4075413,160.9313049,-20.5725193,152.3740387
2840,3.6631098,1.8722562,8.2000990,-66.5572510,59.0000000,63.9160309,-7.6278877,4.5920553,6.6127515,176.0229034,-65.3129807,143.8091583
2850,3.7540891,1.8219782,7.7643566,-59.2519073,62.1679382,56.7328262,-5.7269011,4.9152708,3.4979107,174.6564941,-107.6335907,133.9465637
2860,3.4428444,2.0949159,7.1227136,-58.5190849,31.5801525,42.0076332,-4.2377152,5.3103123,0.6440369,162.8549652,-139.9160309,128.0915985
2870,3.1387823,2.6695213,7.1394730,-63.1603050,-6.1603055,22.9465656,-2.7293761,6.1458845,-1.3646880,146.6793823,-161.6412201,129.5648804
2880,3.7157819,2.7964132,8.2192526,-67.5648880,-55.4122124,3.3053436,-1.2737088,6.7683735,-2.5426292,134.7709961,-172.4503784,140.4503784
2890,4.8075323,2.1954718,10.0316534,-64.7404556,-90.4198456,-19.0687027,0.9552816,7.3070664,-3.4476328,133.8778687,-174.0992432,156.0381622
2900,4.8865409,0.9409165,11.3795824,-53.9541969,-119.6717529,-41.3740463,3.4643922,7.7188668,-4.7141590,147.7786255,-163.2137451,174.6564941
2910,3.3111639,-1.6543850,14.5973730,-33.3206100,-96.4427490,-51.8167953,6.9742737,7.7308378,-7.0173693,169.7938995,-144.5954132,189.1068726
2920,3.0549858,-1.1539993,11.8488436,-13.2061071,-96.8702316,-46.0228996,11.5735121,7.7835097,-9.8329363,187.2442780,-116.8625946,186.7099304
2930,2.3032103,-0.8403605,12.1265697,-2.2366412,-89.4351120,-35.6412201,15.9237537,7.8625183,-13.8168669,188.6259613,-85.9236679,172.0839691
2940,2.5976956,-0.1867468,12.0020714,9.0152674,-80.9007645,-20.7022896,19.6126022,8.3078375,-18.2030220,168.2442780,-46.9312973,142.5267181
2950,2.9592183,0.1939293,11.5447817,12.8778629,-65.9465637,-9.7938929,19.6126022,9.2822723,-19.6131992,116.5725174,-26.6717548,97.0763321
2960,3.7109938,1.1563935,11.1162214,8.4427481,-42.2061081,-4.1145039,19.6126022,9.5336628,-19.6131992,41.6259537,-33.6106873,40.0610695
2970,5.0493455,1.1372399,12.2630386,0.1526718,21.9083977,0.1450382,19.6126022,9.2655134,-19.6131992,-38.1755714,-63.0610695,-28.3511448
2980,5.7963328,1.2808913,14.0155849,-2.9770992,96.2290039,-1.5038168,19.6126022,8.6190825,-17.3099899,-103.7480927,-90.3129807,-97.1755753
2990,5.6718349,0.9026094,13.1201582,-3.0458016,102.9618301,-7.4732823,19.6126022,7.6997132,-14.1209297,-150.5038147,-95.1984711,-156.2977142
3000,6.4188218,0.2825144,11.9302464,1.1526718,96.6793900,-18.3816795,18.1240139,6.8593526,-11.4514084,-179.6335907,-76.0457993,-201.5572510
3010,5.7508430,-0.0430954,10.1465750,1.9389313,97.4656525,-34.8549614,15.0091734,5.9806852,-8.5975342,-194.6717529,-50.2137413,-235.4656525
3020,4.4507980,-0.0023942,8.8489246,-1.9236641,91.3435135,-45.9312973,12.2055779,5.0828643,-6.6702118,-202.2442780,-29.8091602,-250.1374054
3030,3.3494711,0.0981618,8.3222027,-5.6641221,70.6106873,-47.5343513,9.3612804,4.1156116,-4.9631548,-207.4656525,-16.1374054,-250.1374054
3040,3.0454090,-0.2011119,7.6805596,-8.5877867,33.6946564,-45.7022896,6.4212160,2.9711890,-3.7373297,-211.8473358,-3.8625953,-250.1374054
3050,2.4540441,0.1484398,8.2312231,-7.9847326,-5.1679387,-45.1526718,2.7221935,2.1715298,-2.3127871,-214.6870270,14.3816795,-250.1374054
3060,2.4827745,0.3208214,8.8177996,-0.0458015,-43.1832047,-46.2748108,-1.2569494,1.8267666,-0.8020535,-214.4122162,41.5190849,-250.1374054
3070,2.8203552,0.0790083,8.3150196,4.6030536,-72.0687027,-48.8778610,-6.2967181,1.7142396,1.0223188,-209.7328186,85.3816757,-250.1374054
3080,2.5234756,0.2346306,8.3772688,2.3358779,-82.4656525,-49.5877876,-13.6660337,2.5378408,4.1012464,-197.2519073,135.3282471,-238.7404633
3090,2.1882892,0.6416427,9.0548248,-0.9312977,-84.0076370,-43.2290077,-19.6131992,3.9432299,7.6183109,-173.0915985,167.7557220,-165.3816833
3100,2.0230901,0.7876883,9.5767574,2.5038168,-74.7251892,-31.7480907,-19.6131992,5.4659348,11.5232334,-139.5877838,173.8931274,-69.0381699
3110,1.8171898,0.5602403,9.7922344,6.6183205,-81.0916061,-20.0687027,-19.6131992,5.3845320,14.9852314,-100.4732819,161.7938995,26.3664131
3120,2.3247581,0.3878587,10.2255831,9.5343513,-89.5725174,-11.7404585,-19.6131992,4.3143296,17.3123837,-49.4351158,148.2519073,98.4503784
3130,2.9233053,0.9576758,9.5528164,13.2442751,-77.3053436,-4.8778625,-19.3498383,3.7062054,18.4903259,13.8396950,134.3282471,140.6946564
3140,3.9168940,1.0199248,9.1577749,13.8167934,-34.4198456,5.7786260,-16.0243092,3.5314295,17.4991302,76.3587799,109.9007645,161.3129730
3150,4.2281384,0.4357425,8.9494801,6.0305343,11.5954199,17.9083977,-13.1345234,3.8259149,15.2485924,126.8473282,78.5648880,165.1984711
3160,3.8953462,-0.2466015,7.8840661,-8.7022905,50.8473282,32.0000000,-10.8241301,4.1611013,12.4665442,158.2824402,36.9771004,160.8778687
3170,3.9408360,-0.8954269,6.7731619,-27.5419846,99.1679382,44.8167953,-8.6214762,4.2855992,9.4426832,172.2748108,-13.5648851,150.7251892
3180,3.5481887,-1.3335636,6.9814563,-48.7557259,118.0534363,52.7251892,-6.3326311,4.5178356,6.5074067,172.1297760,-68.3511429,134.7099304
3190,4.6710634,-0.6009415,9.0811605,-73.4122162,67.7480927,27.3282452,-3.3638363,5.2504573,2.3558824,147.2900696,-156.9694672,102.8320618
3200,4.6088147,-0.3519458,10.2974091,-65.3740463,29.0305347,5.0458016,-2.3941894,5.8442163,1.1851238,138.4198456,-184.0686951,97.4274826
3210,4.0078731,0.1795642,10.6996326,-48.1984749,5.7862597,-10.9389315,-1.5250987,6.8186517,0.3184272,141.0610657,-192.3664093,103.6488571
3220,2.9472473,0.0957676,13.2159262,-28.9770985,-37.9236641,-18.5725193,0.2801202,7.4746594,-1.3431402,158.8396912,-172.2442780,124.2824402
3230,4.6136031,-0.6224893,16.6180687,9.3358774,8.6412210,-17.9007626,3.0693510,7.6470413,-4.5920553,191.3053436,-111.1679382,151.1068726
3240,3.6966286,-0.1723816,10.5703468,24.5343513,10.1450386,-12.7633591,6.9790621,7.8984308,-8.5257082,227.5877838,-20.9389305,175.2977142
3250,4.3741841,0.2992737,7.1442614,13.5877867,-6.5572519,-23.0458012,11.8296900,8.4826136,-13.3859129,248.0000000,71.4656525,183.4351196
3260,4.6566987,0.6153067,6.5121951,-8.0458012,-24.9847336,-39.5801544,15.8758707,9.5025377,-17.9588146,235.7786255,120.3206100,174.3511505
3270,5.3773494,0.5961532,8.0971489,-27.6335869,-32.4427490,-56.2748108,19.5341911,10.0723553,-19.6131992,184.0610657,120.8320618,143.6793823
3280,5.3270717,-0.0383070,10.3907824,-35.4503822,-13.0610685,-68.5267181,19.6126022,10.6206245,-19.6131992,96.3053436,80.7557220,93.0152664
3290,2.8155668,-0.6919208,9.7946291,-39.9083977,-0.9694657,-62.0076332,19.6126022,10.6948442,-19.6131992,-4.8015265,12.8244276,27.5114498
3300,2.0566087,-1.1899122,9.1051025,-40.0839691,-6.4961834,-42.2366409,19.6126022,9.8951855,-19.6131992,-96.0305328,-56.5801544,-45.5419846
3310,2.3941894,-1.3479286,9.2319946,-35.3206100,-12.1068707,-25.8244267,19.6126022,8.9542685,-16.1895084,-156.6335907,-84.3206100,-114.1832047
3320,2.5857246,-0.9409165,9.8113880,-25.4045811,-17.4427490,-20.1679382,19.6126022,7.9367380,-12.6461086,-190.3053436,-77.4961853,-170.9160309
3330,2.9735832,-0.1604107,9.9885588,-14.7251911,-29.4351139,-22.6793900,17.6116581,7.4555058,-9.3205795,-205.7251892,-48.4427490,-213.4732819
3340,3.9767487,0.2202654,10.8744087,-8.4580154,-37.2519073,-33.4274826,14.2358503,6.8641410,-6.8330169,-207.9541931,-18.7328243,-245.0839691
3350,3.9240766,0.3663110,10.5679522,-3.6335878,-49.8702278,-44.6259537,10.9079275,6.0022330,-5.7292953,-206.1755676,3.0687022,-250.1374054
3360,4.0844874,-0.1340746,9.1697454,-0.7404580,-56.2595406,-52.0534363,7.5871863,5.1546898,-4.7117648,-206.4427490,19.5114498,-250.1374054
3370,3.5888901,-1.5658000,7.9702568,-2.3664122,-64.1068726,-49.8549614,4.0605454,4.2784166,-3.9192882,-208.9007568,34.6488533,-250.1374054
3380,3.7923961,-2.3271523,7.5369086,-6.1603055,-71.5801544,-33.6488533,-0.3184272,3.8737986,-2.6719155,-212.6106873,43.6335869,-250.1374054
3390,4.5513539,-2.2409613,9.1745338,-13.2519083,-52.3511467,-24.6793900,-5.2983413,3.5481887,-1.1348459,-216.0610657,44.7175560,-250.1374054
3400,1.4939742,-1.3191984,10.3021975,-19.4961834,-9.1526718,-33.2748108,-10.8001890,3.4404502,0.2609667,-215.7480927,71.6870193,-245.6793823
3410,-3.0693510,1.2282192,11.0443964,-6.7862597,-16.9389305,-33.0458031,-17.2501354,4.0653338,3.3255291,-208.8244324,118.6106873,-182.3587799
3420,-0.6200951,-1.9536586,10.9462337,27.2595425,-113.6641235,-5.4961834,-19.6131992,4.4388270,6.8066807,-193.3435059,163.7480927,-99.2824402
3430,3.3782012,-1.8554969,10.1872759,70.2900772,-128.0610657,6.6870227,-19.6131992,4.2065907,10.5152798,-164.7404633,203.2061005,-8.7786255
3440,7.1658092,-2.4923513,7.9822278,100.6106873,-69.3511429,3.1374047,-19.6131992,3.7852135,14.0084028,-117.1679382,213.5877838,70.3969498
3450,10.6421719,-1.9440818,9.7108326,120.8702316,12.5496187,-14.5954199,-19.6131992,3.3853838,16.2469692,-58.6641235,195.9847260,129.4274750
3460,7.2879128,-0.4381367,12.0236197,125.1145020,129.5496216,-32.7251892,-19.6131992,3.0861101,16.6922894,3.3511450,158.8854980,172.4656525
3470,4.1730723,1.2018831,10.2471304,84.5801544,185.1832123,-39.6030540,-19.0409889,2.8347204,15.4760408,57.6793900,118.0152664,199.9694672
3480,-0.6919208,1.8004304,7.9774394,40.2061081,201.1679382,-18.8778629,-15.1935263,3.1028695,13.2231083,96.9312973,79.6030502,214.6335907
3490,-0.5650287,1.2521610,5.5449429,20.9312973,100.5572510,-3.0610688,-11.8177195,3.1339941,10.6685085,121.6870193,38.6030540,217.7480927
3500,0.4357425,1.5586174,5.4348102,-32.8091621,-60.2137413,16.8396950,-6.0165982,4.1611013,5.0469513,142.5419922,-52.8473282,205.0686951
3510,-0.4620786,0.9911944,6.3350253,-86.7251892,-63.6183205,31.3206100,-3.6846576,4.7740140,2.2265961,142.1908417,-89.3587799,197.9847260
3520,-0.5722113,0.4908088,5.6981707,-102.9847336,-176.3816833,40.0228996,-1.7573351,5.5521255,-0.2561783,136.5725250,-115.2977066,196.3435059
3530,-0.9935886,-0.3974355,4.3670015,-157.4656525,-163.2824402,62.7251892,0.4285599,6.3086891,-2.3103929,129.2366486,-127.5343475,205.8244324
3540,19.6126022,3.3518653,19.6126022,-230.3893127,250.1297760,87.7633591,4.1180058,6.7923155,-4.6758518,130.9541931,-118.5954208,221.1679382
3550,1.9392935,-0.3519458,10.9534168,-117.7480927,250.1297760,7.8015265,8.7316093,6.8018923,-7.3334022,140.4351196,-81.9465637,229.9694672
3560,4.8793583,0.4429250,18.9164906,-31.9618320,113.5877838,-18.2442741,14.1161413,6.9216018,-10.5057030,146.8625946,-26.8931293,221.8167877
3570,3.7756367,-0.5722113,12.1050215,43.3816795,-84.5343475,-32.4045792,18.9212799,7.7284436,-13.1057930,138.2595367,7.1450381,187.5648804
3580,3.2680686,-0.7134684,8.3916340,94.3969498,-129.3893127,-40.7557259,19.6126022,8.3676920,-16.1057129,102.2671738,-2.2595420,130.0839691
3590,19.6126022,-3.1363883,19.6126022,175.6564941,250.1297760,-64.7938919,19.6126022,8.9207497,-18.0473995,34.3282433,-35.1526718,57.0610695
3600,-4.6327567,2.1978660,9.1362267,82.0839691,173.8854980,-19.0992374,19.6126022,9.2846670,-17.7648849,-53.7175560,-82.5419846,-17.4045811
3610,-0.6272776,1.4125718,3.7229645,14.0992365,-10.2137403,7.7938933,19.6126022,9.1362267,-14.6141329,-129.5648804,-127.5267181,-84.3969498
3620,0.4094064,0.6248835,1.8435259,-42.3511467,-62.9007645,22.1221371,19.6126022,8.0516596,-10.6206245,-175.9160309,-151.0229034,-144.2595367
3630,1.2090657,0.4860204,1.9608412,-93.7557220,-86.0839691,30.9465656,19.6126022,7.4842362,-7.1562324,-194.5801544,-139.6870270,-194.1450348
3640,9.8712435,-2.2529323,19.6126022,-58.6564903,250.1297760,3.6641221,16.9221306,7.2089043,-4.0078731,-195.5267181,-105.7709961,-229.9770966
3650,0.4908088,-0.9193687,7.7643566,40.1221390,-158.2290039,1.2671756,13.8216553,6.6414814,-2.1404054,-185.2671814,-68.3435135,-250.1374054
3660,4.9296360,-1.2449785,5.4755111,78.0763321,128.1297760,-5.9312978,11.1114330,6.0237808,-0.9361281,-172.5725250,-37.9007645,-250.1374054
3670,0.6823440,-1.2473727,9.4618368,23.3816795,96.5725174,-3.6106870,8.3964224,5.4132624,-0.1795642,-160.0381622,-18.6412220,-250.1374054
3680,0.6057299,-0.5123565,6.2248926,-26.3206100,-91.9083939,-10.4274807,5.1953912,4.7381010,0.2777260,-150.4427490,-15.4809160,-250.1374054
3690,7.1179252,-0.0861908,10.3500814,-65.9465637,-46.7862587,-19.3664131,2.5522060,3.9911139,0.5410868,-146.8091583,-24.8854961,-250.1374054
3700,2.0422437,-0.9026094,14.2861280,-14.8854961,-33.7557259,-32.7328262,0.2106887,3.4739690,0.5674229,-149.0915985,-39.3206100,-250.1374054
3710,3.7325413,-0.5267217,9.1649570,25.4809170,18.3587780,-34.1679382,-2.6168492,2.8107784,0.8331779,-156.6106873,-48.2671738,-250.1374054
3720,2.7078283,-0.1532281,9.7802639,25.4351139,56.0763359,-25.4503822,-6.0189924,2.3941894,1.9728121,-165.7099304,-51.2213745,-250.1374054
3730,1.5801650,0.8690908,6.1530671,-15.4656487,-32.3358765,-16.3893127,-10.0986910,2.6647329,3.9264708,-173.3511505,-46.5648842,-250.1374054
3740,2.1404054,0.0598547,10.5871058,-31.7709923,-18.8320618,-17.6641216,-14.8415804,2.8179610,6.1722202,-174.4580078,-29.4503822,-250.1374054
3750,2.6623387,-0.4668669,12.0858688,-6.2519083,0.8244275,-19.9847336,-19.6131992,3.4715748,8.8896255,-162.4351196,15.4809160,-189.2824402
3760,2.3654592,-0.5339043,9.7323799,13.3816795,25.9847336,-16.7022896,-19.6131992,4.3861551,12.2678270,-130.2061005,60.7328262,-82.9160309
3770,1.3934183,0.0119709,8.7555504,13.1832066,46.0152664,-9.9389315,-19.6131992,4.1060348,15.0115681,-75.0610657,80.6717529,24.5725193
3780,0.7972651,0.5291159,7.7739329,-11.1603050,23.1755733,-2.9541984,-19.6131992,3.4236910,15.6172981,-4.2061067,88.8320618,102.2595444
3790,1.9249283,-0.0670373,10.5871058,-13.8091602,29.2519093,0.2595420,-17.4488525,2.9041519,14.4058380,64.1984711,96.0610657,144.3664093
3800,2.2649033,-0.0957676,9.5432396,-3.1984732,45.4351158,4.5725193,-13.7713776,3.1651185,12.6149845,113.1832047,92.9160309,163.0229034
3810,2.6719155,-0.0694315,8.3389616,3.8473282,87.5877838,9.2366409,-10.7068148,3.6056492,10.4697905,140.7022858,73.5954208,166.6793823
3820,1.9201399,-0.0407012,9.4666252,6.9312978,123.3282471,13.0458012,-8.1498213,4.2089849,8.5448618,151.9465637,41.7099228,156.3053436
3830,0.6200951,-0.1508339,11.4777441,11.3358774,116.7709961,15.8549614,-7.1179252,4.7261300,6.4451580,151.1984711,3.0305343,140.9465637
3840,-0.6464311,0.0670373,10.0125008,3.7557251,80.8320618,19.4122143,-6.4475522,5.1451130,4.9679432,144.2061005,-29.2519093,129.3816833
3850,0.9289455,-0.1891410,10.8025827,-7.8778625,42.5419846,21.1526718,-5.7747850,5.1953912,4.1874375,136.8244324,-51.0916023,123.6870193
3860,0.6440369,-0.3447633,10.2902260,-6.6870227,30.0534344,22.7709923,-4.8386569,5.4300218,3.7253587,133.8167877,-62.1450386,120.7557220
3870,1.1252691,-0.1939293,8.5568333,-0.7786260,51.5038185,22.5114498,-3.6990228,5.4587522,3.3853838,136.1374054,-68.7480927,117.3969498
3880,1.2425843,-0.0287303,6.8306227,-1.3206106,108.3053436,24.2519093,-2.7820482,5.7604198,2.8682389,142.0381622,-77.0992355,111.8320618
3890,0.8188128,-0.0383070,6.2967181,-3.3053436,181.2900696,25.9923668,-2.0278785,6.1985564,2.2146254,149.0610657,-88.0534363,103.9465637
3900,2.7293761,0.1364688,4.8913293,-15.3053436,250.1297760,23.2977104,-1.5250987,6.6702118,1.4149660,155.7175598,-99.9694672,96.3740463
3910,-3.9192882,-0.6105183,3.8139439,-7.3206105,-2.1374047,23.5725193,-0.8188128,7.1203194,-0.0694315,160.5190887,-108.4656525,89.3129807
3920,-0.0718257,0.6153067,14.2262735,12.8549614,-105.1603088,31.0229015,0.1675933,7.5536675,-1.9153515,162.2671814,-112.1679382,83.3129807
3930,2.8969693,0.1699875,7.4243813,0.0458015,15.0992365,20.1526718,0.7829000,8.0684185,-3.5026991,159.8702240,-108.3282471,79.1068726
3940,-0.1987177,-0.4405309,10.7259684,-4.5648856,31.1679382,13.6717558,1.4987626,8.7268209,-5.1762376,153.2671814,-103.4580154,72.8549652
3950,0.0407012,-0.1987177,10.4673967,1.1832061,-13.4961834,8.7328243,2.0111191,9.5767574,-6.9431496,142.2442780,-99.2061081,67.3435135
3960,1.1180865,-0.0742199,9.2894554,-0.9770992,-2.9465649,0.0916031,2.4755919,10.2782555,-8.2551651,127.7709961,-98.5267181,63.8778610
3970,0.0263361,-0.2753318,10.0675669,-1.5114504,3.0458016,-3.4351146,3.0693510,11.2479019,-9.9502516,109.9694672,-102.6259537,61.3969460
3980,-0.0263361,-0.1747758,9.9981356,-0.1145038,-1.4198474,-3.6946564,4.4292507,12.0810804,-11.2215662,88.7709961,-108.9236679,55.9312973
3990,-0.0861908,-0.1149211,9.8760319,-0.5877863,0.4351145,-2.1832061,6.6486640,12.2055779,-12.7275114,63.7099228,-118.0076370,44.8015251
4000,-0.1843526,-0.1963235,9.9694052,-0.6870229,-0.7022901,0.0229008,8.8896255,12.4617558,-14.3938665,36.3664131,-112.3435135,27.0458012
4010,0.1915352,-0.1580165,9.9741936,-0.6641222,0.0305344,0.5801527,10.4937325,12.9549589,-15.5191364,8.0992365,-95.4351120,5.7938933
4020,0.0407012,-0.1029501,9.8018112,-1.0000000,-0.3664122,0.5114504,11.4418316,13.1081877,-15.8064384,-24.0152664,-87.1374054,-20.0305347
4030,0.0071826,-0.2082945,9.8449068,-0.7175573,-0.1068702,0.4885496,11.8153248,13.0339670,-16.0003681,-61.9007645,-96.2595444,-48.7786255
4040,0.0430954,-0.2609667,9.9287033,-0.7099237,-0.1984733,0.4503817,11.8272963,12.7275114,-15.5263186,-105.3664093,-108.3664093,-77.1908417
4050,-0.0023942,-0.1556223,9.9550400,-0.5419847,-0.1221374,0.1832061,11.2431135,12.0715036,-14.2262735,-148.9389343,-118.3129807,-104.1145020
4060,0.0885850,-0.1939293,9.9047613,-0.6946565,0.2671756,0.1679389,10.2016411,11.2574787,-11.9972830,-187.4732819,-118.0229034,-130.3893127
4070,0.0239419,-0.2561783,9.9047613,-0.6870229,-0.0610687,0.3587786,9.0524302,10.2854376,-9.7946291,-215.3816833,-110.2213745,-153.9389343
4080,-0.0023942,-0.1508339,9.9334917,-0.7099237,-0.1450382,0.2366412,7.7021074,9.2894554,-7.6398587,-232.2442780,-98.8931274,-175.4351196
4090,0.0478838,-0.1484398,9.9430685,-0.6564885,-0.0916031,0.3206107,6.2248926,8.2216463,-5.7747850,-240.9770966,-85.8778610,-194.1679382
4100,0.1292862,-0.2154770,9.9287033,-0.8549618,0.0305344,0.3053435,4.7021880,7.1873569,-4.0988522,-243.4656525,-71.7633591,-210.5801544
4110,-0.0454896,-0.1915352,9.8975792,-0.4351145,-0.5496183,0.3511450,2.8227494,6.1794028,-2.4444675,-242.3969421,-57.3969460,-222.8778687
4120,-0.0071826,-0.1891410,9.8760319,-0.8702290,0.0916031,0.4045801,0.9528874,5.3366485,-1.1827296,-239.7709961,-44.8854980,-230.2442780
4130,0.0119709,-0.1843526,9.8760319,-0.6106870,-0.3435115,0.5648855,-0.8068419,4.3263001,0.0622489,-237.2977142,-34.8244286,-233.7557220
4140,-0.0047884,-0.2130829,9.7730818,-0.7328244,0.0610687,0.2366412,-2.8682389,3.4284792,1.2761030,-233.4961853,-28.6564884,-233.3664093
4150,0.0095768,-0.2274480,9.8999729,-0.8549618,-0.0610687,0.5114504,-5.0900469,2.4564383,2.5306582,-226.8931274,-22.8091602,-228.7480927
4160,0.0359128,-0.2226596,10.0029240,-0.7175573,-0.0610687,0.5190840,-8.8513184,1.7860653,4.1730723,-219.2519073,-5.5954199,-212.3511505
4170,-0.0071826,-0.1651991,9.8832140,-0.6564885,0.0610687,0.4809160,-13.3212700,1.4460905,6.1937680,-208.3969421,31.8549614,-173.9923706
4180,-0.0454896,-0.2178712,9.8999729,-0.5954198,0.0992366,0.2061069,-18.1623211,1.8387375,9.2391768,-189.3816833,79.3206100,-109.9694672
4190,0.0454896,-0.1891410,9.8784256,-0.6870229,0.1984733,0.3435115,-19.6131992,2.2768741,12.7921543,-157.6793823,122.1679382,-24.8167934
4200,0.0502780,-0.1747758,9.8880024,-0.7404580,-0.0763359,0.2900763,-19.6131992,1.8507085,16.3427372,-112.6030502,145.4198456,60.3893127
4210,0.0885850,-0.0981618,9.8616667,-0.6946565,0.0534351,0.3740458,-19.6131992,0.9816177,17.9755745,-60.6870232,150.7938995,126.7175598
4220,0.0550664,-0.1699875,9.9047613,-0.5801527,-0.1755725,0.3740458,-17.9564209,0.4309541,18.3299141,-4.4732823,135.4885559,164.1679382
4230,0.0335187,-0.1723816,9.9981356,-0.8320611,-0.1526718,0.1297710,-14.4656925,0.2250538,17.9492378,51.7938919,111.4274826,175.6183167
4240,-0.0071826,-0.1795642,9.8664551,-0.6946565,-0.1221374,0.4732825,-11.3891592,0.5937590,16.2613354,104.4351120,85.2824402,168.6870270
4250,0.0861908,-0.1819584,9.8377247,-0.9007633,-0.3358779,0.3282443,-9.0691900,1.3646880,13.8551741,144.1145020,51.8167953,151.9618378
4260,0.0071826,-0.1244979,9.8377247,-0.7938932,-0.1984733,0.3740458,-7.3812861,2.0733681,11.2239599,167.7862549,12.8625956,130.0992432
4270,-0.0191535,-0.1436514,9.8137827,-0.8702290,-0.2519084,0.4198473,-6.1889796,2.7317703,8.8010406,177.2442780,-28.5190830,106.2137375
4280,0.0071826,-0.1675933,9.8473015,-0.8854962,-0.0229008,0.5572519,-5.3701668,3.5434003,6.4667058,174.8396912,-66.4656525,85.5114517
4290,0.0191535,-0.1915352,9.9550400,-0.9007633,-0.3664122,0.3511450,-4.5800843,4.3023586,4.6136031,163.9160309,-97.4122162,69.0534363
4300,0.0574605,-0.2274480,9.8975792,-0.8854962,-0.5496183,0.3053435,-3.8546450,5.1044121,2.9855542,149.4809113,-113.2671738,57.6946564
4310,0.1029501,-0.1101327,9.9023676,-0.4885496,0.0839695,0.3053435,-3.4452386,5.8681583,2.0446377,139.3816833,-119.0916061,50.9618340
4320,0.0694315,-0.1747758,9.9478569,-0.8931298,-0.4580153,0.2977099,-3.5122759,6.7276726,1.6232605,138.9694672,-118.5267181,49.4732819
4330,0.0550664,-0.2274480,9.8712435,-0.4961832,-0.0610687,0.4809160,-3.3686244,7.5536675,0.8164186,148.5114441,-116.5114517,52.0687027
4340,-0.0933734,-0.1197095,9.8592720,-0.6488550,-0.1068702,0.4885496,-3.0430148,8.3820572,-0.5793939,163.0381622,-114.1450348,57.0228996
4350,0.0502780,-0.1244979,9.8832140,-0.6717557,-0.5801527,0.3587786,-2.1332228,8.9734221,-2.7676830,174.7251892,-117.7251892,60.1068687
4360,0.0000000,-0.1915352,9.8640604,-0.6870229,-0.0076336,0.4580153,-1.1611819,9.6509781,-5.0086441,177.3740387,-123.0763321,59.0763359
4370,-0.0095768,-0.1795642,9.9622221,-0.6259542,-0.1679389,0.2824427,-0.1388630,10.3835993,-7.0389171,168.8854980,-134.7022858,52.3893127
4380,0.0454896,-0.1651991,9.9789820,-0.5954198,-0.2137405,0.2595420,0.7996593,11.2886028,-9.4833841,146.5114441,-152.0534363,40.6870232
4390,-0.1053443,-0.2202654,9.9358864,-0.8091603,-0.1832061,0.3206107,1.7860653,12.6963863,-11.5998478,110.4274826,-179.4274750,23.9236641
4400,0.0407012,-0.1508339,9.8425131,-0.6488550,0.0305344,0.2595420,4.0246325,13.7306767,-13.2518387,61.1755714,-236.8778687,-6.0229006
4410,0.0574605,-0.1484398,9.9358864,-0.5496183,-0.0076336,0.4045801,5.8083038,13.7234936,-14.5375185,2.5954199,-250.1374054,-56.3435097
4420,0.0191535,-0.1364688,9.9263096,-0.7938932,0.0839695,0.3053435,6.9024482,13.7139168,-15.7753143,-66.0381699,-250.1374054,-123.9465637
4430,0.0407012,-0.1771700,9.9478569,-0.6870229,-0.1068702,0.6946565,6.8186517,13.5223818,-17.4943428,-150.4580078,-250.1374054,-188.9389343
4440,0.0287303,-0.1699875,9.9382801,-0.6259542,0.2290076,0.2213740,5.6526814,12.7059631,-17.7074261,-247.1068726,-250.1374054,-230.8778687
4450,0.0957676,-0.1963235,9.8233595,-0.6183206,-0.0076336,0.4656489,4.3239059,11.6070309,-15.2605639,-250.1374054,-250.1374054,-235.3664093
4460,-0.0454896,-0.2394189,9.8544836,-0.7786260,0.0458015,0.1984733,1.5873476,9.7611103,-12.5958309,-250.1374054,-250.1374054,-217.4045868
4470,-0.0119709,-0.1747758,9.9382801,-0.7633588,-0.0305344,0.4122137,-1.8578910,7.7380204,-7.8122401,-250.1374054,-250.1374054,-171.3893127
4480,0.0837966,-0.1532281,9.8329363,-0.7633588,-0.1221374,0.1832061,-3.9552009,6.6941538,-1.3335636,-250.1374054,-226.6564941,-109.7480927
4490,0.0550664,-0.2035061,9.8927908,-0.8473282,-0.1832061,0.4122137,-4.5681133,5.2624283,5.5401545,-250.1374054,-110.0992355,-54.6946564
4500,0.0000000,-0.1244979,9.9239149,-0.7786260,-0.0610687,0.3435115,-3.5457945,4.2664456,12.5120344,-250.1374054,-56.7480927,-25.2671757
4510,0.0861908,-0.2466015,9.9023676,-0.7709923,0.0000000,0.3587786,-2.6455793,3.6224086,9.9717989,-230.3358765,-68.6106873,-21.5038166
4520,0.0454896,-0.1747758,9.8999729,-0.9083970,-0.2061069,0.2900763,-0.7278336,3.5697365,11.3915539,-175.2671814,-84.7938919,-26.9465656
4530,0.0000000,-0.1675933,9.8951855,-0.6717557,-0.2137405,0.3740458,-0.1292862,2.0542145,8.6262646,-141.6793823,-82.9389343,-38.5343513
4540,-0.0311245,-0.1388630,9.9622221,-0.7557252,-0.3129771,0.3664122,-2.8131726,0.8954269,8.7938576,-135.2519073,-25.4122143,-20.6412220
4550,0.0814024,-0.1460456,9.9310980,-0.6641222,-0.3816794,0.4198473,-4.7668314,0.4572902,11.7315283,-120.8473282,77.1068726,20.1755733
4560,0.0718257,-0.1173153,9.9310980,-0.5572519,-0.2137405,0.2061069,-6.7444315,-0.8499373,14.8391867,-84.9923630,185.9465637,65.7786255
4570,-0.0119709,-0.1651991,9.8856087,-0.6183206,-0.3129771,0.3587786,-8.2479830,-2.0590029,17.1926746,-36.6717567,250.1297760,102.2366409
4580,0.0095768,-0.1747758,9.8951855,-0.8778626,-0.2977099,0.1679389,-11.6644907,-2.2696917,19.3809643,10.6412210,250.1297760,133.2824402
4590,0.0311245,-0.1963235,9.8616667,-0.7251908,-0.3587786,0.4274809,-15.8662939,-1.2162483,19.6126022,55.3282433,250.1297760,174.0458069
4600,-0.0023942,-0.1747758,9.9454632,-0.6183206,-0.1221374,0.2748092,-16.7425671,-1.2976507,19.6126022,94.7251892,250.1297760,219.8015289
4610,0.0095768,-0.1628049,9.9263096,-0.7404580,-0.2595420,0.3893130,-14.3172531,-1.9895715,19.6126022,139.4045868,230.9313049,250.1297760
4620,0.0191535,-0.1412572,9.9622221,-0.6183206,0.0000000,0.5267175,-11.8249016,-1.7860653,19.6126022,194.2213745,212.1755676,250.1297760
4630,0.0335187,-0.1699875,9.8496952,-0.6946565,-0.1984733,0.2519084,-10.2423429,-0.8906385,19.6126022,250.1297760,205.2290039,250.1297760
4640,0.0167593,-0.1604107,9.9263096,-0.6183206,-0.1221374,0.3053435,-8.6430235,0.4716553,17.5206776,250.1297760,196.0992432,250.1297760
4650,0.0454896,-0.2202654,9.8688488,-0.6030535,-0.0687023,0.3053435,-6.9263902,1.5801650,12.5982246,250.1297760,187.6870270,250.1297760
4660,0.0047884,-0.1771700,9.9478569,-0.8091603,0.1603053,0.4045801,-5.7221127,3.0406206,7.2974896,250.1297760,184.0381622,250.1297760
4670,0.0071826,-0.1412572,9.8903971,-0.7022901,-0.0839695,0.3435115,-4.5585365,4.4819226,2.1523764,250.1297760,195.4732819,250.1297760
4680,0.0646431,-0.1532281,9.8760319,-0.7022901,-0.2366412,0.0839695,-2.2433555,5.5712790,-2.3558824,250.1297760,208.3969421,250.1297760
4690,0.0574605,-0.1580165,9.9406748,-0.8091603,0.0916031,0.2442748,0.8834559,6.4379754,-5.7125359,250.1297760,211.0458069,250.1297760
4700,0.0071826,-0.1675933,9.9119444,-0.7557252,0.1297710,0.3587786,5.1858144,7.4004397,-8.7363977,250.1297760,173.8091583,250.1297760
4710,0.0071826,-0.1580165,9.8042059,-0.7099237,0.1374046,0.2213740,11.3628235,8.9662399,-12.3037395,236.1832123,103.9618301,250.1297760
4720,-0.0023942,-0.1771700,9.9861641,-0.4885496,-0.0534351,0.1984733,15.1049414,9.7970228,-16.3954086,159.9694672,16.3969460,227.5572510
4730,-0.0143651,-0.1843526,10.0148945,-0.4580153,-0.0458015,0.2824427,17.2525291,10.4314833,-19.6131992,57.1832047,-69.7862625,145.1832123
4740,0.1101327,-0.1436514,10.0077124,-0.7862595,0.0229008,0.3587786,17.0609932,10.8791971,-19.6131992,-53.1145020,-125.2442780,74.3053436
4750,0.0981618,-0.2178712,9.8185711,-0.5496183,-0.0305344,0.3664122,16.2469692,10.6206245,-17.9731808,-145.4503784,-155.3206177,17.1984730
4760,0.0861908,-0.1987177,10.0292597,-0.7786260,0.0305344,0.2977099,15.5311069,9.6940727,-14.7673607,-203.4732819,-154.5114441,-28.5877857
4770,0.0167593,-0.1891410,9.8616667,-0.8015267,-0.0916031,0.3664122,14.3148584,9.0620070,-11.9661589,-232.9923706,-118.2824402,-62.1221390
4780,-0.0478838,-0.1651991,9.9406748,-0.6106870,-0.0152672,0.3740458,12.1600885,8.5496502,-8.8082228,-241.9847260,-70.4351120,-85.1297684
4790,0.0502780,-0.1268920,9.9071560,-0.8473282,-0.1526718,0.3206107,10.4219065,8.2886839,-6.7540083,-240.8396912,-32.5267181,-101.0152664
4800,-0.0311245,-0.1843526,9.9143381,-0.7633588,-0.4198473,0.3816794,9.2439651,7.8529415,-5.0373745,-238.9694672,-7.1145039,-116.1832047
4810,0.0861908,-0.1819584,9.8449068,-0.6183206,-0.3969466,0.4427481,8.5400734,7.1298962,-3.9025288,-239.6412201,7.9312978,-134.9236603
4820,0.0215477,-0.1436514,9.8712435,-0.8320611,-0.5114504,0.3358779,7.5847921,6.3469963,-2.8035958,-243.9541931,19.0305347,-158.7862549
4830,0.0215477,-0.1771700,9.9502516,-0.8854962,-0.3740458,0.3893130,6.4355812,5.4036856,-1.7070571,-249.5267181,27.3511448,-183.0915985
4840,0.0526722,-0.2322364,9.8496952,-0.6412213,-0.6106870,0.4045801,5.5138183,4.0940638,-0.4189832,-250.1374054,46.0076332,-203.0381622
4850,-0.0095768,-0.1915352,9.9502516,-0.7022901,-0.2977099,0.2213740,4.3957319,2.6527619,1.4029950,-250.1374054,96.5801544,-218.1145020
4860,0.0502780,-0.1604107,9.9071560,-0.6412213,-0.3816794,0.1603053,2.2960277,0.8475431,3.8139439,-246.2061005,168.7251892,-227.7938995
4870,-0.0071826,-0.1939293,9.9526453,-0.7404580,-0.1145038,-0.0687023,-1.7956421,-0.8619082,6.8042865,-222.1145020,250.1297760,-226.6488495
4880,0.0215477,-0.1939293,9.9143381,-0.7633588,0.2061069,-0.1832061,-7.7547798,-1.3335636,10.0125008,-183.2824402,250.1297760,-206.5419922
4890,-0.0143651,-0.1532281,9.8233595,-0.7862595,0.0381679,0.1221374,-16.2182388,-0.5746055,13.4577389,-134.9694672,250.1297760,-163.1603088
4900,0.0071826,-0.1292862,9.8880024,-0.7099237,0.0000000,0.1374046,-19.6131992,1.1779412,17.7936153,-84.2595444,250.1297760,-92.0992355
4910,0.0335187,-0.1843526,9.9287033,-0.6259542,0.0000000,0.2977099,-19.6131992,2.3774302,19.6126022,-29.8396950,249.7480927,-11.8625956
4920,0.0502780,-0.0909792,9.8520899,-0.5496183,-0.2061069,0.4351145,-19.6131992,2.1068866,19.6126022,27.9694653,121.9465637,57.0076332
4930,0.0000000,-0.2059003,9.8425131,-0.7633588,-0.0458015,0.4122137,-19.6131992,1.2976507,17.7672806,86.8396912,53.0763359,104.2290039
4940,0.0191535,-0.1699875,9.8927908,-0.7022901,-0.0229008,0.3129771,-17.1854916,1.2282192,15.3443604,141.2748108,36.0000000,132.5267181
4950,0.0119709,-0.1675933,9.8736372,-0.7709923,-0.0839695,0.3664122,-14.1281118,1.8722562,12.4593620,186.2213745,47.6106873,147.9847260
4960,0.0143651,-0.1508339,9.8832140,-0.7175573,0.1145038,0.5038168,-11.9493999,3.0501974,9.6629486,213.1374054,47.1679382,153.8015289
4970,-0.0239419,-0.1915352,9.9430685,-0.9541985,-0.2213740,0.2900763,-9.3828287,4.2401094,6.7109132,221.8167877,24.6335869,146.3587799
4980,0.0359128,-0.1963235,9.9478569,-0.5648855,-0.0687023,0.3206107,-7.7116842,5.2552457,4.5633249,214.2671814,-15.1297712,127.9465637
4990,0.0000000,-0.1795642,9.9047613,-0.6335878,0.0305344,0.4961832,-6.3422079,6.1003947,2.5210814,193.1526642,-58.5954208,108.5725174
5000,0.0742199,-0.1508339,9.9310980,-0.5648855,0.0152672,0.4198473,-4.9440012,6.7109132,0.8810617,164.1374054,-93.1450348,95.1068726
5010,0.0335187,-0.2418131,9.9023676,-0.6946565,-0.0152672,0.3435115,-3.5529771,7.2184811,-0.0454896,135.5343475,-111.5267181,86.9923630
5020,0.0311245,-0.1580165,9.8496952,-0.8091603,-0.1145038,0.2213740,-2.6120608,7.7930865,0.0023942,117.8625946,-118.5267181,84.2595444
5030,0.0526722,-0.1197095,9.9382801,-0.7786260,-0.0381679,0.1374046,-1.6136837,8.1641865,0.0718257,114.5725174,-119.2366409,83.9465637
5040,0.0143651,-0.1963235,9.9167328,-0.6870229,-0.0610687,0.1984733,-0.5027798,8.6118994,-0.4333483,122.6259537,-112.8473282,84.0687027
5050,0.0047884,-0.1221037,9.8377247,-0.8015267,-0.1984733,0.4961832,0.2968795,9.1338329,-1.6184721,133.9007568,-99.7480927,86.2595444
5060,-0.0071826,-0.1604107,9.9358864,-0.7709923,-0.2366412,0.3893130,1.0917504,9.7706871,-3.2656744,142.7099304,-80.8854980,89.6717529
5070,0.0095768,-0.2106887,9.9047613,-0.6335878,-0.2213740,0.4809160,1.5681942,10.3500814,-5.0780759,144.2900696,-62.1984749,94.0152664
5080,0.0502780,-0.1675933,9.9143381,-0.8091603,-0.2595420,0.1145038,2.3271523,10.7451220,-6.6941538,137.3206177,-56.0228996,95.9694672
5090,0.0119709,-0.2250538,9.8880024,-0.7175573,-0.2595420,0.3435115,3.6104376,10.8983507,-8.0971489,119.3740463,-66.2900772,91.0534363
5100,0.0646431,-0.1963235,9.8736372,-0.6870229,-0.3282443,0.3893130,5.2696109,10.8576488,-8.9327211,92.8931274,-80.2671738,77.5648880
5110,0.0335187,-0.1604107,9.9741936,-0.9007633,-0.2442748,0.4427481,6.4714942,10.9151096,-9.4690189,61.4122124,-88.4274826,58.3511467
5120,-0.0071826,-0.1891410,9.8401184,-0.7709923,-0.0916031,0.4274809,7.2687593,11.0587606,-9.2655134,31.5496178,-86.6183243,37.2213745
5130,0.0430954,-0.1436514,9.8999729,-0.6641222,-0.1297710,0.3435115,7.5440907,11.0563669,-8.5999289,8.0458012,-78.5648880,15.9007635
5140,0.0119709,-0.2059003,9.8999729,-0.8091603,-0.2519084,0.2519084,7.8553357,10.9965124,-7.9798336,-8.6106873,-63.7328262,-6.8167939
5150,0.0191535,-0.1580165,9.8425131,-0.6183206,0.0610687,0.1984733,7.7619624,10.9318695,-7.4914188,-20.0687027,-47.8167953,-29.2137413
5160,0.0023942,-0.1699875,9.8903971,-0.7328244,-0.0305344,0.2519084,7.5081782,10.8241301,-7.4531116,-31.7557259,-25.3435116,-52.0610695
5170,-0.0071826,-0.1053443,9.9191265,-0.8167939,-0.0610687,0.5725191,6.8809004,10.7092094,-7.4171991,-45.7175560,-1.7938931,-74.3893127
5180,-0.0071826,-0.1651991,9.9861641,-0.8167939,-0.2595420,0.4809160,5.8585815,10.4985209,-7.2017217,-61.4427490,13.5572519,-96.7099228
5190,0.0622489,-0.1628049,9.9454632,-0.7633588,-0.0839695,0.5190840,4.7381010,10.2399483,-6.9024482,-79.8320618,16.1068707,-119.5190811
5200,0.0430954,-0.1795642,9.9263096,-0.6870229,-0.2137405,0.2290076,3.2728570,10.0939026,-6.6510582,-100.6106873,7.7175574,-140.8625946
5210,-0.0335187,-0.1484398,9.9550400,-0.7099237,-0.1832061,0.3206107,2.0302727,9.9071560,-6.5552907,-123.8396912,-3.2900763,-159.4427490
5220,0.0000000,-0.1771700,9.8975792,-0.5648855,-0.2137405,0.1526718,0.8547257,9.3947992,-6.1722202,-148.3511505,-14.1908398,-173.6641235
5230,-0.0311245,-0.2418131,9.9095497,-0.7022901,-0.2290076,0.4351145,-0.3830703,8.9494801,-5.4252334,-172.9694672,-23.7938938,-182.6946564
5240,0.1053443,-0.1508339,9.9047613,-0.7557252,-0.0916031,0.3129771,-1.4149660,8.3844519,-4.4579806,-194.0152740,-27.9160309,-188.4122162
5250,0.0263361,-0.1077385,9.9215212,-0.6030535,-0.3816794,0.2977099,-2.7365584,7.8337879,-3.1866663,-209.2595367,-26.3664131,-189.8549652
5260,0.0215477,-0.1771700,9.9071560,-0.9236641,-0.0229008,0.4885496,-3.9456241,7.3884687,-1.7932479,-220.5419922,-22.0687027,-186.8091583
5270,0.0119709,-0.1747758,9.9430685,-0.7786260,0.0000000,0.2748092,-5.2193332,6.7587967,-0.1987177,-228.1908417,-16.7557259,-179.9084015
5280,0.0023942,-0.1675933,9.9885588,-0.6870229,-0.1221374,0.3129771,-7.1418672,5.7987270,1.7022687,-231.4656525,4.3587785,-163.8931274
5290,0.0502780,-0.1939293,9.9334917,-0.7099237,-0.5114504,0.4656489,-10.2136126,5.4419928,4.5729017,-224.8015289,60.0687027,-127.9694672
5300,0.0622489,-0.1628049,9.9215212,-0.4961832,0.0076336,0.3358779,-14.3100700,2.6000898,14.6380739,63.8015251,218.4274750,173.3129730
5310,-0.0239419,-0.1484398,9.8903971,-0.6564885,-0.1984733,0.4503817,-13.2518387,2.5737536,14.3795023,86.5496216,187.4198456,176.4503784
5320,-0.0071826,-0.2035061,9.8664551,-0.6564885,-0.1603053,0.2824427,-12.2582502,2.9304879,13.8144732,108.0916061,148.9618378,172.6488495
5330,0.0694315,-0.2346306,9.8113880,-0.7404580,-0.0916031,0.5725191,-11.1593170,3.2177906,12.6389265,127.4580154,105.3893127,162.3816833
5340,0.0287303,-0.1340746,9.9071560,-0.6564885,-0.3206107,0.4732825,-10.4865494,3.6798692,10.6325951,143.4351196,62.2061081,152.4885559
5350,0.0502780,-0.1747758,9.9382801,-0.6870229,-0.2442748,0.4274809,-9.9071560,4.1156116,8.7603388,155.7480927,23.5801525,145.5038147
5360,0.0215477,-0.1987177,9.8736372,-0.7022901,-0.1526718,0.3435115,-8.3629036,4.9966736,3.9408360,162.3664093,-39.6335869,143.0610657
5370,0.0383070,-0.2394189,9.8999729,-0.7862595,-0.2519084,0.2671756,-7.5393028,5.8873119,1.4317253,158.4427490,-65.4580154,148.8167877
5380,-0.0359128,-0.1388630,9.9239149,-0.8015267,-0.2290076,0.3282443,-5.9543490,6.6271162,-0.9576758,150.2671814,-84.5801544,158.8167877
5390,0.0574605,-0.1604107,9.9334917,-0.8625954,-0.1908397,0.3435115,-4.1898317,7.8888540,-3.3183465,139.2442780,-90.4656525,176.1068726
5400,0.0119709,-0.1987177,9.8760319,-0.7175573,-0.2137405,0.4274809,-2.0997043,9.1984758,-5.7484488,128.2366486,-88.9465637,199.5496216
5410,0.0119709,-0.2250538,9.8736372,-0.6717557,-0.2595420,0.3587786,0.7781116,9.7060442,-8.0277176,120.2824402,-83.1145020,222.0610657
5420,-0.0143651,-0.1604107,9.9263096,-0.5419847,-0.2442748,0.4580153,5.5640965,9.7012558,-10.2638903,115.7480927,-70.1145020,234.1068726
5430,-0.0215477,-0.1963235,9.9287033,-0.7175573,-0.0687023,0.5190840,11.4945040,9.5576038,-13.3907013,110.0381699,-39.3511467,226.7938995
5440,0.0885850,-0.1963235,9.9143381,-0.7633588,-0.1221374,0.4503817,17.7816448,9.7611103,-16.4289284,96.1526718,1.4198474,192.7022858
5450,0.1197095,-0.0814024,9.7970228,-0.7480916,-0.2290076,0.4198473,19.6126022,10.5152798,-18.7058029,63.3664131,32.2519073,132.9541931
5460,-0.0119709,-0.1508339,9.9957409,-0.5648855,-0.1297710,0.2137405,19.6126022,11.2670555,-19.4001179,4.5343513,33.5954208,57.8778610
5470,0.0383070,-0.1939293,9.9837704,-0.8015267,-0.0839695,0.4122137,19.6126022,11.0084829,-18.6267948,-74.8625946,2.5648854,-25.5954189
5480,-0.0407012,-0.1460456,9.8664551,-0.7328244,-0.0458015,0.2213740,19.6126022,10.6541433,-15.9740324,-154.2595367,-34.4351158,-101.6641235
5490,0.0071826,-0.1173153,9.8999729,-0.6183206,-0.0534351,0.3129771,19.6126022,9.5264797,-12.3947191,-214.4961853,-65.7480927,-165.0305328
5500,0.0263361,-0.1173153,9.8808203,-0.6259542,-0.0610687,0.4656489,17.3937855,8.0612354,-8.6933022,-246.3587799,-70.4732819,-217.7862549
5510,0.0143651,-0.2011119,9.9526453,-0.7022901,-0.0076336,0.2977099,14.1424770,6.7085190,-5.2456689,-250.1374054,-58.1450386,-250.1374054
5520,0.0359128,-0.1340746,9.9909525,-0.7099237,-0.0152672,0.1374046,9.5767574,4.7596488,-2.5043221,-250.1374054,-48.8320618,-250.1374054
5530,-0.0215477,-0.1915352,9.9167328,-0.8549618,0.0076336,0.3816794,4.0653338,3.2345500,0.0694315,-250.1374054,-34.5190849,-250.1374054
5540,-0.0047884,-0.1580165,9.9646168,-0.9389313,-0.1679389,0.4274809,-3.3015873,1.8459201,2.8299320,-250.1374054,1.5801526,-250.1374054
5550,-0.0095768,-0.1316804,9.8880024,-0.4580153,-0.2290076,0.3282443,-13.6923695,1.2473727,7.1873569,-250.1374054,77.7404556,-250.1374054
5560,-0.0071826,-0.1747758,9.9071560,-0.7557252,-0.1679389,0.2442748,-19.6131992,2.4492557,13.4792862,-234.0915985,150.4885559,-171.9313049
5570,-0.0454896,-0.1364688,9.9382801,-0.6717557,-0.2366412,0.3969466,-19.6131992,2.9807658,19.6126022,-190.8778687,167.0763397,-19.9618320
5580,0.0119709,-0.1867468,9.8736372,-0.7251908,-0.3129771,0.5648855,-19.6131992,1.7908537,19.6126022,-122.7404556,158.5954132,123.6717529
5590,0.0430954,-0.1723816,9.8903971,-0.6259542,0.1221374,0.1526718,-19.6131992,0.2154770,19.6126022,-26.4274807,170.6030579,232.4809113
5600,0.0000000,-0.1580165,9.9215212,-0.7709923,-0.4045801,0.2977099,-19.6131992,-0.1268920,19.6126022,78.9542007,189.2977142,250.1297760
5610,0.0311245,-0.1795642,9.9167328,-0.6793893,-0.2671756,0.3664122,-19.6131992,0.3064562,16.8143921,160.8473358,186.3664093,250.1297760
5620,0.1005560,-0.1867468,9.9023676,-0.6870229,-0.0305344,0.1603053,-16.5845509,1.6065011,12.0834742,208.4885559,160.1603088,250.1297760
5630,0.0909792,-0.1699875,10.0220766,-0.7786260,-0.2213740,0.2671756,-12.1050215,2.7509236,6.9072366,224.2824402,105.3435135,250.1297760
5640,-0.0023942,-0.1436514,9.9143381,-0.6488550,-0.1603053,0.3206107,-7.4555058,3.8354914,1.6256547,216.7786255,43.9312973,250.1297760
5650,0.0335187,-0.1987177,9.9741936,-0.5038168,-0.0687023,0.2519084,-3.5673423,4.6040263,-3.0717452,193.2977142,2.0152671,250.1297760
5660,0.0311245,-0.1771700,9.9598284,-0.5801527,0.0152672,0.2824427,0.3567342,5.5353661,-6.9216018,156.6106873,-14.7786255,250.1297760
5670,0.0047884,-0.1867468,9.9454632,-0.4732825,-0.0229008,0.3893130,4.1706781,6.2057390,-9.5815458,114.3893127,-18.6870232,250.1297760
5680,0.0191535,-0.1963235,9.8856087,-0.7480916,-0.0992366,0.3053435,9.2535419,6.2655940,-11.9422169,71.7938919,-1.3129771,250.1297760
5690,-0.0263361,-0.1891410,9.8784256,-0.6488550,-0.0992366,0.3740458,16.0362816,6.1003947,-13.5080166,31.1374054,25.3282452,250.1297760
5700,-0.0095768,-0.1580165,9.9167328,-0.5343512,0.0687023,0.2671756,19.6126022,5.9543490,-13.6396971,-9.0534353,36.8931313,250.1297760
5710,0.0383070,-0.1819584,9.9741936,-0.7099237,-0.0992366,0.3435115,19.6126022,5.8561873,-13.0794573,-56.1755714,8.0610685,208.5725250
5720,0.0023942,-0.2106887,9.9023676,-0.6717557,0.0076336,0.1679389,19.6126022,5.4443870,-12.1648769,-111.3893127,-42.8091621,109.7938919
5730,0.0047884,-0.2154770,9.9334917,-0.6870229,-0.2519084,0.3587786,19.6126022,5.1163831,-10.2231894,-167.3740387,-75.1297684,2.8396947
5740,0.0742199,-0.2226596,9.9885588,-0.6564885,0.0229008,0.4274809,19.6126022,4.7644372,-6.8090749,-206.3282471,-76.3969498,-97.7022934
5750,0.0430954,-0.1508339,9.8233595,-0.6030535,0.1908397,0.2519084,19.6126022,3.9791429,-2.5162930,-219.0839691,-54.6793900,-184.1603088
5760,-0.0047884,-0.1604107,9.8281479,-0.7786260,-0.1908397,0.2824427,19.6126022,3.4643922,0.4237715,-209.6717529,-20.6717548,-249.8320618
5770,0.0311245,-0.1292862,9.9263096,-0.6412213,-0.1068702,0.3206107,19.6126022,2.7221935,2.6240315,-188.2213745,8.8625956,-250.1374054
5780,0.0071826,-0.1675933,9.9215212,-0.5877863,0.0000000,0.2213740,15.4592810,1.8578910,3.6056492,-162.3053436,24.9236641,-250.1374054
5790,0.0981618,-0.1125269,9.8329363,-0.6335878,-0.2442748,0.3053435,10.8001890,0.9935886,3.7804251,-138.1297760,26.4122143,-250.1374054
5800,0.0407012,-0.1628049,9.8832140,-0.6488550,-0.1221374,0.3893130,5.9854736,0.8738791,3.2201848,-120.3587799,5.6030536,-250.1374054
5810,0.0718257,-0.1747758,9.9143381,-0.6870229,-0.0916031,0.5572519,3.6271970,1.0103480,2.9376705,-110.3664093,-46.4809151,-250.1374054
5820,0.0215477,-0.2035061,9.9071560,-0.7175573,-0.2061069,0.4122137,2.3343346,0.7110743,2.9592183,-113.6412201,-93.5801544,-250.1374054
5830,0.0981618,-0.1556223,9.9095497,-0.5877863,-0.3511450,0.4885496,0.1795642,0.9696468,3.2824337,-126.3740463,-115.1526718,-250.1374054
5840,0.0814024,-0.1221037,9.8927908,-1.0000000,-0.2824427,0.3282443,-2.5019281,1.0175306,4.1515245,-139.1984711,-123.9236679,-250.1374054
5850,0.0383070,-0.2059003,9.8975792,-0.7480916,-0.0534351,0.3969466,-5.9375896,0.8044477,5.6215568,-146.6564941,-114.4045792,-250.1374054
5860,-0.0215477,-0.1388630,9.8880024,-0.6488550,-0.0458015,0.5419847,-12.0260134,0.3543400,6.2368636,-145.9923706,-81.1068726,-250.1374054
5870,0.1029501,-0.2035061,9.8951855,-0.7862595,-0.2366412,0.3129771,-19.6131992,0.3208214,7.4411407,-140.6183167,-11.8320608,-250.1374054
5880,-0.0023942,-0.2130829,9.8832140,-0.7251908,-0.0534351,0.2824427,-19.6131992,2.4564383,9.9717989,-123.8549652,67.1221390,-173.2061005
5890,0.0383070,-0.1747758,9.9215212,-0.6030535,-0.2977099,0.2900763,-19.6131992,3.7133877,13.5175934,-92.6030502,123.3435135,0.8931298
5900,-0.0670373,-0.2154770,9.8856087,-0.6183206,-0.2748092,0.4885496,-19.6131992,0.4884146,16.0865593,-50.2519073,177.8778687,169.7404633
5910,0.0239419,-0.1604107,9.9550400,-0.8244275,-0.1984733,0.4122137,-19.6131992,-1.7286048,17.7529144,-1.9770992,214.2137451,250.1297760
5920,0.0095768,-0.1580165,9.9167328,-0.7480916,-0.1984733,0.4427481,-19.6131992,-3.0573800,18.9093075,46.8625946,205.0381622,250.1297760
5930,0.0550664,-0.1316804,9.9741936,-0.8625954,-0.0610687,0.2519084,-18.0593719,-3.5505829,19.3498383,92.0076370,169.0381622,250.1297760
5940,0.0335187,-0.1460456,9.8496952,-0.6870229,-0.0229008,0.3893130,-12.4785156,-3.2513094,18.6651001,131.9389343,118.1450348,250.1297760
5950,-0.0550664,-0.1867468,9.9263096,-0.8091603,-0.3206107,0.3740458,-8.5879574,-2.4612267,16.8838234,168.7709961,66.0305328,250.1297760
5960,-0.0239419,-0.1915352,9.8975792,-0.5954198,-0.1603053,0.2290076,-6.1626434,-1.2234308,14.2621870,201.3893127,21.4809170,250.1297760
5970,0.0359128,-0.1508339,9.8999729,-0.8091603,-0.2671756,0.2824427,-4.2760224,-0.0119709,10.6445665,227.3053436,-16.1984730,250.1297760
5980,-0.0407012,-0.2394189,9.9430685,-0.7022901,-0.0687023,0.4198473,-2.9664006,1.1947005,7.2256637,248.0610657,-41.9083977,238.9084015
5990,0.0574605,-0.1532281,9.9957409,-0.8091603,-0.1297710,0.4351145,-2.1236460,2.6407909,2.8179610,250.1297760,-51.2977104,233.5038147
6000,0.0311245,-0.1628049,9.9622221,-0.4809160,-0.2900763,0.2748092,-1.2784972,4.5609307,-0.7421987,250.1297760,-43.5114517,246.5725250
6010,0.0407012,-0.1795642,9.8544836,-0.5801527,0.0229008,0.3664122,0.9504932,6.1937680,-3.7038112,245.8931274,-29.7786255,250.1297760
6020,-0.0119709,-0.1628049,9.9454632,-0.6793893,-0.2137405,0.2824427,4.5489597,6.6989422,-7.2136927,236.9313049,-9.5114508,250.1297760
6030,-0.0023942,-0.1532281,9.8257532,-0.7480916,-0.1221374,0.3664122,8.8968077,6.9982157,-10.2902260,225.8625946,16.4198475,250.1297760
6040,0.0430954,-0.1221037,9.9358864,-0.7404580,-0.4809160,0.3435115,13.7234936,7.6230993,-12.6772327,205.3053436,26.2748089,250.1297760
6050,0.0526722,-0.1939293,9.9334917,-0.7633588,-0.2824427,0.3206107,19.6126022,8.1115141,-15.4113979,172.3435059,8.8320608,245.4503784
6060,0.0598547,-0.2226596,9.8281479,-0.8015267,-0.0152672,0.1221374,19.6126022,8.3844519,-18.2125988,124.8778610,-13.1908398,177.7251892
6070,0.0622489,-0.1628049,9.9526453,-0.4961832,-0.4580153,0.2061069,19.6126022,9.0644016,-19.6131992,54.4809151,-37.2137413,86.0000000
6080,0.0694315,-0.1532281,9.9310980,-0.5877863,0.0152672,0.3740458,19.6126022,9.6318245,-19.4527893,-34.2366409,-66.9465637,-12.9236641
6090,0.0047884,-0.1795642,9.8760319,-0.6717557,-0.2519084,0.3435115,19.6126022,9.6270361,-16.7545376,-121.5801544,-110.1526718,-103.3893127
6100,0.0407012,-0.1699875,9.9646168,-0.7633588,-0.3587786,0.1755725,19.6126022,8.7028790,-12.7394819,-188.1832123,-146.1832123,-176.7557220
6110,-0.0191535,-0.2226596,9.9885588,-0.6030535,-0.3053435,0.2519084,19.6126022,8.0061693,-8.5831690,-225.7633514,-157.7709961,-232.3511505
6120,-0.0119709,-0.1580165,9.8712435,-0.5190840,0.0152672,0.2442748,18.8111458,7.1777802,-5.4994531,-241.7786255,-144.4198456,-250.1374054
6130,0.0047884,-0.1675933,9.9526453,-0.7557252,0.0076336,0.4045801,15.7968616,6.3805151,-3.1603301,-243.7404633,-113.1679382,-250.1374054
6140,-0.0263361,-0.2130829,9.8329363,-0.5343512,0.0763359,0.3206107,11.8703909,5.2217274,-1.2306134,-236.2595367,-75.2977066,-250.1374054
6150,0.1292862,-0.1651991,9.8496952,-0.8931298,-0.0763359,0.1450382,7.9989872,4.3334827,0.2537841,-224.1908417,-48.4274826,-250.1374054
6160,0.0023942,-0.1843526,9.9310980,-0.8244275,-0.1603053,0.3893130,4.2640514,3.7181761,1.4006008,-213.4961853,-40.4809151,-250.1374054
6170,0.0718257,-0.1819584,9.9167328,-0.7633588,-0.1221374,0.0916031,0.8427547,3.2632802,2.3558824,-205.9847260,-47.6412201,-250.1374054
6180,0.0478838,-0.1795642,9.9789820,-0.6106870,-0.4427481,0.2977099,-3.1172347,2.5019281,2.8251436,-202.0152740,-57.4198456,-250.1374054
6190,-0.0622489,-0.1364688,9.9215212,-0.8320611,-0.0229008,0.4427481,-19.6131992,2.9759774,13.0507269,-152.8702240,168.2748108,-16.5114498
6200,0.0454896,-0.1532281,9.8760319,-0.7862595,-0.0229008,0.3893130,-19.6131992,1.7357874,15.7441902,-107.3435135,193.7480927,101.7862625
6210,0.0071826,-0.1675933,10.0005293,-0.9160305,-0.3053435,0.2900763,-19.6131992,0.5913648,16.8119984,-52.9694672,215.6183167,189.5114441
6220,0.0478838,-0.2082945,9.9694052,-0.6183206,0.0992366,0.3435115,-19.6131992,-0.0215477,17.3171730,3.4274809,218.5038147,241.9923706
6230,0.0191535,-0.1939293,9.8880024,-0.7251908,-0.2595420,0.1603053,-19.2349186,-0.5147507,17.2477417,54.3511467,205.1603088,250.1297760
6240,0.0646431,-0.1388630,9.9023676,-0.9236641,-0.2519084,0.1908397,-16.4504757,0.3878587,16.9005833,101.5190811,172.3969421,250.1297760
6250,0.0478838,-0.1149211,9.9215212,-0.7404580,-0.2671756,0.3511450,-14.6979294,0.7613522,15.1671906,140.8320618,123.5725174,250.1297760
6260,0.0502780,-0.1843526,9.8927908,-0.6946565,-0.2977099,0.4809160,-12.0355902,1.4365137,12.4019012,165.7709961,67.9312973,249.8244324
6270,0.0119709,-0.1628049,9.9598284,-0.5877863,-0.5038168,0.3664122,-9.5959110,2.4779861,9.5599985,176.9160309,18.0458012,236.1068726
6280,0.0430954,-0.1412572,9.9406748,-0.5648855,-0.1145038,0.2900763,-7.7595682,3.8785870,6.9407554,177.6259613,-24.8625946,230.5038147
6290,0.0359128,-0.1604107,9.9215212,-0.6335878,-0.1221374,0.2977099,-5.6431046,5.2720051,3.7493007,169.3511505,-56.8244286,236.7328186
6300,0.0694315,-0.2154770,9.9622221,-0.7938932,0.0381679,0.2595420,-3.4572096,5.7963328,1.6136837,161.4427490,-62.8396950,250.1297760
6310,0.0215477,-0.2082945,9.8880024,-0.6717557,-0.1679389,0.2977099,-1.2042773,6.9383612,-0.2059003,159.8625946,-52.3893127,250.1297760
6320,0.0071826,-0.1436514,10.0077124,-0.9160305,-0.3435115,0.3358779,1.5945302,7.1442614,-2.5019281,165.7862549,-25.0458012,250.1297760
6330,0.1101327,-0.1771700,9.8951855,-0.7480916,0.0610687,0.3664122,5.1953912,6.7659793,-5.6766233,173.1374054,33.9771004,250.1297760
6340,0.0000000,-0.1604107,9.7635050,-0.5038168,-0.2900763,0.3893130,9.1458035,6.4643116,-9.0787668,170.1679382,100.4351120,250.1297760
6350,-0.0095768,-0.1364688,9.9646168,-0.7404580,-0.0381679,0.2671756,12.6987810,6.4954362,-11.7865944,143.1450348,137.1374054,250.1297760
6360,0.0622489,-0.1963235,9.8736372,-0.8778626,-0.2366412,0.2671756,15.7609491,6.9694853,-13.4146433,87.1221390,129.7099304,250.1297760
6370,0.0215477,-0.1029501,9.8688488,-0.5954198,-0.1450382,0.2137405,18.0282459,6.9742737,-13.5247765,22.8244267,82.3664093,250.1297760
6380,0.0622489,-0.2130829,9.9167328,-0.8473282,-0.1068702,0.3587786,19.6126022,6.1099715,-11.8081427,-30.7938938,10.8702288,240.7404633
6390,0.0143651,-0.2178712,9.9071560,-0.8778626,-0.0534351,0.3435115,19.6126022,5.4084740,-10.3021975,-71.4122162,-65.1145020,181.1755676
6400,0.0215477,-0.2082945,9.9215212,-0.7175573,-0.1297710,0.3129771,19.6126022,5.1642666,-9.0260944,-103.8244247,-114.8091583,120.2748108
6410,0.0622489,-0.1508339,9.9454632,-0.5725191,-0.3511450,0.2213740,19.6126022,5.2959471,-8.2815018,-133.9847260,-119.3511429,61.7404594
6420,-0.0119709,-0.1675933,9.8760319,-0.8473282,0.1908397,0.3053435,19.6126022,5.9184365,-6.7157016,-163.5190887,-91.0916061,1.5954199
6430,0.0143651,-0.2202654,9.9263096,-0.6717557,-0.3053435,0.3587786,19.6126022,5.3534074,-4.2568688,-182.4122162,-61.7633591,-61.2519073
6440,-0.0071826,-0.2035061,9.8951855,-0.7862595,0.1603053,0.3740458,19.6126022,5.2696109,-1.5610116,-190.8931274,-54.9083977,-89.0610657
6450,0.0694315,-0.1053443,9.8281479,-0.6412213,-0.1374046,0.4122137,19.6126022,5.6933827,0.5746055,-182.6641235,-28.5954189,-128.0763397
6460,0.0646431,-0.1508339,9.9167328,-0.7862595,0.2137405,0.4274809,17.8965664,5.1331420,2.1332228,-164.4045868,-4.0076337,-163.3206177
6470,0.0287303,-0.1939293,9.9430685,-0.6870229,-0.3053435,0.5267175,16.3427372,4.8434453,3.3375001,-139.9694672,22.0381680,-196.1755676
6480,0.0311245,-0.1580165,10.0029240,-0.6335878,0.0763359,0.3129771,14.3986549,4.7285242,3.8426740,-114.4427490,48.5496178,-226.5648804
6490,0.0694315,-0.1101327,9.9310980,-0.7099237,-0.2519084,0.4427481,12.4641504,3.9360476,3.7445123,-94.1755753,69.9923630,-250.1374054
6500,0.0000000,-0.1819584,9.8520899,-0.5496183,-0.1984733,0.3129771,10.2758608,3.4380560,3.4212968,-79.1374054,80.2595444,-250.1374054
6510,0.0742199,-0.1412572,9.9047613,-0.7709923,0.1068702,0.4122137,7.5800037,2.9280937,3.2489152,-68.9618301,79.1603088,-250.1374054
6520,0.0430954,-0.1580165,9.8520899,-0.6412213,0.1526718,0.4351145,5.0134325,2.4420733,3.2728570,-62.2137413,63.3435097,-250.1374054
6530,0.0047884,-0.1125269,9.8688488,-0.7328244,-0.1221374,0.5038168,2.0781565,1.7956421,3.0166788,-60.6946564,39.0687027,-250.1374054
6540,0.0047884,-0.1795642,9.9358864,-0.5954198,0.1068702,0.3435115,-1.2593436,1.6879035,2.7916248,-65.9389343,12.0381680,-250.1374054
6550,0.0383070,-0.1580165,9.8712435,-0.6870229,0.0610687,0.4274809,-5.3749552,2.0590029,3.0023136,-74.4351120,-13.0839691,-250.1374054
6560,0.0047884,-0.1580165,9.9143381,-0.8702290,-0.1679389,0.2977099,-10.1657286,2.8826041,3.7588775,-80.8167953,-22.2824421,-250.1374054
6570,0.0047884,-0.1867468,9.8856087,-0.8778626,-0.0076336,0.0839695,-16.5677910,4.0437860,4.8051381,-79.4045792,4.2977099,-250.1374054
6580,-0.0478838,-0.2082945,9.9119444,-0.7786260,-0.1526718,0.5419847,-19.6131992,5.2672167,5.8274570,-67.8396912,63.5419846,-182.4198456
6590,0.0790083,-0.1436514,9.9574337,-0.4351145,-0.1984733,0.1679389,-19.6131992,5.3294659,7.0269461,-47.3435097,110.9007645,-72.8091583
6600,-0.0167593,-0.1556223,9.9191265,-0.6030535,-0.3129771,0.2977099,-19.6131992,6.3469963,8.4538832,-19.5572510,133.5877838,22.4732819
6610,-0.0359128,-0.2059003,9.9933472,-0.6870229,-0.1603053,0.4656489,-19.6131992,5.7771792,9.3804340,8.6564884,128.3282471,87.6717529
6620,-0.0143651,-0.1963235,9.8281479,-0.5114504,-0.2213740,0.4122137,-19.6131992,5.0014620,9.9574337,28.9160309,108.8396912,124.5038147
6630,0.0526722,-0.1628049,9.9454632,-0.6717557,-0.1755725,0.4122137,-18.6914368,5.0708933,10.5607700,41.2442741,74.8549652,147.1297760
6640,0.0311245,-0.2250538,9.8760319,-0.7175573,-0.0229008,0.4656489,-16.6491928,4.8769641,10.8935623,50.7938919,34.4503822,162.9007568
6650,0.0526722,-0.1292862,9.9215212,-0.6870229,-0.3511450,0.4122137,-14.6931410,4.6447277,10.9055328,63.1221390,-5.3053436,173.8320618
6660,0.0071826,-0.2106887,9.9598284,-0.6946565,-0.2366412,0.4503817,-12.6269550,4.2329268,10.2854376,80.1221390,-35.7099228,181.7251892
6670,0.0670373,-0.1819584,9.9215212,-0.6564885,-0.2519084,0.1450382,-10.6828737,3.7157819,9.0069408,98.7404556,-58.8244286,189.4122162
6680,0.0023942,-0.1364688,9.9215212,-0.7022901,-0.3358779,0.3511450,-8.8010406,3.6248028,7.5823979,117.0610657,-75.9542007,196.2748108
6690,-0.0023942,-0.1125269,9.8832140,-0.7480916,-0.0610687,0.1068702,-7.1370788,3.5481887,6.1123657,132.3587799,-91.4809189,202.4198456
6700,0.0143651,-0.1412572,9.9382801,-0.7328244,-0.1908397,0.4351145,-5.6550756,3.4045374,4.6543045,145.5267181,-100.2519073,211.2137451
6710,0.0502780,-0.1412572,9.8975792,-0.7786260,-0.0916031,0.4045801,-4.3909435,4.0222383,3.3015873,157.0152740,-100.7938919,226.6946564
6720,-0.0143651,-0.1484398,9.9143381,-0.8091603,0.0305344,0.4274809,-2.9352763,4.0916696,1.7980363,168.0305328,-98.5419846,246.9618378
6730,0.0239419,-0.1819584,10.0053177,-0.8854962,-0.1145038,0.2748092,-1.0725969,4.2257442,-0.1388630,180.4809113,-92.6946564,250.1297760
6740,0.0526722,-0.1628049,9.9406748,-0.7786260,-0.0916031,0.3816794,1.2306134,3.9384418,-2.9855542,188.7099304,-75.0457993,250.1297760
6750,0.0909792,-0.1029501,9.9334917,-0.7633588,-0.0992366,0.1450382,4.0868812,3.6870518,-6.0333576,186.8244324,-43.1297722,250.1297760
6760,0.0502780,-0.1843526,9.9430685,-0.7328244,-0.2137405,0.2671756,6.9766679,3.2728570,-8.8321648,171.3053436,-14.2824430,250.1297760
6770,0.0047884,-0.1963235,9.9694052,-0.7480916,-0.1908397,0.3358779,9.1362267,3.5529771,-10.2806492,143.4045868,1.7862595,250.1297760
6780,0.0526722,-0.2059003,9.9023676,-0.8015267,-0.0839695,0.3435115,10.9701757,3.8474624,-11.5304165,105.7709961,-19.5954189,250.1297760
6790,0.0430954,-0.1340746,9.9095497,-0.7328244,-0.2519084,0.5419847,12.6939926,3.8402798,-12.8089132,60.0228996,-81.3587799,250.1297760
6800,-0.0047884,-0.1891410,9.8760319,-0.6793893,-0.3129771,0.2213740,16.1679611,4.9056940,-13.3428183,12.5648851,-131.0992432,250.1297760
6810,-0.0598547,-0.1915352,9.9287033,-0.7251908,-0.0610687,0.3587786,7.2280579,2.0973101,-1.6567791,-124.7938919,124.2137375,-250.1374054
6820,0.0383070,-0.1268920,9.9861641,-0.7404580,0.0000000,0.2595420,5.1858144,1.6376256,-1.6543850,-127.4961853,114.3206100,-250.1374054
6830,0.0047884,-0.2059003,9.8401184,-0.8320611,-0.1679389,0.4732825,3.3375001,1.3694763,-1.5849534,-135.9694672,94.0229034,-250.1374054
6840,0.0430954,-0.1723816,9.8951855,-0.8778626,-0.0687023,0.2595420,1.1132981,1.2497669,-0.8619082,-148.2519073,66.3816757,-250.1374054
6850,0.0215477,-0.1987177,9.9047613,-0.8625954,-0.0763359,0.4045801,-0.3184272,1.0606259,0.4668669,-160.1297760,37.2213745,-250.1374054
6860,0.0622489,-0.1699875,9.9023676,-0.9083970,-0.1297710,0.3893130,-2.2601149,0.6655847,2.0230901,-166.8244324,29.4274807,-250.1374054
6870,0.0550664,-0.1364688,9.9382801,-0.7251908,-0.1832061,0.4045801,-5.5210009,0.5458752,4.2281384,-164.5038147,51.0839691,-250.1374054
6880,0.0646431,-0.1675933,9.8377247,-0.6641222,-0.2290076,0.3587786,-9.5935173,1.2641320,7.0580707,-147.7251892,88.9465637,-250.1374054
6890,0.0550664,-0.1699875,9.9095497,-0.7175573,-0.1679389,0.1297710,-13.5966015,1.8961980,9.4283180,-116.6030502,115.7328262,-250.1374054
6900,0.0143651,-0.1963235,10.0101061,-0.6641222,-0.0458015,0.4045801,-16.6444054,2.5234756,10.0867205,-78.6870193,119.9465637,-218.9160309
6910,0.0694315,-0.1651991,9.8449068,-0.6717557,-0.1603053,0.2977099,-19.4599724,3.1746953,9.8880024,-38.3511467,111.5725174,-156.8396912
6920,-0.0239419,-0.1819584,9.8664551,-0.9694657,-0.1145038,0.3969466,-19.6131992,3.7157819,8.7818871,-6.0000000,113.4961853,-93.7480927
6930,0.0383070,-0.1197095,9.9287033,-0.7175573,-0.2748092,0.2900763,-19.6131992,3.7277529,7.9104018,8.6335878,136.6793823,-27.6564884
6940,0.0622489,-0.1053443,9.9789820,-0.7328244,-0.2366412,0.3358779,-19.6131992,4.0581512,8.2479830,9.5954199,155.0839691,41.3129768
6950,0.0287303,-0.2226596,9.8760319,-0.7709923,-0.1374046,0.3816794,-19.6131992,4.2329268,9.9263096,6.2137403,134.2290039,101.5801544
6960,0.0407012,-0.1891410,9.9167328,-0.5190840,-0.0458015,0.2900763,-19.6131992,4.0054789,11.3508520,7.3435116,88.7099228,145.6641235
6970,0.1149211,-0.2035061,9.9574337,-0.7022901,-0.1679389,0.3893130,-19.6131992,3.8570392,13.0459385,17.2595425,39.6412201,181.3282471
6980,0.0023942,-0.1484398,9.8927908,-0.8320611,-0.0992366,0.4427481,-19.6131992,3.5745249,14.2717638,40.3893127,1.8702290,213.1908417
6990,0.0095768,-0.1173153,9.8449068,-0.8473282,-0.2137405,0.4427481,-17.5901108,3.2704628,14.4632988,76.6030502,-20.1984730,239.8549652
7000,0.0047884,-0.1340746,9.9095497,-0.8015267,-0.0458015,0.2900763,-14.4656925,3.0645626,13.4649220,119.8167953,-33.8625946,250.1297760
7010,0.0191535,-0.1604107,9.9885588,-0.8778626,0.1526718,0.2748092,-11.2886028,2.7652888,11.3053627,159.9847260,-45.3129768,250.1297760
7020,0.0359128,-0.1436514,9.9430685,-0.7328244,0.0381679,0.2824427,-8.1474266,2.5976956,8.6717539,189.8244324,-55.2213745,250.1297760
7030,0.0191535,-0.1843526,9.9957409,-0.8625954,-0.1450382,0.3587786,-5.1834202,2.7652888,5.4108682,208.0992432,-58.7862587,250.1297760
7040,0.0478838,-0.1508339,9.9765873,-0.5877863,-0.2137405,0.5419847,-2.5091105,3.0861101,2.1475880,214.4885559,-53.7709923,250.1297760
7050,0.0095768,-0.1699875,9.9406748,-0.6564885,-0.2519084,0.4809160,-0.4812321,3.1435707,-0.9768293,207.5038147,-42.0000000,250.1297760
7060,0.0239419,-0.1963235,9.9215212,-0.6564885,-0.0839695,0.1603053,1.5083394,2.9640064,-3.2058196,193.0763397,-31.4503822,250.1297760
7070,0.0287303,-0.1651991,9.8856087,-0.9389313,-0.0152672,0.2137405,3.6487448,2.6120608,-5.0493455,176.4427490,-30.8702297,250.1297760
7080,0.0095768,-0.1412572,9.8281479,-0.6183206,0.0076336,0.2977099,6.5169835,2.3726418,-6.8018923,156.3511505,-35.3435097,250.1297760
7090,0.0191535,-0.1987177,9.8473015,-0.5877863,-0.1221374,0.3664122,9.1769285,2.3989778,-8.3772688,131.2748108,-27.6717548,250.1297760
7100,0.0000000,-0.1340746,9.9215212,-0.8091603,-0.2137405,0.2748092,11.2718439,2.4731977,-9.2391768,103.2977066,-15.7633591,250.1297760
7110,-0.0287303,-0.1580165,9.8425131,-0.8091603,0.0305344,0.3206107,13.8575687,2.3822186,-9.6533718,76.7099228,-24.3664131,250.1297760
7120,0.0574605,-0.1795642,9.8760319,-0.6717557,-0.3587786,0.2977099,16.7353840,2.1691356,-10.4865494,46.8778610,-46.5190849,250.1297760
7130,0.0430954,-0.1795642,9.8880024,-0.6488550,-0.2824427,0.4732825,19.6126022,2.4061604,-11.0779142,11.5267172,-73.4503784,240.9770966
7140,0.0335187,-0.1963235,9.8640604,-0.7404580,-0.2137405,0.2671756,19.6126022,2.9664006,-11.0060892,-24.2442741,-101.3358765,197.0686951
7150,0.0718257,-0.2154770,9.9478569,-0.5801527,-0.2977099,0.5038168,19.6126022,3.5026991,-10.2279778,-54.5343513,-122.2671738,145.4122162
7160,0.1101327,-0.2059003,9.9478569,-0.8549618,-0.0076336,0.3664122,19.6126022,4.1323709,-9.2032642,-72.7862625,-128.0610657,90.8854980
7170,-0.0047884,-0.1316804,9.8975792,-0.6717557,-0.0458015,0.4045801,19.6126022,4.7931671,-8.4059992,-83.2290039,-114.5877838,34.1679382
7180,0.0598547,-0.1675933,9.9550400,-0.7099237,-0.1297710,0.4809160,19.6126022,5.3558016,-7.2496057,-88.2137375,-82.8473282,-22.7709923
7190,-0.0095768,-0.1675933,9.9119444,-0.8167939,-0.0534351,0.2900763,19.6126022,5.4994531,-6.2871413,-89.1145020,-44.8167953,-77.7633591
7200,0.0000000,-0.2035061,9.9622221,-0.7709923,-0.0687023,0.1603053,19.6126022,5.6143742,-5.2289100,-87.9083939,-5.8473282,-128.5038147
7210,-0.0335187,-0.1436514,9.7970228,-0.6183206,-0.2748092,0.4809160,19.6126022,5.5305777,-4.1299767,-84.5114517,23.5343513,-171.1068726
7220,0.0502780,-0.1244979,9.9119444,-0.6946565,-0.1297710,0.3969466,19.6084118,5.4755111,-3.0166788,-79.7862625,46.1145020,-208.0763397
7230,0.0622489,-0.1268920,9.9263096,-0.7251908,-0.2671756,0.1603053,17.2118282,5.0613165,-2.3654592,-73.5725174,64.9618301,-241.0381622
7240,-0.0814024,-0.1843526,9.9837704,-0.7328244,-0.2671756,0.3206107,14.9708662,4.6519103,-1.9536586,-67.0152664,79.6183243,-250.1374054
7250,0.0383070,-0.1532281,9.9287033,-1.0839695,-0.2061069,0.3282443,12.8065195,4.2472920,-1.5969244,-62.0381660,82.5496216,-250.1374054
7260,0.0143651,-0.2322364,9.8999729,-0.6412213,-0.0152672,0.2366412,10.5775290,3.8737986,-1.1947005,-60.6412201,73.7099228,-250.1374054
7270,-0.0933734,-0.2561783,9.9670105,-0.8396947,-0.0687023,0.3587786,8.3509331,3.2441268,-1.0702027,-62.2824440,60.3358765,-250.1374054
7280,-0.0478838,-0.2059003,9.8784256,-0.7328244,-0.2595420,0.3587786,6.2153158,2.6910689,-1.0678085,-66.3511429,44.8396950,-250.1374054
7290,0.0646431,-0.2035061,9.8808203,-0.6106870,-0.1145038,0.4198473,3.9336534,2.2098370,-1.0223188,-71.1526718,27.9541988,-250.1374054
7300,0.0215477,-0.1604107,9.8951855,-0.7709923,-0.1374046,0.2290076,1.3814473,1.9440818,-1.5107336,-78.2519073,5.3740458,-250.1374054
7310,-0.0718257,-0.1364688,9.9119444,-0.7328244,-0.2213740,0.2595420,-0.7589580,1.7405758,-1.9081690,-91.4885483,-23.0076332,-250.1374054
7320,0.0047884,-0.1316804,9.9382801,-0.8091603,-0.0763359,0.4961832,-15.1384602,3.2417326,12.4856977,98.6717529,34.5267181,156.5267181
7330,0.0335187,-0.1244979,9.8927908,-0.6335878,-0.1832061,0.4198473,-13.5271702,3.4572096,11.1425581,108.1068726,6.8091602,164.7709961
7340,-0.0071826,-0.1867468,9.9167328,-0.6183206,-0.0152672,0.2595420,-11.9158812,3.5242469,10.0436249,115.6259537,-20.0152664,172.3206177
7350,0.0359128,-0.1436514,9.9478569,-0.7251908,-0.2290076,0.4656489,-10.2303715,3.6750808,8.8848372,125.2290039,-39.5343513,179.5114441
7360,-0.0239419,-0.1436514,9.9574337,-0.7251908,-0.0916031,0.4045801,-8.6885138,3.7660601,8.0325060,140.2061005,-49.9389305,187.8854980
7370,0.0167593,-0.1843526,9.9287033,-0.8015267,-0.0839695,0.4885496,-7.0820122,4.0461802,7.0604649,158.5267181,-54.9923668,196.9847260
7380,0.0311245,-0.1891410,9.9143381,-0.4503817,-0.2442748,0.4045801,-5.6670465,4.2209558,5.4204450,177.9389343,-53.8702278,205.4427490
7390,0.0861908,-0.1556223,9.8688488,-0.6641222,-0.0916031,0.2595420,-4.2975702,4.6303625,3.7181761,195.8396912,-47.3053436,216.2366486
7400,0.0311245,-0.1747758,9.8544836,-0.7786260,-0.1145038,0.5038168,-2.8227494,4.8362627,1.5562232,210.7328186,-39.2366409,226.8320618
7410,0.0502780,-0.1651991,9.8951855,-0.8320611,-0.2061069,0.2519084,-1.3934183,4.8913293,-0.7086801,218.3816833,-27.3816795,238.5114441
7420,0.0311245,-0.1891410,9.8903971,-0.4961832,-0.2442748,0.5114504,0.3519458,5.0900469,-3.1794837,216.4198456,-12.1832066,247.5801544
7430,0.0383070,-0.2226596,9.9646168,-0.4274809,-0.3435115,0.3053435,2.0781565,5.1235652,-5.5473371,201.5343475,-2.3129771,250.1297760
7440,-0.0359128,-0.2035061,9.9287033,-0.9847328,0.0152672,0.4656489,3.4931223,5.2815819,-6.9335728,174.7099304,-0.4198473,248.6259613
7450,0.0454896,-0.1675933,9.8832140,-0.5954198,-0.4045801,0.3282443,4.8554163,5.9304070,-7.8553357,141.1832123,-13.6183205,237.9313049
7460,0.0598547,-0.1412572,9.8496952,-0.5114504,-0.0076336,0.3129771,5.5664907,6.1674318,-8.1689749,106.7786255,-45.1679382,225.1068726
7470,0.0263361,-0.1795642,9.9358864,-0.8244275,0.0076336,0.2519084,6.7396431,6.4834652,-8.2527714,76.1221390,-79.8625946,209.9694672
7480,-0.0550664,-0.1628049,9.8520899,-0.6030535,-0.1832061,0.3664122,8.3365679,6.6678176,-8.4945841,50.5419846,-106.7786255,192.4961853
7490,-0.0311245,-0.1388630,9.8760319,-1.0381680,-0.1450382,0.2900763,10.2591019,6.8042865,-8.6382351,30.6259537,-115.4809189,171.9465637
7500,0.0191535,-0.1412572,9.9478569,-0.5801527,-0.0534351,0.4427481,12.2151546,7.1179252,-8.6765423,17.2137413,-106.2442780,149.8091583
7510,0.0574605,-0.1819584,9.9047613,-0.7862595,-0.2824427,0.3969466,13.4721041,7.6063399,-8.6549950,11.4961834,-83.8854980,129.5801544
7520,0.0215477,-0.2346306,9.8568783,-0.6183206,-0.0687023,0.2977099,14.7458124,8.4850073,-9.2296000,9.6488552,-55.2442741,111.9542007
7530,0.0454896,-0.1149211,9.9502516,-0.6412213,-0.1908397,0.3664122,15.8615055,8.7100611,-9.5863342,7.2671757,-29.3969460,96.6793900
7540,0.0119709,-0.0861908,9.8568783,-0.7862595,-0.3587786,0.2442748,16.7617207,8.9662399,-10.4147243,-0.2977099,-15.4885492,77.5267181
7550,-0.0239419,-0.1651991,9.9550400,-0.7175573,-0.0916031,0.3893130,17.7265778,8.5975342,-11.3412752,-17.2213745,-15.4122133,56.5343513
7560,-0.0359128,-0.1388630,9.9789820,-0.7175573,-0.0916031,0.2595420,18.5525742,8.1282730,-11.4561968,-42.8473282,-20.6641216,32.4656487
7570,0.0550664,-0.1436514,9.8377247,-0.7633588,-0.0534351,0.3587786,18.7680511,7.9798336,-10.7163916,-70.0076370,-27.4427490,4.8549619
7580,0.0383070,-0.2394189,9.8832140,-0.5114504,-0.1526718,0.3129771,18.6818600,7.6374645,-9.4235296,-91.1832047,-30.6564884,-24.2061062
7590,0.0742199,-0.1580165,9.8377247,-0.6641222,-0.2900763,0.4656489,18.4496231,7.2591825,-8.0277176,-103.0839691,-17.7938938,-52.3587799
7600,-0.0311245,-0.1604107,9.8377247,-0.8015267,-0.0458015,0.1832061,17.6284161,7.0460997,-6.7492199,-107.0763321,4.4809160,-80.4809189
7610,0.0000000,-0.1580165,9.9454632,-0.4885496,0.0763359,0.2748092,16.2733059,6.8952656,-5.6502872,-106.2671738,29.2366409,-107.1145020
7620,-0.0047884,-0.1412572,9.9167328,-0.6717557,-0.0305344,0.3206107,15.2366219,6.7707677,-4.9344244,-103.4427490,45.2366409,-133.0763397
7630,0.0335187,-0.2346306,9.9526453,-0.7938932,-0.0916031,0.3435115,13.8599625,6.3853035,-4.4627690,-100.5648880,60.3282433,-158.9084015
7640,-0.0454896,-0.1197095,9.8425131,-0.7480916,-0.1832061,0.3358779,12.1744537,6.2751703,-3.8881636,-98.2900772,73.5267181,-181.0839691
7650,0.0598547,-0.1580165,9.8401184,-0.8167939,-0.1526718,0.3053435,10.9558105,6.1075773,-3.4021432,-95.7480927,84.9542007,-201.0610657
7660,0.0383070,-0.1388630,9.9717989,-1.0305344,-0.0839695,0.2671756,9.4570484,5.9974446,-3.0908985,-92.8702316,94.6641235,-219.4809113
7670,0.0311245,-0.2130829,9.9358864,-0.7251908,-0.0687023,0.3664122,7.9702568,5.8681583,-2.9017577,-89.6641235,100.5038147,-234.7938995
7680,-0.0095768,-0.1005560,9.9239149,-0.6183206,-0.0458015,0.5114504,6.7037306,5.7077475,-2.8395088,-88.0916061,100.5419846,-248.3511505
7690,0.1101327,-0.1556223,9.8520899,-0.7709923,-0.0534351,0.3053435,5.2313042,5.4731169,-2.5522060,-89.2671738,95.6870193,-250.1374054
7700,0.0646431,-0.1532281,9.8688488,-0.6564885,-0.0992366,0.3282443,3.7445123,5.4180508,-2.4468615,-91.7862625,87.4427490,-250.1374054
7710,-0.0239419,-0.1484398,9.9981356,-0.5954198,-0.2290076,0.4274809,2.0470319,4.9942794,-2.3319404,-97.0763321,70.0229034,-250.1374054
7720,-0.0095768,-0.1723816,9.9789820,-0.7404580,0.1297710,0.3435115,0.7158626,4.5729017,-2.0326669,-106.1984711,38.8015251,-250.1374054
7730,-0.0191535,-0.2777260,9.9717989,-0.6335878,-0.3053435,0.3053435,-0.8619082,4.2305326,-1.8028246,-119.6106873,-0.2671756,-250.1374054
7740,0.1029501,-0.1316804,9.9526453,-0.6717557,-0.1526718,0.3053435,-3.1507533,3.7085996,-1.5298871,-137.9694672,-35.1374054,-250.1374054
7750,0.0574605,-0.1101327,9.8951855,-0.5419847,-0.3206107,0.2977099,-5.7101417,3.1363883,-0.9193687,-158.9007568,-52.9083977,-250.1374054
7760,0.0478838,-0.1819584,9.9717989,-0.5877863,-0.2290076,0.2595420,-9.1098909,2.7389526,0.5865764,-177.4809113,-53.8778610,-250.1374054
7770,0.0311245,-0.1604107,9.9287033,-0.6793893,-0.1297710,0.2900763,-12.7706070,2.2768741,2.8514795,-188.0000000,-38.2290077,-250.1374054
7780,0.0071826,-0.1747758,10.0220766,-0.7175573,-0.1450382,0.4732825,-18.6196117,1.8770446,5.8873119,-190.4732819,0.9847328,-235.4580078
7790,0.0143651,-0.1340746,9.9095497,-0.6793893,-0.2671756,0.3053435,-19.6131992,1.5993185,9.3995876,-184.1832123,48.6641235,-153.2442780
7800,0.1316804,-0.1843526,9.8856087,-1.0229008,-0.1068702,0.3129771,-19.6131992,3.0071020,13.3691540,-159.8473358,74.0000000,-52.2442741
7810,-0.0167593,-0.1987177,9.9119444,-0.7786260,-0.1603053,0.4580153,-19.6131992,2.2649033,16.3978043,-113.7175598,72.7251892,44.5190849
7820,0.0263361,-0.1651991,9.8880024,-0.5267175,-0.2213740,0.5343512,-19.6131992,1.2377959,17.6260223,-50.6030540,60.3129768,121.5114517
7830,0.0837966,-0.1963235,9.9622221,-0.7633588,-0.3435115,0.1908397,-19.6131992,0.5746055,16.6060982,13.0381680,61.3282433,171.4351196
7840,-0.0167593,-0.1747758,9.8760319,-0.6412213,-0.1984733,0.3435115,-17.7672806,0.8116302,15.4712524,67.0916061,60.9618340,202.5343475
7850,-0.0047884,-0.1891410,9.8784256,-0.6946565,-0.3893130,0.4809160,-15.1169119,1.5801650,13.2925396,107.7480927,47.1984749,220.2824402
7860,0.0502780,-0.1771700,10.0005293,-0.6564885,-0.0381679,0.2824427,-12.4090843,2.1739240,10.5895004,135.1603088,21.4274807,224.9618378
7870,0.0454896,-0.1173153,9.8975792,-0.6259542,0.1221374,0.3358779,-10.1106625,2.9927368,7.2879128,149.0458069,-2.7709923,226.1145020
7880,-0.0598547,-0.0933734,9.8185711,-0.6488550,-0.0534351,0.5572519,-8.0277176,3.9863255,4.0318151,150.6717529,-6.9847326,231.1603088
7890,0.0646431,-0.2298422,9.8999729,-0.7328244,-0.3740458,0.3358779,-6.4691000,4.9200592,1.0773853,140.0381622,1.1526718,242.2061005
7900,0.0047884,-0.1795642,9.8903971,-0.8931298,-0.1603053,0.3358779,-5.0469513,5.5521255,-1.3622938,117.5572510,5.8015265,250.1297760
7910,-0.0119709,-0.1675933,9.9622221,-0.6641222,-0.5267175,0.3969466,-3.9216824,6.1817970,-2.3079987,90.9007645,1.4427481,250.1297760
7920,-0.0311245,-0.1484398,9.8185711,-0.7022901,-0.1603053,0.2061069,-2.9879484,6.7252784,-2.0183017,72.2213745,-17.6564884,250.1297760
7930,0.0454896,-0.1628049,9.9095497,-0.7557252,-0.2671756,0.4274809,-0.7589580,6.5361371,-2.0446377,64.0687027,-34.3587799,250.1297760
7940,-0.0071826,-0.1388630,9.8401184,-0.7709923,-0.0763359,0.1908397,1.4436963,6.3086891,-2.2792683,61.4732819,-34.1832047,250.1297760
7950,-0.0191535,-0.1699875,9.9334917,-0.6183206,-0.2671756,0.3511450,3.8163381,6.2608056,-2.7221935,60.5343513,-26.9083977,250.1297760
7960,-0.0095768,-0.1149211,9.8951855,-0.6412213,-0.0381679,0.2595420,6.1003947,5.9399838,-2.9304879,59.5725174,-16.2748089,250.1297760
7970,-0.0239419,-0.2394189,9.9119444,-0.4198473,-0.3129771,0.3969466,8.5831690,5.8897061,-3.4332676,56.6106873,-8.3969469,250.1297760
7980,0.0287303,-0.1675933,9.9071560,-0.8091603,-0.1755725,0.4045801,10.5631638,5.8466105,-4.1443419,48.4809151,-10.1908398,250.1297760
7990,0.0023942,-0.1508339,9.9023676,-0.8931298,0.0305344,0.3053435,12.7346935,5.6622581,-4.8362627,36.2671738,-15.6259546,250.1297760
8000,0.0047884,-0.1891410,9.8951855,-0.5801527,-0.1755725,0.4274809,14.8439751,5.5856438,-5.3390427,19.5496178,-17.7175579,250.1297760
8010,0.0335187,-0.1268920,9.9310980,-0.7404580,-0.1374046,0.2671756,16.4528694,5.6095858,-5.4060798,2.0610688,-22.2137413,231.8396912
8020,-0.0263361,-0.1173153,9.8473015,-0.6106870,-0.0916031,0.4274809,18.0090923,5.7005649,-5.6550756,-17.9541988,-36.9007645,198.7328186
8030,0.0766141,-0.1795642,9.9119444,-0.8702290,-0.0763359,0.3435115,19.5150375,5.6431046,-4.9918852,-38.7099228,-48.6564903,162.5496216
8040,-0.0095768,-0.1628049,9.8712435,-0.5343512,-0.1221374,0.3053435,19.6126022,5.7460546,-3.7756367,-53.9236641,-49.7938919,121.4045792
8050,0.0383070,-0.1915352,9.9143381,-0.4122137,-0.2061069,0.3358779,19.6126022,5.7340837,-2.7485294,-61.8702278,-43.0000000,78.2748108
8060,-0.0167593,-0.1292862,9.8592720,-0.6106870,0.0152672,0.3358779,19.6126022,5.8418221,-1.6663558,-65.0916061,-28.5877857,32.9923668
8070,0.0407012,-0.1244979,9.7730818,-0.8244275,0.0152672,0.2290076,19.6126022,5.9519548,-0.6727672,-64.7557220,-11.9847326,-15.1603050
8080,0.0335187,-0.1340746,9.8712435,-0.7709923,-0.6183206,0.3282443,19.6126022,5.9375896,0.2011119,-61.5954208,7.8244276,-63.0687027
8090,-0.0622489,-0.1412572,9.9885588,-0.6793893,0.0534351,0.3664122,19.6126022,5.5425487,1.0869620,-55.6335869,32.9389305,-106.5038147
8100,-0.0095768,-0.2059003,9.9047613,-0.7099237,-0.0992366,0.4274809,19.1846409,5.3581958,1.9488702,-48.3969460,50.7022896,-144.0381622
8110,0.0095768,-0.1412572,9.9287033,-0.6106870,-0.0152672,0.2061069,17.9133263,4.5010762,2.7557120,-36.3816795,64.5343475,-179.3664093
8120,0.0119709,-0.1771700,9.9119444,-0.7480916,-0.2137405,0.3969466,16.2230282,4.1275826,3.0621684,-17.4580154,83.1755753,-214.3435059
8130,0.0095768,-0.2202654,9.9095497,-0.8167939,0.0152672,0.2824427,14.9565020,3.3805954,2.6503677,6.1603055,109.3053436,-245.8473358
8140,0.0047884,-0.1412572,9.8808203,-0.5877863,0.0458015,0.2061069,12.9238348,3.0406206,1.6208663,33.5725174,135.1603088,-250.1374054
8150,0.0287303,-0.1053443,9.9861641,-0.5725191,-0.0458015,0.4045801,10.3835993,2.9831600,-0.1651991,58.2748108,134.7633514,-250.1374054
8160,0.0742199,-0.1771700,9.8880024,-0.7099237,-0.1679389,0.3435115,8.1115141,3.0765336,-3.0190730,64.3816757,113.6870193,-250.1374054
8170,0.0335187,-0.1340746,9.8616667,-0.6717557,-0.2213740,0.3282443,5.8059096,3.8426740,-6.5768385,42.3511467,76.5114517,-250.1374054
8180,0.0239419,-0.1723816,9.8664551,-0.6870229,-0.1374046,0.4427481,3.7445123,3.8474624,-8.8154058,-9.9160309,42.3587799,-250.1374054
8190,0.0000000,-0.1867468,9.9574337,-0.7022901,-0.1297710,0.2824427,1.7333932,3.6631098,-8.4131813,-75.9389343,3.7633588,-250.1374054
8200,-0.0191535,-0.1699875,9.8927908,-0.6030535,-0.1832061,0.3358779,0.0023942,2.7174051,-5.6263452,-132.5572510,-36.2213745,-250.1374054
8210,-0.0023942,-0.1963235,9.9047613,-0.7709923,0.0687023,0.3740458,-1.3168042,3.3255291,-1.1204807,-168.9236603,-50.8702278,-250.1374054
8220,0.0670373,-0.1580165,9.9143381,-0.6488550,-0.2366412,0.2900763,-3.3662305,1.2784972,2.1835008,-178.4503784,-41.6793900,-250.1374054
8230,0.0311245,-0.1125269,9.8832140,-0.5801527,-0.1374046,0.1832061,-4.7716198,1.5298871,5.3534074,-170.7480927,-38.7099228,-250.1374054
8240,0.0191535,-0.1723816,9.8999729,-0.7480916,-0.1145038,0.3587786,-5.6119800,1.0247130,7.4219875,-153.8778687,-38.9923668,-250.1374054
8250,0.0383070,-0.1436514,9.9239149,-0.8549618,-0.1984733,0.2900763,-6.5768385,0.2873027,8.7794924,-132.9770966,-48.5038185,-250.1374054
8260,0.0119709,-0.1604107,9.9263096,-0.8549618,-0.0763359,0.3587786,-10.4554253,0.2202654,9.2774839,-112.6106873,-55.0076332,-250.1374054
8270,0.0814024,-0.1795642,10.0268650,-0.5419847,-0.3282443,0.0458015,-16.3116131,0.5362985,9.1865053,-96.1679382,-37.3282433,-250.1374054
8280,0.0454896,-0.2106887,9.9550400,-0.4732825,0.4580153,0.3282443,-19.6131992,1.8004304,9.4977493,-80.3435135,4.2137403,-250.1374054
8290,0.1244979,-0.1771700,9.9095497,-0.7404580,-0.3664122,0.1832061,-19.6131992,3.4572096,10.8097658,-57.1068687,40.3893127,-179.5419922
8300,-0.0191535,-0.1651991,9.9670105,-0.8854962,-0.0992366,0.4045801,-19.6131992,4.0102673,11.4873209,-26.1068707,56.4045792,-55.4274826
8310,-0.0766141,-0.1747758,9.9741936,-0.6641222,-0.0610687,0.2519084,-19.6131992,3.9049230,11.2431135,10.6870232,73.1221390,61.7099228
8320,0.0167593,-0.1963235,9.8568783,-0.7938932,0.2671756,0.3282443,-19.6131992,3.4955165,10.4865494,46.6946564,95.6259537,155.4580078
8330,0.0167593,-0.1915352,9.9095497,-0.7557252,-0.2137405,0.2290076,-19.6131992,3.1244173,9.8161764,77.0076370,108.2442780,213.5877838
8340,0.1316804,-0.1364688,9.8999729,-0.8396947,-0.2519084,0.1450382,-16.9388905,3.1387823,8.6717539,96.1755753,93.7709961,238.9694672
8350,0.0574605,-0.2178712,10.0196829,-0.8244275,-0.5419847,0.5190840,-13.8695393,3.4931223,7.3453732,101.0916061,64.0610657,245.2366486
8360,-0.1436514,-0.2154770,9.9646168,-0.7404580,0.0305344,0.4503817,-11.6980095,4.0246325,6.1458845,95.8702316,35.7938919,247.7938995
8370,0.0071826,-0.1412572,9.9598284,-0.6870229,-0.0534351,0.3969466,-10.6732969,4.1443419,5.4755111,88.7251892,17.5725193,250.1297760
8380,0.0526722,-0.1651991,9.8568783,-0.8396947,-0.1755725,0.1526718,-8.2431946,4.3789725,5.5856438,92.5419846,-0.5648855,250.1297760
8390,0.0622489,-0.1628049,9.9574337,-0.5496183,-0.0763359,0.3893130,-7.0030041,4.5657191,5.1427188,103.1374054,-4.9923663,250.1297760
8400,0.0215477,-0.1604107,9.8856087,-0.7404580,0.1145038,0.3282443,-5.4802995,4.8123207,4.2065907,112.6717529,-11.8473282,250.1297760
8410,0.0814024,-0.1436514,9.9358864,-0.6488550,-0.2900763,0.3435115,-4.0749106,5.2217274,2.9999194,118.3282471,-21.8702297,250.1297760
8420,0.0981618,-0.1963235,9.9694052,-0.5648855,-0.1603053,0.1908397,-2.6048782,5.2408805,1.9249283,121.6793900,-31.4961834,250.1297760
8430,0.0766141,-0.1699875,9.9334917,-0.9694657,-0.1679389,0.2137405,-0.9361281,5.1355362,0.6488253,123.4732819,-30.4427490,250.1297760
8440,0.0143651,-0.1460456,9.9813757,-0.6564885,-0.1450382,0.4122137,0.7110743,4.9775200,-0.3998296,124.9236679,-16.5496178,250.1297760
8450,0.0263361,-0.1699875,9.9047613,-0.8625954,-0.1297710,0.3282443,2.8658447,4.7141590,-1.4317253,125.5725174,1.4045801,250.1297760
8460,0.0215477,-0.1604107,9.8784256,-0.9541985,-0.3816794,0.2519084,4.9799142,4.2568688,-2.5234756,123.0992355,23.2290077,250.1297760
8470,0.0191535,-0.1508339,9.9047613,-0.8854962,-0.0916031,0.2748092,7.2017217,3.9671719,-3.4380560,115.2442780,45.8091621,250.1297760
8480,0.0407012,-0.1364688,9.9789820,-0.9770992,-0.1526718,0.4351145,9.3493099,3.9336534,-4.2640514,99.4045792,53.0152664,250.1297760
8490,0.0574605,-0.1675933,9.8784256,-0.7786260,-0.1526718,0.3129771,11.7123747,4.1275826,-4.9176650,75.4274826,34.1450386,250.1297760
8500,0.0000000,-0.2035061,9.9071560,-0.6641222,-0.0992366,0.2824427,13.8958759,4.1778607,-5.3558016,46.0076332,-4.8320613,250.1297760
8510,-0.0335187,-0.1508339,9.8832140,-0.8015267,-0.1374046,0.2977099,16.0578289,4.3861551,-5.1283536,17.8702297,-45.6564903,250.1297760
8520,0.0933734,-0.1388630,9.8760319,-0.6564885,-0.1145038,0.2595420,17.9947281,4.5729017,-5.2504573,-6.3969464,-75.0839691,217.4351196
8530,0.0430954,-0.0957676,9.8664551,-0.7709923,-0.1297710,0.3511450,19.5988350,4.7548604,-4.8482337,-23.3358784,-83.2366409,167.3282471
8540,0.0143651,-0.1125269,9.8664551,-0.7328244,-0.0458015,0.2519084,19.6126022,4.9942794,-4.3263001,-30.1755733,-62.9465637,116.4809189
8550,0.0909792,-0.1221037,9.8784256,-0.7099237,-0.0229008,0.2671756,19.6126022,5.4348102,-4.1204000,-33.1984749,-33.5648842,67.8549652
8560,0.1077385,-0.1580165,9.8113880,-0.7709923,-0.0152672,0.1908397,19.6126022,5.7221127,-3.8283088,-39.4656487,-17.1526718,20.4122143
8570,0.0454896,-0.1580165,9.8951855,-0.7404580,0.0152672,0.1603053,19.2157650,5.8681583,-3.2537034,-48.7022896,-15.5114508,-24.2519093
8580,-0.0095768,-0.1484398,9.8808203,-0.6030535,-0.1984733,0.4427481,17.8582592,6.0165982,-2.5402350,-56.5801544,-21.8931293,-62.5801544
8590,0.0790083,-0.1149211,9.9310980,-0.6641222,0.0152672,0.2900763,16.9939575,6.0429344,-1.7381816,-60.8015251,-24.5877857,-95.3740463
8600,-0.0023942,-0.1412572,9.9119444,-0.5038168,-0.1297710,0.2977099,16.3020363,5.9016771,-1.2377959,-61.1526718,-15.4580154,-126.1068726
8610,0.0239419,-0.1436514,9.8856087,-0.6259542,0.1145038,0.2519084,15.1935263,5.8944945,-0.6272776,-56.5725174,4.7480917,-151.5877838
8620,0.0335187,-0.2082945,9.9358864,-0.8244275,-0.2671756,0.2595420,14.0395269,5.8657641,-0.5123565,-50.7404594,19.4656487,-176.8320618
8630,0.0023942,-0.1819584,9.8951855,-0.7480916,-0.2137405,0.2595420,13.2446556,5.7987270,-0.3950413,-47.9465637,24.2900772,-203.1526642
8640,0.1005560,-0.1484398,9.8927908,-0.8854962,0.0992366,0.3129771,12.2917690,5.6694407,-0.2729376,-47.7709923,23.4122143,-231.4427490
8650,0.0191535,-0.1699875,9.8712435,-0.7709923,-0.2366412,0.0763359,11.3053627,5.2815819,-0.0167593,-48.7786255,18.2213745,-250.1374054
8660,-0.0071826,-0.1867468,9.8951855,-0.7633588,-0.0687023,0.4427481,10.0532017,4.8937230,0.3280039,-50.2366409,11.4503813,-250.1374054
8670,0.0478838,-0.1628049,9.9047613,-0.8625954,-0.0763359,0.4274809,8.6262646,4.4388270,0.6751614,-51.1832047,4.3893127,-250.1374054
8680,0.0263361,-0.1675933,9.9263096,-0.7480916,0.1221374,0.5801527,6.7180958,3.9839313,0.6057299,-51.2595406,-2.2595420,-250.1374054
8690,0.0454896,-0.1915352,9.8592720,-0.7022901,-0.1450382,0.3511450,4.8865409,3.7516949,0.4261657,-52.9007645,-11.6488552,-250.1374054
8700,-0.0095768,-0.1675933,9.8832140,-0.5572519,-0.0534351,0.3511450,2.8802099,3.4284792,-0.0383070,-58.9618340,-27.0076332,-250.1374054
8710,0.0742199,-0.1101327,9.7946291,-0.8091603,-0.1068702,0.2977099,0.9073978,3.2752512,-0.1436514,-71.3664093,-49.5801544,-250.1374054
8720,0.0119709,-0.2154770,9.8712435,-0.7480916,-0.1297710,0.2748092,-0.9983770,3.1986370,0.0263361,-87.6030502,-75.0687027,-250.1374054
8730,0.0454896,-0.1915352,9.9143381,-0.7251908,-0.2061069,0.0992366,-4.0126615,3.2584918,1.0079538,-103.1755753,-92.8320618,-250.1374054
8740,0.0167593,-0.1795642,9.8903971,-0.8473282,-0.0534351,0.3893130,-7.9151902,3.6750808,2.5354466,-112.2061081,-90.1450348,-250.1374054
8750,-0.0119709,-0.1268920,9.8473015,-0.7251908,-0.2671756,0.2824427,-11.8416615,4.4867110,4.6710634,-109.1755753,-74.6412201,-250.1374054
8760,0.0191535,-0.1628049,9.9574337,-0.6183206,-0.2137405,0.3664122,-14.8032732,5.4587522,6.2057390,-94.7404556,-67.8473282,-250.1374054
