timestamp,rxacclX,rxacclY,rxacclZ,rxgyroX,rxgyroY,rxgyroZ,txacclX,txacclY,txacclZ,txgyroX,txgyroY,txgyroZ
0,5.0397687,1.2737088,8.8872309,-1.6717557,1.3740458,-0.8778626,-2.2816625,0.9600700,10.2782555,-1.9465649,-6.1145039,3.1374047
10,4.9918852,1.3503228,8.8968077,-0.6106870,1.3053435,0.7328244,-2.2864509,1.0199248,10.3261395,-2.1526718,-6.2061067,3.0152671
20,5.0421629,1.3503228,8.7675219,0.0610687,0.0534351,2.0152671,-2.1882892,1.0295014,10.2806492,-2.5954199,-5.7786260,2.6030533
30,5.0086441,1.3646880,8.6693602,0.3969466,-0.4122137,2.6335878,-2.1404054,1.0342898,10.1896706,-2.9847329,-5.3282442,2.3358779
40,5.0325861,1.4700323,8.6095057,0.5648855,-0.9312977,2.3282442,-2.1260402,0.9528874,10.2758608,-3.3358779,-4.9160304,0.4351145
50,5.1020179,1.4125718,8.5520449,-0.0534351,-0.3129771,1.6717557,-2.2840567,0.9624642,10.2495251,-3.5648854,-4.5725193,0.2900763
60,5.0277977,1.4413021,8.5616217,-0.3816794,-0.0839695,1.0305344,-2.4564383,1.0318956,10.3548698,-3.9770992,-5.0381680,0.6870229
70,5.0445571,1.4748207,8.5352850,-1.2824427,0.1450382,0.7786260,-2.6431851,1.0223188,10.4937325,-3.9083970,-5.9465647,1.7099236
80,5.1235652,1.4604555,8.5640154,-1.9923664,0.6259542,0.2748092,-2.9017577,1.0007712,10.5511932,-2.7328243,-5.1832061,2.7175572
90,5.1020179,1.4532729,8.7028790,-2.2213740,1.6564885,0.0000000,-3.0334380,0.9672526,10.7762470,-0.1145038,-3.8244274,5.9694657
100,5.1355362,1.3838415,8.6214762,-2.3740458,2.6412213,-0.2748092,-3.1363883,1.0127422,11.1257982,3.5801528,0.8854962,8.5114508
110,5.1810260,1.3503228,8.6573887,-2.6183207,3.2977099,-0.0992366,-3.5074875,1.0606259,11.4131012,9.6335878,6.2824426,9.9923668
120,5.0684991,1.3383518,8.6933022,-3.0381680,3.8549619,0.4732825,-3.9121056,1.0127422,11.4322548,17.7480907,14.8244276,16.2061062
130,5.1618724,1.3503228,8.6166878,-2.3358779,3.6488550,0.5419847,-3.8761928,0.8379663,10.8001890,23.5572510,15.6259546,22.1068707
140,5.1427188,1.3024391,8.5807753,-2.0305343,3.1755726,0.8091603,-4.0078731,1.1492109,10.9007444,28.7786255,16.6030540,26.4274807
150,5.1163831,1.3670821,8.7579451,-2.3282442,3.1145039,1.6488550,-3.5793133,0.8236012,10.5942879,34.1450386,23.7175579,29.9389305
160,5.1810260,1.3239868,8.7316093,-2.1908398,2.3664122,1.9465649,-3.1339941,0.9337339,10.3357162,35.5267181,18.5190830,37.2824440
170,5.2121506,1.2569494,8.7555504,-2.1679389,1.4045801,1.1755725,-2.0877333,1.3503228,10.2160063,34.7786255,15.2900763,39.1526718
180,5.0900469,1.3024391,8.6549950,-2.0152671,-2.2748091,-2.8549619,-2.2361729,1.5466464,9.2990322,19.3816795,5.1068702,19.6870232
190,4.8602047,1.3455344,8.7603388,-0.7480916,-1.2900764,-1.0992366,-1.9560528,1.7693061,9.4666252,-15.7480917,-29.5114498,3.6793892
200,5.0613165,1.4700323,8.6310530,-0.3053435,1.3587786,-0.6717557,-2.0661855,1.5083394,10.1800938,-21.3053436,-36.7251892,1.8778626
210,5.0541339,1.5538290,8.5783806,-0.7328244,3.0076337,-0.0076336,-1.2665262,2.7892308,10.1202393,-20.8244267,-40.6946564,-1.0458015
220,5.0804701,1.5155219,8.6478119,-1.6259542,4.5572519,1.2748091,-2.2577207,0.7230452,9.6390066,-31.9847336,-34.7786255,-10.3893127
230,5.1283536,1.4053892,8.5304966,-3.0076337,5.9694657,1.2671756,-2.3079987,1.7764885,10.3764172,-38.6488533,-44.0916023,-1.0687023
240,5.0804701,1.2832855,8.6861191,-3.7099237,4.4809160,-0.1221374,-1.7956421,1.2425843,11.0587606,-36.5648842,-36.9541969,0.7633588
250,4.9631548,1.2401901,8.8848372,-3.5419848,2.4656489,-0.5648855,-1.6184721,1.1539993,11.3269100,-32.3206100,-33.8244286,0.1832061
260,4.8290801,1.2737088,8.8656836,-2.8167939,0.8625954,-0.7862595,-1.3982066,1.2234308,11.3173332,-26.7251911,-30.1450386,-0.7022901
270,4.7452836,1.1611819,8.9566631,-1.8396946,-0.7251908,-0.6106870,-1.3431402,1.0390782,11.2814207,-21.4656487,-28.4198475,-0.2671756
280,4.7859845,1.2258250,8.9183559,-1.0534351,-0.7709923,-0.1832061,-0.9026094,0.9409165,11.1569233,-16.7557259,-20.4732819,-1.1755725
290,4.8769641,1.3191984,8.7723103,-0.6412213,-0.4809160,0.5572519,-0.4932030,0.7445929,11.1832590,-12.7328243,-16.4198475,-4.8396945
300,4.9823084,1.3766589,8.7890692,-0.1603053,0.0000000,0.6412213,-0.2992737,0.6320660,10.9390516,-10.3587790,-9.2748089,-11.6564884
310,4.9799142,1.3383518,8.7076674,0.1374046,0.6259542,1.1297710,-0.5339043,0.7972651,11.0635490,-8.6717558,-4.5877862,-19.8167934
320,5.0038562,1.3766589,8.5831690,0.0916031,0.9083970,1.3740458,-0.9217629,0.9672526,11.1736822,-7.9618320,-4.0687022,-26.8396950
330,5.0804701,1.2904681,8.5879574,-2.3053436,0.0229008,-0.8167939,-3.1675127,0.8595140,12.0978394,-29.9236641,16.1068707,-19.6870232
340,5.1020179,1.2593436,8.5807753,-2.7786260,0.1297710,-1.2824427,-3.5912843,0.5482694,13.1632538,-30.4656487,3.6870229,-15.0305347
350,4.9990678,1.1994889,8.6669655,-3.2366412,0.6564885,-0.8320611,-4.0533628,0.2130829,13.9293938,-25.3053436,-9.6641226,-10.0687027
360,4.8697815,1.1228749,8.7555504,-3.3511450,-0.4045801,0.2900763,-4.2903876,0.1771700,14.5686426,-14.9618320,-19.5648861,-3.1450381
370,4.9894910,1.2784972,8.8130112,-2.9847329,-1.4427481,0.9083970,-4.0533628,-0.0885850,14.8032732,-1.5038168,-23.8931293,5.1984735
380,5.0421629,1.3144100,8.8441362,-2.4122138,-1.2900764,0.6412213,-3.9695661,-0.1029501,14.5303354,13.8396950,-15.1145039,13.4809160
390,5.0349803,1.2689204,8.7914639,-2.3435113,-1.7786260,-0.0076336,-4.0198441,-0.0694315,14.4034433,29.4580154,2.3206108,23.5877857
400,5.0756817,1.2784972,8.7842808,-1.8320611,-2.1603053,-0.6946565,-4.0868812,0.0311245,14.3100700,44.6183205,23.1526718,36.2519073
410,5.0373745,1.3024391,8.8896255,-1.1374046,-0.9923664,-1.3435115,-3.8474624,0.1604107,13.9700956,60.1908379,46.0916023,47.4198456
420,4.8290801,1.2856797,8.6813307,-1.9694656,3.2519083,0.3511450,-3.1172347,1.1947005,9.3014259,82.0000000,140.4656525,80.7175598
430,4.6997938,1.2162483,8.8154058,-2.1755726,1.9541985,1.4809160,-4.9128766,0.9050036,11.2574787,73.0000000,206.4503784,109.5725174
440,4.7596488,1.2042773,9.0117292,-1.4580153,0.5114504,1.7709924,-5.9471664,0.7972651,12.8160963,82.5725174,249.0000000,133.3053436
450,4.8003497,1.2354017,8.8513184,-0.5267175,-1.0076336,2.3358779,-6.8306227,0.7158626,14.0562859,101.0305328,250.1297760,157.4732819
460,4.8817525,1.1587877,8.8154058,0.0687023,-2.2900763,2.0229008,-6.3757267,0.2849085,14.5949793,125.7480927,250.1297760,179.0915985
470,4.8530221,1.1875180,8.8656836,0.6412213,-2.9007633,1.9770992,-4.7309184,0.0143651,14.1712074,148.5114441,250.1297760,194.8091583
480,4.9368186,1.1947005,8.8130112,1.0916030,-2.7709923,2.3893130,-4.3717899,-0.1915352,14.0538921,171.0610657,250.1297760,209.4274750
490,5.0301919,1.3144100,8.5951405,1.0229008,-2.2137403,2.6335878,-5.1522956,-0.0981618,14.3531656,198.4885559,250.1297760,232.8778687
500,5.1642666,1.2449785,8.6549950,0.9465649,-1.3969465,2.0610688,-5.5952206,0.1867468,13.9581242,229.0458069,250.1297760,250.1297760
510,5.1403246,1.3168042,8.6166878,0.3816794,-0.5267175,1.9236641,-5.1738434,0.2873027,12.3396521,250.1297760,250.1297760,250.1297760
520,5.2863703,1.3886299,8.5855637,-0.0381679,0.6030535,1.4427481,-4.3167233,0.7254394,9.9239149,250.1297760,250.1297760,250.1297760
530,5.1858144,1.2569494,8.5927458,-0.6183206,1.5801526,0.8854962,-4.6040263,1.3407460,7.1227136,250.1297760,250.1297760,250.1297760
540,5.0876527,1.2761030,8.5185261,-1.4732825,1.7251909,0.4351145,-5.0565281,2.4420733,4.5896611,250.1297760,250.1297760,250.1297760
550,5.0493455,1.3024391,8.7411861,-1.5954199,1.1221374,0.2290076,-5.0134325,3.3949606,2.2672975,232.2900696,250.1297760,250.1297760
560,4.9679432,1.3072275,8.7052727,-1.8473282,0.9618320,0.1908397,-4.8266859,4.1227942,0.7948709,202.4351196,250.1297760,250.1297760
570,4.9463954,1.2330076,8.7459745,-2.1526718,-0.0610687,-0.1679389,-4.5106530,4.9918852,0.0287303,172.1450348,250.1297760,250.1297760
580,4.8769641,1.2521610,8.7220325,-2.1603053,-0.9923664,0.0534351,-3.8307030,5.7316895,-0.3926471,146.1679382,250.1297760,250.1297760
590,4.7859845,1.2354017,8.9231443,-1.5648855,-1.7786260,0.0229008,-2.5019281,6.2727766,-1.2832855,125.5801544,248.2519073,250.1297760
600,4.7668314,1.1827296,8.8106174,-1.3893130,-2.6106870,0.5725191,-1.0486550,6.7851329,-2.4061604,113.1297684,235.3358765,250.1297760
610,4.7692256,1.1587877,8.8297710,-0.4427481,-3.5725191,0.7862595,1.0941446,7.0484939,-3.9719603,102.8854980,234.8778687,250.1297760
620,5.2624283,1.3311694,8.6717539,-0.7099237,3.3816793,0.8854962,15.3515425,7.3597383,-11.4466200,-231.3664093,-32.8549614,-83.2213745
630,5.2624283,1.4221486,8.5448618,-1.3740458,4.6870227,0.2671756,12.2678270,6.7564025,-7.7188668,-250.1374054,-69.6793900,-146.1450348
640,5.1714492,1.2784972,8.5640154,-2.2366412,5.9160304,-0.4427481,9.3421268,5.8992829,-4.4100971,-250.1374054,-104.6106873,-190.0076294
650,5.0445571,1.2258250,8.5855637,-3.3282442,6.4198475,-0.6793893,6.7564025,4.8961172,-1.1659702,-250.1374054,-127.6793900,-219.0305328
660,4.8673873,1.2473727,8.6502066,-3.6946564,6.1221375,-0.5496183,4.3478479,3.8283088,1.7142396,-250.1374054,-141.4580078,-237.9389343
670,4.9009056,1.2665262,8.8082228,-4.0305343,5.6946564,-0.5267175,1.9368993,2.7676830,4.2592630,-250.1374054,-146.6259613,-246.0381622
680,4.8171091,1.2497669,8.8848372,-3.0534351,4.5572519,-0.6793893,-1.1587877,1.6759326,6.8689294,-250.1374054,-117.8549652,-240.4045868
690,4.7021880,1.2162483,8.9734221,-2.0152671,2.9770992,-0.0610687,-6.6031747,0.7924767,10.6110477,-250.1374054,-35.2137413,-213.5267181
700,4.7692256,1.1923064,8.8992023,-1.0534351,2.0916030,0.6030535,-13.4984398,1.1539993,15.6532106,-240.5343475,74.8931274,-160.5954132
710,4.7548604,1.2784972,8.8824425,-0.3129771,1.4961832,0.9847328,-19.6131992,2.4779861,19.6126022,-171.0152740,159.5954132,-80.2748108
720,4.8003497,1.2330076,8.6573887,-0.1984733,1.5725191,1.4274809,-19.6131992,3.1387823,19.6126022,-82.2061081,176.0381622,17.1526718
730,4.9009056,1.3000449,8.7435799,-0.5038168,2.2824428,1.6106870,-19.6131992,2.5378408,19.6126022,5.4809160,144.1984711,118.5801544
740,4.9487896,1.2186425,8.6885138,-1.2748091,2.4045801,1.0763359,-19.6131992,1.3646880,19.6126022,72.8931274,128.4122162,200.5267181
750,4.9607606,1.2976507,8.7866755,-1.1297710,2.3893130,0.9083970,-14.1759958,0.2585725,17.8247414,117.7251892,138.1297760,250.1297760
760,4.8578105,1.3503228,8.7794924,-1.6030535,2.5648854,0.5419847,-9.4019823,-0.0383070,15.6987000,152.8931274,150.0229034,250.1297760
770,4.8889351,1.1994889,8.8130112,-1.2671756,2.3129771,0.0763359,-6.4930420,0.5865764,13.7857428,180.8931274,149.8625946,250.1297760
780,4.8937230,1.2018831,8.8249826,-1.0763359,2.4351146,0.3435115,-4.7021880,1.5538290,11.4992924,201.5419922,126.2595444,250.1297760
790,5.0373745,1.1659702,8.7723103,-1.2213740,2.8396947,-0.7022901,-0.5841822,6.9575148,-0.9911944,178.8396912,37.4274826,177.5954132
800,4.9607606,1.1755470,8.6334467,-1.7938931,2.7709923,-0.9770992,-0.4764437,7.9295554,-2.6096666,165.1450348,44.8244286,184.8702240
810,4.8985114,1.2114599,8.7603388,-1.8854961,2.1526718,-0.9847328,0.5003856,8.3245964,-4.3286943,152.8320618,57.0916023,198.4885559
820,4.7716198,1.1539993,8.8489246,-1.6412214,2.2977099,-0.7175573,2.0829449,8.2695303,-6.1363077,140.2137451,75.6183243,211.3206177
830,4.6590929,1.1252691,8.7699156,-1.4198474,2.2290077,-0.1221374,3.6248028,8.3748751,-7.5895805,121.4351120,92.0000000,219.7099304
840,4.8195033,1.3407460,8.7842808,0.2137405,1.2137405,1.6412214,19.2205524,8.3030491,-7.4171991,-165.0381622,-73.4885483,-93.7709961
850,4.8817525,1.2377959,8.7842808,-0.1755725,1.3969465,1.3893130,16.6611652,7.9415264,-5.5090299,-185.2595367,-69.6259537,-146.7480927
860,4.8554163,1.2713146,8.7747040,-0.3129771,1.9618320,1.0000000,13.5247765,7.5632443,-4.0342093,-198.2671814,-67.8702316,-186.6412201
870,4.9128766,1.2162483,8.7603388,-0.8091603,2.1374047,0.8091603,10.4913378,7.1849627,-2.8442972,-207.8473358,-68.3053436,-210.3511505
880,4.8123207,1.2354017,8.7459745,-0.7175573,2.1832061,0.5267175,8.1546097,6.8282285,-1.7812769,-214.1221313,-62.3129768,-222.6259613
890,4.8889351,1.2880739,8.8345594,-0.7709923,3.0992367,0.9389313,5.4132624,6.3829093,-0.3495516,-214.4351196,-42.4580154,-225.8473358
900,4.8937230,1.1947005,8.8249826,-0.4274809,3.7175572,1.0610687,2.3582766,6.4595232,1.1372399,-206.0000000,-5.2748094,-217.4198456
910,4.9607606,1.3168042,8.7363977,-0.2290076,4.5267177,0.8244275,-0.9864060,6.4068508,2.3846128,-191.1221313,32.0458031,-201.1068726
920,4.9703374,1.3048333,8.7363977,-0.7786260,5.2824426,0.1603053,-3.6846576,6.1626434,3.1387823,-174.7786255,48.7175560,-182.3893127
930,4.9248476,1.2497669,8.6813307,-1.5190840,5.6259542,-0.5343512,-6.1051831,5.7125359,3.7756367,-165.0076294,65.1450348,-160.9847260
940,4.8003497,1.2713146,8.7579451,-2.4580152,5.7328243,-1.0610687,-10.1082678,5.5329719,5.6095858,-160.4580078,94.7709961,-133.7709961
950,4.7500720,1.2282192,8.8225880,-3.1450381,4.8244276,-1.1450381,-14.1281118,5.7795734,8.8728657,-152.4503784,117.6259537,-95.0381699
960,4.6566987,1.1228749,8.9183559,-2.8091602,4.7557254,-0.9541985,-18.1527443,6.2344694,12.5000629,-132.2290039,121.7938919,-42.0305328
970,4.6255741,1.1755470,8.9446917,-2.2900763,3.7480917,-0.3282443,-19.6131992,6.2584114,15.8064384,-97.2900772,113.1603088,19.1984730
980,4.6710634,1.1731528,8.9949694,-2.1297710,3.1984732,-0.0687023,-19.6131992,5.5976148,17.9636040,-48.1297722,95.1984711,77.2137375
990,4.6447277,1.0318956,9.0404596,-0.9007633,0.1832061,0.1908397,-17.6619358,5.0182209,17.2549229,60.2671738,62.6183205,172.4427490
1000,4.7333126,1.1563935,8.9925756,-0.3893130,-1.3511450,0.5190840,-14.9732609,4.9320302,15.1600075,102.5648880,58.9771004,211.0458069
1010,4.7261300,1.1827296,8.9159613,-0.4732825,-1.7404580,0.7938932,-11.9996777,4.8099265,13.0507269,136.6412201,51.7022896,241.4427490
1020,4.7381010,1.1204807,8.8561068,-0.4732825,-1.9694656,0.6564885,-9.0380650,4.5824785,10.6062593,160.2900696,38.8778610,250.1297760
1030,4.7021880,1.1779412,8.9351149,-0.0992366,-2.4122138,0.2900763,-6.1913738,4.8195033,7.7715387,173.9389343,30.1068707,250.1297760
1040,4.6614871,1.2258250,8.9949694,0.3664122,-2.0839694,0.7099237,-1.6136837,5.2648225,3.0765336,176.7709961,7.1526718,250.1297760
1050,4.7069764,1.2617378,8.9159613,0.8244275,-2.1755726,0.9694657,0.6751614,5.3845320,1.2114599,170.5496216,-2.7404580,250.1297760
1060,4.6255741,1.3694763,8.7818871,1.1297710,-1.3816794,2.0458016,5.9567432,4.9966736,-2.6719155,150.8015289,3.4351146,250.1297760
1070,4.7309184,1.3263810,8.8417416,0.8244275,-1.0916030,2.2442749,9.1098909,4.8865409,-4.4891052,134.8702240,8.3893127,250.1297760
1080,4.8171091,1.2713146,8.7268209,0.3969466,-0.1450382,1.6870229,19.6126022,6.0429344,-10.5966825,38.6259537,-26.4122143,171.7480927
1090,4.8099265,1.2521610,8.8656836,0.1908397,0.2900763,1.7175573,19.6126022,6.7061248,-11.7099810,-18.8931293,-49.1526718,88.8015289
1100,4.7811961,1.1683644,8.7938576,-0.1984733,1.8396946,2.0534351,19.6126022,6.9958215,-9.4163475,-135.6717529,-96.8854980,-84.2671738
1110,4.8218975,1.1755470,8.7244263,-0.6641222,3.4580152,2.3816793,19.6126022,6.1794028,-6.3374195,-172.4351196,-100.8320618,-160.4274750
1120,4.8697815,1.2162483,8.7028790,-1.4580153,5.5419846,2.9312978,19.6126022,5.5186067,-3.9384418,-196.2519073,-89.5343475,-224.7786255
1130,4.9679432,1.2114599,8.6358414,-2.5419848,6.3053436,2.9083970,19.3546276,4.9679432,-1.5753766,-208.6106873,-76.0839691,-250.1374054
1140,4.9751258,1.2904681,8.7268209,-3.4274809,6.1984735,1.6412214,16.1679611,4.1946201,0.7781116,-212.6793823,-59.1374054,-250.1374054
1150,4.9152708,1.2593436,8.9039907,-3.9923663,5.4503818,0.3511450,13.4601336,3.3303175,2.6192431,-210.0992432,-44.9312973,-250.1374054
1160,4.6902170,1.2761030,8.9351149,-3.6183207,4.8473282,0.1145038,10.5775290,2.3103929,4.0820932,-202.9541931,-34.6412201,-250.1374054
1170,4.5752959,1.1085097,9.0476418,-2.9541984,3.3587787,-0.1297710,7.7523856,1.2066715,5.2480631,-193.4961853,-31.9847336,-250.1374054
1180,4.4651632,1.2928623,9.0715837,-2.4045801,2.7328243,0.2900763,4.5465660,0.3040621,6.3709383,-184.8778687,-30.9160309,-250.1374054
1190,4.5274124,1.1659702,9.0236998,-2.0076337,1.7709924,0.8015267,-0.7421987,-0.1005560,8.4897957,-170.8473358,-17.8244267,-250.1374054
1200,4.5345950,1.1372399,8.8992023,-1.2137405,1.6717557,1.4885496,-7.9894104,0.6009415,11.0874910,-145.3053436,3.0916030,-250.1374054
1210,4.6830344,1.1994889,8.8896255,-0.9694657,1.0000000,1.8702290,-16.6108856,2.1595588,13.8048964,-105.2061081,31.5877857,-250.1374054
1220,4.7644372,1.1970947,8.9183559,-1.5572519,0.5954198,1.8549619,-19.6131992,4.3646073,16.5917320,-47.4580154,70.0381699,-226.7251892
1230,4.8578105,1.0438666,8.8848372,-1.6412214,-0.1526718,1.3053435,-19.6131992,6.5959921,18.2652721,27.0916023,88.4198456,-75.9236679
1240,4.8218975,1.1492109,8.9518747,-1.2442749,-0.9770992,1.0458015,-19.6131992,6.1458845,15.8064384,106.4809189,93.0687027,88.0457993
1250,4.7548604,1.0630201,8.9758167,-0.8549618,-1.0916030,0.7938932,-19.6131992,4.5417776,12.2295198,162.5572510,123.2977066,226.6717529
1260,4.8099265,1.1276633,8.9614515,-0.7099237,-0.0839695,0.6335878,-19.6131992,3.5194585,9.2272062,186.8549652,151.6564941,250.1297760
1270,4.8554163,1.1755470,8.8465300,-1.1145039,0.9160305,-0.0534351,-15.5430775,3.2417326,7.5608501,190.6412201,157.2595367,250.1297760
1280,4.8578105,1.2377959,8.8058290,-1.2366412,1.6793894,-0.5801527,-9.6485834,3.6008608,5.9998388,183.2977142,123.4885483,250.1297760
1290,4.8314743,1.2162483,8.9087791,-1.3740458,2.1755726,-1.3435115,-4.2951760,4.4053087,4.2041965,169.4809113,67.6183243,250.1297760
1300,4.7045822,1.1994889,8.9686337,-1.9541985,2.4656489,-1.8320611,3.0789278,5.4539638,1.0749911,139.0915985,-12.4045801,250.1297760
1310,4.5729017,1.1563935,8.9446917,-1.5572519,1.0229008,-1.8015267,5.4156566,5.7580256,-0.2082945,126.8549652,-30.6106873,250.1297760
1320,4.5106530,1.0965388,9.0069408,-0.8091603,-0.3358779,-1.0076336,7.2831244,5.9447722,-1.9799947,114.6870193,-39.8473282,250.1297760
1330,4.3909435,1.1947005,9.0763721,-0.4274809,-1.9160305,0.2824427,9.5097208,6.0860295,-3.8737986,96.9694672,-47.5801544,250.1297760
1340,4.3717899,1.1587877,9.0308828,-0.0076336,-2.7633588,1.1450381,11.7099810,5.8873119,-5.4874821,72.6717529,-59.6106873,234.0076294
1350,4.4029145,1.1204807,9.0979195,0.6259542,-3.5648854,1.7480916,13.9341822,5.8849177,-6.6151457,44.4961815,-66.6183243,201.8625946
1360,4.5010762,1.1994889,9.0500364,1.4122137,-3.7480917,2.5038168,16.5055428,5.9878678,-7.3573442,14.7099237,-75.2213745,163.3587799
1370,4.5800843,1.2737088,8.9542685,1.9694656,-3.6488550,3.0152671,19.1822453,6.0213866,-7.4291697,-15.9236641,-84.0152664,116.2137375
1380,4.7500720,1.3000449,8.8489246,1.9847329,-2.8091602,3.3206108,19.6126022,5.9950504,-7.3645267,-46.6183205,-89.0076370,57.1145020
1390,4.8338685,1.3455344,8.7794924,1.7175573,-2.0381680,3.1679389,19.6126022,6.0884237,-6.4355812,-75.2671738,-80.6946564,-4.9770994
1400,5.0038562,1.2856797,8.6430235,0.8396947,-0.3969466,2.9007633,19.6126022,6.0501165,-5.2887645,-97.4732819,-63.0000000,-66.0000000
1410,5.0756817,1.2401901,8.6980906,-0.1221374,1.5725191,2.0305343,19.6126022,5.6622581,-3.9312592,-112.0229034,-42.5114517,-121.0687027
1420,5.0134325,1.3215926,8.7172441,-1.0152671,2.3358779,0.6946565,18.5453911,5.1929970,-3.2656744,-122.0076370,-22.6183205,-170.0000000
1430,4.8841467,1.2497669,8.8177996,-2.2519083,2.6030533,-0.1068702,15.6508169,4.9104824,-3.0118904,-132.7709961,-6.6183205,-207.1297760
1440,4.7788019,1.2138541,8.7316093,-3.3282442,2.3511450,-1.2671756,12.6341381,4.6207857,-2.2098370,-143.2671814,12.3053436,-233.3206177
1450,4.5681133,1.0773853,9.0308828,-2.9770992,0.9389313,-1.5038168,10.5200682,4.6662750,-1.4077834,-150.5572510,22.9007626,-250.1374054
1460,4.5034704,1.1611819,9.0548248,-2.0992367,-0.4045801,-0.6259542,8.7579451,4.6566987,-0.3040621,-155.0076294,23.3969460,-250.1374054
1470,4.4029145,1.0869620,9.0260944,-0.8244275,-1.2366412,0.2366412,7.3884687,4.4148855,0.3519458,-159.7557220,19.9007626,-250.1374054
1480,4.4340386,1.1635761,9.0260944,0.0000000,-1.6183206,1.5954199,5.5305777,4.1922259,1.0965388,-165.2213745,19.2137413,-250.1374054
1490,4.6638808,1.1204807,8.9327211,0.4045801,-2.3206108,2.0839694,3.6104376,4.1467361,1.8387375,-170.2366486,15.3969469,-250.1374054
1500,4.8865409,1.1348459,8.9231443,0.7938932,-2.5496182,1.3511450,0.0718257,3.0478032,3.4811516,-184.6564941,-12.0992365,-250.1374054
1510,4.9200592,1.1539993,8.7411861,0.3740458,-2.8473282,0.8854962,-2.2577207,2.4660151,5.1331420,-189.7938995,-5.9389315,-250.1374054
1520,4.8147149,1.1803354,8.8201942,-0.1145038,-2.6259542,0.3816794,-7.1490498,2.1787124,7.8792777,-185.8473358,27.5038166,-250.1374054
1530,4.7716198,1.0965388,8.8058290,-0.1755725,-2.1984732,-0.5267175,-19.6131992,4.3382711,14.7841196,-134.3816833,77.9847336,-226.5496216
1540,4.7428894,1.1396341,8.8800488,-0.0305344,-1.8549619,-0.8473282,-19.6131992,5.7652082,17.6786957,-87.0534363,50.9236641,-129.4503784
1550,4.6973996,1.2162483,8.8034344,-0.1450382,-1.4809160,-0.8244275,-19.6131992,6.2416520,19.2468891,-29.3053436,27.8015270,-26.4274807
1560,4.6519103,1.1827296,8.9207497,0.1297710,-1.0076336,-0.5801527,-19.6131992,6.2967181,19.6126022,35.5496178,31.0763359,72.4122162
1570,4.7021880,1.2689204,8.9063845,-0.0229008,-0.6641222,-0.2290076,-19.6131992,6.0501165,18.6507359,102.1374054,46.9160309,162.6793823
1580,4.6638808,1.2449785,8.8489246,-0.0381679,-0.5496183,0.0458015,-19.1918221,5.5018473,16.3259773,160.2671814,57.5114517,228.7099304
1590,4.7859845,1.2377959,8.8704720,-0.1755725,-0.4961832,0.4122137,-14.7601776,5.0996237,13.4050665,204.2595367,56.6335869,250.1297760
1600,4.7572546,1.2473727,8.8656836,-0.1755725,-0.0610687,0.7480916,-10.4554253,4.9104824,9.8856087,228.1221313,47.0610695,250.1297760
1610,4.7117648,1.2401901,8.8896255,-0.3587786,-0.1450382,0.6259542,-6.4355812,5.3294659,6.3134775,233.1450348,31.5343513,250.1297760
1620,4.5657191,1.2425843,8.8872309,-0.1755725,-0.4045801,0.7557252,-3.6200144,5.7101417,3.5362179,224.7633514,14.2442751,250.1297760
1630,4.5250182,1.1970947,8.9375095,0.4045801,-1.0916030,1.5496184,0.9073978,5.6574697,-0.2298422,191.4732819,-13.6488552,250.1297760
1640,4.6519103,1.3024391,8.8728657,0.8015267,-0.9618320,2.2519083,3.0214672,5.2360926,-1.5107336,175.1145020,-16.7938938,250.1297760
1650,4.7237358,1.2042773,8.9686337,1.0381680,-0.8015267,2.4503818,5.1642666,4.8985114,-2.5809362,160.0076294,-18.3435116,250.1297760
1660,4.7620430,1.1994889,8.9375095,1.3358779,-1.2900764,2.6946564,8.1091194,4.7859845,-3.6176202,143.7404633,-26.4351139,250.1297760
1670,4.9511838,1.2186425,8.8920193,1.5725191,-1.0076336,2.4885497,11.5447817,4.6112089,-4.9176650,123.9083939,-42.8167953,250.1297760
1680,5.1953912,1.2856797,8.5999289,-0.8396947,2.3129771,0.4198473,19.6126022,5.6454988,-8.8058290,30.8549614,-63.8167953,140.6564941
1690,5.0158267,1.3982066,8.6813307,-1.9312977,3.8320611,-0.3816794,19.6126022,6.0549049,-9.3086090,-6.8091602,-52.8549614,64.5572510
1700,4.8482337,1.3048333,8.7747040,-3.7862597,4.8091602,-1.2519084,19.6126022,6.0309634,-9.2128410,-45.2366409,-37.6793900,-15.3435116
1710,4.6566987,1.2808913,8.7866755,-5.0152674,4.6641221,-1.8091604,19.6126022,5.9735026,-7.9415264,-79.0381699,-22.9541988,-90.6870193
1720,4.5345950,1.1923064,8.9686337,-5.1221375,3.9923663,-1.6641221,19.6126022,5.6838059,-6.6007805,-108.3587799,-14.9236641,-154.3816833
1730,4.3526363,1.1587877,9.0955257,-3.7404580,2.8702290,-0.9694657,18.6818600,5.3366485,-4.9080882,-130.7633514,-1.8320611,-204.2366486
1740,4.3167233,1.1420283,9.1290445,-2.6488550,1.6793894,-0.0076336,15.6268749,5.0517397,-2.8131726,-144.0152740,15.0916033,-241.8854980
1750,4.4292507,1.0965388,9.1266499,-1.1068702,0.9083970,0.8167939,13.7330704,4.6016321,-1.1779412,-149.5267181,36.6412201,-250.1374054
1760,4.4819226,1.0606259,9.0476418,0.0152672,0.1526718,1.8167939,11.9039097,4.0653338,0.5051740,-147.6183167,62.9923668,-250.1374054
1770,4.6973996,1.0893562,8.9399033,0.4580153,-0.1984733,2.0076337,9.6342182,3.4212968,2.2170193,-136.2671814,83.9083939,-250.1374054
1780,4.8290801,1.1013272,8.8465300,0.5343512,-0.1984733,1.9236641,7.0053983,2.8873925,3.3901722,-119.1297684,86.9847336,-250.1374054
1790,4.9511838,1.0989330,8.7244263,-0.0458015,0.1679389,1.4580153,3.9144998,2.3798244,4.0006905,-103.0457993,81.7251892,-250.1374054
1800,4.9942794,1.1420283,8.7866755,-0.4809160,-0.0916031,0.7786260,0.2729376,1.8578910,4.4891052,-91.2748108,86.4351120,-250.1374054
1810,5.0756817,1.2210367,8.6813307,-1.4885496,0.0763359,-0.5877863,-5.9758968,2.0230901,6.0788469,-78.7480927,99.2748108,-250.1374054
1820,4.9440012,1.0965388,8.6933022,-1.3282443,1.3740458,-1.8091604,-14.4489336,3.3518653,7.8673067,-58.6488533,108.7328262,-250.1374054
1830,4.7788019,1.1109039,8.9087791,-1.5343511,2.0076337,-1.9236641,-19.6131992,5.5233951,9.2942438,-30.7175579,102.7480927,-250.1374054
1840,4.6375451,1.1276633,8.8824425,-1.7709924,2.1603053,-1.7938931,-19.6131992,7.8768835,9.4378948,2.7022901,83.3053436,-159.2442780
1850,4.6303625,1.1755470,8.9111729,-2.1297710,1.9160305,-1.7022901,-19.6131992,9.0308828,8.5688038,33.0076332,70.2748108,-37.6488533
1860,4.5896611,1.2282192,8.9949694,-0.8702290,1.7557251,-1.2671756,-19.6131992,8.7555504,6.6366930,71.9542007,80.2977066,162.2748108
1870,4.5705075,1.1755470,8.9039907,-0.6793893,1.6946565,-0.9160305,-19.6131992,8.3652983,6.3709383,85.2213745,70.9465637,220.5267181
1880,4.5322008,1.2066715,8.9494801,-0.7938932,1.3664122,-0.4961832,-14.1807842,7.8529415,5.6431046,96.7099228,44.6183205,248.2519073
1890,4.4196739,1.2641320,8.8872309,-0.3358779,-1.0000000,1.2900764,-1.3383518,7.7906923,0.3950413,72.1221390,-55.5267181,234.1603088
1900,4.9152708,1.2210367,8.7340031,1.2519084,-0.8854962,2.5496182,16.6132812,5.8921003,-3.1555417,34.9236641,-56.5954208,168.1374054
1910,5.0301919,1.1587877,8.6454182,-0.4732825,1.8396946,1.2213740,19.6126022,6.1027889,-5.5425487,11.4656487,-4.8015265,51.0992355
1920,5.0110383,1.2186425,8.7770987,-1.1297710,2.8167939,0.3893130,19.6126022,6.2751703,-5.7053533,-18.8244267,-0.3206107,-19.3969460
1930,4.9679432,1.2186425,8.7675219,-2.3435113,3.4656489,0.0076336,19.6126022,5.9974446,-4.4914994,-51.5725174,-17.4122143,-86.7404556
1940,4.8458395,1.2114599,8.7914639,-3.4351146,3.4885497,-1.1832061,19.6126022,5.7197185,-2.4779861,-77.0916061,-41.0228996,-146.6946564
1950,4.6806402,1.1300575,8.9303265,-3.5267177,2.9618320,-1.9389313,17.8774128,5.3988972,-0.5746055,-93.7404556,-49.5038185,-196.4656525
1960,4.5513539,1.1037214,8.9877872,-2.6717558,1.7862595,-1.9083970,15.5885677,5.0230093,1.1276633,-98.0610657,-41.9083977,-236.9923706
1970,4.3837609,1.0175306,9.0883436,-1.9236641,0.4427481,-1.3587786,12.9860840,4.5705075,2.4444675,-92.0687027,-27.0305347,-250.1374054
1980,4.3933377,1.1803354,9.0308828,-1.1603054,-0.3129771,-0.5114504,10.4578199,4.2855992,3.3782012,-81.6183243,-9.0916033,-250.1374054
1990,4.5106530,1.1109039,8.9829988,-0.3969466,-2.0992367,0.1603053,4.0413918,3.8761928,4.2808108,-55.4122124,15.7099237,-250.1374054
2000,4.6207857,1.1755470,8.9207497,0.5954198,-2.5496182,0.1526718,-0.2370248,3.9480183,4.2353210,-42.6946564,21.9923668,-250.1374054
2010,4.6279683,1.2234308,8.8776541,1.2824427,-2.5877862,0.5038168,-5.5186067,4.4986820,3.9073172,-30.4274807,29.3816795,-250.1374054
2020,4.6758518,1.1156923,8.8561068,0.9541985,-2.6488550,0.3282443,-11.7961712,5.8897061,3.4093258,-19.4122143,41.2442741,-250.1374054
2030,4.6830344,1.1300575,8.8225880,0.5572519,-2.1679389,0.4961832,-19.1463337,7.8361821,3.2465210,-8.6870232,52.6106873,-239.6106873
2040,4.5322008,1.2761030,8.9279327,-1.8015267,1.8244275,-1.1984733,-16.7808743,10.1681223,3.8474624,25.6793900,-19.3511448,185.9313049
2050,4.4148855,1.2617378,8.9422979,-1.6488550,1.4198474,-0.7328244,-12.7969427,9.5623922,4.0222383,28.9312973,-30.0458012,210.7175598
2060,4.2401094,1.1085097,9.0835552,-0.3511450,-1.1984733,1.2748091,-6.2224984,8.6933022,4.0701222,31.8702297,-55.3816795,224.4045868
2070,4.5561423,1.1252691,9.0380650,2.2213740,-4.0763359,4.8015265,0.3974355,7.2759418,3.4859397,36.9083977,-88.9465637,222.0534363
2080,4.8027439,1.1875180,8.8848372,2.7786260,-4.3206105,5.1145039,2.0661855,6.8809004,3.2441268,44.5496178,-89.9312973,223.0000000
2090,5.0708933,1.2162483,8.8608952,2.4732823,-3.0458016,4.6106873,3.9456241,6.4331870,2.7317703,54.3587799,-86.0687027,224.7786255
2100,5.2911587,1.2784972,8.6717539,1.5038168,-1.6564885,3.1450381,6.4331870,5.8394279,1.9967541,65.5267181,-72.5190811,224.3435059
2110,5.3797436,1.2784972,8.5328913,0.1068702,0.6259542,1.1908396,9.5097208,5.5832496,0.6871324,75.1755753,-55.2290077,216.6717529
2120,5.2767935,1.2354017,8.5448618,-1.4122137,2.6488550,-0.6946565,13.4792862,5.5425487,-0.7805058,80.6412201,-37.5954208,194.9541931
2130,5.0397687,1.2186425,8.6693602,-2.5572519,3.7328243,-2.2366412,17.4608231,5.4084740,-2.9209111,77.0305328,-17.4351139,156.4809113
2140,4.8362627,1.3096216,8.7340031,-3.8702290,3.8549619,-2.6793892,19.6126022,5.7197185,-4.5369892,62.8702278,6.6335878,99.6335907
2150,4.4077029,1.1348459,9.0979195,-3.7862597,2.8931298,-3.3206108,19.6126022,5.9184365,-5.8083038,11.0763359,24.6488552,-36.4122124
2160,4.2496862,1.1803354,9.1027079,-2.3511450,0.8549618,-1.7480916,19.6126022,5.8370337,-5.0277977,-17.8244267,7.8702292,-102.3587799
2170,4.1922259,1.0079538,9.1601686,-1.0610687,-1.3053435,-0.4122137,18.6818600,5.6814117,-3.9887197,-42.9236641,-9.9236641,-159.4198456
2180,4.1682839,1.2162483,9.1553802,0.0763359,-2.9389312,1.2366412,16.6324348,5.4467812,-2.8203552,-62.0076332,-16.2748089,-205.5419922
2190,4.4196739,1.1180865,9.0620070,0.8778626,-3.8320611,2.7251909,14.5662489,5.2121506,-1.1444225,-71.4351120,-9.7709923,-242.6106873
2200,4.7165532,1.2066715,8.9494801,2.3053436,-4.5419846,2.4351146,10.0340481,4.5202298,0.9935886,-60.1450386,22.4809170,-250.1374054
2210,4.9128766,1.2713146,8.7004843,-0.6106870,-0.6412213,-0.4045801,-12.5814657,5.5257893,0.4429250,-30.3816795,46.6106873,-250.1374054
2220,4.8266859,1.2593436,8.7818871,-1.2824427,0.7786260,-1.0763359,-19.6131992,7.5847921,0.9265513,-35.4274826,44.3969460,-250.1374054
2230,4.6782460,1.1970947,8.8177996,-1.0916030,1.4045801,-0.8931298,-19.6131992,9.5001440,1.7214222,-38.7404594,30.5954189,-187.4656525
2240,4.6231799,1.2737088,8.8968077,-1.2977099,1.6412214,-0.4809160,-19.6131992,10.6062593,2.6192431,-39.5877876,13.0916033,-85.6488571
2250,4.6040263,1.1156923,8.9470863,-1.6259542,0.7862595,-0.4122137,-19.6131992,10.7163916,3.9719603,-35.9618340,6.5343513,11.8320608
2260,4.6207857,1.1970947,9.0356712,-0.5038168,-0.1297710,0.5954198,-19.6131992,9.3421268,6.8282285,-0.6183206,11.2671757,150.7633514
2270,4.6926112,1.1899122,8.8010406,0.0916031,0.6259542,1.3969465,-13.4864693,8.1617918,6.9766679,47.3053436,8.2213745,214.5114441
2280,4.8434453,1.1923064,8.8034344,-0.4732825,1.3664122,1.5267175,-9.7898407,7.8505473,6.1865854,63.5496178,1.0839695,224.4885559
2290,4.5250182,1.2473727,8.9159613,-1.8244275,0.4732825,-0.7557252,-1.4939742,7.2496057,2.2433555,75.1145020,-53.1603050,216.5343475
2300,4.4172797,1.1420283,9.0524302,-1.5954199,-0.9160305,-0.3129771,0.1699875,7.1059542,1.5729824,73.2137375,-61.2366409,218.2824402
2310,4.4914994,1.2234308,9.0644016,0.3206107,-3.6106870,1.7786260,3.0071020,6.6678176,0.6224893,78.9847336,-51.1450386,224.0534363
2320,4.5920553,1.1755470,8.8848372,0.7022901,-3.5954199,2.0992367,4.5537481,6.4427638,0.0023942,85.2900772,-39.4809151,226.6641235
2330,4.8625989,1.1659702,8.6956959,0.2366412,-1.9160305,1.7633588,15.6723642,6.3805151,-5.9088597,55.6946564,-39.4656487,142.0152740
2340,4.9511838,1.1348459,8.8130112,-0.1832061,-1.4732825,1.8244275,17.5685616,6.4786768,-6.8330169,29.2900772,-35.6106873,90.6259537
2350,5.0732875,1.2856797,8.8130112,0.0229008,0.0305344,0.7480916,17.8510761,6.7851329,-6.2943239,-26.5496178,-33.9083977,-18.9083977
2360,5.0421629,1.3096216,8.8154058,-0.7099237,1.5267175,-0.2290076,16.7210197,6.8162575,-5.4802995,-51.9312973,-42.9007645,-66.3664093
2370,4.9104824,1.2282192,8.7890692,-1.5648855,2.2977099,-1.1603054,15.2940826,6.5792327,-4.2736282,-73.4885483,-52.6564903,-107.7099228
2380,4.7788019,1.2354017,8.8345594,-1.7022901,2.7786260,-1.6488550,13.7258883,6.3398137,-2.8897867,-87.8702316,-53.4122124,-141.9618378
2390,4.7261300,1.3239868,8.8177996,-1.7709924,3.1068702,-1.4961832,12.0571384,6.2272868,-1.5155219,-93.9770966,-50.5343513,-169.4351196
2400,4.6519103,1.1923064,8.9231443,-2.8244274,2.4198472,-1.4122137,10.3716288,6.2296810,-0.2035061,-93.7557220,-42.6641235,-191.9313049
2410,4.4699516,1.1779412,8.9614515,-2.6946564,0.7404580,-1.2061069,8.9231443,6.4619174,0.4453192,-88.9694672,-34.8931313,-208.7099304
2420,4.3167233,1.0821736,9.1146793,-1.5496184,-1.5496184,-0.4351145,7.4148049,6.6917596,0.9457048,-82.2824402,-24.5496178,-222.8473358
2430,4.2951760,1.1180865,9.1386213,-0.2137405,-2.9007633,0.8244275,5.9375896,6.9024482,1.1803354,-74.7709961,-15.1603050,-233.6412201
2440,4.3239059,1.0965388,9.0859489,0.6412213,-3.8625953,1.8396946,4.2879934,7.0700417,1.0989330,-68.1679382,-10.1450386,-242.6259613
2450,4.7237358,1.2473727,8.9375095,1.9160305,-3.7709923,3.1908398,-0.1699875,7.5153608,0.0143651,-63.3282433,-10.5038166,-250.1374054
2460,4.9918852,1.3048333,8.6980906,1.8320611,-1.5572519,3.4122138,-3.3135581,7.8313937,-0.0981618,-67.6335907,-11.8244276,-249.8702240
2470,5.1642666,1.1731528,8.6190825,1.0229008,2.9007633,2.9618320,-7.5057840,8.2815018,0.0143651,-73.4274826,-16.7328243,-236.4809113
2480,5.1762376,1.4317253,8.7411861,0.6030535,3.7022901,2.0839694,-12.5335817,9.1027079,0.5243275,-78.8167953,-19.2977104,-207.4351196
2490,5.2528515,1.3790531,8.5711985,-0.9847328,6.2061067,0.7251908,-18.5406036,10.5511932,2.0685797,-82.8549652,-17.5954189,-154.6717529
2500,5.3941088,1.2545552,8.4874020,-3.4427481,7.6259542,-1.0916030,-19.6131992,11.3795824,4.0485744,-81.0992355,-10.7022905,-80.3129807
2510,4.8314743,1.1228749,8.6693602,-7.1755724,8.7022905,-3.2595420,-19.6131992,10.6589317,8.5544386,-46.5267181,14.5572519,74.7709961
2520,4.6686692,1.1276633,8.9877872,-6.9541984,8.3358774,-3.5496182,-19.6131992,9.7922344,10.0436249,-13.8778629,25.9312973,136.5954132
2530,4.4699516,0.9337339,9.0931320,-5.8702292,6.4198475,-3.2213740,-15.7034883,8.7651272,10.6996326,23.6335869,35.5572510,181.4503784
2540,4.4029145,0.9337339,9.2439651,-4.5114503,4.1068702,-2.5038168,-11.9110928,8.0779953,9.9813757,58.8778610,41.0992355,209.2824402
2550,4.3023586,1.0271072,9.2559366,-1.1221374,-0.2442748,-1.0076336,-5.7221127,7.3453732,7.0101867,100.9083939,39.0228996,228.4198456
2560,4.3526363,1.1204807,9.0979195,-0.5343512,-1.6106870,-0.1603053,-3.5026991,7.1801744,5.1810260,104.3358765,23.9160309,226.0534363
2570,4.6710634,1.2569494,8.9494801,1.2290076,-2.2671757,1.0763359,2.1475880,6.2847471,1.2425843,82.1832047,-28.2519093,218.5725250
2580,4.7333126,1.2952565,8.8608952,1.0839695,-1.1908396,1.1679389,3.4907281,6.1051831,0.4836263,84.7175598,-25.0992374,218.1221313
2590,4.7835903,1.2928623,8.7747040,-0.3358779,0.8778626,0.0916031,8.6214762,6.0381460,-3.8761928,81.3282471,17.2290077,203.3053436
2600,4.7093706,1.2042773,8.8489246,-1.0381680,0.8931298,-0.1297710,10.6373835,6.2847471,-5.4994531,65.7862625,17.3740463,184.3206177
2610,4.7069764,1.2306134,8.9015961,-0.7099237,0.7099237,-0.3664122,12.7227230,6.4762826,-7.4722652,36.2061081,-5.4503818,155.7099304
2620,4.5369892,1.1539993,8.9806042,-1.2442749,-0.0076336,-0.0229008,14.8583393,6.5169835,-8.9758167,-5.8473282,-45.6412201,116.2213745
2630,4.4891052,1.1156923,9.0404596,-0.9694657,-0.9083970,0.1832061,16.7832680,6.6678176,-9.6006994,-54.1832047,-88.2519073,68.3358765
2640,4.3502421,1.0989330,9.0308828,-0.1832061,-2.4351146,1.3129771,18.1120434,6.4738884,-9.4833841,-100.8473282,-115.4351120,15.5038166
2650,4.4819226,1.0917504,9.0045462,0.0381679,-3.6946564,2.0229008,18.5932751,6.2631998,-8.2264347,-137.6870270,-112.5572510,-35.8778610
2660,4.5417776,1.0390782,9.0213060,1.0229008,-3.8396947,2.2595420,18.1623211,6.3350253,-6.2105274,-159.2290039,-86.2977066,-82.4656525
2670,4.7548604,1.1899122,8.8800488,1.6030535,-3.5496182,2.7099237,17.1543674,6.4116392,-4.3454537,-167.5648804,-49.8625946,-124.3816757
2680,4.8434453,1.2354017,8.7483683,1.4503816,-2.8015268,2.1679389,15.6891232,6.4762826,-3.0837159,-169.8244324,-14.0839691,-162.2137451
2690,5.0206151,1.2090657,8.7244263,0.8854962,-1.5954199,1.3129771,14.0491037,6.2392578,-2.0374553,-169.4809113,19.0305347,-196.0000000
2700,4.8697815,1.2377959,8.6980906,0.0229008,-0.0534351,0.7175573,12.3516235,5.9639258,-1.4389079,-168.6183167,49.7022896,-227.6564941
2710,4.9248476,1.2066715,8.7363977,-1.5496184,0.8473282,0.0610687,10.5942879,5.5329719,-0.8762733,-167.2442780,79.9770966,-250.1374054
2720,4.8985114,1.1994889,8.7435799,-2.2061069,1.7557251,-0.4427481,8.4802189,4.8697815,-0.2011119,-164.7251892,105.4122162,-250.1374054
2730,4.7979555,1.2042773,8.9422979,-2.4580152,1.6793894,-0.7328244,6.0692701,3.7900019,0.4213773,-161.5801544,122.6717529,-250.1374054
2740,4.7548604,1.1779412,9.0260944,-2.2671757,1.5267175,-1.4580153,2.9568241,2.8969693,1.3096216,-157.0763397,141.2900696,-250.1374054
2750,4.6399393,1.1683644,9.0739784,-1.6030535,1.3816794,-1.4580153,-1.7932479,2.4133430,2.8682389,-149.5572510,169.2442780,-250.1374054
2760,4.5681133,1.1300575,8.9303265,-1.1832061,0.9236641,-0.9618320,-9.8257532,2.9711890,5.2169390,-134.8625946,195.3206177,-250.1374054
2770,4.4412212,1.0869620,8.8800488,-1.0992366,-0.7099237,-0.7251908,-19.6131992,5.1379304,8.1617918,-112.0229034,177.2900696,-250.1374054
2780,4.5465660,1.1516051,8.9901810,-1.1068702,-1.2366412,-0.1984733,-19.6131992,7.4579000,10.4051476,-91.0916061,102.4427490,-178.0076294
2790,4.6112089,1.1085097,8.9949694,-0.9541985,-1.5190840,0.0687023,-19.6131992,8.5065556,11.7458935,-79.9236679,24.9541988,-58.0228996
2800,4.6447277,1.0606259,8.9279327,-0.5801527,-1.1679389,0.2442748,-19.6131992,8.0827837,13.6995516,-64.7404556,-6.1755724,60.4732819
2810,4.6327567,1.1300575,8.9614515,-0.2671756,-0.8549618,0.0992366,-19.6131992,6.9072366,16.4839935,-27.3282452,0.4580153,157.4656525
2820,4.6662750,1.2521610,8.9063845,0.0763359,-0.6488550,0.1603053,-19.6131992,6.0764527,17.8630466,35.6106873,17.3282452,227.9084015
2830,4.7381010,1.1659702,8.8776541,-0.2290076,-0.2366412,0.1755725,-14.7506008,5.5305777,16.6731358,104.9618301,35.7786255,250.1297760
2840,4.7285242,1.2617378,8.7699156,-0.5496183,0.2442748,0.0839695,-10.4314833,5.2408805,13.5463238,160.3893127,48.8549614,250.1297760
2850,4.5609307,1.0582317,8.9925756,-0.5190840,-0.3587786,0.6259542,0.4429250,5.6095858,-0.0646431,171.7862549,-13.0610685,250.1297760
2860,4.5561423,1.1683644,8.9997578,-0.3511450,-1.8091604,1.0687023,2.5258698,5.5617023,-1.7429699,145.7786255,-35.6488533,250.1297760
2870,4.5250182,1.0606259,8.9782104,0.3282443,-2.7862597,1.5343511,4.9009056,5.4108682,-2.8466914,121.4503784,-59.0610695,250.1297760
2880,4.7141590,1.1635761,8.8441362,1.1374046,-2.8320611,2.7480917,13.3691540,5.1953912,-5.8633699,76.6106873,-120.4732819,250.1297760
2890,4.8458395,1.1444225,8.8225880,1.0534351,-1.7175573,2.5114503,18.7201672,5.1546898,-8.2623482,49.4045792,-135.9694672,205.1450348
2900,4.9870968,1.1947005,8.6837254,0.5801527,-0.0152672,2.0839694,19.6126022,5.4060798,-10.0843258,14.0458012,-116.3816757,136.0152740
2910,5.0684991,1.1755470,8.6142941,-0.6183206,1.1526718,1.0534351,19.6126022,5.9280128,-10.4530315,-23.8931293,-72.8320618,53.7862587
2920,5.0756817,1.1516051,8.6956959,-1.5954199,2.5267177,-0.2137405,19.6126022,6.2943239,-9.8688488,-64.1755753,-44.4122124,-30.2748089
2930,4.9104824,1.2354017,8.7603388,-1.9847329,3.5343511,-1.2366412,19.6126022,6.2440462,-8.0923605,-104.4961853,-40.7709923,-107.2977066
2940,4.7021880,1.2306134,8.8177996,-2.6870229,3.9236641,-1.1145039,19.6126022,5.6502872,-5.9567432,-138.0152740,-54.5114517,-173.2366486
2950,4.6447277,1.1372399,8.9422979,-3.0992367,2.9083970,-1.0305344,19.1104202,5.1762376,-4.0102673,-161.7022858,-53.7251892,-224.2824402
2960,4.5417776,1.1348459,8.9758167,-2.3969467,1.9312977,-0.6717557,16.3020363,4.7931671,-1.9919657,-172.8320618,-37.9541969,-250.1374054
2970,4.5010762,1.1420283,9.0835552,-1.5954199,0.4274809,-0.6183206,14.0371332,4.5992379,-0.2202654,-173.6564941,-18.6564884,-250.1374054
2980,4.5393834,1.1132981,9.0356712,-0.7862595,-0.8778626,-0.7938932,11.8344784,4.0006905,0.7757174,-169.0992432,2.7480917,-250.1374054
2990,4.5226240,1.1444225,8.9590569,-0.5419847,-1.8778626,-0.4427481,9.2056589,3.3949606,1.8004304,-162.6641235,26.1145039,-250.1374054
3000,4.5561423,1.1228749,8.9111729,-0.2977099,-2.2900763,0.0076336,6.4930420,2.7557120,2.5713594,-156.0152740,44.5725174,-250.1374054
3010,4.6638808,1.1228749,8.8537130,-0.4732825,-1.8167939,0.0839695,3.2106080,2.1068866,3.4691806,-149.4122162,57.5190849,-250.1374054
3020,4.6590929,1.1300575,8.9111729,-0.2213740,-1.1145039,0.7557252,-0.6895266,1.7860653,5.1092005,-141.9007568,70.6183243,-250.1374054
3030,4.7524662,1.2425843,8.9758167,-0.0992366,-1.1374046,0.7328244,-6.3517847,1.9704180,7.1753860,-129.2519073,89.3053436,-250.1374054
3040,4.7692256,1.1923064,8.8130112,-0.1603053,-0.1679389,0.6717557,-16.4863892,3.3015873,10.2758608,-104.5725174,114.0610657,-250.1374054
3050,4.8051381,1.2186425,8.8321648,-0.8167939,0.8702290,0.6564885,-19.6131992,6.1458845,13.3595772,-62.0458031,95.5419846,-225.2519073
3060,4.8171091,1.1659702,8.8848372,-1.0076336,1.1297710,0.0381679,-19.6131992,8.7435799,14.4824524,-11.8702288,44.1526718,-87.8625946
3070,4.6255741,1.2665262,8.9351149,-1.2290076,1.5343511,-0.3664122,-19.6131992,7.2615767,11.1186161,65.1603088,-18.3282452,199.0915985
3080,4.6279683,1.1683644,8.9063845,-1.7022901,1.3587786,0.0229008,-19.6131992,5.9280128,9.7706871,95.5190811,-36.0839691,250.1297760
3090,4.4747400,1.1611819,9.0213060,-1.5038168,0.4122137,0.2290076,-19.6131992,4.7668314,8.4826136,122.4885483,-55.3435097,250.1297760
3100,4.4819226,1.1061156,8.9925756,-0.8244275,-0.5877863,0.8091603,-13.7258883,4.1970143,7.0149751,143.2900696,-74.3740463,250.1297760
3110,4.4723458,1.0917504,8.9159613,-0.2977099,-1.6412214,1.4122137,-6.7540083,4.1156116,5.5353661,159.6564941,-85.4351120,250.1297760
3120,4.5369892,1.1276633,8.9638453,0.0763359,-2.4656489,1.9389313,-0.3016679,4.4675574,3.4212968,168.6793823,-91.0534363,250.1297760
3130,4.6758518,1.2066715,8.9111729,0.5954198,-3.0076337,2.0534351,7.6590118,4.4460096,-0.8523315,161.7862549,-84.4961853,250.1297760
3140,4.7955613,1.2042773,8.8680773,1.1755725,-2.3740458,2.2748091,10.7211800,4.4579806,-2.8059900,145.3969421,-79.8931274,250.1297760
3150,4.9559722,1.1061156,8.8465300,0.7175573,-1.7099236,1.8549619,13.9677010,4.7117648,-4.9056940,121.0534363,-88.0992355,250.1297760
3160,4.9799142,1.1875180,8.7316093,-0.0305344,-0.1297710,1.0839695,17.6236286,4.9894910,-7.4746594,85.3129807,-105.3358765,220.0076294
3170,5.0493455,1.2258250,8.7268209,-0.9007633,0.7251908,0.0458015,19.6126022,5.2313042,-9.5192976,40.0534363,-117.9083939,156.0229034
3180,4.9823084,1.1994889,8.8154058,-1.6030535,1.8320611,-0.7480916,19.6126022,5.3342543,-10.6732969,-11.6335878,-111.5038147,85.1984711
3190,4.8434453,1.1516051,8.8800488,-1.8702290,1.9389313,-1.2366412,19.6126022,5.1762376,-10.1968527,-61.2671738,-85.1603088,10.8931293
3200,4.6950054,1.1970947,8.9111729,-2.4274809,1.7175573,-1.1832061,19.6126022,4.9296360,-8.4897957,-101.6717529,-64.5648880,-56.4198456
3210,4.5992379,1.1109039,8.9782104,-2.5038168,1.2061069,-1.6183206,19.6126022,4.5441718,-6.4906478,-134.8931274,-56.8167953,-115.2366409
3220,4.4771342,1.1683644,9.0500364,-1.5801526,0.2595420,-1.2824427,19.5174332,4.1227942,-4.7596488,-159.4122162,-39.7709923,-163.4351196
3230,4.4316444,1.1132981,9.0907373,-0.9694657,-0.3358779,-0.7786260,17.2046452,3.9432299,-2.8035958,-172.7404633,-21.0534344,-203.0152740
3240,4.3646073,1.1851238,8.9183559,-0.5038168,-0.7099237,0.1450382,15.4401274,3.5577655,-1.5274929,-178.8625946,2.4351146,-235.2366486
3250,4.4675574,1.1061156,8.9877872,-0.9312977,-1.2595420,0.8473282,13.3428183,3.2010312,-0.2418131,-179.7557220,24.8778629,-250.1374054
3260,4.6088147,1.1180865,8.8345594,-0.8244275,-1.6412214,1.6335878,11.3460636,2.8012016,1.2545552,-175.4809113,45.2748108,-250.1374054
3270,4.7141590,1.1180865,8.9997578,-0.4122137,-1.4656489,1.6717557,9.2726955,2.1811066,2.4731977,-166.4427490,62.5114517,-250.1374054
3280,4.7955613,1.2042773,8.8441362,0.0687023,-1.5496184,1.3816794,6.8306227,1.5370697,3.3853838,-154.2366486,84.2748108,-250.1374054
3290,4.7931671,1.1707586,8.8752604,-0.3587786,-1.1679389,0.6488550,3.2034254,1.0702027,4.5369892,-139.5801544,121.9770966,-250.1374054
3300,4.8147149,1.1899122,8.8393478,-0.6335878,-1.0229008,-0.1526718,-2.2888451,1.2066715,6.7061248,-116.5954208,178.9770966,-250.1374054
3310,4.7500720,1.1348459,8.8561068,-0.5648855,-0.6106870,-0.2977099,-11.6501255,2.4779861,10.2974091,-76.1450348,228.4885559,-250.1374054
3320,4.7261300,1.0941446,8.8177996,-0.7175573,0.1145038,-0.1679389,-19.6131992,4.7668314,13.1656475,-18.0381680,230.4122162,-238.8091583
3330,4.5968437,1.1061156,8.8824425,-0.7404580,0.0992366,0.3893130,-19.6131992,7.4531116,13.3404236,44.2595406,180.7633514,-136.5419922
3340,4.6351509,1.1204807,8.9063845,-0.5267175,-0.4274809,0.4809160,-19.6131992,8.8824425,10.5104914,85.2595444,116.7251892,-16.0610695
3350,4.5465660,1.1539993,8.9399033,0.4427481,-2.0916030,1.0763359,-11.6573086,8.0301113,6.5816269,121.9694672,60.0381660,250.1297760
3360,4.5944495,1.2401901,8.9399033,0.7709923,-3.2213740,1.9618320,-3.4356618,8.2264347,3.2896163,132.1068726,9.1755724,250.1297760
3370,4.6566987,1.2545552,8.9111729,1.1374046,-3.3664122,2.3664122,-0.2633608,8.2192526,1.3982066,119.3664093,-16.2977104,242.2366486
3380,4.6902170,1.1779412,8.8465300,0.9694657,-3.4122138,2.5114503,2.2984219,8.4059992,0.0694315,98.0305328,-47.0992355,217.5572510
3390,4.9368186,1.2641320,8.8417416,0.5572519,-2.3358779,1.6641221,5.2360926,8.6071110,-1.4484847,44.6870232,-123.2061081,154.2213745
3400,4.9416070,1.1755470,8.8345594,0.3740458,-1.3206106,1.2824427,5.4731169,8.5855637,-1.6136837,19.7633591,-154.2519073,128.6564941
3410,4.9535780,1.1923064,8.6956959,0.0763359,0.0916031,1.1297710,4.8817525,8.5927458,-1.6184721,1.5267175,-174.7480927,114.0992355
3420,4.9392128,1.1085097,8.7747040,-0.5648855,1.4580153,0.7251908,5.1020179,8.4347296,-0.9672526,-6.5648856,-181.8778687,112.0076370
3430,5.0062504,1.2593436,8.7962523,-1.3358779,2.1908398,0.4351145,6.2655940,8.2886839,-0.5362985,-2.0000000,-181.1755676,114.9694672
3440,5.0421629,1.1755470,8.8728657,-2.2442749,3.3435113,-0.8244275,8.9662399,8.0229292,-1.2545552,9.0992365,-178.0305328,113.9847336
3450,4.8290801,1.2689204,8.7507620,-2.8625953,3.3893130,-1.8091604,12.7370882,7.6949248,-2.9137285,18.1450386,-167.5114441,102.3969498
3460,4.7141590,1.1156923,8.8752604,-2.9160306,3.0458016,-1.9694656,17.0681763,7.6733770,-5.4156566,19.0992374,-137.5343475,78.5496216
3470,4.5154414,1.1156923,8.9375095,-2.6717558,2.5725191,-1.6183206,19.6126022,7.9175844,-7.6183109,11.5419846,-89.8167953,38.0458031
3480,4.5130472,1.1539993,9.0165176,-2.2366412,1.8778626,-1.1832061,19.6126022,8.1186962,-9.6437950,-8.2442751,-45.6946564,-17.7633591
3490,4.5417776,1.1156923,9.0404596,-1.7251909,1.5419847,-0.3969466,19.6126022,8.1139078,-11.1305866,-42.9465637,-17.4122143,-78.7480927
3500,4.4436154,1.1947005,8.9351149,-0.8625954,1.0076336,0.2595420,19.6126022,8.0325060,-10.9605989,-90.8091583,-5.0229006,-135.0152740
3510,4.5393834,1.1539993,8.9255381,-0.3969466,0.3740458,0.6717557,19.1678810,7.0556765,-8.6669655,-135.0915985,-12.1908398,-187.0610657
3520,4.6399393,1.1563935,8.9686337,-0.2824427,-0.0305344,0.8549618,16.6515884,6.0956063,-6.3637557,-166.7480927,-15.6335878,-231.8396912
3530,4.7261300,1.2018831,8.8177996,-0.7862595,0.1450382,0.6259542,13.6013899,5.2145448,-4.3693957,-186.1450348,-13.2900763,-250.1374054
3540,4.6758518,1.1396341,8.8968077,-0.7251908,-0.0992366,0.5496183,10.4171181,4.5417776,-2.8155668,-197.1526642,-5.1603055,-250.1374054
3550,4.6950054,1.1300575,8.8824425,-0.7251908,0.2824427,0.6183206,7.2136927,3.9288650,-1.3359578,-205.2824402,13.4503813,-250.1374054
3560,4.7261300,1.1013272,8.8728657,-0.5190840,0.5877863,0.8396947,3.1770895,3.5481887,1.1659702,-206.4656525,48.3053436,-250.1374054
3570,4.7309184,1.1348459,8.9087791,-0.3511450,0.5114504,0.9923664,-1.9488702,3.3758070,3.9025288,-196.1068726,102.7328262,-250.1374054
3580,4.8242917,1.1611819,8.8489246,-0.4580153,0.5572519,0.9389313,-9.1314383,4.0796990,7.2903070,-171.6641235,164.7022858,-250.1374054
3590,4.8099265,1.1875180,8.8441362,-0.8015267,0.7938932,0.4274809,-16.7593269,5.3869262,11.0060892,-135.6106873,201.7480927,-220.1221313
3600,4.7428894,1.1803354,8.8249826,-0.9236641,0.8778626,-0.0152672,-19.6131992,6.6797886,14.1879663,-92.1221390,189.0458069,-138.7786255
3610,4.7069764,1.1779412,8.8225880,-1.1374046,0.6259542,-0.2137405,-19.6131992,7.7691450,16.4025917,-49.4656487,146.8091583,-41.1221390
3620,4.6088147,1.1372399,8.8704720,-1.2137405,0.1755725,0.0152672,-19.6131992,7.7595682,17.5230732,-7.1984735,103.2900772,58.5114517
3630,4.5417776,1.1228749,8.9111729,-0.9007633,-0.4427481,0.4122137,-19.6131992,7.2089043,17.6547527,41.8854980,79.9770966,143.1145020
3640,4.4914994,1.1803354,9.0404596,-0.5725191,-1.3587786,0.7862595,-19.0409889,6.2895355,16.2517586,94.7862625,88.5801544,202.4732819
3650,4.4795284,1.2186425,8.8992023,-0.1526718,-2.0687022,1.2442749,-14.9541073,6.0860295,14.0275564,140.1221313,101.9694672,239.7862549
3660,4.5968437,1.1372399,8.9758167,0.4045801,-2.2442749,1.6412214,-11.4107065,6.0764527,10.6517487,170.9770966,100.9160309,250.1297760
3670,4.8218975,1.2114599,8.7220325,0.3816794,0.4503817,1.7251909,-5.9519548,6.4140334,4.2784166,177.6717529,50.1603050,250.1297760
3680,5.0421629,1.3263810,8.6502066,-1.1374046,3.2061069,1.1145039,-1.1444225,6.3062949,-0.2777260,139.4580078,-12.0839691,250.1297760
3690,5.1522956,1.1635761,8.6861191,-2.7022901,4.6870227,-0.1755725,0.9073978,6.1099715,-1.4125718,117.5954208,-33.5572510,250.1297760
3700,4.9535780,1.2377959,8.6406298,-3.6183207,5.9083967,-1.4351145,2.9137285,5.7795734,-1.9656296,99.4580154,-48.7480927,250.1297760
3710,4.8195033,1.0893562,8.8106174,-3.8702290,6.5954199,-1.9923664,5.3917146,5.4850879,-2.4013720,88.3206100,-66.5801544,250.1297760
3720,4.5800843,1.1611819,8.9135675,-4.2900763,5.9618320,-2.1374047,8.6286592,5.2121506,-3.2920105,75.7709961,-81.3206100,250.1297760
3730,4.4962878,1.0989330,9.0452480,-4.3740458,4.4503818,-2.1832061,12.4641504,5.2815819,-4.6255741,63.1832047,-88.3511429,234.2213745
3740,4.4077029,1.0462608,9.1098909,-2.9770992,3.1984732,-1.9847329,17.2453461,5.5497313,-6.4092450,45.9541969,-84.2366409,196.5572510
3750,4.2377152,1.0318956,9.0787668,-2.5038168,2.0152671,-0.3053435,19.6126022,5.8226686,-8.0133524,21.4198475,-64.2977066,142.3740387
3760,4.3143296,1.0438666,9.1386213,-1.5572519,0.1526718,0.3664122,19.6126022,6.2177100,-9.1577749,-11.2977095,-43.2900772,72.6335907
3770,4.3478479,1.0702027,9.0811605,-0.2366412,-1.5343511,0.7022901,19.6126022,6.4355812,-9.5480280,-50.1984749,-28.7328243,-3.2366412
3780,4.5010762,1.0462608,9.1170731,0.3053435,-2.8854961,1.0381680,19.6126022,6.4355812,-8.3700867,-91.9542007,-26.3740463,-77.2671738
3790,4.5465660,1.0582317,8.8704720,1.2595420,-2.6717558,1.2900764,19.6126022,6.1482787,-6.3350253,-128.6488495,-41.2595406,-142.1221313
3800,4.6566987,1.1444225,8.9135675,1.3816794,-2.2671757,1.5954199,19.0481720,5.7221127,-4.1491303,-157.2519073,-50.1526718,-195.1679382
3810,4.7883787,1.1228749,8.8393478,0.7709923,-1.3282443,1.6106870,16.5558205,5.2384863,-1.5562232,-171.7404633,-47.4503822,-235.1374054
3820,4.8721757,1.2425843,8.8082228,-0.2977099,0.0992366,0.8167939,14.1568422,4.9870968,0.4046180,-173.3740387,-33.4351158,-250.1374054
3830,4.9368186,1.3048333,8.7723103,-1.3206106,1.0076336,-0.3053435,11.6932211,4.6040263,2.0613971,-165.8091583,-17.3129768,-250.1374054
3840,4.7596488,1.1994889,8.8585014,-1.4580153,1.7251909,-1.1450381,8.7555504,4.5226240,3.6439564,-152.4961853,0.4122137,-250.1374054
3850,4.5896611,1.1516051,8.9375095,-1.2748091,2.1755726,-1.3587786,6.1147599,4.2688398,4.9440012,-135.0152740,26.1374054,-250.1374054
3860,4.4771342,1.1252691,8.9901810,-1.7022901,2.0610688,-0.5190840,2.4516499,3.8929520,6.2943239,-113.1450348,66.9236679,-250.1374054
3870,4.4579806,1.0965388,8.9829988,-1.8244275,1.4274809,0.4198473,-3.2920105,4.1060348,8.0277176,-83.9694672,117.1526718,-250.1374054
3880,4.4196739,1.0630201,8.9518747,-1.2595420,0.6412213,1.0381680,-11.3939476,5.0158267,9.7802639,-42.4580154,156.0305328,-250.1374054
3890,4.4531922,1.1683644,8.9853926,-0.3893130,-0.0305344,1.6793894,-19.6131992,6.6606350,10.8528605,7.1068702,146.7862549,-190.0992432
3900,4.5729017,1.0821736,8.9949694,0.2213740,-0.5954198,2.0458016,-19.6131992,8.1593981,9.3062143,48.7862587,104.3282471,-99.3435135
3910,4.5345950,1.1420283,8.9446917,0.1221374,-0.1374046,2.3053436,-19.6131992,8.8704720,6.9886389,65.5038147,71.0457993,-2.6641221
3920,4.6447277,1.1516051,8.8872309,0.0381679,-0.4351145,2.5419848,-19.6131992,8.8824425,5.7436604,64.1832047,59.2748108,86.7251892
3930,4.8338685,1.2186425,8.8369532,0.0763359,0.4885496,2.0610688,-18.8039646,8.4874020,5.8897061,64.0457993,55.3893127,156.2061005
3940,4.7979555,1.1707586,8.8321648,-2.7938931,6.5572519,-0.5877863,-1.9321109,8.3868456,1.2377959,102.4961853,-23.2213745,227.0229034
3950,4.6590929,1.1444225,8.9758167,-3.3053436,5.6717558,-1.1297710,0.1364688,8.2479830,-0.3256098,89.4122162,-33.6564903,226.6793823
3960,4.4412212,1.0917504,8.9542685,-3.4045801,4.2519083,-1.2137405,1.8076130,8.0779953,-1.3622938,77.0305328,-45.2671738,227.2519073
3970,4.3598189,1.0390782,9.1458035,-3.0610688,2.8091602,-1.2442749,3.6702924,7.8002691,-1.7717001,63.2748108,-58.5648842,227.2671814
3980,4.2999644,1.0055596,9.1170731,-2.0687022,0.9083970,-0.6488550,6.1410961,7.2089043,-2.3774302,51.5801544,-76.8015289,222.8091583
3990,4.2520804,0.9504932,9.1721401,-0.7557252,-0.8091603,-0.1526718,9.4307127,6.8976598,-3.2824337,40.8625946,-95.0839691,207.6030579
4000,4.2951760,1.0175306,9.0189114,-0.0839695,-2.4809160,0.4961832,14.7242651,6.4020624,-5.1092005,26.8625946,-113.3282471,176.6717529
4010,4.4938936,1.0534433,9.0141230,-0.0381679,-3.0305343,0.9007633,19.6126022,6.3829093,-6.8665352,5.5648856,-105.3664093,127.6793900
4020,4.5585365,1.0845678,8.9973640,0.2519084,-3.2748091,0.8396947,19.6126022,6.3876977,-8.1737623,-22.1679382,-68.7557220,63.7862587
4030,4.5848727,1.1061156,8.9566631,0.6717557,-3.2442749,1.1221374,19.6126022,6.3326311,-7.9774394,-53.5725174,-26.7022896,-9.2137403
4040,4.6327567,1.1539993,9.0213060,0.7786260,-2.5877862,0.9923664,19.6126022,6.1147599,-6.6223278,-85.6717529,-6.6641221,-81.6870193
4050,4.7237358,1.1827296,8.8513184,0.2671756,-1.9312977,0.9312977,19.6126022,5.6407104,-4.7117648,-114.0076370,-12.2595415,-148.3282471
4060,4.7644372,1.2114599,8.9183559,-0.2900763,-0.9618320,0.8396947,19.5820751,4.8362627,-2.8706331,-139.8396912,-24.3511448,-209.7328186
4070,4.7740140,1.1563935,8.8297710,-0.9007633,0.3893130,0.2671756,17.1495800,4.3263001,-0.8954269,-154.2137451,-30.7328243,-250.1374054
4080,4.7189474,1.1085097,8.8776541,-1.0839695,1.0763359,-0.2671756,14.5758257,3.8019729,1.0438666,-159.9541931,-26.7404575,-250.1374054
4090,4.5800843,1.1180865,8.9135675,-1.0916030,1.3435115,-0.4503817,12.0786858,3.3470769,2.7676830,-155.2442780,-14.4580154,-250.1374054
4100,4.5537481,1.1180865,9.0021524,-1.2213740,1.5114504,-0.2442748,8.9135675,2.6360025,4.4986820,-140.8549652,5.4198475,-250.1374054
4110,4.4843168,1.0462608,8.9734221,-1.8015267,1.3053435,0.2290076,5.4779053,1.9153515,5.7412663,-120.3816757,36.5801544,-250.1374054
4120,4.4292507,1.0702027,9.0332766,-0.5343512,-0.5877863,0.6870229,-8.8345594,1.8219782,10.2495251,-54.4198456,156.9313049,-250.1374054
4130,4.4340386,1.1037214,9.0476418,-0.2671756,-0.6717557,1.4045801,-19.6131992,4.2736282,14.9948082,12.9007635,188.9923706,-250.1374054
4140,4.5585365,1.0606259,9.0356712,0.0992366,-0.5496183,1.6946565,-19.6131992,7.2663651,15.8686876,98.0992355,160.4274750,-135.3435059
4150,4.6519103,1.1252691,8.8992023,0.1526718,-0.1068702,1.5267175,-19.6131992,8.6190825,11.7411051,155.7175598,113.2595444,14.5801525
4160,4.7045822,1.1085097,8.8417416,0.0839695,0.6946565,1.1145039,-19.6131992,7.8170285,6.8401995,169.0534363,102.5725174,155.1755676
4170,4.7740140,1.2114599,8.7794924,-0.7786260,1.7709924,1.0000000,-19.6131992,6.9646969,3.9815371,159.9847260,119.6106873,250.1297760
4180,4.7883787,1.1300575,8.8345594,-1.8778626,2.6793892,0.2824427,-16.7138367,6.6510582,2.9664006,149.2137451,110.6946564,250.1297760
4190,4.7500720,1.1659702,8.8680773,-2.4961832,3.3816793,-0.2900763,-11.0827026,7.0125809,1.3072275,135.6946564,58.6946564,250.1297760
4200,4.6662750,1.1132981,8.9782104,-2.5877862,3.3893130,-0.7404580,-6.7923155,7.9870162,-0.7158626,110.4351120,-6.5496182,250.1297760
4210,4.4747400,1.1228749,8.9949694,-2.1068702,2.4503818,-0.8396947,-3.2752512,8.5568333,-2.1092808,76.9007645,-63.0305328,250.1297760
4220,4.4771342,0.9768293,9.1098909,-1.6717557,1.5877863,-0.7175573,-0.7517755,8.5640154,-2.3894010,47.4427490,-103.6641235,250.1297760
4230,4.3574247,0.9935886,9.0787668,-1.2824427,0.4580153,-0.4198473,1.7429699,8.2575598,-2.2098370,31.6946564,-127.6259537,250.1297760
4240,4.3454537,1.0606259,9.0069408,-0.7251908,-0.7786260,0.5038168,4.7835903,7.9511032,-2.3941894,25.8854961,-126.1221390,245.8778687
4250,4.4053087,1.0917504,9.0236998,-0.4122137,-1.7633588,0.9160305,7.6350703,7.6566176,-3.1507533,23.1145039,-112.4351120,236.3511505
4260,4.4412212,1.0486550,8.9901810,-0.3053435,-2.8015268,0.9236641,10.4051476,7.1107426,-4.1491303,18.0152664,-90.8625946,220.3740387
4270,4.5250182,1.0318956,9.0260944,0.8167939,-2.7557251,0.5496183,16.3164005,7.3597383,-6.8354111,-3.2442749,-49.4885483,166.2595367
4280,4.6590929,1.0845678,8.9327211,0.9770992,-2.7022901,0.7709923,19.6126022,7.2807302,-8.3485384,-26.8778629,-35.0000000,117.5038147
4290,4.6543045,1.0678085,8.9662399,0.6717557,-2.0152671,0.7633588,19.6126022,7.1705976,-9.2128410,-57.7099228,-29.8091602,60.8702278
4300,4.6902170,1.1276633,8.8537130,0.3893130,-1.1679389,0.6717557,19.6126022,7.0221577,-9.2128410,-95.6793900,-27.0381680,-4.4274807
4310,4.7069764,1.1587877,8.8848372,-0.1145038,-0.5725191,0.1145038,19.6126022,6.6845770,-7.8242111,-134.2824402,-31.1068707,-70.3740463
4320,4.6997938,1.1611819,8.7890692,-0.6030535,-0.2977099,-0.2977099,19.6126022,6.3422079,-5.4395986,-163.1526642,-32.7404594,-128.2290039
4330,4.6064205,1.2114599,8.8896255,-1.1068702,0.2061069,-0.5343512,19.6126022,5.6981707,-2.8610563,-178.1374054,-26.2824421,-177.6946564
4340,4.5681133,1.2258250,8.9997578,-1.5267175,0.7480916,-0.9007633,17.9396610,5.0517397,-0.4022238,-181.0305328,-9.0610685,-220.6488495
4350,4.4053087,1.0462608,9.0596132,-1.1068702,0.4274809,-0.3816794,15.3922443,4.4747400,1.4580613,-174.0839691,10.4580154,-250.1374054
4360,4.3095412,1.1300575,9.0452480,-0.5877863,-0.4961832,0.2366412,12.5838594,3.8498566,2.6647329,-160.2595367,26.8549614,-250.1374054
4370,4.3215117,1.0797794,9.0620070,-0.3053435,-0.4198473,1.0610687,9.6198530,3.3255291,3.5338237,-145.4885559,37.1984749,-250.1374054
4380,4.6614871,1.1252691,8.9015961,1.1145039,-2.0152671,0.6488550,0.3950413,7.9630742,0.4932030,84.3435135,11.4427481,245.4122162
4390,4.7764082,1.0414724,8.9039907,0.6717557,-2.0534351,0.4732825,1.6304430,7.6733770,0.1292862,75.8702316,7.0610685,244.4885559
4400,4.7524662,1.0869620,8.8082228,-0.2442748,-1.5954199,0.3435115,2.8155668,7.6135225,-0.3830703,67.8015289,0.9694657,244.8625946
4410,4.6997938,1.1396341,8.9303265,-0.2748092,-1.3206106,-0.2442748,4.0725164,7.5249376,-0.6943150,59.4503822,-6.6030536,244.6564941
4420,4.7189474,1.1204807,8.9111729,-0.5725191,-0.9694657,-0.4351145,5.6838059,7.0604649,-0.9217629,51.7938919,-16.0839691,242.9160309
4430,4.6207857,1.1037214,8.8776541,-0.6870229,-1.0992366,-0.4198473,7.8146343,6.8928714,-1.4915800,44.2442741,-23.0534344,237.3435059
4440,4.6255741,1.1180865,8.9901810,-0.7022901,-0.0076336,-0.0381679,10.0101061,6.7947097,-1.9225341,37.6335869,-23.2824421,225.3664093
4450,4.5513539,1.2354017,8.9303265,-0.4274809,0.5877863,0.0076336,12.8041248,6.9311786,-2.7533178,31.9847336,-30.6106873,200.0229034
4460,4.6375451,1.2425843,8.9710283,-0.5496183,1.4427481,-0.4274809,16.0937424,6.6342988,-4.2903876,18.6412220,-46.3511467,161.9389343
4470,4.4651632,1.2449785,8.9925756,-0.6183206,2.0534351,-0.2366412,18.8901539,6.7013364,-5.6981707,-5.1297708,-50.6717567,113.3587799
4480,4.4340386,1.2114599,8.9231443,-1.0076336,2.4122138,0.6106870,19.6126022,6.9263902,-6.1578555,-33.4885483,-40.8931313,55.4656487
4490,4.4005203,1.2401901,8.8776541,-1.5419847,2.4351146,1.3358779,19.6126022,6.6079631,-5.8513989,-61.4045792,-39.1755714,-4.2519083
4500,4.5298066,1.1803354,8.9494801,-1.4122137,2.0992367,1.8473282,19.6126022,6.5959921,-5.0948353,-88.9389343,-46.8549614,-63.9694672
4510,4.5633249,1.1970947,9.0548248,-1.0687023,1.9389313,2.3358779,19.0074692,6.2919297,-4.1634955,-117.0839691,-58.5343513,-117.9312973
4520,4.5178356,1.1420283,8.9734221,-0.6870229,1.8778626,2.4961832,17.3554802,5.9902620,-2.5186872,-138.7251892,-68.3587799,-162.7709961
4530,4.6806402,1.0486550,9.0213060,-0.5572519,1.5954199,2.3740458,15.7082767,5.5305777,-0.5961532,-149.1832123,-63.7404594,-201.8091583
4540,4.6471219,1.0199248,8.9901810,-0.7709923,1.0381680,1.8015267,13.8910875,4.9655490,1.0223188,-149.9618378,-47.4656487,-235.2290039
4550,4.7764082,1.0582317,8.9806042,-0.8320611,0.8854962,1.1679389,12.0930510,4.6973996,2.0278785,-143.9694672,-20.2671757,-250.1374054
4560,4.6447277,0.9840119,8.9111729,-0.8473282,1.3511450,0.6412213,10.0196829,4.2113791,2.8442972,-134.2442780,8.5343513,-250.1374054
4570,4.6159973,0.9504932,8.9710283,-0.9770992,0.4580153,0.7251908,7.7571740,3.8690102,3.6631098,-122.7251892,32.7099228,-250.1374054
4580,4.6471219,1.0773853,8.9877872,-0.9465649,0.1755725,0.5801527,4.8649931,3.3375001,4.6064205,-108.3740463,60.4274826,-250.1374054
4590,4.6495161,1.0893562,8.9111729,-0.8396947,-0.3358779,0.4351145,0.9720409,3.0956869,5.9639258,-89.0763321,100.6946564,-250.1374054
4600,4.5896611,1.0965388,8.9063845,-1.3129771,-0.6641222,-0.1068702,-4.7572546,3.4380560,7.7452030,-61.3053436,148.2213745,-250.1374054
4610,4.5609307,1.0917504,8.8752604,-1.5954199,-1.0839695,-0.5572519,-12.1840305,4.6088147,9.4618368,-21.9312973,168.3587799,-250.1374054
4620,4.4819226,1.0534433,9.0380650,-0.7404580,-1.7633588,-0.7557252,-19.1367569,6.2799587,9.9047613,19.7099228,139.6335907,-216.0381622
4630,4.4627690,1.0318956,9.2032642,-0.0610687,-2.7099237,-0.2442748,-19.6131992,8.2168579,8.2336178,48.0992355,88.9236679,-134.8167877
4640,4.3933377,1.0031654,9.0093346,0.8549618,-3.6870229,1.0305344,-19.6131992,9.4618368,5.2600341,54.7862587,32.7328262,53.3358765
4650,4.7572546,1.2258250,8.8968077,0.7404580,-2.4045801,0.9007633,-5.8059096,8.4634600,4.1946201,104.0152664,-10.5572519,243.5648804
4660,4.6566987,1.1180865,8.9422979,0.4809160,-2.1374047,0.6641222,-3.1292057,8.4514885,2.5976956,105.6259537,-16.5725193,250.1297760
4670,4.6878228,1.1635761,8.9039907,0.2137405,-1.6641221,0.6641222,-1.0055596,8.1306677,1.1420283,100.2977066,-22.3206100,250.1297760
4680,4.6255741,1.2138541,8.9255381,-0.7022901,-0.2213740,0.3893130,2.9664006,7.3693151,-0.7350162,80.8244247,-42.1832047,250.1297760
4690,4.4986820,1.1156923,8.9399033,-0.2519084,-0.1145038,1.0305344,10.7211800,5.9639258,-2.4660151,51.4809151,-82.2824402,239.4122162
4700,4.4555864,1.0510491,9.0452480,-0.0992366,-0.8702290,1.8549619,14.4968176,6.0572991,-3.4500270,39.1374054,-92.8549652,211.7099304
4710,4.5800843,1.0749911,8.9949694,0.3740458,-1.2061069,2.4198472,17.6332054,6.0477223,-4.9440012,21.5801525,-91.2824402,171.6641235
4720,4.6734576,0.9983770,8.9375095,0.6412213,-1.0229008,2.3893130,19.6126022,5.8992829,-6.0309634,-0.2519084,-76.4732819,120.7862625
4730,4.8003497,1.0797794,8.8489246,0.2671756,-0.4885496,2.3435113,19.6126022,5.9878678,-6.1506729,-24.3664131,-50.6335869,61.5725174
4740,4.8410511,1.1156923,8.8010406,-0.0610687,0.4198473,1.9618320,19.6126022,5.8633699,-5.6000090,-45.8015251,-26.4809170,-0.3969466
4750,4.8386569,1.1013272,8.7268209,-0.6335878,1.3969465,1.4274809,19.6126022,5.6598639,-4.4962878,-63.5648842,-16.2519093,-63.0000000
4760,4.9224534,1.1324517,8.8297710,-1.1908396,2.2900763,0.4885496,19.1032372,5.5712790,-3.5697365,-79.5038147,-13.6946564,-117.9542007
4770,4.8338685,1.1396341,8.8393478,-1.3664122,2.9389312,-0.3816794,17.0657825,5.5593081,-2.6982515,-93.7251892,-9.7938929,-163.3053436
4780,4.7093706,1.1085097,8.8920193,-1.7633588,3.1068702,-1.2213740,14.9397421,5.5186067,-1.4676381,-103.3435135,-0.4732825,-199.4732819
4790,4.5968437,1.1396341,8.9566631,-2.2748091,2.7328243,-1.3206106,13.1560707,5.2935529,-0.3160330,-106.8854980,8.8473282,-228.7557220
4800,4.5393834,1.1109039,8.9710283,-2.2824428,1.9160305,-1.4122137,11.3556404,5.0876527,0.9935886,-106.0229034,15.2442751,-250.1374054
4810,4.3167233,1.1372399,9.1003141,-1.6870229,0.7328244,-0.8778626,9.6773138,4.8266859,1.6663558,-101.8167953,21.8091602,-250.1374054
4820,4.3406653,1.0390782,9.0739784,-1.1221374,-0.8778626,-0.3206107,7.6685886,4.3550305,2.2984219,-95.4809189,32.6870232,-250.1374054
4830,4.3837609,1.0486550,9.1481981,-0.5496183,-1.5954199,0.2442748,4.9990678,3.7421181,2.6719155,-88.5648880,50.8702278,-250.1374054
4840,4.5681133,1.0917504,8.9614515,0.2748092,-2.1755726,1.4503816,-7.2256637,3.8115497,4.0892754,-62.9771004,102.6030502,-250.1374054
4850,4.7404952,1.0486550,8.9159613,0.6259542,-1.7480916,1.2366412,-15.9548788,5.8035154,4.4651632,-43.3282433,94.9465637,-250.1374054
4860,4.7476778,1.1468167,8.8513184,0.0381679,-1.1755725,0.8854962,-19.6131992,8.4419117,4.3981261,-32.1450386,60.1068687,-219.8091583
4870,4.8027439,1.1228749,8.8680773,-0.3969466,-0.8549618,0.4580153,-19.6131992,10.3069859,4.2808108,-39.1068687,22.4198475,-112.2671738
4880,4.7261300,1.1061156,8.9255381,-0.6946565,-0.5725191,-0.1374046,-19.6131992,10.7475166,5.7197185,-51.5648842,1.8091604,-0.3969466
4890,4.6782460,1.1492109,8.8800488,-0.9847328,-0.1755725,-0.3053435,-19.6131992,10.0460186,8.5831690,-48.8015251,-7.8167939,95.7786255
4900,4.6183915,1.1683644,8.9758167,-0.7633588,0.0458015,-0.6183206,-19.6131992,9.0476418,10.9055328,-21.4809170,-8.9618320,168.1374054
4910,4.5106530,1.1803354,9.0165176,-0.8015267,0.0839695,-0.2137405,-15.9022064,8.4730368,12.0810804,25.5572510,-7.0381680,222.4732819
4920,4.4531922,1.1683644,8.8896255,-0.7557252,0.1526718,0.1297710,-11.2766323,7.6015515,10.9725704,76.6793900,-7.6946564,250.1297760
4930,4.7309184,1.1252691,8.9135675,-0.0992366,-0.4427481,1.6946565,5.5138183,6.0716643,-2.3415172,112.3816757,-45.3053436,250.1297760
4940,4.7572546,1.0558375,8.8632889,-0.9083970,0.6793893,1.0610687,12.7921543,5.3629842,-5.1331420,54.5954208,-101.6870193,246.1984711
4950,4.7452836,1.1037214,8.8297710,-1.4503816,2.0534351,0.6946565,17.0466290,5.3414369,-6.2248926,30.2061062,-114.1221390,204.8549652
4960,4.9128766,1.1875180,8.8632889,-1.8854961,3.0381680,0.3206107,19.6126022,5.3414369,-7.3334022,6.9770994,-106.7480927,149.5190887
4970,4.9320302,1.1731528,8.8872309,-2.5648854,3.7938931,-0.3435115,19.6126022,5.5521255,-8.3581152,-20.2213745,-81.4122162,84.6412201
4980,4.8458395,1.0965388,8.8441362,-3.1603053,4.7557254,-1.1832061,19.6126022,5.6933827,-8.2479830,-50.4961815,-45.2213745,16.2213745
4990,4.6926112,1.1156923,8.8130112,-3.4656489,5.1221375,-1.5343511,19.6126022,5.7819676,-6.6869712,-79.9083939,-23.2824421,-49.5572510
5000,4.5369892,1.1180865,8.9662399,-3.7175572,4.8015265,-1.7938931,19.6126022,5.5664907,-4.9535780,-105.6106873,-24.3435116,-108.9007645
5010,4.5082588,1.0223188,9.1051025,-3.5038168,4.0305343,-1.8778626,19.4049053,5.4108682,-3.3327117,-126.5572510,-24.2519093,-160.2977142
5020,4.3765783,1.0582317,9.0787668,-2.6106870,2.7709923,-1.5114504,16.8526993,5.2360926,-1.5514348,-138.0534363,-15.3435116,-200.5190887
5030,4.3167233,0.8882443,9.1697454,-2.0534351,1.2519084,-1.1450381,14.4130201,5.2313042,-0.0359128,-139.1526642,1.1450381,-229.1679382
5040,4.3310885,1.0151364,9.1338329,-1.1145039,-0.2061069,-0.5725191,11.8656025,4.8937230,1.1444225,-133.3511505,19.3893127,-250.1374054
5050,4.2712340,0.9959828,9.0428534,-0.0687023,-1.4351145,0.1297710,9.5887289,4.7045822,2.0039365,-123.4961853,38.0839691,-250.1374054
5060,4.4484038,1.0534433,8.9997578,-0.0229008,-2.0763359,0.9083970,7.2998838,4.4699516,2.8562679,-112.1068726,55.9236641,-250.1374054
5070,4.5729017,1.0199248,9.0021524,-0.2213740,-2.1603053,1.0610687,3.7923961,4.0533628,3.6128318,-99.8931274,78.0076370,-250.1374054
5080,4.5609307,1.0582317,9.0691900,0.6793893,-2.1145039,1.0763359,-0.8355721,4.3286943,4.6878228,-85.0687027,103.2671738,-250.1374054
5090,4.6183915,1.0390782,8.9614515,1.0763359,-1.3435115,1.1984733,-8.3174143,5.2648225,5.6742291,-66.6030502,121.5038147,-250.1374054
5100,4.6590929,1.0414724,8.8561068,0.6946565,-0.5801527,1.1374046,-15.6220865,6.8282285,6.5289545,-45.2290077,113.2213745,-236.9236603
5110,4.7285242,1.1755470,8.8082228,-0.1603053,-0.1450382,0.6335878,-19.6131992,8.3461447,6.6055689,-27.9007626,80.0916061,-163.8167877
5120,4.4124913,1.0295014,9.1098909,-0.8702290,-0.8320611,-0.0152672,-15.7801027,9.1649570,10.4290895,15.3511448,2.0992367,144.6335907
5130,4.4340386,1.0702027,9.0667953,-0.3435115,-1.5267175,0.9083970,-11.8105364,8.9375095,10.8169479,51.5267181,-7.0839696,180.6793823
5140,4.5705075,1.1085097,8.9087791,0.4885496,-1.7709924,1.9465649,-4.8003497,8.4754305,7.3142486,107.9389343,-15.9847326,215.9007568
5150,4.6686692,1.1348459,8.9973640,0.1526718,-1.3435115,2.1068702,-2.1356170,8.2240410,4.8769641,120.5190811,-18.6335869,220.9694672
5160,4.7883787,1.1228749,8.8680773,-0.5190840,-0.8931298,1.4351145,-0.0143651,8.0325060,2.6790979,122.5419846,-26.2900772,223.8091583
5170,4.7045822,1.1132981,8.8561068,-0.6870229,-0.0839695,0.9160305,1.9560528,7.8577299,0.6224893,113.7175598,-34.8091621,223.1526642
5180,4.6423335,1.0271072,8.8249826,-1.8320611,1.0305344,-0.0763359,9.2104464,7.0413113,-2.3439114,63.4809151,-85.9236679,197.3969421
5190,4.5776901,1.0175306,8.9159613,-1.8854961,1.2671756,0.0000000,12.3157110,6.9766679,-3.1746953,46.1068687,-101.7328262,173.0458069
5200,4.5274124,0.9911944,9.0045462,-1.9007634,0.9694657,0.0763359,15.6292686,6.8234401,-4.4100971,28.3587780,-107.3206100,137.7480927
5210,4.5944495,1.1037214,9.0165176,-1.5648855,0.4427481,0.0687023,18.7081966,6.6654234,-5.4946647,9.0992365,-91.9618301,90.2137375
5220,4.5441718,1.0749911,9.0667953,-1.0381680,-0.4122137,-0.1755725,19.6126022,6.5481081,-5.9064655,-11.7099237,-61.1297722,36.2977104
5230,4.5130472,1.1109039,8.9949694,-0.8625954,-0.7938932,-0.3129771,19.6126022,6.5768385,-5.7723908,-33.9847336,-25.4809170,-21.9847336
5240,4.5130472,1.0630201,8.9614515,-0.1068702,-1.3969465,-0.7480916,19.6126022,6.5624733,-4.6758518,-54.6106873,-1.2595420,-77.5725174
5250,4.5322008,1.0965388,8.9877872,-0.1755725,-1.7938931,-0.3816794,18.1144371,6.4140334,-3.5074875,-73.7938919,-0.3053435,-127.5877838
5260,4.5226240,1.0989330,9.0308828,-0.5343512,-1.4427481,-0.1603053,16.2517586,6.2368636,-2.5282640,-91.5419846,-1.4427481,-170.9084015
5270,4.5513539,1.0893562,8.9542685,-0.4961832,-1.0916030,-0.2290076,14.1089582,5.9543490,-1.2832855,-105.1679382,1.5190840,-206.3816833
5280,4.5657191,1.0941446,8.9734221,0.1145038,-1.1297710,-0.0229008,11.5735121,5.7029591,0.1580165,-111.3969498,8.2213745,-234.1832123
5290,4.5393834,1.1276633,8.9853926,0.0000000,-0.5954198,0.1755725,9.4977493,5.4467812,1.0989330,-111.9770966,17.6259537,-250.1374054
5300,4.5633249,1.1085097,8.8944139,-0.4045801,-0.2213740,0.6564885,7.3860745,5.1068063,2.1260402,-108.0534363,30.0305347,-250.1374054
5310,4.5130472,1.0845678,9.0308828,-0.5877863,-0.4045801,0.5343512,4.8673873,5.0062504,3.0454090,-99.9312973,46.5877876,-250.1374054
5320,4.4867110,1.0175306,9.0021524,-0.1984733,-1.1297710,0.6641222,1.3670821,4.8075323,3.8905578,-88.4045792,68.3435135,-250.1374054
5330,4.4962878,1.0749911,9.0069408,0.2290076,-1.8473282,0.8396947,-4.6854286,5.0637107,4.5896611,-71.6412201,93.3435135,-250.1374054
5340,4.4699516,1.0702027,9.0428534,0.5801527,-2.7328243,1.3358779,-11.9637651,6.3565731,5.2791877,-52.5725174,105.6946564,-250.1374054
5350,4.4986820,1.0749911,9.0548248,1.0229008,-3.2671757,1.5267175,-18.0928898,7.9654684,5.8729467,-35.9923668,92.1145020,-191.2595367
5360,4.5010762,1.1013272,8.9638453,1.3282443,-3.8625953,1.9236641,-19.6131992,9.0739784,6.2224984,-29.0305347,64.0305328,-112.1221390
5370,4.5633249,1.0702027,8.9470863,1.3511450,-4.3282442,2.2595420,-19.6131992,9.6701307,7.2376347,-27.7709923,37.9541969,-27.7786255
5380,4.7141590,1.1611819,8.8465300,1.0687023,-3.9618320,1.8854961,-18.5525742,9.1481981,10.8791971,0.1908397,2.8778627,113.1603088
5390,4.7141590,1.1659702,8.9446917,0.8015267,-3.7786260,1.5877863,-15.0522690,8.8561068,11.6381550,35.1526718,-4.6946564,159.4885559
5400,4.6854286,1.1204807,8.8345594,0.8473282,-3.2137403,1.3053435,-11.6166077,8.3293848,11.0060892,74.9389343,-9.5877867,191.4274750
5410,4.7548604,1.1539993,8.9015961,0.3893130,-2.5725191,1.6488550,-8.2671366,8.1570034,9.1984758,108.5343475,-11.6488552,212.9618378
5420,4.7141590,1.1228749,8.8417416,0.2671756,-1.9083970,1.6564885,-4.9847026,7.9295554,6.5959921,130.5801544,-14.2213745,226.8015289
5430,4.8386569,1.1587877,8.7747040,-0.1832061,-0.7099237,1.2748091,-2.5306582,7.8409705,4.0078731,139.1374054,-19.3282452,234.7633514
5440,4.8937230,1.0869620,8.8585014,-0.6793893,0.7404580,0.6870229,-0.3926471,7.8313937,1.8698620,134.7328186,-30.0152664,239.4351196
5450,4.8817525,1.1276633,8.8465300,-0.8167939,1.7480916,0.2900763,2.2026544,7.7499914,-0.0454896,122.5267181,-53.3282433,241.2595367
5460,4.8578105,1.0917504,8.8417416,-1.8167939,2.2519083,0.0916031,5.0684991,7.4219875,-1.8028246,103.4656525,-81.2137375,235.9770966
5470,4.8362627,1.0965388,8.8273764,-2.0305343,2.8320611,-1.0687023,9.1242561,7.1394730,-3.5817075,82.3511429,-105.2595444,219.7862549
5480,4.7021880,1.0989330,8.8537130,-2.2061069,3.1755726,-1.4427481,13.3284531,6.8378053,-5.3558016,60.6412201,-117.5343475,191.1832123
5490,4.5872669,1.0965388,8.9734221,-2.2671757,2.7557251,-1.2824427,17.2788658,6.7157016,-7.0987716,37.6335869,-108.1221390,147.0992432
5500,4.6447277,1.0534433,8.9758167,-2.7480917,2.2671757,-1.4732825,19.6126022,6.8497758,-8.4610653,10.6870232,-78.9312973,92.3053436
5510,4.5106530,1.0917504,9.0380650,-2.2137403,1.5267175,-1.5725191,19.6126022,6.9383612,-8.7842808,-21.7862587,-45.7633591,28.6717548
5520,4.4938936,1.0869620,9.0931320,-1.5572519,1.2137405,-1.2442749,19.6126022,7.0628591,-7.8840661,-58.3816795,-26.0229015,-34.5496178
5530,4.4819226,1.0773853,9.0069408,-1.2061069,0.4503817,-1.1221374,19.6126022,6.6773944,-6.2033448,-92.9465637,-27.4961834,-92.1679382
5540,4.4388270,1.0869620,8.9758167,-1.0534351,-0.0458015,-0.6946565,18.0761299,6.2344694,-4.0892754,-120.0763321,-36.3587799,-140.0381622
5550,4.4268565,1.1899122,8.9949694,-0.6335878,0.0229008,-0.1374046,16.1296539,5.8801293,-1.9895715,-136.5496216,-34.3816795,-180.4274750
5560,4.4507980,1.0773853,8.9901810,-0.3893130,0.4427481,0.2290076,14.0874109,5.4898763,-0.0885850,-141.6183167,-19.4580154,-211.3587799
5570,4.5633249,1.1396341,8.9015961,-0.5190840,0.9236641,0.9847328,11.9086981,5.1786318,1.2665262,-137.0381622,3.0610688,-235.7175598
5580,4.6614871,1.1492109,8.9159613,-0.6870229,1.6717557,1.1755725,9.8113880,4.8937230,2.3056045,-127.5572510,27.2519093,-250.1374054
5590,4.7788019,1.1539993,8.8608952,-1.0839695,2.1526718,0.9694657,7.4986014,4.6303625,3.0166788,-114.8931274,51.5343513,-250.1374054
5600,4.7955613,1.1947005,8.9063845,-1.7022901,2.2366412,0.1603053,4.7620430,4.5202298,3.8498566,-100.5496216,75.8244247,-250.1374054
5610,4.7021880,1.1061156,8.9446917,-1.8702290,2.2061069,-0.3282443,1.2641320,4.4531922,4.8290801,-84.7099228,98.3511429,-250.1374054
5620,4.5705075,1.0510491,9.0093346,-1.7709924,1.1679389,-0.4580153,-4.4843168,4.9176650,5.9399838,-66.1984711,120.4198456,-250.1374054
5630,4.4627690,1.0127422,8.9566631,-1.8091604,0.0000000,-0.1755725,-11.6932211,6.1985564,7.0077925,-43.6564903,135.0381622,-243.1603088
5640,4.3837609,0.9983770,9.1553802,-0.9694657,-0.8931298,0.2519084,-19.0840836,8.0325060,7.7715387,-17.5801525,119.9923630,-180.9084015
5650,4.5752959,1.0582317,8.9829988,-0.0458015,-1.4122137,1.6946565,-19.6131992,10.5583754,7.3166428,12.5114508,52.7480927,-3.0763359
5660,4.6997938,1.1755470,8.8345594,-0.1068702,-0.2290076,1.0381680,-19.1726685,10.8935623,9.1888990,35.6717567,34.9312973,138.6412201
5670,4.8027439,1.1252691,8.8417416,-0.7175573,0.9618320,0.8549618,-16.3618908,10.4769726,9.5097208,65.6335907,32.0000000,184.1145020
5680,4.8386569,1.1180865,8.9590569,-0.8015267,1.8396946,0.3129771,-13.1776190,10.0196829,8.7196379,95.2137375,26.3206100,217.5572510
5690,4.6758518,1.0845678,8.8656836,-2.3587787,3.2061069,-0.3206107,-6.1770086,8.8896255,3.9887197,123.4732819,22.4045811,250.1297760
5700,4.6112089,1.1468167,8.8944139,-2.5954199,2.9083970,-0.9312977,-3.4715748,8.4036045,1.8626794,116.5114517,17.0992374,250.1297760
5710,4.4388270,1.0558375,9.1170731,-2.0458016,1.8015267,-1.0000000,1.4149660,7.3142486,-1.3287752,77.0687027,-25.3358784,250.1297760
5720,4.4053087,1.0702027,9.0835552,-1.3893130,0.4809160,-0.3282443,4.1634955,6.8665352,-2.1715298,50.6488533,-59.2519073,242.4351196
5730,4.3071470,1.0606259,9.1027079,-0.4580153,-0.7022901,0.0992366,7.9534974,6.4307928,-3.1172347,22.9541988,-101.2442780,221.7480927
5740,4.4005203,1.0175306,9.0189114,-0.1679389,-1.3435115,0.6106870,12.0499554,6.1291251,-3.9887197,-4.0534353,-138.6870270,191.1832123
5750,4.5345950,1.0893562,8.9638453,-0.1679389,-1.6030535,0.6717557,16.0817699,5.7963328,-4.6423335,-27.1984730,-149.6641235,147.1679382
5760,4.5729017,1.0318956,9.0620070,0.0992366,-2.0152671,0.4961832,18.9954987,5.6071916,-4.9152708,-45.0305328,-131.0381622,94.3664093
5770,4.6064205,1.0821736,8.9925756,0.4885496,-2.0534351,0.5114504,19.6126022,5.5640965,-5.2145448,-61.1221390,-97.9160309,37.4427490
5780,4.6351509,1.0318956,8.9159613,0.4427481,-1.9083970,0.7633588,19.6126022,5.8154860,-4.6399393,-78.8549652,-66.7099228,-17.3435116
5790,4.6686692,1.0414724,8.9207497,0.3206107,-1.5954199,0.7328244,19.1463337,5.7747850,-3.3973548,-98.6412201,-50.1374054,-67.7175598
5800,4.6614871,1.0654143,8.9375095,0.1221374,-0.6335878,0.7633588,17.7193966,5.5808558,-1.5658000,-114.2595444,-46.9389305,-110.0534363
5810,4.6638808,1.1252691,8.9063845,-0.2824427,-0.7022901,0.5114504,16.1751442,5.5449429,0.1795642,-123.3511429,-41.2671738,-147.5496216
5820,4.6543045,1.1539993,8.9087791,-0.6259542,-0.7557252,0.1068702,14.0610743,5.5329719,1.8698620,-121.7862625,-29.1145039,-177.5496216
5830,4.5465660,1.0821736,8.9973640,-0.8625954,-0.8091603,-0.1221374,11.9781294,5.8657641,3.0358322,-111.3740463,-11.7175570,-199.4427490
5840,4.5082588,1.1085097,9.0045462,-0.5267175,-1.1526718,-0.0076336,9.9837704,6.2129216,3.7085996,-95.2061081,5.6259542,-215.3282471
5850,4.4100971,1.1300575,9.0691900,-0.4122137,-1.7175573,0.1526718,8.1498213,6.6678176,3.6248028,-77.2442780,20.3664131,-227.8396912
5860,4.7740140,1.1276633,8.8704720,0.5954198,-1.1908396,1.8549619,-8.3461447,7.4650826,2.6264257,-76.8396912,73.4885483,-228.8473358
5870,4.8506279,1.1300575,8.8441362,0.0000000,-0.2213740,1.5496184,-14.6021614,8.4897957,5.2887645,-80.8702316,87.8320618,-181.4885559
5880,4.8434453,1.1276633,8.8130112,-0.4885496,1.3435115,1.0534351,-19.6131992,9.4426832,8.2982607,-72.5725174,81.7557220,-112.0000000
5890,4.7644372,1.1132981,8.8106174,-0.9312977,2.5648854,0.3969466,-19.6131992,9.7946291,11.1210098,-54.2824440,54.8167953,-31.1450386
5900,4.7572546,1.1252691,8.9422979,-1.1145039,3.2824428,0.0305344,-19.6131992,9.3684635,12.9453821,-26.3358784,26.0152664,45.1297722
5910,4.6782460,1.0247130,8.8585014,-1.9541985,3.5954199,0.0992366,-19.6131992,8.8345594,13.4816809,10.1603050,12.2748089,109.3282471
5920,4.6375451,1.0678085,8.9351149,-2.3816793,3.1374047,-0.0458015,-17.0705700,8.2312231,13.0219965,50.4427490,17.8702297,164.3053436
5930,4.5202298,1.0678085,9.0763721,-2.1679389,2.1221373,-0.2137405,-14.0491037,7.7068958,11.7674408,91.2213745,24.4732819,205.7938995
5940,4.4507980,0.9768293,9.0596132,-1.3893130,1.0381680,-0.3435115,-10.8696203,7.2256637,9.6054878,120.1221390,24.2595425,236.8167877
5950,4.3286943,1.0582317,9.0524302,-0.7404580,-0.4885496,0.0610687,-8.0085640,6.8593526,7.1825686,138.7404633,18.1832066,250.1297760
5960,4.1970143,1.0103480,8.9470863,-0.5572519,-2.5267177,2.1832061,-3.0238612,6.3182659,2.1835008,138.9541931,-5.1068702,250.1297760
5970,4.3191175,1.0031654,8.9782104,-0.6030535,-3.9007633,3.3969467,-0.8523315,6.0309634,0.0718257,124.5648880,-19.9312973,250.1297760
5980,4.4723458,1.1348459,9.0332766,0.2519084,-4.2977099,3.8320611,2.0733681,5.4539638,-1.7022687,106.6106873,-36.9160309,250.1297760
5990,4.7907729,1.1204807,8.8177996,0.7022901,-1.6183206,0.6564885,18.5501804,4.7069764,-7.2400289,28.8854961,-70.4122162,202.4580078
6000,4.7668314,1.0965388,8.8273764,0.0763359,-0.7938932,0.2671756,19.6126022,5.2073622,-8.9015961,-0.7480916,-55.8702278,138.1679382
6010,4.7309184,1.0534433,8.8680773,-0.6564885,-0.4427481,0.3893130,19.6126022,5.3701668,-9.5456333,-41.7633591,-43.2824440,62.7786255
6020,4.7021880,1.0007712,8.9686337,-1.0076336,0.1679389,0.2290076,19.6126022,5.6335278,-8.4131813,-86.8854980,-38.6335869,-11.2061071
6030,4.6519103,1.0845678,8.9877872,-0.3969466,0.2213740,-0.0534351,19.6126022,5.4850879,-6.2320752,-126.2748108,-47.0534363,-77.9618301
6040,4.6303625,1.1013272,8.9973640,-0.3053435,0.4122137,0.0610687,19.6126022,5.1953912,-3.6080434,-153.2519073,-53.4885483,-132.1526642
6050,4.5920553,1.0749911,8.9590569,0.0000000,0.1526718,0.4503817,18.4807491,4.7213416,-0.8643024,-165.4351196,-44.7633591,-177.0610657
6060,4.5848727,1.0510491,8.9207497,0.0381679,-0.4809160,0.5114504,16.2349987,4.4795284,1.4101776,-163.6259613,-22.3129768,-214.1908417
6070,4.5585365,1.1228749,8.9039907,-0.0152672,0.0000000,0.9694657,13.9988260,4.4914994,2.9328821,-151.5725250,6.6564884,-242.0381622
6080,4.7237358,1.0702027,8.7866755,-0.1297710,0.9847328,1.0152671,11.6070309,4.3406653,4.1060348,-132.9923706,32.1755714,-250.1374054
6090,4.8051381,1.1563935,8.8465300,-0.4885496,1.6335878,0.5877863,9.6797075,3.9623835,4.6351509,-112.4274826,52.0916023,-250.1374054
6100,4.8410511,1.1755470,8.9590569,-1.1145039,2.6870229,-0.3740458,7.2400289,3.4380560,4.8961172,-95.5496216,66.2595444,-250.1374054
6110,4.7524662,1.1731528,8.9518747,-1.3969465,3.4427481,-0.9236641,4.3502421,3.0334380,5.3342543,-82.3664093,76.3282471,-250.1374054
6120,4.6686692,1.1276633,8.8465300,-2.5190840,3.2595420,-1.0229008,0.1484398,2.8251436,6.0980005,-70.3893127,90.4122162,-250.1374054
6130,4.5130472,1.0965388,9.0332766,-2.5801528,2.8167939,-0.9770992,-5.6838059,3.3231349,6.9742737,-54.3511467,107.0534363,-250.1374054
6140,4.3957319,1.0031654,8.9997578,-2.1755726,2.1068702,-0.6564885,-13.0435438,4.4627690,8.0348997,-32.2671738,117.9770966,-250.1374054
6150,4.3382711,0.9983770,9.0332766,-1.6488550,0.9847328,0.0992366,-19.6131992,6.4882536,8.8177996,-5.0000000,108.5572510,-203.9236603
6160,4.3215117,1.0079538,9.0524302,-1.3511450,0.1221374,1.2137405,-19.6131992,8.2048874,8.2072811,20.4885502,78.0916061,-106.6793900
6170,4.8673873,1.2066715,8.7148495,-0.2213740,-0.5038168,1.0610687,-1.0534433,7.9941988,2.2170193,121.1145020,-26.5190830,250.1297760
6180,4.8889351,1.2042773,8.8201942,-0.9007633,1.9618320,-0.1145038,5.4755111,7.4818420,-1.4652439,89.0152664,-68.4122162,250.1297760
6190,4.8314743,1.1659702,8.7914639,-1.6488550,3.4045801,-0.5190840,8.2647419,7.2759418,-2.7221935,67.8396912,-90.9007645,233.3206177
6200,4.7428894,1.1061156,8.7172441,-2.6030533,4.1679387,-1.0152671,10.9821472,7.2711535,-3.6487448,43.4656487,-108.3893127,204.6564941
6210,4.6159973,1.1228749,8.8417416,-3.3740458,4.2290077,-1.0000000,13.8432035,7.4004397,-4.6495161,19.5419846,-119.4656525,171.7175598
6220,4.5633249,0.9768293,9.0524302,-3.3816793,4.2061067,-1.2290076,17.1950684,7.2831244,-5.6215568,-4.7404580,-115.2442780,130.6564941
6230,4.4316444,1.0678085,9.1051025,-2.5267177,3.4885497,-1.4809160,19.2373123,7.2831244,-5.8705525,-27.7862587,-92.8396912,78.9236679
6240,4.3717899,0.9792235,9.0213060,-1.9465649,2.1145039,-0.7938932,19.6126022,7.1059542,-5.7149301,-49.6335869,-70.4045792,25.4732819
6250,4.2951760,0.9792235,9.0811605,-0.9389313,1.1832061,-0.2366412,19.6126022,7.1921453,-5.2145448,-73.5419846,-54.1297722,-27.5648861
6260,4.2448978,1.0510491,9.0955257,-0.1297710,0.1374046,0.7328244,18.8446655,7.0173693,-3.6990228,-95.6183243,-47.4045792,-74.7175598
6270,4.5106530,1.1228749,9.0404596,-0.1450382,-0.4122137,1.6717557,17.4991302,6.7300668,-2.0590029,-112.1145020,-46.8015251,-116.0457993
6280,4.6040263,1.1228749,8.8465300,-0.3282443,0.2290076,1.7251909,16.1871147,6.4164276,-0.4094064,-121.3435135,-40.7328262,-151.9007568
6290,4.8027439,1.1587877,8.9710283,-0.3435115,1.1832061,1.4198474,14.6428623,6.2177100,0.9313397,-123.0763321,-25.7862587,-182.5648804
6300,4.8649931,1.1300575,8.9710283,-0.2442748,2.2977099,0.7404580,13.0267849,6.0261750,2.0183017,-118.1908417,-8.5496187,-209.2748108
6310,4.7764082,1.0438666,8.9231443,-0.7022901,3.0839694,0.0839695,11.3963413,5.7412663,2.5785420,-110.6183243,7.2824426,-233.2442780
6320,4.7644372,1.2521610,8.8920193,-1.8396946,3.5267177,0.2519084,9.4714136,5.3581958,3.0525916,-103.2213745,19.4274807,-250.1374054
6330,4.6327567,1.1420283,8.9111729,-2.4809160,2.5419848,-0.5267175,7.1897511,4.7021880,3.2489152,-95.8931274,32.3587799,-250.1374054
6340,4.4579806,1.0079538,9.0787668,-2.6793892,1.6335878,-0.6183206,4.6878228,4.0461802,3.6032550,-90.5190811,43.9923668,-250.1374054
6350,4.4172797,0.9121862,9.0883436,-2.1374047,0.7786260,-0.2519084,1.2377959,3.8330972,4.0389977,-86.4274826,54.3969460,-250.1374054
6360,4.3143296,0.9480990,9.1434097,-1.3969465,-0.9465649,0.2900763,-3.4500270,3.7445123,5.0756817,-81.2290039,68.6335907,-250.1374054
6370,4.3574247,0.9624642,9.1721401,-0.1450382,-2.4961832,0.8167939,-10.3213511,4.6016321,6.6965480,-70.8931274,86.2442780,-250.1374054
6380,4.4220681,0.9983770,9.1410151,0.5038168,-3.3206108,1.3358779,-17.5111008,6.2009506,8.2360115,-53.8320618,90.5343475,-203.3129730
6390,4.5441718,0.9983770,8.9949694,1.2137405,-3.9389312,1.2366412,-19.6131992,7.5680327,9.4019823,-32.3664131,70.0916061,-118.8167953
6400,4.5513539,1.0797794,8.9375095,1.2671756,-3.5572519,1.5877863,-19.6131992,8.1210909,9.8137827,-11.8625956,43.4427490,-20.0381680
6410,4.6878228,1.0366840,8.9039907,1.2442749,-2.7404580,1.5877863,-19.6131992,7.9127960,10.1896706,6.0381680,32.1755714,70.9083939
6420,4.7021880,1.1779412,8.9063845,0.9160305,-1.6183206,1.6564885,-19.6131992,7.6805596,11.3939476,28.6335869,35.5267181,146.9160309
6430,4.8195033,1.2114599,8.8800488,0.3511450,-0.5038168,1.0992366,-14.4992113,7.2807302,12.2965574,59.8320618,36.8396950,197.5267181
6440,4.8075323,1.2641320,8.7890692,-0.8396947,0.8702290,0.6946565,-10.0939026,7.2424231,12.1313581,95.7099228,27.0152664,222.1068726
6450,4.8147149,1.1444225,8.7938576,-1.4045801,1.8702290,-0.1297710,-6.5744443,7.2304521,10.5559816,129.3893127,8.1679392,228.3053436
6460,4.7261300,1.1180865,8.9111729,-1.7328244,2.5267177,-0.8396947,-3.9791429,7.4890246,8.0588417,152.3282471,-9.6259546,227.0992432
6470,4.5130472,1.1156923,9.0524302,-1.5877863,2.5038168,-0.7251908,-2.0326669,7.7452030,5.0852585,160.9160309,-22.5343513,224.3053436
6480,4.4627690,1.0318956,9.0572186,-1.9083970,2.0916030,-0.1755725,-0.2705434,7.9367380,1.9368993,154.7862549,-33.3435097,223.4351196
6490,4.3526363,1.0342898,8.9494801,-1.5419847,1.1526718,0.0076336,1.5011568,8.1522150,-0.2059003,138.1755676,-46.1450386,223.1679382
6500,4.4172797,1.0414724,9.0452480,-1.1984733,0.6564885,0.6870229,3.6248028,7.9511032,-1.7693061,117.2595444,-61.8702278,220.6030579
6510,4.4723458,1.0390782,9.0404596,-0.2671756,-0.3740458,0.7404580,9.3947992,7.6590118,-4.1084290,71.8244247,-93.0763321,192.8702240
6520,4.4938936,1.1516051,8.9494801,-0.1374046,-0.1832061,1.2137405,13.5223818,7.6614060,-5.5257893,47.5572510,-106.5725174,161.3282471
6530,4.5322008,1.1779412,8.8872309,-0.2595420,-0.0152672,1.5572519,16.8096046,7.7547798,-6.5912037,19.9847336,-107.5343475,113.9160309
6540,4.6830344,1.0247130,8.8656836,-1.0916030,0.4809160,1.4351145,18.7967815,7.7691450,-7.4004397,-12.3587790,-95.2290039,57.5496178
6550,4.6327567,1.0486550,8.8848372,-1.2900764,1.0534351,1.2442749,19.1008434,7.9439206,-7.0987716,-48.3282433,-78.2137375,-0.6412213
6560,4.3215117,0.9337339,9.0979195,-2.1603053,1.4961832,1.2366412,-14.0706511,7.4986014,9.1338329,-10.5267172,29.6183205,-159.0763397
6570,4.4771342,0.9145803,9.1027079,-1.2061069,1.5954199,1.0076336,-16.2780933,8.1857338,8.6597834,2.7022901,-16.6870232,-101.1297684
6580,4.5752959,0.9888002,9.1051025,-0.0458015,1.0381680,0.7862595,-16.5797615,8.6286592,8.2144642,13.0229006,-44.5954208,-35.8091621
6590,4.6040263,1.0390782,8.9279327,0.0305344,1.6488550,0.5190840,-14.8703108,8.3605099,7.9678626,26.8244267,-48.5343513,26.8473282
6600,4.5513539,1.0438666,8.9566631,-1.6106870,3.5572519,-0.5496183,-9.8568783,8.1091194,7.3525558,73.8625946,-18.8931293,117.5572510
6610,4.5250182,1.1252691,8.9590569,-2.5114503,3.7251909,-0.6564885,-7.4722652,8.2479830,6.4882536,99.0305328,-10.5343513,148.8702240
6620,4.5609307,0.9720409,9.1074963,-3.2290077,3.8167939,-0.8702290,-5.0756817,8.4682484,4.9440012,117.7404556,-10.2977095,170.5648804
6630,4.4077029,0.9217629,9.0691900,-2.7251909,3.8396947,-0.9083970,-3.0478032,8.7890692,3.1124463,126.1908417,-12.7786255,184.5496216
6640,4.3478479,0.9935886,9.0835552,-2.1755726,3.2442749,-0.8702290,-1.2377959,9.2008705,1.1994889,125.7786255,-19.0152664,195.9770966
6650,4.2592630,0.9313397,9.0524302,-1.9236641,2.9236641,-0.6946565,0.4692611,9.4402885,-0.5219333,118.4656525,-30.8091602,206.2595367
6660,4.2472920,1.0247130,9.1194677,-1.0534351,2.6488550,-0.3435115,2.6647329,9.6414013,-2.1308286,105.9923630,-46.7633591,213.2137451
6670,4.2305326,1.0414724,9.1817169,-0.5038168,-0.0839695,1.4809160,13.7043400,9.3971939,-6.7611909,47.7709923,-78.0610657,158.6717529
6680,4.2808108,0.9888002,9.1553802,-0.2366412,-0.5877863,1.6870229,16.9819851,10.0005293,-8.2791071,27.6717548,-56.0610695,114.6412201
6690,4.3286943,1.0103480,9.1266499,-0.1145038,-0.6335878,2.1679389,19.3546276,10.5847120,-9.7347746,3.1603053,-30.3053436,60.5343513
6700,4.4100971,0.9720409,9.1242561,-0.0534351,-1.1068702,2.1450381,19.6126022,10.5895004,-10.8935623,-31.6641216,-0.9007633,0.7328244
6710,4.5274124,1.0031654,8.9877872,0.1984733,-0.8625954,2.0305343,19.6126022,10.0819321,-10.7906122,-73.7099228,15.6870232,-59.6946564
6720,4.5848727,1.0510491,8.9351149,0.2290076,0.3129771,2.1145039,18.1000729,9.2439651,-9.4402885,-116.8167953,11.0916033,-113.3969498
6730,4.6279683,1.0725969,8.9518747,-0.0610687,1.8320611,1.5038168,15.9141769,8.5328913,-7.6039457,-154.8320618,-4.6641221,-158.7328186
6740,4.7428894,1.0031654,8.8393478,-1.9465649,3.5954199,1.0687023,13.8958759,7.4100165,-5.3605900,-186.5877838,-23.0763359,-193.4885559
6750,4.8027439,1.0678085,8.7747040,-2.6793892,5.7862597,-0.2977099,12.1600885,6.2248926,-2.8347204,-208.3969421,-35.2366409,-222.4198456
6760,4.6112089,1.1156923,8.8872309,-3.4274809,7.0381680,-0.5343512,10.2926207,5.2049680,-0.2202654,-218.4885559,-33.1984749,-243.3816833
6770,4.4555864,0.9600700,8.9638453,-4.1221375,6.5954199,-0.8702290,8.0492649,4.5178356,2.5498118,-217.0458069,-15.3893127,-250.1374054
6780,4.3095412,0.9792235,9.1146793,-4.5190840,5.7328243,-1.3129771,5.5832496,4.0054789,5.0517397,-203.6106873,14.7862597,-250.1374054
6790,4.1874375,0.9600700,9.1290445,-4.0305343,3.9389312,-1.4351145,2.6024840,3.7445123,7.5033898,-180.0839691,57.5038185,-250.1374054
6800,4.0078731,0.8858501,9.1458035,-3.5343511,1.9541985,-1.3511450,-1.0797794,3.8115497,9.9310980,-145.9313049,105.7786255,-245.0305328
6810,3.9552009,0.8355721,9.3133974,-3.0152671,-0.0152672,-1.0534351,-5.3605900,3.8474624,12.2319136,-103.7480927,146.6717529,-219.3969421
6820,3.9192882,0.8714849,9.3229742,-1.9694656,-1.1068702,-0.3358779,-10.8169479,4.0964580,14.3555603,-56.7786255,167.6335907,-178.8473358
6830,3.9456241,0.8858501,9.1769285,-0.7862595,-2.8244274,1.1832061,-15.1935263,4.7357068,15.1456423,-3.8473282,159.4503784,-125.0687027
6840,4.2089849,0.8571198,9.1410151,-0.0152672,-3.6488550,2.0000000,-18.1359844,5.1235652,14.2071199,47.0839691,132.4809113,-64.2519073
6850,4.7309184,1.0893562,8.9135675,-0.4122137,2.0381680,1.3129771,-14.8008795,5.6024032,4.0150557,102.7022934,80.3282471,180.3587799
6860,4.5058646,1.0007712,8.9806042,-2.4198472,4.4122138,0.1679389,-8.3724804,6.4475522,4.1395535,70.0687027,19.0687027,219.0686951
6870,4.4603748,0.9744351,8.9327211,-3.6183207,4.7557254,-0.6259542,-5.4755111,7.1586266,4.3765783,59.7175560,-22.1984730,218.1145020
6880,4.3071470,0.9457048,9.0260944,-3.6412213,5.0534353,-0.6106870,-3.0358322,7.6733770,4.3574247,57.3893127,-49.7480927,213.6717529
6890,3.9552009,0.7996593,9.3900108,-3.8702290,5.6335878,11.0229006,2.7796540,8.0420828,-0.4955972,87.7862625,-40.7022896,239.7099304
6900,4.0749106,0.9480990,9.1984758,-2.2595420,2.4732823,11.1755724,5.2528515,7.8481531,-2.0039365,80.8778610,-24.7328243,246.2977142
6910,4.1491303,1.0534433,9.0691900,-1.1374046,-1.9083970,6.8015265,11.4394369,7.3669209,-4.1036406,48.6183205,-33.9236641,225.2137451
6920,4.4699516,0.9385223,9.2008705,-0.2366412,-3.8702290,5.8702292,15.1049414,7.0987716,-5.3893204,22.3053436,-55.3511467,189.4732819
6930,4.5752959,1.0055596,9.1649570,-0.2824427,-2.5648854,4.0992365,18.1503506,6.9096308,-6.3900914,-12.4885492,-72.6641235,138.3893127
6940,4.5298066,0.9720409,9.1338329,-0.0916031,-2.7786260,2.9694657,19.6126022,6.6797886,-6.3876977,-50.1679382,-74.5725174,78.5114517
6950,4.5202298,0.8834559,9.1865053,0.3206107,-0.3893130,2.2748091,19.6126022,6.6342988,-4.6351509,-82.9312973,-63.7938919,20.4580154
6960,4.4675574,0.7924767,9.0260944,0.4732825,1.0381680,2.2442749,19.1367569,6.5098009,-2.0637913,-103.1221390,-50.2748108,-32.2900772
6970,4.4914994,0.9217629,8.9901810,0.0458015,2.1908398,2.5648854,17.6810894,6.0884237,0.3687052,-110.3435135,-40.0992355,-78.0381699
6980,4.4891052,0.9241571,8.9159613,-1.0610687,2.5877862,2.5190840,15.7896795,5.9160423,2.3965836,-106.8931274,-23.4580154,-115.5648880
6990,4.2377152,0.7900825,9.1936874,0.2061069,-3.8320611,0.5190840,-11.7123747,8.2719250,4.7309184,16.3282452,43.9236641,-124.4274826
7000,4.3981261,0.9193687,9.1362267,-0.1526718,-2.1221373,0.0381679,-7.7906923,10.0555954,7.1729918,80.9542007,-11.1450386,140.7633514
7010,4.3263001,0.8475431,9.1290445,-0.1221374,-2.3206108,0.1984733,-4.9631548,9.9023676,5.6526814,100.1068726,-14.3740454,167.6259613
7020,4.2353210,0.9002152,9.1098909,-0.2519084,-2.8396947,0.9847328,-2.4013720,9.6485834,3.9240766,111.4427490,-20.4274807,187.2290039
7030,4.5369892,1.0390782,9.0548248,0.2595420,1.6488550,4.1984735,9.3564920,8.0109577,-2.7150109,85.4427490,-58.4885483,190.1145020
7040,4.6878228,0.9959828,8.9877872,-0.0839695,5.7251906,2.4580152,15.7465839,7.8218169,-6.1626434,47.4732819,-70.8625946,129.3893127
7050,4.5082588,0.8834559,8.9422979,-2.9770992,6.4045801,1.0992366,19.6126022,7.6566176,-8.8872309,-25.7709923,-70.5114517,23.0076332
7060,4.3478479,0.8307837,9.0476418,-3.4122138,6.6106873,0.4503817,19.6126022,7.3764977,-8.6861191,-69.7938919,-73.8396912,-36.4732819
7070,4.2281384,0.7852941,9.1434097,-2.8244274,4.8625956,0.1526718,19.6126022,7.1394730,-6.9503322,-110.8625946,-75.5190811,-91.5954208
7080,4.0749106,0.7350162,9.3181858,-2.2290077,2.3969467,0.2671756,18.5836983,6.7420373,-4.8171091,-140.9084015,-80.2366409,-137.6946564
7090,3.8546450,0.7469871,9.2511482,-1.7404580,0.2748092,1.0458015,16.6803188,6.4188218,-2.8754215,-160.8778687,-72.2671738,-175.4122162
7100,3.9982965,0.7206510,9.1936874,-1.0992366,-3.3358779,2.6259542,14.2669754,5.8968887,-0.6895266,-169.0610657,-51.2213745,-205.5114441
7110,4.0820932,0.7805058,9.2822723,0.5801527,-4.5877862,2.3587787,12.2199430,5.4970589,0.9504932,-164.8702240,-20.3587780,-227.5648804
7120,4.2018023,0.8307837,9.2870607,2.3435113,-8.5343513,2.2290077,7.0269461,4.7788019,3.0956869,-136.3816833,33.4198456,-250.1374054
7130,4.2233500,0.8427547,9.1553802,2.6717558,-9.3282442,2.0305343,4.1084290,4.5441718,3.6535332,-122.6335907,60.3511467,-250.1374054
7140,4.2903876,0.8762733,9.0955257,2.8854961,-9.6641226,2.1221373,-0.3830703,4.6231799,4.9894910,-109.4961853,98.0381699,-250.1374054
7150,4.4292507,0.8475431,8.9710283,2.6564887,-9.7251911,2.3435113,-5.8633699,5.1858144,6.8809004,-88.7251892,135.3816833,-235.1068726
7160,4.5633249,0.9409165,8.9901810,2.5725191,-8.7251911,1.6259542,-12.3516235,6.2847471,8.8608952,-61.2671738,152.7862549,-194.5190887
7170,4.5944495,0.9241571,8.9710283,2.2137403,-7.3282442,0.8320611,-18.4113178,7.5871863,10.2519188,-29.4656487,137.0915985,-128.7557220
7180,4.5920553,0.8762733,9.0069408,1.7938931,-7.1526718,0.0458015,-19.6131992,8.5472565,10.8768024,1.3816794,102.8549652,-46.6030540
7190,4.6112089,0.9217629,9.0356712,1.2977099,-6.5038166,-0.5572519,-19.6131992,9.1577749,10.7954006,26.5877857,73.0992355,34.3664131
7200,4.5800843,0.9050036,9.0452480,0.6564885,-5.4809160,-1.1221374,-17.6379929,9.0117292,10.3428984,48.8167953,64.0457993,102.4656525
7210,4.5202298,0.8331779,8.9877872,0.7404580,-5.3740458,-1.4885496,-14.6452570,8.8130112,9.8999729,72.9312973,67.2519073,151.9389343
7220,4.5130472,0.8906385,9.0907373,1.2519084,-6.3969464,-1.6488550,-11.5806942,8.5161324,9.2487535,97.8702316,61.6488533,185.3206177
7230,4.5848727,0.8834559,9.1577749,1.8702290,-7.3969464,-2.1374047,-8.1019373,8.2360115,7.6207051,119.2061081,47.5572510,204.1984711
7240,4.8865409,0.9624642,9.2774839,2.7404580,-8.5725193,-3.9389312,-4.7668314,8.1354561,5.9112539,130.7099304,35.2824440,210.2442780
7250,5.1762376,1.0725969,9.5647869,5.4885497,-7.9236641,-7.2671757,-2.5833304,8.1019373,4.4005203,134.5267181,23.5496178,209.1450348
7260,5.1570840,1.3503228,9.4618368,8.8015270,-4.9465647,-11.9160309,-0.4261657,8.1210909,2.9017577,133.5190887,9.2137403,207.6870270
7270,4.7500720,1.1037214,8.9399033,9.6488552,-0.6564885,-16.3740463,1.8961980,8.2168579,0.9600700,126.7022934,-7.2977099,208.2061005
7280,4.2281384,0.9672526,8.6885138,7.4274807,-0.1297710,-16.1221371,4.0294209,8.4969788,-0.6009415,112.3435135,-24.9083977,210.1755676
7290,4.2161674,0.9552816,8.7268209,4.8549619,2.0229008,-12.3053436,7.3860745,8.3892403,-2.7054341,93.6564865,-51.8778610,206.5190887
7300,4.2544746,1.0127422,8.6526003,2.9541984,6.0839696,-7.8167939,11.3532467,8.1617918,-4.6471219,67.9770966,-87.5114517,189.2442780
7310,4.3286943,1.1132981,8.6454182,1.6335878,7.9236641,-4.6183205,16.5558205,7.9534974,-6.8473821,36.8320618,-126.1679382,150.5877838
7320,4.4531922,1.0821736,8.6430235,0.2671756,8.8854961,-2.5648854,19.6126022,7.2615767,-9.0596132,-3.3969467,-134.1984711,92.1450348
7330,4.4747400,1.1923064,8.5879574,-1.7557251,8.2824430,-0.7709923,19.6126022,7.0077925,-9.7371683,-46.1221390,-108.5267181,20.0687027
7340,4.4460096,1.1635761,8.7723103,-4.1603055,8.8015270,0.2442748,19.6126022,6.8186517,-9.0308828,-84.3969498,-83.2671738,-52.8396950
7350,4.3502421,1.1970947,8.8944139,-6.0992365,7.2595420,0.8625954,19.6126022,6.5457139,-7.4866304,-119.1450348,-74.1450348,-117.3893127
7360,4.0844874,1.0606259,8.8800488,-6.1221375,1.9465649,1.0305344,18.6315823,6.1243367,-5.8801293,-151.0000000,-74.6641235,-171.4885559
7370,4.3933377,1.0534433,8.6549950,-5.1526718,3.9923663,0.1908397,16.0243092,5.4180508,-3.9863255,-177.3893127,-77.4580154,-212.5877838
7380,3.8737986,1.0007712,9.0691900,-9.4045801,6.9160304,-0.7938932,13.3428183,4.8554163,-2.0829449,-195.7099304,-75.4274826,-243.5648804
7390,3.7780309,0.7469871,9.4594421,-10.0687027,-0.1679389,1.3664122,10.4745789,4.1156116,-0.0143651,-205.0686951,-62.8625946,-250.1374054
7400,4.0413918,0.7086801,9.3133974,-5.2290077,2.6946564,2.6793892,7.6781654,3.6846576,1.7238164,-205.2366486,-41.5725174,-250.1374054
7410,3.8857694,0.8858501,9.2631187,-2.6717558,-0.5801527,3.8549619,4.3789725,3.5457945,3.5290353,-197.7175598,-6.8015265,-250.1374054
7420,4.2353210,0.8571198,9.1003141,-2.1145039,-2.1908398,3.9694657,0.3758878,3.7109938,5.3941088,-182.5114441,39.0458031,-250.1374054
7430,4.3286943,0.8954269,9.2415714,-2.7022901,-2.4274809,4.5725193,-4.3646073,4.5992379,7.6661944,-157.6030579,92.6183243,-243.5419922
7440,4.5178356,0.9816177,9.1841106,-2.1145039,-3.0687022,5.1221375,-10.6062593,5.6407104,10.2854376,-123.8473282,131.1374054,-201.4045868
7450,4.7404952,1.0558375,9.2128410,-0.7709923,-1.5877863,4.5114503,-15.8327751,6.6414814,12.2606440,-82.3358765,137.5801544,-142.1603088
7460,4.7452836,1.0654143,9.2104464,0.3664122,-1.0534351,3.5496182,-19.0673256,7.2208753,13.1057930,-38.0916023,117.0076370,-69.3282471
7470,4.7381010,1.0749911,9.0572186,0.7557252,-1.0992366,2.7328243,-19.5796814,7.8146343,13.1512823,3.0992367,91.0152664,6.2290077
7480,4.6686692,1.0773853,8.9542685,-0.7938932,0.1526718,1.1832061,-13.8168669,8.6549950,12.0116482,68.7557220,78.4809189,120.7328262
7490,4.6088147,1.0606259,8.9279327,-1.1755725,0.4503817,-0.2900763,-11.1353750,8.6478119,10.9701757,95.6030502,75.3587799,147.1679382
7500,4.4268565,1.0702027,9.0524302,-1.6335878,1.0687023,-0.3282443,-9.0045462,8.6142941,9.3924055,120.5725174,60.4351158,163.2519073
7510,4.3574247,0.9385223,9.2080526,-1.8854961,-0.0763359,-0.1068702,-6.8976598,8.7316093,7.2184811,135.0152740,43.5267181,171.9465637
7520,4.3143296,0.9313397,9.1529865,-0.3282443,-0.5954198,0.5190840,-3.4069316,9.0739784,3.3231349,129.9389343,14.1068707,180.6183167
7530,4.4531922,1.0199248,9.2248116,1.2900764,-2.6106870,-0.4351145,-0.3519458,8.6693602,0.8236012,103.6717529,-21.3893127,194.6335907
7540,4.5322008,1.0079538,9.1529865,2.5419848,-4.1526718,-3.3893130,3.1076579,8.0516596,-0.0574605,78.7480927,-50.6870232,204.1526642
7550,4.8434453,0.9888002,9.3684635,3.6564887,-4.9847326,-4.9694657,5.6598639,7.6470413,-0.5937590,69.6946564,-62.4427490,203.3206177
7560,4.9032998,1.0654143,9.3349447,5.9694657,-0.6030535,-7.1297708,8.1857338,7.3812861,-1.1947005,60.8625946,-66.3435135,195.3511505
7570,4.7764082,1.0702027,9.1194677,7.3740458,4.5648856,-9.0000000,11.0276365,7.4004397,-1.8698620,50.6488533,-67.0839691,176.2595367
7580,4.4603748,1.0582317,8.7723103,6.4045801,5.6564884,-9.4885492,14.2214851,7.3812861,-2.9951310,38.3511467,-69.3053436,143.6183167
7590,4.1515245,1.1109039,8.7435799,-1.2519084,8.8091602,-5.0687022,19.6126022,7.0987716,-5.2839761,-37.2900772,-35.9771004,-15.3587790
7600,4.1611013,1.2066715,8.9063845,-3.0076337,7.5419846,-2.6335878,19.2181587,6.9120250,-4.3789725,-61.7938919,-28.4427490,-72.6717529
7610,4.0988522,1.1300575,8.9446917,-4.7022901,6.3206105,-1.7251909,18.0402184,6.6247220,-3.4308734,-84.5190811,-30.2595425,-124.9160309
7620,4.0294209,1.0510491,9.0787668,-4.5343513,4.4274807,-1.2213740,16.1655674,6.2153158,-2.3870070,-102.9236679,-24.4580154,-169.7709961
7630,3.8905578,0.9696468,9.2894554,-3.1984732,2.1450381,-0.4351145,13.6420918,5.8418221,-0.9433106,-116.4885483,-19.5801525,-204.9084015
7640,3.7804251,0.8762733,9.2655134,-1.5725191,-0.5496183,0.6335878,11.6118193,5.5377603,0.6584021,-123.8167953,-16.8473282,-232.7557220
7650,3.9049230,0.8307837,9.2104464,-0.7633588,-2.9160306,2.3053436,9.5025377,5.2217274,2.0733681,-123.9770966,-9.9847326,-250.1374054
7660,4.0413918,0.9385223,9.2152348,-0.6106870,-4.8702292,3.5725191,7.0269461,4.9152708,3.1483591,-117.1679382,-5.3511453,-250.1374054
7670,4.2496862,0.8523315,9.1553802,-0.5419847,-5.5038166,3.8244274,4.3430595,4.7883787,3.8953462,-108.3282471,-5.4503818,-250.1374054
7680,4.4436154,0.9552816,9.1553802,0.5572519,-6.0839696,3.3664122,0.9193687,4.7596488,4.5178356,-100.7786255,-0.9923664,-250.1374054
7690,4.5226240,0.9959828,9.1074963,1.8396946,-5.1450381,2.6564887,-3.3231349,4.8937230,5.6766233,-94.7251892,15.8015270,-250.1374054
7700,4.6782460,1.0414724,9.0500364,1.6030535,-3.4961832,1.9694656,-8.9446917,5.8130918,7.3764977,-85.2748108,37.2824440,-247.1068726
7710,4.7189474,1.0869620,8.9614515,1.0458015,-1.7251909,1.6106870,-14.6524391,6.5481081,9.8664551,-67.3969498,50.8015251,-197.0381622
7720,4.7213416,1.2138541,8.8752604,-0.3816794,-0.7709923,0.6488550,-19.6131992,7.9630742,11.9063044,-36.4122124,42.3664131,-126.4503784
7730,4.5681133,1.1707586,8.9638453,-0.7633588,0.2213740,-0.5877863,-19.6131992,8.6813307,12.3635941,1.8015267,21.4351139,-35.7557259
7740,4.5082588,1.2138541,9.0117292,-1.1984733,0.7633588,-1.2519084,-19.6131992,8.5041609,11.9493999,40.5190849,16.5343513,52.7480927
7750,4.3334827,1.1492109,9.0476418,-1.6793894,0.2366412,-1.3435115,-18.0665531,8.5328913,11.3652172,78.2366409,36.4198456,122.1145020
7760,4.1778607,1.1444225,9.0787668,-1.6793894,-0.4732825,-1.0229008,-14.6213150,8.4323349,10.2567072,110.8549652,47.7175560,169.7480927
7770,4.1515245,1.0175306,9.1960821,-1.2213740,-1.3816794,-0.1145038,-10.8001890,8.3820572,8.8656836,136.1679382,38.9160309,196.6946564
7780,4.0246325,0.9792235,9.2511482,-0.2977099,-2.5877862,0.9389313,-6.5481081,8.4945841,6.7803445,152.1984711,20.4656487,206.2442780
7790,4.0461802,1.0247130,9.2176294,0.5190840,-4.3740458,1.7404580,-3.5888901,8.7363977,4.4412212,155.4427490,4.5877862,205.2519073
7800,4.4484038,1.0821736,8.9901810,2.3435113,-4.6030536,3.0305343,2.0135133,8.7842808,-0.7805058,119.2366409,-22.1374054,198.0076294
7810,4.6016321,1.1109039,8.9782104,2.0992367,-3.5496182,2.6412213,3.9887197,8.4921904,-2.0183017,102.8396912,-27.3053436,199.2137451
7820,4.7309184,1.1659702,8.8561068,-0.4732825,-0.5648855,0.9312977,8.4419117,8.1402445,-4.2353210,76.5572510,-25.6641216,190.9236603
7830,4.7788019,1.1061156,8.8321648,-1.5114504,1.0305344,-0.1145038,11.3508520,8.1761570,-5.4180508,59.6717567,-23.3435116,175.3206177
7840,4.6231799,1.2090657,9.0021524,-1.5877863,1.5419847,-0.9236641,14.4561157,8.0325060,-6.6486640,36.6259537,-26.6335869,145.4580078
7850,4.5106530,1.1132981,9.0739784,-2.8396947,1.9160305,-1.1908396,17.2692890,7.7068958,-7.8792777,6.6793895,-31.5419846,104.2366409
7860,4.2089849,1.0055596,9.0404596,-2.8473282,1.0839695,-1.6030535,18.3969517,7.7595682,-8.0325060,-28.9770985,-33.4732819,54.5190849
7870,4.0318151,0.9026094,9.1912937,-0.7633588,-1.6488550,0.7251908,18.2365417,7.3070664,-6.3637557,-95.5954208,-45.2213745,-41.8244286
7880,4.0030847,0.9983770,9.1458035,-0.3511450,-3.0687022,2.3435113,17.2429523,6.8761120,-4.8530221,-119.4122162,-46.4122124,-81.1145020
7890,4.2472920,0.9935886,9.0955257,-0.7099237,-4.0000000,3.4809160,15.7058830,6.4164276,-3.0382264,-134.7862549,-39.1679382,-116.5572510
7900,4.3789725,0.9768293,9.1769285,0.3740458,-4.6259542,3.1145039,14.1281118,6.2081332,-1.4939742,-141.7862549,-25.0992374,-145.4045868
7910,4.4819226,1.0127422,9.0093346,1.5572519,-4.5725193,3.0076337,12.5718889,5.9471664,-0.2202654,-141.7328186,-11.0763359,-170.3969421
7920,4.6902170,1.0151364,9.0236998,1.3206106,-4.4122138,2.6717558,10.9270811,5.6047974,0.6392486,-139.1984711,3.2900763,-193.1145020
7930,4.8338685,1.0989330,8.9327211,1.0229008,-3.8702290,1.6946565,9.4450769,5.3486195,1.3455344,-135.9160309,13.0916033,-212.6641235
7940,4.8003497,1.0103480,9.0117292,0.7557252,-2.9160306,0.4656489,7.7523856,4.8793583,1.5705882,-134.6717529,19.9465656,-231.2824402
7950,4.6973996,1.0175306,8.7387915,0.2061069,-2.6488550,-0.4580153,5.8394279,4.3598189,1.9943599,-136.3893127,25.9694653,-249.6641235
7960,4.5872669,1.0582317,8.8824425,-0.3435115,-2.0610688,-1.1374046,3.3303175,4.0222383,2.8107784,-138.8931274,32.3893127,-250.1374054
7970,4.4986820,1.0630201,9.0045462,-0.9541985,-0.1374046,-0.8244275,-0.3591284,3.6224086,4.4124913,-139.6870270,45.5190849,-250.1374054
7980,4.4914994,1.1037214,9.0117292,-1.2061069,0.4198473,-0.1068702,-5.2384863,4.0222383,6.5457139,-133.0686951,70.7633591,-250.1374054
7990,4.4699516,1.1396341,9.1027079,-0.9389313,-0.2748092,0.0152672,-12.6125898,5.0206151,9.5360565,-115.8778610,90.3740463,-224.2595367
8000,4.4364328,1.1204807,8.9925756,-0.2290076,0.0916031,-0.0152672,-18.5382080,6.2584114,12.2893744,-91.0534363,81.5648880,-165.7862549
8010,4.4005203,1.1611819,8.9686337,-0.5801527,-0.4503817,-0.1145038,-19.6131992,7.0987716,14.6739874,-60.7862587,60.3893127,-88.3511429
8020,4.3071470,1.1635761,8.9782104,-0.7938932,-1.1374046,0.3358779,-19.6131992,7.7380204,16.5007534,-21.3053436,37.3511467,-7.1679387
8030,4.2448978,1.1539993,8.9087791,-0.9923664,-1.9465649,0.6793893,-19.6131992,7.8505473,17.2692890,27.7480907,23.8931293,61.3358765
8040,4.1658897,1.0869620,9.0284882,-0.6946565,-2.4045801,1.3969465,-17.4991302,7.8720951,16.1871147,85.6793900,28.1603050,111.0229034
8050,4.2113791,1.0558375,9.1745338,-0.3587786,-3.3816793,2.4427481,-14.7362356,8.0540533,13.7330704,134.6641235,36.2137413,144.4580078
8060,4.3717899,1.1587877,9.1290445,-0.0152672,-4.0610685,3.0152671,-12.4114780,8.2838955,10.4673967,167.5190887,29.6259537,168.9694672
8070,4.5250182,1.1372399,9.0428534,0.5572519,-4.3358779,2.8549619,-10.2519188,8.6621771,7.0963774,181.0305328,12.1755724,186.7786255
8080,4.6878228,1.0366840,8.9327211,0.6106870,-3.3740458,2.9389312,-6.2368636,9.1098909,0.6536137,155.9770966,-28.7175579,216.7022858
8090,4.7835903,1.0534433,8.8417416,0.2061069,-2.4198472,2.7633588,-4.2472920,9.0141230,-1.0797794,127.9312973,-46.1450386,234.3129730
8100,4.9080882,1.0917504,8.7890692,-0.1450382,-0.8015267,1.9847329,-2.1332228,8.3269911,-1.9823889,102.6030502,-56.8091621,250.1297760
8110,4.9009056,1.0390782,8.9039907,-1.7786260,1.8778626,-0.1755725,4.0437860,6.8689294,-2.4875629,75.8396912,-64.9236679,250.1297760
8120,4.7644372,1.0630201,8.9159613,-1.9389313,2.4961832,-1.2900764,9.1865053,6.2823529,-3.3614421,70.6106873,-63.4198456,250.1297760
8130,4.5298066,1.1468167,8.9039907,-2.5725191,2.1374047,-1.5419847,14.5542774,5.9687142,-5.2600341,63.1068687,-58.8396950,248.9923706
8140,4.4077029,1.0893562,8.9853926,-3.1755726,0.9618320,-1.7328244,18.8877602,6.0189924,-7.3669209,41.6259537,-48.6259537,201.1068726
8150,4.2257442,0.9744351,9.0787668,-2.6335878,-0.2671756,-1.2824427,19.6126022,6.2248926,-9.3469152,4.3664122,-38.0152664,140.8015289
8160,4.1395535,1.0462608,9.2487535,-1.5954199,-1.9160305,-0.0305344,19.6126022,6.3637557,-10.0292597,-43.3969460,-36.5267181,73.9312973
8170,4.1108232,1.0223188,9.1194677,-0.8015267,-2.9694657,1.3816794,19.6126022,6.1171541,-9.0739784,-91.7633591,-43.0687027,11.4351149
8180,4.2137733,0.9935886,9.0428534,-0.3893130,-3.7862597,2.1068702,19.6126022,5.7388721,-6.8785062,-132.2824402,-53.2137413,-45.8396950
8190,4.3957319,0.9792235,9.0931320,0.5877863,-4.0305343,2.3435113,19.6126022,5.1666608,-4.6590929,-158.0381622,-58.6870232,-94.6717529
8200,4.6088147,1.0390782,8.9518747,1.1908396,-4.0610685,2.4351146,18.1838684,4.8147149,-2.7940190,-171.7404633,-52.0916023,-131.5038147
8210,4.7428894,1.0725969,8.9758167,1.1603054,-3.4961832,2.0305343,15.7777081,4.6303625,-0.8858501,-176.9084015,-29.0839691,-160.3511505
8220,4.7955613,1.0725969,8.8920193,0.2824427,-2.3435113,1.3282443,13.9150295,4.5752959,0.6943150,-172.3664093,-1.0610687,-182.8854980
8230,4.7692256,1.0247130,8.9135675,-0.4961832,-1.3664122,0.6106870,12.2390966,4.5106530,1.7956421,-160.2519073,26.1526718,-202.1755676
8240,4.7931671,1.1348459,8.9638453,-0.7938932,-0.8015267,0.0152672,10.2112179,4.4220681,2.7150109,-142.6183167,47.6564903,-216.7022858
8250,4.6519103,1.0199248,8.9734221,-1.0229008,-0.1679389,-0.5801527,8.5257082,4.1587071,3.1315999,-127.2061081,63.8091621,-231.8320618
8260,4.4795284,1.1061156,9.0763721,-1.0000000,0.1450382,-0.8167939,6.5265603,3.5769191,3.2201848,-117.1603088,75.3969498,-250.1374054
8270,4.4220681,1.0702027,8.9446917,-1.1832061,-0.4961832,-0.6717557,3.8618276,3.2704628,3.9504125,-111.6488571,84.1526718,-250.1374054
8280,4.4029145,1.0582317,8.9949694,-0.7480916,-0.6641222,-0.0763359,0.4908088,2.8395088,4.9607606,-106.3664093,98.9312973,-250.1374054
8290,4.3358769,1.0869620,8.9973640,-0.2137405,-0.6106870,0.6030535,-4.0270267,3.0430148,6.9599090,-96.0152664,121.5114517,-250.1374054
8300,4.3478479,1.0869620,9.0284882,-0.1297710,-1.2595420,1.3282443,-10.0412302,3.8163381,9.5169029,-76.3206100,146.6717529,-248.5572510
8310,4.5010762,1.0845678,9.0883436,0.2290076,-1.4656489,2.0381680,-17.5398312,5.2576399,11.9853125,-44.5419846,153.8091583,-199.1068726
8320,4.5920553,1.0869620,9.0117292,0.0763359,-1.0763359,2.4045801,-19.6131992,6.3900914,12.7610302,-5.5954199,135.0915985,-127.6259537
8330,4.7476778,1.1132981,8.9015961,0.0687023,-0.2442748,2.2977099,-19.6131992,7.4794478,12.4114780,29.5114498,104.8473282,-42.4732819
8340,4.8003497,1.0917504,8.8273764,-0.7175573,2.5114503,0.6106870,-19.6131992,8.3461447,10.6541433,80.3358765,71.7099228,121.5572510
8350,4.8051381,1.1587877,8.6980906,-1.7175573,3.0305343,-0.0839695,-17.1615505,8.1761570,9.6030941,101.0916061,69.5572510,172.5267181
8360,4.8099265,1.0654143,8.7818871,-3.1526718,3.3435113,-0.9541985,-14.2334566,8.0947542,8.4467001,117.5496216,55.7251892,205.1068726
8370,4.6614871,1.0749911,8.9662399,-4.0076337,3.3358779,-1.5725191,-11.1186161,8.2264347,6.7899213,128.7633514,28.8854961,228.0458069
8380,4.3286943,0.9624642,9.1745338,-2.5114503,1.3053435,-1.3893130,-4.5298066,8.2455883,3.1148405,124.8396912,-19.0763359,250.1297760
8390,4.1946201,0.9672526,9.1242561,-1.4961832,-0.0992366,-0.6488550,-1.8842272,8.1474266,1.7788827,113.1755753,-34.0000000,250.1297760
8400,4.1970143,0.9145803,9.1194677,-0.4961832,-1.4122137,0.5496183,0.2130829,7.8313937,0.9480990,100.9160309,-46.3816795,250.1297760
8410,4.2329268,1.0486550,9.0548248,0.2519084,-2.1374047,1.5954199,2.5426292,7.2903070,0.2226596,91.6183243,-58.8778610,250.1297760
8420,4.7117648,1.0749911,9.0356712,0.5343512,-2.1679389,1.3511450,11.5759058,6.0094156,-2.9089401,70.8091583,-52.1603050,229.2137451
8430,4.7931671,1.0366840,8.9901810,0.2061069,-0.8396947,0.8091603,14.3052816,5.8705525,-4.1467361,58.0228996,-43.0839691,200.5725250
8440,4.8961172,1.0414724,8.8010406,-0.5801527,0.2290076,0.1145038,17.2166157,5.8394279,-5.2360926,38.3282433,-31.2366409,161.0458069
8450,4.7381010,1.0965388,8.8561068,-1.2519084,0.7404580,-0.3969466,19.2373123,6.0572991,-5.9687142,12.2290077,-23.9770985,111.0000000
8460,4.7524662,0.9911944,8.9087791,-1.7557251,1.4122137,-0.9083970,19.6126022,6.2464404,-5.9016771,-18.3358784,-24.6335869,55.9389305
8470,4.5920553,1.0127422,9.0045462,-1.6183206,1.6183206,-1.2519084,19.6126022,6.0980005,-5.0062504,-48.2061081,-22.9083977,1.0610687
8480,4.4771342,1.0055596,9.0883436,-1.3282443,1.2595420,-1.0687023,19.6126022,6.1363077,-3.6176202,-71.9389343,-17.0687027,-52.1450386
8490,4.3765783,0.9744351,9.1745338,-1.0687023,0.5419847,-0.9847328,18.8326950,6.0357518,-2.3223639,-88.8549652,-12.6793890,-97.8931274
8500,4.2808108,1.0127422,9.1290445,-0.3282443,-0.4503817,-0.5038168,17.0945129,5.9184365,-0.9002152,-102.0534363,-5.9541984,-137.4885559
8510,4.2401094,0.9888002,9.0428534,-0.0152672,-1.4503816,0.1984733,15.0522690,5.6215568,0.5267217,-109.8167953,-0.2137405,-171.6793823
8520,4.2664456,1.0773853,9.0572186,0.3129771,-2.5038168,0.8473282,13.0172081,5.3629842,1.7286048,-111.5572510,2.2519083,-201.5190887
8530,4.3693957,1.0965388,9.1194677,0.5114504,-3.1984732,1.4656489,11.3628235,5.1714492,2.5785420,-110.7022934,4.6412215,-225.8473358
8540,4.3789725,1.1228749,9.0811605,0.9389313,-3.4809160,2.1221373,9.7467451,4.9056940,3.1890604,-107.8854980,10.8473282,-248.3282471
8550,4.5250182,1.1803354,8.9470863,1.1755725,-3.0763359,2.5496182,7.9415264,4.5082588,3.6152260,-102.0534363,18.0534344,-250.1374054
8560,4.8985114,1.1180865,8.8273764,0.1832061,0.3511450,2.3282442,0.5219333,3.7804251,3.8570392,-90.5038147,36.4961815,-250.1374054
8570,4.9607606,1.0917504,8.6526003,-0.7251908,1.8396946,1.1068702,-3.4907281,3.6774750,4.0174499,-92.3358765,39.6106873,-250.1374054
8580,4.9104824,1.0989330,8.8106174,-1.2900764,2.7938931,-0.2137405,-9.2128410,4.2784166,5.1139889,-92.8778610,47.7709923,-250.1374054
8590,4.9104824,1.1085097,8.7723103,-2.6946564,3.5725191,-1.2366412,-15.9668493,5.4372044,7.2663651,-86.4198456,61.7786255,-234.6106873
8600,4.5633249,1.0079538,8.8920193,-3.6946564,3.5877862,-2.2061069,-19.6131992,6.9503322,10.1346035,-68.8778610,71.2977066,-155.4732819
8610,4.3789725,0.9265513,8.9422979,-3.5114503,1.9389313,-2.0458016,-19.6131992,7.9367380,13.0770626,-41.5114517,68.2595444,-54.0992355
8620,4.2233500,0.9792235,9.1338329,-2.6793892,0.7099237,-1.4961832,-19.6131992,8.1737623,15.3299952,-3.0763359,54.5190849,46.5038185
8630,4.1251884,0.9648584,9.2152348,-1.1374046,-1.2290076,-0.3587786,-19.6131992,8.0348997,16.0937424,43.4122124,40.8320618,125.0610657
8640,4.0892754,1.0318956,9.2343884,0.0534351,-3.3740458,0.7099237,-16.7282009,7.6494355,15.5311069,91.1755753,44.0381660,176.1450348
8650,4.2401094,0.9552816,9.0739784,0.6717557,-4.3129773,1.9618320,-12.3971128,7.4219875,13.6349087,136.5572510,40.2366409,206.9618378
8660,4.3550305,0.9935886,9.0548248,1.4427481,-4.6946564,2.1297710,-8.9470863,7.3357964,10.9270811,169.8931274,30.0000000,224.2824402
8670,4.6806402,1.0414724,8.8010406,0.8625954,-4.7709923,2.4427481,-3.6655040,7.8601241,4.1084290,185.9389343,6.1221375,235.1984711
8680,4.8123207,1.0702027,8.8656836,0.6488550,-3.7633588,1.8702290,-1.8195840,8.2647419,1.1563935,168.9541931,-11.9541988,239.2824402
8690,4.8242917,1.0725969,8.9015961,0.3511450,-2.7786260,1.2137405,0.1101327,8.1713686,-1.1252691,142.4503784,-30.7022896,243.1374054
8700,4.7548604,1.1300575,8.8369532,-0.3129771,-2.3816793,0.9847328,2.0590029,7.7643566,-2.2625091,115.5496216,-47.1526718,245.1068726
8710,4.7093706,1.0917504,8.8585014,-0.7786260,-2.5801528,0.4274809,4.0413918,7.3334022,-2.7389526,92.9770966,-61.4732819,244.4274750
8720,4.5034704,1.0654143,8.9806042,-1.2213740,-2.9465649,-0.2824427,6.3829093,7.0987716,-2.9783716,78.7709961,-69.3969498,237.7786255
8730,4.4579806,1.0318956,9.0308828,-1.3358779,-2.7938931,0.3587786,9.4498653,6.9000540,-3.3662305,66.6106873,-72.5725174,223.2824402
8740,4.4268565,1.0342898,9.0117292,-0.7022901,-3.1755726,1.3053435,12.7179346,6.7851329,-4.2520804,52.6717567,-67.2519073,198.6412201
8750,4.5226240,1.0678085,9.0811605,0.1374046,-1.7099236,1.5572519,15.5694141,7.0077925,-5.0684991,35.5954208,-60.3816795,162.6946564
8760,4.7381010,1.0725969,8.8177996,0.6259542,-0.0534351,1.9312977,19.6126022,7.5177550,-7.1969333,-24.3053436,-59.9694672,61.6488533
8770,4.8242917,1.0582317,8.7723103,-0.5648855,0.7938932,1.0839695,19.6126022,7.0724359,-5.6191626,-93.4274826,-50.8015251,-59.6030540
8780,4.7452836,1.0031654,8.9015961,-1.3740458,0.7709923,0.6488550,18.9164906,6.5935979,-3.8354914,-115.7480927,-44.4885483,-112.5114517
8790,4.7141590,0.9935886,8.9375095,-1.2442749,-0.0763359,0.7404580,16.7689037,6.2296810,-2.3486998,-132.4885559,-33.2748108,-156.8854980
8800,4.6638808,1.0606259,8.9734221,-0.9312977,-0.4503817,0.6412213,14.5638542,5.8825235,-0.6847382,-141.3587799,-21.2977104,-193.1908417
8810,4.5274124,1.0103480,9.0644016,-0.4351145,-0.4503817,0.3740458,12.3659887,5.5928264,0.9217629,-143.6641235,-8.4122133,-220.6717529
8820,4.5010762,1.0151364,8.9351149,-0.3206107,-1.1297710,0.7633588,10.3093796,5.2001796,2.2146254,-140.2519073,4.6641221,-242.9084015
8830,4.4795284,0.9792235,8.9446917,-0.2977099,-1.9236641,0.7328244,8.4107876,4.8841467,3.1315999,-133.3893127,11.2213745,-250.1374054
8840,4.5681133,1.0151364,8.9997578,-0.1908397,-2.6030533,0.5877863,6.3517847,4.4771342,3.6224086,-125.7480927,15.6335878,-250.1374054
8850,4.5609307,1.0797794,9.0284882,0.3587786,-3.1068702,0.6717557,4.0006905,4.1946201,4.2808108,-118.2671738,21.9847336,-250.1374054
8860,4.5681133,1.0318956,8.9734221,0.4961832,-3.6564887,0.5877863,1.2737088,3.9168940,5.2624283,-110.9618301,32.3893127,-250.1374054
8870,4.5274124,1.0773853,8.9470863,0.7862595,-4.6183205,0.6412213,-3.1603301,3.8977404,7.1370788,-101.3282471,48.2977104,-250.1374054
8880,4.4340386,1.0031654,8.8824425,1.0305344,-5.4885497,0.9083970,-9.6844959,4.6423335,10.2160063,-81.6717529,57.0916023,-250.1374054
8890,4.4962878,1.0199248,8.9877872,0.9312977,-6.6183205,1.4656489,-16.7329903,6.2153158,14.0898046,-46.3206100,33.5801544,-208.3053436
8900,4.5992379,1.0630201,8.9446917,1.2290076,-6.9770994,1.9847329,-19.6131992,7.2352405,17.0442352,-1.8625954,-15.4732828,-130.7251892
8910,4.7452836,1.0654143,8.9399033,1.1221374,-6.1526718,2.2137403,-19.6131992,7.4746594,17.2812595,48.0000000,-39.1679382,-42.8625946
8920,4.8290801,1.1061156,8.9159613,1.1679389,-6.0839696,1.8244275,-19.6131992,7.3453732,16.6132812,101.2366409,-39.2213745,39.7022896
8930,4.8817525,1.1013272,8.8632889,1.3206106,-4.7328243,1.3129771,-17.4249115,6.8904772,14.4585104,154.7938995,-15.8931293,106.4656525
