timestamp,rxacclX,rxacclY,rxacclZ,rxgyroX,rxgyroY,rxgyroZ,txacclX,txacclY,txacclZ,txgyroX,txgyroY,txgyroZ
0,2.6072724,10.9701757,0.4716553,15.3358774,-33.6030540,8.8320608,4.3071470,-0.3064562,10.6086531,25.7175579,69.1526718,5.3053436
10,3.5314295,11.2694502,-0.5937590,29.2137413,-39.1984749,17.2442741,3.7253587,-0.4908088,10.6685085,13.8244276,80.7022934,-11.2290077
20,3.7109938,11.2024126,-0.6512195,28.4274807,-42.1221390,14.7786255,3.6104376,-0.5291159,11.1976242,16.1145039,85.1450348,-6.3816795
30,3.6798692,11.1425581,-0.5243275,26.9770985,-45.0916023,10.1832066,3.4476328,-0.1939293,11.2119894,20.9160309,94.8015289,-4.2748094
40,3.6894460,10.9294748,-0.2322364,24.7328243,-47.9847336,3.3206108,3.2967989,-0.1388630,11.0803089,25.8549614,102.0076370,-3.5877862
50,3.5841017,10.5057030,0.3375807,23.1145039,-49.1221390,-3.8549619,3.1531475,0.0407012,10.5248566,25.5038166,107.8854980,-3.7404580
60,3.4763632,10.0962973,0.7278336,22.3816795,-48.3129768,-10.5038166,3.1675127,-0.0646431,10.6038647,23.0763359,108.3893127,-5.3358779
70,3.1028695,9.6246414,0.8044477,21.1145039,-44.1450386,-15.1145039,3.3805954,-0.1843526,10.7882175,19.9007626,108.3206100,-9.9007635
80,2.7221935,9.3708572,0.9792235,17.7328243,-37.9389305,-17.3053436,3.0382264,-0.4979914,11.5663290,18.8702297,102.5648880,-14.7862597
90,2.4420733,9.0476418,1.3934183,16.0687027,-32.1297722,-18.3206100,2.1356170,-0.4477134,13.1369171,18.5572510,88.3816757,-15.7328243
100,2.2577207,8.8537130,1.4772149,15.4427481,-25.7938938,-18.3129768,0.8738791,-0.7134684,15.1312771,23.5496178,68.7709961,-11.9160309
110,2.0302727,8.7579451,1.2880739,14.4656487,-19.9236641,-18.2900772,-0.1101327,-1.2258250,15.6484222,35.8473282,47.1679382,-6.6870227
120,1.7597293,8.6909075,1.0773853,11.9465647,-14.9694653,-17.5801525,-0.7613522,-1.7429699,15.2749290,50.6564903,26.9083977,-1.7328244
130,1.3934183,8.7196379,0.9792235,8.0534353,-10.0534353,-15.3053436,-0.4141948,-1.6472024,15.4209747,66.7480927,6.6412215,-0.7557252
140,1.1611819,8.6358414,0.9073978,3.9007633,-7.0916033,-11.6183205,0.7852941,-0.9840119,14.9876261,83.4809189,-7.5801525,-6.2061067
150,1.0127422,8.8489246,1.0295014,0.6183206,-5.1908398,-6.5267177,2.1116750,-0.4764437,14.1592360,93.6946564,-4.2977099,-10.2519083
160,1.4700323,8.7340031,1.1755470,-2.3206108,-6.0229006,-3.4580152,2.9137285,0.0526722,13.5870247,102.0763321,11.7328243,-10.0763359
170,1.6184721,8.7794924,1.3934183,-3.2977099,-7.1450381,-0.3053435,2.7844424,0.3543400,13.3907013,111.3129807,34.1832047,-9.1450386
180,1.6950861,8.7435799,1.4963684,-3.1221373,-9.7175570,2.6793892,1.8914096,0.6272776,13.1871958,122.6870193,47.7557259,-10.0152674
190,1.9249283,8.9877872,1.2784972,-3.8320611,-12.5267172,5.5343513,1.0917504,0.7421987,12.3516235,130.2900696,48.5648842,-12.4885492
200,2.1715298,9.0979195,1.2090657,-6.1526718,-13.2061071,7.3587785,0.7589580,1.2737088,11.3460636,128.9084015,40.1755714,-15.7557249
210,2.4253139,9.1888990,1.4125718,-7.6412215,-11.2213745,7.6030536,0.4022238,1.6950861,11.1353750,125.5801544,26.3587780,-17.8778629
220,2.5809362,9.3900108,1.7405758,-5.1145039,-9.8320608,6.1603055,0.1053443,1.8914096,10.8744087,122.7022934,16.3969460,-17.6793900
230,2.6048782,9.4857788,1.2449785,0.2977099,1.0610687,3.8244274,0.6440369,1.7549409,10.7211800,119.2061081,11.0152674,-20.1984730
240,2.1739240,9.7084379,0.7876883,-2.6106870,11.8931293,2.1145039,0.8690908,2.4229198,10.5607700,120.8931274,29.3587780,-28.6641216
250,1.7669119,9.6581602,0.6871324,-4.9465647,14.8549614,1.9083970,0.1556223,2.9951310,10.2399483,122.5572510,40.4122124,-31.9083977
260,1.4748207,9.5384512,0.7517755,-6.2061067,16.1984730,3.0916030,-1.1156923,3.4117200,9.8784256,121.6564865,49.5725174,-28.4122143
270,1.3431402,9.5145092,0.8307837,-5.6641221,15.5954199,4.8015265,-1.7477583,4.1204000,9.4498653,118.1679382,50.5877876,-20.0687027
280,1.3790531,9.6246414,0.7900825,-3.3435113,15.0305347,6.4274807,-1.9105632,4.5465660,8.9758167,111.6259537,45.4198456,-10.9389315
290,1.3694763,9.7419567,0.5267217,-0.0458015,12.8396950,9.7786255,-1.7094513,5.3534074,7.9463148,94.0305328,30.7633591,2.8549619
300,1.5250987,9.6605549,0.5961532,0.8625954,9.3664122,11.6183205,-1.5250987,5.6550756,7.4459291,81.4198456,23.6870232,7.4198475
310,1.5849534,9.5264797,0.4165890,1.2671756,4.5419846,13.3816795,-1.2689204,5.8777351,7.0101867,68.6335907,24.1984730,11.5419846
320,1.7860653,9.4929609,0.3998296,1.1908396,-0.9236641,15.1221371,-0.6631905,6.1267309,7.2472115,59.0992355,34.7251892,15.3206110
330,2.1835008,9.3421268,0.5985473,1.4427481,-6.3053436,15.4274807,-0.5291159,6.2033448,7.9702568,54.7251892,53.6564903,17.9541988
340,3.6104376,7.1514440,-0.5506636,-4.3816795,-7.3358779,-1.2366412,-0.7805058,5.9902620,9.4043760,90.6106873,89.0610657,20.4656487
350,3.0525916,6.4188218,-0.2011119,-14.1603050,-4.2671757,-3.2900763,-0.9552816,6.2153158,9.0883436,90.4351120,83.7251892,19.2290077
360,3.2058196,6.1051831,1.2832855,-31.6488552,-8.1068707,16.8244267,-1.2258250,6.1889796,8.3078375,85.3587799,50.5267181,15.5419846
370,4.2568688,6.5576849,1.7118455,-29.4427490,-5.5419846,21.8778629,-1.0007712,6.0908179,8.2312231,83.3129807,39.0152664,13.8320608
380,5.3965030,8.0109577,0.6344602,-25.3587780,18.5725193,16.7557259,-0.7110743,5.7316895,7.9391322,80.4503784,24.9083977,10.2748089
390,3.9480183,9.9215212,-0.9600700,-32.8702278,37.3511467,-2.1450381,-0.4979914,5.6574697,7.7571740,80.7786255,19.0152664,5.7480917
400,2.5186872,10.5224628,-1.5993185,-42.5801544,41.7404594,-7.4045801,-0.5075682,5.6359220,7.3477674,81.2519073,19.3664131,4.1068702
410,1.0462608,11.0204544,-1.5825592,-51.6030540,41.6183205,-5.8778625,-0.5578461,5.5664907,7.0293403,81.2213745,19.7404575,3.3053436
420,0.0981618,11.3412752,-0.7110743,-55.3969460,33.5801544,1.9541985,-0.7805058,5.5664907,6.6965480,80.1908417,20.2366409,2.4427481
430,-0.1508339,11.7530756,0.6129125,-49.0534363,20.1755733,13.5496187,-0.8164186,5.6119800,6.3805151,77.5801544,19.2137413,3.4503818
440,1.1013272,12.7275114,2.2122312,-14.7557249,-8.2137403,32.2824440,-0.6655847,5.7245069,5.7364779,70.2137375,14.8244276,5.2442746
450,3.5697365,13.7857428,1.9081690,12.2519083,-25.7633591,32.8320618,-0.6392486,5.7269011,5.0924411,61.4580154,12.5038166,6.9160304
460,4.7093706,14.1568422,1.9249283,17.1984730,-27.5648861,24.7328243,-0.6200951,5.7556314,4.7788019,56.1603050,11.0992365,7.6564884
470,5.5760674,14.3004932,2.1811066,18.8778629,-25.7175579,13.3740454,-0.4740495,5.8202744,4.3789725,49.1832047,10.3053436,7.8244276
480,6.1817970,14.0036144,3.3111639,23.3358784,-17.8396950,-9.4961834,-0.5674229,5.8729467,4.1060348,31.6335869,10.0229006,6.2366414
490,6.1123657,13.9653072,3.7229645,29.6793900,-14.5190840,-17.8244267,-1.3598996,5.9495606,3.2728570,21.2748089,13.9160309,8.7175570
500,6.1051831,13.8336267,3.9815371,38.8625946,-12.4503813,-24.6412220,-1.4820032,6.2129216,3.4404502,9.0152674,19.6412220,15.0763359
510,6.1363077,13.6827927,4.1251884,50.7862587,-11.1679392,-31.9160309,-0.1484398,6.8665352,3.3446827,-1.9923664,19.1755733,17.6564884
520,5.9663200,13.3188763,3.7397239,64.3129807,-10.2290077,-38.8778610,-0.0263361,6.4978304,3.3829896,-12.9541988,19.0305347,14.1450386
530,5.7412663,12.9118633,3.2704628,76.9542007,-10.3511448,-45.3511467,0.4572902,6.5433197,3.1339941,-25.3740463,16.2977104,9.4274807
540,5.5353661,12.5335817,2.2816625,87.1068726,-12.4656487,-51.5877876,0.4022238,6.4427638,3.1435707,-38.0152664,14.8473282,3.9541984
550,5.1762376,12.0930510,1.4724265,94.0152664,-16.8702297,-57.0458031,0.2849085,6.5696559,3.5338237,-48.4885483,8.8549614,-3.3053436
560,5.1092005,11.5711174,0.8020535,98.5725174,-22.3129768,-62.3587799,-0.3591284,5.9950504,4.7093706,-55.4274826,11.4198475,-10.6106873
570,4.8530221,11.0491848,0.3040621,101.2061081,-28.5419846,-69.0381699,-0.5027798,6.2368636,5.8968887,-56.8244286,14.2748089,-15.9007635
580,4.5609307,10.5464048,-0.4548960,100.8854980,-33.8702278,-76.1679382,-0.7613522,6.4619174,6.5888095,-54.0228996,12.7404585,-20.0763359
590,4.0653338,9.9933472,-0.7206510,98.3893127,-39.2977104,-83.5648880,-1.1444225,6.5505023,6.5241661,-51.1068687,9.9847326,-22.2442741
600,3.5266411,9.4953556,-0.9816177,93.4809189,-44.2595406,-90.0992355,-1.5538290,6.6534524,6.3374195,-51.3282433,5.6564884,-22.6259537
610,2.9927368,8.9758167,-1.0558375,87.6335907,-47.5343513,-95.4045792,-2.1523764,6.6773944,6.0261750,-55.3893127,2.4732823,-21.8473282
620,2.5953014,8.4012108,-0.7805058,82.3282471,-49.4732819,-99.4351120,-2.6551561,6.7133074,6.1985564,-62.5038185,0.9160305,-18.1908398
630,2.1547706,7.8577299,-0.6224893,77.6564865,-49.3740463,-103.1908417,-2.9616125,6.5361371,6.4499464,-69.4274826,-0.9923664,-14.6870232
640,1.6998745,7.1801744,-0.7326220,73.1679382,-47.8473282,-107.1450348,-2.8778157,6.3685441,6.7109132,-76.2595444,-4.2595420,-9.8396950
650,1.2138541,6.5361371,-0.6775556,68.3893127,-45.7862587,-110.0763321,-2.6934631,6.3134775,7.4243813,-81.7251892,-6.2061067,-7.8167939
660,0.6248835,6.0165982,-0.9457048,62.1984749,-40.9236641,-111.5419846,-2.6216373,6.3206601,8.2000990,-83.3511429,-9.6412210,-5.9694657
670,0.0622489,5.3246775,-1.2689204,53.5954208,-35.2595406,-110.5877838,-2.5450234,6.1985564,8.9638453,-81.0839691,-13.8244276,-3.3969467
680,-0.5003856,4.6878228,-1.3168042,43.0228996,-28.7862587,-106.7557220,-2.4253139,6.1099715,9.5839405,-75.5648880,-18.0152664,-0.2595420
690,-1.1516051,4.1634955,-1.1611819,32.0305328,-21.3282452,-98.0152664,-2.2744799,6.3493905,10.1609402,-67.9236679,-18.3969460,2.4351146
700,-1.7309990,3.8043671,-0.8786675,22.9007626,-14.9541988,-85.6564865,-2.8849983,6.4978304,10.4003592,-59.4427490,-22.9923668,5.9923663
710,-2.0542145,3.5218527,-0.6943150,16.9847336,-10.8320608,-71.5038147,-2.8778157,6.4714942,10.5847120,-52.5038185,-32.5801544,11.0152674
720,-2.2481439,3.3518653,-0.6057299,12.1908398,-6.6259542,-55.1832047,-2.8203552,6.3134775,10.6086531,-47.3358765,-47.6564903,17.7251911
730,-2.3630650,3.3901722,-0.6871324,7.1068702,-1.3816794,-38.4961815,-2.6168492,6.3517847,10.4841557,-44.7709923,-65.8854980,19.9847336
740,-2.5282640,3.4835455,-0.8164186,0.9847328,5.0763359,-22.0534344,-2.2002602,6.0908179,10.4027529,-43.7175560,-85.5038147,21.8778629
750,-3.0334380,4.1108232,-0.9265513,-6.5038166,12.4274807,-6.3206105,-1.6136837,6.0692701,10.1130562,-44.2061081,-95.7938919,21.4809170
760,-3.4308734,4.6878228,-0.9217629,-15.3053436,19.2748089,9.6870232,-1.1611819,6.3254485,9.4355011,-48.3740463,-98.0381699,18.0992374
770,-2.8849983,5.1953912,-0.7014975,-23.5267181,23.3969460,24.8396950,-1.0318956,6.1698260,9.0715837,-54.6717567,-98.6335907,14.5114508
780,-1.6687500,5.7987270,-0.4405309,-27.1526718,28.9160309,29.4732819,-0.7900825,6.3350253,9.0763721,-61.1908379,-85.9389343,12.6412210
790,-1.1109039,6.5217719,-0.4237715,-26.8931293,36.3435097,29.1297703,-0.9050036,6.1913738,9.3636751,-64.6564865,-73.6030502,13.1984730
800,-1.4269369,7.8194227,-0.8978211,-25.0076332,46.0763359,30.2137413,-0.7493813,6.0165982,10.4769726,-63.6183205,-64.8854980,14.6641226
810,-1.5705882,9.1888990,-1.5131277,-23.4885502,55.3587799,34.0076332,-0.2561783,6.0237808,11.2790270,-52.2595406,-69.0076370,12.6946564
820,-1.9392935,10.7570934,-2.0997043,-21.1297703,56.1755714,38.8625946,-0.3088504,5.8873119,10.6804790,-44.0534363,-59.7633591,11.9160309
830,-1.6304430,11.7027979,-2.3630650,-16.1908398,46.6870232,42.3358765,0.0000000,5.4659348,11.3556404,-34.1068687,-53.1984749,11.9083967
840,-0.8714849,12.3731709,-2.6096666,-8.7022905,33.0839691,43.9847336,-0.0335187,5.2935529,11.1377697,-22.0229015,-45.7786255,12.3435116
850,-0.0215477,12.5311880,-2.7748656,-0.2977099,21.6946564,42.9236641,0.3136388,5.4779053,10.8408899,-11.8244276,-43.2366409,11.6641226
860,0.6655847,12.6197729,-3.0118904,7.1679387,12.4809160,38.4961815,0.6751614,5.5473371,10.6756907,-3.3664122,-39.5877876,9.3893127
870,1.4245427,12.5575237,-3.0789278,17.0381680,-1.4580153,28.0687027,0.7014975,5.3366485,10.1633339,7.6641221,-33.1832047,5.0534353
880,1.6998745,12.3324699,-2.8873925,19.4503822,-7.0839696,22.5648861,0.9696468,5.5042415,10.0819321,12.2748089,-29.6564884,3.9618320
890,2.0087249,11.7626524,-2.5426292,19.7862587,-11.7404585,17.4885502,0.7469871,5.6167684,9.8951855,16.5801525,-20.1526718,5.1145039
900,2.2696917,11.1497402,-2.0973101,19.0992374,-14.2061071,11.8854961,0.4668669,5.6143742,9.4714136,20.0610695,-5.4580154,8.8702288
910,2.3917952,9.5456333,-0.8044477,16.6870232,-11.8244276,1.3053435,-0.0143651,5.3486195,9.5001440,25.2977104,15.9770994,18.3740463
920,1.3048333,6.1746144,-0.2657550,8.5038166,6.7862597,-2.8396947,0.6153067,5.2169390,9.2774839,39.4732819,15.3129768,22.1984730
930,1.4149660,5.5425487,-0.7685348,5.8778625,6.2137403,0.6183206,1.1994889,5.5353661,9.1721401,42.1374054,15.7175570,23.0152664
940,1.3790531,5.3773494,-0.5362985,2.5954199,15.8931293,1.9694656,1.1516051,5.4036856,8.6717539,42.1908379,19.1603050,21.3206100
950,1.5298871,5.2624283,-1.1659702,-0.4580153,24.6106873,4.9007635,1.1611819,5.2408805,8.5759869,41.4732819,22.2137413,19.4732819
960,1.6902977,5.1642666,-1.9345051,-6.8702292,32.7251892,7.3816795,1.5442522,5.6215568,8.2599535,40.5496178,22.8167934,17.0839691
970,1.2210367,8.9231443,-4.0773048,-74.2519073,59.7099228,43.3816795,0.6607963,5.6885943,7.6470413,10.5190840,17.2900772,-2.5419848
980,2.6599445,11.3005743,-1.2258250,-93.4351120,13.6106873,8.1984730,0.1891410,5.5880380,8.0229292,5.3587785,26.9236641,0.0076336
990,1.3814473,11.4418316,0.1891410,-79.0381699,-3.2442749,-11.0992365,-0.2035061,5.8418221,8.5304966,4.7099237,35.6183205,0.7099237
1000,0.7158626,11.4250717,0.4094064,-69.2595444,-5.5648856,-13.4580154,-0.4620786,5.8226686,8.7603388,6.1526718,38.6717567,1.6335878
1010,0.2657550,11.5878773,0.1891410,-61.2595406,-3.6030533,-14.2290077,-0.1244979,6.1674318,9.1553802,8.6335878,36.0992355,-0.1603053
1020,-0.0598547,11.6764622,-0.0095768,-55.9618340,-0.6641222,-14.8396950,0.1149211,6.5840211,8.9638453,10.0839691,28.9770985,-3.5648854
1030,-0.3902529,11.6381550,-0.1987177,-52.2900772,2.6717558,-15.6946564,-0.2873027,6.5433197,9.1194677,9.7328243,23.4885502,-6.0687022
1040,-0.7421987,11.6956158,-0.2035061,-49.3206100,4.5801525,-16.2900772,-0.4237715,6.6247220,9.2463598,10.0763359,16.9160309,-9.9236641
1050,-1.2354017,11.6381550,0.0167593,-45.6488533,3.9465649,-15.8702288,-0.1963235,7.0173693,9.3301563,9.7709923,10.1984730,-13.1755724
1060,-1.4149660,11.5016861,0.2849085,-41.5419846,1.4656489,-14.7175570,-0.4189832,7.1083484,9.7587166,10.5496187,9.9694653,-16.0229015
1070,-1.3598996,11.1234045,0.5865764,-36.3511467,-0.2366412,-13.1068707,-0.3232156,7.1634150,9.9885588,13.3358774,10.0076332,-17.6259537
1080,-1.4149660,10.9127159,0.8188128,-29.7404575,-1.7404580,-11.8396950,-0.4237715,7.2519999,10.3644457,17.9312973,9.9083967,-20.4274807
1090,-1.4245427,10.7020273,0.8523315,-23.6717548,-0.2366412,-9.1908398,-0.6679789,7.3884687,10.3596573,23.0992374,11.2900763,-23.9312973
1100,-1.3527170,10.4362717,0.7733232,-19.1603050,1.1221374,-6.0763359,-1.2401901,7.4411407,10.3931761,28.0534344,14.8396950,-21.8854961
1110,-1.0917504,10.2782555,0.6320660,-16.2442741,1.5648855,-2.8625953,-1.6998745,7.6877422,10.5368280,32.7099228,18.1374054,-19.5801525
1120,-0.7421987,9.9861641,0.6607963,-14.6641226,1.9923664,1.7251909,-2.2026544,7.7404146,10.4123297,37.2824440,21.5267181,-13.1603050
1130,-0.2849085,9.5719690,0.9169745,-13.0458012,1.5572519,7.9618320,-2.3870070,7.7930865,10.2734671,42.1450386,23.6412220,-4.9236641
1140,0.5027798,9.5576038,1.3718705,-8.6793890,-0.7786260,14.1145039,-2.6934631,7.4555058,9.8856087,45.9923668,29.6183205,3.1984732
1150,2.1404054,9.4115591,1.5705882,6.3740458,-5.7404580,20.0610695,-2.2361729,7.1729918,9.0404596,48.2977104,43.2824440,22.6335869
1160,3.0358322,9.6677370,0.6895266,16.4732819,-11.7557249,17.4580154,-1.6376256,6.7324610,8.6454182,49.9312973,53.2061081,35.2671738
1170,3.5194585,9.7706871,0.2154770,18.3206100,-19.0152664,13.7709923,-1.4413021,6.6055689,8.4562769,51.9465637,54.9007645,39.1221390
1180,3.9025288,9.7204094,-0.1532281,17.6717548,-26.7251911,8.5648851,-1.3287752,6.3326311,8.3988171,54.4351158,56.3282433,41.7709923
1190,3.9791429,9.6294298,-0.4525018,13.8702288,-33.2213745,3.3511450,-1.2090657,6.1171541,8.2168579,57.3358765,54.9236641,43.5419846
1200,4.0389977,9.5192976,-0.7469871,8.0534353,-35.8091621,-3.3511450,-1.1947005,5.9878678,8.0061693,60.2977104,51.8854980,44.8244286
1210,3.6942344,9.2128410,-0.7948709,0.1984733,-31.9465656,-9.2748089,-1.0390782,5.8466105,7.5704269,62.2748108,48.4045792,47.1603050
1220,3.2417326,8.9853926,-0.5841822,-7.0305343,-21.9847336,-15.5190840,-0.9241571,5.7484488,7.0293403,62.6412201,48.2595406,48.5725174
1230,2.3846128,8.7004843,-0.6775556,-12.9847326,-8.8167934,-20.2900772,-0.8379663,5.6215568,6.7659793,61.8167953,48.7328262,51.2442741
1240,1.0797794,8.6214762,-1.0797794,-18.8931293,5.0076337,-21.4045811,-0.7517755,5.5281835,6.4547348,60.2595406,48.3358765,52.0381660
1250,-0.0023942,8.7004843,-1.2689204,-24.6335869,16.4580154,-19.1603050,-0.5506636,5.4850879,6.1530671,58.1984749,47.1297722,51.6412201
1260,-0.8666966,8.9351149,-1.3335636,-29.0000000,22.7862587,-14.2213745,-0.4285599,5.3270717,5.8370337,54.9465637,45.6030540,51.4809151
1270,-1.3670821,9.1314383,-1.2138541,-31.4809170,22.3511448,-8.1450386,-0.2442073,5.1115947,5.6263452,50.6793900,42.1603050,50.0687027
1280,-1.4365137,9.3229742,-0.9600700,-31.1526718,14.9694653,-4.0152674,-0.0981618,4.9679432,5.5736732,46.5801544,36.8854980,45.3893127
1290,-1.6017127,9.5863342,-0.6296718,-27.8702297,3.4961832,-1.5496184,-0.0407012,4.8147149,5.6670465,42.6183205,30.9236641,40.6488533
1300,-1.6759326,9.8927908,-0.2346306,-23.5725193,-9.6641226,1.3053435,-0.0598547,4.7620430,5.6167684,39.5877876,26.5877857,37.1679382
1310,-1.5083394,10.3141680,0.2202654,-19.4122143,-19.8167934,4.0076337,0.5123565,4.8338685,5.3965030,36.4122124,19.1221371,32.7709923
1320,-1.2066715,10.6637201,0.8355721,-15.7175570,-23.6717548,6.0610685,0.9409165,4.8961172,5.2169390,31.8320618,14.3969469,24.2595425
1330,-0.8259954,11.1377697,1.0558375,-13.2748089,-20.4580154,6.4427481,0.9792235,4.8195033,5.1044121,28.2061062,10.1450386,11.9236641
1340,0.3591284,13.8527803,2.9280937,9.2900763,28.2824421,2.9923663,0.0335187,6.2248926,5.4372044,-0.7709923,18.2977104,-14.7480917
1350,1.1396341,14.0898046,3.3255291,27.9389305,32.9694672,8.2290077,-0.7158626,6.7252784,5.4946647,-6.9923663,29.5725193,-11.4885492
1360,2.4947455,14.3747139,3.2776453,52.0228996,29.5343513,11.1679392,-0.9361281,7.3214312,6.0142040,-12.4885492,29.5877857,-9.9312973
1370,3.9743545,14.6979294,3.0190730,79.8167953,18.4045811,6.4351144,-1.2425843,7.9127960,7.1059542,-13.9236641,25.6412220,-9.4351149
1380,5.1762376,15.0642405,2.3798244,106.4656525,-3.6793892,-10.0610685,-1.2401901,8.4850073,7.6350703,-11.9694653,21.7786255,-8.6946564
1390,5.7269011,14.8463688,1.4604555,126.0610657,-30.9007626,-37.3587799,-1.4748207,8.8345594,8.0684185,-8.5038166,23.0610695,-10.4122133
1400,5.3222833,14.0419216,0.5722113,133.4961853,-50.9160309,-69.3511429,-1.2401901,9.5432396,8.5831690,-2.0076337,18.4809170,-13.4885492
1410,4.6950054,12.8783455,0.1723816,130.8931274,-56.0534363,-96.9007645,-1.6400198,9.8329363,9.1170731,6.8167939,17.4274807,-19.2366409
1420,3.6391680,11.5328102,0.0119709,122.2290039,-45.7480927,-116.8854980,-2.1930776,10.0436249,9.4378948,17.8167934,17.0458012,-22.1755733
1430,2.4229198,10.3907824,-0.0023942,110.0305328,-26.5114498,-128.5496216,-2.6144550,10.7355452,9.6294298,29.7099228,15.6793890,-24.1832066
1440,1.2904681,9.2918491,-0.1388630,97.2290039,-8.2442751,-133.6717529,-3.2872221,10.9749641,9.5671806,40.6259537,15.4122133,-22.7480907
1450,0.1029501,8.2216463,-0.4908088,83.3893127,4.0000000,-132.7862549,-3.8570392,10.9222927,9.2391768,50.3664131,12.0305347,-19.0534344
1460,-1.1348459,7.3501616,-0.7613522,70.5267181,10.7099237,-125.9770966,-4.1204000,10.8935623,9.1194677,58.8396950,10.8702288,-13.5114508
1470,-2.1978660,6.5481081,-0.6344602,60.0916023,12.0229006,-114.0763321,-4.3550305,10.7882175,8.7627335,66.0916061,10.0534353,-5.7251906
1480,-2.9496415,5.7221127,-0.2801202,54.2748108,8.4122133,-99.8015289,-4.3885493,10.8384953,8.3533268,72.9542007,9.0381680,3.2213740
1490,-3.5817075,5.1522956,-0.0550664,53.4198456,1.5954199,-83.4961853,-4.1826491,10.5990763,7.9175844,80.0839691,11.3282442,13.3206110
1500,-3.9025288,4.7572546,-0.2106887,54.4198456,-4.7022901,-66.1297684,-3.7421181,10.3261395,7.5081782,88.1832047,15.9389315,23.4274807
1510,-3.8833754,4.5178356,-0.6057299,54.3893127,-8.2442751,-49.2519073,-3.1339941,9.9933472,6.7971039,90.9007645,21.9312973,32.0839691
1520,-3.6942344,4.4651632,-0.9911944,51.9312973,-7.5190840,-34.5496178,-2.5929072,9.7419567,6.1770086,96.3969498,28.0763359,39.0000000
1530,-3.7732425,4.5729017,-1.3551112,46.2900772,-4.2671757,-21.7557259,-2.2888451,9.3325500,5.6502872,98.1526718,32.3206100,45.1297722
1540,-3.6248028,4.6806402,-1.9368993,37.1603050,1.8091604,-10.1832066,-1.7788827,8.9853926,5.3294659,98.6412201,33.8015251,49.6259537
1550,-3.3638363,4.7476778,-2.1691356,24.2519093,10.1679392,-2.4274809,-1.3503228,8.5328913,4.9104824,98.3969498,33.4961815,51.5267181
1560,-3.6415622,5.3725610,-1.3694763,-17.9541988,38.0534363,4.1526718,0.3136388,7.4363523,3.8929520,90.4580154,34.7938919,45.9541969
1570,-3.8187323,5.4898763,-0.8786675,-27.6335869,44.5419846,5.4656487,0.7637464,7.1035600,3.8043671,89.6183243,34.6564903,41.0152664
1580,-3.8929520,5.5736732,-0.4836263,-34.5725174,51.8702278,8.1068707,1.0941446,6.8090749,3.7780309,88.7251892,33.7786255,36.0610695
1590,-3.7253587,5.8537931,-0.1221037,-39.0610695,60.3282433,11.0381680,1.4221486,6.5505023,3.6702924,88.1068726,31.9618320,30.5343513
1600,-3.3111639,6.3661499,0.0718257,-41.3435097,68.5267181,13.0839691,1.6352314,6.2416520,3.3853838,85.0916061,30.2824421,23.6259537
1610,-2.9400647,7.0868006,-0.1149211,-41.0228996,78.9923630,12.8702288,1.6136837,6.1171541,3.0549858,82.1908417,27.6717548,15.9923668
1620,-0.9528874,10.3476868,-3.1435707,-47.4580154,106.1832047,-4.5801525,1.2018831,6.5145893,1.6783268,48.9694672,18.8320618,-2.2595420
1630,-0.5458752,10.9558105,-3.6918402,-50.4961815,101.2061081,-8.3587790,1.2282192,6.0860295,1.0318956,27.9923668,9.7709923,-9.2366409
1640,-0.1005560,11.2933912,-3.9623835,-52.3893127,92.0381699,-11.1832066,1.1779412,5.9232249,1.5083394,12.2290077,-0.8625954,-12.4809160
1650,0.4261657,11.4274664,-3.8522508,-51.2824440,78.3740463,-12.8625956,1.1276633,6.3805151,1.4628497,-3.7022901,-6.6641221,-15.8778629
1660,0.8619082,11.3771887,-3.5625539,-46.7786255,62.0305328,-14.4961834,1.1970947,6.4523406,1.4006008,-20.4732819,-14.7328243,-23.9160309
1670,1.1899122,11.2766323,-3.2153964,-39.7099228,45.2442741,-15.1374044,0.9073978,6.7564025,1.8674678,-32.8015251,-18.4351139,-30.4122143
1680,1.5394639,11.0994625,-3.1555417,-32.2442741,30.6717548,-14.0305347,0.3926471,7.3908629,1.9728121,-43.8015251,-20.8167934,-37.3358765
1690,1.8339491,10.8193426,-2.9592183,-25.9847336,20.0687027,-11.7404585,-0.3950413,7.9032192,2.0039365,-53.9160309,-25.2137413,-43.1297722
1700,2.1044924,10.5607700,-2.9041519,-21.1832066,11.8396950,-9.5954199,-1.1061156,8.5304966,2.1188576,-62.5114517,-29.4198475,-46.8320618
1710,2.2481439,10.4075413,-2.7724714,-17.6564884,4.9465647,-8.0916033,-1.7429699,9.2319946,1.9799947,-71.5114517,-32.6259537,-47.8244286
1720,2.3463056,10.1034794,-2.7365584,-15.4732828,-0.9312977,-6.9694657,-2.4564383,9.9430685,1.9919657,-81.2824402,-34.8549614,-45.9160309
1730,2.0326669,9.8496952,-2.5857246,-14.9007635,-6.8015265,-5.4885497,-2.7916248,10.3835993,2.3894010,-90.5190811,-34.1221390,-43.1297722
1740,1.7166338,9.6102762,-2.3989778,-14.8015270,-12.5572519,-2.6946564,-3.0023136,10.9390516,2.9161227,-98.6335907,-32.8931313,-38.8396950
1750,1.3622938,9.3660688,-2.0183017,-14.8702288,-18.9007626,1.1297710,-3.2058196,10.9653873,3.9456241,-101.7251892,-32.0610695,-34.1755714
1760,1.1180865,9.0691900,-1.6088953,-13.8702288,-25.7480907,5.4885497,-2.9879484,11.2191715,5.0637107,-98.2748108,-27.7480907,-29.9923668
1770,0.9457048,8.9494801,-1.1013272,-11.7862597,-32.4809151,9.4809160,-2.8371146,11.3747940,6.0980005,-88.8320618,-21.4274807,-29.0992374
1780,0.6009415,8.8130112,-0.6320660,-9.1068707,-37.5877876,12.7251911,-2.7988074,11.4873209,6.6750002,-75.1526718,-15.8625956,-28.4351139
1790,0.5147507,8.7268209,-0.5267217,-7.4809160,-40.2977104,15.1984730,-2.7245877,11.7195578,6.9886389,-59.3282433,-10.7022905,-29.5877857
1800,0.2035061,8.5640154,-0.6536137,-8.5954199,-40.1603050,16.8396950,-2.6072724,11.9350348,7.2807302,-42.5267181,-5.3664122,-30.2442741
1810,-0.1340746,8.4059992,-0.5458752,-11.1908398,-38.8320618,18.6717548,-2.5091105,12.1074162,7.1658092,-24.8396950,0.0839695,-32.3816795
1820,-0.4094064,8.3150196,-0.4189832,-14.5038166,-36.1374054,20.7022896,-2.2577207,12.2965574,6.8306227,-8.2137403,6.7557254,-34.0839691
1830,-0.5554519,8.2695303,-0.3088504,-17.5572510,-31.8396950,22.7480907,-2.1619530,12.3372583,6.5696559,7.9083967,13.9618320,-36.0152664
1840,-0.6751614,8.3054428,-0.4309541,-21.5648861,-25.1068707,25.1679382,-2.4037662,12.4258432,6.0453281,22.9389305,22.5801525,-35.8931313
1850,-0.9121862,8.3293848,-0.4094064,-25.8396950,-17.8931293,27.6793900,-2.5067163,12.6006193,5.5281835,36.3740463,29.5267181,-33.7175560
1860,-1.0079538,8.5688038,-0.3615226,-29.2442741,-9.9847326,30.2519093,-2.1930776,12.7849712,4.6519103,47.7709923,40.8091621,-30.1068707
1870,-1.2880739,8.8201942,-0.3160330,-31.9618320,-2.6030533,32.2366409,-1.9081690,12.8951044,3.5218527,54.4961815,57.4274826,-26.9923668
1880,-1.7094513,9.1553802,-0.3806761,-33.2595406,1.6030535,34.6870232,-1.6998745,12.9789009,2.9041519,57.9847336,78.4656525,-22.3587780
1890,-1.9776005,9.5121145,-0.4764437,-32.9694672,0.8549618,37.0839691,-1.7046629,13.2159262,2.4157372,59.0076332,105.8854980,-15.5496187
1900,-2.5378408,10.0292597,-0.5051740,-26.9083977,-13.7786255,40.0610695,-3.4428444,12.6796274,1.4484847,48.7099228,146.1221313,6.9007635
1910,-2.5785420,10.2734671,-0.5027798,-22.4198475,-23.8396950,43.3893127,-4.3957319,12.1936073,1.6783268,37.4427490,142.5877838,23.9618320
1920,-2.3367288,10.5464048,-0.4285599,-17.8625946,-32.6641235,46.1679382,-3.6846576,11.0396080,1.9776005,24.9007626,116.8244247,40.2824440
1930,-1.9632354,10.7738523,-0.2705434,-12.3206110,-38.1603050,46.1297722,-1.6855093,9.8233595,2.8323262,17.2061062,83.0000000,46.9541969
1940,-1.5466464,10.8361015,-0.1388630,-7.0229006,-38.4885483,44.0000000,0.6296718,9.4977493,3.4691806,21.0610695,61.6183205,41.2595406
1950,-1.2162483,10.8911676,-0.2011119,-3.0000000,-35.0992355,39.7862587,2.6407909,9.4618368,3.5960727,35.3053436,56.3358765,28.8931293
1960,-0.8714849,10.9821472,-0.3471575,-1.1221374,-29.6870232,33.5190849,3.9480183,9.5025377,3.1962428,53.9847336,71.3358765,7.1374044
1970,-0.7206510,10.9917240,-0.5937590,-0.8015267,-23.0534344,25.5648861,4.0366035,9.4402885,2.2170193,71.2671738,91.4961853,-12.9007635
1980,-0.6560079,11.0324249,-0.7613522,-1.4045801,-16.5725193,16.9923668,3.4093258,10.1657286,0.6320660,78.0000000,111.0992355,-27.2824421
1990,-0.7733232,10.8744087,-1.1204807,-3.7633588,-10.8625956,8.6259546,2.2553265,9.9957409,0.6967092,91.0610657,117.3435135,-29.6946564
2000,-1.0031654,10.8456783,-1.3191984,-7.1145039,-7.0916033,2.2366412,1.8052188,10.9893293,-0.7086801,89.0992355,124.7175598,-29.6106873
2010,-1.1659702,10.5320396,-1.4580613,-11.6717558,-4.3740458,-2.1145039,0.4237715,11.4370432,-2.0566087,77.7175598,117.3587799,-29.2977104
2020,-1.2330076,10.2806492,-1.4484847,-16.0916023,-2.2061069,-5.2824426,-0.3591284,11.7554703,-2.8802099,59.9312973,100.5343475,-28.3816795
2030,-1.3670821,10.0723553,-0.9552816,-17.8778629,-0.9083970,-7.6335878,-0.4357425,11.9733410,-3.2417326,37.2290077,79.7938919,-27.2061062
2040,-1.3862357,9.8353300,-0.7374104,-16.7862587,-1.0534351,-8.4274807,0.3687052,12.1169930,-3.1387823,10.3587790,62.1145020,-29.8091602
2050,-1.4436963,9.4857788,-0.6105183,-15.0000000,-2.8778627,-8.4809160,1.2234308,12.1026278,-2.8323262,-18.0610695,52.1297722,-36.7480927
2060,-1.2952565,9.0955257,-0.5195391,-13.8473282,-7.1374044,-7.7175574,2.2074428,11.7267399,-1.8938038,-40.9007645,51.0458031,-48.4885483
2070,-1.2282192,8.7555504,-0.4692611,-12.2824430,-11.8015270,-4.9770994,2.6790979,11.3963413,-0.9002152,-54.7862587,56.3740463,-62.2977104
2080,-1.1994889,8.3605099,-0.2681492,-10.1908398,-14.5190840,-0.0305344,2.8203552,11.1497402,0.0718257,-58.4885483,70.1984711,-77.0229034
2090,-1.0247130,8.1498213,-0.3351865,-7.8625956,-14.7099237,5.6641221,2.5091105,11.0467901,0.8786675,-55.8778610,85.8320618,-91.1603088
2100,-0.8140244,7.9534974,-0.5267217,-6.7022901,-15.0916033,9.8396950,1.3455344,10.7954006,1.8171898,-47.4732819,94.9618301,-102.2290039
2110,-0.6272776,8.0827837,-0.7876883,-7.3893127,-15.5496187,13.0992365,0.3950413,10.5344334,2.1906834,-33.6030540,96.9389343,-103.2977066
2120,-0.4453192,8.1713686,-0.7254394,-9.7099237,-15.2213745,15.0687027,0.6296718,9.8640604,2.1499822,-16.5038166,97.0763321,-101.4732819
2130,-0.2011119,8.3269911,-0.8666966,-13.3969469,-14.7251911,16.9160309,1.1659702,8.8393478,1.9105632,1.0763359,106.0000000,-101.7709961
2140,0.0981618,8.4347296,-1.0223188,-18.6259537,-14.7633591,18.3358784,1.9991482,7.4842362,1.0558375,15.9312973,123.4274826,-109.2290039
2150,0.4884146,8.6071110,-0.7421987,-24.5038166,-15.3664122,19.6335869,2.0254843,5.9830794,0.0095768,27.5954189,145.7328186,-125.7786255
2160,0.6943150,8.8561068,-0.2537841,-28.3587780,-17.1450386,20.7709923,2.2720859,4.2664456,-0.9816177,37.4351158,166.4122162,-145.8396912
2170,1.0390782,8.9399033,0.2729376,-28.8549614,-19.6564884,22.0305347,1.7980363,2.5665710,-2.1787124,47.6870232,192.9007568,-164.9770966
2180,1.4820032,9.1649570,0.6488253,-26.9541988,-23.9694653,22.9770985,0.6751614,0.6033357,-3.0310438,56.6412201,222.3358765,-180.4351196
2190,1.8914096,9.4857788,1.0007712,-23.9160309,-27.8549614,23.1679382,-0.8140244,-1.4341195,-3.5290353,63.1221390,247.7404633,-194.3053436
2200,2.3271523,9.7611103,1.1372399,-20.3587780,-31.1221371,21.5419846,-2.7221935,-3.2824337,-3.8450682,67.3282471,250.1297760,-209.3893127
2210,2.7796540,10.0196829,1.0989330,-18.8931293,-31.3893127,18.0534344,-4.7213416,-5.0756817,-4.0964580,68.7557220,250.1297760,-226.6641235
2220,2.9520357,10.2854376,0.9121862,-20.2900772,-26.2290077,12.7709923,-6.3230543,-6.7372489,-4.7620430,66.0534363,250.1297760,-245.6488495
2230,2.8682389,10.4817610,0.6584021,-24.5190830,-17.9312973,5.5419846,-8.1019373,-8.2240410,-5.4467812,55.5877876,237.8244324,-250.1374054
2240,2.5067163,10.5990763,0.5147507,-30.7022896,-8.8167934,-2.8625953,-10.8648319,-8.8561068,-5.8322453,36.9847336,217.0000000,-250.1374054
2250,1.9273225,10.6565371,0.5147507,-37.4961815,1.8320611,-11.2290077,-13.7426472,-9.3181858,-6.2248926,8.8091602,192.9694672,-250.1374054
2260,1.2497669,10.5368280,0.5506636,-43.1526718,12.7862597,-18.5725193,-16.9748039,-9.8951855,-6.1027889,-30.9083977,160.0076294,-245.7480927
2270,0.1747758,10.4458485,0.4979914,-47.2213745,22.0687027,-23.3969460,-18.6938305,-10.7451220,-5.0589223,-88.2442780,116.2824402,-225.0458069
2280,-0.8738791,10.2399483,0.5841822,-48.9007645,24.8244267,-24.0534344,-19.6131992,-10.9725704,-2.6958573,-152.2366486,83.6412201,-203.7557220
2290,-1.8531027,9.9837704,0.7972651,-47.2519073,22.1526718,-19.6030540,-19.6131992,-9.7970228,3.9647777,-187.0839691,84.3893127,-191.9160309
2300,-2.5474176,10.0771437,1.0773853,-41.8320618,14.7557249,-10.7099237,-19.6131992,-7.0317345,14.4082317,-172.3969421,146.4427490,-185.6717529
2310,-3.0047078,10.2423429,1.5059452,-32.9083977,4.4503818,0.6106870,-19.6131992,-2.0374553,19.0529594,-106.7480927,215.9160309,-183.7709961
2320,-2.9687948,10.5200682,2.1164634,-19.8091602,-7.0687022,10.5496187,-19.6131992,-1.0486550,19.4408188,-8.5572519,136.9541931,-139.5496216
2330,-2.5689652,10.8935623,2.2744799,-5.4503818,-16.3664131,17.1068707,-19.6131992,-0.7565638,17.5015240,73.6335907,-3.0916030,-44.6106873
2340,-2.2361729,11.2143831,2.1739240,5.7786260,-20.0381680,19.6946564,-19.6131992,0.7350162,12.4593620,108.2977066,-151.9313049,64.1297684
2350,-2.0206959,11.5735121,1.6974803,11.7938929,-18.8473282,19.7557259,-19.6131992,0.0502780,5.9112539,89.5496216,-250.1374054,148.5496216
2360,-1.8531027,11.8751793,1.6711442,13.0916033,-14.6641226,18.1374054,-19.6131992,-3.1100521,-0.5195391,39.1145020,-250.1374054,183.1068726
2370,-1.7501525,12.1433287,2.0733681,13.9541988,-8.6183205,15.6259546,-15.2581692,-5.6838059,-3.3949606,-0.9847328,-250.1374054,174.3358765
2380,-1.3718705,12.2175484,2.5593886,17.2671757,-0.5114504,12.6259546,-11.4657736,-6.5193777,-3.4907281,-23.1068707,-250.1374054,142.7328186
2390,-1.2545552,12.3157110,2.5881188,22.3282452,6.6717558,8.7709923,-9.7228031,-4.7069764,-2.7485294,-28.7404575,-250.1374054,104.5572510
2400,-1.3239868,12.4210548,2.4995339,26.9770985,12.9465647,5.8778625,-9.5192976,-1.8004304,-1.3910241,-22.6717548,-250.1374054,75.4198456
2410,-1.1827296,12.4449968,2.4875629,31.2519093,17.0305347,3.5877862,-10.4338779,0.4501076,-0.0239419,-8.6946564,-250.1374054,66.5954208
2420,-0.6823440,12.4042959,2.7221935,37.4503822,19.1603050,1.5267175,-10.4027529,2.0590029,0.1197095,6.4961834,-250.1374054,72.7175598
2430,-0.2154770,12.5359764,2.7844424,46.1679382,18.9160309,-2.6183207,-9.0548248,3.7109938,-0.1508339,13.6412210,-250.1374054,78.3282471
2440,0.1771700,12.5671005,2.7269819,56.7404594,16.1832066,-8.8931293,-7.7475972,5.0158267,-0.1556223,14.0687027,-246.7022858,75.9007645
2450,0.3734936,12.3492289,2.4995339,67.4885483,13.4809160,-14.9465647,-6.7444315,6.1722202,0.1747758,13.2290077,-229.3053436,65.4503784
2460,0.3208214,12.0834742,2.2792683,77.3282471,13.1145039,-16.8091602,-7.1203194,7.4531116,0.9409165,14.4885492,-214.0992432,53.3664131
2470,0.4572902,11.7267399,1.8770446,87.3282471,13.4274807,-15.0992365,-7.7140784,8.7363977,1.7190280,18.8931293,-205.5725250,42.5038185
2480,0.5865764,11.3819771,1.3646880,97.9236679,12.8778629,-12.4274807,-8.7363977,9.9334917,2.4516499,23.9541988,-200.0152740,33.6030540
2490,0.8403605,11.0755205,0.7972651,107.5419846,10.8091602,-8.3129768,-9.7036495,11.0946741,3.1651185,33.7175560,-193.4885559,30.8320618
2500,1.3263810,10.7906122,-0.1939293,115.6030502,7.0992365,-5.4961834,-9.9646168,12.2175484,3.7852135,45.5496178,-178.0229034,33.3206100
2510,1.9081690,10.7403336,-1.2761030,117.5038147,1.3358779,-7.7480917,-10.3859940,12.9429884,4.3837609,61.8625946,-151.9313049,38.3969460
2520,3.6535332,9.6054878,-2.0566087,109.0381699,-12.5267172,-20.7862587,-11.1425581,13.4433737,4.8482337,80.6412201,-123.1068726,48.7938919
2530,4.3861551,8.4036045,-2.8873925,94.4503784,-23.7709923,-39.0763359,-11.8249016,13.9940376,5.0062504,100.5572510,-93.4351120,64.5877838
2540,3.6295912,7.9726510,-3.3829896,74.0610657,-19.9541988,-53.8244286,-12.3516235,14.1137466,4.3502421,117.4961853,-70.3053436,81.3282471
2550,2.5330524,7.8026633,-3.3710186,52.8778610,-11.3740454,-63.1374054,-12.5766773,13.7594070,3.5721307,128.0076294,-58.1221390,96.4809189
2560,1.5801650,7.4411407,-3.2201848,32.4885483,-7.3664122,-67.4274826,-12.7083578,13.3452120,2.6072724,129.9389343,-54.8854980,110.5877838
2570,0.9433106,7.1155310,-2.5593886,16.8702297,-6.3816795,-69.3893127,-12.2247314,13.2278967,2.0709739,123.0076370,-54.9236641,122.0000000
2580,0.3734936,6.5672617,-1.6208663,8.6488552,-6.1679387,-69.9389343,-11.4178896,12.8304615,1.7357874,110.8778610,-62.6259537,130.1679382
2590,-0.2968795,6.0142040,-1.1731528,6.7328243,-6.9923663,-67.4427490,-10.2638903,12.0882626,2.0781565,99.1450348,-71.8320618,136.1297760
2600,-0.8571198,5.5018473,-1.2545552,6.4885497,-9.9083967,-62.5267181,-9.1003141,11.1329813,2.4348907,90.3740463,-73.7633591,141.1145020
2610,-1.3790531,5.2001796,-1.5394639,4.9083967,-13.6946564,-55.2977104,-7.8457589,10.1681223,3.1962428,94.0839691,-66.9694672,146.5114441
2620,-1.8674678,4.8985114,-1.6519908,0.5648855,-19.2824421,-46.5038185,-6.5552907,9.2367830,3.2225790,100.7480927,-56.7938919,151.1068726
2630,-2.1188576,4.7381010,-1.5490406,-4.5419846,-24.0916023,-36.2977104,-5.4491754,8.1474266,2.8155668,111.8091583,-44.5343513,155.3740387
2640,-2.0901275,4.6734576,-1.5394639,-10.5725193,-27.5877857,-27.5038166,-4.4747400,7.0820122,2.3654592,122.6564865,-28.6641216,159.7480927
2650,-2.1068866,13.6492739,0.9888002,-30.0610695,12.2595415,53.5954208,1.9177457,3.2393384,-0.7086801,62.8091621,5.7862597,72.4274826
2660,-1.2689204,14.1544485,1.2138541,-15.9618320,13.8549614,58.2137413,1.8411317,3.1699069,-0.6105183,56.9541969,0.4503817,64.1297684
2670,-0.2968795,14.4369621,1.2784972,-0.3664122,16.6259537,57.6641235,1.8602852,3.2201848,-0.8666966,50.7480927,-3.9923663,56.8244286
2680,0.6057299,14.6739874,1.2737088,16.4885502,17.6488552,52.7938919,1.8004304,3.3303175,-1.0989330,42.9236641,-7.1526718,49.2137413
2690,1.3479286,14.5638542,0.9576758,32.7709923,15.5114508,44.8091621,1.6663558,3.5074875,-1.2377959,32.2900772,-14.0610685,43.1145020
2700,1.4508789,14.5039997,0.5003856,46.5038185,7.2900763,35.3587799,1.7022687,3.7157819,-1.4293311,20.4122143,-23.9007626,37.3358765
2710,1.6495966,14.0395269,-0.1149211,55.3282433,-0.8244275,27.5343513,2.1523764,3.9695661,-1.2808913,9.1221371,-32.8625946,32.6641235
2720,1.7501525,13.3667593,-0.4405309,59.9007645,-6.8854961,18.4122143,2.7509236,4.1012464,-1.0941446,0.2595420,-37.3358765,24.9847336
2730,1.6902977,12.8137016,-0.5195391,62.0228996,-11.1832066,9.0229006,3.0094962,4.4484038,-0.8379663,-6.4427481,-37.5114517,15.1603050
2740,1.5083394,11.9470053,-0.4979914,62.9694672,-11.3664122,0.1221374,2.6767037,5.1546898,-0.5075682,-8.4351149,-39.9312973,7.5038166
2750,1.3263810,11.0659437,-0.7517755,62.8396950,-9.3053436,-9.1145039,2.5953014,6.1410961,-0.3615226,-7.9389315,-36.7404594,1.1374046
2760,1.0247130,10.2112179,-0.9792235,60.5190849,-6.2900763,-17.4580154,2.0111191,7.0748301,-0.5578461,-6.0381680,-34.7328262,-3.0076337
2770,1.1563935,9.0213060,-1.1779412,56.5648842,-5.8549619,-26.0992374,1.5442522,8.1593981,-1.2066715,-5.4045801,-36.4351158,-5.4580154
2780,0.9169745,7.8313937,-1.3575054,51.1755714,-5.5038166,-35.3969460,1.7022687,9.2966375,-1.8554969,-8.7557249,-39.2671738,-7.9923663
2790,0.3232156,7.2065101,-1.9776005,43.1603050,-3.2061069,-42.8778610,2.0566087,10.3764172,-2.6431851,-16.8167934,-39.8244286,-11.8396950
2800,-0.5985473,6.6007805,-2.2146254,32.2977104,0.1526718,-47.8931313,2.1068866,11.1377697,-3.2249732,-27.1221371,-39.3816795,-14.0000000
2810,-1.4508789,6.1123657,-2.4109488,20.0610695,2.3816793,-48.0763359,2.2936335,11.9829178,-2.7988074,-38.9160309,-28.6793900,-17.5725193
2820,-2.4875629,5.8130918,-2.1188576,10.2061071,0.8167939,-42.8091621,2.0350611,12.5000629,-2.2098370,-46.6641235,-22.7480907,-22.2977104
2830,-3.0956869,5.6359220,-1.7022687,4.4885497,-3.7099237,-32.5038185,1.8674678,12.7203283,-1.1851238,-47.0992355,-17.7633591,-24.3129768
2840,-3.2130022,5.3965030,-1.1851238,3.3511450,-7.5572519,-19.7099228,1.7549409,13.0076313,-0.3088504,-43.0458031,-8.3129768,-29.7404575
2850,-2.9376705,5.3127065,-1.0893562,4.3053436,-8.0229006,-8.2748089,1.2377959,12.8855276,0.2681492,-34.8625946,1.9694656,-31.7786255
2860,-2.7269819,5.4850879,-1.4484847,3.4351146,-5.2366414,1.5343511,1.1947005,12.7801828,0.5506636,-24.6106873,14.7175570,-29.9389305
2870,-2.7078283,5.7029591,-1.8746504,-2.1832061,-0.8854962,10.9160309,1.1468167,12.7131462,0.8666966,-12.6793890,23.9923668,-26.2442741
2880,-2.3486998,6.0620875,-2.1188576,-10.7938929,3.6793892,20.6641216,1.0414724,12.5551291,0.7278336,-1.0229008,29.3740463,-21.5801525
2890,-1.5203103,6.3278427,-1.9632354,-20.4656487,8.9312973,28.0839691,1.1156923,12.2845860,0.6320660,8.6946564,30.4961834,-19.2366409
2900,-0.9265513,6.5912037,-1.7046629,-27.5343513,14.3893127,31.4656487,1.0271072,12.0068598,0.5075682,17.6717548,28.9007626,-17.7175579
2910,-0.1987177,7.0556765,-1.5394639,-32.4656487,18.7328243,33.3587799,1.5107336,11.8344784,0.4453192,26.2061062,34.8473282,-18.2748089
2920,0.3232156,7.4890246,-1.5466464,-37.1221390,21.7480907,33.3969460,1.7884595,11.5280218,0.2561783,34.6183205,38.5496178,-22.5877857
2930,0.5650287,8.0085640,-1.7118455,-41.9541969,24.1755733,32.4045792,1.9009864,10.9893293,0.3136388,43.0152664,43.8167953,-28.0610695
2940,0.6727672,8.3174143,-1.8770446,-48.0305328,27.9770985,31.9541988,2.0518203,10.7546988,0.3232156,51.4885483,47.7175560,-37.6564903
2950,0.7829000,8.6621771,-1.8459201,-54.5114517,31.1374054,33.0687027,1.7405758,10.6230183,0.3112446,61.8015251,47.4198456,-47.1679382
2960,0.8810617,9.1266499,-1.5801650,-59.2061081,33.9312973,35.3435097,1.5514348,10.4386663,-0.0526722,70.5190811,42.0305328,-57.0228996
2970,1.0271072,9.6150646,-1.4628497,-61.8015251,36.3664131,37.6030540,1.4365137,10.2519188,-0.5267217,77.2824402,31.0076332,-66.5572510
2980,1.0821736,10.1154509,-1.6735384,-65.8320618,40.5190849,40.3435097,1.3838415,10.1489687,-0.9313397,81.8167953,16.9541988,-77.8091583
2990,1.2377959,10.7618818,-1.4532729,-71.1984711,48.7709923,43.1679382,1.9752063,10.5631638,-1.1635761,87.1526718,4.1526718,-93.6564865
3000,1.4101776,11.2814207,-1.2282192,-75.5954208,56.6335869,44.6946564,2.2936335,10.9653873,-1.8267666,95.5419846,9.2900763,-112.7404556
3010,1.4053892,11.9206696,-0.7230452,-76.6259537,59.3969460,44.1068687,1.2521610,10.8672256,-2.7461352,106.8396912,25.4732819,-129.9847260
3020,1.2617378,12.3492289,-0.2226596,-72.1450348,52.3969460,41.0076332,-0.9313397,11.1712875,-3.5529771,118.1221390,33.1984749,-138.4427490
3030,1.2258250,12.6868095,0.2035061,-62.7786255,35.3206100,37.3053436,-2.4731977,11.3388815,-3.9504125,123.8702316,28.3740463,-135.2137451
3040,1.2617378,12.8472204,0.5937590,-50.6717567,13.4198475,33.5343513,-2.9951310,11.4538021,-3.8809812,121.8702316,21.5877857,-122.1832047
3050,1.3072275,12.7562418,1.0773853,-37.1755714,-7.8854961,29.8549614,-2.2936335,11.2646618,-3.1890604,115.5267181,18.4580154,-105.4503784
3060,1.6017127,12.5982246,1.2401901,-23.2824421,-22.0152664,27.4274807,-0.8547257,10.8887739,-2.1332228,112.0457993,24.2442741,-92.1603088
3070,1.7309990,12.5335817,1.4053892,-9.8931293,-27.6259537,24.6030540,1.0127422,10.1441803,-1.1970947,119.4198456,43.6335869,-84.4274826
3080,1.8100072,12.3899307,1.1923064,1.6564885,-28.7862587,20.6641216,3.0765336,9.5767574,-0.5530578,139.3740387,75.4732819,-89.1450348
3090,1.7118455,12.1265697,0.6607963,9.0992365,-28.2671757,15.2519083,5.1403246,8.9758167,-0.5434810,166.7709961,117.5343475,-103.6717529
3100,1.4891858,11.8775740,0.1532281,12.2748089,-26.5648861,9.0763359,5.9950504,8.7363977,-1.2449785,197.2824402,156.8091583,-125.5190811
3110,0.9600700,11.5160513,-0.2035061,12.9465647,-24.4198475,3.0687022,5.8250628,8.5999289,-2.1332228,221.1374054,190.1145020,-145.7404633
3120,0.5386927,11.0946741,-0.3423691,12.4198475,-21.9618320,-1.9465649,5.3917146,8.5711985,-3.1268115,233.3816833,207.2290039,-165.7709961
3130,0.0574605,10.7762470,-0.4572902,12.0839691,-19.8473282,-6.7022901,4.7261300,8.5376797,-3.5026991,236.0534363,208.9084015,-184.5190887
3140,-0.4381367,10.4434547,-0.5530578,11.8244276,-18.5190830,-10.8702288,3.7109938,7.9606800,-4.0054789,233.0763397,197.0152740,-198.8320618
3150,-1.0175306,10.1609402,-0.8331779,10.7022905,-17.2671757,-13.7633591,3.3614421,6.7947097,-4.4196739,227.1603088,169.3358765,-214.5343475
3160,-1.4628497,9.9191265,-1.1420283,7.2977099,-16.2595425,-15.6412210,3.7660601,6.0836353,-4.7811961,218.1908417,131.2366486,-233.5114441
3170,-1.6543850,9.6222477,-1.1037214,3.0534351,-16.3053436,-16.1526718,3.5936785,5.4491754,-5.0373745,205.1832123,90.7328262,-250.1374054
3180,2.9113343,9.0620070,-2.7269819,-0.0305344,-5.9694657,21.9465656,-15.3108416,-9.8233595,-9.7419567,113.9465637,148.3893127,-14.8473282
3190,2.2337787,9.2559366,-2.7341642,-11.1603050,4.8931298,18.1832066,-11.3724003,-10.7116032,-12.7658186,109.6641235,143.2671814,-18.4351139
3200,1.4221486,9.5911226,-2.9256995,-19.5572510,14.1908398,16.6488552,-9.3445215,-9.6461897,-15.0139618,75.6946564,115.8091583,-68.5114517
3210,0.6584021,9.9526453,-2.8610563,-24.4198475,18.8931293,15.6335878,-10.7427282,-7.4315639,-15.7394018,3.6870229,71.1908417,-137.8931274
3220,0.1819584,10.2088242,-3.0047078,-28.2977104,15.8167934,15.6793890,-15.9764261,-4.7333126,-13.8599625,-92.2061081,15.2824430,-185.1068726
3230,-0.0766141,10.3740225,-2.9017577,-32.2137413,5.9083967,16.5648861,-19.6131992,-1.7860653,-9.2296000,-184.6335907,-51.2213745,-176.1450348
3240,-0.1963235,10.6996326,-2.3295465,-33.9465637,-10.4427481,18.4961834,-19.6131992,1.1324517,-3.9216824,-250.1374054,-129.3129730,-117.2519073
3250,0.1843526,11.0204544,-0.9289455,-30.4274807,-31.7175579,19.3282452,-19.6131992,2.2146254,0.9026094,-250.1374054,-202.1755676,-31.5725193
3260,0.8236012,11.2095947,0.0885850,-22.6335869,-49.3740463,17.1679382,-19.6131992,1.3335636,4.6064205,-250.1374054,-250.1374054,62.3129768
3270,1.4820032,11.3173332,0.7421987,-15.2137403,-58.9236641,13.5648851,-19.6131992,-1.0318956,6.3374195,-250.1374054,-250.1374054,155.8854980
3280,1.9249283,11.4753504,1.1300575,-11.2061071,-60.4809151,8.0992365,-19.6131992,-4.2688398,5.4779053,-223.8244324,-250.1374054,225.4274750
3290,2.4923513,11.5543585,1.6663558,-10.4198475,-56.3740463,0.5038168,-15.5646257,-7.7811155,2.5282640,-156.5648804,-250.1374054,250.1297760
3300,2.9831600,11.6620970,2.1523764,-11.1221371,-47.4045792,-9.0687027,-10.1992474,-9.9287033,-0.9385223,-91.8320618,-250.1374054,250.1297760
3310,3.1938488,11.6285782,2.4971397,-11.1908398,-34.5267181,-20.0000000,-6.3733325,-9.9670105,-4.3047528,-40.7633591,-250.1374054,231.0610657
3320,3.2824337,11.5208397,2.5546002,-10.9236641,-21.5267181,-31.5190830,-4.1587071,-8.0277176,-6.4978304,-9.4732828,-250.1374054,187.4503784
3330,3.0382264,11.3173332,2.4420733,-10.0381680,-11.1068707,-42.3893127,-3.7947903,-5.3414369,-7.2017217,6.2290077,-220.6488495,147.4503784
3340,2.6934631,10.9390516,2.2577207,-8.6259546,-3.3893130,-52.0839691,-4.8745699,-2.5665710,-7.4124107,10.3664122,-179.6793823,120.7862625
3350,2.1284344,10.4266949,2.0805507,-6.0076337,2.0152671,-59.5496178,-6.7300668,-0.3351865,-7.1131368,6.3511453,-149.3740387,114.4503784
3360,1.6065011,9.9598284,2.0350611,-2.5572519,4.8091602,-64.1526718,-8.4562769,1.3910241,-6.8330169,-2.2061069,-133.9236603,123.9160309
3370,1.0223188,9.4498653,1.7309990,0.9236641,5.9923663,-65.5038147,-9.0739784,2.5019281,-6.8401995,-15.6412210,-131.4732819,140.0152740
3380,0.4309541,8.9782104,1.3934183,4.0534353,5.9770994,-63.9923668,-9.0500364,3.1172347,-6.9646969,-31.8091602,-145.0458069,153.2290039
3390,-0.0598547,8.5472565,1.0702027,6.3893127,5.0763359,-59.9694672,-8.1570034,3.5338237,-6.8258343,-49.3816795,-176.9541931,153.9160309
3400,-0.3878587,8.2312231,0.9050036,8.5038166,3.3053436,-53.8854980,-7.0245519,4.7237358,-6.7324610,-66.7404556,-218.9923706,143.6946564
3410,-0.5578461,7.9822278,0.3998296,9.3969469,0.6335878,-47.1374054,-5.9639258,6.2153158,-6.4260044,-83.0457993,-250.1374054,126.6488571
3420,-0.5506636,7.8122401,0.1532281,8.8854961,-1.5267175,-40.9160309,-5.0828643,7.7236552,-6.0333576,-94.6030502,-250.1374054,104.6564865
3430,-0.5362985,7.7332320,-0.1532281,6.5267177,-2.8778627,-36.9847336,-4.7500720,8.8513184,-5.1211715,-97.6564865,-250.1374054,85.7862625
3440,-0.4716553,7.5297260,-0.1364688,2.5725191,-3.8854961,-33.9465637,-5.1570840,9.7611103,-4.1563129,-87.7938919,-250.1374054,69.8244247
3450,-0.4237715,7.4219875,-0.2226596,-1.6412214,-3.7175572,-31.4274807,-6.4667058,10.6325951,-3.4643922,-67.0839691,-228.0839691,60.9618340
3460,-0.6081241,7.3190370,-0.3782819,-6.7328243,-1.6641221,-28.7709923,-7.9702568,11.9254580,-2.8634505,-42.0458031,-190.0000000,60.9312973
3470,-0.7757174,7.2376347,-0.3088504,-12.1755724,2.6641221,-25.5648861,-8.8345594,13.1608591,-2.5067163,-17.1603050,-155.5572510,65.8931274
3480,-0.9050036,7.3142486,-0.2059003,-16.6106873,8.8549614,-21.6183205,-9.2703018,13.9653072,-2.5234756,4.1068702,-120.9618301,75.2442780
3490,-0.9935886,7.4124107,-0.3064562,-21.1145039,15.3664122,-18.7938938,-9.5839405,14.3795023,-2.8442972,20.1755733,-85.9007645,87.0076370
3500,-1.0390782,7.7452030,-0.2705434,-26.5343513,22.4961834,-16.6183205,-10.0148945,14.2071199,-3.1052637,29.1068707,-50.2900772,100.5190811
3510,-1.1947005,8.0899658,-0.2059003,-31.8549614,27.7557259,-15.2977095,-10.4051476,13.6492739,-3.2632802,32.3053436,-17.5496178,115.6183243
3520,-1.5681942,8.6166878,0.0478838,-34.3740463,30.1832066,-13.7175570,-10.1010857,12.8256731,-3.0071020,33.3129768,13.5648851,130.1832123
3530,-1.7980363,9.1314383,0.1053443,-35.7862587,30.5038166,-12.4732828,-9.7228031,11.8272963,-2.4564383,34.1068687,43.3587799,142.5954132
3540,-2.2218077,9.7850523,0.1771700,-36.6183205,31.7557259,-8.7251911,-9.2870607,10.8145542,-1.5610116,37.4885483,67.0916061,153.9084015
3550,-2.7724714,10.7666702,0.3208214,-36.5419846,36.4885483,0.5038168,-8.7794924,9.7275915,-0.8068419,44.4885483,87.3435135,166.0915985
3560,-3.0765336,12.0499554,0.5937590,-33.9923668,44.6717567,14.0305347,-8.2024927,8.6693602,-0.2825144,52.8320618,102.5572510,177.2366486
3570,-2.7844424,13.1632538,0.6320660,-30.3511448,52.7862587,25.9389305,-6.9982157,7.9702568,-0.3926471,60.8778610,106.7251892,188.4274750
3580,-2.2050486,14.0514975,0.7613522,-25.3053436,59.5877876,33.0381660,-5.2360926,7.1035600,-0.7541697,64.5343475,103.3969498,196.1068726
3590,-1.5346755,14.5710373,1.3527170,-15.5190840,58.7709923,37.0534363,-3.3973548,6.2440462,-1.3431402,62.6488533,95.4427490,198.1526642
3600,-0.7685348,14.9253769,2.4779861,5.0000000,44.9083977,37.1297722,-1.8243724,5.5377603,-1.8650736,56.2137413,83.3664093,193.4885559
3610,-0.0215477,15.2749290,3.1962428,35.1374054,22.8854961,32.8320618,-0.3327923,4.9942794,-2.4109488,46.8015251,68.4427490,184.7633514
3620,0.9073978,15.4377337,3.2537034,67.3969498,-2.4351146,26.1755733,0.8762733,4.5058646,-2.6431851,35.8778610,52.9083977,173.2824402
3630,1.5155219,15.6460285,2.7269819,94.5114517,-23.4198475,17.8702297,1.7477583,4.0461802,-2.6862805,25.4656487,40.1832047,159.8625946
3640,2.3343346,15.3276005,1.6208663,111.0687027,-33.7633591,7.9694657,2.6360025,3.5721307,-2.7078283,16.8549614,30.3893127,144.0610657
3650,3.1172347,14.6141329,0.3950413,115.4351120,-32.6717567,-5.9083967,3.4380560,3.4332676,-2.6695213,9.9770994,24.0305347,126.4045792
3660,3.4404502,13.9054527,-0.4716553,109.3053436,-21.9770985,-20.3969460,3.7947903,3.2967989,-2.6982515,4.4427481,21.4198475,108.6259537
3670,3.4763632,13.0339670,-1.0031654,97.9007645,-9.1679392,-35.4351158,3.4739690,3.4141142,-2.4277081,-0.1374046,20.0916023,93.2290039
3680,3.1052637,11.9948893,-1.1707586,84.2900772,1.3282443,-50.8549614,3.2082138,3.5888901,-2.4899571,-3.8015268,17.9694653,83.3893127
3690,2.5474176,10.8504667,-1.0630201,73.1145020,8.3587790,-64.1145020,3.4236910,3.7732425,-2.5569944,-8.1984730,14.7251911,75.9618301
3700,1.8267666,9.6390066,-0.6967092,64.7328262,14.0305347,-73.8549652,3.6319854,4.0366035,-2.6000898,-13.5190840,12.3816795,68.6870193
3710,1.0917504,8.4993725,-0.3926471,59.9389305,18.7099228,-79.5038147,3.5984666,4.3741841,-2.6360025,-20.2977104,11.9770994,61.4198456
3720,0.1867468,7.3405848,-0.3854645,57.2442741,21.3282452,-81.1679382,3.3039815,4.6040263,-2.6431851,-27.3893127,11.3435116,55.6793900
3730,-0.5865764,6.4283986,-0.5123565,54.6183205,23.6564884,-78.6793900,2.9951310,4.9559722,-2.5713594,-33.3282433,9.6946564,50.3206100
3740,-1.5753766,5.5497313,-0.6607963,51.8244286,23.3129768,-71.6488571,2.8275378,5.4635406,-2.6910689,-38.3740463,8.5267172,43.8473282
3750,-2.2170193,4.8578105,-0.6200951,49.8244286,18.4580154,-60.9465637,2.6503677,6.1410961,-2.9855542,-44.2824440,3.9618320,35.8702278
3760,-2.5593886,4.1634955,-0.5219333,49.5343513,9.4274807,-49.3129768,2.5976956,7.0317345,-3.1746953,-51.1297722,-1.9389313,27.3664131
3770,-2.6479735,3.6176202,-0.6368544,47.5038185,-0.9007633,-36.5954208,2.2433555,7.6829538,-3.3614421,-57.0687027,-7.8702292,17.9389305
3780,-2.6383967,3.4428444,-0.7062859,43.0458031,-7.7328243,-23.3740463,1.6112895,8.5783806,-3.4452386,-61.9083977,-14.5496187,8.8473282
3790,-2.4684093,3.4500270,-0.9169745,35.3435097,-7.6183205,-11.6488552,1.3144100,9.5456333,-3.7469065,-66.9389343,-20.2671757,2.7404580
3800,-2.3798244,3.6200144,-0.9672526,25.7633591,-2.0229008,-2.3740458,0.9792235,9.9334917,-4.0102673,-72.4885483,-22.0229015,-0.5725191
3810,-2.2074428,3.8235207,-1.2617378,12.7022905,7.3206105,5.3816795,0.6153067,10.2758608,-3.7804251,-78.2748108,-19.9236641,0.2290076
3820,-1.8770446,4.1395535,-1.4915800,-3.1526718,18.3511448,12.6183205,0.5434810,10.5847120,-3.5386121,-83.1068726,-11.8396950,2.2824428
3830,-1.3144100,4.3622131,-1.4796091,-18.5496178,28.2290077,18.0000000,0.6344602,10.8193426,-2.8514795,-87.0305328,-1.6106870,5.3893127
3840,-0.5626345,4.9918852,-1.1539993,-30.1603050,37.1297722,20.1068707,0.7182568,10.9438400,-1.8914096,-87.4274826,10.1221371,8.7709923
3850,-0.3830703,5.4898763,-1.3048333,-37.1068687,41.8702278,20.2519093,0.7948709,10.9773588,-0.5650287,-81.9083939,21.6259537,12.9007635
3860,-0.4812321,6.1458845,-1.6902977,-42.4961815,44.0228996,21.7938938,1.0079538,10.9893293,0.5722113,-72.3969498,31.0687027,15.8931293
3870,-0.7589580,6.8042865,-2.0398495,-48.1145020,44.0534363,25.4656487,1.2138541,10.6589317,1.2210367,-60.7099228,36.5267181,15.8854961
3880,-1.0223188,7.7212610,-2.1763182,-52.4045792,44.0534363,32.1145020,1.5610116,10.4841557,1.6088953,-49.5114517,37.0305328,10.6335878
3890,-1.2689204,8.7675219,-2.2122312,-54.1755714,42.4656487,39.3893127,1.6472024,10.4243011,1.9584470,-40.0763359,32.0076332,1.9770992
3900,-1.1516051,9.6222477,-2.2529323,-52.8702278,39.1221390,45.9771004,1.5753766,10.3021975,1.9536586,-32.0458031,25.2977104,-6.7175574
3910,-0.8331779,10.5823174,-2.1619530,-48.9923668,34.5419846,51.3740463,1.3191984,10.2878323,2.0374553,-25.2671757,18.5038166,-14.3053436
3920,-0.3758878,11.3484583,-2.0015423,-42.1145020,29.6564884,55.5419846,1.0582317,10.1537571,2.0254843,-19.8320618,12.0839691,-21.4580154
3930,0.1436514,12.2175484,-1.9033806,-33.1526718,24.2366409,56.8854980,0.8403605,10.0220766,2.1954718,-15.3587790,6.4045801,-27.6183205
3940,0.7014975,12.7538471,-1.9033806,-23.5496178,18.1908398,54.6412201,0.4285599,9.8473015,2.2792683,-10.1450386,2.9847329,-32.8015251
3950,1.1468167,13.1560707,-2.0709739,-15.3129768,11.9007635,48.9771004,-0.2705434,9.7371683,2.3917952,-3.9465649,0.5877863,-36.9923668
3960,1.4173602,13.2901459,-2.1787124,-8.9083967,5.9541984,42.2824440,-1.1396341,9.8856087,2.3941894,3.8702290,-1.3282443,-37.7786255
3970,1.4077834,13.2111378,-2.2313845,-4.4045801,1.5496184,35.8167953,-1.8459201,9.9598284,2.0494261,11.4809160,-0.0916031,-37.3511467
3980,1.1827296,13.0124197,-2.3989778,-2.0916030,-0.8702290,30.7938938,-2.7245877,10.0532017,1.7333932,18.6641216,4.8396945,-34.5572510
3990,1.0055596,12.8232784,-2.3894010,-2.2900763,-1.9694656,24.9923668,-3.9192882,10.2998028,1.3958124,24.3511448,10.3435116,-29.4961834
4000,0.9193687,12.3659887,-2.0566087,-4.2900763,-0.5572519,17.7633591,-4.9799142,10.5416164,0.9911944,27.9160309,10.9312973,-18.5038166
4010,0.6991033,11.9086981,-1.6807210,-6.0305343,3.0381680,10.1908398,-5.6502872,10.5344334,0.3016679,28.0687027,4.9083967,-3.2137403
4020,0.3327923,11.2718439,-1.1252691,-7.0229006,8.0076332,3.1832061,-5.5760674,10.3692341,-0.7900825,22.1450386,-5.8320613,17.3511448
4030,0.2202654,10.5918941,-0.6560079,-6.9923663,13.0152674,-3.5114503,-4.1634955,10.0723553,-1.7956421,8.9083967,-14.8702288,36.4885483
4040,0.0598547,10.1250277,-0.2178712,-4.8244276,18.6106873,-10.8702288,-2.5689652,9.5504217,-2.3774302,-9.3893127,-22.4351139,50.5877876
4050,-0.1699875,9.5695753,-0.0047884,-0.9160305,23.3435116,-18.6946564,-0.8044477,8.9063845,-2.5067163,-30.8702297,-25.2290077,57.9236641
4060,-0.8068419,9.1146793,-0.1699875,2.4580152,25.3664131,-24.8854961,0.7206510,8.4251528,-2.1404054,-50.1145020,-27.2061062,59.9771004
4070,-1.4317253,8.7914639,-0.3040621,3.6946564,27.0458012,-27.4961834,2.0757623,8.0325060,-1.1803354,-63.8091621,-30.8778629,58.4122124
4080,-1.8507085,8.4634600,-0.4453192,2.9236641,29.2671757,-24.9465656,3.0837159,7.7236552,-0.2920911,-70.3206100,-31.7633591,54.3664131
4090,-2.0973101,8.3365679,-0.4525018,2.3893130,31.4122143,-18.4885502,4.1251884,7.4818420,0.3351865,-69.4961853,-30.4580154,47.3129768
4100,-2.1619530,8.3198080,-0.3208214,2.7480917,32.3511467,-9.2213745,4.9320302,7.6254935,0.8978211,-62.3435097,-26.7328243,36.5954208
4110,-1.7262106,8.4299412,-0.2489957,4.8778625,31.1603050,-0.8396947,5.4252334,8.1067257,1.2282192,-50.5114517,-21.3816795,24.2748089
4120,-1.1875180,8.7244263,-0.3974355,7.9236641,27.4809170,4.3511453,5.6909885,8.6765423,0.8044477,-39.2671738,-15.6412210,12.3358774
4130,-0.5722113,9.0189114,-0.7374104,9.0687027,24.1755733,6.1832061,6.0668759,8.8992023,0.2873027,-30.7633591,-8.9160309,2.5725191
4140,-0.1340746,9.3038206,-1.0438666,7.1068702,21.9236641,5.7251906,6.4260044,9.2535419,-0.2944853,-25.9236641,-2.7328243,-6.8244276
4150,0.4309541,9.7658987,-0.9600700,-3.2595420,17.8549614,1.1679389,6.8521700,10.2207947,-1.2928623,-24.5648861,12.8396950,-25.7175579
4160,0.8690908,10.0148945,-0.5961532,-8.4961834,15.7175570,-2.0610688,6.8904772,10.6972389,-1.5322813,-25.1221371,22.3206100,-35.2290077
4170,1.3144100,10.1753054,-0.2873027,-13.3816795,14.2595415,-5.8931298,6.8880830,10.9127159,-1.2401901,-23.0763359,28.1221371,-45.2595406
4180,1.4580613,10.2519188,0.3854645,-16.8778629,14.3893127,-9.2977095,6.8880830,11.3149395,-0.6416427,-16.0076332,31.9312973,-56.1068687
4190,1.6879035,10.3979645,0.7900825,-18.0305347,16.7557259,-12.0763359,6.7564025,11.5878773,-0.1508339,-3.7099237,33.8625946,-67.8473282
4200,1.7549409,10.3835993,1.0031654,-17.6717548,22.0534344,-15.1832066,6.8785062,11.8033543,0.0574605,13.5648851,34.7175560,-80.3282471
4210,1.7118455,10.4482431,0.9050036,-17.1145039,28.5496178,-18.0381680,6.9072366,12.0595322,0.1005560,35.6870232,33.8167953,-91.7251892
4220,1.5179161,10.3931761,0.3758878,-16.8396950,34.6717567,-20.0076332,6.8617468,12.5096397,-0.4788379,60.3969460,35.3206100,-104.1450348
4230,0.8786675,10.4171181,-0.0957676,-17.6259537,38.5725174,-21.0610695,6.6319046,12.8256731,-1.8052188,80.1908417,43.0381660,-112.0457993
4240,0.5147507,10.3716288,-0.6153067,-18.1221371,39.1450386,-21.1068707,6.3637557,12.8352499,-3.2872221,90.6564865,53.6946564,-118.2137375
4250,0.1771700,10.3021975,-0.9648584,-17.3511448,36.3816795,-20.1297703,5.9830794,12.8639803,-4.4484038,89.6717529,64.4351120,-122.8244247
4260,-0.0957676,10.0986910,-1.1994889,-15.2900763,30.8244267,-16.6946564,5.2983413,12.9405937,-5.2480631,85.2290039,72.5648880,-127.3587799
4270,-0.3351865,9.8161764,-1.3431402,-11.2748089,23.6259537,-11.0992365,4.5441718,12.8113079,-5.2815819,77.1374054,76.0457993,-128.5648804
4280,-0.4501076,9.6557665,-1.4173602,-4.5496182,13.7404585,-4.0992365,3.5266411,12.6485033,-5.3342543,67.5954208,70.6412201,-128.9465637
4290,-0.3423691,9.3517036,-1.6663558,3.2671757,3.2366412,3.5877862,3.0478032,12.3300753,-5.3797436,58.3587799,60.6946564,-126.1145020
4300,-0.2513899,9.1146793,-2.0087249,10.3969469,-6.6106873,12.2137403,2.7269819,12.0619268,-6.0070214,45.1068687,45.8702278,-123.2671738
4310,0.1436514,8.9877872,-2.3941894,15.2900763,-16.7557259,20.0763359,2.7437410,11.4968977,-6.6366930,26.2137413,34.0916023,-121.3206100
4320,0.4381367,8.8010406,-2.5665710,18.5954189,-28.7557259,26.3282452,1.6495966,10.9270811,-6.9144192,6.4122138,37.0305328,-117.6412201
4330,0.7972651,8.6166878,-2.5354466,20.7786255,-41.1068687,32.1068687,-0.2346306,10.5033092,-6.6917596,-12.2748089,59.6106873,-108.9160309
4340,1.0486550,8.5065556,-2.4013720,22.0152664,-52.9236641,37.1755714,-2.4995339,9.8975792,-5.6119800,-25.4274807,86.7175598,-93.9007645
4350,1.4652439,8.4538832,-2.1499822,22.7404575,-62.8396950,40.0534363,-4.3741841,9.3157911,-3.9025288,-27.3206100,115.7709961,-71.4809189
4360,1.8004304,8.4897957,-1.8339491,22.6870232,-68.7328262,41.5572510,-5.4443870,8.6717539,-1.5059452,-14.2595415,147.8473358,-45.9923668
4370,2.0733681,8.4562769,-1.7190280,21.9465656,-69.4580154,41.8702278,-5.5736732,7.6278877,0.1771700,11.0763359,170.0229034,-23.2061062
4380,2.2313845,8.5017672,-1.6902977,19.6793900,-66.7786255,40.4961815,-5.0684991,5.9256191,0.8307837,43.7862587,176.2671814,-9.2595415
4390,2.3271523,8.6334467,-1.7932479,14.8778629,-61.6259537,37.9618340,-4.4795284,3.8043671,0.7900825,77.9160309,171.6641235,-8.0763359
4400,2.2672975,8.6358414,-2.1164634,7.9007635,-54.7557259,34.7175560,-4.4388270,1.3766589,0.2489957,107.0000000,155.7175598,-20.9160309
4410,2.2098370,8.8297710,-2.2194135,-0.3358779,-46.7404594,29.3206100,-5.1690550,-1.3000449,-0.3471575,135.3740387,124.2442780,-42.8320618
4420,1.7717001,9.0883436,-2.4827745,-9.8931293,-36.8778610,23.6717548,-5.3893204,-3.8378856,-1.0534433,160.2900696,107.6259537,-77.4580154
4430,1.3551112,9.3517036,-2.2720859,-18.9847336,-28.4961834,18.9465656,-5.6071916,-5.7245069,-2.6288199,177.6488495,95.6183243,-133.3129730
4440,0.9169745,9.5360565,-2.0973101,-25.7328243,-22.0992374,13.6564884,-6.8689294,-6.2009506,-4.1251884,179.3740387,74.8473282,-202.9389343
4450,0.4620786,9.7730818,-1.9536586,-29.6259537,-19.0381680,9.0381680,-9.3612804,-5.8513989,-5.6167684,156.9618378,55.0992355,-250.1374054
4460,0.1005560,9.7994175,-1.8842272,-33.0381660,-18.0687027,5.4198475,-13.1225519,-4.5513539,-7.6566176,107.3816757,38.6030540,-250.1374054
4470,-0.2609667,9.7850523,-1.5921360,-35.6106873,-19.8931293,2.4198472,-16.7186241,-2.7341642,-8.9566631,34.9236641,19.6259537,-250.1374054
4480,-0.7110743,9.8808203,-1.0845678,-35.6641235,-20.7557259,0.5725191,-19.6131992,-0.4477134,-9.2535419,-58.0381660,7.5648856,-250.1374054
4490,-0.9576758,9.9287033,-0.6991033,-33.4580154,-21.6412220,-0.5496183,-19.6131992,1.6448082,-7.7859039,-153.4351196,-17.7709923,-250.1374054
4500,-1.3072275,9.9526453,-0.3232156,-30.0152664,-20.5114498,-0.4427481,-19.6131992,3.5721307,-4.3215117,-239.6106873,-54.4885483,-243.5877838
4510,-1.5155219,9.9646168,-0.2442073,-26.6488552,-15.1679392,1.7404580,-19.6131992,5.1882086,1.2665262,-250.1374054,-92.3664093,-187.7099304
4520,-1.7788827,10.1609402,-0.1125269,-23.2824421,-8.9618320,5.4809160,-19.6131992,6.3039007,6.0596933,-250.1374054,-122.2366409,-124.3053436
4530,-1.8219782,10.3285332,-0.0191535,-19.8473282,-4.8320613,9.4732828,-19.6131992,5.7245069,11.0946741,-250.1374054,-142.1526642,-45.3740463
4540,-1.6376256,10.4243011,0.2394189,-14.3969469,-3.3053436,11.9694653,-19.6131992,4.8625989,14.8248215,-250.1374054,-152.0076294,31.4122143
4550,-1.2641320,10.4530315,0.2489957,-8.8473282,-3.0381680,13.1984730,-19.6131992,2.4420733,17.1016960,-250.1374054,-167.3358765,95.7557220
4560,-0.9696468,10.5847120,0.2154770,-4.2595420,-2.7862597,12.2519083,-16.6060982,-0.5674229,17.5374374,-232.5267181,-164.0992432,124.3664093
4570,-0.8714849,10.6637201,0.1101327,-1.5801526,0.2290076,10.8854961,-12.2007895,-2.2385671,15.2438040,-165.9160309,-191.0839691,113.8396912
4580,-0.8595140,10.8337069,0.0670373,-0.3511450,6.2061067,9.1068707,-10.6230183,-3.7636659,13.6708221,-86.4351120,-229.7709961,85.7328262
4590,-0.8523315,11.0324249,-0.0454896,-0.2671756,13.2671757,7.2442746,-11.9110928,-3.8642218,11.6716738,-9.2824430,-250.1374054,56.2595406
4600,-0.8595140,11.2167778,-0.0119709,-0.1755725,18.8778629,5.8244276,-13.0674858,-2.7102225,8.6382351,51.8549614,-250.1374054,33.0076332
4610,-0.5985473,11.2502966,-0.0095768,0.7328244,23.0992374,4.3358779,-13.4074612,-0.9002152,5.4156566,93.4122162,-250.1374054,22.1679382
4620,-0.5674229,11.4298601,-0.0478838,3.4732823,24.8473282,2.0534351,-12.7538471,0.4381367,2.7293761,121.0916061,-250.1374054,23.3816795
4630,-0.6177009,11.5830889,-0.2466015,6.5190840,25.5114498,0.9923664,-11.7985659,1.5897418,0.4094064,132.7328186,-250.1374054,34.6335869
4640,-0.6560079,11.9493999,-0.7110743,7.4198475,25.4274807,2.2442749,-10.9510221,3.2489152,-1.5753766,128.9389343,-224.2977142,47.8702278
4650,-0.6153067,12.4186611,-1.1563935,6.0916033,27.4961834,4.4427481,-9.9837704,4.9272418,-3.0813217,115.1832047,-202.2900696,62.0839691
4660,-0.2250538,12.9429884,-1.2473727,4.2366414,28.6641216,4.4427481,-8.6382351,6.3134775,-3.8402798,95.9236679,-184.5954132,74.2061081
4670,0.4620786,13.0626974,-1.3359578,2.9236641,28.3435116,0.3893130,-7.4171991,7.4579000,-3.5050933,75.8549652,-171.3511505,81.7404556
4680,0.9457048,13.0435438,-1.1252691,1.9694656,26.1984730,-4.8473282,-5.8921003,9.0859489,-3.0310438,56.9618340,-166.0229034,80.9542007
4690,1.1085097,12.8759508,-0.6919208,1.9541985,20.7480907,-8.9923668,-4.4292507,10.6565371,-2.3463056,39.4274826,-165.6259613,72.1526718
4700,1.4173602,12.8041248,-0.3974355,3.4656489,15.8625956,-12.5114508,-3.4548154,11.6357603,-1.4484847,27.4045811,-166.9313049,60.5267181
4710,1.7908537,12.5742826,-0.1388630,5.9618320,15.4198475,-15.2900763,-2.9711890,12.6101961,-0.5506636,23.6412220,-165.4274750,49.6106873
4720,2.0374553,12.2175484,-0.0215477,8.8015270,16.8396950,-18.7862587,-3.1579359,13.4170380,-0.0981618,27.3358784,-160.0992432,39.4656487
4730,2.1427996,11.7099810,-0.3734936,9.3358774,18.6106873,-21.8625946,-3.5218527,14.4417505,0.1723816,35.9083977,-151.9389343,33.1221390
4740,2.0925217,11.1760759,-0.6871324,6.9465647,19.4351139,-24.2671757,-3.6750808,15.4784346,-0.2561783,42.0763359,-135.6793823,27.8091602
4750,2.1020982,10.5871058,-0.8212070,3.5954199,17.1984730,-27.0152664,-4.2257442,15.7417955,-0.7182568,47.1603050,-118.3511429,27.5038166
4760,1.8770446,10.2878323,-0.5961532,12.8167934,-13.4351149,-29.7404575,-4.8578105,16.3642845,-0.8403605,50.6946564,-96.4656525,33.9847336
4770,3.1124463,9.2631187,0.4285599,14.8091602,-2.6641221,-33.4274826,-5.2001796,16.5270901,-0.3878587,53.3435097,-73.2671738,45.8778610
4780,1.8291607,8.0277176,0.6392486,13.3206110,9.8931293,-32.5877876,-5.5401545,16.1105003,0.1340746,58.1145020,-52.2900772,59.9541969
4790,1.1252691,8.1785507,-0.2322364,16.9541988,9.1755724,-28.6946564,-5.7508430,15.4377337,0.6823440,65.3969498,-35.3053436,75.8854980
4800,1.4843974,7.6877422,-0.7398046,18.7709923,2.8778627,-26.9923668,-5.3773494,14.7673607,1.0247130,73.3664093,-25.0610695,90.8473282
4810,1.3598996,6.7564025,-0.6224893,16.4198475,4.5877862,-26.7786255,-4.4914994,14.0036144,0.9888002,78.0534363,-22.0381680,101.8473282
4820,0.8283895,6.6247220,-0.6775556,12.3511448,3.1908398,-23.8549614,-3.3638363,12.9238348,0.4788379,78.5648880,-23.6641216,106.1603088
4830,0.3926471,6.2560172,-0.5243275,9.0458012,-2.7938931,-18.4427490,-2.5522060,11.9517937,0.3854645,75.4732819,-26.7938938,106.0457993
4840,0.3160330,5.7316895,-0.3998296,6.3435116,-8.4198475,-12.7938929,-1.6160779,11.1162214,0.3998296,72.2977066,-27.1679382,102.2137375
4850,0.1125269,5.3390427,-0.0598547,4.4427481,-11.6793890,-6.6106873,-0.8188128,10.2734671,0.4836263,71.0687027,-21.8091602,98.7557220
4860,-0.0454896,5.0277977,0.1388630,3.7862597,-15.8244276,0.6564885,-0.2489957,9.5599985,0.6655847,72.5725174,-12.2595415,94.4885483
4870,0.2657550,4.9583664,0.5027798,4.8473282,-19.1450386,7.9847326,-0.0933734,8.8201942,1.0630201,76.8015289,-1.1450381,89.7022934
4880,0.8762733,4.8578105,0.6775556,7.9770994,-22.5496178,10.1679392,-0.2059003,8.0971489,1.3239868,81.8320618,6.6488547,86.5114517
4890,0.8379663,10.1034794,-1.2042773,-50.3664131,21.9160309,31.8778629,1.0773853,4.7333126,-1.4508789,21.7480907,-28.4122143,48.3893127
4900,1.0055596,10.6206245,-1.3790531,-49.0916023,13.6946564,29.7709923,1.1276633,4.4914994,-1.4748207,12.3282442,-32.9083977,43.0305328
4910,1.0295014,11.0946741,-1.4460905,-49.3511467,6.6259542,28.1221371,1.2425843,4.5729017,-1.8100072,2.4427481,-35.5877876,38.0458031
4920,1.2641320,11.4945040,-1.3838415,-50.7404594,1.2671756,25.9312973,1.4053892,4.7357068,-1.7286048,-7.2061067,-36.4732819,33.5190849
4930,1.3120158,11.6836443,-1.1061156,-51.7404594,-3.2442749,24.8015270,0.9959828,5.0325861,-1.8076130,-16.9923668,-37.9541969,29.6412220
4940,1.3503228,11.3484583,-0.6057299,-51.7938919,-5.7709923,23.9389305,0.9816177,5.3653784,-1.8794388,-27.7404575,-41.6259537,27.2442741
4950,1.2330076,12.0284081,-0.2059003,-50.0839691,-4.3053436,23.2900772,1.1875180,5.7939386,-1.7118455,-38.3358765,-43.5954208,25.6793900
4960,1.3598996,12.2079716,-0.4453192,-49.9389305,-2.6259542,19.9694653,1.3958124,6.2967181,-1.5801650,-47.5038185,-44.3435097,21.9618320
4970,1.1276633,12.3204985,-0.1651991,-50.3893127,-1.2290076,16.7175579,1.4987626,6.7396431,-1.3215926,-56.0992355,-45.4198456,16.3816795
4980,0.9696468,12.3324699,0.4022238,-48.9694672,-3.7099237,15.0305347,1.3407460,7.2136927,-1.1324517,-61.4809151,-46.4732819,8.8320608
4990,0.8666966,12.1792421,1.1755470,-42.5419846,-7.2595420,12.6412210,1.0869620,7.8505473,-0.8188128,-64.5267181,-47.0534363,2.0839694
5000,0.7230452,12.0595322,1.4556671,-33.1984749,-12.8549614,9.8167934,0.8547257,8.5400734,-0.7565638,-65.1908417,-45.6717567,-3.8396947
5010,0.3998296,11.9541883,1.6088953,-24.5114498,-17.6259537,7.9160304,0.3567342,9.3133974,-0.6703730,-65.9542007,-42.8702278,-8.2213745
5020,0.2657550,11.8129311,1.8028246,-16.7251911,-20.7251911,7.0152674,0.0071826,10.1776991,-0.4692611,-68.2366409,-42.0000000,-9.0305347
5030,0.1723816,11.6573086,1.9392935,-9.3664122,-21.0000000,6.4274807,-0.3878587,10.7906122,-0.2226596,-71.7099228,-42.0839691,-7.4503818
5040,0.1771700,11.5064745,1.8554969,-3.1755726,-18.5190830,5.2977099,-0.3734936,11.3173332,0.2753318,-74.9847336,-42.2671738,-3.2977099
5050,0.1556223,11.2981796,1.8100072,1.0000000,-13.9618320,4.2213740,-0.1149211,11.4490137,1.0295014,-74.3587799,-39.5114517,0.0687023
5060,0.1292862,10.9941177,1.6759326,3.8473282,-11.6946564,3.2442749,0.5626345,11.7363167,2.0159075,-68.2977066,-31.6488552,1.0000000
5070,0.0143651,10.6110477,1.5035510,5.6412215,-12.0381680,1.5954199,1.0247130,11.9996777,3.2441268,-55.4427490,-19.0152664,-1.6641221
5080,0.0287303,10.2495251,1.5801650,6.6030536,-13.0687027,0.2213740,1.0199248,12.2702208,4.1012464,-37.0610695,-4.2595420,-4.9847326
5090,-0.0143651,9.9526453,1.6065011,7.8320613,-12.8396950,-1.1755725,0.6919208,12.4282379,4.4771342,-15.6641226,4.6641221,-8.3129768
5100,-0.0550664,9.3301563,1.4341195,10.5572519,-9.2366409,-3.6259542,-0.2825144,12.4306316,4.0246325,20.8244267,12.1297712,-10.0229006
5110,-0.2274480,9.0069408,1.2042773,9.8167934,-5.1297708,-4.5725193,-0.4333483,12.2007895,3.6032550,31.1526718,12.7557249,-10.8473282
5120,-0.5434810,8.8680773,0.8571198,8.1221371,-0.1908397,-5.2061067,-0.7398046,12.1481171,3.1363883,36.7938919,11.6946564,-10.7557249
5130,-1.4101776,9.1290445,0.1556223,-5.1297708,13.4122133,-0.2748092,-0.9720409,11.4298601,2.4013720,45.8396950,7.1297708,-9.7404585
5140,-1.2210367,9.1481981,0.2226596,-10.9083967,14.8702288,1.9007634,-1.2952565,11.3484583,2.0159075,50.1450386,11.6564884,-8.7404585
5150,-0.9097920,9.2583303,0.5985473,-13.9770994,13.3893127,2.4580152,-1.4963684,11.2191715,1.4460905,54.0610695,17.6717548,-5.2977099
5160,-0.4644727,9.1649570,0.9959828,-14.8091602,10.3511448,2.4809160,-1.6208663,10.9127159,1.1516051,56.1526718,23.5572510,0.6641222
5170,0.5339043,8.8369532,1.4820032,-12.4198475,-0.2137405,6.0152674,-1.2042773,10.2806492,0.1723816,51.2213745,28.3206100,14.3740454
5180,1.1563935,8.6238708,1.7693061,-10.2519083,-8.2137403,9.6106873,-0.8810617,9.8760319,-0.1149211,44.1526718,27.2595425,19.0839691
5190,1.7836711,8.4251528,2.0254843,-6.0839696,-15.1068707,13.6717558,-0.4477134,9.5576038,-0.1771700,34.8396950,24.1755733,21.7099228
5200,2.4755919,8.0827837,2.0254843,-1.2442749,-19.4885502,17.9465656,-0.1987177,9.0500364,-0.1244979,25.5114498,20.1832066,23.6946564
5210,3.9240766,7.9104018,1.4221486,7.1908398,-20.9236641,25.5496178,0.5410868,8.3652983,0.0837966,8.2137403,17.0000000,23.7175579
5220,4.5250182,7.9774394,0.9361281,7.9618320,-17.7633591,27.3587780,0.7206510,7.9295554,0.3710994,1.8473282,16.4961834,23.5725193
5230,5.1331420,8.2599535,0.3232156,5.4503818,-12.0534353,24.8244267,0.9121862,7.6159167,0.6177009,-2.6183207,16.8702297,24.1374054
5240,4.8003497,8.6909075,-1.2210367,-9.6564884,0.3587786,4.3206105,1.7860653,6.8832946,0.6703730,-4.7938933,23.9923668,20.8549614
5250,2.6048782,8.5927458,-1.6567791,-34.0152664,11.8473282,-13.8854961,2.2792683,6.6917596,0.6200951,-4.5038166,32.5419846,8.3740454
5260,1.1348459,8.3102312,-1.4843974,-43.9007645,18.3587780,-16.6717548,1.8363433,6.7037306,0.5291159,-6.4580154,33.2366409,3.0229008
5270,-0.2418131,8.4395180,-1.4101776,-51.1908379,21.9694653,-14.8091602,1.5777708,6.7300668,0.2873027,-8.2213745,31.5496178,-0.8396947
5280,-1.3263810,8.6286592,-1.4580613,-56.9083977,21.2824421,-7.9770994,1.5873476,6.6007805,0.0119709,-10.0992365,28.3282452,-5.1145039
5290,-2.0494261,8.8345594,-1.3503228,-61.2442741,15.4351149,1.3511450,2.1571648,6.8737178,0.0047884,-9.8244276,25.7251911,-13.1908398
5300,-2.1308286,9.1146793,-0.8643024,-63.9923668,4.6488547,11.1068707,3.0861101,7.5273318,0.1843526,-6.0916033,28.9618320,-23.3664131
5310,-1.7860653,9.4235296,-0.2705434,-63.9160309,-7.2442746,18.5648861,3.6104376,8.0851774,0.0119709,-0.3129771,40.3129768,-32.7938919
5320,-1.1348459,9.6988611,0.3758878,-62.5572510,-16.9923668,22.4198475,3.8833754,8.6358414,0.0430954,5.9312978,47.9236641,-36.5572510
5330,-0.5722113,10.0029240,0.9145803,-61.3816795,-22.7404575,22.4961834,4.3981261,9.3971939,-0.2082945,10.7099237,51.7251892,-33.4122124
5340,-0.0430954,10.1561518,1.4413021,-61.3358765,-23.6030540,19.7786255,4.9535780,10.1657286,-0.4525018,14.5877867,42.5343513,-27.3740463
5350,0.3184272,10.2662840,1.8483143,-63.0458031,-19.0992374,16.4351139,6.1602492,11.0659437,-0.5219333,22.6259537,25.9618320,-33.9923668
5360,0.4357425,10.3117743,1.9919657,-67.5725174,-9.2977095,13.8473282,7.7260494,11.6860390,-0.7637464,42.6870232,19.9465656,-53.7709923
5370,0.4692611,10.3476868,2.5569944,-73.6183243,2.1450381,12.9923668,8.1881275,12.3540173,-1.9129574,70.1374054,32.0000000,-80.3816757
5380,0.5075682,10.2207947,3.2417326,-77.3969498,9.2671757,13.3969469,6.8330169,12.8855276,-3.3758070,97.8549652,55.0381660,-107.0305328
5390,0.5985473,10.1992474,4.1443419,-76.3893127,12.0916033,15.5343513,4.0844874,13.6780043,-5.5760674,116.5877838,75.1832047,-124.9923630
5400,0.7493813,10.0484133,4.7811961,-69.5877838,10.9770994,18.3969460,2.1332228,14.3316183,-7.4243813,115.4427490,80.1145020,-131.3129730
5410,1.1109039,9.9789820,5.4994531,-58.2900772,6.1679387,20.7709923,1.5322813,14.5997677,-9.1841106,95.5725174,71.9694672,-130.7862549
5420,1.4101776,9.9957409,5.6095858,-43.7633591,0.9465649,21.8244267,1.9919657,14.5327301,-9.6150646,66.5877838,65.1221390,-130.0915985
5430,1.6807210,9.8592720,5.3510137,-29.3740463,-2.6793892,21.4503822,2.7700772,14.0179796,-7.9008250,40.8778610,63.2290077,-133.8931274
5440,2.0374553,9.9454632,4.8578105,-18.5190830,-3.5648854,20.1984730,3.8115497,13.2207146,-5.2935529,31.4809170,64.2977066,-141.0305328
5450,2.0781565,9.9334917,4.2018023,-12.1221371,-1.8091604,18.2366409,4.9320302,12.0858688,-4.0030847,39.4732819,72.9923630,-153.6030579
5460,2.0446377,9.9215212,3.7373297,-10.4503813,0.3587786,16.9618320,5.8226686,10.9821472,-3.7397239,56.8320618,89.3816757,-171.9236603
5470,2.0949159,9.9143381,3.3829896,-11.2290077,2.4809160,15.6564884,6.7755561,10.1800938,-4.4507980,73.4809189,114.1374054,-196.7862549
5480,2.3223639,9.7395630,3.4524212,-12.2213745,3.2061069,13.6488552,7.1753860,9.8042059,-5.4300218,80.6870193,144.5419922,-227.8167877
5490,2.4085546,9.6150646,3.4236910,-11.9312973,2.8091602,11.3129768,5.1618724,9.0644016,-5.6622581,88.8015289,156.5267181,-250.1374054
5500,2.3774302,9.4762020,3.4045374,-10.7328243,1.6030535,8.8625956,3.7684543,8.8393478,-5.9184365,90.9694672,163.0763397,-250.1374054
5510,2.4253139,9.2942438,3.3901722,-9.3129768,-0.8244275,6.7862597,2.9951310,8.7340031,-6.5576849,99.8854980,148.5648804,-250.1374054
5520,2.4588325,9.1481981,3.3614421,-7.8015265,-2.4656489,4.4427481,1.4365137,8.2120695,-7.6135225,107.1374054,119.5343475,-250.1374054
5530,2.3463056,9.0308828,3.2321558,-7.7786260,-3.6793892,2.1908398,0.3639168,8.7435799,-8.5735922,113.3511429,85.7862625,-250.1374054
5540,2.3175755,8.9590569,3.1004753,-8.6870232,-4.7404580,0.4122137,0.6679789,8.9183559,-9.8568783,113.0000000,60.9541969,-250.1374054
5550,2.0518203,8.9399033,3.0406206,-10.3435116,-5.8015265,-0.9465649,1.6567791,7.8409705,-11.5854826,104.4351120,47.1145020,-250.1374054
5560,1.9464760,8.7938576,3.2297616,-12.3435116,-7.0687022,-1.3893130,1.2473727,6.4212160,-12.8687687,87.2137375,51.9541969,-250.1374054
5570,1.8411317,8.7842808,3.4165084,-14.0763359,-8.1984730,-1.1679389,-0.3758878,4.9368186,-14.3531656,63.7938919,95.0305328,-250.1374054
5580,1.8914096,8.6909075,3.5338237,-14.4122133,-8.1526718,-0.5114504,-3.5553713,3.0286496,-15.6747580,34.8320618,160.9007568,-250.1374054
5590,2.0446377,8.6382351,3.8043671,-13.7175570,-7.1908398,0.1068702,-7.8912482,0.4979914,-15.8710823,3.0305343,232.6412201,-250.1374054
5600,2.1356170,8.5711985,3.8426740,-12.6030531,-6.1221375,0.0381679,-12.1648769,-1.8531027,-14.7362356,-36.1832047,250.1297760,-248.9847260
5610,2.2337787,8.6118994,3.8809812,-11.5343513,-5.6183205,-0.5725191,-15.8998117,-4.6423335,-12.8017311,-81.2748108,250.1297760,-222.0152740
5620,2.1811066,8.5711985,3.8761928,-10.4809160,-5.4198475,-1.0839695,-18.1647148,-8.0013809,-11.0324249,-131.5954132,241.5725250,-208.4809113
5630,2.1811066,8.4610653,3.7540891,-9.6641226,-5.2519083,-1.0916030,-19.6131992,-11.1114330,-9.1266499,-190.8320618,183.0381622,-206.7404633
5640,2.1451938,8.4826136,3.6439564,-8.2137403,-4.9694657,-1.0152671,-19.6131992,-14.1113529,-6.8425937,-250.1374054,104.7480927,-210.5725250
5650,2.1236460,9.5145092,3.1220231,-2.7709923,-4.9923663,-3.7022901,-15.4281569,-9.6725254,19.6126022,-250.1374054,75.0229034,-250.1374054
5660,1.7309990,9.8233595,2.9999194,-2.3358779,-4.6335878,-6.9770994,-19.6131992,-8.1330614,19.6126022,-93.4885483,24.7328243,-250.1374054
5670,1.3335636,10.1322098,3.2058196,-2.4732823,-5.5648856,-7.9389315,-19.6131992,-6.5193777,19.6126022,83.2366409,-72.7633591,-155.3587799
5680,0.9433106,10.2950144,3.7923961,-1.0229008,-7.2442746,-5.6870227,-19.6131992,-3.0573800,16.6372223,207.9618378,-158.2900696,-42.6870232
5690,0.8212070,10.6110477,4.6734576,4.7557254,-9.8091602,-1.2061069,-19.6131992,1.3646880,7.7092900,250.1297760,-200.9618378,24.1984730
5700,0.9888002,11.0635490,5.3581958,14.4274807,-11.7251911,3.8778627,-19.6131992,2.1404054,-1.0318956,250.1297760,-166.0915985,81.8778610
5710,1.5227045,11.6956158,6.1841912,28.3893127,-13.4198475,6.9083967,-19.6131992,1.7022687,-8.8728657,235.6030579,-99.5725174,134.5419922
5720,2.0087249,12.0691090,6.4906478,45.5267181,-15.7328243,7.8015265,-17.5613804,0.7781116,-14.2502155,159.7557220,-93.1755753,167.1832123
5730,2.3415172,12.3707771,6.2655940,61.9389305,-18.2366409,8.1832066,-15.9812145,-1.0941446,-14.6811695,70.4656525,-114.4427490,182.9084015
5740,2.9520357,12.6939926,5.9471664,75.4198456,-19.8015270,8.4885492,-15.2078915,-2.5665710,-11.6333666,-6.8854961,-140.3893127,194.0458069
5750,3.4979107,12.7969427,5.4228392,87.6412201,-21.9923668,4.4656487,-14.7098999,-3.4883339,-6.8473821,-53.9847336,-176.9007568,202.3358765
5760,3.6080434,12.9070749,4.7692256,97.0992355,-24.9847336,-2.8396947,-13.2997227,-3.4835455,-2.5641768,-71.8778610,-204.4961853,208.5114441
5770,3.5266411,12.5599174,3.8618276,102.5954208,-28.6106873,-10.6335878,-12.0188313,-3.3231349,0.2920911,-66.9007645,-223.9541931,208.9847260
5780,3.4428444,12.2199430,3.5817075,102.4885483,-30.8396950,-18.7175579,-10.5128860,-3.4739690,1.4173602,-48.0305328,-248.9236603,202.0305328
5790,3.2752512,11.7051926,3.5769191,106.9542007,-30.3969460,-28.5572510,-8.0013809,-3.2920105,1.0606259,-24.6870232,-250.1374054,182.2671814
5800,3.0047078,10.9989061,3.1986370,111.0916061,-26.3129768,-38.7480927,-5.6814117,-2.2720859,0.5889706,-5.1068702,-250.1374054,146.8396912
5810,2.5833304,10.2878323,2.6312141,112.8396912,-21.2442741,-48.2366409,-4.7692256,-1.0630201,-0.2202654,8.8625956,-250.1374054,106.1145020
5820,1.8794388,9.6150646,1.9368993,110.2977066,-15.7328243,-55.1221390,-5.3653784,0.1268920,-0.5458752,18.6946564,-250.1374054,73.2137375
5830,1.2162483,8.8297710,1.2737088,104.3587799,-11.0305347,-59.2290077,-7.0221577,1.3215926,0.0119709,30.0381680,-248.0229034,52.7480927
5840,0.6823440,8.3700867,1.1348459,98.1603088,-8.5801525,-61.7786255,-8.8728657,3.0861101,0.7924767,44.8167953,-229.0839691,46.7251892
5850,0.3208214,7.5823979,1.3096216,92.8549652,-8.1068707,-63.1145020,-10.2567072,4.6854286,0.8020535,61.0763359,-211.6335907,49.7480927
5860,-0.1053443,7.0820122,1.0318956,90.1145020,-6.5114503,-62.9771004,-9.4474716,6.3182659,0.2011119,74.0381699,-198.0992432,57.5267181
5870,-0.5793939,6.6103573,0.5291159,86.3664093,-5.1679387,-61.0992355,-8.1617918,8.0133524,-0.4908088,79.6412201,-181.7404633,63.1068687
5880,-1.0007712,6.4379754,-0.0885850,79.7557220,-8.9465647,-57.9541969,-7.6997132,8.6502066,-1.0175306,84.1145020,-155.5114441,67.5343475
5890,-1.0151364,6.3757267,-0.7421987,71.2671738,-17.4351139,-56.4503822,-7.3597383,8.6358414,-1.6400198,90.5343475,-120.8167953,71.8091583
5900,-1.0223188,5.9567432,-1.0414724,61.0000000,-23.9236641,-55.3587799,-7.3357964,8.5328913,-2.2409613,94.5114517,-86.1603088,76.8702316
5910,-1.4939742,5.1786318,-0.6512195,50.6183205,-15.9083967,-50.3206100,-7.5416965,8.5328913,-2.6934631,96.5038147,-57.5343513,85.2061081
5920,-1.5442522,4.6566987,-0.7709290,39.4274826,1.6870229,-37.2824440,-7.7859039,8.2910776,-2.9568241,95.2290039,-34.2824440,94.9923630
5930,-1.7621235,4.9703374,-1.0247130,28.4580154,8.6793890,-22.0763359,-7.6997132,7.9487090,-3.4596038,88.1908417,-21.0763359,106.2213745
5940,-1.7836711,5.0445571,-0.8690908,23.4045811,-1.5877863,-9.5114508,-6.7420373,7.6638002,-3.7588775,77.3969498,-19.7938938,113.8854980
5950,-1.1755470,4.8793583,-0.4501076,21.4885502,-7.8473282,2.2595420,-5.5832496,7.6853480,-3.6966286,61.8625946,-25.9923668,115.2671738
5960,-0.2801202,5.0948353,-0.3806761,18.2519093,-0.7251908,14.3358774,-4.8913293,7.6709828,-3.4428444,44.7480927,-36.9160309,113.2290039
5970,0.3950413,5.5545197,-0.4788379,13.2900763,11.5877867,23.9770985,-4.3119354,7.5847921,-3.2752512,26.7557259,-50.5496178,109.7786255
5980,1.6495966,6.4260044,-0.9720409,7.2671757,17.5648861,26.9770985,-3.6463506,7.5823979,-2.7461352,9.5114508,-65.3435135,106.1755753
5990,2.1571648,7.2160869,-1.5370697,0.7557252,16.4427490,23.7557259,-2.7126167,7.8577299,-1.9847831,-6.9465647,-81.9389343,101.0610657
6000,2.5546002,7.9295554,-1.6783268,-7.7175574,14.3664122,18.4580154,-1.5634058,7.9175844,-0.9121862,-17.2748089,-93.5954208,95.1450348
6010,2.4779861,8.5113440,-1.6160779,-15.7862597,11.7404585,13.2824430,-0.8595140,7.8720951,0.4094064,-17.0458012,-96.2137375,88.5954208
6020,2.4947455,8.8369532,-1.6424140,-23.0839691,8.9465647,9.0458012,-0.4525018,7.6566176,0.6703730,-8.6564884,-87.2748108,83.1374054
6030,1.8914096,9.4355011,-1.4508789,-33.4732819,9.7938929,10.4198475,0.2968795,7.2735476,-0.0383070,10.9007635,-60.3664131,72.6030502
6040,1.5825592,9.7491398,-1.2521610,-36.7175560,10.1221371,13.6106873,0.6129125,7.2950954,-0.5793939,16.8931293,-47.9771004,65.9618301
6050,1.3191984,10.2734671,-1.1420283,-39.6183205,10.0152674,17.7938938,0.7254394,7.5464849,-1.2258250,18.7862587,-37.5648842,59.8473282
6060,1.1563935,10.9198980,-0.8020535,-41.5114517,11.0152674,21.3664131,0.5961532,7.8601241,-2.0087249,14.6946564,-31.4274807,54.6946564
6070,0.6607963,11.7027979,-0.6033357,-41.0305328,13.2442751,24.2519093,0.5913648,8.1426382,-3.1603301,2.3129771,-29.4809170,51.1374054
6080,0.0861908,12.5623121,-0.3232156,-37.8854980,14.3969469,28.2671757,0.6584021,8.2815018,-3.8498566,-17.4503822,-31.2748089,49.5877876
6090,-0.3806761,13.2422619,0.1675933,-30.8625946,14.2977095,34.1603050,0.9097920,8.3054428,-3.9599893,-42.2061081,-33.8167953,48.7786255
6100,-0.4094064,13.7618008,0.5315101,-17.6335869,11.5190840,41.3435097,1.3527170,8.7268209,-3.5601597,-65.3969498,-37.0381660,43.3511467
6110,0.0574605,13.8743277,0.3902529,-1.3129771,4.1755724,47.1145020,1.7597293,9.2487535,-1.9776005,-79.6030502,-36.2519073,35.3435097
6120,0.6320660,13.8192616,0.2346306,13.4351149,-4.3511453,51.1832047,1.4604555,9.9933472,-0.2059003,-83.2137375,-31.0839691,26.9236641
6130,1.2808913,13.8001080,0.2011119,26.0687027,-12.2671757,53.9923668,1.3000449,11.1880474,1.3503228,-77.9312973,-28.6183205,17.9923668
6140,2.0015423,13.6349087,0.2968795,38.9923668,-19.1221371,53.1908379,0.5386927,12.5599174,2.1930776,-68.8549652,-30.0992374,11.5572519
6150,2.6982515,13.4242201,0.3160330,52.1221390,-25.1603050,47.9160309,0.2537841,13.6157551,2.0087249,-60.3053436,-31.5801525,7.2061067
6160,2.8921809,13.0842457,0.0909792,63.1603050,-28.5038166,40.3358765,0.3902529,14.5255470,1.8052188,-55.0534363,-28.3206100,5.6030536
6170,3.0214672,12.6054077,-0.2944853,69.5572510,-30.7251911,31.8473282,0.1412572,15.0618458,1.8746504,-52.5419846,-20.2290077,5.2595420
6180,2.8538737,12.1385403,-0.8762733,70.7480927,-33.0305328,22.7786255,-0.3758878,15.1217003,2.3822186,-49.0305328,-6.9694657,7.4656487
6190,2.6671271,11.6309719,-1.1635761,67.0457993,-34.6335869,13.3053436,-0.6560079,14.9493189,3.6056492,-40.3282433,9.4656487,10.4274807
6200,2.3678534,11.0420017,-1.3144100,60.5114517,-33.9923668,3.9465649,-1.0725969,14.8966465,5.1427188,-22.8625946,28.4427490,10.3664122
6210,1.9560528,10.2998028,-1.2401901,52.2137413,-31.8244267,-5.2137403,-1.6160779,14.9110117,6.5026188,3.9465649,49.2213745,9.9541988
6220,1.5705882,9.6078825,-1.2186425,42.9389305,-31.4885502,-13.6183205,-2.5091105,14.8774929,7.0053983,34.9312973,65.1755753,10.1374044
6230,1.3551112,9.1098909,-1.3287752,33.2213745,-32.6564903,-22.6946564,-3.4643922,14.7697544,6.5768385,62.5419846,68.8396912,11.8091602
6240,1.0725969,8.4514885,-0.9002152,23.5343513,-33.7862587,-33.0610695,-4.3933377,14.3986549,5.6311336,81.6793900,60.9007645,17.2671757
6250,0.9073978,7.9654684,-0.9457048,14.9618320,-36.9007645,-43.9160309,-4.9176650,14.0491037,4.4029145,90.8702316,44.6641235,24.2137413
6260,0.6536137,7.5800037,-1.5873476,3.6946564,-43.4351158,-56.4122124,-4.5082588,13.7043400,3.0118904,89.4580154,35.9389305,28.0152664
6270,0.2130829,7.0532823,-1.7118455,-11.3893127,-43.3511467,-66.7251892,-4.4436154,12.9429884,1.8650736,82.5419846,26.8244267,30.3587780
6280,-0.0646431,6.6199336,-2.1667414,-28.4580154,-45.6641235,-73.3358765,-4.5250182,12.1936073,1.3215926,68.6717529,18.3053436,33.8931313
6290,-0.7158626,6.0309634,-1.8124014,-44.6564903,-45.0305328,-76.0687027,-4.6662750,11.4154949,1.7956421,56.0152664,12.2519083,39.8931313
6300,-1.3646880,5.4826937,-0.8259954,-54.6106873,-38.6259537,-71.8167953,-4.5034704,10.6637201,2.4013720,48.8015251,9.4274807,46.0839691
6310,-2.1571648,5.2743993,0.1628049,-56.6564903,-31.2366409,-61.9923668,-4.2257442,9.7946291,2.9783716,46.7862587,10.8244276,52.1297722
6320,-2.6048782,5.1690550,0.6847382,-51.8702278,-22.1297703,-48.2748108,-4.0437860,9.0213060,3.1818779,48.8625946,14.4656487,56.9694672
6330,-3.1459649,5.4324160,0.4764437,-48.6335869,-11.5343513,-31.0000000,-4.0294209,8.2431946,3.1938488,52.1984749,18.2137413,61.9236641
6340,-3.4763632,6.0812411,0.0287303,-49.4351158,-5.6106873,-10.9236641,-3.6655040,7.7428088,3.1794837,55.7938919,21.5114498,67.2824402
6350,-3.2776453,6.6175399,-0.1819584,-54.0839691,-6.2442746,9.2977095,-3.1148405,7.0077925,2.9879484,58.8396950,23.9541988,70.8702316
6360,-2.5737536,7.1729918,-0.1029501,-57.9847336,-11.4732828,27.5114498,-2.5450234,6.4834652,2.6886747,60.7938919,26.5419846,72.3816757
6370,-1.1420283,7.5488791,0.6224893,-56.9160309,-15.8625956,40.1679382,-2.1547706,6.0596933,2.2529323,60.4656487,27.3282452,71.3893127
6380,0.5219333,8.1761570,1.2377959,-49.5801544,-18.0610695,45.9160309,-1.8794388,5.7005649,1.8914096,57.5954208,24.2671757,69.5114517
6390,1.7549409,8.6549950,1.1923064,-40.2977104,-19.9236641,46.7175560,-1.5418580,5.3342543,1.4628497,53.0076332,18.1679382,65.3282471
6400,2.4133430,9.0620070,0.9002152,-33.8549614,-16.3740463,46.4198456,-1.2904681,4.9655490,1.0845678,46.7175560,11.6870232,61.8091621
6410,3.0741394,9.4067707,0.5722113,-31.8778629,-10.0839691,47.5267181,-0.9217629,4.6423335,0.7613522,40.1526718,5.3358779,56.9236641
6420,3.9552009,9.8113880,0.5410868,-29.7022896,-4.3587785,49.3511467,-0.6488253,4.3191175,0.4884146,32.9847336,-0.3664122,52.9007645
6430,4.8027439,10.0005293,0.7350162,-25.7709923,4.6641221,49.2824440,-0.3902529,4.0413918,0.1699875,25.9694653,-5.0534353,47.0839691
6440,5.4707227,10.2519188,0.2609667,-22.3587780,13.2595415,47.2137413,-0.0407012,3.7469065,-0.2035061,17.4045811,-7.2519083,40.3893127
6450,5.6694407,10.4075413,-0.3256098,-19.9389305,19.7786255,42.5114517,0.2513899,3.6702924,-0.6895266,7.8549619,-8.3893127,32.1679382
6460,5.6454988,10.4530315,-0.9504932,-20.3511448,24.4732819,35.1450386,0.1939293,3.5912843,-0.8523315,-1.2824427,-9.0992365,23.2595425
6470,5.2791877,10.4721851,-1.6472024,-23.4656487,24.7251911,25.0381680,-0.1484398,3.8283088,-0.9792235,-11.6412210,-9.3053436,16.4885502
6480,4.5633249,10.4314833,-2.3678534,-29.7938938,19.4274807,12.8854961,-0.4764437,4.4268565,-1.1300575,-23.7633591,-12.5114508,11.5496187
6490,3.4907281,10.2399483,-2.5234756,-39.0381660,14.3282442,1.9923664,-0.2920911,4.8458395,-1.2713146,-37.4198456,-16.3053436,8.0992365
6500,2.1332228,9.8377247,-2.1236460,-47.4885483,10.4809160,-3.4198472,0.1675933,5.1594782,-1.4221486,-52.1450386,-18.1068707,2.0610688
6510,1.1276633,9.5743637,-1.6926919,-52.7862587,5.5419846,-4.2900763,-0.1364688,5.5210009,-1.2880739,-65.2213745,-16.9923668,-3.9236641
6520,0.3303981,9.3445215,-1.0390782,-54.9083977,-0.8473282,-1.7022901,-0.9576758,6.1794028,-0.9097920,-76.2824402,-15.9541988,-8.0992365
6530,-0.1747758,9.1960821,-0.3806761,-54.0610695,-9.6564884,2.6641221,-1.4365137,6.9072366,-0.5339043,-83.0152664,-16.8320618,-8.7786255
6540,-0.4165890,9.5001440,0.0814024,-51.5496178,-17.7862587,5.9847326,-1.6208663,7.5967631,-0.2011119,-85.9160309,-15.7938929,-8.9465647
6550,-0.5554519,10.0675669,0.1891410,-49.0610695,-28.9541988,7.9847326,-1.5059452,8.3126259,-0.0622489,-86.2290039,-11.7862597,-10.5190840
6560,-0.6464311,10.7977943,0.2801202,-49.1450386,-39.5725174,8.6946564,-1.5681942,9.2774839,0.0837966,-85.6335907,-6.2137403,-13.1221371
6570,-0.2370248,11.7482872,0.0957676,-52.2213745,-52.9083977,7.9312978,-1.7549409,10.2160063,0.4381367,-84.6870193,-0.0839695,-15.5877867
6580,0.3016679,12.6676559,0.1891410,-61.1450386,-62.7404594,2.2213740,-2.1739240,10.9582052,0.7852941,-84.4656525,4.9541984,-15.3587790
6590,-0.0143651,13.1441002,1.0941446,-72.3740463,-59.3511467,-1.3435115,-2.5857246,11.7458935,1.1899122,-84.1526718,6.1221375,-13.3129768
6600,-0.0263361,13.7785606,2.6575503,-80.0763321,-43.3969460,1.0992366,-2.9687948,12.5216112,1.0725969,-83.5038147,4.6946564,-9.6793890
6610,0.4884146,14.2214851,4.5705075,-79.1679382,-23.1145039,4.9770994,-3.2704628,13.1441002,1.0965388,-83.7251892,-1.0687023,-6.2519083
6620,0.5123565,14.6093445,6.2608056,-68.1984711,-6.1450381,6.2213740,-3.6080434,13.4744978,0.8523315,-87.9694672,-16.6488552,-2.0305343
6630,0.8020535,14.7506008,7.8074517,-48.1908379,6.0076337,9.6870232,-3.3829896,13.5008345,0.0526722,-101.0763321,-51.6335869,-1.7862595
6640,1.5394639,14.7482071,8.9351149,-19.7251911,11.6946564,10.9007635,-2.7724714,13.0746689,-1.2521610,-123.2061081,-97.5114517,-6.1450381
6650,2.3223639,14.8176384,9.1051025,15.7251911,12.4732828,8.0000000,-1.8961980,12.8544035,-1.8243724,-150.8167877,-121.7786255,-13.8015270
6660,3.1004753,14.7506008,8.9542685,52.6106873,10.9236641,1.6106870,-1.8052188,12.5814657,-1.2856797,-174.0000000,-121.6106873,-21.1297703
6670,3.4500270,14.1616306,7.6685886,87.0839691,9.3816795,-5.0152674,-2.3127871,11.9493999,0.5674229,-181.9694672,-98.4732819,-17.7175579
6680,3.7923961,13.8336267,5.6383162,111.3511429,7.2366414,-9.3282442,-2.3151813,11.3173332,2.7652888,-171.2824402,-50.2366409,-3.9847329
6690,3.8857694,12.9908724,4.2496862,125.3435135,5.5877862,-16.1374054,-2.1787124,10.7570934,4.6543045,-143.7709961,17.1755733,13.5954199
6700,4.3310885,12.4114780,2.7197993,132.7328186,2.6259542,-25.0229015,-2.4420733,10.1465750,6.7659793,-106.5038147,82.9618301,31.9541988
6710,4.2568688,11.7458935,1.8363433,136.7938995,-1.5572519,-36.1450386,-2.6360025,9.6725254,8.2144642,-69.0839691,123.9770966,45.8702278
6720,3.8139439,10.6972389,0.8427547,137.3511505,-6.4122138,-48.2748108,-2.1691356,9.6054878,9.1290445,-34.1908379,142.5343475,51.4732819
6730,3.3303175,9.8999729,0.0574605,133.6870270,-9.7633591,-56.9694672,-1.1228749,9.8161764,9.3038206,-4.4580154,146.4656525,47.2977104
6740,2.8826041,9.0069408,-0.5817881,127.0534363,-10.0152674,-63.0152664,0.1221037,10.1178446,8.6980906,15.3893127,138.1374054,34.1297722
6750,2.4181314,8.2048874,-0.9193687,118.1297684,-6.2366414,-68.2824402,1.0534433,10.7906122,7.1945391,22.9236641,119.9312973,13.6335878
6760,1.9225341,7.4818420,-1.2330076,108.4045792,-2.4351146,-72.2595444,1.1755470,11.2814207,5.4898763,17.4809170,92.6030502,-9.9847326
6770,1.3862357,6.8880830,-1.5466464,97.1832047,1.5419847,-74.1832047,0.8643024,12.1481171,3.9743545,4.9618320,62.5190849,-29.4885502
6780,1.1109039,6.2440462,-1.9680238,84.1297684,4.9923663,-75.2824402,1.2401901,13.3930960,2.5186872,-6.8931298,30.8549614,-43.2366409
6790,0.6751614,5.5736732,-2.2792683,68.6335907,6.9770994,-75.6870193,2.5665710,14.0012197,0.1364688,-10.8778629,0.9160305,-49.2366409
6800,0.2418131,5.0756817,-2.2744799,53.2671738,8.3282442,-73.9770966,4.8123207,14.7649660,-3.2848279,-12.8702288,-8.9923668,-47.1068687
6810,-0.1987177,4.4771342,-1.9799947,40.6412201,5.6488547,-70.7099228,6.7013364,14.7865143,-5.8513989,-16.9236641,8.3511448,-36.5496178
6820,-0.5003856,4.1275826,-1.5394639,31.8320618,0.1526718,-66.3282471,8.1282730,14.9397421,-6.7228842,-17.0839691,59.9160309,-24.2213745
6830,-0.7014975,3.7636659,-1.2473727,25.3435116,-6.9465647,-60.7938919,8.6214762,15.3395720,-6.3110833,-14.8625956,130.8473358,-16.5725193
6840,-0.8451489,3.4212968,-1.2186425,19.2290077,-12.1679392,-54.8854980,7.7260494,15.1049414,-5.4874821,-19.7251911,181.6946564,-16.6412220
6850,-0.9720409,3.0908985,-1.2090657,12.3282442,-14.8625956,-47.8778610,6.1650376,14.9110117,-4.0940638,-37.1374054,191.8015289,-23.7251911
6860,-0.9792235,2.9017577,-1.0295014,6.4045801,-15.4198475,-40.9389305,5.1810260,15.0498753,-2.0949159,-64.3893127,173.0381622,-32.3587799
6870,-0.9672526,2.6671271,-1.0199248,0.8396947,-14.1297712,-34.6717567,5.2672167,14.5830078,0.6057299,-93.3969498,151.5038147,-34.4885483
6880,-1.4269369,2.5761478,-0.9648584,-5.5801525,-12.5114508,-27.2061062,6.7372489,13.2590208,4.2377152,-112.0076370,141.8015289,-35.8244286
6890,-1.8770446,2.8993635,-0.9504932,-11.8320608,-10.6488552,-15.4045801,8.2360115,11.9493999,9.3062143,-105.0534363,165.9236603,-37.2748108
6900,-2.0757623,3.1866663,-0.7541697,-17.6030540,-9.6183205,-3.6946564,8.3772688,9.8664551,14.9277716,-69.1526718,216.3282471,-37.7022896
6910,-1.9129574,3.6487448,-0.7206510,-23.8778629,-7.8244276,7.3664122,7.5800037,7.2400289,18.8255119,-10.9160309,250.1297760,-37.4351158
6920,-1.5155219,4.2018023,-0.4453192,-30.6793900,-2.5038168,16.2977104,6.6486640,5.4276276,19.6126022,56.4732819,250.1297760,-41.9007645
6930,-1.1779412,5.1906028,-0.1915352,-35.0992355,4.9541984,22.3664131,5.7747850,3.4596038,19.6126022,102.4885483,250.1297760,-58.0458031
6940,-1.0438666,6.4307928,-0.2801202,-38.2519073,17.8931293,27.4503822,5.7532372,2.2074428,18.6124287,102.7022934,176.6946564,-95.6412201
6950,-1.5035510,7.9558916,-0.6967092,-43.0076332,31.7633591,34.2137413,4.7740140,0.3160330,16.5079365,57.6717567,58.8244286,-154.3969421
6960,-1.8124014,9.9646168,-1.1420283,-49.6870232,48.2748108,42.9160309,2.5857246,-1.9895715,17.1256371,-3.6793892,-77.2442780,-213.5954132
6970,-2.0446377,11.8129311,-1.5538290,-56.7480927,60.4885483,51.7633591,0.9457048,-3.3758070,19.6060181,-43.7099228,-184.6488495,-250.1374054
6980,-2.1667414,13.5175934,-1.4484847,-59.0305328,64.4732819,57.9618340,-1.0821736,-4.8889351,19.6126022,-43.7557259,-233.3740387,-250.1374054
6990,-1.9895715,14.7146883,-1.0821736,-53.0228996,63.2213745,64.4351120,-3.0286496,-6.0620875,19.6126022,-2.8473282,-235.2061005,-250.1374054
7000,-1.3503228,15.4688578,-0.7158626,-38.2137413,57.0916023,71.5419846,-6.1099715,-6.9718795,19.2875900,67.1603088,-204.6259613,-250.1374054
7010,-0.3902529,16.0793762,-0.7206510,-16.9847336,48.7480927,75.9160309,-8.6430235,-6.9646969,14.9660778,143.9923706,-149.0152740,-238.5801544
7020,0.8906385,16.4456882,-0.9744351,6.4580154,35.3358765,75.3511429,-10.3548698,-5.8561873,8.3724804,201.3664093,-83.2671738,-209.9084015
7030,1.9153515,16.4217453,-0.3423691,30.3816795,29.9923668,67.2977066,-11.7961712,-5.5042415,1.7525467,217.0229034,1.5572519,-188.5648804
7040,2.8275378,15.9524841,-0.7517755,53.4961815,23.9770985,53.6564903,-12.6939926,-5.0421629,-2.7605004,196.5801544,77.6870193,-177.7786255
7050,2.8730273,15.1121235,-0.8571198,72.4961853,14.6793890,38.2748108,-14.4561157,-3.7421181,-4.6327567,156.0534363,127.2671738,-178.5801544
7060,2.3894010,14.0658627,-1.3958124,86.4427490,0.9770992,27.1374054,-16.8910065,-1.7022687,-4.5968437,109.6793900,140.0839691,-178.3816833
7070,2.2720859,13.2302914,-1.8961980,91.2977066,-18.8854961,19.4274807,-19.4072990,-0.0909792,-4.0796990,63.9923668,116.5648880,-169.0000000
7080,2.2457497,12.0044661,-2.0685797,87.3206100,-35.6793900,13.0076332,-19.6131992,0.6464311,-3.0621684,17.4198475,76.3587799,-146.8167877
7090,2.0422437,10.7499104,-2.2074428,76.1068726,-41.9618340,8.9694653,-19.6131992,0.4788379,-1.4891858,-24.9312973,29.3587780,-113.4961853
7100,1.6088953,9.9167328,-2.1667414,60.6335869,-36.6259537,6.5038166,-19.6131992,0.1723816,0.4285599,-57.9923668,-13.7709923,-76.7175598
7110,1.9895715,8.6789370,-1.4796091,48.5877876,-18.3969460,0.1374046,-19.6131992,-0.1484398,2.6934631,-81.5343475,-46.3129768,-41.2519073
7120,1.6831152,8.2048874,-0.2968795,45.3129768,-1.5877863,-12.2595415,-19.6131992,-0.5123565,4.4914994,-93.6488571,-72.0687027,-6.8854961
7130,1.2784972,8.1881275,-0.3208214,40.7251892,8.3816795,-17.4045811,-19.3737812,-1.0725969,5.6670465,-90.4122162,-90.4503784,22.6259537
7140,1.2737088,7.4483232,-0.7805058,35.3282433,22.4503822,-20.6641216,-17.1352139,-1.8028246,6.4188218,-77.5267181,-97.7251892,41.7862587
7150,1.0821736,7.1131368,-1.1468167,27.3358784,31.7480907,-25.1068707,-15.4616756,-2.7628946,7.9247670,-59.1450386,-93.5954208,52.8167953
7160,0.6655847,6.7564025,-1.3551112,18.7251911,32.2977104,-30.1145039,-14.6644106,-3.2800395,9.3493099,-30.3893127,-86.7022934,56.3129768
7170,0.2801202,6.6366930,-1.3766589,10.6564884,22.4274807,-32.2595406,-14.9660778,-3.5122759,10.0292597,8.8778629,-88.7251892,55.0305328
7180,-0.0215477,6.0932121,-0.9385223,7.6335878,8.1679392,-30.8091602,-15.9716377,-3.7493007,9.3014259,53.3358765,-102.3664093,52.2366409
7190,0.2035061,5.6981707,-0.6177009,7.3358779,-5.7480917,-27.9770985,-16.0171280,-3.4476328,7.0077925,93.2519073,-120.3053436,45.3969460
7200,0.4213773,5.4252334,-0.1580165,10.6488552,-13.0458012,-25.4274807,-15.6675758,-3.7445123,4.1587071,125.6870193,-146.6793823,41.1145020
7210,0.7230452,5.5497313,-0.2130829,15.4427481,-14.2519083,-22.2137413,-15.4760408,-2.7557120,1.9129574,148.6946564,-159.3053436,39.4732819
7220,0.8523315,5.6790175,-0.7493813,16.1908398,-8.9541988,-16.7175579,-14.5925846,-1.5298871,0.2585725,156.7175598,-162.1679382,42.0763359
7230,1.0055596,5.9160423,-1.5562232,11.6870232,3.2442749,-11.7328243,-12.8735571,0.3016679,-1.5250987,146.3893127,-158.1908417,45.8854980
7240,0.9169745,6.2871413,-2.4085546,-0.8473282,12.7557249,-6.9389315,-11.3580351,1.8602852,-3.1579359,118.2671738,-151.4503784,49.3587799
7250,0.8906385,6.7947097,-3.3614421,-19.1679382,21.5725193,-1.8625954,-10.4937325,3.3638363,-3.8809812,81.1374054,-148.4961853,52.9771004
7260,0.8690908,7.3214312,-3.7085996,-39.0228996,26.8473282,1.9389313,-9.8736372,4.5082588,-3.0765336,40.8396950,-148.8091583,59.2213745
7270,0.8020535,7.7428088,-3.7229645,-57.0839691,26.2595425,4.7862597,-8.9973640,5.1858144,-1.4604555,8.6183205,-150.3282471,63.6641235
7280,0.7661406,8.3509331,-3.4476328,-70.0839691,24.0458012,8.5343513,-8.1905222,5.6311336,0.4381367,-11.1068707,-151.4885559,62.5572510
7290,0.7014975,8.9039907,-2.9424589,-77.4580154,20.4961834,12.0076332,-7.4722652,6.5026188,2.0063307,-17.9847336,-151.0992432,58.7480927
7300,0.5099624,9.3971939,-2.5019281,-78.2824402,16.2366409,14.4351149,-6.2512288,8.0205345,3.5984666,-14.4045801,-149.1832123,53.0152664
7310,0.2178712,9.8832140,-2.1523764,-75.3740463,8.6946564,16.4656487,-5.0613165,9.3253679,4.2999644,-3.0687022,-137.3511505,46.9541969
7320,0.0526722,10.3117743,-1.8363433,-69.8931274,-2.2442749,20.8091602,-4.1922259,10.2806492,4.5968437,12.3587790,-112.1679382,41.1374054
7330,0.0550664,10.6948442,-1.4843974,-62.0534363,-14.0381680,25.9923668,-3.9743545,11.1664991,4.7740140,29.7938938,-83.0381699,38.7633591
7340,0.3615226,11.1952295,-1.0390782,-51.6030540,-23.0305347,30.1145039,-4.7069764,11.7530756,4.7189474,46.2519073,-49.2061081,41.1984749
7350,0.4908088,11.7243462,-0.7996593,-39.6870232,-26.5801525,32.3129768,-5.5353661,12.1169930,4.4029145,57.4580154,-23.3282452,46.9236641
7360,0.7158626,12.1169930,-0.8523315,-28.4961834,-25.9694653,32.8702278,-5.7316895,12.5359764,4.1443419,64.9618301,-12.4885492,53.0305328
7370,0.6320660,12.4234495,-1.0989330,-20.9694653,-24.3740463,33.0381660,-5.6239510,13.6253319,4.0557570,68.5343475,-13.3206110,55.3053436
7380,0.6631905,12.6101961,-1.2090657,-17.0534344,-21.9236641,33.0000000,-5.5521255,14.8511572,3.2728570,65.9389343,-22.5877857,56.6793900
7390,0.9313397,12.7059631,-1.2425843,-13.5725193,-18.9923668,32.0534363,-5.5856438,15.4377337,2.4277081,54.4045792,-30.8396950,58.9083977
7400,1.3048333,12.7514534,-1.1085097,-8.8778629,-15.4045801,29.0305347,-5.0230093,15.8950233,1.9584470,37.4427490,-37.7633591,63.0152664
7410,1.5083394,12.5838594,-1.0031654,-3.3816793,-13.1450386,22.8473282,-4.6710634,15.6867294,2.0278785,17.4580154,-36.5038185,67.7251892
7420,1.5705882,12.4856977,-1.1947005,1.4580153,-11.2748089,15.0839691,-4.5752959,15.2150736,3.0406206,1.7480916,-29.6259537,71.2137375
7430,1.3790531,12.2438850,-1.3742647,4.0839696,-10.7175570,7.2900763,-4.2903876,14.5494890,4.8218975,-2.3587787,-21.5419846,76.6870193
7440,1.0702027,11.9948893,-1.5107336,4.4961834,-11.7480917,-0.0610687,-3.6152260,13.9341822,6.0764527,7.0076337,-8.6030531,80.5648880
7450,0.7398046,11.6788559,-1.3934183,3.7251909,-14.7251911,-6.2061067,-2.8802099,13.4984398,7.0580707,24.6335869,5.7862597,84.7633591
7460,0.4285599,11.2263546,-1.2258250,3.3969467,-17.3358784,-11.4122133,-2.0973101,13.0315733,7.0532823,44.9618340,17.6183205,87.4809189
7470,0.2250538,10.7211800,-1.0127422,3.2824428,-18.2595425,-15.9770994,-1.6184721,12.4497852,6.7899213,64.9923630,26.8473282,89.6183243
7480,-0.0095768,10.3572636,-0.8666966,3.1374047,-17.6870232,-20.0000000,-1.1324517,11.7770176,5.6862001,79.5725174,33.8396950,90.7938919
7490,-0.1771700,9.9478569,-0.6560079,2.2061069,-16.7404575,-22.7633591,-0.5913648,11.1114330,4.2401094,83.5038147,38.5648842,89.1450348
7500,-0.4405309,9.5815458,-0.5291159,0.5496183,-16.3511448,-24.7557259,-0.2537841,10.3668404,2.9855542,75.5801544,36.4427490,84.3816757
7510,-0.4596844,9.2176294,-0.3734936,-0.8702290,-16.0000000,-25.6870232,-0.2513899,9.7563219,2.7533178,64.4885483,25.6335869,78.3664093
7520,-0.4429250,8.9829988,0.0790083,-1.0381680,-15.7862597,-25.0305347,-0.1460456,9.1577749,3.3087699,56.3511467,14.4503813,72.5419846
7530,-0.3088504,8.6166878,0.2849085,-0.7251908,-15.2900763,-23.0076332,0.2322364,8.3533268,3.6152260,53.8396950,6.0458016,67.5267181
7540,-0.2274480,8.4993725,0.3471575,0.2595420,-14.3358774,-20.1374054,0.8116302,7.6853480,3.5481887,55.3129768,-0.3511450,58.7862587
7550,1.1731528,8.2982607,0.4357425,-0.1908397,-16.1221371,-14.5648851,2.2433555,6.0740585,2.2505381,58.6259537,-0.6106870,18.8244267
7560,1.7740943,8.0181408,0.6584021,0.7328244,-12.3511448,-5.6488547,1.6950861,5.1379304,1.4532729,53.4885483,-2.3893130,-2.9312978
7570,1.9033806,8.0037756,0.6200951,2.9770992,-9.0534353,0.7938932,1.3072275,4.9009056,1.2832855,50.2824440,-5.0687022,-8.9847326
7580,1.9464760,8.2192526,0.2274480,5.7480917,-1.7709924,10.0687027,0.9265513,4.7261300,1.0654143,47.1984749,-8.9770994,-12.0687027
7590,2.0518203,9.6797075,-1.2521610,7.1145039,20.5572510,27.0610695,0.8331779,4.4005203,0.4381367,40.0381660,-15.3969469,-10.6259546
7600,2.1068866,10.6038647,-2.1571648,4.9160304,30.0687027,26.0152664,0.5841822,4.4819226,-0.1101327,32.6946564,-22.1832066,-10.0381680
7610,2.0470319,11.2862091,-3.0286496,-1.2213740,36.6030540,18.5877857,0.2992737,4.4675574,-0.8188128,18.8931293,-34.3664131,-7.7862597
7620,1.9919657,11.7578640,-3.7277529,-11.5801525,36.7633591,6.2519083,0.3447633,4.3358769,-1.2761030,-0.3282443,-48.7786255,-6.1145039
7630,1.7453641,11.7051926,-3.7732425,-24.2900772,30.4274807,-10.8625956,0.5650287,3.9671719,-1.5035510,-21.8473282,-61.2442741,-5.4961834
7640,1.1851238,11.3125448,-3.2177906,-36.0992355,19.4961834,-28.9465656,1.0749911,3.4979107,-1.2952565,-42.7480927,-71.1450348,-7.7633586
7650,0.2657550,10.5033092,-2.0206959,-40.7480927,11.1526718,-41.2671738,1.4915800,3.3470769,-0.8259954,-60.5419846,-73.5114517,-11.6946564
7660,-0.7924767,10.0603838,-1.0390782,-37.8931313,8.4885492,-44.7709923,1.8483143,3.4500270,-0.0718257,-72.8625946,-68.7251892,-15.9007635
7670,-1.8914096,9.8832140,-0.0742199,-27.7175579,10.2824430,-39.8625946,1.5681942,3.5601597,0.3878587,-82.4656525,-62.4580154,-21.5419846
7680,-2.5689652,9.9263096,0.2801202,-12.9770994,16.4503822,-30.5038166,1.5705882,3.5769191,0.7565638,-86.9389343,-57.3282433,-26.6946564
7690,-2.8706331,10.2974091,0.0167593,1.0839695,23.6335869,-20.2748089,1.3790531,3.9504125,1.2904681,-86.8625946,-53.5114517,-31.6259537
7700,-2.9687948,10.8744087,-0.3519458,13.0534353,29.3282452,-9.5801525,1.1994889,4.5010762,1.6855093,-85.0916061,-49.3740463,-34.7557259
7710,-2.4348907,11.2742386,-0.9217629,22.8625946,31.7251911,-0.3358779,0.7637464,5.0110383,1.4628497,-84.8244247,-46.1679382,-36.1297722
7720,-1.7453641,11.6740675,-1.4341195,29.3740463,32.5725174,5.7938933,0.0502780,5.5784616,0.7493813,-89.8167953,-46.3587799,-41.4045792
7730,-0.9504932,12.1050215,-1.7669119,32.9236641,29.6488552,7.7404580,-1.0151364,5.8418221,0.0167593,-98.1526718,-58.5801544,-43.4732819
7740,-0.4955972,12.3516235,-1.7573351,35.6946564,22.6641216,5.5648856,-1.9177457,6.1363077,-0.3615226,-108.8549652,-74.0381699,-38.3511467
7750,0.0837966,12.4713326,-1.5298871,40.2748108,13.8854961,-0.4122137,-2.0398495,6.6773944,-0.6129125,-122.5725174,-84.0839691,-30.3053436
7760,0.5722113,12.4617558,-1.4748207,45.3511467,5.3587785,-8.6488552,-1.7549409,7.4028339,-0.7302278,-141.8473358,-96.1145020,-26.7480907
7770,0.8020535,12.2223368,-1.3958124,49.0763359,-0.2595420,-15.4809160,-1.7453641,7.6590118,-0.4094064,-163.2595367,-110.9312973,-23.1221371
7780,1.0702027,12.1098099,-1.3144100,51.3129768,-4.8091602,-19.1450386,-1.3862357,7.7787213,0.4501076,-183.4274750,-109.1984711,-17.4580154
7790,1.6591733,11.9254580,-1.0247130,52.7557259,-9.5190840,-23.5267181,-1.0989330,7.8625183,2.3941894,-196.0992432,-85.9694672,-11.1145039
7800,2.2601149,11.4107065,-0.7326220,55.1068687,-11.7480917,-31.9847336,-0.5506636,7.8720951,4.8697815,-197.8549652,-34.8778610,-5.8702292
7810,2.6240315,10.7594872,-0.7613522,56.4656487,-8.3893127,-42.8320618,0.0047884,8.4826136,6.6965480,-191.8702240,11.3206110,-8.6259546
7820,2.3941894,10.2591019,-1.2114599,54.7175560,0.3129771,-52.8473282,-0.6584021,8.4514885,8.1139078,-180.7786255,54.1297722,-13.3206110
7830,1.7357874,9.5983057,-1.7333932,49.2824440,10.2671757,-59.5572510,-2.5737536,8.7627335,9.3588867,-167.6183167,69.0687027,-16.3740463
7840,1.2449785,8.9446917,-2.0661855,41.0916023,19.7862587,-62.9160309,-5.0996237,9.4402885,10.1250277,-156.5267181,35.0381660,-16.5038166
7850,0.5530578,8.2551651,-2.3415172,31.2977104,25.0610695,-64.3435135,-6.4427638,9.9741936,11.5328102,-151.0839691,-18.4351139,-7.2290077
7860,-0.2202654,7.6111283,-2.2625091,21.9694653,22.6488552,-61.7633591,-4.0844874,10.9725704,12.6389265,-154.3358765,-55.6412201,-2.1221373
7870,-0.8666966,7.1658092,-1.8794388,16.4580154,11.8396950,-54.7862587,-3.5338237,11.4059181,13.5606890,-152.0915985,-85.9694672,-9.6946564
7880,-1.0582317,6.5624733,-1.1444225,16.2290077,-5.2977099,-46.1832047,-3.4739690,11.7674408,13.8503857,-145.3893127,-102.7938919,-14.7709923
7890,-1.0534433,6.1913738,-0.3112446,22.0152664,-22.8702297,-37.0687027,-2.6048782,12.1529055,14.1592360,-137.8015289,-100.4503784,-17.0610695
7900,-0.6871324,5.6862001,0.3016679,31.4427490,-34.9007645,-28.5572510,-1.8387375,12.5000629,14.9205885,-124.6412201,-83.2900772,-17.9541988
7910,-0.4740495,5.3462253,0.4836263,40.6335869,-39.8778610,-21.6030540,-1.9991482,12.7586355,15.3706961,-101.9236679,-57.2061081,-20.1984730
7920,-0.3950413,5.1499014,0.0239419,43.8854980,-40.0228996,-14.3206110,-2.4971397,13.0459385,15.4664640,-76.7709961,-31.4580154,-20.2977104
7930,-0.1604107,5.1307478,-0.3136388,39.5572510,-34.0458031,-5.9083967,-2.9209111,13.4050665,15.1384602,-52.1374054,-13.0305347,-16.9618320
7940,0.0335187,4.9751258,-0.6775556,28.4885502,-21.1221371,1.8320611,-4.1251884,13.9677010,13.8048964,-28.9541988,-6.1450381,-12.9236641
7950,0.3591284,4.8721757,-1.1635761,14.8244276,-3.1221373,7.7786260,-3.3207407,14.6548338,12.3588057,-14.6335878,4.5419846,-8.5725193
7960,0.3687052,5.0421629,-1.4484847,0.8396947,13.5038166,12.0152674,-2.0829449,14.5375185,11.4059181,0.8854962,37.4656487,-1.9236641
7970,0.4860204,5.5186067,-1.6041069,-8.9770994,28.1068707,14.0610685,-2.5378408,14.8008795,9.5576038,14.3282442,60.9923668,0.7328244
7980,0.3902529,5.9854736,-2.1906834,-16.0763359,41.2595406,14.7022905,-2.3463056,16.0554352,7.7116842,14.9541988,71.6870193,6.1374044
7990,0.0119709,6.6103573,-3.1435707,-25.1984730,51.0152664,15.3435116,-1.9919657,16.7162304,6.8282285,7.3969464,77.0229034,11.3664122
8000,-0.4141948,7.8218169,-4.1898317,-39.6030540,56.3893127,16.4961834,-1.5873476,16.5055428,5.4132624,-7.0000000,68.2519073,15.9923668
8010,-0.9002152,9.0260944,-4.6662750,-54.1374054,52.7099228,17.0229015,-0.8978211,16.4648399,3.8690102,-30.3435116,51.3511467,17.8473282
8020,-1.5011568,9.7228031,-4.1132174,-63.7633591,43.5190849,16.7251911,0.8762733,16.3044300,3.2704628,-62.0076332,30.0229015,16.7709923
8030,-1.9297167,10.4219065,-3.2201848,-64.4961853,32.2213745,19.6183205,2.8706331,16.2014809,3.6678982,-89.1145020,24.3511448,13.1526718
8040,-2.2888451,11.0803089,-2.4277081,-56.9312973,21.0305347,26.7251911,4.4196739,15.7801027,4.0413918,-109.9770966,27.9618320,2.3511450
8050,-2.4348907,11.9350348,-1.8028246,-42.4045792,11.0687027,34.8931313,4.9392128,15.3060532,4.7141590,-118.5572510,46.2671738,-15.7251911
8060,-2.2481439,12.5886478,-1.5753766,-21.8015270,-2.4274809,42.0839691,2.4205256,13.0842457,4.8003497,-117.1755753,70.3816757,-27.7099228
8070,-1.5418580,12.8807392,-1.4101776,0.9083970,-16.1984730,46.2213745,0.1747758,10.5559816,3.3758070,-110.1603088,90.8778610,-34.6641235
8080,-0.8403605,12.9190464,-1.9704180,21.4732819,-28.3358784,47.4580154,-1.1132981,7.9367380,0.8451489,-111.7786255,103.4503784,-43.0687027
8090,-0.0742199,12.7993364,-2.4277081,36.5343513,-36.5877876,46.7251892,-2.4899571,4.7835903,-2.1332228,-129.4198456,108.5496216,-55.9541969
8100,0.4764437,12.5958309,-2.7676830,45.2442741,-42.1374054,44.0763359,-3.8833754,1.8363433,-4.2784166,-158.5648804,110.6106873,-68.0381699
8110,1.0151364,12.2438850,-2.9017577,49.4045792,-45.0839691,39.6412201,-6.1626434,-2.1116750,-5.3510137,-193.8244324,112.4732819,-74.5801544
8120,1.3934183,11.8033543,-2.7485294,51.2519073,-47.0228996,33.4961815,-8.6621771,-6.4954362,-5.0613165,-228.4198456,116.4427490,-71.7709961
8130,1.7309990,11.1329813,-2.5378408,51.0534363,-47.7251892,26.5572510,-11.2766323,-10.6493549,-3.5817075,-250.1374054,124.8931274,-55.0381660
8140,1.6926919,10.3668404,-2.2074428,48.9389305,-44.9541969,19.9007626,-13.1943779,-14.5183649,-1.9057748,-250.1374054,136.9847260,-28.8549614
8150,1.5873476,9.5264797,-1.9632354,46.5038185,-39.6564903,14.3053436,-14.8774929,-17.9109306,-0.7709290,-250.1374054,154.6335907,2.1221373
8160,1.3503228,8.8345594,-1.7597293,43.1908379,-33.1679382,9.6946564,-16.8598824,-19.6131992,0.8523315,-250.1374054,162.6564941,44.8167953
8170,1.0103480,8.1091194,-1.6017127,38.8167953,-25.8778629,5.7022901,-16.5653973,-19.6131992,4.6806402,-250.1374054,160.5954132,92.8091583
8180,0.4644727,7.2567883,-1.5370697,32.8854980,-15.0381680,3.7099237,-13.3811245,-19.6131992,11.0420017,-250.1374054,162.0229034,127.7175598
8190,0.0335187,6.5576849,-1.5849534,26.0839691,-1.8549619,4.4427481,-9.0763721,-18.9763451,17.4081516,-250.1374054,167.7099304,139.0992432
8200,-0.4764437,5.7604198,-1.7333932,17.6641216,11.1221371,8.2366409,-5.5904322,-17.0777531,19.6126022,-200.6106873,157.6717529,129.7175598
8210,-0.6967092,5.0325861,-1.9656296,8.5496187,23.5190830,14.3664122,-2.9951310,-14.9876261,19.6126022,-119.8167953,123.2671738,110.1832047
8220,-0.9959828,4.5130472,-2.2146254,-1.4809160,32.2748108,21.8778629,-0.9672526,-13.1225519,19.6126022,-51.5419846,92.5038147,86.8091583
8230,-1.3287752,4.1802549,-2.5761478,-11.8473282,35.5572510,31.4427490,0.8666966,-11.0563669,16.1296539,-10.1526718,81.3587799,62.4503822
8240,-1.4939742,3.9623835,-2.3965836,-23.4885502,35.4122124,42.7633591,1.1132981,-9.1218615,11.9206696,0.2137405,90.3053436,35.1374054
8250,-1.2210367,4.1754665,-1.9345051,-31.5648861,30.8625946,54.6030540,-1.1252691,-9.5647869,9.0667953,-3.6030533,79.8854980,21.0916023
8260,-0.1628049,4.4220681,-1.4125718,-34.7633591,24.6488552,59.4045792,-3.1004753,-8.8752604,6.7851329,-8.9389315,66.4961853,15.8931293
8270,0.8188128,4.9870968,-1.1563935,-34.4885483,20.6488552,56.2748108,-3.6032550,-7.0987716,4.4555864,-12.9618320,44.7175560,12.6183205
8280,1.2545552,5.4659348,-1.6376256,-35.0839691,19.9847336,50.4732819,-3.4428444,-6.5169835,2.7365584,-17.0000000,32.9389305,4.2290077
8290,1.1827296,6.1961622,-2.7796540,-36.7862587,2.8320611,45.1221390,-3.2944047,-5.7556314,0.9457048,-27.1755733,12.2442751,-19.4427490
8300,2.5474176,7.5656385,-3.1507533,-42.3282433,4.9389315,38.1221390,-2.1140692,-6.0644817,1.5945302,-28.0687027,-27.4198475,-64.7251892
8310,2.6814921,8.1354561,-2.9807658,-57.6106873,20.8091602,30.0381680,-2.4181314,-2.5378408,-0.6416427,-24.8091602,-77.4122162,-123.7633591
8320,1.6902977,8.5903521,-3.2920105,-73.5343475,36.3358765,28.5419846,-4.0533628,0.2777260,0.9193687,-31.6259537,-127.5801544,-169.5648804
8330,1.2976507,9.3852224,-3.2273674,-84.1450348,38.3893127,32.3893127,-3.4715748,0.6607963,2.7724714,-38.3893127,-170.9007568,-198.8778687
8340,1.4724265,9.8065996,-2.7964132,-86.6259537,28.2061062,35.9007645,-4.4555864,-0.4094064,2.2744799,-59.5190849,-168.2595367,-207.8167877
8350,1.9392935,10.5033092,-2.4923513,-83.6717529,18.3893127,36.8931313,-6.2775645,-0.4141948,2.1212518,-91.4122162,-161.0458069,-191.9160309
8360,1.9919657,11.3939476,-2.2553265,-80.5725174,11.7938929,36.8702278,-6.3685441,1.0630201,4.1012464,-118.7938919,-162.7480927,-163.8091583
8370,2.0039365,12.0715036,-1.9225341,-78.1603088,5.6412215,35.9083977,-5.4443870,2.3510940,7.1131368,-137.2671814,-143.8396912,-137.2519073
8380,2.0566087,12.4210548,-1.5777708,-73.2442780,-4.1832061,34.1068687,-5.2456689,2.3822186,8.5879574,-145.5496216,-109.1832047,-117.7786255
8390,2.1619530,12.8448267,-0.9672526,-65.7328262,-13.0992365,32.5038185,-4.9416070,2.2002602,9.3325500,-148.9465637,-58.4885483,-103.1450348
8400,2.2313845,12.7011747,-0.2585725,-56.0534363,-14.2977095,31.5114498,-5.7077475,1.9584470,11.2862091,-148.0763397,3.0076337,-87.5572510
8410,1.9704180,13.5535069,0.3256098,-43.9847336,-12.6488552,34.8167953,-7.7835097,1.3742647,13.3356352,-141.8167877,39.5114517,-63.4045792
8420,2.1763182,13.5918131,0.4237715,-30.5114498,-13.6717558,37.3664131,-9.3540983,1.2784972,13.0579090,-131.7404633,59.7557259,-34.0076332
8430,2.4708035,13.5487185,0.4572902,-16.3129768,-17.0076332,35.9771004,-10.3907824,0.1244979,11.9637651,-127.8091583,66.6717529,-7.7862597
8440,2.8012016,13.5678720,0.4333483,-2.8854961,-21.5877857,33.4961815,-9.9310980,-0.1628049,11.0204544,-132.9618378,66.7709961,4.9923663
8450,2.8179610,13.3188763,0.2035061,8.5496187,-24.2442741,30.7404575,-9.1769285,-0.5578461,10.8552551,-144.1755676,46.1679382,-2.0839694
8460,2.8969693,13.2829628,-0.1891410,16.7709923,-24.7251911,27.9923668,-7.5369086,-1.5466464,10.7618818,-153.2977142,20.1145039,-22.8625946
8470,2.8993635,13.0794573,-0.4381367,22.7022896,-24.5648861,24.0152664,-6.6342988,-3.1076579,11.5256281,-155.7786255,2.7404580,-38.9847336
8480,3.0358322,12.9549589,-0.8116302,25.6870232,-22.6488552,17.8778629,-6.3446021,-4.1970143,12.9453821,-147.0610657,2.1832061,-38.3969460
8490,3.0406206,12.7059631,-1.4293311,24.1832066,-18.4045811,8.9694653,-6.8234401,-5.1283536,13.5846310,-129.6183167,18.8702297,-18.2290077
8500,2.9496415,12.4617558,-1.6974803,17.8778629,-14.9236641,-3.4351146,-6.9287844,-5.6431046,14.2190914,-105.1145020,47.9847336,9.5572519
8510,2.5019281,12.0020714,-1.5346755,9.6183205,-9.4122133,-18.3206100,-7.2855186,-6.0381460,14.6117382,-76.2824402,68.1297684,35.9541969
8520,1.9416877,11.5447817,-1.1013272,3.3511450,-2.0687022,-33.2366409,-6.9024482,-6.4547348,12.5694942,-54.2442741,79.9389343,53.1297722
8530,1.2042773,10.8313131,-0.8140244,0.1755725,8.3053436,-46.6488533,-6.3685441,-6.6390872,10.9366570,-47.5648842,80.4045792,55.7328262
8540,0.2609667,10.1274214,-0.8427547,-2.4580152,18.6946564,-56.3587799,-5.5928264,-5.9758968,11.0707321,-45.4274826,66.0610657,45.8091621
8550,-0.6943150,9.4833841,-0.9385223,-5.0458016,26.8091602,-63.2366409,-5.7604198,-5.5042415,10.8241301,-40.6335869,56.8931313,31.6183205
8560,-1.6926919,8.8417416,-0.9600700,-6.9007635,32.1603050,-65.7938919,-5.8130918,-5.6814117,10.9989061,-33.7404594,44.7709923,21.1145039
8570,-2.6431851,8.2407999,-1.0414724,-6.2366414,33.2900772,-62.0534363,-5.8681583,-5.7580256,10.7283630,-25.6717548,35.7099228,13.0839691
8580,-3.3351059,7.7811155,-0.8523315,-3.4274809,28.2824421,-52.5114517,-6.1770086,-5.7891502,10.3931761,-16.7175579,30.5725193,4.3511453
8590,-3.4811516,7.4363523,-0.5123565,1.7557251,17.4732819,-37.7557259,-6.8090749,-5.6598639,10.4697905,-4.5038166,13.4809160,-2.7633588
8600,-3.3351059,7.2041159,-0.4405309,8.0687027,4.6183205,-19.7557259,-6.5720501,-5.8274570,10.3859940,11.4885492,1.7709924,-7.8015265
8610,-2.7174051,7.1203194,-0.2633608,15.1603050,-11.6030531,-1.2061069,-6.5241661,-6.2057390,10.4099360,29.6793900,-5.3511453,-9.8625956
8620,-2.3750360,6.9718795,-0.2298422,25.5725193,-36.9236641,16.3816795,-6.8042865,-6.2703824,10.1130562,49.6717567,-17.4885502,-7.8549619
8630,-3.4572096,6.3924856,-0.2992737,43.2213745,-85.4580154,38.9083977,-6.7851329,-6.4044566,10.2136126,69.8549652,-34.2366409,-3.1297710
8640,-4.3406653,5.8466105,0.1604107,72.2290039,-161.2442780,70.8625946,-6.7085190,-6.6414814,10.3931761,90.0992355,-59.4961815,2.8473282
8650,-3.6200144,5.3581958,0.9433106,112.0381699,-246.3053436,108.3587799,-7.0053983,-7.1586266,11.0420017,120.0457993,-98.5267181,8.6488552
8660,-0.6512195,4.6782460,0.9073978,154.6259613,-250.1374054,143.4809113,-5.6766233,-6.6438756,11.1904411,158.1068726,-133.4503784,8.7557249
8670,2.8682389,4.8673873,-0.0646431,183.0076294,-250.1374054,165.4961853,-4.4077029,-5.6670465,10.6876621,203.9694672,-154.5648804,4.0687022
8680,6.2943239,5.4084740,-1.6088953,188.3816833,-246.3435059,169.8396912,-4.7859845,-6.4307928,11.0898857,250.1297760,-158.7938995,-5.7938933
8690,9.0452480,6.3469963,-3.6918402,169.7786255,-164.6106873,156.5419922,-5.5664907,-6.6319046,9.6414013,250.1297760,-133.5801544,-7.9465647
8700,11.1712875,7.4100165,-5.9854736,126.7938919,-69.3206100,126.5343475,-6.3709383,-6.7707677,8.1306677,250.1297760,-101.7938919,-0.6412213
8710,11.9948893,8.3557215,-8.0923605,66.2213745,18.2061062,83.7633591,-6.9072366,-7.1705976,7.6302819,250.1297760,-36.8473282,20.5801525
8720,11.5926657,8.7411861,-9.0093346,4.1068702,79.9923630,36.8854980,-7.3836803,-7.7499914,8.2407999,250.1297760,28.7709923,47.2290077
8730,9.6150646,8.8728657,-8.6430235,-48.1450386,116.4961853,-6.3282442,-8.1713686,-7.6470413,9.0715837,250.1297760,71.8854980,79.4274826
8740,7.3669209,8.9351149,-7.2448173,-83.0000000,133.7633514,-38.0381660,-8.4586716,-7.3788919,10.1729107,250.1297760,114.9770966,114.6412201
8750,4.9511838,8.4514885,-5.8418221,-99.8625946,137.3816833,-57.7328262,-6.5169835,-5.3390427,8.6095057,250.1297760,194.6106873,135.9084015
8760,2.3486998,8.3006544,-5.0708933,-103.5419846,135.1145020,-61.0305328,-6.7516141,-2.0135133,7.7260494,250.1297760,248.8854980,136.4503784
