timestamp,rxacclX,rxacclY,rxacclZ,rxgyroX,rxgyroY,rxgyroZ,txacclX,txacclY,txacclZ,txgyroX,txgyroY,txgyroZ
0,-0.6751614,1.3024391,13.2638092,-31.6564884,17.7404575,-35.4045792,0.4285599,1.1204807,10.6373835,-2.8931298,-6.8320613,-2.0000000
10,-0.5913648,1.5753766,15.0019913,-18.4961834,-4.6259542,-39.0228996,0.2777260,1.0462608,10.6230183,-3.3969467,-6.6641221,-2.3969467
20,0.0861908,1.5586174,15.0187502,2.4885497,-40.8396950,-47.7862587,0.2274480,0.9504932,10.6972389,-3.1755726,-6.9694657,-2.8320611
30,1.9009864,1.0654143,17.3267498,20.5038166,-50.1679382,-62.0916023,0.1771700,0.9121862,10.6972389,-3.5419848,-6.7404580,-2.2366412
40,0.2370248,1.9608412,17.9085369,42.2977104,-91.8702316,-76.6412201,0.1244979,0.8978211,10.7211800,-2.9236641,-6.3969464,-2.6335878
50,1.3766589,1.8578910,19.0864792,72.0916061,-143.7709961,-91.2748108,0.0814024,0.8379663,10.8001890,-2.4045801,-5.7480917,-2.6106870
60,2.0829449,1.6687500,19.6126022,101.2213745,-163.1221313,-107.6564865,0.0478838,0.8283895,10.8672256,-1.4580153,-5.2366414,-1.5038168
70,2.9640064,0.7709290,19.5413742,130.7557220,-167.1908417,-119.2137375,-0.0095768,0.7924767,10.7044210,-0.2900763,-5.1068702,-1.6793894
80,2.4277081,1.2018831,19.4695492,163.5572510,-216.8854980,-130.5572510,-0.0359128,0.7661406,10.7930059,0.4732825,-4.5954199,-0.9770992
90,3.4811516,1.5346755,19.1223907,198.2213745,-250.1374054,-154.9770966,-0.0047884,0.8068419,10.8361015,1.0687023,-4.0610685,-0.8473282
100,6.4738884,2.0805507,18.6938305,225.5267181,-250.1374054,-189.8244324,0.0885850,0.8283895,10.7020273,1.7099236,-3.6946564,-0.5572519
110,8.1570034,2.1356170,18.7560806,232.1679382,-250.1374054,-224.0152740,0.1388630,0.8379663,10.6852674,2.2442749,-3.8396947,-1.0152671
120,6.8210459,0.7374104,17.8582592,250.1297760,-250.1374054,-250.1374054,0.2729376,0.9002152,10.7427282,2.3282442,-3.7480917,-0.4809160
130,6.7444315,0.5817881,16.0745888,250.1297760,-250.1374054,-250.1374054,0.4261657,0.8954269,10.6182299,2.2061069,-3.5572519,-1.8854961
140,6.3781209,0.6488253,14.5327301,250.1297760,-250.1374054,-250.1374054,0.3902529,0.9552816,10.5823174,2.1908398,-3.6106870,-1.5572519
150,5.9423780,0.3854645,13.0938225,250.1297760,-250.1374054,-250.1374054,0.3950413,1.0941446,10.5559816,1.9770992,-3.5343511,-2.6335878
160,5.5233951,0.2082945,11.2072010,250.1297760,-250.1374054,-250.1374054,0.4213773,1.1180865,10.5248566,1.7404580,-3.3358779,-2.5038168
170,4.7859845,0.2274480,9.3780403,250.1297760,-250.1374054,-250.1374054,0.4788379,1.0797794,10.5248566,1.5267175,-3.1755726,-2.3664122
180,3.8330972,-0.2011119,7.7643566,250.1297760,-250.1374054,-250.1374054,0.4692611,1.1300575,10.6541433,1.0992366,-3.0152671,-2.3206108
190,2.4731977,-0.6129125,6.9910331,244.9694672,-250.1374054,-250.1374054,0.3926471,1.0869620,10.6038647,0.9618320,-2.9160306,-3.2977099
200,0.9792235,-1.1276633,7.2280579,226.9694672,-250.1374054,-250.1374054,0.3016679,1.0558375,10.5607700,0.4580153,-3.2290077,-3.5496182
210,-0.7302278,-1.4604555,7.6733770,212.8015289,-250.1374054,-250.1374054,0.2298422,0.9888002,10.5895004,-0.1984733,-4.3282442,-4.1068702
220,-1.4221486,-2.7533178,6.9479380,198.8320618,-250.1374054,-250.1374054,0.2011119,1.0318956,10.5751352,-1.1068702,-4.8473282,-4.5267177
230,-1.8507085,-3.2824337,7.3262196,189.0610657,-250.1374054,-250.1374054,0.1029501,0.9265513,10.5799236,-1.6641221,-5.0229006,-4.4656487
240,-1.6615674,-3.1555417,7.2543941,183.5038147,-250.1374054,-250.1374054,0.0790083,0.8475431,10.6158361,-2.0839694,-4.8320613,-4.5801525
250,-2.0709739,-2.0422437,6.5600791,174.4351196,-250.1374054,-250.1374054,0.0047884,0.8451489,10.7139978,-1.7328244,-5.2213740,-3.9007633
260,-2.7078283,-2.1356170,4.7931671,149.8244324,-200.8244324,-250.1374054,-0.0215477,0.7445929,10.6182299,-1.5801526,-5.0381680,-3.9236641
270,-4.6710634,-2.1739240,3.5050933,112.0076370,-144.0076294,-250.1374054,0.0191535,0.8810617,10.7738523,-0.9389313,-4.6183205,-3.1832061
280,-6.8832946,-2.7724714,3.9264708,78.5572510,-102.2213745,-250.1374054,-0.0023942,0.8140244,10.7786407,-0.1908397,-4.2137403,-2.8015268
290,-9.7395630,-3.4548154,4.2233500,60.2061081,-59.9083977,-250.1374054,0.0430954,0.8475431,10.7546988,0.5648855,-3.5877862,-2.3053436
300,-11.9589767,-3.8546450,3.9575951,46.6946564,-27.2824421,-250.1374054,0.0694315,0.8355721,10.7187862,0.8625954,-3.2977099,-1.7022901
310,-13.7522240,-3.2848279,3.2465210,36.8244286,1.2977099,-198.5648804,0.1651991,0.8714849,10.7331514,1.4732825,-3.1755726,-1.0000000
320,-14.5351238,-2.5857246,2.7030399,23.0610695,9.5190840,-143.6183167,0.2944853,1.0031654,10.8001890,1.6030535,-2.9618320,-0.2671756
330,-14.9948082,-2.0302727,2.4636209,4.9847326,25.2824421,-89.2748108,0.3687052,1.0390782,10.6493549,1.8320611,-2.5496182,-0.7938932
340,-15.8471403,-1.5921360,1.9488702,-16.3358784,62.7099228,-32.7480927,0.3519458,1.0534433,10.6014709,1.9541985,-3.0916030,-1.1297710
350,-17.4416695,-1.7717001,1.4006008,-41.7480927,109.2061081,30.0305347,0.5123565,1.1444225,10.5320396,1.6412214,-2.9770992,-1.1297710
360,-19.4264526,-1.8770446,1.1516051,-72.8396912,161.4274750,108.0839691,0.5578461,1.1779412,10.5966825,1.3969465,-2.9923663,-2.1374047
370,-19.6131992,-2.4827745,1.1827296,-102.6030502,210.7786255,199.4656525,0.4525018,1.1061156,10.4362717,0.8244275,-3.1297710,-2.4427481
380,-19.6131992,-3.4715748,1.6543850,-127.6870193,248.4351196,250.1297760,0.4572902,1.1348459,10.5679522,0.4732825,-3.2366412,-2.6183207
390,-19.6131992,-4.7452836,2.1404054,-147.5496216,250.1297760,250.1297760,0.4285599,1.0630201,10.5511932,-0.0992366,-3.2519083,-3.6488550
400,-19.6131992,-6.5193777,2.8586621,-172.1755676,250.1297760,250.1297760,0.3543400,1.0702027,10.4626083,-0.8015267,-3.9083970,-3.5572519
410,-19.6131992,-10.4937325,6.3254485,-194.2290039,250.1297760,250.1297760,0.2298422,0.9744351,10.6732969,-1.2671756,-4.4351144,-3.5267177
420,-19.6131992,-16.7377777,11.4514084,-198.5725250,250.1297760,250.1297760,0.1987177,0.9409165,10.6397781,-1.6946565,-4.3664122,-4.2137403
430,-13.5535069,-19.6131992,15.5813847,-181.0000000,250.1297760,250.1297760,0.0598547,0.8714849,10.6900558,-2.0305343,-4.5419846,-4.2213740
440,1.1061156,-19.6131992,16.2134514,-154.7175598,250.1297760,250.1297760,0.0071826,0.7996593,10.7259684,-2.0763359,-4.3816795,-3.7938931
450,19.6126022,-19.6131992,10.6086531,-153.7022858,250.1297760,250.1297760,-0.0502780,0.7733232,10.8217363,-1.4274809,-4.0152674,-3.7022901
460,19.6126022,-19.6131992,4.9799142,-214.8625946,250.1297760,250.1297760,-0.1053443,0.7302278,10.9222927,-0.4732825,-3.7786260,-4.0610685
470,19.6126022,-12.4617558,12.6365318,-250.1374054,250.1297760,250.1297760,-0.0550664,0.7613522,10.7355452,0.2671756,-3.5648854,-3.3435113
480,19.6126022,2.8969693,19.6126022,-250.1374054,250.1297760,250.1297760,-0.0646431,0.7852941,10.8408899,0.8854962,-3.4885497,-2.2213740
490,19.6126022,2.0350611,19.6126022,-141.5496216,250.1297760,172.5038147,0.0502780,0.8786675,10.8241301,1.6106870,-3.0458016,-1.8625954
500,19.6126022,1.0725969,19.6126022,103.6717529,-81.9083939,-93.3358765,0.1029501,0.9002152,10.7834291,2.2748091,-2.6412213,-1.8015267
510,16.5534267,-1.2521610,16.3259773,220.4503784,-250.1374054,-205.6870270,0.2418131,0.9409165,10.6637201,2.8015268,-2.1221373,-1.5190840
520,4.6543045,0.0239419,8.4826136,213.6488495,-250.1374054,-183.6259613,0.2346306,1.0295014,10.5990763,2.8549619,-2.0000000,-1.1832061
530,6.5696559,4.6303625,5.3988972,164.4274750,-250.1374054,-89.6793900,0.2873027,1.0725969,10.5320396,2.7480917,-2.2366412,-0.8931298
540,18.9907112,7.8577299,2.7341642,53.0458031,-44.7175560,-29.3129768,0.4213773,1.1563935,10.5847120,2.6412213,-2.4809160,-0.6641222
550,8.4012108,7.0437055,3.9456241,-18.6793900,210.3969421,-6.1374044,0.4141948,1.1635761,10.5176744,1.9618320,-2.8473282,-0.6870229
560,0.3160330,4.4771342,4.7596488,-23.7328243,212.4198456,51.0381660,0.5051740,1.2425843,10.4602137,1.0992366,-3.2519083,-1.4732825
570,1.7238164,4.8314743,5.3246775,-13.2366409,155.6106873,91.0152664,0.4884146,1.1899122,10.4075413,0.5648855,-3.5343511,-1.6793894
580,5.1499014,4.9631548,6.4020624,-4.2061067,113.2519073,107.6793900,0.4118006,1.1587877,10.4434547,-0.2748092,-3.8244274,-2.7099237
590,8.8848372,4.4627690,6.6127515,9.3816795,103.9847336,105.5877838,0.3567342,1.1085097,10.5535870,-0.9770992,-4.6946564,-3.1832061
600,11.3125448,4.6830344,5.6335278,19.5114498,129.6412201,89.3358765,0.3112446,1.0630201,10.5152798,-2.0305343,-5.2595420,-3.4656489
610,11.2694502,4.9320302,3.4596038,13.6030531,166.0229034,66.8931274,0.2489957,1.0127422,10.5655584,-2.8625953,-5.9694657,-3.8854961
620,10.0412302,4.7811961,2.1595588,-4.8778625,179.8015289,46.6259537,0.1364688,0.9169745,10.6685085,-3.2977099,-6.1984735,-4.3587785
630,9.0284882,4.2065907,1.8938038,-23.6488552,162.8396912,28.5267181,0.0071826,0.8475431,10.6517487,-3.2748091,-6.3282442,-3.9083970
640,8.1402445,3.5769191,2.3056045,-38.8015251,114.8167953,11.5343513,-0.0215477,0.7948709,10.8408899,-3.0839694,-6.3664122,-3.8244274
650,7.5440907,3.2082138,3.4979107,-47.5496178,50.6564903,-1.5877863,0.0167593,0.7996593,10.8648319,-2.4503818,-6.0916033,-4.3053436
660,7.7475972,3.1866663,5.2600341,-50.2442741,-6.7633586,-12.7404585,-0.0670373,0.7805058,10.8456783,-1.3740458,-5.4122138,-3.5114503
670,7.9223728,2.9256995,6.8689294,-48.6641235,-38.3816795,-20.9083977,0.0167593,0.7565638,10.8504667,-0.4198473,-5.1984735,-2.9083970
680,7.8601241,2.8658447,8.0444765,-43.0152664,-50.1068687,-25.5190830,0.0454896,0.7302278,10.7283630,0.2061069,-4.8015265,-2.2290077
690,7.4555058,2.5546002,8.6214762,-34.3358765,-36.8244286,-26.0687027,0.1412572,0.7996593,10.7618818,0.7480916,-4.2977099,-1.8167939
700,6.5672617,2.6527619,8.7723103,-26.3816795,-11.7404585,-19.9083977,0.1651991,0.7924767,10.8097658,1.5114504,-3.3969467,-1.6641221
710,6.1387019,2.6575503,8.3341732,-20.7099228,13.8167934,-11.4732828,0.2082945,0.8882443,10.7690639,1.9694656,-3.1145039,-2.1068702
720,5.6598639,2.4995339,7.1586266,-17.0000000,38.7328262,5.0000000,0.2896969,1.0247130,10.7259684,2.7328243,-3.0610688,-1.9389313
730,10.0891142,2.5761478,6.8856888,-148.3664093,103.4656525,54.8702278,0.2944853,0.9696468,10.6756907,-2.8549619,-7.3740458,-2.3969467
740,11.9709473,1.8698620,8.3269911,-173.3969421,127.2748108,48.4045792,0.1723816,0.8451489,10.7810354,-3.4732823,-7.8015265,-2.3587787
750,13.3380299,1.7238164,9.8616667,-190.3129730,147.4351196,33.6335869,0.1651991,0.7541697,10.7930059,-2.9083970,-7.4198475,-2.3816793
760,14.5806141,1.3814473,12.2271252,-192.6564941,155.3053436,8.7251911,0.1244979,0.7829000,10.9462337,-1.9083970,-6.7480917,-2.5954199
770,15.1671906,0.7158626,14.7314482,-174.9618378,139.3740387,-30.8778629,0.1412572,0.7781116,11.0013008,-0.3587786,-5.4503818,-1.9770992
780,15.4018211,0.2082945,16.6611652,-136.8396912,112.5877838,-77.6335907,0.1604107,0.8212070,11.0036945,1.3053435,-4.0610685,-2.1068702
790,15.5742025,-0.5339043,17.7313671,-83.7022934,73.2595444,-126.6106873,0.2298422,0.7876883,10.9701757,2.6641221,-3.2442749,-0.9847328
800,15.4425220,-1.0893562,18.6220055,-21.7328243,17.4351139,-182.0381622,0.2250538,0.7924767,10.7786407,3.8625953,-2.4122138,-1.4427481
810,14.9469252,-1.3120158,18.2628765,39.4961815,-56.0687027,-242.5877838,0.3519458,0.8858501,10.7355452,4.3893127,-2.2977099,-1.9389313
820,14.0060081,-1.9728121,16.9173431,91.7175598,-128.6793823,-250.1374054,0.3830703,0.9002152,10.5655584,4.5038166,-1.5114504,-2.3282442
830,13.3236647,-2.3702476,15.7274303,131.2824402,-190.9770966,-250.1374054,0.3734936,0.8954269,10.5703468,4.4045801,-3.0076337,-2.1450381
840,12.2295198,-2.9735832,14.4609041,159.7404633,-237.7862549,-250.1374054,0.3256098,0.9576758,10.5823174,3.6793892,-3.2366412,-3.5801528
850,10.6038647,-3.3087699,12.7658186,176.1374054,-250.1374054,-250.1374054,0.2873027,1.0773853,10.5727406,3.0610688,-3.7786260,-3.9007633
860,9.2439651,-3.3997490,11.5088692,182.3129730,-250.1374054,-250.1374054,0.3303981,1.1396341,10.5703468,2.1832061,-4.4122138,-3.9312978
870,7.6901364,-3.4811516,10.1489687,181.4198456,-250.1374054,-250.1374054,0.4022238,1.2377959,10.4410601,1.5801526,-4.2748094,-3.2671757
880,5.8585815,-3.6439564,8.7866755,173.6717529,-250.1374054,-250.1374054,0.3902529,1.2138541,10.5057030,1.2595420,-4.4351144,-3.5267177
890,4.3358769,-3.5146701,7.3357964,159.5038147,-242.8625946,-250.1374054,0.5027798,1.2354017,10.5847120,1.1221374,-4.1984735,-3.3893130
900,3.1507533,-3.3710186,6.2177100,140.6412201,-233.8854980,-250.1374054,0.4788379,1.2210367,10.5918941,0.9923664,-3.3816793,-3.8015268
910,2.8083842,-3.2680686,6.2847471,123.2595444,-228.4045868,-250.1374054,0.4668669,1.2186425,10.4266949,0.6412213,-3.3511450,-3.7328243
920,1.8818330,-2.6240315,6.3565731,109.3435135,-243.6641235,-250.1374054,0.4620786,1.1587877,10.6134415,0.0076336,-3.1603053,-3.9618320
930,1.6974803,-3.2608860,6.4307928,99.0076370,-250.1374054,-250.1374054,0.4620786,1.0917504,10.6373835,-0.8854962,-3.6030533,-4.7938933
940,1.4173602,-4.1060348,7.2687593,93.2137375,-250.1374054,-250.1374054,0.4453192,0.9672526,10.6756907,-1.2137405,-4.1374044,-5.2900763
950,-0.1388630,-4.0988522,8.4706421,95.4045792,-250.1374054,-250.1374054,0.2633608,0.9361281,10.6517487,-1.4961832,-4.5343513,-5.7938933
960,-2.2242019,-3.8259149,9.2726955,97.2519073,-250.1374054,-250.1374054,0.2322364,0.8834559,10.8456783,-0.9312977,-4.1297708,-5.5343513
970,-4.2257442,-3.5242469,9.7539282,95.2290039,-250.1374054,-250.1374054,0.1699875,0.8307837,10.7858238,0.0687023,-3.0839694,-6.4961834
980,-6.2847471,-2.5737536,10.1322098,90.9312973,-250.1374054,-250.1374054,0.0478838,0.8858501,10.9510221,1.8778626,-2.0916030,-5.6259542
990,-7.4746594,-1.2497669,10.0364418,86.1679382,-250.1374054,-250.1374054,-0.0430954,0.7948709,10.9198980,3.0763359,-2.6106870,-4.4580154
1000,-7.9989872,0.2944853,9.2176294,82.3435135,-234.8167877,-250.1374054,0.2226596,0.8020535,10.8265247,4.1068702,-1.9694656,-3.7251909
1010,-8.2647419,1.4580613,7.8625183,75.9770966,-167.9236603,-236.3129730,0.1221037,0.8331779,10.9318695,4.3435116,1.8778626,-4.9236641
1020,-8.1857338,2.2313845,5.8921003,64.0687027,-113.0839691,-185.1984711,-0.0383070,0.8451489,10.8576488,5.0000000,0.3358779,-4.7709923
1030,-7.9080076,2.6886747,4.5369892,47.2977104,-63.5267181,-140.7175598,-0.1292862,0.9576758,10.7379398,5.7328243,-1.0305344,-4.3587785
1040,-7.4650826,2.6599445,3.8785870,28.4503822,-20.9236641,-101.6183243,-0.0071826,1.0127422,10.5344334,5.8015265,-2.4961832,-2.9541984
1050,-7.6446471,2.0254843,4.0653338,-2.0916030,45.9083977,-26.5190830,0.2202654,0.9983770,10.4865494,4.0916033,-1.5725191,-1.5801526
1060,-9.0667953,1.8124014,4.3215117,-17.5190830,90.2213745,17.9923668,0.2633608,1.1204807,10.5009146,3.8244274,-1.3282443,-1.6412214
1070,-11.6573086,2.9735832,4.8745699,-31.6870232,152.2137451,74.8854980,0.3375807,1.1396341,10.6517487,3.7480917,-3.7633588,-1.4656489
1080,-14.7098999,3.5026991,5.7532372,-42.7175560,221.9541931,150.7022858,0.4405309,1.2784972,10.6206245,3.4427481,-3.2366412,-1.6412214
1090,-18.9619808,3.0597742,6.3829093,-55.8091621,250.1297760,250.1297760,0.3878587,1.1252691,10.5368280,3.2977099,-3.0152671,-2.5038168
1100,-19.6131992,1.4628497,7.2807302,-76.9160309,250.1297760,250.1297760,0.4668669,1.2162483,10.5176744,2.8167939,-2.6412213,-3.1297710
1110,-19.6131992,-3.6894460,8.6861191,-111.7938919,250.1297760,250.1297760,0.2801202,1.2401901,10.4506369,2.1603053,-1.9083970,-3.3358779
1120,-19.6131992,-6.9527264,10.8480721,-162.2977142,250.1297760,250.1297760,0.1795642,1.2401901,10.5487986,1.5114504,-1.4885496,-3.9618320
1130,-19.6131992,-17.0490227,13.1800127,-216.2977142,250.1297760,250.1297760,-0.0071826,1.2521610,10.4602137,0.7862595,-1.3816794,-3.2137403
1140,-16.1655674,-19.6131992,15.0642405,-244.5496216,250.1297760,250.1297760,0.0000000,1.1827296,10.6014709,0.5267175,-2.8549619,-3.0687022
1150,-2.8035958,-19.6131992,17.2884426,-214.0534363,250.1297760,250.1297760,0.3591284,1.0223188,10.4314833,-0.4503817,-5.8931298,-2.1450381
1160,13.5128050,-19.6131992,18.2317524,-124.9236679,106.0687027,250.1297760,0.2274480,1.0654143,10.5080976,-1.8167939,-1.5801526,-3.8625953
1170,19.6126022,-19.6131992,19.6126022,4.3053436,-82.5496216,250.1297760,-0.0718257,0.9720409,10.7068148,-1.6335878,-2.4427481,-5.4885497
1180,19.6126022,-16.3116131,19.6126022,163.3740387,-204.3740387,250.1297760,-0.2274480,0.9409165,10.7331514,-1.1450381,-4.8396945,-4.9541984
1190,19.6126022,11.1162214,13.5439301,250.1297760,-250.1374054,250.1297760,-0.2992737,1.0175306,10.7666702,-1.0305344,-6.0000000,-3.3511450
1200,19.6126022,7.1083484,-6.9503322,250.1297760,-250.1374054,-121.7099228,-0.1364688,0.9624642,10.7546988,-0.5877863,-5.9465647,-2.3664122
1210,19.6126022,2.6288199,-14.9948082,162.2595367,-250.1374054,-250.1374054,-0.0837966,0.9576758,10.7714586,-0.5877863,-4.7557254,-1.8473282
1220,13.6899757,0.6224893,-10.1609402,24.7938938,-250.1374054,-250.1374054,-0.1723816,1.0055596,10.7187862,-0.4427481,-5.1679387,-1.6106870
1230,8.5089493,0.5171449,-1.3144100,-50.8167953,-250.1374054,-162.5419922,-0.0933734,0.9792235,10.6637201,-0.5114504,-6.6106873,-0.1145038
1240,6.7827387,2.2194135,2.7341642,-70.2366409,-23.9847336,-59.2290077,-0.0167593,1.0510491,10.6589317,-0.5801527,-5.2824426,0.9618320
1250,6.5337429,4.3310885,3.7421181,-67.2366409,155.0763397,16.3206100,0.1340746,1.0031654,10.6445665,-0.2595420,-4.7404580,1.9465649
1260,6.2129216,5.5736732,3.3351059,-63.3740463,250.1297760,59.7709923,0.2202654,1.0366840,10.6637201,-0.5038168,-4.6335878,1.8091604
1270,6.1410961,5.8657641,3.3015873,-58.9847336,250.1297760,87.1679382,0.2489957,1.0318956,10.7068148,-0.3893130,-4.4122138,0.4732825
1280,6.6319046,5.3605900,3.3446827,-51.7251892,250.1297760,103.4274826,0.2513899,1.0630201,10.6661139,-0.3740458,-4.8549619,0.1755725
1290,6.5193777,4.8123207,3.2872221,-43.0916023,250.1297760,110.5954208,0.2585725,1.0510491,10.6780853,-0.0152672,-4.5267177,-0.1221374
1300,6.3829093,4.1036406,3.0597742,-35.3587799,250.1297760,114.7480927,0.2825144,1.0247130,10.8097658,0.2900763,-3.3587787,-0.3587786
1310,7.2903070,3.8187323,2.6503677,-30.7480907,244.2824402,112.8396912,0.2801202,1.0845678,10.7546988,0.9923664,-2.7022901,-0.2366412
1320,8.9422979,4.0461802,2.8730273,-26.6412220,164.9236603,96.8244247,0.3160330,1.1731528,10.7187862,1.8625954,-2.8778627,-0.6564885
1330,10.3668404,4.1443419,3.4404502,-20.9618320,85.7633591,69.2748108,0.3974355,1.1803354,10.8791971,2.5496182,-2.8320611,-1.0610687
1340,11.0396080,3.8091555,4.0294209,-12.6793890,20.3435116,40.4045792,0.4453192,1.1180865,10.7666702,2.8549619,-3.3587787,-0.9923664
1350,10.9893293,3.3877780,3.9959023,-6.1374044,-30.2977104,16.2748089,0.3615226,1.1539993,10.8217363,3.1908398,-3.6564887,-1.3435115
1360,11.2311430,3.4763632,3.7780309,-8.9541988,-64.7862625,-2.3587787,0.2274480,1.2210367,10.6493549,3.8320611,-4.9389315,-2.5343511
1370,11.6405487,3.2752512,3.9623835,-20.8778629,-25.3511448,-3.7022901,0.0430954,1.2306134,10.5416164,3.4809160,-5.3740458,-2.3664122
1380,10.9869356,3.3231349,4.6997938,-34.6870232,23.5877857,-0.0305344,0.0407012,1.1444225,10.6302013,3.2977099,-5.3435116,-1.5190840
1390,8.2407999,2.7916248,6.3110833,-48.3435097,131.6564941,51.1832047,0.6847382,1.1013272,10.6493549,3.5343511,-1.8244275,-2.0687022
1400,8.9422979,2.8395088,6.5193777,-52.3358765,138.5419922,57.9541969,0.6775556,1.1156923,10.5966825,3.8244274,-0.9923664,-3.6641221
1410,9.7682934,2.6623387,6.6726060,-57.7557259,137.1221313,59.3969460,0.6584021,1.1970947,10.5607700,3.6793892,-0.9770992,-5.6183205
1420,10.7618818,2.8969693,6.9934273,-64.0152664,123.3282471,54.9007645,0.4644727,1.3239868,10.5272512,3.2671757,-1.2900764,-5.8854961
1430,11.9182749,3.3470769,7.5273318,-70.7175598,99.1755753,43.0534363,0.4548960,1.3479286,10.4602137,2.3435113,-1.6412214,-6.4122138
1440,13.9820662,2.9161227,8.0133524,-75.8396912,70.0000000,21.4274807,0.2920911,1.3982066,10.2614956,1.2290076,-1.7862595,-6.4503818
1450,15.7250366,2.5474176,8.6166878,-77.0992355,53.8702278,-6.5114503,0.2849085,1.4389079,10.3620520,0.4809160,-1.2671756,-5.9465647
1460,16.2996426,2.3846128,8.9686337,-77.0839691,43.2137413,-34.0076332,0.3256098,1.3575054,10.4123297,-0.9236641,-0.2977099,-5.8931298
1470,17.1639442,1.6232605,9.5216913,-74.8396912,34.7099228,-66.4732819,0.3351865,1.2856797,10.3572636,-2.0763359,-0.3511450,-6.1297708
1480,17.0753593,1.4891858,10.3835993,-66.8015289,20.3435116,-104.4732819,0.3064562,1.2066715,10.4985209,-3.0687022,-2.3587787,-6.7557254
1490,17.0155048,1.3958124,11.0013008,-54.1297722,-1.5725191,-143.6564941,0.5386927,1.0678085,10.5128860,-4.6488547,-4.0610685,-8.1908398
1500,16.8335457,1.1683644,11.9422169,-33.6793900,-26.0992374,-186.9236603,0.2466015,1.0031654,10.7546988,-5.4274807,-2.7328243,-10.5267172
1510,16.2373924,0.5362985,12.5479469,-4.4122138,-62.8015251,-233.7786255,0.0191535,0.8786675,10.9582052,-4.5954199,-6.5419846,-11.4122133
1520,14.8176384,0.0622489,12.7011747,30.9465656,-109.9083939,-250.1374054,0.0167593,0.8092360,10.8337069,-3.7633588,-7.9160304,-11.2977095
1530,12.8567972,-0.3567342,11.7770176,62.6793900,-155.7786255,-250.1374054,-0.1699875,0.8188128,10.9677820,-2.6106870,-3.1679389,-12.6183205
1540,11.3197279,-0.5003856,10.2423429,87.6870193,-187.7022858,-250.1374054,-0.2657550,0.7709290,10.9414454,-0.5343512,-2.6564887,-11.6488552
1550,9.7802639,-0.6584021,8.7531567,104.0839691,-204.5190887,-250.1374054,-0.6512195,0.7541697,10.9677820,1.0305344,-2.0458016,-10.5648851
1560,8.2192526,-0.4716553,7.5512733,109.9389343,-212.3053436,-250.1374054,-0.7445929,0.8379663,10.8073711,2.2213740,-2.9847329,-8.0992365
1570,6.6797886,-0.2154770,6.2536230,108.4580154,-213.1450348,-250.1374054,-0.7062859,0.8643024,10.7762470,2.9465649,-3.3816793,-5.0381680
1580,5.6071916,0.2561783,5.2193332,101.0839691,-211.1908417,-250.1374054,-0.6057299,0.8379663,10.6302013,2.7175572,-2.8854961,-1.7786260
1590,4.6207857,0.5171449,4.2520804,86.8702316,-211.0152740,-250.1374054,-0.2681492,0.8738791,10.6589317,2.5038168,-2.3358779,-0.0229008
1600,3.3901722,0.6655847,3.8761928,71.6564865,-218.6564941,-250.1374054,-0.1388630,0.9696468,10.5823174,2.3511450,-2.2900763,0.1297710
1610,3.2513094,1.5394639,3.9791429,55.8702278,-228.7786255,-250.1374054,-0.0239419,1.0534433,10.6732969,2.2595420,-2.7938931,0.2519084
1620,3.7828193,2.0206959,4.4771342,42.1297722,-230.9236603,-250.1374054,0.0718257,1.1420283,10.6804790,2.1526718,-3.9007633,0.6641222
1630,4.1299767,2.4851687,4.5872669,30.5114498,-220.7557220,-250.1374054,0.1699875,1.2952565,10.6397781,2.0992367,-4.7099237,1.0610687
1640,3.9408360,2.9975252,5.1283536,20.0152664,-204.9541931,-250.1374054,0.1987177,1.4006008,10.6397781,2.2061069,-5.4427481,1.1297710
1650,3.3638363,2.7485294,5.2624283,11.7022905,-186.2519073,-250.1374054,0.3519458,1.4508789,10.5583754,2.6717558,-4.4122138,1.3969465
1660,2.3894010,2.5474176,5.2720051,4.8091602,-174.6946564,-250.1374054,0.3375807,1.4891858,10.5009146,2.3129771,-4.3969464,2.0229008
1670,1.5131277,2.4372849,5.4491754,-0.6717557,-164.7862549,-250.1374054,0.4429250,1.5634058,10.4985209,1.9312977,-4.5877862,2.2213740
1680,0.4094064,2.4827745,5.4180508,-5.8473282,-148.2061005,-250.1374054,0.4094064,1.4843974,10.5918941,1.2519084,-4.3893127,1.4656489
1690,-0.8236012,2.4755919,5.4084740,-10.0381680,-128.1145020,-250.1374054,0.5626345,1.4173602,10.4841557,0.3664122,-5.4351144,1.2824427
1700,-1.8219782,2.4396791,5.9782910,-10.9923668,-110.3969498,-250.1374054,0.5195391,1.3838415,10.5057030,-0.3511450,-5.3740458,0.5725191
1710,-3.0525916,2.7988074,6.2871413,-7.5496182,-94.8931274,-229.7557220,0.5051740,1.2234308,10.5918941,-0.6030535,-5.1908398,-0.4580153
1720,-4.1060348,3.4452386,6.1746144,-0.5648855,-73.4122162,-201.4045868,0.4908088,1.1492109,10.6637201,-0.7022901,-5.5190840,-1.4732825
1730,-4.6207857,3.8881636,5.9495606,4.3587785,-53.6717567,-170.3969421,0.4022238,1.1061156,10.8911676,-0.6946565,-5.2519083,-2.7099237
1740,-4.7285242,4.0413918,5.5856438,8.4885492,-28.0000000,-141.8015289,0.1843526,0.9935886,10.7618818,-0.0381679,-5.3664122,-2.6717558
1750,-5.0062504,4.1323709,5.1666608,10.7480917,1.4961832,-115.6870193,0.1675933,1.0199248,10.8552551,0.6641222,-5.6030536,-3.2748091
1760,-5.8897061,4.3430595,4.9176650,11.2900763,30.1984730,-87.3282471,0.1029501,0.9888002,10.8815908,1.5725191,-4.9160304,-3.2290077
1770,-6.7947097,4.6638808,4.3263001,11.0992365,54.7099228,-57.0152664,0.0622489,1.0295014,10.8384953,2.8320611,-3.8854961,-2.5648854
1780,-9.0548248,5.6526814,3.6080434,6.3511453,93.0916061,28.6641216,0.0981618,1.1180865,10.7044210,4.8320613,-2.8244274,-1.0534351
1790,-9.2224178,5.0732875,4.0461802,3.3816793,138.3435059,133.1755676,0.1340746,1.2354017,10.4865494,4.2366414,-3.2290077,-0.8854962
1800,-9.2080526,4.5465660,3.9791429,0.4885496,184.4580078,191.7709961,0.2011119,1.3072275,10.4554253,3.2900763,-3.7251909,-1.5877863
1810,-9.5001440,3.7373297,3.7397239,-10.6259546,243.7328186,250.1297760,0.1963235,1.2856797,10.4051476,2.4427481,-4.3358779,-2.1221373
1820,-10.2375546,2.2457497,3.9480183,-33.5877876,250.1297760,250.1297760,0.2298422,1.2617378,10.4123297,1.3282443,-4.6946564,-2.8167939
1830,-11.5998478,-0.0766141,5.2480631,-68.8778610,250.1297760,250.1297760,0.1747758,1.2258250,10.4123297,0.4274809,-4.8549619,-2.5877862
1840,-11.6812506,-2.7820482,7.0604649,-111.1603088,250.1297760,250.1297760,0.1340746,1.2904681,10.4147243,-0.6412213,-5.2290077,-3.1984732
1850,-11.0970678,-7.9080076,9.7898407,-148.5343475,250.1297760,250.1297760,0.1268920,1.3215926,10.4650021,-1.6259542,-5.0229006,-2.7709923
1860,-9.6964674,-14.9181948,13.3500004,-159.8015289,250.1297760,250.1297760,0.1604107,1.1947005,10.6421719,-1.9694656,-5.1068702,-2.5725191
1870,-5.1594782,-19.6131992,15.6747580,-151.0839691,250.1297760,250.1297760,0.2394189,1.1444225,10.5966825,-1.9007634,-3.9389312,-1.6870229
1880,2.7317703,-19.6131992,17.4464588,-126.6870193,250.1297760,250.1297760,0.1149211,1.0917504,10.7738523,-1.5954199,-2.3282442,-2.3053436
1890,14.9253769,-19.6131992,18.9835281,-91.6259537,250.1297760,250.1297760,0.0933734,1.0845678,10.8815908,-0.7938932,-2.5725191,-2.8244274
1900,19.6126022,-19.6131992,19.6126022,-38.8702278,250.1297760,250.1297760,0.0215477,1.0486550,10.8911676,0.6259542,-3.2900763,-2.3282442
1910,19.6126022,-9.0141230,19.6126022,31.4427490,250.1297760,250.1297760,0.2130829,1.0869620,10.8744087,1.6412214,-3.5419848,-2.6793892
1920,19.6126022,7.4650826,19.6126022,102.9847336,171.5648804,250.1297760,0.1723816,1.0749911,10.8145542,2.4122138,-3.5877862,-3.0839694
1930,19.6126022,7.7859039,13.7091284,162.8396912,-9.6564884,21.4732819,0.1939293,1.1037214,10.8576488,3.4503818,-3.3969467,-3.2137403
1940,19.6126022,4.1587071,3.4189026,171.5267181,-225.1297760,-148.4122162,0.1867468,1.1755470,10.6661139,4.4198475,-3.0763359,-3.0229008
1950,13.0363617,3.6798692,-0.2609667,128.7557220,-250.1374054,-207.7022858,0.2035061,1.2354017,10.5895004,4.7175574,-2.5190840,-2.9236641
1960,6.5696559,3.6774750,1.0773853,76.7328262,-250.1374054,-192.4351196,0.2633608,1.2904681,10.3979645,4.7633586,-1.7633588,-2.6641221
1970,6.2847471,3.8570392,3.2489152,51.3740463,-250.1374054,-136.9084015,0.2896969,1.3311694,10.3452930,3.6946564,-1.6335878,-2.6946564
1980,8.1067257,4.8817525,4.0820932,47.9007645,-250.1374054,-77.7175598,0.1723816,1.3790531,10.2686787,2.1221373,-1.7480916,-2.6030533
1990,10.1465750,6.2440462,3.0023136,44.6259537,-181.8702240,-22.9236641,0.2130829,1.4149660,10.1322098,0.0305344,-2.4274809,-2.8702290
2000,11.9685535,6.9120250,1.2114599,28.1221371,-25.3587780,15.4503813,0.1508339,1.4053892,10.1202393,-2.4198472,-3.3053436,-2.8931298
2010,12.7562418,7.0149751,-0.0143651,0.0992366,108.7557220,34.5496178,0.1556223,1.3383518,10.1872759,-4.2519083,-3.8854961,-2.7480917
2020,12.5503407,6.8569584,-0.5243275,-31.3511448,200.5801544,37.6946564,0.0526722,1.2521610,10.3596573,-5.6870227,-4.2671757,-2.7938931
2030,11.3125448,6.3517847,-0.0359128,-58.4045792,249.6412201,34.4351158,0.0383070,1.1994889,10.5775290,-6.5725193,-4.6030536,-3.0458016
2040,10.1034794,5.7412663,0.9816177,-74.6335907,250.1297760,33.4198456,0.1125269,1.1300575,10.8217363,-6.5801525,-5.4580154,-3.1755726
2050,9.1051025,5.2265158,1.9512644,-83.4885483,250.1297760,31.2595425,0.1005560,1.0725969,11.0036945,-5.7099237,-5.9694657,-3.1068702
2060,8.4419117,4.8913293,2.9209111,-86.3435135,221.3282471,25.2213745,0.1484398,1.0654143,10.9917240,-4.4045801,-6.0839696,-3.3511450
2070,8.0181408,4.6926112,3.8259149,-84.4580154,173.5877838,15.1068707,0.1771700,1.0558375,11.0635490,-2.5114503,-5.6335878,-3.8015268
2080,7.7859039,4.4891052,4.7093706,-79.1297684,118.9389343,2.8320611,0.2274480,1.0342898,10.8648319,-0.7251908,-4.6335878,-3.6259542
2090,7.7212610,4.1658897,5.6526814,-70.7022934,60.0687027,-11.9083967,0.2394189,1.0486550,10.7092094,0.6870229,-3.3587787,-3.6335878
2100,7.3214312,3.6439564,7.1131368,-48.6030540,-40.3969460,-39.4122124,0.1556223,1.0558375,10.6685085,1.7328244,-1.7480916,-2.8778627
2110,7.0389171,3.5266411,7.5967631,-37.2290077,-70.6106873,-47.4809151,0.2418131,1.1468167,10.5679522,1.5572519,-1.0458015,-3.6793892
2120,6.7468257,3.2584918,7.7643566,-25.9541988,-85.5648880,-50.1832047,0.1915352,1.1420283,10.7163916,1.2824427,-0.5267175,-4.0076337
2130,6.6414814,3.1962428,7.6350703,-15.8931293,-90.8244247,-48.6488533,0.2130829,1.1348459,10.5368280,0.9160305,-0.0152672,-4.5877862
2140,6.7085190,3.0956869,7.1801744,-4.4045801,-75.4809189,-36.9694672,0.1125269,1.2904681,10.6685085,0.9541985,-0.1450382,-3.9770992
2150,6.9718795,3.2608860,6.5241661,-5.0076337,-58.2977104,-29.2671757,0.1244979,1.3646880,10.6517487,1.0381680,-0.6106870,-3.5343511
2160,7.6159167,3.4428444,6.0357518,-11.4503813,-39.5801544,-22.9465656,0.2035061,1.3838415,10.6254129,1.3129771,-1.6259542,-3.3282442
2170,8.2910776,3.5386121,5.8202744,-20.6793900,-13.0152674,-19.2900772,0.2011119,1.3862357,10.5464048,1.2824427,-2.8244274,-3.1221373
2180,8.6071110,3.6511390,5.7412663,-31.2290077,13.8778629,-17.8396950,0.1077385,1.4365137,10.4578199,0.8778626,-3.8091602,-2.8854961
2190,9.0979195,3.7708483,5.4372044,-41.4427490,36.9160309,-19.8931293,0.0215477,1.4029950,10.3405046,0.1221374,-5.2290077,-3.3587787
2200,9.3995876,3.8474624,5.1810260,-51.6641235,58.8702278,-26.0152664,-0.0215477,1.3670821,10.4338779,-1.5725191,-6.6030536,-2.2671757
2210,8.8944139,3.6511390,5.1307478,-61.6717567,76.8931274,-33.1603050,0.0071826,1.3168042,10.3764172,-3.0839694,-7.3664122,-1.3053435
2220,8.0013809,3.3710186,5.2767935,-70.7022934,84.0152664,-40.2366409,0.0191535,1.2138541,10.4961262,-4.5572519,-7.2213740,-1.0687023
2230,7.2328463,3.0861101,5.7867560,-77.0916061,79.0992355,-46.2748108,0.1340746,1.0127422,10.6541433,-4.6870227,-7.1755724,-0.0992366
2240,6.5624733,2.7150109,6.2440462,-78.5038147,65.6335907,-51.2061081,0.2370248,1.0007712,10.7690639,-4.1450381,-6.5038166,-0.5954198
2250,6.0477223,2.5067163,6.8401995,-75.5343475,50.8320618,-54.0305328,0.2442073,0.9002152,10.8839855,-2.7633588,-5.4732823,-1.1145039
2260,5.6119800,2.5115047,7.1011658,-70.0305328,37.3053436,-55.3893127,0.1364688,0.7805058,10.9222927,-1.4427481,-3.8625953,-1.9923664
2270,5.3414369,2.5067163,7.5273318,-63.8167953,24.6488552,-56.2213745,-0.0023942,0.8571198,10.9749641,0.1832061,-2.9312978,-2.3435113
2280,5.0780759,2.3798244,7.4794478,-57.2748108,15.2366409,-55.2824440,-0.0790083,0.8834559,11.0036945,1.7175573,-2.4274809,-2.4732823
2290,4.7764082,2.3774302,7.5584559,-51.5496178,9.3053436,-52.2366409,-0.1388630,0.9720409,10.8552551,2.3587787,-2.0839694,-1.4961832
2300,4.4843168,2.4396791,7.6853480,-46.5801544,5.7786260,-47.1755714,-0.1388630,1.1109039,10.6349897,2.8702290,-1.7557251,-1.0992366
2310,4.0773048,2.3606708,7.7835097,-39.3511467,3.7862597,-31.8091602,0.1149211,1.2282192,10.4721851,2.1450381,-1.6412214,1.1603054
2320,4.1634955,2.4324965,8.0923605,-37.1297722,3.5954199,-23.6641216,0.2370248,1.3144100,10.4434547,1.4732825,-1.4045801,1.1068702
2330,4.2425036,2.2218077,8.3772688,-33.2824440,2.8091602,-15.6335878,0.3663110,1.4269369,10.4961262,1.0229008,-2.3664122,1.1450381
2340,4.2664456,2.2625091,8.5688038,-28.7175579,1.8778626,-7.2977099,0.5410868,1.4269369,10.4913378,0.4580153,-3.7938931,-0.0916031
2350,4.9344244,2.3606708,8.8010406,-17.9160309,0.6564885,5.7175574,0.6751614,1.4628497,10.5918941,-1.0229008,-5.0992365,-3.1145039
2360,5.2720051,2.2696917,8.8201942,-12.3206110,0.7022901,9.6946564,0.6392486,1.3670821,10.5942879,-1.0229008,-4.6412215,-4.6641221
2370,5.6598639,2.3199697,8.6214762,-7.3206105,1.4198474,12.3282442,0.4501076,1.3598996,10.4985209,-1.3511450,-4.4809160,-5.9541984
2380,6.0261750,2.4229198,8.0995426,-4.1755724,0.8015267,14.0992365,0.3830703,1.2473727,10.5009146,-1.6870229,-4.3129773,-6.1984735
2390,6.3302369,2.5546002,7.9487090,-3.6717558,0.3969466,14.9465647,0.2489957,1.1851238,10.5655584,-1.9236641,-4.2442746,-6.5419846
2400,7.1155310,2.9783716,7.9439206,-5.7175574,1.7938931,13.1526718,0.0047884,0.9313397,10.6278067,-2.8931298,-4.2671757,-6.7480917
2410,7.2663651,3.7133877,7.6135225,-13.4274807,6.9007635,10.4122133,-0.3088504,0.9241571,10.7451220,-3.0000000,-4.7786260,-5.3664122
2420,7.2759418,3.9959023,8.0277176,-16.7328243,-3.1297710,12.2061071,-0.3136388,0.8643024,10.7044210,-2.6717558,-4.5114503,-4.5190840
2430,8.1474266,3.9982965,8.1019373,-19.2061062,-18.4198475,15.9847326,-0.2801202,0.8259954,10.8696203,-2.2290077,-4.5877862,-3.5038168
2440,11.0013008,3.9288650,8.4826136,-19.9389305,-47.5038185,18.3816795,-0.2513899,0.9313397,10.8672256,-1.2977099,-4.3511453,-3.2519083
2450,16.8143921,4.7165532,10.1369982,-16.2977104,-98.0534363,3.2290077,-0.1029501,0.9935886,10.9055328,-0.2977099,-3.9465649,-2.7404580
2460,19.6126022,5.7412663,12.7490587,-0.8549618,-154.7480927,-50.4961815,0.0143651,1.0342898,10.8480721,0.6946565,-3.0534351,-1.4961832
2470,19.6126022,6.1243367,15.0690289,25.0687027,-203.4580078,-141.6564941,0.0502780,1.0893562,10.8121595,1.7099236,-2.5572519,-1.9007634
2480,19.6126022,5.5952206,16.2230282,54.4885483,-250.1374054,-250.1374054,0.1580165,1.1875180,10.7427282,2.4961832,-1.8167939,-1.6335878
2490,19.6126022,4.0174499,16.4815998,80.0305328,-250.1374054,-250.1374054,0.3399749,1.2114599,10.5799236,2.1908398,-2.2061069,-1.4427481
2500,19.6126022,1.2569494,15.0019913,104.4732819,-250.1374054,-250.1374054,0.5003856,1.1132981,10.7762470,1.2137405,-2.1679389,-3.3206108
2510,19.6126022,-0.7709290,13.0411501,121.8320618,-250.1374054,-250.1374054,0.9145803,1.0390782,10.8241301,2.0458016,-2.3587787,-10.6641226
2520,18.8374825,-2.9999194,10.2160063,127.6335907,-250.1374054,-250.1374054,0.9528874,1.1132981,11.0611553,4.5496182,-3.4809160,-18.0458012
2530,13.6516685,-4.2329268,7.6901364,115.8931274,-250.1374054,-250.1374054,0.4333483,1.1132981,11.3340931,8.4122133,4.1908398,-18.1908398
2540,10.3979645,-5.8442163,6.9455438,91.6488571,-250.1374054,-250.1374054,0.4453192,0.8882443,13.3619709,14.3435116,58.2824440,-6.5648856
2550,7.9941988,-6.6558466,6.9646969,59.7938919,-250.1374054,-250.1374054,-0.5674229,0.0957676,17.5661678,34.1679382,125.5725174,10.9847326
2560,6.0237808,-8.0684185,6.8856888,27.0076332,-250.1374054,-250.1374054,-1.2569494,0.1604107,19.6126022,79.1374054,173.1221313,28.1450386
2570,4.2951760,-10.2806492,6.3805151,-10.4656487,-250.1374054,-250.1374054,-1.8531027,-0.7493813,19.6126022,149.6412201,209.8396912,40.5572510
2580,1.4460905,-12.0810804,6.8928714,-60.1145020,-250.1374054,-250.1374054,-2.3726418,-1.2832855,19.6126022,227.1068726,239.5801544,52.0000000
2590,-1.5777708,-13.2949343,7.7092900,-98.3969498,-171.1755676,-250.1374054,-1.9057748,-1.3575054,19.6126022,250.1297760,250.0305328,63.1603050
2600,-5.3031297,-14.0371332,9.0811605,-124.0457993,-85.0992355,-250.1374054,-0.9720409,-1.1851238,19.4695492,250.1297760,250.1297760,70.1068726
2610,-10.5392218,-13.3236647,11.3676119,-133.0229034,-0.1832061,-250.1374054,-0.5841822,-1.2114599,16.4408989,250.1297760,250.1297760,71.5419846
2620,-16.2373924,-11.8775740,13.4960461,-115.5725174,90.5038147,-250.1374054,-0.5051740,-0.9313397,13.8192616,250.1297760,244.9160309,69.7328262
2630,-19.6131992,-9.3924055,14.1329002,-84.3511429,169.5648804,-196.1526642,-0.1628049,-0.3136388,10.9055328,250.1297760,227.9313049,68.4274826
2640,-19.6131992,-6.4595232,15.0067797,-50.7251892,213.3893127,-42.9083977,1.1611819,0.8523315,7.2400289,250.1297760,228.8473358,46.0305328
2650,-19.6131992,-4.4340386,16.5199070,-3.0076337,228.1908417,136.0076294,-1.5586174,0.6081241,4.9751258,250.1297760,179.8702240,44.2595406
2660,-19.6131992,-5.0780759,15.3156300,62.2977104,233.6488495,250.1297760,-4.4244623,1.3144100,3.4739690,250.1297760,118.0763321,55.1755714
2670,-19.6131992,-7.8457589,11.2550850,113.6641235,239.9541931,250.1297760,-5.0637107,3.3901722,2.7413468,250.1297760,67.0305328,68.3816757
2680,-19.6131992,-11.0276365,5.5640965,131.9465637,224.3664093,250.1297760,-4.5106530,4.2855992,1.8722562,242.6870270,22.4045811,74.9923630
2690,-13.6444855,-16.3810444,2.1164634,122.8931274,185.7328186,250.1297760,-4.0509686,4.4579806,1.7645177,210.7480927,-16.1755733,80.4351120
2700,-7.4866304,-19.6131992,1.9225341,130.4198456,111.9542007,250.1297760,-3.1028695,4.7668314,1.6998745,184.2748108,-49.7862587,82.5114517
2710,-1.5801650,-19.6131992,2.2265961,155.8396912,75.8320618,250.1297760,-1.9368993,5.0684991,1.5083394,162.3587799,-76.9465637,79.2900772
2720,6.2464404,-19.6131992,1.9440818,145.6641235,112.2900772,250.1297760,-0.8475431,5.4419928,1.4413021,144.6717529,-95.0763321,71.0839691
2730,19.6126022,-19.6131992,8.6071110,168.0076294,120.1526718,250.1297760,-0.0502780,5.9351954,1.1923064,130.6564941,-104.9389343,58.5496178
2740,19.6126022,-19.6131992,7.2639709,214.1297760,232.5190887,250.1297760,0.7086801,6.6342988,0.4333483,117.4274826,-103.4122162,44.9923668
2750,19.6126022,-5.1020179,3.8642218,226.9160309,250.1297760,250.1297760,0.6727672,7.5464849,-0.4884146,101.0000000,-100.3435135,30.8167934
2760,19.6126022,10.1920643,-5.1834202,218.6717529,250.1297760,250.1297760,0.1460456,8.0684185,-0.7589580,80.7938919,-95.4045792,18.6488552
2770,19.6126022,8.4586716,-17.8175583,149.6870270,250.1297760,11.6870232,-0.8595140,8.3006544,-0.5147507,60.7022896,-94.8778610,9.4198475
2780,19.6126022,5.0684991,-17.6140518,25.5114498,-192.4198456,-234.6564941,-1.7070571,8.5759869,-0.5171449,41.5419846,-107.3740463,2.9312978
2790,17.1304264,0.6200951,-5.7412663,-48.5114517,-250.1374054,-250.1374054,-2.3223639,9.3397331,-1.2138541,16.5496178,-136.2977142,-0.7328244
2800,15.1217003,1.5418580,3.3758070,-50.4580154,-250.1374054,-209.2595367,-2.5162930,9.5863342,-1.6639616,-15.3740454,-177.3969421,-3.5877862
2810,12.9166517,3.9671719,5.5186067,-24.9236641,-190.6106873,-127.0916061,-2.5234756,9.2152348,-1.8004304,-54.3511467,-224.8320618,-8.4503813
2820,8.4562769,5.7245069,3.2058196,-24.4274807,115.2519073,-45.8473282,-2.3870070,8.8225880,-1.2569494,-91.6717529,-250.1374054,-11.4503813
2830,5.1858144,5.7173243,1.2521610,-37.8091621,250.1297760,14.4274807,-1.7836711,8.4131813,-1.0127422,-122.4503784,-250.1374054,-14.0763359
2840,5.1068063,5.3246775,1.1779412,-43.1603050,250.1297760,51.9847336,-0.9409165,7.8170285,-1.3670821,-150.1679382,-250.1374054,-14.0458012
2850,5.6766233,4.5729017,0.9313397,-39.3893127,250.1297760,77.0229034,-0.3375807,7.1083484,-1.4269369,-179.7633514,-250.1374054,-12.2442751
2860,6.8066807,4.4053087,1.2330076,-34.2213745,250.1297760,94.2824402,0.3375807,6.6534524,-1.1970947,-208.6564941,-250.1374054,-9.3969469
2870,8.4467001,4.5537481,1.4029950,-31.8778629,250.1297760,96.7633591,0.9409165,6.3110833,-0.9768293,-236.2366486,-250.1374054,-5.1526718
2880,10.0651722,4.4771342,1.3024391,-31.3053436,192.3053436,80.1145020,1.2138541,6.0405402,-0.2849085,-250.1374054,-250.1374054,1.4122137
2890,10.9342632,4.2903876,1.9129574,-31.2366409,117.3053436,50.0000000,1.2928623,5.6550756,0.9840119,-250.1374054,-250.1374054,10.7251911
2900,10.8361015,3.2082138,2.7030399,-28.4045811,50.9007645,17.3358784,1.5442522,5.2025738,2.3032103,-250.1374054,-250.1374054,24.3206100
2910,10.8432837,3.8618276,3.0837159,-20.8473282,8.7328243,-8.0458012,2.0949159,4.4053087,3.6966286,-250.1374054,-250.1374054,38.0076332
2920,10.0125008,3.3351059,3.2369442,-16.7557259,-17.8702297,-29.2519093,2.7892308,3.8354914,5.0565281,-250.1374054,-219.4045868,49.9923668
2930,8.9087791,2.8131726,3.2848279,-14.8473282,-35.1221390,-43.5267181,3.5122759,3.3087699,6.1794028,-250.1374054,-169.6259613,59.8625946
2940,7.9678626,2.8371146,3.7325413,-9.1832066,-25.2213745,-49.2213745,3.5601597,2.7413468,7.4339581,-250.1374054,-114.0000000,67.2442780
2950,6.9479380,3.0765336,3.9336534,-7.2519083,-16.2061062,-40.6106873,3.4763632,1.5969244,8.5879574,-250.1374054,-70.4656525,72.9465637
2960,6.3709383,3.2417326,3.7373297,-11.9312973,-6.6793895,-22.3358784,3.3662305,0.5482694,9.5671806,-250.1374054,-36.4809151,79.4656525
2970,6.5672617,3.2177906,3.3518653,-16.8320618,14.0000000,-5.1755724,3.5769191,0.0263361,10.7331514,-250.1374054,-2.4656489,84.6946564
2980,6.8401995,3.1794837,3.2058196,-20.7175579,42.0610695,8.1832066,3.8354914,-0.3591284,12.0236197,-250.1374054,34.9007645,89.3816757
2990,7.1897511,3.0908985,2.7461352,-26.1297703,71.2213745,20.6946564,4.1754665,-0.7805058,13.5798426,-246.2595367,74.1832047,92.2213745
3000,7.3142486,3.2225790,2.3965836,-34.9618340,105.5419846,35.0839691,4.6854286,-1.2617378,14.5830078,-219.3664093,113.1145020,90.3129807
3010,7.6446471,3.3925664,2.3989778,-48.9694672,142.2137451,50.6870232,4.9200592,-1.4820032,15.4305506,-191.5267181,147.8549652,83.0152664
3020,8.0229292,3.2848279,2.9065459,-64.9465637,166.1984711,63.2213745,4.8218975,-1.2593436,16.1416245,-164.7557220,181.2213745,75.4732819
3030,8.5113440,3.0118904,3.5003049,-78.6183243,175.9389343,69.5572510,4.1850433,-1.3527170,17.2668934,-142.7862549,207.5954132,70.3053436
3040,9.0859489,2.8610563,4.5872669,-87.8473282,171.9923706,69.8625946,4.2879934,-1.9799947,17.7768574,-120.4122162,222.6183167,64.8015289
3050,9.6054878,2.8059900,5.5162125,-90.4580154,153.0152740,65.4503784,4.4436154,-2.4612267,17.6954536,-96.4503784,229.1145020,49.8778610
3060,10.1968527,2.8658447,6.4595232,-88.4045792,120.4122162,58.4656487,4.3191175,-3.1292057,17.5134964,-68.9923630,206.2671814,29.5267181
3070,11.1401634,3.1268115,7.3142486,-80.7175598,81.7938919,46.5648842,3.7636659,-3.0430148,17.0202923,-44.8015251,167.9084015,5.3053436
3080,11.8895445,3.0573800,7.9104018,-66.8244247,47.0610695,26.8854961,3.0454090,-2.7581062,16.0386753,-23.2671757,122.5877838,-18.7862587
3090,11.9517937,2.7652888,8.1210909,-47.8320618,20.9923668,3.2900763,1.9057748,-2.4492557,15.3922443,-9.0687027,59.4122124,-40.7099228
3100,11.6142130,2.3439114,7.9247670,-27.0992374,-0.1832061,-20.4274807,1.2258250,-1.7022687,14.1424770,0.6259542,17.3358784,-55.7022896
3110,10.9294748,1.7884595,7.4962072,-7.4885497,-11.6793890,-40.8396950,0.4764437,-1.1731528,12.6652622,12.7786255,12.5267172,-61.2366409
3120,9.9478569,1.5394639,6.9239960,6.8702292,-13.2519083,-51.8931313,-0.4118006,-0.4812321,11.3340931,24.5114498,23.1679382,-55.9618340
3130,9.5719690,1.7812769,6.4116392,15.6564884,-8.2595415,-55.8396950,-0.7948709,-0.0526722,10.2710724,29.3206100,35.8396950,-46.9618340
3140,9.5312681,2.0302727,6.0070214,17.1068707,3.7862597,-55.9007645,-1.0989330,0.2705434,9.3325500,27.2824421,43.5877876,-38.6030540
3150,9.1122847,2.1954718,5.8322453,11.5572519,17.0458012,-54.7175560,-1.5274929,0.4525018,9.0524302,20.4503822,43.2519073,-32.7251892
3160,8.4419117,2.2242019,5.8418221,-3.4503818,13.7099237,-50.2595406,-2.1140692,0.8164186,8.8728657,10.6183205,39.6870232,-26.0839691
3170,8.1498213,1.9416877,6.7109132,-16.3358784,3.7480917,-44.2977104,-4.8123207,-0.2825144,7.4770536,-3.6259542,38.5190849,-13.1755724
3180,6.7180958,1.0773853,7.4219875,-16.8625946,3.7404580,-26.3282452,-0.7350162,2.5186872,10.9342632,-18.9007626,32.3129768,-2.0992367
3190,10.3452930,3.7947903,7.7284436,-11.2290077,4.0381680,-27.3282452,-2.9999194,0.7350162,9.2415714,-24.1145039,15.2824430,-1.0839695
3200,9.8329363,2.9687948,7.3453732,-12.2137403,4.5267177,-65.0839691,-0.0287303,0.1173153,11.3293047,-32.5648842,12.7862597,1.1374046
3210,9.8712435,3.2369442,7.4387465,-14.1603050,11.0152674,-66.2900772,-0.3806761,-0.2920911,11.9230633,-27.6183205,25.6106873,-2.9770992
3220,10.4219065,3.5122759,7.2328463,-17.4503822,16.2595425,-68.8167953,-0.3591284,-0.4692611,12.8496151,-17.2748089,35.4503822,-4.5877862
3230,10.9007444,3.9336534,6.7180958,-24.8320618,21.6412220,-77.7480927,0.1628049,-0.8475431,13.0626974,-1.9847329,45.5725174,-7.4122138
3240,11.8344784,4.4507980,6.9216018,-35.7862587,21.7557259,-91.7175598,0.5386927,-0.9720409,13.6373034,18.4961834,52.3206100,-14.0000000
3250,12.3181047,4.4723458,7.6470413,-46.8702278,16.9465656,-107.5648880,0.0119709,-0.7541697,14.2885227,44.4122124,56.8320618,-19.1679382
3260,12.7179346,4.2089849,8.7244263,-52.6183205,9.0534353,-123.2519073,-0.1915352,-0.8379663,13.7641954,68.0076370,63.8320618,-21.0229015
3270,13.1584654,4.2568688,10.5727406,-45.4274826,-3.5801528,-138.5801544,-0.2059003,-0.9816177,13.0626974,86.1526718,74.6870193,-22.4198475
3280,13.4026728,3.9599893,11.4777441,-24.0992374,-11.8396950,-157.0763397,-0.0790083,-0.9768293,13.3092995,99.0610657,93.1984711,-24.1221371
3290,13.7402534,3.4859397,11.4609852,1.2977099,-23.2061062,-179.5343475,-0.9552816,-0.6057299,13.6708221,114.5190811,116.3053436,-26.2595425
3300,13.4744978,3.1531475,10.9749641,22.1832066,-43.8015251,-202.6793823,-1.5969244,-0.3974355,13.2350798,132.9236603,128.5190887,-23.8167934
3310,12.9238348,2.9520357,10.3644457,37.8167953,-69.9618301,-227.0839691,-1.8459201,-0.2322364,12.6006193,150.3129730,138.9236603,-17.7938938
3320,13.1704359,2.6910689,10.0627785,51.7938919,-100.2366409,-250.1374054,-1.9656296,0.0742199,11.7626524,165.4580078,146.9084015,-11.1068707
3330,13.1273403,2.0661855,9.4833841,65.5038147,-123.6259537,-250.1374054,-1.8459201,0.3447633,10.6685085,175.0229034,152.5954132,-6.5725193
3340,12.1481171,1.8363433,8.9303265,76.5877838,-133.4274750,-250.1374054,-1.4317253,0.8212070,9.4019823,176.7938995,151.2213745,-6.2442746
3350,10.8121595,1.7214222,8.1641865,83.0229034,-138.8778687,-250.1374054,-1.1204807,1.2737088,8.5089493,172.4198456,145.0763397,-10.1221371
3360,9.4307127,1.3598996,7.1227136,84.4274826,-145.9465637,-250.1374054,-1.9129574,1.6065011,7.9654684,161.9160309,126.4351120,-18.1068707
3370,8.1067257,1.4987626,6.0668759,79.5954208,-151.1603088,-250.1374054,-1.9129574,1.9153515,7.8266053,140.6870270,96.3969498,-29.0152664
3380,7.0796180,1.4604555,5.5066357,70.2137375,-152.3511505,-250.1374054,-2.1858950,2.3103929,8.2048874,123.0763321,94.5114517,-40.0534363
3390,6.1698260,1.2761030,5.2528515,61.2442741,-145.5648804,-250.1374054,-3.3925664,2.2960277,10.6948442,114.8320618,102.0152664,-44.6488533
3400,4.8530221,1.2617378,5.2648225,54.6183205,-135.3969421,-250.1374054,-5.0469513,1.9345051,13.9126348,124.4427490,111.2671738,-40.6335869
3410,3.7277529,1.0821736,5.0852585,51.2595406,-131.2900696,-250.1374054,-6.3493905,1.6424140,16.7952385,153.4351196,115.3893127,-31.0152664
3420,2.6024840,0.9983770,4.8937230,48.2824440,-127.2061081,-250.1374054,-7.4483232,1.4532729,18.2987900,193.8625946,118.2824402,-17.7633591
3430,1.1947005,1.0725969,4.9966736,44.8702278,-124.9007645,-250.1374054,-9.0452480,1.0342898,18.2030220,238.0763397,110.0763321,1.1832061
3440,0.0885850,1.1707586,5.8466105,43.1908379,-117.9770966,-250.1374054,-10.3716288,1.1923064,16.1081066,250.1297760,72.4809189,24.1374054
3450,-0.4908088,0.9480990,6.7204900,44.3740463,-126.3664093,-250.1374054,-10.8576488,1.5753766,13.2614155,250.1297760,27.1755733,46.0228996
3460,-0.9265513,1.5107336,7.8337879,51.0610695,-130.2366486,-250.1374054,-12.6389265,2.6024840,10.0867205,250.1297760,-23.5572510,67.1526718
3470,-2.7245877,1.5562232,6.4188218,62.9541969,-155.3358765,-250.1374054,-13.9533358,4.1706781,6.5816269,250.1297760,-87.8625946,93.2213745
3480,-4.3119354,2.1451938,6.3900914,67.8625946,-156.7480927,-250.1374054,-14.4704809,4.7883787,3.4931223,240.6183167,-151.4656525,126.4732819
3490,-5.0206151,1.7118455,8.0660238,69.8625946,-106.3511429,-250.1374054,-14.0586805,5.4132624,2.4612267,194.7022858,-210.9389343,159.1603088
3500,-6.5744443,1.7932479,5.4922705,73.7404556,-102.1603088,-247.1526642,-11.7123747,5.6383162,2.6862805,150.3893127,-250.1374054,182.4656525
3510,-7.0006099,1.7788827,5.1475072,71.3282471,-78.2213745,-218.1603088,-9.6222477,5.4204450,4.1682839,123.4503784,-250.1374054,197.2366486
3520,-7.9104018,2.0446377,4.2832050,66.6412201,-38.7786255,-183.4503784,-7.4746594,4.0725164,5.2576399,117.7099228,-250.1374054,205.8625946
3530,-8.1953106,2.0709739,3.5218527,56.2213745,-0.2290076,-146.4580078,-5.5042415,2.9640064,4.6806402,123.7175598,-247.9465637,207.9389343
3540,-8.2360115,2.1308286,3.0334380,44.2213745,37.5038185,-110.0992355,-3.7445123,3.9240766,2.7365584,131.2595367,-241.8625946,202.7709961
3550,-8.2791071,1.9368993,3.1363883,33.4045792,67.0839691,-77.9389343,-1.9273225,4.6327567,-2.0518203,122.6488571,-250.1374054,192.0076294
3560,-10.1537571,-19.6131992,4.3765783,-83.5572510,250.1297760,250.1297760,6.7061248,-1.3048333,0.8786675,-250.1374054,208.3816833,-24.9923668
3570,15.5239248,-19.6131992,3.6128318,-73.0305328,232.8167877,250.1297760,5.9351954,-2.7006457,3.7923961,-250.1374054,250.1297760,-37.3969460
3580,19.6126022,-19.6131992,2.6790979,-85.0000000,250.1297760,250.1297760,4.4124913,-4.1180058,6.6031747,-250.1374054,250.1297760,-53.0152664
3590,19.6126022,-19.6131992,12.5575237,-163.1297760,250.1297760,250.1297760,2.2577207,-5.3079181,8.8489246,-250.1374054,250.1297760,-71.8473282
3600,19.6126022,-7.6685886,19.6126022,-107.4732819,183.8778687,250.1297760,0.1556223,-5.4779053,10.4123297,-250.1374054,250.1297760,-88.4885483
3610,19.6126022,-3.4763632,19.6126022,133.4427490,-172.4961853,250.1297760,-1.9440818,-4.7907729,11.5208397,-229.9694672,250.1297760,-99.9312973
3620,19.6126022,-1.1180865,13.1608591,250.1297760,-250.1374054,1.7862595,-4.5489597,-3.6918402,12.3875360,-182.9541931,250.1297760,-113.0839691
3630,19.6126022,0.0335187,-6.6486640,250.1297760,-250.1374054,-76.9694672,-8.4036045,-2.2361729,13.5247765,-142.0229034,250.1297760,-120.8167953
3640,19.6126022,2.8921809,-12.7394819,211.1984711,-250.1374054,-45.3129768,-12.5814657,-0.4070122,14.7649660,-109.5267181,250.1297760,-120.1374054
3650,19.6126022,6.5959921,-17.4823723,-5.2595420,-134.7099304,146.2977142,-15.5406837,1.3742647,15.6939116,-87.6259537,250.1297760,-105.7709961
3660,19.6126022,4.9894910,-8.3964224,-50.0916023,250.1297760,-151.5267181,-17.4823723,2.8227494,16.3571014,-76.4122162,250.1297760,-75.2137375
3670,4.4412212,6.9862447,-5.2791877,-76.6412201,217.5648804,-158.8931274,-17.5398312,3.2369442,16.7114429,-68.9542007,126.0229034,-33.1984749
3680,-2.4324965,5.3318601,-2.0685797,-103.1526718,158.2748108,-51.8396950,-15.0331154,2.4779861,16.3547077,-57.7022896,9.6030531,6.8854961
3690,4.8697815,3.7373297,0.8331779,-80.5801544,93.5343475,17.8091602,-12.9980545,1.3503228,16.4839935,-61.0534363,-165.7251892,27.5877857
3700,10.4841557,5.0421629,2.0015423,-55.0534363,86.7328262,15.1755724,-9.2319946,0.3471575,15.6244802,-63.8549614,-250.1374054,23.5114498
3710,10.7666702,5.8274570,2.2074428,-43.4809151,110.1068726,7.7557254,-5.4132624,-0.8499373,14.9325600,-28.6106873,-244.6259613,12.1526718
3720,10.7307568,5.3941088,2.3534882,-40.1679382,151.0152740,6.0076337,-2.8538737,-1.2880739,12.9956608,8.4580154,-222.5877838,-3.5419848
3730,9.6198530,4.8123207,2.5162930,-34.4961815,180.5725250,0.0076336,-1.6208663,-0.6799498,10.9797525,30.6641216,-191.1221313,-26.0992374
3740,7.6997132,4.0988522,2.4636209,-26.7175579,176.8931274,-4.3053436,-2.4037662,0.2154770,9.4067707,37.1908379,-160.4427490,-45.1603050
3750,6.2224984,3.2896163,2.5162930,-17.7175579,132.9236603,-5.5801525,-3.8570392,1.1947005,8.7340031,32.7328262,-136.0000000,-50.4198456
3760,5.7580256,2.7652888,2.8275378,-8.8854961,73.9160309,-4.4961834,-5.1546898,2.0566087,8.5137377,20.8015270,-111.2061081,-40.9923668
3770,5.9758968,2.7485294,3.0382264,-0.6259542,18.1603050,-3.0687022,-5.8490047,2.3965836,8.6621771,6.9770994,-89.4045792,-21.9465656
3780,6.7611909,2.8610563,3.0741394,4.7709923,-16.0076332,-2.6183207,-5.7771792,2.2409613,9.0500364,-4.3053436,-71.8015289,-3.0458016
3790,7.3310080,3.0980811,2.9017577,5.1297708,-24.1068707,-3.4656489,-4.9751258,1.6998745,9.4115591,-11.0458012,-57.9771004,13.3511448
3800,7.7308378,3.2944047,2.8538737,1.2671756,-12.4732828,-4.2213740,-4.2712340,1.1970947,9.5719690,-13.8320608,-49.5114517,24.3969460
3810,7.5081782,3.1196289,2.8131726,-4.3129773,9.5648851,-3.3969467,-3.6343796,0.7900825,9.7802639,-14.2519083,-42.5725174,30.6717548
3820,6.9790621,2.9544299,2.6671271,-11.2748089,38.2213745,2.0229008,-3.1339941,0.5027798,9.9167328,-13.5572519,-40.9923668,33.6106873
3830,6.3996682,2.7102225,2.4923513,-18.6183205,69.9465637,11.8854961,-2.7389526,0.2705434,9.9957409,-12.9465647,-41.8473282,33.4580154
3840,5.9471664,2.6216373,2.3630650,-27.9923668,101.7328262,25.4351139,-2.4755919,0.1388630,10.0125008,-11.1832066,-46.4885483,31.5419846
3850,5.5257893,2.5689652,2.3175755,-38.6183205,126.2824402,39.8244286,-2.1643472,0.0837966,9.8880024,-10.4122133,-55.2900772,26.0305347
3860,5.6646523,2.4516499,2.4684093,-50.1526718,141.0305328,53.4045792,-1.9321109,0.0550664,9.7850523,-10.8778629,-66.2748108,20.2748089
3870,6.1075773,2.2601149,2.6503677,-65.2442780,148.9541931,63.3893127,-1.7956421,0.1508339,9.6437950,-12.7099237,-79.5267181,14.4503813
3880,6.6486640,2.1380112,2.9041519,-81.7480927,155.7633514,70.3664093,-1.4700323,0.2896969,9.5671806,-15.9312973,-92.5648880,8.4198475
3890,7.3645267,2.2289903,3.5793133,-96.4732819,162.8931274,74.4274826,-1.4700323,0.3423691,9.5839405,-19.4885502,-101.8244247,2.6793892
3900,7.9798336,2.1930776,4.3670015,-108.3206100,160.7480927,73.1755753,-1.5514348,0.4118006,9.9765873,-22.9541988,-105.3969498,0.1297710
3910,8.4730368,1.9249283,5.1786318,-118.4503784,149.3893127,68.5648880,-1.7094513,0.4932030,10.4051476,-25.7251911,-104.6641235,1.5496184
3920,8.6717539,1.6687500,6.7085190,-121.5267181,130.3129730,62.4656487,-1.6974803,0.5434810,11.1066446,-27.1603050,-101.4885483,6.7099237
3930,9.3062143,1.3479286,7.7428088,-114.2061081,104.7862625,57.7633591,-1.5466464,0.3782819,11.7602587,-27.1679382,-102.3282471,12.2519083
3940,9.7156210,0.7421987,7.2927012,-103.3435135,85.1145020,52.0381660,-0.6416427,0.0526722,11.8991213,-21.6183205,-95.0229034,14.3053436
3950,10.8528605,0.7852941,6.3134775,-96.9694672,85.5572510,44.3358765,0.0383070,-0.1005560,11.7913828,-10.7328243,-80.1145020,13.4580154
3960,10.6086531,0.5530578,5.5784616,-97.8854980,82.9923630,37.0458031,0.1316804,0.1795642,11.5830889,-0.1068702,-62.0839691,12.0763359
3970,11.7243462,1.1204807,5.6478930,-104.2366409,101.4122162,31.5572510,0.0239419,0.3399749,11.3340931,7.3664122,-39.8091621,13.5801525
3980,12.0738974,1.4293311,6.5074067,-111.5267181,113.0916061,27.6488552,0.0119709,0.6105183,11.1593170,10.4732828,-24.4351139,16.6412220
3990,13.3140879,1.4341195,7.3956513,-116.2900772,108.4274826,19.8396950,0.2226596,0.7852941,11.0204544,9.8625956,-13.5267172,19.5114498
4000,15.8710823,1.8985922,9.3612804,-117.0076370,81.9160309,-1.9847329,0.5219333,0.8762733,10.8911676,7.5190840,-7.5419846,19.0839691
4010,18.8614254,2.0733681,10.7570934,-113.4198456,49.9694672,-41.7709923,0.5746055,0.8810617,10.8552551,5.0152674,-4.8320613,19.1374054
4020,19.6126022,1.3120158,11.8799677,-106.4961853,23.8549614,-96.6335907,0.5626345,0.7852941,10.8624372,3.4885497,-3.2748091,18.9618320
4030,19.6126022,0.2322364,12.9573536,-90.3511429,-11.8625956,-164.1297760,0.7924767,0.7326220,10.9007444,3.1221373,-1.3129771,19.1297703
4040,19.6126022,-0.6943150,14.0658627,-68.0152664,-48.6106873,-231.8702240,1.0247130,0.6320660,10.8241301,4.2595420,0.4580153,17.9007626
4050,19.6126022,-1.8818330,14.7960911,-42.1679382,-87.7251892,-250.1374054,1.1132981,0.5099624,10.6158361,4.3129773,3.2595420,15.9541988
4060,19.6126022,-2.4564383,15.5047712,-16.5038166,-129.4580078,-250.1374054,1.2401901,0.4716553,10.6397781,3.3740458,6.4503818,11.8778629
4070,15.9453020,-5.3055239,12.3324699,47.3053436,-155.5725250,-250.1374054,0.2442073,0.4141948,10.6852674,-1.8167939,10.5038166,-12.5343513
4080,13.0962162,-5.6215568,11.3053627,60.1679382,-146.8473358,-250.1374054,-0.1675933,0.4572902,10.6828737,-2.5267177,9.1603050,-17.1068707
4090,7.9989872,-5.8609757,8.4251528,77.0457993,-178.1068726,-250.1374054,-1.4436963,0.6416427,10.2734671,-5.3053436,-0.3282443,-16.6030540
4100,6.1794028,-5.8298512,7.0197635,72.2061081,-172.0458069,-250.1374054,-1.8818330,0.6129125,10.2782555,-7.7938933,-3.4045801,-12.7022905
4110,4.3861551,-5.8059096,5.9423780,63.4351158,-156.7251892,-250.1374054,-2.0470319,0.5674229,10.2974091,-10.2977095,-7.8091602,-8.7557249
4120,2.5019281,-5.9950504,5.3629842,50.2137413,-147.0305328,-250.1374054,-1.9632354,0.5291159,10.5368280,-11.6946564,-12.0000000,-2.8854961
4130,1.1109039,-6.0501165,5.0158267,35.0687027,-140.2519073,-250.1374054,-1.7046629,0.4118006,10.8432837,-10.9618320,-13.9770994,2.3969467
4140,-0.2873027,-6.1051831,5.3773494,22.9083977,-130.5343475,-250.1374054,-1.3239868,0.3710994,11.0755205,-8.7557249,-13.9160309,5.7328243
4150,-1.5346755,-6.0908179,5.7580256,15.4885492,-120.9694672,-250.1374054,-0.9361281,0.2106887,11.1497402,-5.8549619,-13.7404585,7.8015265
4160,-3.2393384,-5.6095858,6.4475522,12.3435116,-115.6717529,-250.1374054,-0.5961532,0.1939293,11.1473465,-3.0763359,-11.9770994,8.7557249
4170,-5.1331420,-5.1546898,7.1969333,14.8625956,-111.4961853,-250.1374054,-0.2873027,0.1699875,11.1617117,-0.4045801,-8.7480917,8.8931293
4180,-7.4076223,-4.2592630,8.2024927,20.0381680,-114.7175598,-250.1374054,0.1149211,0.1149211,11.0779142,2.1374047,-5.5572519,7.3587785
4190,-9.3493099,-3.1938488,8.8297710,27.8015270,-117.0534363,-250.1374054,0.4046180,0.1508339,10.9462337,4.3511453,-2.1221373,3.7175572
4200,-10.8480721,-1.9967541,9.2535419,36.1755714,-117.0992355,-250.1374054,0.3016679,0.2753318,10.9965124,5.6564884,1.1832061,1.3053435
4210,-11.5926657,-0.8116302,9.3301563,44.6412201,-107.1603088,-241.3511505,0.2418131,0.3423691,10.9198980,6.5725193,3.9160306,-1.7251909
4220,-12.4426022,0.2226596,8.6358414,47.4885483,-85.8931274,-176.1297760,-0.0311245,0.4333483,10.8169479,7.6183205,5.2366414,-3.0000000
4230,-13.1010046,0.9600700,8.1067257,42.6335869,-64.6106873,-106.5038147,-0.1843526,0.5147507,10.6278067,8.2900763,6.0916033,-3.9847329
4240,-12.9094696,0.2873027,7.9870162,33.5496178,-40.9007645,-37.3053436,-0.3351865,0.5578461,10.6900558,8.7251911,6.1984735,-4.0534353
4250,-12.5814657,-0.7062859,8.3293848,27.3511448,-7.6564884,30.6335869,-0.4261657,0.6560079,10.6349897,8.7404585,7.4656487,-3.6183207
4260,-11.8775740,-2.0829449,9.2607250,24.8931293,45.7328262,94.5572510,-0.5769997,0.7158626,10.6230183,9.1832066,8.7633591,-3.1832061
4270,-12.6987810,-2.0757623,11.6836443,30.6717548,102.4732819,160.1068726,-0.6703730,0.7254394,10.6062593,9.1297712,10.1068707,-1.3664122
4280,-12.8400383,-5.5640965,14.8774929,47.7328262,156.3282471,230.2290039,-0.7326220,0.8451489,10.5368280,8.9465647,11.2748089,0.1145038
4290,-13.5894194,-7.4243813,18.6148224,88.1526718,201.2213745,250.1297760,-0.7876883,0.7852941,10.6637201,8.9083967,11.9389315,1.7251909
4300,-13.9772778,-10.2998028,19.6126022,153.3435059,250.1297760,250.1297760,-0.8236012,0.7972651,10.6661139,9.7862597,12.2519083,2.8931298
4310,-14.5183649,-14.2023315,19.3713875,224.9084015,250.1297760,250.1297760,-0.7230452,0.8020535,10.6756907,10.1908398,13.5038166,4.1297708
4320,-13.4194317,-18.1647148,16.7377777,250.1297760,250.1297760,250.1297760,-0.6967092,0.8930327,10.5799236,10.3358774,13.8015270,4.0458016
4330,-9.5336628,-19.6131992,12.8400383,250.1297760,250.1297760,250.1297760,-0.7134684,0.9265513,10.5057030,9.7480917,12.6259546,3.7175572
4340,-4.5489597,-19.6131992,7.9104018,250.1297760,250.1297760,250.1297760,-0.5817881,0.9002152,10.4817610,8.8625956,12.7557249,3.7557251
4350,8.4634600,-19.6131992,1.4484847,250.1297760,250.1297760,250.1297760,-0.5865764,0.9935886,10.2399483,9.0839691,19.2061062,4.0839696
4360,19.6126022,-19.6131992,-7.6973190,250.1297760,250.1297760,250.1297760,-0.8666966,0.9337339,10.3668404,9.2824430,21.5038166,4.7786260
4370,19.6126022,-19.6131992,-16.4432926,148.1221313,250.1297760,250.1297760,-1.0151364,0.8738791,10.5607700,7.5877862,16.3358784,5.8015265
4380,19.6126022,-17.2309818,-14.5470953,-66.6717529,250.1297760,250.1297760,-0.8858501,0.7996593,10.6709023,5.4503818,11.3129768,3.8320611
4390,19.6126022,-3.1004753,4.1467361,-246.1374054,250.1297760,250.1297760,-0.9050036,0.6344602,10.6852674,5.1374044,7.8549619,1.8473282
4400,19.6126022,1.3766589,19.6126022,-249.6488495,250.1297760,250.1297760,-0.9552816,0.6584021,10.5224628,5.1297708,5.2366414,0.2366412
4410,19.6126022,-1.5705882,19.6126022,-80.3511429,77.0000000,-13.7786255,-1.0366840,0.5698171,10.5655584,5.2900763,2.9007633,-1.8625954
4420,19.6126022,-2.2289903,19.6126022,92.7175598,-250.1374054,-203.4732819,-1.0749911,0.6488253,10.6661139,5.0610685,1.3893130,-3.5954199
4430,15.3563309,-0.9768293,13.8384151,164.1145020,-250.1374054,-238.0305328,-1.1444225,0.6655847,10.6373835,5.2977099,0.6641222,-4.9389315
4440,10.9510221,0.8547257,7.4794478,170.4274750,-250.1374054,-156.2824402,-1.1994889,0.6536137,10.6182299,5.2595420,-1.4503816,-5.6030536
4450,9.3852224,2.7916248,2.2649033,133.0305328,-209.7862549,-42.9541969,-1.1659702,0.8020535,10.5200682,5.3435116,-1.3053435,-5.4885497
4460,7.7021074,3.9791429,-0.9840119,76.3893127,77.5114517,52.4045792,-1.2162483,0.7996593,10.5751352,5.6946564,-1.6030535,-4.7938933
4470,7.7188668,4.3430595,-1.3646880,31.2442741,205.4503784,114.4274826,-1.1563935,0.9433106,10.5104914,4.9465647,-1.3893130,-3.4274809
4480,10.5727406,4.6638808,-0.3734936,12.6030531,220.1832123,135.8854980,-1.1037214,1.0151364,10.4913378,4.4580154,-1.1679389,-2.5419848
4490,14.7386303,5.2911587,-0.1939293,8.6412210,200.3893127,121.6183243,-1.0725969,1.0630201,10.5344334,3.9083970,-0.6488550,-1.4961832
4500,16.4504757,5.6263452,-0.4309541,8.9312973,182.1297760,83.8473282,-1.0534433,0.9959828,10.4937325,3.7862597,0.1145038,-0.2824427
4510,13.1129761,4.8075323,-0.9768293,-10.8473282,118.2595444,4.2824426,-0.8236012,1.0917504,10.4865494,3.0534351,1.1374046,0.2671756
4520,10.9677820,4.0366035,-0.4740495,-24.0229015,66.9770966,-22.5419846,-0.8283895,1.1180865,10.5368280,2.3816793,2.1908398,0.1755725
4530,9.8688488,3.5625539,0.4094064,-33.7175560,19.8625946,-41.2061081,-0.7757174,1.0390782,10.4003592,1.9923664,2.0610688,-0.0381679
4540,8.9901810,2.8778157,1.2617378,-39.9694672,-11.8854961,-52.9771004,-0.7541697,1.0462608,10.3740225,1.3587786,1.9923664,-1.5648855
4550,8.1593981,2.5569944,2.0254843,-45.0228996,-24.8854961,-54.5343513,-0.9073978,1.0749911,10.4099360,0.3969466,0.5343512,-1.9160305
4560,7.4459291,2.0278785,2.7868366,-50.1221390,-24.1679382,-46.5877876,-0.9169745,0.9552816,10.4171181,-1.0458015,-1.1450381,-3.7633588
4570,6.7779503,1.7381816,3.6391680,-52.6030540,-14.4122133,-31.6793900,-1.0654143,0.8547257,10.4171181,-1.8320611,-2.3129771,-4.2977099
4580,6.5959921,1.7094513,4.3310885,-52.4656487,-0.3587786,-12.3740454,-1.1420283,0.8595140,10.4410601,-2.0839694,-2.1603053,-5.2977099
4590,6.9311786,1.9177457,4.8793583,-50.7175560,19.3358784,7.9541984,-1.3790531,0.7829000,10.6469603,-1.8244275,-2.9083970,-4.9312978
4600,7.4770536,2.0206959,5.2073622,-48.5267181,42.3053436,23.4351139,-1.5658000,0.7637464,10.6397781,-1.5419847,-3.3893130,-4.1374044
4610,8.2048874,2.3702476,4.8314743,-47.1374054,64.5954208,34.1145020,-1.5753766,0.7541697,10.6876621,-0.8854962,-3.8473282,-3.7786260
4620,8.9303265,2.3391230,4.3502421,-50.5877876,91.0381699,42.5572510,-1.6208663,0.6584021,10.7307568,0.4198473,-3.5114503,-1.9694656
4630,9.2894554,2.3846128,4.2281384,-57.5725174,119.2977066,47.6106873,-1.7309990,0.6057299,10.7762470,1.9847329,-1.8778626,-0.1068702
4640,9.2990322,2.2409613,4.0006905,-65.5419846,141.3893127,51.1679382,-1.6232605,0.6751614,10.6732969,3.1297710,-1.8015267,0.5725191
4650,9.1984758,2.1523764,4.0198441,-75.5877838,155.1679382,53.1068687,-1.4628497,0.7493813,10.6732969,3.7328243,-2.9694657,1.3206106
4660,9.2224178,1.9847831,4.2329268,-86.3511429,161.7480927,54.1068687,-1.3287752,0.7852941,10.5416164,3.7328243,-4.2213740,1.9007634
4670,9.4809904,1.6998745,4.4244623,-96.2748108,163.3206177,51.7404594,-1.2497669,0.7757174,10.4793673,3.1526718,-4.2595420,1.7328244
4680,9.5983057,1.4580613,4.7045822,-107.6183243,154.6183167,44.6106873,-1.0414724,0.7709290,10.4721851,2.4580152,-4.0229006,1.9160305
4690,9.7563219,1.4867916,5.0230093,-118.1221390,147.8702240,38.4045792,-1.0271072,0.8930327,10.4578199,1.7251909,-4.0000000,1.7251909
4700,10.0196829,1.4436963,5.7245069,-126.3129807,140.3587799,31.9312973,-0.9457048,0.9504932,10.5344334,1.1526718,-4.2748094,1.5725191
4710,10.5679522,1.5418580,6.4116392,-131.4122162,138.0839691,24.3664131,-0.9169745,0.9840119,10.5248566,0.7557252,-3.8549619,1.1145039
4720,11.4777441,1.3096216,8.1522150,-128.2519073,143.9694672,16.3358784,-0.8451489,1.0510491,10.6254129,1.1908396,-3.5877862,1.1145039
4730,12.1553001,0.8283895,9.0883436,-117.2824402,132.2290039,5.2595420,-0.7278336,1.0534433,10.6325951,1.7328244,-2.0916030,0.8931298
4740,12.9382000,0.7421987,9.8592720,-104.2137375,107.9236679,-10.9541988,-0.7613522,1.0654143,10.5775290,2.0305343,-1.3511450,0.0381679
4750,14.0706511,0.6177009,10.1920643,-92.7175598,79.0534363,-32.3816795,-0.8116302,1.1013272,10.5775290,1.8549619,-1.5038168,-1.0381680
4760,15.6436338,0.7350162,10.2495251,-83.7099228,50.7251892,-59.3587799,-0.8978211,1.0749911,10.5344334,1.5419847,-1.4427481,-2.3893130
4770,17.0873299,1.1252691,10.9342632,-73.2824402,18.7709923,-95.0763321,-0.8666966,1.1516051,10.5272512,1.4122137,-1.3587786,-3.1145039
4780,17.6547527,0.6895266,11.8249016,-61.4427490,-27.2900772,-138.1526642,-1.0606259,1.1252691,10.4769726,1.2900764,-1.7175573,-2.8854961
4790,18.2173882,0.1843526,12.3300753,-49.9541969,-74.1984711,-188.3358765,-1.1013272,0.9768293,10.4937325,1.3206106,-1.7251909,-4.3893127
4800,18.5932751,-0.3758878,11.8775740,-38.8244286,-124.9236679,-241.1526642,-1.1947005,0.9959828,10.5368280,1.2977099,-1.8320611,-3.9847329
4810,18.3993454,-0.6631905,10.6996326,-32.1526718,-157.0534363,-250.1374054,-1.2114599,0.9504932,10.5583754,1.8778626,-1.7709924,-4.4961834
4820,18.1383801,-1.4173602,9.3133974,-30.3587780,-175.0763397,-250.1374054,-1.3958124,0.9672526,10.5583754,2.3206108,-0.7786260,-3.3816793
4830,17.7816448,-2.0590029,8.4538832,-32.4580154,-175.2519073,-250.1374054,-1.4436963,1.0031654,10.5799236,2.3435113,-0.4274809,-2.5572519
4840,16.7760849,-2.6575503,7.9678626,-35.3816795,-165.0152740,-250.1374054,-1.5394639,1.0510491,10.5895004,2.4809160,-0.9160305,-1.6946565
4850,15.8902349,-3.3829896,7.7308378,-37.7022896,-157.7786255,-250.1374054,-1.4413021,1.1396341,10.6709023,2.7709923,-1.1984733,-0.4045801
4860,14.9780493,-3.9552009,7.6877422,-40.4885483,-161.9923706,-250.1374054,-1.3718705,1.2186425,10.6062593,2.9541984,-0.7175573,-0.1755725
4870,13.9365768,-4.6902170,7.4387465,-45.8702278,-171.5114441,-250.1374054,-1.3479286,1.2784972,10.4745789,3.3587787,-0.3206107,1.1526718
4880,12.9621420,-4.8554163,7.6949248,-51.3816795,-175.6335907,-250.1374054,-1.3598996,1.3144100,10.3907824,3.6870229,0.0076336,1.4732825
4890,12.0331964,-4.9942794,8.0229292,-53.0381660,-171.6030579,-250.1374054,-1.4317253,1.3024391,10.2591019,2.6946564,-0.2519084,2.3816793
4900,10.9629936,-5.2624283,8.0756006,-50.9694672,-163.9007568,-250.1374054,-1.6974803,1.3670821,10.1776991,1.5419847,-3.0534351,3.2290077
4910,9.4570484,-5.1786318,8.0468712,-46.9389305,-154.7022858,-250.1374054,-1.9512644,1.3766589,10.1657286,0.0152672,-6.9847326,4.7328243
4920,7.8960366,-5.0948353,7.9941988,-41.5496178,-150.2442780,-250.1374054,-2.0159075,1.4173602,10.0723553,-2.2213740,-10.4045801,7.6259542
4930,6.6079631,-4.9727316,8.0372944,-35.6335869,-148.2213745,-250.1374054,-2.0446377,1.3024391,9.9933472,-5.0687022,-14.5190840,10.6641226
4940,5.1570840,-4.7021880,7.8697009,-30.8091602,-146.6946564,-250.1374054,-1.7956421,1.1156923,10.1992474,-7.4656487,-16.5725193,13.1984730
4950,3.7828193,-4.2329268,7.8673067,-26.2213745,-132.6106873,-250.1374054,-1.4963684,0.9097920,10.3189564,-9.3587790,-19.2900772,13.2519083
4960,2.4420733,-3.9863255,7.4219875,-20.7480907,-105.1297684,-250.1374054,-1.3359578,0.6967092,10.5248566,-9.8091602,-21.5038166,12.6412210
4970,1.1516051,-3.7445123,7.4794478,-15.9160309,-69.3664093,-250.1374054,-1.0989330,0.6224893,10.6661139,-9.5267172,-21.3282452,11.5954199
4980,0.4453192,-3.4021432,7.9726510,-12.6030531,-38.7480927,-250.1374054,-0.9768293,0.5530578,10.7714586,-8.2977095,-19.4961834,11.2824430
4990,-0.0814024,-3.1746953,8.1330614,-11.7022905,-8.8015270,-250.1374054,-0.7733232,0.5075682,10.9127159,-6.9312978,-17.5572510,10.6870232
5000,-1.2761030,-3.0118904,8.2551651,-15.2748089,25.9007626,-250.1374054,-0.6512195,0.5386927,10.8073711,-5.3053436,-14.9312973,9.8854961
5010,-1.7333932,-4.1108232,8.5185261,-15.1679392,56.3893127,-250.1374054,-0.5075682,0.4046180,10.8911676,-3.5496182,-12.0916033,9.3358774
5020,-2.5522060,-5.8921003,8.4443064,3.5725191,89.6259537,-250.1374054,-0.5147507,0.3806761,10.9127159,-1.6793894,-9.6412210,8.1526718
5030,-5.3941088,-5.9160423,8.4538832,37.8702278,114.9083939,-250.1374054,-0.4333483,0.3758878,10.9318695,-0.1526718,-7.8396945,6.1603055
5040,-9.5839405,-4.1826491,8.7699156,73.7480927,103.1450348,-250.1374054,-0.3447633,0.4094064,10.9198980,1.3282443,-5.7938933,4.4427481
5050,-14.7769375,-1.9991482,8.0085640,97.3206100,52.3587799,-250.1374054,-0.3687052,0.4836263,10.9103212,3.2061069,-2.4427481,2.2748091
5060,-17.1687317,-0.4788379,7.2759418,104.3816757,-14.8702288,-219.1450348,-0.2585725,0.5674229,11.0180597,5.3282442,0.4885496,0.2595420
5070,-16.5653973,0.2106887,8.2695303,103.1832047,-86.8625946,-155.8167877,-0.8331779,0.8140244,11.0491848,8.8702288,1.7709924,-0.9694657
5080,-15.4951944,0.4812321,8.3102312,110.1755753,-103.2290039,-89.8244247,-0.5793939,0.8595140,10.8576488,9.7557249,5.3587785,-1.2519084
5090,-14.2262735,0.0215477,7.4938130,115.8625946,-60.9312973,-16.6412220,-0.7278336,0.9672526,10.8289185,10.2748089,6.2595420,-1.2900764
5100,-12.2438850,-0.3806761,6.2895355,108.6641235,6.9618320,54.1984749,-0.6129125,1.0989330,10.6661139,11.1526718,8.1603050,-0.7862595
5110,-10.3117743,-1.0582317,5.7436604,92.2977066,82.6335907,117.7022934,-0.5530578,1.1635761,10.4530315,11.6641226,10.2671757,0.2519084
5120,-9.0739784,-1.9345051,6.3422079,78.6183243,149.7251892,174.4809113,-0.4333483,1.1803354,10.3596573,11.0458012,10.4045801,-0.0610687
5130,-8.9351149,-3.1986370,6.7444315,70.9083939,212.7633514,230.5114441,-0.3351865,1.2425843,10.3189564,9.6717558,9.2595415,-2.4961832
5140,13.0100250,-19.6131992,4.2664456,81.6106873,250.1297760,250.1297760,-1.4221486,1.0941446,10.8432837,-0.4961832,1.0076336,-11.3740454
5150,19.6126022,-19.6131992,-17.5039196,8.6564884,250.1297760,250.1297760,-1.5203103,0.9289455,10.6349897,2.5496182,3.4198472,-10.0152674
5160,19.6126022,11.3388815,-6.2033448,-250.1374054,250.1297760,250.1297760,-1.6136837,0.9289455,10.5727406,3.1297710,2.5877862,-10.1145039
5170,19.6126022,6.1099715,19.6126022,-250.1374054,250.1297760,46.2671738,-1.7357874,0.8571198,10.4602137,3.3053436,1.5343511,-8.9770994
5180,2.0613971,2.1643472,11.3197279,142.7786255,-250.1374054,-152.0992432,-1.7501525,0.8738791,10.3141680,-1.8091604,-4.8244276,-1.7557251
5190,8.5257082,5.7771792,3.3375001,120.6183243,-166.5648804,-52.2137413,-1.6950861,0.8307837,10.3716288,-3.0458016,-5.6946564,-0.3053435
5200,10.4889441,7.4148049,-1.2330076,63.0305328,41.3358765,-0.6870229,-1.4963684,0.8619082,10.5104914,-3.9389312,-6.1221375,2.0305343
5210,9.3133974,7.5488791,-1.2952565,10.9694653,146.0763397,21.6030540,-1.3790531,0.8475431,10.5128860,-4.4122138,-6.2061067,2.6335878
5220,7.9774394,6.9982157,0.6919208,-15.4885492,139.9694672,27.0229015,-1.2330076,0.8786675,10.6373835,-4.3969464,-6.0381680,3.4503818
5230,6.1195483,6.1219425,3.2537034,-19.4274807,88.4198456,24.3511448,-1.1180865,0.8212070,10.6493549,-3.7480917,-5.2213740,3.3206108
5240,5.9304070,3.6056492,6.0644817,31.1068707,-42.5038185,45.8854980,-0.9888002,1.0079538,10.5990763,-3.1832061,-2.9770992,0.9312977
5250,7.6159167,3.1507533,5.5162125,50.0916023,-40.1221390,52.4274826,-1.0007712,1.0510491,10.7139978,-2.8473282,-2.8167939,0.2061069
5260,9.6605549,3.3782012,4.4603748,62.5877876,-25.9770985,50.7786255,-1.1516051,1.0103480,10.7331514,-1.4503816,-2.9618320,0.1603053
5270,8.9207497,3.7588775,2.0829449,31.2824421,49.3893127,17.6564884,-1.2473727,0.9337339,10.6924505,7.4503818,8.6106873,-0.7938932
5280,8.0348997,3.6678982,2.3343346,19.8931293,61.7557259,18.2824421,-1.4293311,1.2018831,10.7331514,7.0763359,3.4198472,-1.4656489
5290,6.9359670,3.4476328,2.6455793,10.8549614,67.6412201,23.3053436,-1.1827296,1.1827296,10.5607700,7.7938933,5.9312978,-1.4656489
5300,6.3709383,3.5721307,2.4827745,1.4961832,74.6564865,30.1984730,-1.3191984,1.2018831,10.4027529,7.4503818,2.3053436,-0.6641222
5310,6.0237808,3.3590479,2.6862805,-8.5572519,83.9160309,38.3969460,-1.1300575,1.3551112,10.1944590,7.0000000,2.5954199,-0.8702290
5320,6.9192076,3.3710186,3.0765336,-31.8015270,105.4427490,52.4351158,-1.1994889,1.4101776,10.2543135,3.2595420,-0.3358779,-2.2366412
5330,6.8785062,2.8802099,4.0078731,-41.6335869,105.5648880,57.2213745,-0.9768293,1.4748207,10.1082678,0.8091603,-2.0687022,-3.1221373
5340,8.0396881,2.7940190,4.6183915,-49.2671738,119.6106873,57.1526718,-0.9696468,1.3383518,10.2207947,-1.0381680,-2.4732823,-4.1908398
5350,8.1186962,2.2289903,4.8171091,-54.7557259,132.2900696,56.4580154,-0.9097920,1.4245427,10.3788109,-1.6106870,-2.7709923,-4.8244276
5360,8.6765423,2.4348907,4.8027439,-62.5496178,153.9236603,53.3587799,-1.0318956,1.3670821,10.3788109,-2.2137403,-3.0381680,-6.0763359
5370,8.5448618,2.2720859,4.9655490,-73.4809189,170.9847260,49.7786255,-0.9768293,1.2784972,10.5559816,-2.6488550,-3.5572519,-6.4045801
5380,8.2551651,2.0470319,5.7269011,-82.7786255,179.6183167,49.0458031,-1.0127422,1.1851238,10.6828737,-2.7099237,-3.2900763,-7.4656487
5390,8.4443064,1.9225341,6.5385313,-86.9465637,174.2213745,51.2137413,-1.0893562,1.1755470,10.6948442,-2.2213740,-2.7022901,-7.9618320
5400,9.2607250,2.0135133,7.0317345,-86.0381699,147.1297760,51.8244286,-1.2210367,1.1109039,10.6852674,-1.4122137,-1.9236641,-8.8625956
5410,11.6980095,2.1835008,7.1322904,-85.2595444,127.1145020,43.1221390,-1.2641320,1.0462608,10.7451220,0.4198473,-0.9694657,-8.5801525
5420,14.1544485,2.5761478,7.8912482,-84.6717529,123.2748108,24.2290077,-1.3934183,0.9792235,10.6780853,1.3740458,-0.8778626,-8.6106873
5430,16.3403435,2.5689652,8.0133524,-80.6335907,102.6030502,-1.5267175,-1.6160779,0.8666966,10.6493549,2.3511450,-1.0763359,-7.8931298
5440,19.3354740,2.2361729,8.6118994,-72.8244247,109.9160309,-33.6717567,-1.7357874,0.9169745,10.5655584,3.2977099,-0.8167939,-7.5419846
5450,19.6126022,2.7820482,10.2495251,-50.8625946,101.7480927,-76.9007645,-1.7740943,0.8738791,10.5440102,3.8396947,-1.4961832,-6.5877862
5460,19.6126022,2.8466914,11.8584204,-40.0381660,3.6641221,-134.7862549,-1.8531027,0.8236012,10.4961262,4.0916033,-2.0763359,-5.3511453
5470,19.6126022,2.3558824,12.1648769,-41.6717567,-136.1297760,-210.2671814,-1.9153515,0.7876883,10.4937325,3.7938931,-2.2977099,-3.6793892
5480,19.6126022,1.1827296,12.5838594,-33.5190849,-208.0763397,-250.1374054,-1.8459201,0.8283895,10.5344334,3.7099237,-2.7862597,-2.0534351
5490,19.6126022,-0.6320660,13.2829628,-20.3053436,-241.5725250,-250.1374054,-1.8028246,0.8236012,10.4745789,3.5343511,-3.1068702,-1.2061069
5500,19.5892582,-1.7381816,13.2446556,-6.8549619,-250.1374054,-250.1374054,-1.7549409,0.8906385,10.4506369,3.1603053,-3.6259542,0.5801527
5510,17.4177284,-2.8083842,12.8831339,12.8473282,-239.0992432,-250.1374054,-1.5897418,0.9217629,10.3357162,2.5801528,-4.0839696,1.0534351
5520,14.4848461,-3.1100521,12.2127600,29.7862587,-211.3053436,-250.1374054,-1.4436963,1.0151364,10.4410601,1.7404580,-4.6335878,1.8549619
5530,12.1600885,-3.2776453,11.5735121,41.5572510,-201.7862549,-250.1374054,-1.3982066,1.1300575,10.3428984,1.0687023,-4.8167939,2.7404580
5540,10.7906122,-3.1914546,10.4075413,45.8778610,-202.3282471,-250.1374054,-1.2952565,1.2162483,10.4697905,0.4732825,-4.8091602,2.5038168
5550,10.0675669,-2.9711890,9.5336628,46.7557259,-195.7404633,-250.1374054,-1.2114599,1.2761030,10.4769726,0.1526718,-5.3664122,2.4809160
5560,9.1194677,-2.8419030,8.6885138,45.0305328,-182.0000000,-250.1374054,-1.0342898,1.2784972,10.3788109,-0.1068702,-5.3206105,1.6564885
5570,7.7188668,-2.6048782,7.6159167,36.9312973,-170.8854980,-250.1374054,-1.0055596,1.2114599,10.4697905,-0.0229008,-4.6335878,1.1450381
5580,6.1099715,-2.2840567,7.0125809,25.8931293,-161.5877838,-250.1374054,-1.0869620,1.3072275,10.5440102,0.1450382,-4.6717558,-0.1297710
5590,4.5968437,-1.9560528,6.5672617,15.5267172,-150.7557220,-250.1374054,-1.1492109,1.3263810,10.5487986,0.2213740,-4.3053436,-1.1603054
5600,3.3063757,-2.0183017,6.4188218,6.2519083,-140.6488495,-250.1374054,-1.1659702,1.2210367,10.5224628,0.3053435,-3.5496182,-2.2366412
5610,2.2840567,-1.8650736,6.5672617,0.9694657,-137.1908417,-250.1374054,-1.2306134,1.2138541,10.5080976,0.4580153,-3.0076337,-1.5190840
5620,1.5250987,-1.7621235,6.7180958,-2.0458016,-134.3282471,-250.1374054,-1.4389079,1.1492109,10.4027529,0.4122137,-3.6564887,-2.2213740
5630,0.6320660,-1.6591733,7.0221577,-2.3740458,-134.2213745,-250.1374054,-1.4987626,1.1276633,10.4578199,0.3664122,-4.7862597,-2.9770992
5640,-0.6033357,-1.5227045,7.3932571,0.2290076,-132.6717529,-250.1374054,-1.5945302,1.0965388,10.4171181,-0.2900763,-5.3893127,-1.9389313
5650,-1.9321109,-1.5897418,7.6254935,3.9465649,-129.2977142,-250.1374054,-1.5011568,1.0318956,10.2926207,-0.9618320,-5.7022901,-1.9847329
5660,-3.1268115,-1.8602852,7.5201492,3.7251909,-118.9389343,-250.1374054,-1.4987626,0.9457048,10.3021975,-1.5877863,-6.1832061,-1.6717557
5670,-3.9360476,-1.9847831,7.5656385,1.0534351,-96.6106873,-250.1374054,-1.5250987,1.0342898,10.4266949,-2.3206108,-6.3511453,-0.7251908
5680,-4.5920553,-1.9536586,7.6853480,-3.6259542,-72.9694672,-250.1374054,-1.4963684,1.0318956,10.3596573,-2.6183207,-6.2977099,-0.5725191
5690,-6.2847471,-1.5466464,7.5632443,-13.3053436,-41.7175560,-250.1374054,-1.3838415,1.0654143,10.5368280,-2.6335878,-6.0076337,-0.4961832
5700,-7.8457589,-0.8595140,7.8888540,-25.7175579,-9.3435116,-250.1374054,-1.4221486,1.0989330,10.4961262,-3.0916030,-6.6183205,0.4503817
5710,-10.4266949,0.1867468,8.8249826,-34.6717567,22.6259537,-221.3587799,-1.3479286,1.1755470,10.4769726,-3.3053436,-7.5038166,0.9312977
5720,-12.7035694,1.9153515,10.8025827,-32.5496178,41.6488533,-176.1679382,-1.1970947,1.2186425,10.5511932,-2.8473282,-6.5038166,0.2824427
5730,-13.5032282,2.3846128,13.2446556,-10.2824430,43.6183205,-122.5267181,-1.2449785,1.2880739,10.5416164,-2.4809160,-5.8549619,1.0305344
5740,-13.4385853,2.3367288,14.5662489,28.7557259,31.8015270,-71.0839691,-1.2354017,1.3311694,10.3812056,-2.7022901,-6.6793895,0.5877863
5750,-12.0571384,2.1380112,13.9102411,74.7709961,23.7022896,-22.8854961,-1.2210367,1.3790531,10.3428984,-3.0229008,-7.2137403,0.2900763
5760,-10.3428984,2.1188576,11.9134865,114.5419846,16.2900772,16.5114498,-1.3982066,1.3383518,10.2638903,-3.1908398,-6.8854961,1.8015267
5770,-8.1115141,1.7333932,9.4378948,144.0000000,9.8396950,45.1145020,-1.3072275,1.3096216,10.3189564,-4.4427481,-7.0305343,2.9160306
5780,-6.4451580,1.1994889,7.1682034,164.9389343,5.6030536,64.0763321,-1.2617378,1.1396341,10.3285332,-6.0076337,-6.1755724,3.6106870
5790,-5.0613165,0.6991033,4.9368186,176.7709961,-3.9770992,76.2366409,-1.2617378,1.1156923,10.4338779,-6.8549619,-6.3435116,4.1984735
5800,-3.8953462,0.5147507,2.7509236,179.5419922,-17.2061062,83.8091583,-1.0869620,0.9744351,10.5559816,-7.0305343,-7.2977099,3.3435113
5810,-3.3710186,-0.4955972,0.8427547,173.8015289,-35.8091621,89.3893127,-1.0965388,0.9816177,10.8097658,-5.9770994,-7.6488547,1.9694656
5820,-1.6280488,-0.6655847,-0.4740495,163.8702240,-47.7557259,94.7099228,-1.1468167,0.8212070,10.8791971,-4.1984735,-8.0229006,0.4885496
5830,0.6823440,-0.6416427,-2.0877333,150.0534363,-37.1450386,94.5496216,-1.2856797,0.8283895,11.0204544,-1.9770992,-7.6564884,-0.3664122
5840,4.0701222,-0.2753318,-5.0134325,132.3282471,8.9618320,88.9618301,-1.3670821,0.7398046,10.8169479,0.0458015,-6.5877862,-0.3511450
5850,5.6263452,0.7589580,-7.6422529,102.9312973,80.5877838,64.4885483,-1.4317253,0.7278336,10.7858238,1.3282443,-5.2061067,-0.0152672
5860,3.1220231,2.4037662,-7.7140784,58.7175560,129.5038147,25.1526718,-1.4676381,0.7014975,10.8193426,2.5954199,-3.1297710,0.5190840
5870,-4.3047528,3.4883339,-3.5386121,20.4809170,163.6412201,8.5190840,-1.4436963,0.7661406,10.7570934,4.1603055,-0.4961832,2.1374047
5880,-15.4161863,3.7971845,1.3886299,14.3740454,204.8320618,49.4885483,-1.4604555,0.7398046,10.8169479,5.5572519,2.0839694,3.7328243
5890,-19.6131992,4.4938936,4.4316444,40.8702278,250.1297760,188.9465637,-1.3527170,0.8619082,10.6685085,7.1526718,4.2824426,5.0000000
5900,-19.6131992,3.4787574,2.6431851,57.2595406,250.1297760,250.1297760,-1.2713146,0.9193687,10.6134415,7.4732823,2.6946564,5.7709923
5910,19.6126022,9.7347746,6.2967181,171.9923706,250.1297760,250.1297760,-0.8188128,1.6663558,10.2231894,0.5954198,0.3740458,-6.6946564
5920,19.6126022,9.8832140,-3.0071020,101.6870193,242.8625946,103.3358765,-0.7900825,1.5538290,10.2878323,-0.9541985,-0.8931298,-8.9465647
5930,19.6126022,4.4148855,-5.4779053,16.0687027,170.2519073,-28.4732819,-1.0247130,1.4436963,10.4171181,-2.0687022,-1.5725191,-10.7175570
5940,18.8063583,1.8914096,-0.5458752,-26.5801525,-8.4198475,-80.6259537,-1.0055596,1.3359578,10.3979645,-2.7633588,-2.5572519,-12.5419846
5950,11.5495701,0.7398046,5.3917146,-24.3129768,-189.7633514,-81.8396912,-1.2473727,1.2282192,10.4099360,-3.1679389,-3.2061069,-13.7404585
5960,10.7523050,1.8578910,8.5879574,-5.8015265,-232.8778687,-42.8625946,-1.3239868,1.0654143,10.4769726,-3.3969467,-3.0687022,-14.4732828
5970,12.4521790,3.8809812,9.7850523,10.9160309,-155.9618378,-10.9923668,-1.5131277,0.9361281,10.5535870,-3.2137403,-3.0305343,-15.1984730
5980,11.8919392,4.4029145,9.0859489,27.7328243,-50.6259537,6.0076337,-1.6783268,0.7733232,10.6038647,-2.6030533,-2.9083970,-15.2671757
5990,10.0891142,4.1754665,7.1969333,42.5114517,14.9847326,20.0763359,-1.9991482,0.6967092,10.6373835,-1.4580153,-3.7862597,-14.8702288
6000,9.1290445,4.0796990,4.9009056,52.4351158,31.5725193,32.2900772,-2.1068866,0.5746055,10.6948442,-0.5419847,-3.9160306,-13.2366409
6010,9.7443514,4.1994085,2.8658447,55.3587799,34.0992355,37.4427490,-2.2481439,0.5793939,10.5320396,0.1679389,-4.0992365,-11.4198475
6020,10.4362717,4.5681133,1.6950861,49.8167953,44.5801544,33.8091621,-2.2792683,0.6320660,10.3476868,0.2595420,-4.3816795,-8.2137403
6030,10.3428984,4.7117648,1.2162483,38.0610695,58.1984749,26.4122143,-2.2792683,0.6560079,10.5272512,0.1221374,-5.0534353,-5.3129773
6040,9.5815458,4.3813667,1.2521610,25.2519093,74.3206100,20.8320618,-2.0159075,0.7445929,10.4290895,-0.3435115,-4.7709923,-1.8778626
6050,6.4475522,3.1699069,2.1116750,-0.6641222,111.0839691,44.0000000,-1.4700323,0.8978211,10.5080976,-0.8854962,-4.1297708,2.6335878
6060,6.6893654,3.0932927,2.5043221,-2.2137403,105.1603088,56.6717567,-1.4508789,1.0462608,10.5631638,-0.4732825,-3.8549619,3.2900763
6070,8.2048874,3.1986370,3.0621684,-1.9770992,75.6793900,64.0305328,-1.1372399,1.1875180,10.6445665,0.4198473,-3.7709923,2.7175572
6080,9.4259243,3.5481887,3.0262554,-1.9312977,61.6488533,59.9007645,-1.0989330,1.2569494,10.5966825,1.1526718,-3.3435113,2.3435113
6090,10.2207947,3.7756367,2.6862805,-3.8549619,59.1297722,51.5648842,-1.0630201,1.2473727,10.4506369,1.7709924,1.2137405,1.5419847
6100,9.8089943,3.7780309,2.2481439,-20.4503822,75.6412201,37.0305328,-1.2904681,1.3551112,10.5272512,-0.0229008,-5.1297708,1.0992366
6110,10.1322098,3.3973548,2.3917952,-50.1755714,93.8778610,37.1526718,-1.3168042,1.2761030,10.6086531,0.1679389,-3.6870229,0.2290076
6120,10.9414454,3.3590479,2.3486998,-71.8702316,107.8625946,34.3435097,-1.2354017,1.3168042,10.5368280,-0.7480916,-5.6793895,-0.3282443
6130,11.2550850,3.3853838,2.4540441,-93.4809189,130.6412201,34.4656487,-1.2497669,1.2641320,10.5200682,-0.3358779,-4.5190840,-0.8396947
6140,11.7339230,2.8347204,3.1124463,-112.7786255,158.3358765,36.7709923,-1.2808913,1.2521610,10.5176744,0.2137405,-3.6106870,0.2137405
6150,12.3564119,2.6551561,4.0533628,-128.1832123,184.6106873,37.8625946,-1.2593436,1.2473727,10.4817610,0.4045801,-2.9236641,0.8091603
6160,12.9405937,2.8059900,5.1092005,-138.0534363,211.7022858,35.5496178,-1.2473727,1.2784972,10.5272512,0.6564885,-2.4732823,-0.3282443
6170,13.0219965,3.0454090,6.3541789,-142.2366486,243.0229034,30.9541988,-1.1300575,1.2042773,10.5128860,1.0916030,-2.2137403,-0.4809160
6180,12.8735571,3.0932927,7.6278877,-139.7099304,250.1297760,24.0534344,-1.0869620,1.1851238,10.3548698,1.1832061,-2.1832061,-0.2366412
6190,12.0068598,2.9041519,8.9375095,-133.3664093,250.1297760,14.2977095,-1.1132981,1.1947005,10.4314833,0.8091603,-1.3053435,-1.0076336
6200,11.7746239,2.3056045,9.5360565,-141.3358765,174.9923706,-1.1908396,-1.1444225,1.2330076,10.4506369,0.5648855,-0.8702290,-1.4580153
6210,13.8360205,1.5969244,9.6605549,-145.1145020,116.4656525,-30.8778629,-1.2952565,1.2258250,10.3883877,0.0916031,-0.9465649,-2.3206108
6220,13.7522240,1.2904681,11.0587606,-131.0763397,101.5877838,-64.2671738,-1.2593436,1.1420283,10.3692341,-0.2595420,-1.5114504,-3.3282442
6230,13.5774488,0.3830703,11.7171631,-111.2748108,72.1145020,-96.6412201,-1.3168042,1.0702027,10.4578199,-0.6335878,-1.5343511,-3.9923663
6240,13.6540623,-0.1340746,12.0379848,-87.7557220,43.1145020,-127.3587799,-1.3383518,1.0199248,10.4171181,-0.4045801,-1.6641221,-4.7022901
6250,13.7809544,-0.4668669,12.0882626,-63.5419846,14.3587790,-160.6183167,-1.3718705,1.0965388,10.4506369,-0.5954198,-2.1297710,-4.3969464
6260,13.7737722,-0.7350162,12.2271252,-43.2900772,-17.4656487,-196.7175598,-1.4413021,1.0390782,10.5368280,-0.7175573,-2.3206108,-5.0534353
6270,13.5535069,-1.1300575,12.3564119,-24.7633591,-42.6335869,-233.0915985,-1.5131277,0.9457048,10.4578199,-0.4732825,-2.9541984,-5.5877862
6280,13.3595772,-1.6639616,12.6987810,-4.2977099,-62.5648842,-250.1374054,-1.5538290,0.9480990,10.4721851,-0.3893130,-3.1755726,-5.8015265
6290,13.3404236,-2.3271523,12.8304615,21.0381680,-81.1068726,-250.1374054,-1.6304430,0.9289455,10.5679522,0.2442748,-3.3740458,-5.0305343
6300,12.8232784,-2.8562679,12.4713326,44.1450386,-101.6335907,-250.1374054,-1.6543850,0.9576758,10.4338779,0.1374046,-3.6030533,-5.3587785
6310,12.1457233,-3.2297616,12.2462788,63.9923668,-118.1374054,-250.1374054,-1.6519908,0.9648584,10.5104914,0.2748092,-4.3282442,-4.7022901
6320,11.4466200,-3.4548154,12.0571384,83.8015289,-130.7480927,-250.1374054,-1.7166338,0.9504932,10.5057030,-0.1908397,-5.4198475,-4.0458016
6330,10.1250277,-3.7038112,11.4657736,101.6183243,-135.0839691,-250.1374054,-1.6472024,0.9959828,10.4386663,-0.2671756,-6.2366414,-3.7709923
6340,8.6741486,-3.6894460,10.5823174,111.3816757,-137.9313049,-250.1374054,-1.5514348,0.9792235,10.3859940,-0.3740458,-6.0763359,-3.1908398
6350,7.5440907,-3.5697365,9.7012558,115.4885483,-138.7633514,-250.1374054,-1.5538290,1.0247130,10.5128860,-0.1908397,-5.8167939,-2.0534351
6360,6.3972740,-3.4236910,9.1577749,116.3969498,-137.2213745,-250.1374054,-1.4748207,1.1061156,10.5511932,0.2213740,-5.1679387,-1.3969465
6370,5.4491754,-2.7628946,8.7890692,116.5114517,-131.4274750,-250.1374054,-1.4748207,1.1348459,10.4985209,0.5038168,-3.8702290,-1.1068702
6380,5.0158267,-2.4803803,7.7739329,113.7251892,-125.1068726,-250.1374054,-1.2880739,1.2282192,10.3859940,0.7633588,-2.9389312,-0.1832061
6390,4.3478479,-1.9656296,6.8162575,104.3511429,-121.1450348,-250.1374054,-1.2090657,1.2330076,10.4075413,0.2595420,-3.0381680,-0.1526718
6400,3.7564833,-1.6759326,6.4834652,91.7709961,-117.6717529,-250.1374054,-1.2066715,1.3311694,10.4099360,-0.3358779,-4.0076337,0.1221374
6410,2.3606708,-0.8930327,6.3422079,81.6488571,-111.7251892,-250.1374054,-1.0318956,1.2904681,10.3381100,-1.1145039,-4.0763359,-0.8396947
6420,1.0127422,-0.5386927,6.0716643,71.9618301,-106.7557220,-250.1374054,-1.0654143,1.2904681,10.4410601,-1.6183206,-4.1450381,-1.8320611
6430,0.1891410,-0.2370248,5.9806852,61.0458031,-106.8473282,-250.1374054,-1.0654143,1.2258250,10.4506369,-2.0229008,-3.7709923,-2.8625953
6440,-0.1891410,-0.3854645,6.0070214,53.7557259,-102.5419846,-250.1374054,-1.1516051,1.1683644,10.4410601,-2.0992367,-4.4885497,-4.5190840
6450,-0.3543400,-0.6392486,5.9328012,49.3816795,-98.0457993,-250.1374054,-1.2401901,1.1923064,10.5583754,-2.1832061,-4.6106873,-4.8015265
6460,-0.8978211,-0.9816177,5.6885943,45.9694672,-94.3435135,-250.1374054,-1.3694763,1.0917504,10.5128860,-1.9618320,-4.4045801,-5.7022901
6470,-1.9799947,-1.0965388,5.4419928,43.6564903,-86.1755753,-250.1374054,-1.4389079,1.0486550,10.6014709,-1.5725191,-4.1908398,-5.7328243
6480,-3.1675127,-1.2808913,5.1187773,39.0152664,-75.9312973,-250.1374054,-1.5490406,0.9576758,10.4865494,-0.9847328,-4.2519083,-5.6946564
6490,-4.3286943,-1.7525467,5.4012914,29.6259537,-78.7404556,-250.1374054,-1.6376256,0.9816177,10.4817610,-0.5114504,-4.0381680,-6.1984735
6500,-5.0828643,-2.3079987,6.3398137,25.8702297,-75.8473282,-250.1374054,-1.7190280,0.8906385,10.3764172,-0.3893130,-4.1755724,-5.3511453
6510,-6.7420373,-2.6407909,6.8330169,29.7938938,-58.4122124,-250.1374054,-1.7764885,0.9145803,10.4434547,-0.6412213,-4.7480917,-4.4656487
6520,-8.4419117,-2.5929072,7.1298962,34.2061081,-40.3053436,-250.1374054,-1.8124014,0.8236012,10.4338779,-0.7099237,-5.5267177,-3.6793892
6530,-10.3045912,-2.1380112,7.0868006,39.9236641,-21.6793900,-247.7328186,-1.7309990,0.8571198,10.4362717,-1.0381680,-5.9007635,-2.9770992
6540,-11.9039097,-1.7214222,7.4076223,45.4732819,-9.1450386,-201.5190887,-1.5777708,0.9145803,10.5416164,-1.2366412,-5.9083967,-1.9618320
6550,-13.0626974,-1.4915800,7.4962072,52.9618340,-3.9541984,-151.7633514,-1.5610116,0.9433106,10.5320396,-1.4885496,-5.9007635,-0.4274809
6560,-13.8503857,-1.4820032,7.4579000,63.0610695,-1.2671756,-96.7938919,-1.4436963,0.9241571,10.4889441,-1.0000000,-5.3587785,-0.0916031
6570,-14.2166967,-1.4173602,7.3405848,73.0992355,-3.0000000,-40.5572510,-1.4700323,1.0223188,10.7187862,-0.6564885,-5.6183205,1.0000000
6580,-14.3579540,-1.6783268,6.7899213,81.6183243,4.7099237,19.3587780,-1.2928623,1.1468167,10.6589317,0.1068702,-4.6030536,1.0229008
6590,-14.5925846,-2.0542145,5.8633699,85.6946564,28.2366409,85.0076370,-1.3263810,1.1228749,10.5655584,1.1374046,-3.8091602,1.6488550
6600,-15.4736462,-2.3056045,5.0924411,84.7633591,65.3969498,156.8854980,-1.2449785,1.3503228,10.5727406,1.7099236,-3.8625953,2.0305343
6610,-16.5653973,-3.0813217,4.7955613,81.3053436,108.7328262,242.7557220,-1.0941446,1.3168042,10.5416164,2.4122138,-3.0839694,1.1679389
6620,-18.5286331,-5.2648225,4.6279683,76.1068726,154.9465637,250.1297760,-1.1085097,1.3479286,10.4410601,2.9160306,-2.3740458,0.8549618
6630,-19.6131992,-7.4195933,4.9248476,69.3587799,195.0763397,250.1297760,-1.0175306,1.3239868,10.4362717,2.6946564,-2.0458016,0.1450382
6640,-19.4432125,-10.3979645,5.2169390,59.6717567,243.8244324,250.1297760,-1.0989330,1.2761030,10.3500814,1.9694656,-2.8625953,-0.5419847
6650,-17.1423969,-15.1264887,4.9248476,35.0228996,250.1297760,250.1297760,-1.1970947,1.2138541,10.3500814,0.8167939,-3.3740458,-1.4809160
6660,-12.5814657,-19.6131992,6.0908179,-1.4045801,250.1297760,250.1297760,-1.2832855,1.0965388,10.3883877,-0.3358779,-3.2824428,-2.3435113
6670,-5.5329719,-19.6131992,8.0085640,-41.8549614,250.1297760,250.1297760,-1.3455344,1.0773853,10.3500814,-0.9236641,-3.2366412,-2.4732823
6680,8.7890692,-19.6131992,8.8968077,-76.3282471,250.1297760,250.1297760,-1.5298871,1.0055596,10.6230183,-1.2366412,-3.9083970,-3.0000000
6690,19.6126022,-19.6131992,7.0508881,-139.8320618,250.1297760,250.1297760,-1.6974803,0.8930327,10.5631638,-0.6106870,-4.4961834,-3.2061069
6700,19.6126022,-19.6131992,5.4180508,-250.1374054,250.1297760,250.1297760,-1.8387375,0.8786675,10.5104914,-0.2366412,-4.6335878,-2.5190840
6710,19.6126022,-12.5575237,19.6126022,-250.1374054,250.1297760,250.1297760,-1.9728121,0.7781116,10.5487986,0.3587786,-4.6870227,-1.0763359
6720,19.6126022,1.2521610,19.6126022,-209.1908417,213.6030579,250.1297760,-1.9776005,0.7733232,10.6182299,0.7404580,-4.3664122,0.4274809
6730,19.6126022,0.2346306,19.6126022,36.9618340,-140.2824402,21.6870232,-1.9249283,0.7421987,10.6158361,0.9465649,-4.3816795,2.9465649
6740,19.6126022,1.3215926,19.6126022,222.4580078,-250.1374054,-210.0610657,-1.7238164,0.7541697,10.5823174,1.1679389,-4.5954199,4.0381680
6750,19.6126022,0.1340746,14.7051115,250.1297760,-250.1374054,-250.1374054,-1.4652439,0.7733232,10.5344334,1.5496184,-4.5190840,5.8244276
6760,8.5233145,1.5586174,5.5545197,250.1297760,-250.1374054,-250.1374054,-1.1779412,0.8547257,10.5080976,2.2442749,-2.4732823,6.3511453
6770,3.0789278,3.6726866,-0.3208214,199.4580078,-250.1374054,-132.8931274,-1.2042773,0.8978211,10.5416164,2.3587787,-2.1297710,5.8625956
6780,2.1404054,5.1858144,-5.0206151,111.9007645,-55.0381660,-11.2595415,-1.0390782,1.0271072,10.4793673,1.5267175,-4.1755724,4.5877862
6790,3.8019729,5.9830794,-5.5856438,26.4580154,124.8854980,69.8854980,-0.8786675,1.1731528,10.6302013,0.7022901,-5.6488547,2.4656489
6800,6.1075773,6.7420373,-3.0741394,-33.5038185,195.9694672,109.0457993,-0.7900825,1.2330076,10.5152798,0.8396947,-4.0992365,1.3969465
6810,8.1737623,6.5074067,0.6416427,-62.1603050,186.6412201,113.2290039,-0.7469871,1.4460905,10.4937325,1.4503816,-3.0916030,-0.3053435
6820,10.1824875,5.7269011,3.4548154,-60.2290077,164.4732819,97.8625946,-0.6440369,1.5466464,10.5464048,2.0534351,-2.7633588,-1.4961832
6830,10.4075413,5.0780759,4.4579806,-43.0305328,153.9923706,77.5419846,-0.6272776,1.6184721,10.4243011,2.3053436,-1.2977099,-4.0534353
6840,9.8137827,4.5250182,3.8378856,-26.3587780,151.5572510,59.2595406,-0.6368544,1.6184721,10.3859940,2.2595420,-0.0839695,-5.5038166
6850,8.5616217,4.3382711,2.8945751,-21.2595425,132.4198456,43.8320618,-0.6416427,1.6041069,10.2806492,1.8167939,1.3129771,-7.7557254
6860,7.9032192,3.9504125,3.4596038,-18.5954189,83.6259537,30.4580154,-0.5817881,1.5777708,10.2327662,1.2366412,1.6946565,-10.0458012
6870,8.5544386,3.4165084,4.9607606,16.3664131,-22.1908398,6.9770994,-1.1755470,1.2713146,10.5583754,-0.7175573,0.5114504,-17.2977104
6880,8.7340031,3.4308734,4.5944495,19.9160309,-24.4427490,7.5648856,-1.3910241,1.0390782,10.6325951,-0.5648855,0.1755725,-17.9541988
6890,8.7699156,3.5793133,4.2592630,19.4045811,-15.0763359,10.8854961,-1.5658000,0.9528874,10.6110477,0.3816794,-0.4045801,-19.2137413
6900,8.1593981,3.5362179,3.7995787,13.9694653,13.0000000,22.4809170,-2.1212518,0.7996593,10.6828737,1.7862595,-3.9618320,-18.3435116
6910,8.1474266,3.6918402,3.6080434,10.3511448,20.3664131,30.8015270,-2.1595588,0.7014975,10.4865494,2.4274809,-4.3358779,-16.2748089
6920,9.1649570,3.8283088,2.9616125,-4.8320613,41.4885483,38.9007645,-2.4803803,0.6967092,10.4338779,2.6335878,-3.5877862,-10.6412210
6930,9.6821022,3.8259149,3.4045374,-14.0534353,44.2977104,38.2137413,-2.6240315,0.6607963,10.2950144,2.3358779,-3.5343511,-7.2366414
6940,10.1633339,3.6631098,3.9432299,-19.6717548,43.4503822,34.2595406,-2.5761478,0.7589580,10.3740225,1.3969465,-4.3664122,-3.1297710
6950,10.3668404,3.4548154,4.2329268,-21.3969460,42.1145020,27.8473282,-2.2840567,0.7852941,10.2255831,0.5114504,-4.8396945,1.4427481
6960,10.3596573,3.2824337,4.3717899,-22.2595425,41.4580154,21.0076332,-2.0278785,0.8427547,10.3596573,-0.5114504,-5.0305343,4.1145039
6970,10.1322098,3.2249732,4.6423335,-23.3740463,43.5419846,16.0305347,-1.7309990,0.8595140,10.4530315,-1.0610687,-5.2671757,6.2595420
6980,9.6892843,3.0765336,4.6710634,-24.0839691,45.8015251,14.2442751,-1.5562232,0.9433106,10.4889441,-1.2061069,-5.7328243,6.8549619
6990,9.4067707,2.7413468,4.9224534,-24.7709923,53.4122124,14.4656487,-1.4197544,0.9840119,10.5487986,-0.9007633,-6.0229006,6.8244276
7000,8.9853926,2.7245877,5.0924411,-24.1679382,60.3587799,18.0152664,-1.4245427,1.1204807,10.5775290,-0.5114504,-5.7786260,7.5419846
7010,9.0380650,2.8131726,5.2193332,-24.5190830,67.8167953,23.3511448,-1.3766589,1.1013272,10.5416164,-0.1450382,-5.6335878,7.6717558
7020,10.5296450,3.0861101,5.4683285,-22.8854961,70.3053436,27.3511448,-1.3598996,1.1970947,10.5440102,1.0458015,-3.2137403,7.2595420
7030,11.7746239,3.3231349,5.7269011,-22.1145039,59.5114517,20.4045811,-1.3838415,1.2090657,10.4362717,1.2748091,-2.7938931,7.4274807
7040,14.0467091,3.6631098,5.8298512,-23.2671757,36.6259537,-6.8396945,-1.4221486,1.1875180,10.4099360,1.3893130,-3.5496182,7.0534353
7050,15.2677460,3.7062054,6.0046272,-24.9618320,24.9312973,-25.7175579,-1.3814473,1.1659702,10.4099360,0.9541985,-5.0687022,5.9465647
7060,16.5486374,4.0126615,6.0357518,-27.7709923,8.8931293,-49.2137413,-1.3383518,1.1875180,10.3381100,0.3664122,-6.3282442,4.9007635
7070,17.6595421,4.2041965,6.3110833,-33.4885483,-12.4732828,-80.8931274,-1.2258250,1.1180865,10.4626083,0.1832061,-6.9541984,3.4885497
7080,18.0162754,3.8642218,6.8880830,-39.6106873,-30.0305347,-114.1526718,-1.0893562,1.1947005,10.4937325,0.2519084,-5.6870227,2.4961832
7090,17.5398312,3.4907281,7.7045016,-43.8320618,-45.1984749,-144.8931274,-1.2018831,1.1899122,10.4626083,0.3282443,-5.3740458,1.8244275
7100,17.0059280,2.9975252,8.5735922,-43.8091621,-58.4427490,-172.0305328,-1.1539993,1.2234308,10.6589317,0.0992366,-6.7328243,1.6030535
7110,16.3068237,2.3750360,9.0021524,-38.1526718,-64.6488571,-195.8167877,-0.9265513,1.1755470,10.5799236,0.9007633,-4.5267177,0.3053435
7120,15.8184099,1.9680238,9.0548248,-29.9694653,-68.9465637,-217.1145020,-1.0558375,1.2880739,10.5559816,1.5572519,-3.1679389,-0.5343512
7130,15.3323889,1.8052188,8.7076674,-21.2137413,-75.9770966,-237.8549652,-0.8858501,1.3263810,10.5823174,2.1374047,-2.9618320,-1.4656489
7140,14.8583393,1.7429699,8.4778252,-14.0152674,-89.5114517,-250.1374054,-0.8068419,1.3335636,10.5487986,2.5954199,-1.5038168,-3.3435113
7150,14.7745428,1.6136837,8.1067257,-8.7480917,-108.5038147,-250.1374054,-0.8188128,1.3168042,10.5080976,3.0534351,-0.0229008,-4.8702292
7160,15.2701406,1.1970947,8.1474266,-3.8854961,-131.5648804,-250.1374054,-0.7637464,1.4101776,10.4075413,2.8854961,0.5725191,-6.4198475
7170,15.6508169,0.7086801,7.9941988,-1.8625954,-146.9084015,-250.1374054,-0.9504932,1.3886299,10.3620520,2.1526718,-0.2671756,-8.4656487
7180,14.8774929,-0.0191535,8.2431946,-2.1908398,-159.9541931,-250.1374054,-0.9983770,1.3048333,10.2854376,0.9618320,-0.9923664,-9.9541988
7190,12.9812956,-1.1947005,8.8680773,0.5572519,-171.2824402,-250.1374054,-1.2210367,1.3120158,10.3500814,-0.2213740,-1.4503816,-11.2442751
7200,10.4530315,-2.1044924,9.0572186,10.5954199,-174.8320618,-250.1374054,-1.4006008,1.2832855,10.3835993,-1.0610687,-0.7099237,-11.3511448
7210,7.9582858,-2.6000898,8.9542685,21.1603050,-180.1450348,-250.1374054,-1.4820032,1.1851238,10.5152798,-1.0763359,-0.4122137,-11.7099237
7220,5.4826937,-2.6910689,8.7435799,31.5038166,-192.7862549,-250.1374054,-1.5634058,1.1348459,10.4817610,-0.6030535,-0.2519084,-11.8167934
7230,3.5793133,-2.4444675,8.4921904,38.9465637,-202.1755676,-250.1374054,-1.6256547,1.0654143,10.6158361,-0.0305344,-0.8625954,-11.4580154
7240,2.1356170,-2.2194135,8.4155760,44.9083977,-209.6793823,-250.1374054,-1.7118455,1.0534433,10.6685085,0.6870229,-1.5954199,-11.4580154
7250,0.9145803,-1.8794388,7.8002691,47.0228996,-213.3511505,-250.1374054,-1.7142396,0.9744351,10.7116032,1.5496184,-1.8015267,-10.8854961
7260,0.0407012,-1.5658000,7.6326761,45.6641235,-213.1908417,-250.1374054,-1.8339491,0.8738791,10.6349897,2.4656489,-2.1145039,-9.2137403
7270,-0.9050036,-1.2641320,7.7236552,45.4961815,-203.7862549,-250.1374054,-1.9416877,0.9337339,10.6014709,3.3129771,-1.9389313,-7.7175574
7280,-1.7788827,-1.2425843,7.1825686,44.7862587,-183.7022858,-250.1374054,-2.0087249,0.9504932,10.5942879,4.0229006,-1.5419847,-6.4809160
7290,-3.5410061,-0.9121862,6.5816269,39.7633591,-154.5038147,-250.1374054,-1.9632354,1.0247130,10.4434547,4.7786260,0.0381679,-4.4732823
7300,-5.3151007,-0.4453192,6.3829093,29.1297703,-122.9236679,-250.1374054,-1.9823889,1.0486550,10.4290895,4.6412215,0.1221374,-2.6793892
7310,-7.0604649,0.0790083,6.4858594,16.7480907,-83.5877838,-250.1374054,-1.9081690,1.0773853,10.3189564,3.9389312,-1.2671756,-1.0534351
7320,-8.1522150,0.1292862,5.8849177,5.5801525,-35.0534363,-238.4580078,-1.6711442,1.0989330,10.2543135,2.8015268,-2.3969467,0.9770992
7330,-9.0955257,0.7900825,5.3390427,-6.6793895,-2.7938931,-193.5190887,-1.6256547,1.2018831,10.2184010,1.4274809,-4.2213740,1.0687023
7340,-9.3349447,1.3168042,5.7292953,-16.9847336,15.4274807,-152.2290039,-1.4006008,1.2282192,10.3381100,1.4274809,-2.1755726,0.5114504
7350,-9.3564920,1.3455344,6.3685441,-18.6183205,36.0763359,-112.5877838,-1.3790531,1.2761030,10.3859940,0.5572519,-4.4732823,0.8244275
7360,-9.5695753,1.3431402,6.4499464,-17.8702297,56.5572510,-74.3893127,-1.3934183,1.3838415,10.3692341,-0.0839695,-4.1221375,-0.0916031
7370,-9.5336628,1.2186425,6.5289545,-17.2137413,71.9236679,-36.0152664,-1.4413021,1.3407460,10.3524752,-0.4885496,-4.1221375,-0.5343512
7380,-9.1218615,1.1396341,6.8042865,-14.4961834,88.0305328,-0.9236641,-1.3886299,1.4221486,10.4171181,-1.0000000,-3.9770992,-1.0381680
7390,-8.8249826,0.8092360,7.0484939,-8.2824430,104.6641235,30.0839691,-1.4891858,1.3790531,10.4075413,-1.3893130,-3.8091602,-0.6793893
7400,-8.5281029,0.4692611,7.1346846,-0.1526718,119.9618301,58.6870232,-1.6256547,1.4006008,10.3979645,-1.3664122,-4.3740458,-0.9465649
7410,-8.4634600,0.0239419,7.0963774,10.2900763,135.5572510,86.4274826,-1.6879035,1.2665262,10.2782555,-1.8320611,-5.0076337,-1.1908396
7420,-9.0165176,-0.3734936,6.9503322,23.1908398,151.3206177,116.7480927,-1.8124014,1.2258250,10.3141680,-2.3816793,-4.9923663,-0.6488550
7430,-10.5535870,-0.6368544,6.0740585,35.7328262,172.7099304,155.8244324,-1.8195840,1.1132981,10.3955708,-3.1526718,-5.6030536,-0.3206107
7440,-13.0866394,-0.7014975,5.4012914,47.3358765,192.4656525,209.5877838,-1.9297167,1.0199248,10.4171181,-3.4885497,-6.0687022,0.3740458
7450,-16.1895084,-1.4724265,4.5369892,56.9389305,214.5877838,250.1297760,-1.8746504,0.8930327,10.4003592,-4.0000000,-7.2137403,0.4885496
7460,-19.6131992,-3.2967989,4.0126615,59.9312973,246.4732819,250.1297760,-1.9009864,0.8283895,10.6158361,-3.6641221,-7.9083967,1.4122137
7470,-19.6131992,-5.3151007,4.4962878,55.4580154,250.1297760,250.1297760,-1.8866212,0.8499373,10.6158361,-3.3435113,-8.2519083,2.9007633
7480,-19.6131992,-8.9925756,5.1546898,39.5572510,250.1297760,250.1297760,-1.8243724,0.8786675,10.7355452,-2.1755726,-7.7633586,3.7862597
7490,-13.9413652,-16.3044300,6.9144192,20.2595425,250.1297760,250.1297760,-1.8124014,0.9169745,10.7475166,-1.1221374,-7.0763359,4.8778625
7500,-3.8618276,-19.6131992,6.6917596,8.6946564,250.1297760,250.1297760,-1.6902977,0.9792235,10.6517487,-0.4503817,-6.8015265,5.9389315
7510,9.0332766,-19.6131992,4.7045822,-0.0610687,250.1297760,250.1297760,-1.5921360,1.0103480,10.5583754,0.0381679,-7.4885497,5.8091602
7520,19.6126022,-19.6131992,2.2481439,-4.1603055,168.5267181,250.1297760,-1.3527170,1.0965388,10.4985209,-0.0152672,-7.9007635,5.9770994
7530,19.6126022,-19.6131992,-1.2258250,-1.6335878,100.4809189,250.1297760,-1.2306134,1.1635761,10.5368280,0.2290076,-8.1526718,5.5496182
7540,19.6126022,-3.7971845,3.3375001,29.7022896,48.0610695,250.1297760,-1.1300575,1.2162483,10.4626083,0.1984733,-7.7175574,4.9083967
7550,19.6126022,13.0363617,7.9104018,52.6335869,-46.9618340,250.1297760,-1.0342898,1.3239868,10.4530315,0.8244275,-6.4961834,4.9847326
7560,19.6126022,9.8305416,3.9647777,55.0381660,-157.1984711,-55.3358765,-1.0031654,1.4053892,10.4195127,0.7633588,-5.5648856,4.3969464
7570,19.6126022,3.8809812,0.4357425,46.2595406,-200.3053436,-202.3969421,-0.9672526,1.4508789,10.4865494,0.4809160,-5.0458016,2.5877862
7580,19.0769024,1.0247130,0.3471575,30.2671757,-223.7328186,-227.7480927,-0.9744351,1.3455344,10.3261395,-0.4503817,-5.1450381,1.5190840
7590,6.9168134,1.1970947,1.0055596,15.7633591,-193.6335907,-158.3511505,-1.0318956,1.3575054,10.2614956,-0.9007633,-5.5648856,-0.0381679
7600,4.1850433,2.9568241,1.3958124,1.9847329,-102.7557220,-50.8091621,-1.0989330,1.2569494,10.2662840,-1.9236641,-4.7862597,-1.7404580
7610,10.5583754,6.5193777,0.6775556,-17.1603050,97.4580154,67.5572510,-1.1635761,1.0917504,10.3883877,-4.3129773,-5.2671757,-3.4809160
7620,11.9661589,7.1705976,0.5913648,-26.2748089,151.3511505,72.9694672,-1.2761030,1.0055596,10.5416164,-4.9312978,-5.6030536,-5.4198475
7630,11.9613705,6.6630292,0.9911944,-31.2213745,163.8549652,62.7404594,-1.2258250,0.9888002,10.7403336,-4.8167939,-6.2290077,-5.8320613
7640,11.1377697,5.7292953,1.8147956,-27.8549614,148.0915985,46.8854980,-1.1970947,0.9361281,10.9414454,-2.9847329,-5.9923663,-6.8931298
7650,10.0412302,4.8003497,2.5617826,-18.2824421,123.6259537,34.8854980,-1.2808913,0.9385223,11.0946741,0.1679389,-4.2900763,-7.5725193
7660,9.1625633,4.1587071,2.7317703,-5.9236641,106.2824402,28.9847336,-1.4269369,1.0702027,11.0587606,3.6793892,-2.6259542,-7.2671757
7670,8.4658537,3.8115497,2.5402350,5.4427481,87.0687027,26.5496178,-1.3910241,1.1324517,11.0276365,6.6946564,-0.6946565,-6.2595420
7680,8.0516596,3.7421181,1.9656296,14.6106873,49.9694672,22.4885502,-1.3862357,1.1707586,10.8672256,9.3816795,0.2900763,-6.1068702
7690,8.1761570,3.7995787,1.2521610,20.9465656,9.1526718,18.2366409,-1.3838415,1.2880739,10.6541433,10.9083967,0.9694657,-5.6488547
7700,8.5975342,3.7876077,0.5698171,21.2900772,-16.8778629,14.6259546,-1.3622938,1.4245427,10.3596573,11.0610685,2.0992367,-4.9160304
7710,9.1505919,4.2879934,0.1077385,2.4656489,-22.0305347,11.7480917,-1.2425843,1.4652439,10.0603838,8.2519083,1.8854961,-3.9312978
7720,9.5623922,3.9959023,1.0079538,-20.5419846,8.3511448,11.9770994,-1.1707586,1.4436963,10.1130562,3.7328243,0.5038168,-5.5267177
7730,9.0260944,3.7732425,1.9799947,-29.5801525,43.3664131,19.6106873,-1.3886299,1.2401901,10.2279778,1.6030535,-0.3206107,-7.2977099
7740,9.0236998,3.7062054,2.3367288,-29.7022896,60.1603050,25.8702297,-1.4915800,1.2808913,10.3117743,1.0305344,-1.0229008,-7.7175574
7750,8.7459745,3.5050933,2.5569944,-27.9694653,70.5114517,32.2366409,-1.5777708,1.1252691,10.3907824,0.2137405,-2.0534351,-8.3206110
7760,8.8417416,3.4476328,2.6719155,-25.3282452,70.1603088,38.0305328,-1.8052188,1.0917504,10.3859940,-0.4045801,-2.7709923,-8.0000000
7770,9.5504217,3.5242469,2.6671271,-24.0610695,65.4045792,41.3893127,-1.9656296,1.1037214,10.4195127,-0.9847328,-3.2748091,-6.5419846
7780,10.4147243,3.5817075,2.6216373,-25.5496178,62.9007645,41.2137413,-2.0733681,1.0295014,10.3859940,-1.1908396,-3.6793892,-5.4351144
7790,10.9773588,3.6248028,2.7078283,-30.4809170,63.0458031,38.3435097,-2.1451938,1.0438666,10.4243011,-1.1603054,-3.8015268,-3.3435113
7800,11.4921093,3.2058196,2.8538737,-37.6335869,63.6183205,35.4274826,-1.9847831,1.0271072,10.4458485,-1.0992366,-3.4122138,-1.7175573
7810,11.6644907,3.3997490,2.9448531,-48.9083977,59.0534363,29.0610695,-2.0087249,1.0630201,10.5511932,-0.6946565,-3.0152671,0.0687023
7820,11.7243462,3.5434003,3.2321558,-57.3053436,57.0076332,23.8931293,-1.8578910,1.0031654,10.7020273,-0.0076336,-3.1603053,1.2595420
7830,11.8967276,3.0310438,3.2872221,-64.6335907,58.0076332,19.6488552,-1.6783268,1.0438666,10.6900558,1.2595420,-3.2748091,1.7633588
7840,12.2845860,2.9903426,3.2393384,-71.0457993,60.0992355,14.8702288,-1.5945302,1.0342898,10.6445665,2.3587787,-2.9847329,1.4580153
7850,14.5782194,3.2369442,2.7772598,-98.3282471,59.1068687,-2.8396947,-1.4508789,1.1611819,10.4626083,4.8167939,-2.5648854,1.2366412
7860,15.7417955,3.5936785,3.3255291,-106.0610657,60.7480927,-14.1755724,-1.3431402,1.1875180,10.2758608,4.1221375,-3.1221373,1.0076336
7870,17.2190113,3.8330972,4.0078731,-109.5496216,62.8396950,-29.1374054,-1.4508789,1.2784972,10.2974091,2.8854961,-3.7862597,0.8549618
7880,18.0402184,3.3590479,4.0222383,-110.3053436,66.7480927,-49.3969460,-1.3934183,1.3048333,10.0532017,0.9847328,-5.0687022,0.2366412
7890,18.9045200,2.9831600,4.4029145,-110.8931274,51.8396950,-76.8778610,-1.3790531,1.3144100,10.1705170,-1.1297710,-6.1755724,0.3816794
7900,19.6126022,2.1978660,5.4515696,-108.5801544,18.4503822,-119.3358765,-1.3215926,1.3718705,10.2112179,-2.3129771,-7.2213740,-0.3282443
7910,19.6126022,1.3168042,6.4619174,-101.3740463,-33.3740463,-177.6946564,-1.3694763,1.3407460,10.3261395,-3.4351146,-8.0000000,-0.8167939
7920,19.6126022,0.6153067,6.6750002,-94.0992355,-85.8854980,-241.9694672,-1.3048333,1.3790531,10.4434547,-3.8702290,-7.8778625,-1.6106870
7930,18.6555233,0.3016679,7.0700417,-87.1221390,-133.5343475,-250.1374054,-1.3766589,1.3263810,10.5248566,-3.9541984,-6.8396945,-2.1603053
7940,16.6803188,-0.4094064,8.1641865,-79.6335907,-186.7938995,-250.1374054,-1.3838415,1.3479286,10.6325951,-3.5496182,-6.1755724,-2.3816793
7950,15.7226419,-0.7972651,8.9997578,-72.9083939,-240.6793823,-250.1374054,-1.3838415,1.2737088,10.6278067,-2.4732823,-5.2290077,-2.2442749
7960,14.1544485,-0.9265513,8.5903521,-69.0305328,-250.1374054,-250.1374054,-1.4580613,1.1516051,10.6589317,-1.1221374,-3.6412213,-2.4656489
7970,12.2774038,-1.3479286,7.3669209,-70.8931274,-250.1374054,-250.1374054,-1.4748207,1.1970947,10.7642756,-0.2671756,-3.7099237,-2.7557251
7980,11.1329813,-1.5921360,6.6175399,-74.2519073,-250.1374054,-250.1374054,-1.4508789,1.1994889,10.6445665,0.7099237,-2.8015268,-2.7099237
7990,10.3500814,-1.4676381,6.4044566,-72.9694672,-246.2442780,-250.1374054,-1.5250987,1.2186425,10.6349897,2.0000000,-2.7862597,-2.5572519
8000,8.8393478,-1.5394639,6.3446021,-67.6793900,-214.0610657,-250.1374054,-1.4149660,1.2234308,10.7044210,2.5725191,-3.5419848,-2.6030533
8010,7.4435349,-1.6400198,6.2464404,-63.5190849,-188.6870270,-250.1374054,-1.3670821,1.2282192,10.5942879,3.2671757,-2.1908398,-2.5190840
8020,5.9974446,-1.5753766,6.1243367,-61.5801544,-175.6717529,-250.1374054,-1.4628497,1.2761030,10.5104914,3.6717558,-1.8931298,-2.6106870
8030,4.5824785,-1.3239868,6.1913738,-61.2061081,-170.9465637,-250.1374054,-1.4604555,1.3814473,10.4961262,3.7709923,-2.2137403,-1.9541985
8040,3.5098817,-1.0606259,6.3613615,-61.5267181,-167.4427490,-250.1374054,-1.4125718,1.4006008,10.3357162,3.6564887,-1.4045801,-1.6259542
8050,2.7341642,-0.8475431,6.0932121,-63.4274826,-163.8167877,-250.1374054,-1.3215926,1.3886299,10.3572636,3.0076337,-1.5343511,-1.1297710
8060,2.0757623,-0.6392486,6.4020624,-66.3740463,-151.9313049,-250.1374054,-1.2856797,1.5179161,10.3141680,2.1374047,-1.8931298,-1.5725191
8070,1.1851238,-0.7805058,6.3589673,-68.1984711,-130.7862549,-250.1374054,-1.2952565,1.4820032,10.2734671,1.0763359,-2.5038168,-2.2519083
8080,-0.3543400,-1.1085097,6.3086891,-68.6488571,-102.8473282,-250.1374054,-1.2497669,1.4915800,10.1968527,0.1068702,-2.9847329,-2.4809160
8090,-1.8914096,-1.0151364,6.7180958,-65.9236679,-71.5343475,-250.1374054,-1.3479286,1.4317253,10.3141680,-1.1145039,-3.2977099,-2.7328243
8100,-3.3949606,-0.5841822,7.3741035,-60.4580154,-47.0610695,-250.1374054,-1.3718705,1.3551112,10.3021975,-1.9770992,-3.4351146,-3.4656489
8110,-4.5800843,0.0311245,7.8912482,-53.7480927,-27.4274807,-250.1374054,-1.4580613,1.2761030,10.2878323,-2.7251909,-3.9465649,-3.5648854
8120,-5.6071916,0.9457048,8.5688038,-44.8473282,-10.0305347,-218.9389343,-1.4652439,1.2401901,10.3692341,-3.2213740,-4.4198475,-4.3893127
8130,-6.2081332,1.6855093,8.9375095,-32.1145020,13.9389315,-185.1679382,-1.6256547,1.1396341,10.4338779,-3.4656489,-4.5267177,-4.6641221
8140,-6.4547348,1.9847831,9.0596132,-16.7633591,39.1145020,-152.1145020,-1.6711442,1.0725969,10.5440102,-2.9847329,-4.9007635,-4.9541984
8150,-7.0437055,2.2194135,8.9135675,-0.8320611,54.3511467,-121.7175598,-1.6663558,1.0055596,10.6349897,-2.3587787,-4.7480917,-5.0763359
8160,-7.8673067,2.6407909,8.2862902,14.2442751,63.6106873,-90.2290039,-1.6831152,0.9672526,10.6302013,-1.3206106,-3.8625953,-4.5114503
8170,-8.5041609,2.5043221,7.8194227,28.6412220,63.9923668,-57.5267181,-1.7645177,1.0199248,10.6900558,-0.1603053,-3.5725191,-4.6488547
8180,-9.1984758,2.2768741,7.2472115,42.7557259,59.4351158,-25.3893127,-1.8124014,0.9792235,10.6493549,0.7557252,-3.5419848,-4.4122138
8190,-10.1824875,1.8435259,5.8825235,67.1068726,54.1832047,47.7480927,-1.7166338,1.0678085,10.5511932,2.5267177,-3.3053436,-1.8931298
8200,-11.0108776,1.7477583,5.1953912,75.2213745,76.9007645,91.8625946,-1.6831152,1.1013272,10.4650021,2.9160306,-2.9770992,-1.4809160
8210,-12.4833040,1.5227045,4.7572546,77.4274826,110.8854980,149.0229034,-1.6400198,1.2210367,10.2926207,2.9007633,-3.0458016,-1.2977099
8220,-14.7194767,1.2976507,5.2097564,75.0839691,146.0610657,222.8244324,-1.4963684,1.3335636,10.2614956,2.4122138,-3.4580152,-1.0610687
8230,-17.1352139,0.0359128,6.5433197,74.3816757,175.5343475,250.1297760,-1.4077834,1.3694763,10.3045912,1.2519084,-4.3587785,-0.4427481
8240,-18.9140968,-2.0542145,8.2384062,82.0992355,220.6717529,250.1297760,-1.3335636,1.4006008,10.2184010,0.1297710,-5.0687022,-0.9465649
8250,-18.5214500,-6.0860295,10.1729107,106.6106873,250.1297760,250.1297760,-1.3359578,1.4556671,10.2184010,-0.8549618,-5.1297708,-1.0229008
8260,-14.3555603,-12.6868095,10.8648319,140.5725250,250.1297760,250.1297760,-1.2665262,1.5083394,10.3764172,-1.2519084,-5.0916033,-1.3053435
8270,-6.8761120,-19.6131992,8.9494801,160.1832123,250.1297760,250.1297760,-1.2210367,1.4628497,10.3835993,-1.6335878,-5.1068702,-1.5114504
8280,4.6638808,-19.6131992,5.1235652,148.1832123,250.1297760,250.1297760,-1.1587877,1.5011568,10.4410601,-1.5114504,-4.7099237,-2.7404580
8290,17.8462887,-19.6131992,-0.3734936,99.2290039,250.1297760,250.1297760,-1.0725969,1.4173602,10.5344334,-1.6183206,-4.2213740,-2.9694657
8300,19.6126022,-19.6131992,-1.5298871,10.2290077,250.1297760,250.1297760,-1.1587877,1.4269369,10.4147243,-1.3816794,-3.3511450,-4.7557254
8310,19.6126022,-19.6131992,6.3589673,-73.9923630,250.1297760,250.1297760,-1.1539993,1.3455344,10.4290895,-1.3358779,-2.5419848,-5.1755724
8320,19.6126022,-3.1746953,16.6635590,-70.9923630,250.1297760,250.1297760,-1.3407460,1.2976507,10.5320396,-1.3358779,-2.6183207,-6.5419846
8330,19.6126022,5.8777351,19.6126022,-6.1679387,206.1450348,250.1297760,-1.5346755,1.1563935,10.5727406,-0.8244275,-2.2519083,-7.0000000
8340,19.6126022,-1.1037214,12.1193867,59.7175560,31.0076332,-71.9694672,-1.6807210,1.1300575,10.4530315,-0.8167939,-2.3282442,-6.8625956
8350,19.6126022,-3.7756367,5.6000090,67.5114517,-250.1374054,-250.1374054,-1.7429699,1.0893562,10.5128860,-0.2061069,-2.4503818,-6.7480917
8360,9.5384512,-3.3925664,5.6598639,43.0458031,-250.1374054,-250.1374054,-1.7788827,1.0462608,10.4626083,0.3282443,-2.6335878,-6.2671757
8370,4.7381010,-1.6591733,6.7516141,31.3511448,-250.1374054,-250.1374054,-1.9009864,1.0223188,10.4362717,0.8625954,-2.6106870,-5.6564884
8380,6.0453281,1.0558375,4.6255741,26.8931293,-250.1374054,-162.2137451,-1.9608412,0.9193687,10.4314833,1.0229008,-2.9465649,-3.7786260
8390,7.2591825,3.3877780,2.6982515,27.8244267,-118.1755753,-54.3511467,-2.1332228,1.0390782,10.3572636,1.1068702,-3.5954199,-2.8091602
8400,8.4945841,3.7349355,1.6424140,3.9847329,218.6259613,111.5725174,-1.9177457,1.1635761,10.3644457,-0.3511450,-4.3358779,2.6259542
8410,8.6190825,3.5003049,2.2792683,0.3129771,191.8473358,105.2900772,-1.7788827,1.1970947,10.3357162,-0.7251908,-5.3740458,3.7557251
8420,7.9367380,2.6719155,1.4772149,7.4351144,16.8244267,16.6106873,-1.1180865,1.3024391,10.4434547,-1.4809160,-5.2137403,2.9312978
8430,7.3788919,2.2768741,1.6998745,-8.8091602,-12.3435116,18.9847336,-1.0893562,1.3383518,10.4386663,-2.4732823,-6.1297708,1.1832061
8440,7.8361821,2.2122312,1.8267666,-16.8244267,-14.7175570,24.8320618,-1.1372399,1.2162483,10.5176744,-2.9007633,-6.0305343,0.3129771
8450,8.4682484,2.2146254,2.2265961,-25.7786255,-11.5190840,30.9312973,-1.1970947,1.2042773,10.4578199,-2.3511450,-5.0687022,-0.7175573
8460,9.0356712,2.2625091,2.6599445,-32.7480927,-1.4198474,36.7251892,-1.2042773,1.2258250,10.6182299,-1.7175573,-4.9236641,-1.5801526
8470,9.5528164,2.0087249,3.2034254,-35.8854980,10.6259546,41.3587799,-1.3527170,1.1827296,10.5487986,-1.0381680,-4.1755724,-2.5343511
8480,10.0029240,1.9656296,3.4811516,-37.2748108,24.6793900,46.6259537,-1.3670821,1.1755470,10.6373835,-0.2290076,-3.8091602,-2.4809160
8490,10.4290895,1.8028246,3.5146701,-38.6488533,42.5496178,52.7557259,-1.3958124,1.2018831,10.5799236,0.5267175,-3.2442749,-2.7938931
8500,10.6996326,1.6711442,3.6104376,-41.3282433,60.5496178,60.0687027,-1.4365137,1.1899122,10.5703468,1.0687023,-2.3511450,-2.1832061
8510,11.3628235,1.5538290,3.3111639,-47.3435097,77.8244247,69.3053436,-1.4580613,1.2401901,10.6014709,2.1297710,-1.8320611,-3.0610688
8520,12.3588057,1.4700323,3.2273674,-56.7404594,97.7099228,77.2748108,-1.5442522,1.1803354,10.5487986,2.7709923,-2.4656489,-3.0076337
8530,13.5056229,1.3503228,3.5721307,-66.4045792,118.5877838,80.5190811,-1.6208663,1.1875180,10.4745789,3.2824428,-3.2824428,-3.5496182
8540,14.7122946,1.1611819,4.1898317,-74.1908417,130.6946564,74.7251892,-1.5634058,1.1899122,10.5033092,3.2061069,-3.0687022,-3.1297710
8550,15.7010946,1.0199248,5.3965030,-79.2519073,135.5419922,59.1450386,-1.6112895,1.2210367,10.3452930,2.6870229,-3.3206108,-2.1145039
8560,16.1607780,0.8116302,6.2272868,-79.3816757,129.7786255,37.0228996,-1.4365137,1.2210367,10.2543135,2.2977099,-3.3129771,-0.9389313
8570,16.2493629,0.5746055,6.9623032,-76.1526718,114.4122162,10.8473282,-1.2665262,1.1516051,10.3261395,1.8625954,-2.5877862,-1.1603054
8580,16.4313221,0.3950413,7.4435349,-68.6106873,90.9618301,-18.3206100,-1.2066715,1.1731528,10.3045912,1.1068702,-2.3664122,-1.9007634
8590,16.7736912,0.1939293,8.1091194,-57.0534363,61.9771004,-51.7938919,-1.2210367,1.2354017,10.2016411,0.1297710,-3.2061069,-3.1221373
8600,16.6372223,0.0885850,8.0995426,-45.0916023,33.5801544,-84.8473282,-1.1085097,1.2425843,10.1992474,-1.2748091,-3.4809160,-4.3053436
8610,16.6037045,0.1915352,7.5345144,-34.4503822,14.4961834,-114.8854980,-1.0725969,1.3527170,10.1944590,-2.9083970,-4.4961834,-4.9618320
8620,16.5582142,0.2585725,6.7133074,-28.7633591,5.3206105,-142.5038147,-1.0606259,1.3838415,10.2303715,-4.3206105,-5.3435116,-6.5496182
8630,16.9173431,0.0502780,5.6454988,-29.1221371,-2.2595420,-169.2824402,-1.2090657,1.4341195,10.5487986,-5.0229006,-6.1068702,-8.1679392
8640,17.8845959,-0.2777260,4.6926112,-36.6717567,-20.8549614,-205.7938995,-1.1539993,1.4101776,10.6086531,-4.5114503,-5.1374044,-9.2519083
8650,18.2628765,-0.4836263,4.6973996,-50.3969460,-55.7022896,-250.1374054,-1.1683644,1.3886299,10.7235746,-3.0839694,-4.2442746,-8.8854961
8660,17.8893833,-0.8882443,5.2935529,-65.5725174,-98.4961853,-250.1374054,-1.2497669,1.3575054,10.9965124,-1.1832061,-2.3816793,-9.1221371
8670,16.8479118,-1.5346755,6.4140334,-73.7251892,-126.5572510,-250.1374054,-1.2689204,1.3168042,10.8839855,0.8931298,-0.1832061,-9.6106873
8680,15.2773228,-2.4731977,7.2950954,-69.8854980,-137.1374054,-250.1374054,-1.3598996,1.2473727,10.7642756,2.8549619,0.9847328,-9.9618320
8690,13.8599625,-2.9089401,7.3070664,-59.8931313,-141.6183167,-250.1374054,-1.4867916,1.2042773,10.7068148,4.1679387,1.6259542,-9.9541988
8700,12.9932661,-3.0717452,7.2783360,-55.4198456,-150.2366486,-250.1374054,-1.5011568,1.1516051,10.5320396,5.2748094,2.1221373,-9.9389315
8710,12.4641504,-3.1004753,7.0987716,-53.8396950,-148.3358765,-250.1374054,-1.6328372,1.0965388,10.4578199,5.9465647,2.5648854,-10.0458012
8720,11.3508520,-3.2177906,7.5057840,-47.1526718,-135.4961853,-250.1374054,-1.7812769,1.0103480,10.4314833,5.6641221,2.3129771,-10.0152674
8730,9.7778702,-3.4021432,7.1346846,-35.8625946,-128.6870270,-250.1374054,-1.9081690,1.0582317,10.3189564,5.2519083,0.6335878,-9.7862597
8740,8.0037756,-3.1387823,6.3781209,-26.6641216,-122.3435135,-250.1374054,-2.0518203,1.0366840,10.1824875,4.3511453,-0.0305344,-8.6564884
8750,6.5959921,-3.1627243,6.1291251,-14.0000000,-99.6183243,-250.1374054,-2.2313845,0.9576758,10.1633339,3.0229008,-0.3511450,-7.5190840
8760,5.0421629,-2.4253139,6.1841912,-2.5190840,-94.7938919,-250.1374054,-2.3846128,0.9696468,10.1178446,1.3893130,-2.4198472,-4.9618320
8770,3.5505829,-1.2928623,5.8849177,5.1450381,-98.3664093,-250.1374054,-2.4181314,1.0055596,10.0220766,-0.4274809,-4.2442746,-2.5954199
