timestamp,rxacclX,rxacclY,rxacclZ,rxgyroX,rxgyroY,rxgyroZ,txacclX,txacclY,txacclZ,txgyroX,txgyroY,txgyroZ
0,1.0893562,-1.7501525,14.4465389,15.2748089,-219.5496216,-168.5343475,-0.9888002,1.6567791,9.8856087,5.3587785,-26.2519093,2.8702290
10,2.8323262,-2.1835008,16.1703548,28.3893127,-189.5954132,-164.0763397,-1.0462608,1.7262106,9.7874460,0.9083970,-28.0534344,1.8473282
20,2.9951310,-2.3822186,16.3954086,46.1221390,-167.9007568,-159.8473358,-1.0941446,1.7333932,9.9813757,-3.3893130,-34.0381660,2.3816793
30,4.2808108,-3.7397239,17.9037495,75.0381699,-133.1297760,-166.9923706,-1.1851238,1.7405758,10.2471304,-7.0152674,-42.0763359,3.1145039
40,4.4531922,-4.0892754,19.3618107,122.6183243,-135.1679382,-182.3664093,-1.1228749,1.7142396,10.4602137,-9.3358774,-42.2061081,3.5190840
50,3.6750808,-4.7764082,19.6126022,184.0076294,-165.8396912,-197.6946564,-1.2593436,1.5418580,10.7642756,-10.0992365,-48.6335869,3.7022901
60,2.5115047,-5.4395986,19.6126022,250.1297760,-209.1221313,-211.5954132,-1.0654143,1.4580613,10.7259684,-13.4427481,-68.6870193,3.3053436
70,1.6543850,-5.6574697,19.1583042,250.1297760,-243.9541931,-218.9313049,-0.3639168,1.2545552,10.6278067,-14.8091602,-65.9542007,-0.2977099
80,1.5562232,-5.0661049,16.6539822,250.1297760,-250.1374054,-219.7862549,0.0023942,1.0989330,10.4769726,-11.8549614,-54.5801544,-3.5496182
90,2.3558824,-4.2927818,13.0483322,250.1297760,-250.1374054,-221.2900696,-0.1029501,1.2018831,10.5535870,-8.0152674,-45.8473282,-3.6335878
100,2.9352763,-2.9544299,9.7108326,250.1297760,-250.1374054,-227.1679382,-0.0335187,1.1300575,10.4793673,-4.8091602,-31.5267181,-3.9389312
110,3.1770895,-1.7477583,7.6207051,250.1297760,-245.4503784,-232.7786255,0.3232156,0.8164186,10.5368280,-3.8625953,-21.1221371,-7.4885497
120,2.3941894,-0.7972651,5.6622581,250.1297760,-222.2900696,-234.0534363,0.5578461,0.9409165,10.5895004,-4.3511453,-17.0458012,-13.0916033
130,1.5945302,0.2681492,3.8522508,250.1297760,-206.8702240,-232.4961853,0.5722113,1.1468167,10.6876621,-5.2061067,-15.0000000,-17.4580154
140,1.3431402,1.3191984,2.8586621,250.1297760,-200.5648804,-229.8015289,0.5171449,1.0941446,10.6661139,-4.4122138,-13.3587790,-20.0839691
150,1.1444225,2.2936335,1.4963684,250.1297760,-193.3816833,-226.2519073,0.3088504,1.1755470,10.6469603,-1.6641221,-10.0763359,-21.2137413
160,0.7924767,3.3159523,-0.4309541,250.1297760,-192.0915985,-222.7709961,0.1436514,1.2162483,10.8265247,0.9083970,-6.9312978,-21.9618320
170,0.3423691,3.9240766,-2.2289903,250.1297760,-189.1297760,-222.0458069,-0.2513899,1.3598996,10.8791971,2.2442749,-7.7099237,-22.7404575
180,-0.8906385,4.8338685,-4.2353210,250.1297760,-186.3511505,-217.6717529,-0.5219333,1.4125718,10.9965124,2.7175572,-10.1374044,-21.0992374
190,-3.8881636,4.9176650,-6.4643116,250.1297760,-174.6412201,-193.4732819,-0.6009415,1.4125718,11.1497402,4.0992365,-11.4961834,-20.3664131
200,-2.3894010,6.9503322,-7.0413113,243.9389343,-151.8320618,-166.3893127,-0.7086801,1.4604555,11.0372133,6.3282442,-12.9618320,-19.1603050
210,-2.2050486,8.5448618,-8.5424681,205.2137451,-119.2900772,-145.6259613,-0.7637464,1.5658000,10.7092094,8.7633591,-14.2595415,-16.7404575
220,-3.1579359,9.0620070,-11.0539722,156.8931274,-97.3816757,-125.0457993,-0.6033357,1.4389079,10.4697905,9.7633591,-13.5496187,-14.5496187
230,-5.3965030,9.6174593,-12.9501705,93.5801544,-80.6946564,-94.2824402,-0.3327923,1.4029950,10.3835993,10.2519083,-5.9236641,-13.7709923
240,-6.0237808,9.9334917,-13.8815107,23.0152664,-58.9312973,-51.5343513,-0.2633608,1.3982066,10.3141680,9.9847326,3.8931298,-13.3206110
250,-5.7580256,10.2782555,-14.0945930,-47.2900772,-36.9465637,-9.3816795,-0.1029501,1.2569494,10.1393919,9.8091602,13.5801525,-13.8320608
260,-5.1499014,10.2902260,-13.8384151,-117.8167953,-5.1832061,28.3969460,0.3495516,1.3359578,9.8999729,9.6946564,27.9541988,-15.5801525
270,-4.6662750,9.5911226,-12.9046812,-187.4580078,36.6641235,63.1068687,0.4620786,1.2569494,9.6390066,10.1832066,47.6793900,-17.3664131
280,-4.4843168,8.7411861,-10.9294748,-250.1374054,75.6412201,95.6870193,0.3471575,1.2713146,9.7730818,10.0916033,64.1068726,-17.5190830
290,-3.9911139,7.3741035,-8.8273764,-250.1374054,102.9389343,125.7557220,-0.1125269,1.1132981,10.0388365,6.7633586,63.5267181,-20.5725193
300,-3.5864959,5.6862001,-6.3493905,-250.1374054,119.2061081,152.5190887,-0.0383070,1.1324517,10.6996326,0.3053435,49.2213745,-25.8396950
310,-2.7437410,3.8666160,-3.7876077,-250.1374054,128.1374054,177.0305328,-0.1053443,1.1803354,11.2909975,-2.6412213,36.5648842,-31.8167934
320,-3.3662305,2.4660151,2.9472473,-250.1374054,129.3358765,199.5038147,-0.2537841,1.1276633,11.6980095,0.7633588,31.1221371,-34.3893127
330,-0.4908088,1.0318956,3.7780309,-250.1374054,129.0076294,213.7709961,-0.5817881,1.0486550,12.0738974,9.2671757,32.5267181,-35.3435097
340,0.8283895,0.8259954,9.0452480,-250.1374054,111.9083939,215.3664093,-0.7326220,1.1755470,12.0595322,19.4198475,35.0000000,-34.4351158
350,4.2089849,0.7805058,14.4273853,-250.1374054,55.0076332,192.5343475,-0.6799498,1.3934183,11.7363167,27.1526718,33.7709923,-34.2748108
360,9.1218615,1.5179161,19.6126022,-227.0763397,-19.6335869,148.8015289,-0.9337339,1.5466464,11.2455082,31.9770985,35.3053436,-35.7022896
370,13.8336267,2.4875629,19.6126022,-107.3053436,-82.3435135,83.6717529,-1.2617378,1.5562232,10.8073711,34.9465637,36.1908379,-36.1374054
380,17.1902809,3.2225790,19.6126022,20.5496178,-112.3206100,3.3816793,-1.6615674,1.7740943,10.3548698,35.5343513,35.7709923,-33.9923668
390,17.5015240,3.0214672,19.6126022,127.8167953,-120.2442780,-77.0916061,-1.8267666,1.9033806,10.0053177,34.0610695,34.1984749,-31.7633591
400,15.9883976,2.7269819,14.4561157,200.0839691,-130.7099304,-150.3740387,-1.8770446,1.9680238,9.7706871,30.5038166,28.1526718,-30.3511448
410,13.2446556,2.5593886,9.5145092,234.8320618,-144.5114441,-210.3129730,-1.9560528,1.9536586,9.6773138,26.2977104,21.8244267,-28.8473282
420,9.6150646,2.5857246,7.0030041,245.3969421,-145.8778687,-248.2519073,-1.9345051,2.0206959,9.4690189,21.4198475,15.3358774,-28.8702297
430,6.4523406,2.7485294,5.8250628,245.6488495,-128.2824402,-250.1374054,-1.7621235,1.9680238,9.6366129,16.4656487,9.7404585,-28.5038166
440,3.8594334,3.3494711,4.7021880,241.1145020,-106.3587799,-250.1374054,-1.6424140,1.9201399,9.7491398,12.1526718,9.4732828,-28.6106873
450,2.4253139,4.2592630,3.8307030,235.7175598,-82.6793900,-248.8778687,-1.7405758,1.9488702,10.1250277,9.4045801,14.4656487,-28.2595425
460,1.3431402,4.9607606,2.6862805,232.8091583,-64.2748108,-239.7709961,-1.6256547,1.8866212,10.4506369,9.3969469,20.7099228,-26.9770985
470,0.7086801,5.4707227,1.1587877,232.2671814,-46.5419846,-231.9694672,-1.7621235,1.6687500,10.8959560,11.9465647,26.6412220,-26.6335869
480,-0.2489957,5.9112539,-0.8714849,230.3587799,-32.5877876,-223.9313049,-1.5753766,1.5155219,11.1042509,16.1832066,27.1908398,-26.8625946
490,-0.9169745,6.6558466,-3.1723011,220.0152740,-28.6335869,-217.3816833,-1.4341195,1.6088953,11.0348196,20.6641216,23.1068707,-28.6412220
500,-1.2832855,6.9982157,-4.5537481,201.3587799,-29.9694653,-214.1832123,-1.1468167,1.4700323,11.0683374,24.7328243,19.8091602,-31.2366409
510,-1.7357874,7.1729918,-5.6407104,180.1297760,-26.8244267,-210.5648804,-0.9313397,1.5298871,10.8025827,28.4580154,17.9312973,-35.8854980
520,-2.5378408,7.3286138,-6.5720501,159.9313049,-19.6335869,-207.1832123,-0.8690908,1.6184721,10.6038647,30.3893127,17.3893127,-40.8549614
530,-3.3997490,7.3118544,-7.3142486,140.6488495,-18.2137413,-203.6488495,-0.9648584,1.6543850,10.5296450,31.9465656,17.4885502,-45.7633591
540,-5.0349803,7.3908629,-7.5800037,122.7709961,-16.4274807,-197.0458069,-1.1563935,1.6112895,10.5895004,33.7709923,20.3969460,-48.8244286
550,-6.5217719,7.3884687,-7.7308378,107.2595444,-17.9236641,-186.7099304,-1.5753766,1.8171898,10.4482431,35.7328262,24.1450386,-51.6030540
560,-8.1522150,7.6518297,-8.3533268,93.9083939,-25.7328243,-174.9541931,-2.0518203,1.9297167,10.4243011,37.8473282,27.0916023,-52.9923668
570,-9.8736372,7.6039457,-9.2032642,78.7022934,-34.7938919,-159.2366486,-2.2816625,1.9105632,10.2950144,39.4732819,32.6793900,-52.2442741
580,-12.8160963,7.6446471,-10.5033092,57.7709923,-48.8091621,-131.6106873,-2.5546002,2.3726418,10.0388365,40.5801544,43.2366409,-51.5496178
590,-14.8750992,7.8936424,-11.2431135,31.4198475,-69.2290039,-89.9007645,-3.1315999,2.5498118,9.8473015,41.3664131,54.3435097,-48.3587799
600,-16.0434628,8.2264347,-11.8823624,1.2977099,-79.2137375,-38.8396950,-3.6200144,2.6886747,9.4283180,40.7862587,60.4274826,-41.2061081
610,-16.4815998,8.5161324,-12.5287933,-37.3129768,-75.7099228,16.3816795,-3.6511390,2.6886747,9.4833841,38.0992355,63.1450386,-32.9389305
620,-15.3323889,8.3844519,-12.4689388,-83.0457993,-61.2824440,70.6717529,-3.3542595,2.4540441,9.7395630,36.1450386,65.7022934,-28.2213745
630,-13.4098549,8.0995426,-11.6213961,-129.4198456,-44.5190849,117.4351120,-3.0118904,2.2601149,9.8640604,35.8244286,66.1145020,-27.2137413
640,-11.3604288,7.3693151,-10.2926207,-168.5343475,-31.0839691,156.4274750,-2.7892308,2.0733681,9.9143381,35.6335869,56.5419846,-29.8244267
650,-9.3253679,6.6079631,-8.8752604,-199.6335907,-23.7404575,187.9541931,-2.4492557,1.9177457,9.9071560,36.5572510,47.3969460,-34.1984749
660,-7.5225434,5.8825235,-7.1275020,-224.1450348,-18.2061062,212.7633514,-2.0542145,1.8004304,9.8784256,37.8625946,38.1755714,-42.1221390
670,-6.1339135,5.2576399,-5.4922705,-242.8015289,-8.0076332,233.9770966,-1.9895715,1.6352314,10.2112179,39.5801544,25.9541988,-51.0687027
680,-4.7548604,4.4986820,-3.7397239,-250.1374054,5.5725193,250.1297760,-2.0302727,1.5346755,10.6517487,42.2442741,7.4961834,-59.1603050
690,-3.4476328,3.8474624,-2.2098370,-250.1374054,18.8625946,250.1297760,-2.0542145,1.6041069,10.9486284,46.3587799,-6.4122138,-67.6564865
700,-2.3247581,3.2608860,-1.1468167,-250.1374054,28.6793900,250.1297760,-2.4684093,1.7621235,11.1114330,52.8854980,-13.0458012,-73.1145020
710,-1.0534433,2.6623387,0.2753318,-250.1374054,37.9618340,250.1297760,-3.1794837,2.0230901,11.0132713,61.4198456,-10.9541988,-75.3816757
720,0.2873027,2.1092808,1.1683644,-250.1374054,49.5114517,250.1297760,-3.6798692,2.3247581,10.5559816,68.9542007,-2.0305343,-74.4351120
730,1.2497669,1.7214222,1.8818330,-250.1374054,63.6335869,250.1297760,-4.2185616,2.4995339,9.6414013,74.1755753,9.9236641,-71.6183243
740,2.1308286,1.4508789,2.7054341,-250.1374054,78.3664093,250.1297760,-4.5465660,2.8131726,8.5017672,74.2595444,19.8854961,-67.7251892
750,2.9879484,0.8547257,3.6702924,-250.1374054,91.1297684,250.1297760,-4.5920553,3.1076579,7.6039457,68.7633591,25.4503822,-65.5496216
760,3.5577655,0.3639168,4.9870968,-250.1374054,102.9847336,250.1297760,-4.7141590,3.3327117,7.2352405,59.5267181,24.3206100,-61.5496178
770,4.2927818,-0.2011119,6.2871413,-250.1374054,112.2290039,250.1297760,-4.4603748,3.2848279,6.9982157,48.8778610,14.5877867,-58.2061081
780,6.1578555,-0.6560079,7.9870162,-250.1374054,115.9007645,234.0229034,-4.1802549,3.1339941,7.1801744,38.4580154,1.8625954,-58.4503822
790,7.7595682,-0.4357425,10.9079275,-250.1374054,112.4809189,200.0381622,-3.9575951,3.1148405,7.5871863,28.4045811,-11.3664122,-59.6412201
800,8.5735922,0.2346306,13.8671455,-250.1374054,96.2213745,156.6488495,-3.8187323,2.9304879,8.1378498,20.3435116,-25.7557259,-63.4122124
810,9.4378948,0.7589580,16.9053726,-239.9694672,52.1755714,109.2671738,-3.6295912,2.6479735,8.4179697,13.8931293,-45.1297722,-67.0000000
820,9.7275915,0.8954269,18.8183289,-181.9541931,-13.9618320,69.8167953,-3.4117200,2.6072724,8.5855637,7.8854961,-65.3816757,-71.3206100
830,9.9047613,-1.0007712,19.5820751,-124.4427490,-111.9465637,33.3740463,-3.4931223,2.6336083,8.6454182,1.9618320,-81.6641235,-74.9542007
840,13.8144732,-0.8666966,19.5677109,-57.5725174,-89.3282471,-5.9160304,-3.5553713,2.6886747,8.9327211,-2.7709923,-91.5190811,-76.4351120
850,13.3595772,-0.9648584,19.6126022,10.9236641,-69.1679382,-40.4656487,-3.4332676,2.6024840,8.8058290,-7.5877862,-98.5114517,-76.6106873
860,11.9063044,-1.0941446,19.5772877,79.6870193,-68.8167953,-63.6030540,-3.4284792,2.6360025,8.9063845,-12.7328243,-100.2213745,-77.4503784
870,11.9805241,-0.7182568,18.8350887,139.3893127,-87.3435135,-91.6946564,-3.8546450,2.5833304,8.7028790,-20.3435116,-114.3740463,-74.7938919
880,12.2199430,-0.2920911,17.9899387,186.7175598,-107.2824402,-127.5267181,-3.4212968,2.4708035,8.4706421,-32.2137413,-134.0000000,-72.1450348
890,10.6086531,-0.2082945,17.5087070,229.8473358,-112.2137375,-161.1374054,-2.6814921,2.3343346,8.5137377,-45.6183205,-142.1679382,-73.5572510
900,8.4850073,-0.1604107,16.1679611,250.1297760,-121.6717529,-179.6870270,-2.6647329,2.0590029,8.8297710,-55.9236641,-137.7938995,-75.7786255
910,7.1155310,0.6799498,13.3284531,250.1297760,-123.6488571,-187.8244324,-3.6846576,2.0111191,9.3397331,-62.9618340,-133.0076294,-72.4961853
920,6.3805151,1.1923064,9.4977493,250.1297760,-129.9007568,-191.3206177,-4.4555864,2.5593886,9.5169029,-65.5190811,-126.5496216,-55.7557259
930,6.3398137,1.9799947,5.6742291,250.1297760,-119.9312973,-204.1450348,-2.1188576,2.5976956,10.8001890,-63.7480927,-110.8473282,-50.2137413
940,5.9208307,3.1411765,2.1930776,250.1297760,-97.3740463,-221.1068726,-2.0853391,2.3630650,11.1593170,-54.4580154,-100.0305328,-55.3129768
950,4.4077029,3.9288650,0.3998296,250.1297760,-82.0381699,-235.3435059,-4.3071470,2.3199697,11.2119894,-45.4732819,-85.8015289,-52.5648842
960,2.9472473,4.2736282,-0.8116302,250.1297760,-87.5801544,-244.6335907,-5.3103123,2.7174051,11.0803089,-36.8015251,-77.6259537,-38.4732819
970,1.6256547,4.6255741,-1.7645177,250.1297760,-87.9236679,-246.5419922,-5.3797436,2.5761478,10.5104914,-29.8625946,-73.1297684,-21.6564884
980,0.8547257,4.6112089,-2.9472473,250.1297760,-70.7557220,-247.7786255,-4.5705075,2.4277081,9.5815458,-28.7251911,-69.6641235,-9.2290077
990,0.2298422,4.4053087,-3.4883339,243.1755676,-37.8931313,-250.1374054,-4.1323709,1.8531027,8.9758167,-32.7480927,-66.7328262,0.4351145
1000,-2.4157372,6.1339135,-3.9073172,227.9389343,-21.8015270,-250.1374054,-3.8091555,1.5681942,8.6980906,-38.7709923,-69.1374054,8.2290077
1010,-3.9312592,6.0261750,-4.6327567,209.2366486,-20.9847336,-250.0839691,-3.4835455,1.4987626,8.6526003,-46.0992355,-73.3664093,15.7938929
1020,-4.9535780,6.3134775,-5.6287394,191.3969421,-11.7480917,-236.1068726,-3.3398943,1.3742647,8.8393478,-53.5190849,-79.0076370,22.3358784
1030,-6.9096308,7.2304521,-6.4044566,171.8396912,4.5114503,-215.0381622,-3.1387823,1.2354017,9.0691900,-60.3816795,-83.0076370,30.5190830
1040,-7.5632443,7.6207051,-7.4842362,147.5572510,21.1450386,-187.9618378,-2.6455793,0.9959828,9.3014259,-67.7099228,-74.9923630,39.0687027
1050,-8.4371233,8.3030491,-8.2072811,120.4732819,30.2595425,-159.0534363,-1.8626794,0.6392486,9.6006994,-73.9389343,-56.0076332,45.8473282
1060,-8.3245964,8.4778252,-8.3844519,93.9847336,33.3282433,-132.3511505,-1.3215926,0.6057299,9.9287033,-76.0610657,-37.4961815,51.7251892
1070,-7.8242111,8.5520449,-8.3413563,71.6412201,36.5801544,-112.2824402,-1.2330076,0.6775556,10.4099360,-73.4274826,-22.7251911,58.4274826
1080,-7.3645267,8.2455883,-8.3365679,55.4045792,29.9312973,-98.6335907,-1.0438666,0.3160330,11.1186161,-67.9770966,-11.8931293,65.8396912
1090,-7.7906923,8.5161324,-8.5209198,44.5725174,21.5496178,-90.8091583,-0.9720409,0.1005560,11.4585905,-59.3893127,-7.7709923,71.2595444
1100,-8.8752604,8.1737623,-8.7723103,34.9618340,14.9312973,-81.1984711,-0.6943150,-0.1221037,11.2287483,-54.8091621,-3.2366412,74.9770966
1110,-10.3333216,8.2264347,-8.9422979,24.2442741,-5.3282442,-65.7251892,-0.2633608,-0.2585725,11.3628235,-52.3740463,4.8778625,76.0229034
1120,-11.7434988,8.1258793,-9.2391768,12.5725193,-26.2442741,-44.7175560,-0.2011119,-0.5722113,11.3819771,-50.3282433,9.2290077,74.4885483
1130,-13.3978844,7.9726510,-9.4977493,-3.0000000,-51.6335869,-14.8549614,-0.1508339,-0.4740495,11.2766323,-50.4732819,8.0763359,70.3206100
1140,-13.6325150,7.9678626,-9.4977493,-21.7862587,-74.9312973,24.9847336,0.0407012,-0.6105183,11.3293047,-47.6412201,1.8015267,64.5267181
1150,-12.7227230,8.0229292,-9.4091644,-44.2137413,-77.9847336,65.1297684,0.0837966,-0.3519458,11.1066446,-44.4351158,2.1068702,57.2748108
1160,-11.7051926,7.7859039,-9.0213060,-71.3129807,-68.6870193,101.8854980,-0.2274480,-0.3399749,10.9797525,-40.3282433,2.3893130,51.5343513
1170,-10.4506369,7.4124107,-8.0564480,-98.3587799,-66.1755753,135.5114441,-0.6847382,-0.4932030,10.8480721,-38.1450386,-1.4961832,47.4732819
1180,-9.0404596,6.9000540,-6.9431496,-117.8015289,-68.5725174,164.4274750,-0.8427547,-0.4860204,10.7882175,-41.6564903,-17.9618320,45.0534363
1190,-7.5704269,6.4260044,-6.0381460,-131.7786255,-71.9083939,190.3740387,-0.7254394,-0.4501076,10.6349897,-47.6412201,-31.5954189,42.7480927
1200,-5.7819676,6.1913738,-5.4898763,-143.6335907,-72.4427490,213.0000000,-0.5722113,-0.4118006,10.5200682,-51.2595406,-39.0381660,38.7633591
1210,-4.2808108,5.8968887,-4.7500720,-155.6717529,-68.9465637,231.4809113,-0.6129125,0.1029501,10.0747490,-55.0916023,-34.1526718,34.8320618
1220,-2.8586621,5.4348102,-4.0198441,-166.1297760,-64.3511429,247.1297760,-1.4029950,0.1268920,9.7850523,-60.0916023,-38.3206100,31.7633591
1230,-1.4867916,4.9440012,-3.3494711,-176.3129730,-50.3129768,250.1297760,-1.6304430,-0.0598547,9.7611103,-63.3816795,-51.9694672,32.4656487
1240,-0.4812321,4.5705075,-2.7030399,-187.7404633,-32.0916023,250.1297760,-1.4197544,-0.1460456,9.2990322,-68.0916061,-59.4274826,37.6641235
1250,0.1580165,4.2808108,-1.6831152,-200.0534363,-13.9694653,250.1297760,-0.9217629,-0.8307837,9.2104464,-74.3358765,-76.0839691,42.0916023
1260,0.8140244,3.8618276,-0.6272776,-211.3587799,8.6030531,250.1297760,-0.2418131,-1.0414724,9.0476418,-80.7175598,-83.9542007,41.0839691
1270,1.5274929,3.3183465,0.9433106,-220.3816833,32.5343513,250.1297760,0.4165890,-1.3359578,9.1505919,-88.2061081,-84.4961853,37.6641235
1280,2.3151813,2.8490853,2.7485294,-225.4045868,55.9771004,250.1297760,0.7398046,-1.3814473,9.5384512,-94.7175598,-84.1145020,32.6564903
1290,3.0023136,2.4516499,4.2903876,-225.0229034,83.7022934,250.1297760,0.8738791,-1.4724265,9.9885588,-100.5954208,-84.3282471,28.1374054
1300,3.3327117,1.8147956,5.2959471,-222.9770966,106.6259537,250.1297760,0.9217629,-1.8746504,10.9462337,-104.9694672,-103.6946564,25.2061062
1310,4.8458395,0.9864060,6.4571290,-219.6641235,107.8473282,250.1297760,1.6472024,-2.2888451,11.2024126,-105.8167953,-107.8778610,22.5572510
1320,8.9949694,0.9409165,9.2511482,-204.2900696,59.6030540,250.1297760,1.9225341,-2.4037662,11.1928358,-101.3511429,-110.9542007,16.5648861
1330,13.9293938,1.3263810,13.1560707,-164.0152740,-7.2519083,233.7557220,2.1595588,-2.7030399,11.3293047,-93.7328262,-112.4961853,10.8015270
1340,18.7058029,1.8890154,15.4090033,-104.8091583,-60.6793900,163.8015289,2.1954718,-2.7365584,11.2814207,-85.7633591,-107.1603088,6.1755724
1350,19.6126022,2.9448531,17.3387203,-41.6717567,-105.6412201,70.4961853,2.1332228,-2.6814921,11.3508520,-78.3053436,-100.4274826,4.5038166
1360,19.6126022,3.3231349,16.8167858,19.8625946,-134.0686951,-33.6870232,1.9776005,-2.6048782,11.2479019,-71.6030502,-95.1984711,6.0381680
1370,19.6126022,3.0669568,14.2885227,68.8091583,-154.8244324,-119.5877838,19.6126022,-5.3270717,19.6126022,-2.7022901,96.2824402,-5.0839696
1380,15.5550489,2.7293761,12.0930510,101.0152664,-175.1297760,-166.6106873,4.1874375,-3.4979107,7.3932571,20.3664131,-68.6870193,6.3053436
1390,13.1441002,2.9544299,10.5918941,122.2442780,-182.3969421,-180.8396912,-0.3064562,-2.2481439,8.1593981,8.1832066,-21.2519093,16.5496178
1400,12.4521790,3.6894460,9.3924055,136.0381622,-168.5343475,-184.6412201,0.9337339,-1.5729824,8.7962523,-7.9236641,-35.4656487,21.5038166
1410,12.0738974,4.3095412,8.6454182,143.7099304,-148.9847260,-191.8320618,4.8290801,-3.1339941,19.6126022,0.5419847,19.5343513,17.8244267
1420,11.2000179,4.4124913,7.7284436,147.8091583,-126.8549652,-199.3129730,3.0597742,-3.2273674,10.8145542,2.0152671,-24.8854961,20.9923668
1430,10.3668404,4.6207857,7.1179252,151.6564941,-105.8091583,-205.1755676,1.8004304,-2.8586621,9.7443514,0.4809160,-16.5419846,20.3587780
1440,9.7682934,4.6016321,6.6055689,158.0458069,-89.1297684,-216.3282471,2.4085546,-2.5282640,9.4977493,1.5801526,-12.4351149,18.5801525
1450,8.6382351,4.5968437,5.6095858,165.9618378,-74.6564865,-229.3129730,2.4492557,-2.7413468,9.9143381,2.0458016,-9.5419846,16.0458012
1460,7.6973190,4.3717899,4.6159973,173.7328186,-65.4961853,-243.1908417,1.9967541,-2.6934631,10.4195127,2.0610688,-9.9007635,13.1526718
1470,6.2584114,4.2185616,3.4332676,184.7633514,-58.5038185,-250.1374054,1.9249283,-2.6719155,10.4793673,1.6259542,-11.2671757,10.9160309
1480,5.0924411,4.1084290,2.0781565,196.1526642,-58.4656487,-250.1374054,1.9368993,-2.6575503,10.1441803,1.7022901,-11.7022905,9.4961834
1490,3.4907281,4.0222383,-0.1173153,203.2977142,-57.7175560,-250.1374054,1.8219782,-2.6910689,10.2399483,1.2824427,-10.5877867,8.2595415
1500,2.0877333,4.0413918,-1.7812769,201.4198456,-58.9618340,-250.1374054,1.8578910,-2.7940190,10.2591019,1.0839695,-9.1145039,6.7480917
1510,0.6200951,3.5146701,-3.0023136,200.2366486,-47.3664131,-250.1374054,2.0398495,-2.7389526,10.1250277,1.2137405,-7.8778625,5.1145039
1520,-1.4077834,3.4404502,-4.0270267,198.7022858,-34.3816795,-250.1374054,2.1475880,-2.6312141,10.3141680,1.7404580,-5.2366414,3.2061069
1530,-2.9544299,3.5841017,-5.2480631,192.3816833,-33.4580154,-250.1374054,2.0470319,-2.6240315,10.4434547,3.3969467,-3.1374047,1.6412214
1540,-4.1874375,3.7876077,-6.4786768,180.0534363,-31.0687027,-250.1374054,1.9536586,-2.5641768,10.5487986,5.2595420,-1.1526718,0.1755725
1550,-5.4755111,4.0653338,-7.4076223,161.9923706,-24.5801525,-250.1374054,1.7501525,-2.4971397,10.5033092,7.1832061,-0.6870229,-0.8854962
1560,-7.2448173,4.3502421,-7.9822278,138.7862549,-18.6488552,-250.1374054,1.5897418,-2.4301023,10.4793673,9.1297712,-0.8549618,-0.6412213
1570,-8.2647419,4.4771342,-8.3054428,113.5648880,-14.9160309,-243.8320618,1.2545552,-2.4013720,10.5487986,10.5877867,0.6183206,0.1603053
1580,-9.1051025,4.8242917,-8.3102312,90.1526718,-1.5572519,-221.2748108,1.3096216,-2.3702476,10.6278067,11.2290077,1.6106870,1.6335878
1590,-9.4881725,5.2169390,-8.4275465,67.4122162,13.5801525,-201.0000000,1.3814473,-2.3056045,10.4003592,12.2137403,3.0534351,4.5343513
1600,-9.7802639,5.2336984,-8.5616217,47.1755714,21.8167934,-184.8396912,1.4197544,-2.3582766,10.2686787,12.9007635,5.9083967,5.4809160
1610,-11.1138277,4.8793583,-8.5927458,33.0839691,26.6717548,-164.9770966,1.5011568,-2.4109488,10.3381100,13.3282442,8.9007635,6.3587785
1620,-12.3133163,4.6686692,-8.7483683,22.9083977,26.6946564,-140.1374054,1.6208663,-2.3223639,10.3692341,12.8931293,9.2595415,7.4274807
1630,-13.4409800,4.7692256,-8.6549950,13.4427481,16.5572510,-119.0152664,1.8626794,-2.3750360,10.3835993,12.5496187,10.6412210,6.9770994
1640,-15.3395720,4.5489597,-8.6382351,3.9465649,-7.3053436,-96.8778610,1.8411317,-2.4755919,10.2758608,12.0152674,11.8854961,5.8473282
1650,-17.4847660,4.5776901,-8.6023226,-5.5496182,-31.0305347,-64.7709961,1.8124014,-2.4588325,10.2686787,11.6030531,10.6717558,5.3664122
1660,-19.5150375,4.4029145,-8.2743187,-15.5038166,-33.5801544,-18.7251911,1.8435259,-2.3965836,10.2207947,11.4351149,9.9160309,3.7251909
1670,-19.6131992,4.3598189,-8.5233145,-29.7480907,-32.9465637,41.8244286,1.7597293,-2.3295465,10.2519188,11.0458012,8.0687027,1.4198474
1680,-19.6131992,4.4484038,-8.9758167,-49.9160309,-23.4274807,107.8778610,1.5466464,-2.2816625,10.2591019,10.6488552,6.6793895,-1.3129771
1690,-19.3426571,4.4124913,-9.1841106,-76.3893127,-1.8473282,171.5648804,1.3934183,-2.2936335,10.2567072,9.6717558,5.6641221,-2.5114503
1700,-16.8790359,4.2855992,-9.0452480,-106.7099228,14.6870232,224.0686951,1.2306134,-2.3151813,10.2040358,8.4580154,6.2748094,-2.3893130
1710,-14.4130201,3.9240766,-8.1115141,-132.4122162,22.0534344,250.1297760,1.2784972,-2.3008161,10.3428984,7.3511453,6.3587785,-3.3893130
1720,-11.9326401,3.4572096,-7.1753860,-151.0610657,31.8473282,250.1297760,1.3694763,-2.1068866,10.3452930,7.0763359,6.0152674,-3.5038168
1730,-10.0939026,2.8921809,-6.9503322,-168.4198456,55.7022896,250.1297760,1.4556671,-2.0350611,10.4075413,6.8931298,5.5343513,-3.5648854
1740,-8.4012108,2.0063307,-6.4619174,-190.5648804,85.2366409,250.1297760,1.5011568,-2.0183017,10.4099360,7.1450381,4.7404580,-2.7709923
1750,-6.6223278,0.9576758,-5.5569139,-214.9847260,109.3129807,250.1297760,1.6017127,-2.0230901,10.4219065,7.0152674,6.5496182,-1.9236641
1760,-4.3358769,-0.4333483,-4.2185616,-240.3206177,134.8091583,250.1297760,1.7549409,-1.9464760,10.5847120,6.8015265,10.4351149,-1.4122137
1770,-2.2242019,-1.6735384,-2.4923513,-250.1374054,168.7175598,250.1297760,1.6160779,-1.9680238,10.5966825,7.2442746,11.5954199,-2.5648854
1780,0.2657550,-2.5833304,0.8044477,-250.1374054,205.0305328,250.1297760,1.2593436,-1.9201399,10.6230183,7.2519083,12.5496187,-4.9694657
1790,3.2656744,-2.8610563,5.0732875,-250.1374054,241.9694672,250.1297760,0.9720409,-1.8459201,10.4889441,6.5114503,11.4732828,-5.7404580
1800,5.7340837,-2.7245877,8.8848372,-250.1374054,250.1297760,250.1297760,0.7709290,-1.8818330,10.3548698,5.7786260,8.5343513,-5.6641221
1810,7.9630742,-2.3774302,12.1768475,-250.1374054,250.1297760,250.1297760,0.6416427,-1.9392935,10.2926207,4.5419846,5.7557254,-4.5954199
1820,12.6197729,-1.4197544,17.3075962,-250.1374054,221.7480927,250.1297760,0.5865764,-1.9847831,10.2112179,2.8549619,3.2824428,-3.5801528
1830,19.6126022,0.4118006,19.6126022,-176.6488495,64.0992355,250.1297760,0.6512195,-2.0805507,10.3093796,1.3969465,1.6641221,-2.8778627
1840,19.6126022,2.2481439,19.6126022,-57.1297722,-63.4045792,149.5038147,0.8427547,-2.2768741,10.3548698,0.4274809,0.0381679,-2.6335878
1850,19.6126022,3.2321558,19.6126022,55.4198456,-132.2137451,27.9007626,0.8571198,-2.1835008,10.3524752,-0.0534351,-2.6488550,-2.9694657
1860,19.6126022,4.2808108,16.0841656,132.0458069,-173.1908417,-79.4732819,0.9073978,-2.2002602,10.4195127,0.2366412,-5.4732823,-3.4656489
1870,19.6126022,4.3981261,11.5399933,169.4656525,-188.9541931,-151.9694672,1.0702027,-2.2816625,10.3524752,0.3053435,-4.5954199,-3.3206108
1880,18.2437229,4.2640514,8.0660238,181.3587799,-184.0610657,-193.0839691,1.1563935,-2.3822186,10.7116032,0.6870229,-2.9160306,-3.0458016
1890,14.8559456,3.8737986,6.1099715,185.1603088,-174.3816833,-212.5725250,1.1420283,-2.3199697,10.6637201,1.6793894,-1.2900764,-3.1603053
1900,12.6604738,4.4460096,4.5154414,179.2900696,-162.9007568,-221.2290039,1.1516051,-2.2265961,10.6158361,3.1526718,0.5877863,-3.2671757
1910,11.0204544,4.7404952,3.8426740,171.9618378,-134.5190887,-228.0305328,1.1372399,-2.0949159,10.6110477,4.2442746,2.2519083,-2.8778627
1920,9.8233595,5.0206151,3.6559272,166.1297760,-111.1755753,-235.2061005,1.0582317,-2.0254843,10.5655584,4.9541984,3.0458016,-3.4122138
1930,8.2120695,5.0110383,3.4883339,166.4809113,-92.4809189,-243.0534363,0.8786675,-1.9440818,10.5775290,5.3664122,2.4122138,-2.8015268
1940,6.8904772,4.9009056,3.0501974,172.5496216,-78.9694672,-250.1374054,0.7350162,-1.9273225,10.4793673,5.1832061,1.1679389,-3.0839694
1950,5.6526814,4.7883787,1.7836711,181.7709961,-70.1221390,-250.1374054,0.7086801,-1.9297167,10.3237448,4.2519083,0.4351145,-2.3282442
1960,4.2855992,4.4172797,-0.1197095,189.2290039,-70.4809189,-250.1374054,0.7757174,-1.8483143,10.2303715,2.7938931,-0.7557252,-1.1297710
1970,3.1818779,4.0844874,-2.2840567,190.2137451,-72.6488571,-250.1374054,0.7829000,-1.9033806,10.2160063,1.3435115,-2.4351146,-0.9847328
1980,2.0805507,3.9408360,-4.2472920,183.1221313,-76.1755753,-250.1374054,0.9002152,-1.8961980,10.2998028,-0.1221374,-4.4503818,-1.2824427
1990,0.8140244,3.6798692,-5.5138183,169.7404633,-84.4122162,-250.1374054,1.0510491,-1.9033806,10.3237448,-1.7709924,-5.6183205,-0.8167939
2000,-0.8690908,3.0310438,-6.0572991,157.3587799,-91.9694672,-250.1374054,1.1013272,-2.0446377,10.3907824,-2.7938931,-5.8167939,-1.2900764
2010,-2.6240315,2.7509236,-6.3924856,147.2213745,-99.3282471,-250.1374054,1.2090657,-2.0566087,10.5416164,-2.9694657,-5.8549619,-2.1297710
2020,-4.9392128,2.2170193,-6.3541789,136.6641235,-99.3282471,-250.1374054,1.1348459,-2.0829449,10.5224628,-2.8702290,-5.3740458,-2.5343511
2030,-7.5153608,2.0063307,-6.5816269,124.4503784,-87.9083939,-250.1374054,1.0582317,-1.9943599,10.5727406,-2.1679389,-5.2748094,-3.4045801
2040,-10.2160063,1.8938038,-7.1945391,107.1832047,-68.0000000,-250.1374054,0.9911944,-2.0757623,10.5966825,-1.0305344,-5.0152674,-3.5343511
2050,-13.4792862,2.0398495,-8.3892403,84.9007645,-44.9771004,-250.1374054,0.9289455,-2.0805507,10.5990763,0.1068702,-4.3664122,-2.7709923
2060,-17.1807041,2.5881188,-9.4690189,58.0916023,-16.5801525,-244.6717529,0.9911944,-2.0973101,10.5128860,0.9236641,-3.0992367,-1.9465649
2070,-19.6131992,2.9855542,-10.1513634,28.0381680,8.4885492,-183.5877838,0.9959828,-2.0206959,10.5918941,1.5648855,-2.2900763,-1.8625954
2080,-19.6131992,3.4284792,-10.4362717,-1.3435115,22.3358784,-110.7099228,0.8762733,-2.0997043,10.4626083,1.6564885,-2.5190840,-1.5114504
2090,-19.6131992,3.6008608,-10.5799236,-27.9236641,32.5190849,-35.4427490,0.9097920,-2.0973101,10.3428984,1.3282443,-2.7022901,-1.4732825
2100,-19.6131992,3.7325413,-10.2495251,-51.8396950,39.7709923,32.4045792,0.9433106,-2.2265961,10.3764172,0.5038168,-2.5801528,-1.0000000
2110,-17.7122135,4.1180058,-9.8808203,-71.1297684,39.5496178,86.7557220,1.0342898,-2.2529323,10.2591019,-0.2671756,-2.2061069,-1.5725191
2120,-15.6795464,4.5345950,-10.6278067,-88.8396912,55.0763359,125.7862625,1.1899122,-2.2696917,10.3883877,-0.9770992,-1.3587786,-2.3816793
2130,-15.3323889,4.4795284,-10.7427282,-116.1603088,73.3816757,161.0381622,1.3455344,-2.3079987,10.2447367,-1.5267175,-0.0763359,-3.7938931
2140,-13.9317884,4.5345950,-9.9598284,-143.5648804,80.9770966,197.0915985,1.4700323,-2.2313845,10.2543135,-2.3282442,1.4732825,-5.6335878
2150,-12.4426022,4.4795284,-8.7603388,-163.9236603,88.1679382,226.4198456,1.5035510,-2.2481439,10.3859940,-2.7557251,2.3282442,-7.2213740
2160,-11.4585905,4.2065907,-7.8194227,-180.6106873,89.4885483,250.1297760,1.4365137,-2.1308286,10.4099360,-2.5877862,3.3587787,-8.3282442
2170,-9.7299862,3.8594334,-7.1083484,-195.7480927,90.2290039,250.1297760,1.1923064,-2.1188576,10.5200682,-2.6870229,4.8167939,-8.8778629
2180,-7.9151902,3.3207407,-6.3422079,-210.9618378,91.3129807,250.1297760,1.0366840,-2.0254843,10.6924505,-2.0687022,5.3893127,-8.5114508
2190,-6.0668759,2.6934631,-5.1810260,-224.8396912,93.0305328,250.1297760,0.7709290,-1.9656296,10.7523050,-0.8244275,5.6564884,-8.0305347
2200,-4.1563129,2.2577207,-4.1634955,-237.0915985,98.1755753,250.1297760,0.7062859,-1.9297167,10.6613255,0.6488550,5.7633586,-7.2213740
2210,-2.6407909,1.5203103,-3.7780309,-250.1374054,113.3893127,250.1297760,0.6153067,-1.8267666,10.7307568,2.0534351,5.6564884,-6.3053436
2220,-2.9137285,0.4692611,-3.2800395,-250.1374054,139.3053436,250.1297760,0.4357425,-1.7669119,10.6325951,2.7404580,5.5114503,-4.4580154
2230,-3.1866663,-1.5346755,-1.9656296,-250.1374054,156.0305328,250.1297760,0.4572902,-1.7549409,10.5942879,3.2977099,4.4580154,-2.6183207
2240,-2.0159075,-3.3614421,-0.1244979,-250.1374054,178.6412201,250.1297760,0.4405309,-1.8004304,10.5607700,3.5496182,2.7251909,-1.6793894
2250,0.4692611,-4.6614871,2.6360025,-250.1374054,202.1145020,250.1297760,0.5769997,-1.8507085,10.4338779,3.0229008,1.0381680,-0.3206107
2260,1.9321109,-5.1379304,5.7484488,-250.1374054,245.5725250,250.1297760,0.5554519,-1.9273225,10.3668404,2.5343511,-1.2748091,-0.3358779
2270,4.0820932,-5.7340837,9.7204094,-250.1374054,250.1297760,250.1297760,0.7302278,-1.9584470,10.3788109,1.6488550,-2.9312978,-0.2290076
2280,7.9415264,-4.7979555,15.8160152,-250.1374054,250.1297760,250.1297760,0.7493813,-2.1164634,10.1848822,0.1450382,-4.2366414,-1.3206106
2290,15.4473104,-3.5362179,19.6126022,-250.1374054,199.2061005,250.1297760,0.8523315,-2.1020982,10.3045912,-1.1984733,-5.0534353,-2.5343511
2300,19.6126022,-1.4700323,19.6126022,-201.7862549,56.5954208,213.3816833,0.8523315,-2.1451938,10.2710724,-2.3740458,-5.8015265,-3.3206108
2310,19.6126022,0.3447633,19.6126022,-12.3358774,-61.7709923,60.5190849,0.9145803,-2.0206959,10.3141680,-3.2824428,-6.2213740,-3.7022901
2320,19.6126022,-0.6536137,19.6126022,168.0686951,-156.8015289,-102.2748108,0.9169745,-2.1188576,10.4410601,-3.3511450,-6.4045801,-3.5954199
2330,19.6126022,-1.5562232,19.6126022,250.1297760,-250.1374054,-234.5190887,0.9002152,-2.1332228,10.5655584,-2.7709923,-6.1068702,-2.8931298
2340,19.6126022,-1.8578910,13.5966015,250.1297760,-250.1374054,-250.1374054,0.8643024,-2.0637913,10.6397781,-2.0152671,-5.2671757,-2.6335878
2350,17.1423969,-1.3311694,7.7452030,250.1297760,-250.1374054,-250.1374054,0.8738791,-2.0733681,10.5751352,-0.9618320,-3.9007633,-2.2900763
2360,12.2103662,-0.0742199,4.4795284,250.1297760,-250.1374054,-250.1374054,0.8092360,-2.0637913,10.5751352,0.3282443,-2.8625953,-0.8244275
2370,7.9295554,0.8212070,2.5115047,250.1297760,-210.7938995,-250.1374054,0.9433106,-2.0637913,10.5009146,1.1908396,-1.7328244,-1.0839695
2380,5.0517397,1.1851238,1.0534433,250.1297760,-154.4732819,-250.1374054,0.8643024,-2.0302727,10.5368280,1.9465649,-1.1832061,-0.7251908
2390,2.4133430,1.4484847,-0.1292862,249.4198456,-119.5954208,-250.1374054,0.9457048,-2.0326669,10.5583754,1.8931298,-0.5572519,-1.6183206
2400,0.1699875,1.5681942,-1.0869620,236.1297760,-107.7938919,-250.1374054,0.9600700,-2.0254843,10.4673967,1.6335878,-1.0305344,-2.5114503
2410,-2.9687948,1.3670821,-2.4157372,226.9694672,-107.6870193,-250.1374054,0.9097920,-2.0039365,10.4003592,1.0152671,-1.5267175,-3.0610688
2420,-5.8011212,1.5610116,-3.4572096,218.1450348,-128.4885559,-250.1374054,0.8643024,-2.0422437,10.4075413,0.4427481,-2.3664122,-4.1603055
2430,-7.5871863,2.2457497,-4.0629396,209.1755676,-152.2595367,-250.1374054,0.8355721,-2.0183017,10.4266949,-0.3282443,-3.0381680,-3.8015268
2440,-9.4522600,2.9496415,-5.1738434,195.0076294,-149.3740387,-250.1374054,0.7876883,-2.0326669,10.4458485,-0.6641222,-3.5572519,-4.0458016
2450,-11.0707321,4.0078731,-6.4762826,171.3587799,-129.3740387,-250.1374054,0.7541697,-2.0637913,10.4530315,-0.7022901,-3.4503818,-4.2442746
2460,-11.8416615,4.7764082,-8.1234846,138.2061005,-88.7786255,-245.4427490,0.6464311,-2.0805507,10.5655584,-0.5038168,-3.8167939,-3.1908398
2470,-13.8192616,5.0493455,-9.5408449,98.5877838,-38.8473282,-206.6717529,0.6344602,-2.0254843,10.5799236,0.0076336,-4.5190840,-2.9694657
2480,-16.6898956,5.1642666,-10.1824875,58.7022896,-11.0534353,-158.9770966,0.6488253,-1.9967541,10.5344334,0.4351145,-4.6870227,-2.2290077
2490,-17.4512463,5.3342543,-9.9957409,26.5572510,-2.4656489,-102.9389343,0.7445929,-2.0781565,10.4290895,0.5114504,-4.2900763,-1.9770992
2500,-18.1096497,5.3821378,-9.7922344,1.3129771,9.2442751,-49.4656487,0.7900825,-2.0949159,10.4123297,0.4122137,-3.7557251,-0.9465649
2510,-18.7536869,5.5377603,-9.4833841,-23.5496178,15.7786255,6.3969464,0.9744351,-2.1068866,10.4554253,0.3206107,-3.5419848,-1.1450381
2520,-17.8534698,5.9232249,-8.9063845,-46.7709923,29.1450386,61.6183205,0.9744351,-2.0805507,10.4195127,0.1374046,-3.4122138,-1.8778626
2530,-16.8335457,6.0501165,-8.3868456,-69.8396912,53.9771004,112.4961853,0.9720409,-2.0470319,10.4482431,-0.1068702,-3.4274809,-2.1450381
2540,-16.0674057,6.0716643,-7.9127960,-91.4580154,75.0534363,161.0458069,0.9504932,-2.0446377,10.4266949,-0.1526718,-2.8320611,-2.7786260
2550,-14.6237087,5.7101417,-7.4818420,-111.6717529,88.0076370,208.4580078,0.8786675,-2.0398495,10.4554253,-0.2442748,-2.8167939,-3.4961832
2560,-12.5575237,5.2743993,-7.0748301,-129.4580078,98.3587799,250.1297760,0.7589580,-2.0446377,10.5416164,-0.0534351,-3.6335878,-3.3664122
2570,-10.5033092,4.8985114,-7.0053983,-147.8320618,110.7480927,250.1297760,0.6440369,-2.0183017,10.5583754,0.0687023,-4.1755724,-3.4045801
2580,-8.3102312,4.4603748,-6.9431496,-170.3282471,125.4427490,250.1297760,0.6679789,-2.0063307,10.4362717,0.0916031,-4.4656487,-2.4045801
2590,-6.1243367,3.6678982,-6.4954362,-195.6870270,144.4809113,250.1297760,0.5362985,-2.0470319,10.4147243,-0.1526718,-4.7099237,-1.7022901
2600,-3.9863255,2.9113343,-5.3486195,-223.1984711,169.7557220,250.1297760,0.5841822,-2.1164634,10.4171181,-0.6183206,-5.0076337,-0.3816794
2610,-2.0637913,1.7717001,-3.7062054,-247.0610657,194.9007568,250.1297760,0.6823440,-2.1954718,10.4578199,-0.8167939,-5.1755724,-0.2061069
2620,-0.3303981,0.5291159,-1.9895715,-250.1374054,217.5725250,250.1297760,0.7900825,-2.1164634,10.4434547,-0.7251908,-5.2595420,0.2748092
2630,1.9033806,-0.4213773,0.8738791,-250.1374054,231.1145020,250.1297760,0.8427547,-2.2098370,10.5009146,-0.4961832,-4.9007635,0.0839695
2640,4.4460096,-1.0725969,3.7995787,-250.1374054,228.0534363,250.1297760,0.8571198,-2.1020982,10.6038647,0.0381679,-4.1374044,0.3893130
2650,8.5448618,-1.2808913,7.2591825,-250.1374054,191.7633514,250.1297760,0.8475431,-2.0829449,10.6062593,0.8167939,-3.7862597,-0.1679389
2660,14.3052816,-0.3375807,10.7403336,-250.1374054,124.6488571,250.1297760,0.8690908,-1.9728121,10.6373835,1.6564885,-3.4961832,-0.1450382
2670,19.6126022,1.4724265,13.9748840,-205.2824402,52.4198456,250.1297760,0.7972651,-1.9943599,10.5583754,2.4656489,-3.3893130,0.0458015
2680,19.6126022,3.3231349,16.3738613,-145.2595367,0.3816794,156.6259613,0.8020535,-1.9321109,10.5464048,2.6564887,-2.9007633,0.2213740
2690,19.6126022,5.1092005,18.4544125,-73.5267181,-28.3358784,22.3664131,0.7948709,-1.9752063,10.5464048,2.5572519,-3.1374047,0.2595420
2700,19.6126022,3.9504125,18.1671104,10.7633591,-67.4503784,-105.4732819,0.8212070,-1.9105632,10.4841557,2.0763359,-3.2290077,0.3740458
2710,19.6126022,2.2601149,15.6268749,94.4656525,-116.0305328,-199.7251892,0.8499373,-1.9488702,10.3883877,1.3358779,-3.7175572,0.7022901
2720,17.3195667,1.6472024,12.4042959,155.9694672,-171.3511505,-250.1374054,0.8307837,-2.0398495,10.3931761,0.7022901,-4.2442746,0.4274809
2730,13.0339670,2.0206959,10.2662840,190.7251892,-218.1832123,-250.1374054,0.8092360,-2.0398495,10.3764172,0.1145038,-4.4732823,0.3053435
2740,10.0915089,2.8730273,8.6693602,208.1603088,-225.8625946,-250.1374054,0.8690908,-2.1906834,10.4195127,-0.3206107,-4.6335878,0.1908397
2750,7.1921453,3.8666160,6.6893654,215.3053436,-189.3053436,-250.1374054,0.9361281,-2.2505381,10.4171181,-0.6564885,-4.2213740,-0.7862595
2760,4.6088147,4.5752959,4.6447277,214.9465637,-145.7404633,-250.1374054,0.8259954,-2.2457497,10.4602137,-0.8625954,-4.1908398,-1.2519084
2770,2.3199697,5.0876527,2.0877333,208.6946564,-114.3282471,-250.1374054,0.8475431,-2.2313845,10.4003592,-0.6641222,-4.1832061,-2.4961832
2780,0.5099624,5.4683285,-0.6105183,198.4351196,-77.6793900,-250.1374054,0.8475431,-2.2313845,10.4961262,-0.3969466,-4.4274807,-2.7404580
2790,-1.1085097,5.7652082,-2.9424589,182.9541931,-55.1679382,-250.1374054,0.7230452,-2.1643472,10.5464048,0.1374046,-4.2671757,-3.7709923
2800,-1.9919657,6.3039007,-4.6758518,163.1526642,-53.2977104,-234.3893127,0.7637464,-2.0877333,10.5009146,0.4274809,-3.9465649,-2.9770992
2810,-2.3870070,6.6366930,-5.5928264,140.7557220,-47.1908379,-219.1221313,0.7781116,-2.0661855,10.5918941,0.6717557,-4.2137403,-3.2900763
2820,-3.2537034,6.8162575,-6.2129216,118.0076370,-31.9083977,-204.9847260,0.7829000,-2.0374553,10.3883877,0.8396947,-4.1297708,-2.7633588
2830,-4.4100971,6.9766679,-6.2895355,97.1603088,-18.9007626,-187.2442780,0.7589580,-2.0135133,10.5128860,0.6259542,-4.2290077,-1.7862595
2840,-5.4084740,7.2998838,-5.8753409,78.6488571,-11.2900763,-166.2366486,0.8451489,-1.9728121,10.4338779,0.3511450,-3.3969467,-2.2824428
2850,-5.9040713,7.6230993,-5.6646523,64.3587799,-1.4503816,-145.0381622,0.8403605,-2.0278785,10.5033092,0.0534351,-4.4580154,-2.1832061
2860,-6.4930420,7.9463148,-5.5928264,51.4427490,9.2671757,-123.6793900,1.0007712,-1.9871773,10.5655584,-0.1679389,-3.9694657,-2.0992367
2870,-6.9000540,7.9487090,-5.4898763,39.1679382,17.0610695,-99.9007645,0.9720409,-2.0087249,10.4626083,-0.1984733,-4.1450381,-2.7786260
2880,-6.9862447,8.0732069,-5.5832496,27.4427490,22.1603050,-76.6412201,1.0606259,-1.9752063,10.4697905,-0.4809160,-3.4427481,-2.8091602
2890,-6.6797886,8.0085640,-5.2576399,17.5801525,19.1374054,-57.0000000,1.0223188,-1.9273225,10.5775290,-0.1984733,-2.8320611,-3.5038168
2900,-6.2775645,7.9295554,-5.0373745,13.5725193,9.9312973,-43.5496178,1.0678085,-2.0015423,10.5679522,-0.0916031,-2.3435113,-4.4122138
2910,-5.8226686,7.8936424,-5.3007355,12.1221371,4.2061067,-36.5648842,0.8882443,-1.9847831,10.5464048,0.3587786,-2.1450381,-4.3053436
2920,-5.4228392,7.8888540,-5.3031297,10.9160309,-8.3435116,-33.1145020,0.7637464,-1.9608412,10.5464048,0.7099237,-2.1221373,-4.8091602
2930,-5.1929970,7.8002691,-5.2791877,9.8473282,-22.2595425,-31.9083977,0.6943150,-1.9201399,10.5248566,0.7251908,-2.4274809,-4.5267177
2940,-5.2097564,7.4962072,-5.1882086,9.1068707,-28.2519093,-31.9007626,0.6775556,-1.9704180,10.4673967,0.7175573,-2.8702290,-3.5572519
2950,-6.1482787,7.4459291,-5.0230093,8.4351149,-26.7175579,-31.5190830,0.6895266,-2.0422437,10.4123297,0.3511450,-3.4656489,-2.1068702
2960,-7.4195933,7.4531116,-5.3055239,6.3740458,-27.5877857,-26.5190830,0.7278336,-2.0039365,10.4195127,-0.1603053,-3.9923663,-2.0610688
2970,-8.6071110,7.5800037,-5.5521255,1.9160305,-33.0152664,-11.4885492,0.7589580,-2.1404054,10.4721851,-0.4656489,-4.1603055,-2.0992367
2980,-10.2519188,7.7978749,-6.5433197,-5.7480917,-24.0534344,15.3664122,0.8331779,-2.0757623,10.5128860,-0.9541985,-4.5572519,-1.7404580
2990,-12.3683825,7.8409705,-7.8649125,-21.5343513,-3.7786260,56.4885483,0.8188128,-2.0973101,10.4243011,-1.0076336,-4.7175574,-2.0610688
3000,-14.2478218,7.9032192,-9.0883436,-47.3053436,14.5419846,112.5572510,0.8666966,-2.1404054,10.4793673,-0.9312977,-4.8167939,-2.3358779
3010,-14.7146883,7.7164726,-10.0268650,-81.8015289,44.3129768,179.2824402,0.8116302,-2.1140692,10.5296450,-0.6335878,-4.5801525,-2.5267177
3020,-13.2614155,6.7109132,-10.2016411,-126.8931274,86.4274826,248.6870270,0.8714849,-2.1092808,10.5583754,-0.2671756,-4.1755724,-2.5725191
3030,-10.7092094,5.3079181,-9.1673517,-176.9160309,126.3206100,250.1297760,0.8044477,-2.0087249,10.5847120,0.0381679,-3.6030533,-2.6412213
3040,-7.5464849,3.6176202,-7.3142486,-222.1374054,158.0992432,250.1297760,0.8212070,-2.0015423,10.4697905,0.3969466,-3.5038168,-1.6717557
3050,-4.6231799,1.9057748,-5.7005649,-250.1374054,192.6641235,250.1297760,0.8690908,-2.0518203,10.4626083,0.6946565,-3.2213740,-2.0687022
3060,-1.7381816,0.1699875,-3.6966286,-250.1374054,223.4351196,250.1297760,0.8499373,-2.0230901,10.4243011,0.7404580,-3.0305343,-1.6412214
3070,0.6344602,-1.3263810,-1.3575054,-250.1374054,248.2977142,250.1297760,0.8930327,-2.0039365,10.4937325,0.6870229,-3.1755726,-1.7404580
3080,3.9911139,-1.7788827,2.6360025,-250.1374054,250.1297760,250.1297760,0.8906385,-2.0590029,10.4243011,0.4580153,-3.3435113,-2.1679389
3090,7.8122401,-1.5801650,7.5728211,-250.1374054,216.0076294,250.1297760,0.9361281,-2.0350611,10.3141680,0.2977099,-2.7557251,-2.3664122
3100,12.7227230,-0.9648584,12.9405937,-250.1374054,144.2366486,250.1297760,0.9696468,-2.0326669,10.4171181,0.0305344,-2.4351146,-3.5877862
3110,19.6126022,0.9600700,18.6483421,-236.4274750,28.0076332,250.1297760,0.9648584,-1.9728121,10.4985209,-0.1679389,-2.6183207,-4.5572519
3120,19.6126022,2.8730273,19.6126022,-127.9312973,-76.4809189,152.7633514,0.9050036,-2.0566087,10.5272512,-0.4198473,-2.9694657,-5.3816795
3130,19.6126022,3.9719603,19.6126022,-2.9465649,-117.5038147,16.7557259,0.8571198,-2.0757623,10.3093796,-0.8091603,-3.2137403,-5.6564884
3140,19.6126022,3.7564833,19.1247845,104.7709961,-154.5877838,-108.2671738,0.7541697,-2.0853391,10.4817610,-1.2137405,-3.3740458,-6.5648856
3150,19.6126022,2.8203552,13.2470503,177.6183167,-220.4656525,-203.7557220,0.7637464,-2.0398495,10.3764172,-1.3511450,-3.0687022,-6.0381680
3160,16.1176834,2.2433555,9.0021524,213.9389343,-250.1374054,-250.1374054,0.6488253,-2.1164634,10.4602137,-1.7557251,-3.7175572,-5.5343513
3170,13.0052376,2.9256995,6.3326311,226.4427490,-250.1374054,-250.1374054,0.5171449,-2.0757623,10.5033092,-1.4809160,-3.9389312,-4.5572519
3180,10.9845409,3.8618276,4.0796990,225.6793823,-250.1374054,-250.1374054,0.5769997,-2.1882892,10.4937325,-1.3358779,-4.0152674,-3.4809160
3190,9.0644016,4.6375451,2.2313845,214.7328186,-249.4809113,-250.1374054,0.6464311,-2.1787124,10.5392218,-0.8702290,-3.5572519,-2.7938931
3200,6.8401995,5.0062504,0.7685348,196.8625946,-182.9236603,-250.1374054,0.7398046,-2.2002602,10.5464048,-0.2061069,-3.4656489,-2.1068702
3210,4.5705075,5.0301919,-0.5027798,176.2290039,-116.3282471,-250.1374054,0.7398046,-2.0949159,10.5631638,0.3969466,-3.2977099,-2.2977099
3220,2.5162930,5.2336984,-1.4484847,156.2824402,-72.4351120,-250.1374054,0.6512195,-2.1451938,10.5200682,0.8549618,-3.1832061,-1.9312977
3230,1.0103480,5.1403246,-2.4588325,139.7404633,-53.3435097,-250.1374054,0.7302278,-2.0709739,10.4386663,1.0000000,-3.0763359,-2.2137403
3240,-0.0383070,4.8554163,-3.2560976,128.0992432,-45.7862587,-250.1374054,0.7757174,-2.0087249,10.4985209,1.0076336,-3.5496182,-1.4045801
3250,-0.8307837,4.9559722,-3.6271970,120.2290039,-45.9618340,-250.1374054,0.7685348,-1.9680238,10.3883877,0.8702290,-3.8625953,-1.5801526
3260,-1.4173602,5.3294659,-4.0102673,114.9160309,-44.5954208,-244.7633514,0.7326220,-1.9728121,10.2614956,0.3129771,-4.2977099,-1.6870229
3270,-2.0853391,5.5186067,-4.8410511,108.7633591,-33.0839691,-239.6335907,0.6775556,-2.0230901,10.5009146,-0.4427481,-4.9923663,-0.9465649
3280,-3.3662305,5.7197185,-5.6143742,99.3587799,-21.8931293,-232.5038147,0.6440369,-2.0661855,10.4506369,-1.0992366,-5.7633586,-0.4809160
3290,-4.5034704,6.0309634,-6.0644817,86.8015289,-9.3282442,-222.9541931,0.6440369,-2.0901275,10.4697905,-1.3206106,-6.4809160,0.2061069
3300,-5.7652082,6.2560172,-6.5121951,74.1297684,-5.1068702,-210.9694672,0.5698171,-2.1691356,10.4985209,-1.3969465,-7.0305343,0.8702290
3310,-7.0365229,6.3302369,-6.7276726,62.1908379,-3.0763359,-195.0381622,0.6224893,-2.1906834,10.5703468,-1.0916030,-6.9236641,1.1984733
3320,-8.2671366,6.3781209,-7.0101867,50.9923668,0.0610687,-175.4809113,0.6033357,-2.2553265,10.5104914,-0.3435115,-6.4732823,2.1603053
3330,-9.2391768,6.4140334,-7.5225434,39.0992355,2.9618320,-151.0839691,0.6200951,-2.2170193,10.5224628,0.6412213,-6.2061067,2.1984732
3340,-10.0795374,6.6797886,-7.9415264,24.2595425,7.1068702,-124.9160309,0.6320660,-2.2146254,10.5847120,1.2748091,-6.1297708,2.8015268
3350,-11.7865944,6.5840211,-8.4467001,6.0992365,13.0000000,-96.5419846,0.6919208,-2.1643472,10.5535870,1.7480916,-5.8625956,3.7709923
3360,-13.7402534,6.5313487,-8.6238708,-11.9541988,10.0992365,-59.2595406,0.7134684,-2.1020982,10.5440102,2.2900763,-6.1679387,3.7022901
3370,-14.0634689,6.7109132,-8.3916340,-27.9007626,0.0000000,-13.8320608,0.8571198,-2.0709739,10.4362717,2.2900763,-6.9312978,3.2366412
3380,-13.4649220,6.9646969,-8.0157461,-42.4427490,-2.5496182,31.1450386,0.8738791,-2.0757623,10.4219065,1.7709924,-6.7938933,2.8320611
3390,-12.9190464,7.4531116,-7.9151902,-56.9465637,12.0839691,71.6564865,0.7733232,-1.9895715,10.4123297,1.3358779,-6.0381680,3.8091602
3400,-12.9597473,7.3166428,-8.4203644,-75.1297684,32.4503822,113.1679382,0.8571198,-2.0206959,10.4314833,0.6259542,-7.0916033,4.3053436
3410,-12.0978394,6.9120250,-8.6358414,-97.2977066,39.9771004,154.0686951,0.9624642,-1.9776005,10.5080976,0.4503817,-6.9236641,4.2595420
3420,-10.1010857,6.7157016,-8.0085640,-117.7022934,34.9465637,190.1908417,1.0175306,-1.8770446,10.5464048,0.1145038,-7.6183205,3.3664122
3430,-7.9894104,6.4523406,-7.1993275,-132.5267181,32.3740463,217.6717529,1.0654143,-1.9512644,10.5152798,0.5648855,-7.4961834,3.0229008
3440,-6.0333576,6.1722202,-6.3805151,-144.2290039,40.0381660,239.8931274,1.0462608,-2.0422437,10.4578199,0.8625954,-6.3740458,1.9160305
3450,-4.1371593,6.0716643,-5.9639258,-156.3206177,51.6488533,250.1297760,1.2162483,-2.0063307,10.6134415,0.9465649,-5.4580154,0.9236641
3460,-2.5450234,5.8921003,-5.6215568,-170.2748108,65.8778610,250.1297760,1.2904681,-1.8770446,10.6373835,1.4274809,-4.6259542,-0.3053435
3470,-1.2641320,5.5880380,-4.8745699,-185.5648804,80.1984711,250.1297760,1.1180865,-1.9895715,10.4865494,1.7709924,-2.3282442,-1.5572519
3480,-0.3830703,5.2169390,-3.8618276,-199.1068726,92.1068726,250.1297760,1.1204807,-1.9584470,10.4482431,1.6870229,-2.4656489,-2.7786260
3490,0.5386927,4.5489597,-2.5019281,-210.1145020,100.2824402,250.1297760,1.0558375,-1.8770446,10.4985209,1.2977099,-1.5419847,-3.5114503
3500,1.5753766,4.0437860,-0.6991033,-217.2824402,103.7328262,250.1297760,1.0055596,-1.9464760,10.2974091,0.9541985,-1.6946565,-3.7786260
3510,2.9999194,3.4404502,1.4963684,-218.7022858,99.4732819,250.1297760,0.9097920,-1.9991482,10.4458485,0.4885496,-1.4732825,-4.2213740
3520,4.8242917,3.3973548,4.1634955,-211.1068726,83.6106873,250.1297760,0.8212070,-2.0278785,10.3620520,-0.0763359,-1.3587786,-3.7022901
3530,6.8832946,3.9360476,7.1753860,-189.0305328,56.2977104,250.1297760,0.8571198,-2.0230901,10.5631638,-0.6030535,-0.9083970,-4.3816795
3540,9.7371683,4.5034704,9.5384512,-151.9694672,32.2824440,226.9618378,0.7062859,-2.0135133,10.5871058,-0.4198473,-1.1908396,-3.3282442
3550,13.2614155,5.3007355,10.5033092,-106.0000000,9.6106873,184.1450348,0.4572902,-1.9799947,10.6924505,1.0687023,-3.9389312,-2.6641221
3560,17.8869896,6.7252784,11.3340931,-55.5725174,-26.0534344,122.3435135,0.4141948,-2.0063307,10.6900558,3.0305343,-5.1450381,-1.4656489
3570,19.6126022,7.3381906,11.4561968,-0.8549618,-74.2137375,40.1679382,0.6153067,-1.9991482,10.4865494,3.3587787,-3.8396947,0.4580153
3580,19.6126022,6.9287844,9.9765873,52.1984749,-116.4885483,-54.5267181,0.7972651,-2.0709739,10.6278067,3.3893130,-1.9847329,1.5572519
3590,19.2205524,6.7324610,7.9582858,91.9083939,-149.5343475,-130.5648804,0.9504932,-2.0949159,10.3955708,3.3587787,-1.1908396,0.6183206
3600,16.2709122,6.6773944,6.2967181,118.7862625,-176.5038147,-181.3511505,1.1563935,-2.1404054,10.3692341,3.5496182,-0.9541985,-0.1755725
3610,13.8791161,6.6869712,4.6686692,134.1450348,-183.2290039,-211.9847260,1.2090657,-2.0853391,10.3764172,2.6641221,-0.8015267,-1.9847329
3620,11.8919392,6.6989422,3.2225790,140.4351196,-167.7557220,-228.3206177,1.1659702,-2.1188576,10.2878323,1.4503816,-0.7480916,-3.7175572
3630,9.5959110,6.6295104,2.0135133,140.1145020,-132.9541931,-236.3969421,1.1300575,-2.0757623,10.4889441,0.7099237,-0.8625954,-5.3893127
3640,7.5776095,6.6295104,1.0342898,135.9541931,-92.4045792,-239.0305328,1.0055596,-2.0757623,10.4673967,0.2213740,-0.2824427,-6.5877862
3650,5.3390427,6.5433197,0.3064562,129.9236603,-58.4503822,-238.8778687,0.8212070,-2.0302727,10.4985209,0.2900763,0.0076336,-7.4656487
3660,3.4907281,6.4140334,-0.4932030,123.4656525,-31.8396950,-236.2366486,0.6560079,-2.0230901,10.5751352,0.6259542,-0.7175573,-7.6946564
3670,2.2792683,6.5050125,-1.6112895,116.2213745,-19.4809170,-233.7633514,0.5267217,-1.9536586,10.5104914,1.0229008,-1.7099236,-8.3053436
3680,0.9672526,6.6079631,-2.2601149,108.7099228,-17.0229015,-231.5267181,0.4333483,-1.9752063,10.4745789,1.3816794,-2.3816793,-6.6488547
3690,-0.1723816,6.3948798,-2.7652888,103.1374054,-18.5801525,-230.2595367,0.3040621,-2.0350611,10.4530315,1.3587786,-2.9923663,-5.4503818
3700,-1.2952565,6.0740585,-3.5529771,100.5114517,-22.0687027,-228.8931274,0.4285599,-2.0446377,10.5152798,0.7786260,-3.3969467,-4.1450381
3710,-2.4420733,5.9830794,-4.0126615,97.1603088,-26.1221371,-224.1832123,0.4501076,-2.0398495,10.3524752,0.2824427,-4.1755724,-2.6183207
3720,-3.4236910,6.0812411,-4.4843168,93.2595444,-23.0229015,-214.2824402,0.5339043,-2.0853391,10.4314833,-0.2290076,-4.7938933,-1.4198474
3730,-4.6447277,6.2416520,-5.0445571,85.5038147,-7.7862597,-201.2290039,0.7326220,-2.0877333,10.3596573,-0.6335878,-5.4045801,-1.5572519
3740,-5.7771792,6.3493905,-5.5784616,73.2061081,3.6870229,-185.2595367,0.7110743,-2.1092808,10.4003592,-0.9007633,-6.1755724,-1.5343511
3750,-6.8832946,6.5816269,-5.9088597,59.0305328,6.6030536,-167.0152740,0.7302278,-2.0685797,10.4865494,-0.9465649,-6.0000000,-1.3435115
3760,-7.4626884,6.7085190,-6.3637557,45.8625946,8.5648851,-146.5801544,0.8499373,-2.0446377,10.4506369,-0.8625954,-5.8625956,-1.1068702
3770,-8.0372944,6.8976598,-6.8761120,33.5190849,4.5877862,-125.8625946,0.8571198,-2.0470319,10.6062593,-0.2213740,-5.7786260,-1.2137405
3780,-8.7794924,7.0077925,-6.8114691,21.7938938,-4.3435116,-105.0763321,0.7110743,-2.0422437,10.6349897,0.0229008,-5.3511453,-1.4885496
3790,-9.1481981,7.1442614,-6.5361371,11.9236641,-11.3816795,-83.0152664,0.7661406,-1.9895715,10.5176744,0.5725191,-5.1679387,-1.2290076
3800,-9.4426832,7.1634150,-6.6271162,4.1679387,-15.9007635,-61.6412201,0.6536137,-1.9704180,10.5368280,0.6412213,-4.8702292,-0.9923664
3810,-9.6868906,7.3022780,-6.4714942,-3.3740458,-24.0839691,-39.8167953,0.7110743,-1.9416877,10.4697905,0.6717557,-4.9236641,-1.0076336
3820,-9.8089943,7.3166428,-6.2775645,-10.0687027,-31.1068707,-16.6564884,0.7589580,-1.9129574,10.4530315,0.5038168,-5.4809160,-0.8244275
3830,-10.1633339,7.2711535,-6.3278427,-15.8854961,-34.9618340,6.0152674,0.7062859,-1.9392935,10.4506369,0.2977099,-5.8091602,0.1221374
3840,-10.3812056,7.2256637,-6.0453281,-21.5267181,-50.7251892,31.4045811,0.7517755,-1.9656296,10.4697905,0.0839695,-6.1984735,0.2900763
3850,-9.6892843,7.3980455,-5.9902620,-25.5954189,-60.7175560,58.8015251,0.7565638,-2.0206959,10.4650021,-0.0076336,-6.0305343,0.2671756
3860,-8.7196379,7.5823979,-6.3876977,-32.7480927,-47.1755714,84.2595444,0.7829000,-2.0422437,10.5104914,-0.0687023,-6.4198475,0.3740458
3870,-8.4969788,7.5464849,-6.6007805,-48.0152664,-19.7480907,108.7938919,0.7302278,-2.0254843,10.5464048,0.1374046,-6.2366414,0.0381679
3880,-8.0348997,7.4794478,-6.2751703,-66.8473282,0.5801527,133.9313049,0.7230452,-2.1475880,10.5583754,0.5877863,-6.3206105,0.2290076
3890,-7.2112985,7.4722652,-5.5712790,-83.2595444,15.1221371,156.7175598,0.8116302,-2.0733681,10.5104914,0.8320611,-6.5267177,-0.0229008
3900,-6.3446021,7.6350703,-4.3574247,-94.9236679,29.1297703,176.7709961,0.7924767,-2.0733681,10.4697905,1.5419847,-5.3664122,0.5496183
3910,-4.8673873,7.7332320,-3.0669568,-100.8015289,46.8778610,195.3664093,0.6224893,-2.0398495,10.4913378,1.7022901,-4.3893127,1.7099236
3920,-3.5769191,7.5009956,-2.3941894,-101.8244247,62.0610695,212.6183167,0.7302278,-2.0422437,10.4961262,1.7938931,-5.4198475,1.9389313
3930,-2.6360025,7.1466556,-2.1236460,-100.6030502,73.1297684,228.2366486,0.7948709,-2.0350611,10.4290895,1.7099236,-5.7633586,1.9618320
3940,-1.5945302,6.7564025,-2.0590029,-100.6564865,78.1221390,239.7251892,0.8427547,-1.9584470,10.5176744,1.3358779,-6.6183205,1.5801526
3950,-0.6775556,6.4499464,-1.7405758,-102.1603088,74.9923630,247.3511505,0.8307837,-2.0183017,10.4123297,1.0229008,-6.3893127,1.2595420
3960,0.8403605,6.1698260,-1.4628497,-104.3206100,65.5648880,249.7175598,0.8068419,-2.0063307,10.4793673,0.2442748,-6.8702292,1.9923664
3970,2.5258698,6.1794028,-0.8858501,-106.3893127,55.7022896,247.1755676,0.9720409,-2.0063307,10.3716288,0.2977099,-6.2900763,0.6335878
3980,4.5058646,6.4786768,-0.7469871,-108.0687027,44.7938919,238.2290039,0.9792235,-1.9823889,10.5631638,-0.0305344,-5.9923663,0.5877863
3990,7.2615767,7.0963774,0.1628049,-107.9312973,26.5190830,220.6106873,1.0630201,-1.8076130,10.5224628,0.0534351,-6.9465647,-0.2748092
4000,10.1561518,7.9630742,1.9392935,-100.3206100,3.1374047,189.6259613,1.1396341,-1.9057748,10.5775290,0.3053435,-6.4885497,-1.2671756
4010,13.2853575,8.5400734,3.5553713,-84.1526718,-17.8931293,143.9236603,1.1563935,-1.8004304,10.5775290,0.7328244,-5.1832061,-1.5954199
4020,15.9046001,9.2511482,4.3981261,-61.6106873,-31.3816795,87.1832047,1.1875180,-1.8219782,10.5847120,1.1908396,-4.2977099,-2.5801528
4030,16.3571014,9.3157911,4.7141590,-36.5877876,-31.9160309,26.8244267,1.2330076,-1.8028246,10.5918941,1.3587786,-2.6793892,-3.4656489
4040,16.1176834,9.1218615,5.1403246,-11.3816795,-37.2671738,-30.6106873,1.1085097,-1.8483143,10.5344334,1.7022901,-1.1297710,-3.7099237
4050,14.3771076,8.7268209,5.3246775,14.5267172,-49.7022896,-82.9007645,1.0702027,-1.8554969,10.4482431,1.8473282,-0.2290076,-4.2900763
4060,12.8184900,8.2743187,5.0541339,39.2977104,-60.9465637,-126.1145020,1.0247130,-1.9081690,10.5440102,1.4809160,-0.0229008,-4.5267177
4070,11.0228481,7.9439206,4.4627690,61.0076332,-59.0381660,-158.7099304,0.9935886,-1.8914096,10.4386663,1.0458015,-0.4732825,-5.1603055
4080,8.5664101,7.6757712,3.4835455,77.4503784,-37.8396950,-176.5114441,0.7924767,-1.9919657,10.4266949,0.7022901,-0.5496183,-5.5343513
4090,6.2871413,7.5153608,2.5234756,89.5496216,-17.3664131,-183.0229034,0.7110743,-2.0518203,10.3883877,0.4045801,-1.1984733,-5.5419846
4100,4.8171091,7.3836803,1.8219782,97.5954208,-11.7328243,-184.6335907,0.7158626,-1.9991482,10.4554253,0.2824427,-1.7099236,-5.6564884
4110,3.5050933,7.4722652,0.7900825,102.2442780,-9.3206110,-185.3358765,0.6895266,-2.0135133,10.5344334,0.1221374,-2.2519083,-5.3740458
4120,2.3127871,7.5704269,-0.1125269,102.6717529,3.0763359,-184.5801544,0.6607963,-2.0661855,10.4626083,0.3664122,-2.9923663,-4.4961834
4130,1.3144100,7.5943689,-0.8499373,101.1374054,15.8091602,-182.8396912,0.6512195,-2.0757623,10.4961262,0.3053435,-3.6946564,-4.7328243
4140,0.4213773,7.5967631,-1.9632354,97.3587799,17.9923668,-180.7938995,0.6344602,-2.1619530,10.5511932,0.3129771,-3.9923663,-3.8778627
4150,-0.1915352,7.3621325,-2.9113343,92.4045792,12.5267172,-180.1679382,0.6655847,-2.1236460,10.4338779,0.0381679,-4.0839696,-3.7175572
4160,-1.0079538,7.0460997,-3.4452386,87.3282471,5.2824426,-179.0076294,0.7062859,-2.1236460,10.4889441,-0.1068702,-3.5572519,-3.5419848
4170,-1.9536586,6.8952656,-3.6990228,84.9083939,-0.4045801,-175.7786255,0.7421987,-2.0542145,10.5152798,-0.1755725,-3.3816793,-2.8778627
4180,-2.8275378,6.9144192,-3.7852135,84.9160309,-1.3664122,-170.0610657,0.8044477,-1.9728121,10.5775290,0.0076336,-3.3969467,-2.2900763
4190,-3.4189026,6.8497758,-4.3454537,84.8091583,8.4809160,-163.8473358,0.8188128,-1.8985922,10.4841557,0.3587786,-3.3206108,-2.3816793
4200,-4.1371593,6.8832946,-4.8482337,83.2061081,24.8702297,-157.6183167,0.8643024,-1.9225341,10.5320396,0.5114504,-2.8702290,-2.4503818
4210,-5.0517397,6.8928714,-5.4180508,78.9389343,33.2519073,-149.5267181,0.8307837,-1.8866212,10.5990763,0.7557252,-2.3969467,-2.6946564
4220,-6.1315193,6.8737178,-5.9375896,71.3282471,33.1679382,-139.1145020,0.8427547,-1.8267666,10.5200682,1.0687023,-2.3740458,-2.5725191
4230,-6.9216018,6.7971039,-6.3469963,61.2442741,27.7251911,-126.5572510,0.7637464,-1.8674678,10.5009146,1.3358779,-2.3816793,-3.2290077
4240,-7.8888540,6.9192076,-6.6558466,49.6106873,21.3740463,-111.9618301,0.7876883,-1.9249283,10.4458485,1.4351145,-2.6793892,-3.2977099
4250,-8.5640154,6.8761120,-6.7516141,36.9923668,16.8320618,-94.6412201,0.7421987,-1.8411317,10.3835993,0.7862595,-3.1145039,-2.5572519
4260,-8.9470863,7.0173693,-6.8952656,23.6259537,11.9083967,-74.4885483,0.6775556,-1.9776005,10.4697905,0.4580153,-4.1984735,-2.3206108
4270,-9.0476418,7.3310080,-7.1825686,9.2595415,12.0992365,-53.3816795,0.5817881,-1.9967541,10.4865494,0.0763359,-4.9541984,-1.6641221
4280,-9.1410151,7.3238254,-7.2855186,-5.6717558,11.4809160,-32.9771004,0.5793939,-2.0613971,10.4075413,-0.1755725,-5.4122138,-0.7557252
4290,-9.2703018,7.1442614,-7.0987716,-19.6030540,7.3511453,-13.2290077,0.6105183,-2.0637913,10.5009146,-0.2366412,-5.6259542,0.0687023
4300,-8.9997578,7.4219875,-7.0963774,-43.0916023,1.8473282,26.6259537,0.6631905,-2.1404054,10.5009146,0.5419847,-5.9465647,0.9847328
4310,-8.9758167,7.2831244,-7.0006099,-55.0763359,10.0763359,47.7404594,0.6919208,-2.1332228,10.6421719,0.9083970,-6.0839696,1.8015267
4320,-9.4187412,7.4842362,-6.8306227,-68.5114517,20.4351139,70.6564865,0.7182568,-2.0901275,10.5104914,1.4809160,-6.1984735,2.1908398
4330,-9.6964674,7.2567883,-6.9072366,-84.5114517,29.2671757,97.3282471,0.6847382,-2.0278785,10.5128860,1.8625954,-6.1297708,2.1908398
4340,-9.1362267,7.2184811,-6.6678176,-102.7328262,29.5267181,125.4961853,0.7805058,-2.0302727,10.4745789,1.8702290,-6.1145039,1.4732825
4350,-8.1450329,7.1322904,-6.4978304,-120.2900772,25.8473282,153.2366486,0.7350162,-1.9488702,10.4673967,1.8702290,-5.8091602,1.8702290
4360,-6.6845770,6.7396431,-6.0644817,-136.7633514,31.0458012,177.5648804,0.8259954,-1.8531027,10.5033092,1.7404580,-5.8091602,2.0152671
4370,-5.2672167,6.4786768,-5.2001796,-151.7022858,49.2824440,198.1832123,0.8331779,-1.8866212,10.5535870,1.5648855,-5.5725193,1.9007634
4380,-4.3598189,6.0620875,-4.5561423,-165.1450348,69.8167953,218.7557220,0.9792235,-1.8531027,10.4147243,1.3740458,-5.9770994,1.9083970
4390,-3.6224086,5.6335278,-3.7636659,-178.0229034,92.3358765,238.2824402,0.9361281,-1.9009864,10.5104914,1.2213740,-5.5648856,1.6641221
4400,-2.5091105,5.5449429,-2.2409613,-188.2061005,113.1374054,250.1297760,1.0582317,-1.9033806,10.4865494,1.1526718,-5.0763359,0.6183206
4410,-1.4772149,5.3534074,-0.9050036,-194.1908417,129.7022858,250.1297760,0.9457048,-1.9201399,10.3716288,1.0458015,-4.1908398,0.0229008
4420,-0.8882443,4.7883787,0.3447633,-198.6183167,153.0000000,250.1297760,1.0055596,-1.8890154,10.6014709,0.3358779,-5.0381680,0.2213740
4430,-0.2489957,4.4436154,2.1380112,-202.6564941,181.6793823,250.1297760,1.1252691,-1.8195840,10.5847120,0.4809160,-5.6793895,-1.3511450
4440,0.9097920,4.1754665,4.0701222,-205.5343475,206.2213745,250.1297760,1.0271072,-1.9033806,10.4793673,0.6412213,-4.5190840,-1.2671756
4450,2.2002602,4.0940638,4.8889351,-208.2748108,242.9541931,250.1297760,1.0295014,-1.8459201,10.5607700,1.0000000,-3.4656489,-1.6183206
4460,2.6695213,3.9647777,5.4395986,-209.8702240,250.1297760,250.1297760,0.9888002,-1.9081690,10.4602137,1.2977099,-2.3435113,-1.5114504
4470,3.2010312,3.8259149,5.4779053,-209.5801544,250.1297760,250.1297760,0.9624642,-1.9440818,10.4673967,1.2824427,-1.8091604,-2.1068702
4480,5.3558016,3.3470769,5.7436604,-206.0458069,250.1297760,250.1297760,0.9552816,-1.9033806,10.4386663,1.3282443,-1.5877863,-2.1374047
4490,7.6661944,3.4117200,7.2950954,-192.7786255,250.1297760,250.1297760,0.8882443,-1.8124014,10.4171181,1.2671756,-1.1984733,-2.2213740
4500,8.9925756,3.1986370,9.0476418,-167.1068726,236.2824402,250.1297760,0.8834559,-1.9632354,10.4841557,1.0610687,-1.0534351,-2.2824428
4510,10.6589317,3.7014170,11.6381550,-129.1526642,172.5343475,205.7480927,0.8571198,-1.9464760,10.4458485,0.7633588,-1.4045801,-2.7557251
4520,12.1529055,4.4962878,15.4592810,-80.4885483,77.0916061,142.7404633,0.8451489,-1.9033806,10.5416164,0.7633588,-1.8854961,-3.0305343
4530,14.1137466,4.6902170,18.5717278,-18.2519093,-14.6641226,75.4732819,0.7972651,-1.8531027,10.4985209,0.5419847,-1.9923664,-3.3435113
4540,13.6349087,4.4723458,18.0761299,60.3053436,-40.7328262,19.3053436,0.8068419,-1.8722562,10.5320396,0.3740458,-1.7557251,-4.1450381
4550,11.5304165,3.8785870,15.5957499,131.5114441,-52.2900772,-16.7862587,0.7326220,-1.8866212,10.5440102,0.2595420,-1.8778626,-3.4809160
4560,9.5001440,3.8307030,13.5415354,182.7099304,-87.9618301,-41.0839691,0.7781116,-1.9225341,10.5823174,0.5648855,-2.1221373,-3.8091602
4570,8.6047173,3.9192882,11.3029680,220.5038147,-124.9007645,-58.7404594,0.8044477,-1.9201399,10.4889441,0.7022901,-2.0763359,-3.3435113
4580,8.1474266,4.2161674,8.7076674,247.8396912,-122.3511429,-68.0229034,0.7350162,-1.8985922,10.5176744,0.9083970,-1.8320611,-3.8320611
4590,8.4107876,5.1594782,6.7611909,250.1297760,-71.2977066,-69.7404556,0.8212070,-1.8698620,10.5727406,1.0992366,-1.8549619,-4.3053436
4600,8.5807753,5.6478930,4.9942794,250.1297760,9.0305347,-64.0152664,0.7733232,-1.8052188,10.5416164,1.1526718,-2.4809160,-4.3053436
4610,6.9575148,5.9950504,1.6424140,250.1297760,45.9465637,-54.9694672,0.7589580,-1.8650736,10.4243011,0.9007633,-3.3969467,-4.1526718
4620,6.1123657,6.5050125,-0.9169745,245.8854980,25.4809170,-53.1603050,0.6057299,-1.8531027,10.4913378,0.5114504,-3.9465649,-3.7251909
4630,5.9974446,6.8665352,-1.8602852,220.4961853,-36.6335869,-63.6259537,0.5698171,-1.9273225,10.3979645,-0.2900763,-4.6946564,-3.0381680
4640,6.7157016,7.0269461,-1.2306134,207.4580078,-121.7251892,-86.5572510,0.5841822,-1.9847831,10.3692341,-1.0763359,-5.1908398,-2.6641221
4650,6.7300668,6.5624733,-0.0670373,215.1145020,-185.2900696,-110.3435135,0.6224893,-2.0446377,10.4961262,-1.6641221,-5.5801525,-0.9083970
4660,6.0644817,6.4068508,-0.8259954,233.6946564,-218.6870270,-132.2442780,0.7134684,-2.0494261,10.5200682,-1.7480916,-5.7709923,-0.2748092
4670,5.1259594,6.3565731,-1.7333932,246.8625946,-249.3206177,-151.3206177,0.7493813,-2.0542145,10.4841557,-1.4351145,-5.8931298,-0.6564885
4680,4.0102673,6.1913738,-3.3231349,250.1297760,-250.1374054,-167.7480927,0.7589580,-2.0566087,10.5272512,-0.9160305,-5.3969464,-0.8396947
4690,3.0118904,6.1243367,-4.5178356,246.6335907,-250.1374054,-182.6717529,0.8403605,-2.0374553,10.5416164,-0.1832061,-5.1908398,-1.3511450
4700,2.1404054,6.0908179,-5.0158267,238.4580078,-250.1374054,-196.1297760,0.8834559,-1.9823889,10.4530315,0.5648855,-4.4961834,-1.6870229
4710,0.7182568,5.9782910,-5.1642666,227.5419922,-248.3053436,-202.3816833,0.8307837,-1.9440818,10.5320396,0.7557252,-3.8473282,-2.0992367
4720,-0.2370248,5.8729467,-5.5114241,215.5877838,-212.6641235,-200.6106873,0.7661406,-1.9368993,10.5392218,0.9694657,-3.3816793,-2.4198472
4730,-1.5227045,5.8801293,-6.6462698,201.7175598,-180.1221313,-193.5877838,0.7900825,-1.9081690,10.4266949,0.6946565,-3.3282442,-1.9694656
4740,-2.6144550,5.9663200,-8.1809454,184.7557220,-169.8396912,-186.5114441,0.6895266,-1.8435259,10.4745789,0.2442748,-3.9770992,-1.9770992
4750,-3.8953462,5.7628140,-8.9782104,164.8091583,-168.8244324,-177.8473358,0.7398046,-1.9488702,10.4626083,-0.1221374,-4.1832061,-1.5038168
4760,-5.0230093,5.6239510,-9.3876171,146.2290039,-167.8931274,-164.2977142,0.7996593,-1.9081690,10.5320396,-0.5954198,-4.2595420,-1.6564885
4770,-5.4587522,5.7292953,-10.0532017,127.6259537,-165.5343475,-144.7862549,0.7852941,-1.9129574,10.5607700,-0.3435115,-4.3893127,-1.3435115
4780,-5.6431046,6.0213866,-10.6254129,105.8702316,-148.5419922,-124.8167953,0.7302278,-2.0087249,10.5775290,-0.0534351,-4.1984735,-1.8778626
4790,-5.8346395,6.1530671,-11.6261835,78.0763321,-109.8854980,-106.2977066,0.7661406,-1.9680238,10.5895004,0.4656489,-4.3816795,-2.7480917
4800,-6.5026188,6.0357518,-12.0355902,47.9618340,-77.9389343,-91.6717529,0.7805058,-1.9799947,10.6469603,0.9541985,-3.9160306,-1.7480916
4810,-7.4028339,5.9519548,-12.5910425,15.4122133,-78.1068726,-75.3435135,0.7278336,-1.9584470,10.6278067,1.4045801,-4.1755724,-2.1374047
4820,-7.7523856,5.8442163,-12.5383701,-13.1908398,-81.0381699,-60.5343513,0.6631905,-1.9297167,10.5080976,1.4122137,-4.4045801,-1.5267175
4830,-8.2623482,5.6933827,-11.5735121,-35.7099228,-85.1908417,-43.7022896,0.7038917,-1.9321109,10.5607700,1.2290076,-4.8091602,-0.6030535
4840,-8.3964224,5.6766233,-10.6325951,-52.9618340,-84.0992355,-21.7786255,0.7350162,-1.8794388,10.3596573,0.8778626,-4.7099237,0.0305344
4850,-8.1067257,5.4084740,-9.6318245,-64.2595444,-63.6412201,1.8167939,0.7517755,-1.8722562,10.4338779,0.5267175,-4.9007635,0.0076336
4860,-8.3365679,5.4779053,-9.2415714,-77.7328262,-45.1526718,28.5725193,0.8523315,-1.9057748,10.5224628,0.1450382,-5.2900763,0.0458015
4870,-8.0229292,5.4874821,-8.7914639,-93.6183243,-27.3893127,53.7557259,0.8595140,-1.8890154,10.4865494,-0.0916031,-5.7328243,0.2366412
4880,-7.5776095,5.7628140,-8.2479830,-108.0534363,-9.7938929,73.1374054,0.8499373,-1.9033806,10.5583754,-0.1908397,-5.4503818,0.4809160
4890,-7.6063399,5.8825235,-7.9223728,-121.1068726,11.9236641,91.6641235,0.8954269,-1.9823889,10.5416164,0.0152672,-5.3358779,-0.6564885
4900,-7.5536675,5.8801293,-7.5177550,-134.3435059,35.9771004,112.7786255,0.7948709,-1.9656296,10.5296450,0.0305344,-4.8396945,-0.7862595
4910,-7.4171991,5.8322453,-7.2759418,-148.8244324,56.1450386,135.9084015,0.8738791,-1.8961980,10.5655584,0.3664122,-5.2671757,-0.6259542
4920,-6.9120250,5.6143742,-6.7420373,-163.4885559,74.8167953,158.0763397,0.9528874,-1.8938038,10.5080976,0.7862595,-4.8702292,-1.3435115
4930,-6.3805151,5.4587522,-5.7508430,-175.8396912,90.4885483,179.5572510,0.9026094,-1.9009864,10.5248566,0.9312977,-4.5190840,-1.4351145
4940,-5.2432747,5.2504573,-4.4220681,-183.1068726,105.5038147,198.8854980,1.0007712,-1.8818330,10.5176744,1.0381680,-4.4427481,-1.6870229
4950,-4.2353210,5.2815819,-3.2273674,-185.0381622,122.9770966,215.0534363,1.0366840,-1.8794388,10.5057030,0.9770992,-3.7862597,-2.4885497
4960,-2.9328821,5.2313042,-2.5498118,-184.6946564,135.7709961,229.0305328,1.0702027,-1.8171898,10.4793673,0.9618320,-3.4580152,-3.5114503
4970,-1.6926919,5.0996237,-2.1643472,-184.3206177,144.8091583,240.0152740,0.9576758,-1.8267666,10.5272512,1.0076336,-2.7709923,-3.7480917
4980,-0.2705434,5.0996237,-2.0183017,-184.4580078,152.8091583,247.0152740,0.9217629,-1.8387375,10.4099360,0.7938932,-2.4274809,-3.8702290
4990,0.8164186,5.2097564,-1.9153515,-186.1374054,155.9236603,249.7862549,0.9002152,-1.8076130,10.5344334,0.5725191,-2.4503818,-4.1221375
5000,2.1092808,5.1068063,-1.8387375,-189.6106873,148.4580078,246.6717529,0.8116302,-1.8961980,10.5057030,0.1832061,-2.8244274,-4.6488547
5010,2.7892308,4.9727316,-1.4293311,-195.0763397,140.9236603,240.8702240,0.7565638,-1.9105632,10.4745789,-0.0076336,-2.8091602,-4.4427481
5020,3.6224086,4.7189474,-0.5506636,-200.7557220,129.8320618,234.7404633,0.8188128,-1.8890154,10.5535870,-0.2137405,-2.4656489,-3.8702290
5030,4.8147149,4.6590929,0.8786675,-203.0229034,116.6488571,226.9084015,0.7589580,-1.9057748,10.5583754,-0.0839695,-2.0992367,-3.0458016
5040,6.2895355,4.6064205,2.5929072,-199.5954132,105.3587799,214.0000000,0.7182568,-1.9967541,10.4602137,0.1450382,-1.9160305,-3.2213740
5050,7.4842362,5.0110383,4.6303625,-189.1374054,92.2442780,195.8625946,0.7852941,-1.9512644,10.4482431,0.4656489,-2.0076337,-3.0152671
5060,8.8273764,5.5473371,6.8210459,-169.4351196,76.6030502,170.7480927,0.7948709,-1.9776005,10.6014709,0.9847328,-2.0458016,-3.4274809
5070,9.9789820,5.7867560,8.3868456,-141.0839691,52.1068687,139.4503784,0.7781116,-1.9823889,10.5871058,1.0229008,-2.1832061,-3.1832061
5080,11.4561968,6.0165982,9.1386213,-105.6412201,17.0152664,104.5725174,0.7589580,-1.9560528,10.5487986,1.2671756,-2.5801528,-3.2442749
5090,12.8256731,6.4762826,9.6102762,-63.3893127,-30.0076332,66.0839691,0.6967092,-1.9919657,10.5248566,1.3053435,-3.0076337,-3.0076337
5100,13.2255030,6.6654234,9.7299862,-19.2748089,-74.1908417,25.8015270,0.6943150,-1.9392935,10.6230183,1.2442749,-3.0534351,-3.4656489
5110,13.1225519,6.7180958,9.0644016,19.0763359,-108.2900772,-8.3358774,0.7493813,-1.9105632,10.4817610,1.2137405,-3.7862597,-2.9770992
5120,12.6652622,6.9144192,8.1234846,50.0763359,-135.6946564,-36.1068687,0.6679789,-1.8363433,10.5200682,0.9465649,-3.8625953,-3.0763359
5130,12.4497852,7.1418672,7.1610208,73.0305328,-154.1755676,-58.5801544,0.7134684,-1.8554969,10.4650021,0.7557252,-4.3740458,-2.9312978
5140,11.9853125,7.3812861,5.8106980,89.3816757,-159.7404633,-77.4045792,0.7206510,-1.8459201,10.4578199,0.4427481,-4.3816795,-2.4122138
5150,11.6764622,7.3429790,4.8554163,101.9694672,-163.4503784,-95.9312973,0.7469871,-1.8938038,10.4195127,0.0763359,-4.4045801,-2.3816793
5160,10.9582052,7.4315639,3.7397239,109.4961853,-157.5877838,-116.7480927,0.8307837,-1.8674678,10.5176744,-0.1603053,-4.4885497,-2.2900763
5170,10.1609402,7.3717093,2.8251436,116.0916061,-144.4580078,-137.7709961,0.8714849,-1.9057748,10.4865494,-0.1679389,-4.5496182,-1.4274809
5180,8.9853926,7.2328463,2.0566087,121.7862625,-128.6641235,-156.2748108,0.8523315,-1.8722562,10.5272512,-0.2977099,-4.4503818,-2.6641221
5190,7.8122401,7.0628591,1.2617378,127.0152664,-103.0381699,-169.7557220,0.9145803,-1.9177457,10.5296450,-0.4351145,-4.7480917,-2.7022901
5200,6.5289545,7.0939832,0.7829000,132.9618378,-78.6641235,-178.0763397,0.8283895,-1.9297167,10.6086531,-0.2977099,-4.2366414,-2.5801528
5210,5.2193332,7.0676475,0.2681492,137.8702240,-68.4274826,-182.8396912,0.8499373,-1.9225341,10.5128860,-0.2290076,-4.1832061,-3.1374047
5220,3.9216824,6.8761120,-0.6536137,140.1603088,-64.5725174,-185.9618378,0.7374104,-1.9608412,10.5487986,0.0610687,-4.1068702,-2.6183207
5230,2.9376705,6.8641410,-1.3407460,140.5572510,-64.7022934,-185.9389343,0.6033357,-1.9823889,10.5990763,0.0534351,-4.4732823,-2.6412213
5240,2.0637913,6.8617468,-2.1595588,139.0000000,-63.6259537,-183.9084015,0.6033357,-1.9823889,10.5990763,0.2671756,-4.7633586,-1.9083970
5250,1.4748207,6.9192076,-3.0023136,136.4274750,-61.7404594,-180.6259613,0.5889706,-1.9416877,10.5080976,0.0763359,-5.3282442,-1.1908396
5260,0.9864060,7.0197635,-3.9552009,134.2213745,-63.1374054,-179.5343475,0.6488253,-1.9895715,10.4913378,-0.1526718,-5.4351144,-0.8702290
5270,0.4572902,7.0556765,-4.8697815,131.3129730,-58.4274826,-180.5801544,0.6823440,-2.0542145,10.5440102,0.0763359,-5.9541984,-0.2900763
5280,-0.0981618,7.0484939,-5.7245069,126.2900772,-52.3511467,-182.0839691,0.7014975,-2.0159075,10.5033092,0.0687023,-6.5419846,-0.4045801
5290,-0.8188128,7.0437055,-6.5002246,118.1526718,-49.4122124,-182.4656525,0.7158626,-2.0230901,10.6062593,0.4732825,-6.7557254,-0.1603053
5300,-1.6711442,6.8904772,-7.1945391,108.5954208,-39.4885483,-180.7251892,0.7733232,-2.0206959,10.5751352,1.0305344,-6.6259542,-0.9007633
5310,-2.7006457,6.8665352,-7.7284436,97.8091583,-27.4580154,-176.1145020,0.7637464,-1.9799947,10.6158361,1.6641221,-5.5038166,-1.1297710
5320,-3.4739690,7.4507174,-6.4834652,-69.1374054,11.7404585,115.7480927,0.8619082,-1.9368993,10.4290895,0.8244275,-2.8473282,-2.9465649
5330,-3.3111639,7.3501616,-6.4954362,-75.1679382,15.6717558,126.8015289,0.9480990,-1.8435259,10.4362717,0.4351145,-2.7404580,-3.4198472
5340,-3.5529771,7.2974896,-6.2631998,-82.4885483,16.9847336,138.6793823,0.8930327,-1.8531027,10.4147243,0.1068702,-2.9160306,-4.1221375
5350,-3.6822634,6.9120250,-5.3151007,-91.3206100,18.8473282,152.5648804,0.9720409,-1.8100072,10.5942879,-0.1603053,-2.6335878,-3.9160306
5360,-3.5074875,6.6941538,-4.4675574,-99.5877838,20.1297703,169.8702240,0.9864060,-1.7669119,10.5559816,-0.0534351,-2.2748091,-4.4274807
5370,-2.4636209,6.5289545,-3.8354914,-106.4503784,26.6030540,188.2671814,0.9624642,-1.8435259,10.6086531,0.3129771,-2.2519083,-4.5954199
5380,-1.2521610,6.4092450,-3.7947903,-112.4427490,40.8167953,204.2442780,0.9289455,-1.8052188,10.5847120,0.6183206,-1.9007634,-5.7709923
5390,0.4094064,6.3637557,-4.3358769,-119.0305328,62.0916023,216.7709961,0.9840119,-1.7764885,10.5511932,0.8473282,-2.0305343,-5.5496182
5400,1.8195840,6.2248926,-4.9176650,-130.4885559,87.5877838,224.7175598,0.9696468,-1.8124014,10.5296450,0.7557252,-1.6946565,-5.7862597
5410,3.0861101,6.2703824,-4.9296360,-144.8167877,100.1908417,227.1832123,0.8547257,-1.8339491,10.5296450,0.7480916,-1.3129771,-5.2290077
5420,5.1331420,6.4619174,-3.6583214,-158.5343475,89.9465637,220.7022858,0.8236012,-1.8147956,10.5344334,0.4885496,-1.3664122,-5.4198475
5430,7.3166428,6.9670911,-1.8004304,-166.5648804,67.7709961,203.0915985,0.6751614,-1.8267666,10.4697905,0.3358779,-1.4427481,-4.3816795
5440,10.0077124,7.9558916,0.7613522,-166.4885559,52.8396950,173.4045868,0.7014975,-1.8794388,10.5368280,0.2748092,-1.4809160,-3.7099237
5450,12.3324699,8.7148495,3.3135581,-158.2671814,35.8625946,130.3435059,0.6703730,-1.8961980,10.6062593,0.3358779,-1.7938931,-3.0610688
5460,14.6476507,9.3660688,5.9351954,-140.0534363,1.9007634,75.4656525,0.6607963,-1.9033806,10.5272512,0.2824427,-2.3511450,-2.4580152
5470,15.8136215,9.4546537,7.3980455,-112.3435135,-23.0763359,13.9923668,0.6224893,-1.9416877,10.5344334,0.5648855,-2.9007633,-2.0458016
5480,16.0865593,9.4738073,7.9415264,-78.8244247,-19.7862587,-47.3358765,0.5458752,-1.9823889,10.5918941,0.8015267,-3.5114503,-2.4656489
5490,15.1001530,8.6885138,7.0844064,-47.9694672,-26.1221371,-100.5801544,0.6033357,-1.9440818,10.5631638,0.7786260,-4.1374044,-1.7938931
5500,13.2518387,8.6406298,4.7357068,-39.1145020,-47.1832047,-154.7175598,0.6057299,-1.9823889,10.5823174,0.7099237,-4.3511453,-1.4274809
5510,11.4202833,7.3477674,4.2808108,-17.0305347,-52.7404594,-175.7480927,0.5865764,-1.9249283,10.5871058,0.6793893,-5.1832061,-1.4580153
5520,9.7563219,7.4195933,3.1986370,-5.0916033,-60.2824440,-204.9465637,0.5865764,-1.8914096,10.5655584,0.6564885,-5.6335878,-0.9465649
5530,7.6278877,7.4579000,2.8849983,9.1450386,-87.2213745,-227.1603088,0.7062859,-1.8554969,10.5033092,0.6183206,-5.9083967,-0.7557252
5540,6.3757267,6.9670911,2.9496415,21.1603050,-109.5801544,-245.6030579,0.8116302,-1.8411317,10.4841557,0.4961832,-5.7709923,-1.0534351
5550,5.3797436,7.2735476,2.7557120,31.5954189,-122.8778610,-250.1374054,0.9600700,-1.8435259,10.5990763,0.4503817,-5.3969464,-0.8702290
5560,4.3670015,7.5081782,2.2433555,41.6946564,-127.5038147,-250.1374054,0.9169745,-1.8483143,10.4554253,0.2290076,-4.9618320,-1.0305344
5570,3.0717452,7.6925306,1.3479286,53.2519073,-120.3664093,-250.1374054,0.8595140,-1.8195840,10.4769726,0.3435115,-4.7099237,-1.7022901
5580,1.5825592,7.4100165,0.3423691,66.6641235,-103.9007645,-250.1374054,0.9097920,-1.8076130,10.5128860,0.1908397,-4.4580154,-1.6488550
5590,-0.5291159,7.3549500,-0.8427547,79.8167953,-84.9083939,-250.1374054,0.8331779,-1.8866212,10.5320396,-0.0839695,-4.4503818,-1.8778626
5600,-2.1523764,7.2974896,-1.9752063,93.4503784,-70.6488571,-250.1374054,0.6991033,-1.9009864,10.5464048,-0.3129771,-4.5954199,-1.5419847
5610,-3.4763632,6.9910331,-2.9735832,104.7404556,-66.4045792,-250.1374054,0.7134684,-1.9345051,10.4171181,-0.4274809,-5.0381680,-1.7099236
5620,-4.4268565,6.9287844,-3.5098817,111.5419846,-66.7099228,-250.1374054,0.6823440,-1.9991482,10.5655584,-0.4580153,-5.1679387,-1.6870229
5630,-5.5210009,6.6007805,-3.9121056,110.5343475,-75.0000000,-250.1374054,0.5841822,-2.0206959,10.3955708,-0.3206107,-5.4045801,-1.3282443
5640,-6.7252784,5.9256191,-4.0389977,101.5572510,-89.2519073,-243.5725250,0.7014975,-2.0278785,10.5320396,0.0076336,-5.8320613,-0.7404580
5650,-7.8194227,5.7221127,-3.9815371,90.4045792,-101.4732819,-229.9389343,0.5793939,-2.0422437,10.5152798,0.1450382,-6.3053436,-0.3206107
5660,-8.3581152,5.5138183,-3.7253587,76.8549652,-107.2442780,-213.0610657,0.6536137,-1.9776005,10.4961262,0.8320611,-6.8396945,-0.2671756
5670,-8.4682484,5.3127065,-3.2944047,62.4732819,-115.7175598,-195.0915985,0.5626345,-1.9847831,10.5009146,1.1221374,-7.3206105,-0.0381679
5680,-8.7962523,5.2432747,-3.0837159,47.6641235,-113.7175598,-176.8396912,0.7326220,-1.9560528,10.4530315,1.4732825,-7.5572519,0.6259542
5690,-9.5983057,5.3079181,-3.0573800,34.6106873,-91.2290039,-154.9847260,0.8164186,-1.8794388,10.6493549,1.7328244,-8.0992365,0.1221374
5700,-10.3500814,5.3821378,-3.1938488,21.7709923,-67.0687027,-127.0687027,0.8307837,-1.8315549,10.5918941,1.8473282,-8.6488552,-0.2595420
5710,-10.7570934,4.9320302,-3.2225790,9.6793890,-49.1145020,-99.2137375,0.9457048,-1.7860653,10.5655584,2.1603053,-8.8854961,-0.2061069
5720,-11.0779142,4.7404952,-3.1651185,-0.9465649,-49.2061081,-71.7480927,0.9816177,-1.8267666,10.4458485,2.7557251,-5.6030536,-0.7404580
5730,-12.6868095,4.9511838,-3.0478032,-10.3282442,-49.2748108,-37.9771004,0.9935886,-1.6424140,10.5344334,2.8473282,-6.0381680,-0.7022901
5740,-14.1664190,4.3741841,-2.9328821,-18.9770985,-29.3816795,6.6717558,1.0917504,-1.6352314,10.4123297,2.0305343,-6.2748094,-1.0458015
5750,-14.5734310,4.3670015,-2.9807658,-28.6030540,-0.6259542,61.5267181,1.1683644,-1.5873476,10.4434547,1.3664122,-7.0534353,-1.9694656
5760,-13.7665892,4.7045822,-3.1890604,-38.6641235,26.9236641,121.6488571,1.2473727,-1.6400198,10.4721851,0.8778626,-6.3664122,-2.2366412
5770,-12.2271252,5.2121506,-3.4883339,-50.3969460,53.9083977,179.7099304,1.1970947,-1.6352314,10.5033092,0.4580153,-5.1526718,-2.6335878
5780,-9.7778702,5.8873119,-3.4859397,-64.9542007,86.5419846,228.6564941,1.1779412,-1.7070571,10.4219065,0.1984733,-3.9312978,-3.4045801
5790,-8.3772688,6.1961622,-3.7229645,-83.0381699,108.9847336,250.1297760,1.1228749,-1.6879035,10.3644457,-0.2366412,-2.7175572,-3.5190840
5800,-7.3405848,6.3876977,-4.2209558,-106.8244247,127.5343475,250.1297760,1.0199248,-1.8554969,10.3859940,-0.5954198,-1.9160305,-3.8854961
5810,-6.7061248,6.0405402,-3.5122759,-130.6412201,137.1908417,250.1297760,1.0247130,-1.9057748,10.5655584,-1.1450381,-1.4732825,-3.6335878
5820,-5.5640965,5.5545197,-2.7437410,-152.5038147,124.0534363,250.1297760,0.8643024,-1.9009864,10.4961262,-1.3358779,-1.6259542,-4.5038166
5830,-4.2808108,5.9040713,-1.6088953,-165.2137451,99.1297684,250.1297760,0.8307837,-1.9201399,10.5224628,-1.0305344,-1.7633588,-4.0992365
5840,-2.7317703,6.2823529,-0.9409165,-163.7786255,74.7175598,250.1297760,0.7613522,-1.9895715,10.5942879,-0.6183206,-2.0152671,-4.0916033
5850,-1.2928623,6.6127515,-0.0766141,-151.4351196,56.5648842,250.1297760,0.7398046,-2.0159075,10.5871058,0.2366412,-2.3129771,-3.8473282
5860,0.2944853,6.3805151,0.4836263,-135.1068726,42.7862587,250.1297760,0.7254394,-2.0350611,10.5703468,0.9389313,-2.2977099,-4.1526718
5870,2.7150109,6.1075773,1.0438666,-119.8854980,24.0000000,250.1297760,0.7062859,-1.9656296,10.6373835,1.4732825,-2.7557251,-3.3664122
5880,4.6447277,6.4930420,2.2242019,-107.5801544,-4.5572519,250.1297760,0.6129125,-1.9081690,10.5200682,1.8931298,-3.2748091,-3.5572519
5890,8.0037756,6.7803445,3.3949606,-101.0000000,-46.7557259,235.3206177,0.6919208,-1.8578910,10.5296450,1.7328244,-4.1068702,-3.5114503
5900,12.0834742,7.5776095,4.2257442,-97.3053436,-78.7633591,153.3740387,0.7589580,-1.7884595,10.5392218,1.6564885,-4.3435116,-2.7251909
5910,15.7896795,8.4299412,5.4132624,-89.1068726,-118.3893127,44.4427490,0.7230452,-1.7238164,10.5009146,1.2748091,-3.6259542,-1.3358779
5920,18.6651001,7.9918046,5.7173243,-75.3511429,-151.6946564,-86.1221390,0.5769997,-1.7022687,10.6756907,1.4351145,-4.6259542,-1.1145039
5930,17.5087070,7.4579000,5.6239510,-59.1068687,-160.1984711,-214.1374054,0.4620786,-1.7836711,10.6804790,2.7404580,-6.9007635,0.3282443
5940,13.2015610,7.3094602,5.9639258,-40.7404594,-164.5801544,-250.1374054,0.2202654,-1.6376256,10.8073711,3.9160306,-9.4351149,2.3969467
5950,9.7204094,6.7228842,4.5848727,-21.8549614,-143.0763397,-250.1374054,0.3519458,-1.5298871,10.5152798,6.0229006,-14.6870232,4.3435116
5960,5.8873119,6.1913738,4.2137733,-5.3206105,-121.0152664,-250.1374054,0.7230452,-1.5825592,10.3524752,5.3740458,-10.0839691,4.8244276
5970,1.9392935,5.4587522,3.7062054,10.0839691,-93.0381699,-250.1374054,0.7709290,-1.7238164,10.3476868,3.1755726,-5.6183205,5.9465647
5980,-1.7381816,4.8913293,2.9544299,25.0229015,-74.7633591,-250.1374054,0.6895266,-1.7669119,10.5679522,3.1068702,-8.0839691,7.0610685
5990,-5.2935529,4.6064205,2.2864509,40.0534363,-64.3664093,-250.1374054,1.0678085,-1.7884595,10.5583754,3.9770992,-8.2366409,7.8396945
6000,-8.0253229,5.4635406,1.3958124,52.3664131,-65.8015289,-250.1374054,1.2114599,-1.9057748,10.5775290,4.6564884,-8.1068707,6.7709923
6010,-12.2319136,4.5824785,1.6232605,64.1221390,-65.4961853,-250.1374054,1.2330076,-1.9728121,10.5368280,4.6946564,-7.6412215,5.3664122
6020,-14.7434187,5.3605900,1.3120158,76.4198456,-68.4503784,-250.1374054,1.3120158,-1.9536586,10.5416164,4.2900763,-6.8549619,3.8167939
6030,-17.8606529,6.5912037,0.3663110,80.8015289,-46.3435097,-249.7557220,1.1635761,-1.8578910,10.5966825,4.3511453,-6.5343513,2.0916030
6040,-19.6131992,6.4643116,-0.2011119,76.7480927,-6.1450381,-131.0152740,1.1563935,-1.8315549,10.6062593,4.3358779,-6.6488547,0.9618320
6050,-19.6131992,5.6981707,-1.6424140,58.5267181,47.4961815,31.4351139,1.0414724,-1.8124014,10.4817610,4.1755724,-6.4427481,0.5572519
6060,-19.6131992,4.1515245,-3.2297616,19.9694653,113.5419846,231.5419922,1.0678085,-1.7669119,10.5033092,3.9160306,-5.9923663,-0.5114504
6070,-19.6131992,2.8969693,-4.8769641,-39.3511467,185.3053436,250.1297760,1.0773853,-1.7381816,10.5224628,3.7328243,-5.3129773,-0.5954198
6080,-19.2899837,2.0757623,-5.7580256,-116.9923630,250.1297760,250.1297760,1.0893562,-1.8411317,10.4554253,3.4961832,-5.1297708,-1.0076336
6090,6.2919297,-5.2456689,4.4986820,-250.1374054,134.7633514,250.1297760,1.1563935,-1.6998745,10.5200682,4.2442746,-1.3206106,-3.7251909
6100,19.6126022,-0.4836263,10.2734671,-250.1374054,69.9465637,250.1297760,1.1300575,-1.7142396,10.4554253,4.3129773,-1.5725191,-4.1450381
6110,19.6126022,1.9967541,14.0179796,-195.4809113,64.5419846,250.1297760,1.1132981,-1.6495966,10.4697905,3.7099237,-1.0610687,-4.1679387
6120,19.6126022,3.5314295,17.0585995,-82.1908417,-2.2671757,-70.1755753,1.2090657,-1.6376256,10.3500814,2.7099237,-1.0152671,-4.7175574
6130,19.6126022,1.2545552,14.5470953,20.2671757,-90.6183243,-250.1374054,1.0845678,-1.5969244,10.3716288,1.6793894,-0.4809160,-4.5267177
6140,17.7146072,-0.6296718,10.5559816,89.2061081,-126.6641235,-250.1374054,1.0271072,-1.6208663,10.2974091,0.0687023,-0.9541985,-5.1755724
6150,10.5535870,-0.9816177,7.9127960,130.5343475,-124.4961853,-250.1374054,0.8499373,-1.6352314,10.3524752,-1.1832061,-1.7786260,-5.5419846
6160,2.6336083,-0.7661406,5.8801293,157.7328186,-108.9923630,-250.1374054,0.7517755,-1.6400198,10.3740225,-2.3435113,-2.1755726,-5.1832061
6170,-5.5569139,2.8347204,4.6543045,179.6870270,-114.0229034,-250.1374054,0.7900825,-1.7381816,10.4051476,-3.3740458,-2.1679389,-4.5572519
6180,-15.2150736,3.1794837,4.8386569,206.2290039,-107.4503784,-250.1374054,0.6536137,-1.8171898,10.5272512,-4.0534353,-2.3740458,-4.0229006
6190,-19.6131992,6.9407554,3.0214672,231.4732819,-69.2900772,-250.1374054,0.5291159,-1.8076130,10.6469603,-3.8396947,-3.1832061,-3.4122138
6200,-19.6131992,9.9765873,-0.9145803,233.0534363,-0.9312977,-199.5877838,0.4668669,-1.8147956,10.7403336,-2.8702290,-5.4198475,-2.0916030
6210,-19.6131992,11.7674408,-5.5952206,197.8854980,82.2442780,16.6564884,0.4309541,-1.8411317,10.8815908,-1.1832061,-6.9694657,-1.1679389
6220,-19.6131992,10.7451220,-9.1074963,121.3435135,162.1221313,238.5954132,0.4261657,-1.8004304,10.8887739,0.9618320,-7.1679387,0.1679389
6230,-19.6131992,8.1043310,-10.9558105,19.0000000,220.7557220,250.1297760,0.4884146,-1.8387375,11.1497402,3.9923663,-6.6870227,1.5343511
6240,-15.2078915,5.3198891,-10.5416164,-87.3358765,248.2748108,250.1297760,0.6129125,-1.7597293,11.3364868,8.4427481,-7.1145039,3.0381680
6250,-10.2974091,2.8227494,-7.6590118,-179.8625946,250.1297760,250.1297760,0.5123565,-1.8195840,11.6405487,14.6793890,-7.7938933,4.3740458
6260,-6.0884237,0.7517755,-4.0605454,-243.4961853,249.9923706,250.1297760,0.6991033,-1.7980363,11.6597023,22.0916023,-4.8778625,6.0992365
6270,-0.2705434,-0.3351865,0.4118006,-250.1374054,205.6564941,250.1297760,0.9265513,-1.7381816,11.6237898,28.7938938,1.8702290,6.8625956
6280,6.5888095,0.2896969,4.7189474,-250.1374054,145.4732819,250.1297760,0.8283895,-1.5442522,11.4250717,34.5572510,4.1832061,7.0839696
6290,15.9955797,2.4588325,9.3421268,-218.3282471,83.1832047,250.1297760,0.8738791,-1.4245427,11.1090393,38.5725174,5.3587785,6.7938933
6300,19.6126022,4.0054789,11.2167778,-146.7709961,39.1374054,250.1297760,0.9744351,-1.3335636,10.8001890,40.5648842,7.4351144,6.8778625
6310,19.6126022,3.8618276,11.8129311,-67.4580154,-4.3740458,58.3129768,0.9720409,-1.2952565,10.5416164,40.3816795,7.3511453,8.5648851
6320,19.6126022,3.0094962,10.4362717,-0.8854962,-64.2671738,-175.8473358,1.0462608,-1.1731528,10.2614956,39.0534363,6.9236641,8.1984730
6330,19.6126022,2.2744799,8.5041609,39.0534363,-118.5954208,-250.1374054,1.2090657,-1.1516051,9.9239149,36.2595406,7.5572519,7.7938933
6340,16.1128960,1.7764885,7.2232695,63.5267181,-136.4427490,-250.1374054,1.2473727,-1.1396341,9.8425131,31.8320618,8.0839691,6.3816795
6350,11.9901009,1.6328372,6.4212160,81.9312973,-126.8091583,-250.1374054,1.0678085,-1.0702027,10.0244713,27.3435116,6.2213740,4.3587785
6360,8.5496502,2.0039365,5.5760674,99.0992355,-105.4961853,-250.1374054,0.8068419,-1.1492109,10.7714586,26.2137413,2.3129771,3.8015268
6370,3.7181761,2.7030399,4.8338685,116.5496216,-82.4656525,-250.1374054,0.7254394,-1.2473727,11.2957859,28.2900772,2.8244274,4.7404580
6380,-0.9337339,3.7971845,4.3167233,135.4198456,-64.6106873,-250.1374054,0.6296718,-1.3479286,11.7842007,33.7099228,4.2137403,5.7328243
6390,-4.4077029,5.1570840,3.5912843,155.7175598,-61.0000000,-250.1374054,0.0478838,-1.3886299,13.4194317,46.3893127,3.2061069,6.7709923
6400,-8.1091194,5.7077475,3.1124463,180.0000000,-49.2137413,-250.1374054,-0.4046180,-1.5059452,14.8320036,70.1221390,6.0610685,12.0000000
6410,-9.5456333,6.4116392,1.4915800,202.2748108,-48.0839691,-250.1374054,-0.3184272,-1.5705882,15.3228121,99.4503784,12.0458012,20.3282452
6420,-10.7714586,7.5608501,-0.6033357,215.8549652,-47.6259537,-250.1374054,-0.0119709,-1.6160779,15.2342272,129.0992432,23.0000000,25.8015270
6430,-12.6939926,7.1969333,-1.8818330,222.2519073,-30.6335869,-238.0534363,0.4477134,-1.4963684,14.1496601,154.8167877,34.0000000,28.4427490
6440,-15.6747580,7.0389171,-3.4763632,220.6641235,-28.4885502,-156.5725250,0.7948709,-1.2018831,12.8376436,172.6335907,42.1374054,29.2824421
6450,-15.9046001,6.4355812,-5.1044121,211.8091583,-6.9160304,-79.1374054,1.4748207,-0.6991033,11.2143831,180.6564941,48.2137413,26.3358784
6460,-16.9700146,6.6606350,-5.7101417,195.2977142,16.2671757,-3.7786260,2.0470319,-0.2130829,9.5743637,176.9923706,54.3206100,20.3435116
6470,-16.7401733,6.6031747,-6.2679882,169.8854980,34.6412201,78.6030502,2.1906834,0.1197095,8.9997578,166.3511505,53.6488533,11.5801525
6480,-15.9309368,6.9335728,-6.9144192,136.4198456,80.3587799,158.6717529,1.7669119,0.6464311,9.3852224,157.4274750,51.5190849,5.2290077
6490,-14.2047262,6.6726060,-7.7380204,92.0305328,159.0229034,226.6335907,1.4604555,0.9864060,9.9071560,151.4274750,52.0381660,-0.8015267
6500,-11.1832590,5.4156566,-8.9614515,31.8396950,219.7175598,250.1297760,1.2784972,1.0845678,9.9957409,145.2213745,59.0458031,-2.8854961
6510,-9.2631187,4.4651632,-8.6813307,-40.3206100,238.6335907,250.1297760,0.8690908,1.3982066,10.3093796,138.7480927,69.0152664,-4.2137403
6520,-7.8529415,3.9743545,-7.5847921,-116.4122162,242.6564941,250.1297760,0.6895266,1.5466464,10.5033092,139.5419922,71.1068726,-6.7175574
6530,-6.1458845,3.8307030,-6.4786768,-188.3053436,245.4351196,250.1297760,0.6057299,1.7669119,10.3692341,141.7862549,73.9542007,-11.4274807
6540,-2.9783716,3.9432299,-5.1211715,-250.0229034,225.9007568,250.1297760,0.1412572,1.7118455,9.7754755,145.9541931,64.1526718,-16.5343513
6550,1.9321109,4.9152708,-3.6080434,-250.1374054,201.2213745,250.1297760,0.0311245,1.8961980,9.4139528,148.2366486,52.6335869,-20.9618320
6560,7.5800037,6.3948798,1.0342898,-250.1374054,168.5496216,250.1297760,0.2466015,2.3870070,8.6310530,140.3816833,66.8167953,-23.7251911
6570,12.8472204,6.5696559,8.2168579,-250.1374054,126.7862625,184.1374054,-0.2274480,3.2896163,7.9271612,122.6183243,82.3511429,-25.4809170
6580,16.1942978,5.6790175,13.3476067,-208.8473358,46.8702278,66.7709961,-1.2401901,4.0126615,7.5105724,96.9083939,66.5877838,-26.9465656
6590,16.6037045,6.3062949,17.1304264,-115.6488571,-36.1755714,-32.4580154,-1.8578910,4.0054789,7.7930865,74.6412201,47.8167953,-26.1908398
6600,15.5215302,6.9838505,17.3219604,-7.3664122,-109.7175598,-111.3969498,-1.9057748,3.7373297,8.1641865,63.1908379,34.7862587,-22.1984730
6610,13.4481621,6.3565731,13.7809544,85.7251892,-152.8091583,-168.0381622,-1.8531027,3.7971845,8.1809454,57.3740463,32.2748108,-17.8854961
6620,9.5240860,5.4731169,6.8330169,143.2442780,-171.4885559,-194.7099304,-1.8866212,4.0318151,8.1593981,50.6946564,34.2137413,-16.2519093
6630,7.9271612,7.8122401,1.4460905,162.0381622,-178.3053436,-193.2366486,-1.9776005,4.3286943,8.0971489,41.4427490,39.7557259,-17.0992374
6640,8.5759869,9.9598284,-1.0630201,160.0610657,-172.9770966,-202.9923706,-2.3534882,4.2113791,8.3988171,35.1221390,37.7404594,-14.9618320
6650,6.0381460,8.7723103,-2.7197993,151.5038147,-133.2366486,-229.6183167,-2.4708035,4.2281384,8.6669655,31.9160309,30.2595425,-10.9618320
6660,2.1858950,7.4148049,-3.5122759,136.3053436,-82.5419846,-247.6946564,-2.3630650,4.3454537,8.7411861,28.5190830,26.1908398,-7.0229006
6670,-0.6081241,7.2687593,-2.8897867,116.9923630,-50.9847336,-249.2595367,-2.1595588,4.3095412,8.8225880,24.7633591,24.9160309,-4.6335878
6680,-2.6024840,6.8162575,-2.3870070,103.7328262,-36.1068687,-248.7557220,-2.0206959,4.2927818,8.7699156,21.6641216,23.1679382,-2.9770992
6690,-4.4579806,6.2081332,-2.3558824,96.8396912,-28.4885502,-250.1374054,-1.8914096,4.2640514,8.8249826,18.5954189,19.7022896,-2.0687022
6700,-7.0437055,5.5066357,-2.8131726,91.6335907,-29.4274807,-250.1374054,-1.7046629,4.2712340,8.7723103,15.7328243,15.6641226,-2.2748091
6710,-9.2607250,5.0900469,-2.8131726,86.3740463,-33.6183205,-242.4274750,-1.7286048,4.2855992,8.9135675,13.0534353,11.6488552,-2.6106870
6720,-12.2367020,4.6423335,-3.0047078,79.4885483,-39.2900772,-215.0686951,-1.6017127,4.2975702,8.8082228,9.9618320,8.6564884,-3.9389312
6730,-15.1767673,4.7764082,-3.3351059,67.5801544,-31.8396950,-167.9847260,-1.6974803,4.4388270,9.1338329,7.7099237,7.4503818,-4.7404580
6740,-18.8518486,4.8530221,-4.3741841,50.6564903,0.5572519,-102.0610657,-1.6160779,4.3741841,9.3876171,6.5954199,7.8778625,-5.6183205
6750,-19.6131992,4.8530221,-5.0134325,29.8244267,35.8091621,-22.8015270,-1.4197544,4.3957319,9.5576038,6.3969464,8.9618320,-6.0381680
6760,-19.6131992,5.3151007,-5.5353661,8.9923668,78.9312973,55.2977104,-1.0534433,4.2927818,9.7826586,6.9465647,11.0687027,-8.3435116
6770,-19.6131992,5.9136481,-6.4236102,-12.7709923,127.0916061,129.3816833,-0.7038917,4.0389977,9.9717989,8.0916033,15.3206110,-12.6488552
6780,-16.9843807,6.2631998,-7.5871863,-48.5038185,180.3435059,188.1297760,-0.6512195,3.8546450,9.8257532,9.4732828,18.8473282,-16.7328243
6790,-14.5686426,6.2464404,-7.1825686,-90.8396912,217.4809113,236.5801544,-0.6895266,3.9456241,9.5384512,10.4503813,18.4503822,-22.3206100
6800,-11.9757357,5.3534074,-5.6862001,-124.3282471,236.6793823,250.1297760,-0.8666966,4.0796990,9.1625633,9.7404585,16.7709923,-26.7328243
6810,-9.8137827,4.5417776,-4.0796990,-143.6793823,245.7175598,250.1297760,-1.0965388,4.1084290,8.6334467,6.8625956,13.4503813,-30.7328243
6820,-7.2831244,3.8785870,-3.1076579,-152.6717529,250.1297760,250.1297760,-1.2737088,4.2041965,8.1402445,2.1526718,9.5267172,-34.6259537
6830,-4.3526363,3.3782012,-1.9799947,-156.3587799,250.1297760,250.1297760,-1.3766589,4.2113791,7.4459291,-4.9541984,2.2977099,-36.8320618
6840,-1.2066715,2.9137285,-0.7230452,-161.6793823,229.8015289,250.1297760,-1.6543850,4.3263001,7.0053983,-15.7633591,-13.2900763,-41.1374054
6850,2.6551561,2.9711890,1.6855093,-168.5572510,163.6030579,250.1297760,-1.6184721,4.6495161,6.9814563,-27.9923668,-24.4656487,-44.9083977
6860,9.1386213,4.1180058,6.5289545,-152.0229034,65.3129807,250.1297760,-2.0613971,4.4484038,7.0963774,-39.7099228,-30.9770985,-48.4351158
6870,15.5119534,5.7484488,10.3692341,-100.5877838,-10.0687027,241.0305328,-2.3127871,4.2975702,7.3142486,-51.2900772,-39.2442741,-49.2213745
6880,19.6126022,8.8920193,12.0930510,-34.4732819,-59.5572510,151.0839691,-2.6910689,4.1084290,7.6063399,-60.8931313,-50.4122124,-49.4274826
6890,19.6126022,9.7347746,11.6956158,28.5114498,-106.9542007,29.4198475,-2.9951310,3.9384418,7.6518297,-69.6717529,-66.7251892,-50.3435097
6900,19.6126022,8.9087791,10.6637201,80.7709961,-156.3358765,-78.1832047,-2.9759774,3.8546450,8.0229292,-80.0916061,-75.2595444,-51.0076332
6910,18.3035774,7.9870162,7.7643566,125.4885483,-206.8320618,-163.1755676,-3.2297616,3.7325413,8.1163025,-92.4580154,-69.2061081,-49.7175560
6920,14.5039997,7.1251078,4.4986820,152.3893127,-250.1374054,-229.8091583,-3.7540891,3.5721307,8.5209198,-104.2213745,-59.8549614,-43.7251892
6930,10.6948442,6.9862447,1.4604555,152.0305328,-250.1374054,-250.1374054,-4.1060348,3.5841017,8.8345594,-113.9312973,-54.7786255,-34.4351158
6940,7.7787213,6.9287844,-2.0302727,128.3053436,-250.1374054,-250.1374054,-3.9144998,3.1076579,8.8201942,-125.1755753,-58.5038185,-28.8931293
6950,4.9631548,6.6055689,-4.0437860,98.7709961,-250.1374054,-250.1374054,-3.8091555,3.1579359,9.1266499,-138.1984711,-70.5496216,-25.9923668
6960,1.4556671,6.2248926,-4.6447277,76.0457993,-230.1679382,-250.1374054,-3.5362179,2.6790979,9.2319946,-147.5496216,-87.1221390,-20.6564884
6970,-1.2808913,5.9016771,-5.1044121,61.7557259,-137.5648804,-250.1374054,-2.7509236,2.9352763,9.2391768,-153.3816833,-97.3740463,-16.0992374
6980,-3.8259149,5.4563580,-5.2241216,48.6717567,-60.6030540,-250.1374054,-2.8012016,1.3287752,9.3540983,-158.2366486,-98.0916061,-8.4809160
6990,-6.9144192,4.7596488,-5.8274570,30.8931293,-19.7099228,-250.1374054,-2.3846128,1.0965388,9.8856087,-159.4427490,-102.0229034,0.2519084
7000,-10.6349897,4.2041965,-5.5305777,14.5496187,0.8396947,-250.1374054,-1.7717001,0.8403605,10.3835993,-157.0610657,-104.2137375,6.5572519
7010,-14.0179796,3.9432299,-4.9200592,6.9160304,14.2290077,-218.7251892,-1.1252691,0.6177009,11.0084829,-152.9389343,-99.9007645,12.2213745
7020,-18.5741215,3.9025288,-4.5441718,5.4351144,17.9847336,-157.0534363,-0.6560079,0.3902529,11.4418316,-146.2061005,-94.1221390,15.2061071
7030,-19.6131992,4.5824785,-4.8793583,-3.1603053,14.8320608,-84.1755753,-0.4477134,0.2442073,11.7889891,-138.3740387,-85.7251892,18.4045811
7040,-19.6131992,5.2073622,-5.3342543,-20.5496178,30.9236641,-2.3816793,-0.1244979,-0.1508339,11.9781294,-128.3664093,-78.7938919,20.8702297
7050,-19.6131992,5.6814117,-5.3893204,-44.1297722,74.6641235,80.4809189,0.0047884,-0.3543400,12.2151546,-118.3053436,-72.2900772,23.0916023
7060,-19.6131992,6.3278427,-5.5736732,-69.2595444,127.7938919,151.3816833,0.3495516,-0.4932030,12.2271252,-107.4809189,-67.4045792,23.9389305
7070,-17.9061432,5.3869262,-5.0421629,-91.3053436,168.3129730,210.0458069,0.4261657,-0.7206510,12.1600885,-97.4274826,-61.3816795,23.8396950
7080,-14.3100700,4.9607606,-4.4795284,-109.1221390,194.8854980,250.1297760,0.6416427,-0.7709290,12.1217813,-87.3282471,-53.3816795,23.6412220
7090,-10.9294748,4.9463954,-4.0892754,-122.5496216,208.1908417,250.1297760,0.9385223,-0.7541697,12.3516235,-76.6183243,-44.3969460,23.3206100
7100,-7.9295554,4.5393834,-3.8498566,-134.2442780,207.3053436,250.1297760,0.8930327,-0.9097920,12.4210548,-65.7786255,-37.4198456,22.9770985
7110,-5.3414369,4.1682839,-3.4356618,-145.2671814,200.3587799,250.1297760,0.9816177,-1.0654143,12.2702208,-54.7175560,-32.7786255,20.8244267
7120,-2.3008161,3.6966286,-2.5617826,-155.6641235,188.5801544,250.1297760,1.0989330,-1.2354017,12.3204985,-43.6793900,-27.4656487,18.9541988
7130,0.6009415,3.2489152,-1.3263810,-162.9236603,168.0305328,250.1297760,1.3263810,-1.1468167,12.1672707,-34.0152664,-19.9541988,16.6564884
7140,5.0277977,3.0597742,0.8643024,-161.2213745,124.6946564,250.1297760,1.0725969,-1.2258250,12.1050215,-24.9312973,-14.9236641,13.1068707
7150,11.6908274,4.4627690,4.3717899,-141.3664093,42.5725174,250.1297760,1.1013272,-1.3790531,12.0451670,-15.0076332,-10.8931293,11.8549614
7160,18.0857067,6.2679882,7.8840661,-93.7175598,-51.4961815,199.5267181,1.2593436,-1.3670821,12.0762920,-5.5190840,-4.6335878,9.6183205
7170,19.6126022,7.8409705,9.5432396,-33.4351158,-110.3816757,106.5038147,1.3048333,-1.3718705,11.8727856,2.8091602,1.0000000,7.0763359
7180,19.6126022,8.9518747,9.3397331,18.7862587,-140.6793823,5.4580154,1.1755470,-1.3191984,11.7554703,10.4274807,5.0152674,2.6793892
7190,19.6126022,8.9758167,8.3629036,55.8015251,-157.9389343,-90.9007645,1.0247130,-1.2784972,11.6525202,17.5190830,8.4427481,-0.8702290
7200,18.1766872,8.1689749,7.2496057,86.6412201,-163.3740387,-166.8244324,0.8547257,-1.1180865,11.4873209,23.5038166,12.3969469,-4.3511453
7210,15.1001530,7.3190370,5.9735026,118.4503784,-183.9618378,-228.0839691,0.5698171,-1.0079538,11.3700056,28.0992374,15.8625956,-5.6335878
7220,11.8201132,6.5074067,4.0892754,145.5419922,-215.8854980,-250.1374054,0.1699875,-0.7206510,11.0060892,31.2748089,16.3893127,-6.4274807
7230,7.8146343,5.9711084,1.9033806,162.2213745,-238.7633514,-250.1374054,0.0646431,-0.6177009,10.6397781,32.3893127,14.9694653,-7.4122138
7240,4.2640514,5.6862001,-0.3806761,163.1755676,-241.5877838,-250.1374054,-0.1963235,-0.4165890,10.5176744,31.2900772,14.2137403,-6.6870227
7250,1.3120158,5.3414369,-2.3798244,148.6946564,-214.8244324,-250.1374054,-0.2370248,-0.2777260,10.3452930,29.0992374,12.4656487,-5.3282442
7260,-1.3383518,4.8314743,-3.8450682,128.0000000,-162.5343475,-250.1374054,-0.3016679,-0.2418131,10.1681223,26.1221371,9.8702288,-4.1145039
7270,-5.0876527,3.9192882,-4.6997938,106.6946564,-106.0457993,-250.1374054,-0.2657550,-0.1795642,10.2255831,23.1068707,7.1297708,-2.5343511
7280,-10.7235746,2.9616125,-5.1714492,89.4809189,-76.7557220,-250.1374054,-0.1939293,-0.1125269,10.2686787,20.2977104,5.3740458,-2.1755726
7290,-17.6906662,2.9161227,-5.5808558,77.4885483,-67.8091583,-250.1374054,-0.0790083,-0.0598547,10.2231894,16.9236641,3.5648854,-1.6488550
7300,-19.6131992,3.8498566,-6.1554613,67.5954208,-74.4503784,-171.2900696,-0.0383070,-0.1101327,10.2088242,13.8702288,1.7633588,-1.4732825
7310,-19.6131992,4.4196739,-7.7811155,49.5419846,-47.1908379,-66.4732819,0.0981618,-0.1795642,10.2112179,10.2977095,0.3206107,-1.5343511
7320,-19.6131992,5.3869262,-9.6581602,5.6564884,20.3282452,37.9083977,0.1675933,-0.1963235,10.3500814,7.2595420,-0.5572519,-2.2061069
7330,-19.6131992,6.0572991,-9.7539282,-53.8244286,113.2061081,130.9313049,0.2250538,-0.2082945,10.2614956,3.9847329,-1.3053435,-3.0152671
7340,-18.8326950,5.6622581,-8.0947542,-100.6946564,202.9389343,204.4122162,0.1915352,-0.1580165,10.3213511,1.2519084,-2.6717558,-4.1832061
7350,-15.8878412,5.0062504,-5.7316895,-128.8167877,250.1297760,250.1297760,0.2705434,-0.2250538,10.3021975,-1.5190840,-3.8778627,-5.1679387
7360,-12.8496151,4.3717899,-4.5369892,-144.5114441,250.1297760,250.1297760,0.1604107,-0.1771700,10.2806492,-4.1450381,-4.2519083,-6.1908398
7370,-9.6605549,4.2018023,-3.9360476,-155.0152740,250.1297760,250.1297760,0.1699875,-0.1125269,10.3883877,-6.4427481,-4.5190840,-6.8931298
7380,-6.3254485,3.7780309,-3.3375001,-162.7404633,250.1297760,250.1297760,0.0095768,-0.2130829,10.4554253,-8.2213745,-5.3053436,-6.9236641
7390,-2.9400647,3.4380560,-2.4324965,-170.0839691,249.3511505,250.1297760,-0.1628049,-0.2920911,10.6924505,-9.1221371,-6.0992365,-7.0076337
7400,0.6943150,3.3255291,-1.3072275,-174.0839691,240.1984711,250.1297760,-0.2154770,-0.2609667,10.7594872,-9.4427481,-7.0458016,-6.7480917
7410,4.3478479,3.2106080,0.1412572,-175.4351196,216.6641235,250.1297760,-0.3974355,-0.3303981,11.0779142,-7.6183205,-6.9007635,-5.4503818
7420,9.8736372,4.3765783,2.9209111,-168.7480927,151.7328186,250.1297760,-0.3758878,-0.3950413,11.2072010,-4.6564884,-5.8320613,-3.6183207
7430,15.9189653,6.4714942,6.1482787,-141.5954132,48.5877876,221.7938995,-0.4141948,-0.4932030,11.2383251,-1.2442749,-4.0610685,-2.4274809
7440,19.6126022,8.3581152,8.9279327,-89.9542007,-44.4351158,129.4885559,-0.3064562,-0.5410868,11.1880474,2.1526718,-3.0152671,-1.1221374
7450,19.6126022,9.2918491,9.8951855,-27.1984730,-99.1374054,24.2213745,-0.2130829,-0.5793939,10.9989061,4.7709923,-2.2824428,-0.5572519
7460,19.6126022,9.3038206,9.4187412,26.3664131,-129.4580078,-76.8625946,-0.0694315,-0.5793939,10.9103212,6.4503818,-1.7175573,-0.8167939
7470,17.2908363,8.4850073,8.0588417,67.9465637,-153.8320618,-150.0686951,0.0263361,-0.4908088,10.6589317,7.1450381,-1.4198474,-0.5648855
7480,13.3045111,7.8289995,6.3182659,105.5190811,-169.6183167,-201.8702240,0.0287303,-0.4357425,10.5535870,7.0381680,-1.4809160,-1.6183206
7490,9.8473015,7.3405848,4.0030847,133.0610657,-170.7480927,-237.3816833,0.0718257,-0.3256098,10.5679522,6.0839696,-2.2977099,-1.9007634
7500,6.9407554,6.9910331,1.1563935,147.6335907,-159.8244324,-250.1374054,0.0407012,-0.3016679,10.5248566,4.8778625,-2.8931298,-3.0916030
7510,4.4100971,6.6558466,-1.1875180,147.9465637,-147.4503784,-250.1374054,0.0263361,-0.2011119,10.4314833,3.1068702,-3.4351146,-2.8015268
7520,1.8602852,6.2799587,-3.0861101,137.7633514,-129.1221313,-250.1374054,-0.1244979,-0.1987177,10.4626083,1.3053435,-4.6412215,-2.8396947
7530,-0.4572902,6.0764527,-4.2257442,122.1679382,-105.9389343,-250.1374054,-0.0837966,-0.1604107,10.3788109,-0.5343512,-5.5648856,-2.5190840
7540,-2.2960277,5.7580256,-4.9703374,104.8778610,-79.8854980,-250.1374054,-0.1388630,-0.1915352,10.5200682,-2.0076337,-6.2213740,-2.0610688
7550,-4.3454537,5.7556314,-5.6550756,87.0916061,-54.3969460,-250.1374054,-0.1125269,-0.1412572,10.6589317,-2.5190840,-6.8931298,-0.9847328
7560,-6.3422079,5.6790175,-6.3398137,68.6488571,-37.6030540,-231.0000000,-0.0407012,-0.1316804,10.7211800,-2.3435113,-6.9312978,-0.6564885
7570,-7.8313937,5.6718349,-6.8114691,48.5801544,-25.2900772,-201.9694672,0.0143651,-0.1915352,10.7618818,-1.7175573,-6.4274807,-0.0992366
7580,-8.6789370,5.7101417,-6.6486640,29.2671757,-13.4045801,-169.7099304,0.0000000,-0.0981618,10.8337069,-1.1221374,-6.3816795,0.2290076
7590,-9.1769285,5.8585815,-6.3374195,13.2900763,-1.3511450,-140.4122162,0.1149211,-0.1436514,10.7546988,-0.2366412,-6.3282442,0.3282443
7600,-9.8353300,6.0022330,-5.9280128,0.7633588,10.8320608,-115.1755753,0.1771700,-0.2106887,10.7738523,0.1068702,-5.4198475,0.0839695
7610,-11.0300312,6.3039007,-6.0118098,-10.1832066,18.5801525,-89.7251892,0.2250538,-0.2896969,10.7475166,0.5267175,-4.6488547,-0.2595420
7620,-14.2957048,6.7109132,-7.0700417,-26.4122143,29.9923668,-57.4045792,0.2753318,-0.2418131,10.5727406,0.2595420,-4.0839696,-0.9618320
7630,-17.6619358,6.6462698,-7.5967631,-43.3053436,71.7786255,-10.4732828,0.3687052,-0.3088504,10.4937325,-0.2824427,-3.7328243,-2.3893130
7640,-19.1439381,6.1458845,-7.5871863,-56.8396950,116.9694672,50.6564903,0.3567342,-0.3351865,10.5799236,-1.0687023,-3.2366412,-3.5496182
7650,-18.2173882,5.3534074,-8.0827837,-71.8625946,137.8625946,120.0152664,0.3136388,-0.3280039,10.5487986,-1.9160305,-3.5954199,-5.1603055
7660,-16.1847210,4.7021880,-8.2551651,-91.7557220,147.0458069,187.8091583,0.2250538,-0.3591284,10.6158361,-3.1374047,-3.4732823,-6.1221375
7670,-13.0148134,4.8075323,-7.8864598,-119.1450348,164.9389343,244.2290039,0.2346306,-0.3782819,10.5104914,-3.8931298,-3.6106870,-8.0610685
7680,-9.9406748,5.1451130,-7.2352405,-148.6335907,191.8854980,250.1297760,0.0790083,-0.3112446,10.6397781,-4.7938933,-3.4885497,-7.7633586
7690,-7.1370788,4.9344244,-6.0453281,-173.2595367,209.2748108,250.1297760,-0.0383070,-0.2801202,10.6804790,-5.2366414,-3.5038168,-7.8320613
7700,-5.3725610,4.7069764,-4.5202298,-191.7938995,219.6106873,250.1297760,-0.1675933,-0.2801202,10.9270811,-4.7709923,-3.4732823,-6.9923663
7710,-3.8785870,3.7780309,-3.1339941,-204.2824402,227.7175598,250.1297760,-0.2609667,-0.4022238,10.9175043,-3.8778627,-2.9923663,-5.9007635
7720,-2.6216373,2.6168492,-1.3479286,-211.8167877,227.2671814,250.1297760,-0.2442073,-0.4141948,10.8528605,-2.6564887,-2.4198472,-4.7633586
7730,0.5913648,1.9632354,1.1252691,-210.5954132,202.0610657,250.1297760,-0.1556223,-0.4141948,10.9629936,-1.3969465,-2.3358779,-3.7557251
7740,5.4395986,2.3032103,4.3454537,-193.6870270,139.3435059,250.1297760,-0.1173153,-0.4118006,10.9749641,0.0458015,-2.4656489,-3.5648854
7750,11.3269100,3.8330972,8.0660238,-155.9389343,65.7404556,250.1297760,-0.1508339,-0.4070122,11.0108776,1.7786260,-2.4427481,-2.6183207
7760,16.8407288,5.7029591,10.6134415,-104.7099228,4.3282442,192.0229034,-0.1651991,-0.2944853,10.8911676,3.0610688,-2.2519083,-2.5038168
7770,19.6126022,8.1833391,12.6389265,-46.5267181,-62.7709923,101.5954208,-0.1125269,-0.3112446,10.8959560,4.5190840,-2.4122138,-2.1068702
7780,19.6126022,9.1098909,12.7466650,10.0152674,-129.8549652,-3.8015268,-0.0718257,-0.3256098,10.8073711,5.2595420,-1.9389313,-1.6564885
7790,19.6126022,8.5113440,12.0044661,64.9312973,-177.4198456,-97.0534363,-0.0430954,-0.3064562,10.7906122,5.9770994,-1.5343511,-1.3664122
7800,16.0147324,8.2791071,9.2559366,116.4809189,-223.7786255,-169.5801544,-0.0383070,-0.2849085,10.6948442,5.5801525,-1.3282443,-1.1068702
7810,13.1129761,7.8122401,5.8753409,152.0915985,-250.1374054,-212.5572510,-0.0598547,-0.3112446,10.5392218,5.0000000,-1.8625954,-0.8015267
7820,10.6756907,7.5177550,2.5115047,173.3435059,-246.1984711,-237.0381622,-0.0239419,-0.3256098,10.5009146,3.8167939,-2.7557251,-1.4198474
7830,8.7316093,7.5943689,-0.2992737,182.4274750,-208.6717529,-250.1374054,-0.0047884,-0.1675933,10.4602137,2.2137403,-3.5572519,-1.8320611
7840,6.4738884,7.4674768,-2.1140692,182.9007568,-159.0381622,-250.1374054,0.0742199,-0.2298422,10.3812056,0.3587786,-4.9465647,-1.8091604
7850,3.9552009,7.0484939,-3.4524212,175.5648804,-108.5877838,-250.1374054,0.0071826,-0.2585725,10.4195127,-1.1908396,-5.6793895,-3.0000000
7860,1.5753766,6.6630292,-4.6255741,156.9313049,-63.1832047,-250.1374054,0.0598547,-0.2011119,10.5200682,-2.4961832,-6.2442746,-3.0152671
7870,-1.1875180,6.0381460,-5.1283536,135.1984711,-34.3587799,-250.1374054,-0.0119709,-0.2681492,10.4841557,-3.6870229,-6.0000000,-3.2977099
7880,-4.9009056,5.1044121,-5.0301919,121.8473282,-23.9618320,-250.1374054,-0.0526722,-0.3136388,10.5847120,-4.5572519,-6.0229006,-2.8931298
7890,-7.7882981,4.7835903,-5.3510137,116.9694672,-39.0381660,-245.2824402,-0.0287303,-0.3710994,10.5990763,-5.1908398,-6.0534353,-3.3435113
7900,-11.5471754,4.8195033,-6.3900914,109.8091583,-63.2824440,-217.0610657,-0.0095768,-0.4620786,10.5990763,-5.7099237,-5.9847326,-2.8778627
7910,-15.2845058,5.0397687,-7.9319496,92.8244247,-76.2824402,-171.2366486,0.0119709,-0.4309541,10.7403336,-5.9541984,-5.8320613,-3.0687022
7920,-18.4161053,5.8753409,-9.5001440,65.4274826,-68.5267181,-106.7480927,0.0263361,-0.4453192,10.7187862,-6.0534353,-5.7022901,-2.8778627
7930,-19.6131992,6.2608056,-11.2933912,27.4427490,-27.0229015,-25.8320618,-0.0071826,-0.4644727,10.6780853,-5.8244276,-5.7557254,-2.4122138
7940,-19.6131992,6.1865854,-12.3827477,-28.6259537,33.9389305,65.2366409,-0.0263361,-0.4764437,10.7954006,-5.0305343,-5.9847326,-2.2061069
7950,-18.8733959,6.0237808,-11.8153248,-86.2290039,82.8473282,148.9007568,-0.0861908,-0.4932030,10.9127159,-3.8091602,-6.1145039,-2.3816793
7960,-14.8056679,5.8801293,-10.2614956,-132.1145020,103.2442780,210.5419922,-0.1101327,-0.4668669,10.9198980,-2.1068702,-5.6793895,-1.8854961
7970,-11.1832590,5.0230093,-8.4131813,-165.4274750,121.8778610,250.1297760,-0.0957676,-0.3878587,11.0731258,-0.0916031,-4.5801525,-1.3969465
7980,-8.6023226,4.6950054,-6.5313487,-188.8549652,140.3206177,250.1297760,-0.0598547,-0.3758878,10.9677820,1.8244275,-3.6717558,-1.0000000
7990,-5.6957769,3.8139439,-5.2025738,-204.3206177,159.8244324,250.1297760,0.0335187,-0.3327923,10.8193426,2.9389312,-2.8015268,-0.9923664
8000,-3.6104376,3.2130022,-3.9408360,-215.5114441,187.2671814,250.1297760,0.1029501,-0.3160330,10.7523050,3.0763359,-2.7557251,-1.0534351
8010,-1.4029950,2.3774302,-2.1236460,-223.2137451,216.5801544,250.1297760,0.1867468,-0.2298422,10.5942879,2.6259542,-3.0305343,-0.8091603
8020,1.7477583,1.3886299,0.3878587,-225.4045868,232.5725250,250.1297760,0.2274480,-0.2489957,10.5583754,2.0305343,-3.2519083,-1.8854961
8030,7.9104018,2.1835008,3.9791429,-213.9618378,197.8015289,250.1297760,0.1699875,-0.2585725,10.5655584,1.1450381,-3.5267177,-2.5343511
8040,13.4912577,4.4220681,7.0006099,-178.8244324,124.9770966,250.1297760,0.1292862,-0.2059003,10.6158361,0.4122137,-4.2824426,-3.3053436
8050,19.1367569,6.4164276,9.5169029,-125.2748108,58.3358765,210.3893127,0.1604107,-0.2154770,10.5559816,-0.1984733,-4.1984735,-3.6641221
8060,19.6126022,8.6549950,11.9613705,-59.0152664,-24.9236641,116.0763321,0.0263361,-0.2849085,10.6254129,-0.6259542,-4.0687022,-3.0763359
8070,19.6126022,9.4450769,12.6915979,10.6717558,-131.3435059,1.8702290,-0.0191535,-0.2681492,10.7738523,-0.9541985,-3.7709923,-2.6717558
8080,19.6126022,8.7747040,10.8576488,67.4503784,-210.3816833,-108.9542007,-0.0933734,-0.2585725,10.5942879,-1.3129771,-4.2290077,-2.4885497
8090,19.0577488,8.0109577,7.7763271,107.2366409,-250.1374054,-190.9465637,-0.1125269,-0.4285599,10.6182299,-1.6793894,-4.4809160,-1.8015267
8100,14.2837343,7.2304521,4.9224534,129.7862549,-250.1374054,-241.2442780,-0.1939293,-0.4118006,10.7187862,-2.1832061,-4.6412215,-1.0458015
8110,10.7259684,6.5361371,2.4253139,141.2137451,-250.1374054,-250.1374054,-0.0742199,-0.4309541,10.6086531,-2.4961832,-5.2137403,-1.0839695
8120,8.1139078,6.5098009,-0.1508339,146.3740387,-213.8473358,-250.1374054,-0.0502780,-0.4788379,10.6996326,-2.7938931,-5.8702292,-0.3282443
8130,5.5880380,6.1985564,-2.4181314,146.6564941,-163.2748108,-250.1374054,-0.0814024,-0.5171449,10.7690639,-2.2061069,-5.9465647,-0.2977099
8140,2.9711890,5.4994531,-4.1587071,139.1297760,-142.6183167,-250.1374054,-0.0167593,-0.5817881,10.8408899,-2.0687022,-6.2519083,-1.3587786
8150,0.4141948,4.8961172,-5.2600341,122.3129807,-143.1908417,-250.1374054,0.0646431,-0.4812321,10.7116032,-1.5877863,-5.3511453,-2.0458016
8160,-1.6376256,4.3430595,-5.2336984,101.3511429,-158.1832123,-250.1374054,0.1436514,-0.4357425,10.6804790,-1.7099236,-6.3664122,-1.6793894
8170,-4.0916696,3.4811516,-4.4867110,83.5572510,-171.5801544,-250.1374054,0.1891410,-0.4668669,10.7475166,-1.3587786,-5.2366414,-1.6641221
8180,-7.2687593,2.9376705,-3.6008608,71.8015289,-171.8320618,-250.1374054,0.3040621,-0.4477134,10.7882175,0.5877863,-3.4045801,-2.6564887
8190,-11.3412752,2.9520357,-3.1842721,63.2366409,-162.7557220,-250.1374054,0.3303981,-0.4237715,10.9198980,1.8091604,-2.4045801,-4.2213740
8200,-16.2086620,3.0645626,-3.1986370,53.5572510,-152.7404633,-250.1374054,0.1316804,-0.3710994,10.8504667,1.7175573,-1.7633588,-4.2900763
8210,-19.6131992,3.4667864,-3.2513094,42.4656487,-138.2824402,-205.4274750,0.2059003,-0.2992737,10.7523050,1.3435115,-1.7099236,-4.2290077
8220,-19.6131992,4.0892754,-3.4404502,30.1450386,-108.9542007,-116.1832047,0.3184272,-0.3758878,10.6086531,0.7938932,-0.9694657,-5.2748094
8230,-19.6131992,4.1180058,-3.8953462,21.1221371,-31.0610695,-14.5496187,0.1556223,-0.3998296,10.6565371,1.0610687,-0.6259542,-6.0458016
8240,-19.6131992,3.4596038,-5.3558016,6.6030536,82.0000000,90.8396912,0.0287303,-0.3734936,10.7163916,1.2595420,-0.5572519,-6.4732823
8250,-19.6131992,2.8395088,-6.6007805,-30.9923668,183.3511505,196.8625946,-0.0837966,-0.4165890,10.5966825,0.2061069,-1.0458015,-6.1145039
8260,-17.9564209,3.0190730,-6.4260044,-84.4427490,239.2748108,250.1297760,-0.2657550,-0.4046180,10.5392218,-1.1832061,-2.0458016,-4.6641221
8270,-12.1744537,3.4141142,-5.6694407,-125.4274826,250.1297760,250.1297760,-0.2873027,-0.4501076,10.6134415,-2.0152671,-2.6412213,-3.9541984
8280,-9.1697454,3.2153964,-5.1163831,-150.0381622,250.1297760,250.1297760,-0.2729376,-0.4932030,10.7307568,-1.8473282,-3.5267177,-3.2137403
8290,-7.2065101,2.5761478,-4.6543045,-170.0915985,250.1297760,250.1297760,-0.4070122,-0.5099624,10.6924505,-1.3129771,-4.7251906,-2.6564887
8300,-4.7764082,1.5394639,-3.7349355,-189.7786255,250.1297760,250.1297760,-0.3806761,-0.4884146,10.7666702,-0.7175573,-5.4351144,-1.9007634
8310,-0.9624642,0.6751614,-1.9799947,-203.7709961,250.1297760,250.1297760,-0.3926471,-0.3639168,10.7618818,-0.7480916,-5.8396945,-0.4732825
8320,3.8307030,0.0646431,0.0000000,-210.9007568,214.0000000,250.1297760,-0.2442073,-0.4261657,10.8097658,-0.3664122,-6.1297708,1.3969465
8330,9.6078825,1.5586174,2.7413468,-201.3816833,126.0687027,250.1297760,-0.0574605,-0.3567342,10.8073711,0.1221374,-6.4503818,1.8549619
8340,17.9947281,4.5657191,6.3900914,-164.7022858,9.5343513,250.1297760,0.0550664,-0.3088504,10.7379398,0.7480916,-6.3435116,2.0381680
8350,19.6126022,7.8218169,9.7108326,-100.9465637,-98.9618301,219.5343475,0.0933734,-0.3112446,10.7451220,0.7633588,-6.4580154,2.1297710
8360,19.6126022,10.0532017,10.5176744,-30.7251911,-134.7786255,97.3893127,0.2489957,-0.2513899,10.6828737,0.2977099,-6.2824426,1.8549619
8370,19.6126022,10.7451220,9.4498653,25.0076332,-122.1679382,-40.2366409,0.3806761,-0.2346306,10.6517487,-0.0305344,-5.8702292,1.3358779
8380,19.6126022,9.6940727,8.1474266,62.1679382,-129.0763397,-155.4427490,0.3998296,-0.2298422,10.6397781,-0.1297710,-5.1221375,0.2213740
8390,17.3578739,7.5847921,6.4834652,91.9312973,-186.1145020,-223.4045868,0.4118006,-0.2777260,10.7570934,-0.1755725,-4.4427481,-0.8091603
8400,13.9724894,6.1770086,4.3023586,116.0839691,-216.3969421,-250.1374054,0.4716553,-0.3064562,10.7379398,-0.4351145,-4.0076337,-2.1755726
8410,10.5631638,6.0094156,2.0374553,135.8091583,-211.9618378,-250.1374054,0.3567342,-0.3160330,10.6685085,-0.4351145,-3.5725191,-2.9847329
8420,7.1825686,5.8442163,-0.0502780,148.4732819,-185.8396912,-250.1374054,0.2896969,-0.2873027,10.6685085,-0.6412213,-3.3893130,-3.6412213
8430,4.1467361,5.5664907,-2.3223639,149.6564941,-146.7480927,-250.1374054,0.1963235,-0.3878587,10.7139978,-0.6412213,-2.8931298,-4.2061067
8440,1.6184721,5.0876527,-4.1371593,140.2748108,-112.2290039,-250.1374054,0.1053443,-0.4572902,10.6732969,-0.4503817,-2.4198472,-4.0152674
8450,-0.7350162,4.5752959,-5.3246775,123.2900772,-94.3358765,-250.1374054,0.0095768,-0.4405309,10.6972389,-0.4656489,-2.1526718,-3.7099237
8460,-3.5577655,3.8785870,-5.5928264,104.1832047,-85.6870193,-250.1374054,-0.0790083,-0.5339043,10.7882175,-0.1832061,-2.0763359,-3.9007633
8470,-6.9263902,2.9544299,-5.1355362,89.5190811,-87.6030502,-250.1374054,-0.1891410,-0.5769997,10.7977943,0.0916031,-2.4656489,-3.3129771
8480,-11.1904411,2.3894010,-4.7811961,80.2442780,-91.6717529,-250.1374054,-0.2226596,-0.5769997,10.7499104,0.7557252,-2.3206108,-2.9847329
8490,-17.0657825,2.2170193,-4.4699516,74.5267181,-101.8778610,-250.1374054,-0.2106887,-0.6200951,10.6900558,1.4427481,-2.2213740,-2.4809160
8500,-19.6131992,2.4301023,-4.9894910,67.1679382,-101.4580154,-209.0229034,-0.1819584,-0.5889706,10.7331514,1.7786260,-2.3206108,-2.4427481
8510,-19.6131992,3.3782012,-6.9670911,53.1450386,-62.5343513,-103.9083939,-0.2633608,-0.5937590,10.7379398,1.7480916,-3.0763359,-2.2061069
8520,-19.6131992,5.1044121,-8.7244263,26.5496178,60.4122124,25.0381680,-0.1268920,-0.5147507,10.7235746,1.3206106,-3.8396947,-2.4045801
8530,-19.6131992,3.4189026,-11.8656025,-20.1374054,250.1297760,157.3969421,-0.1340746,-0.4932030,10.5775290,0.9923664,-4.7099237,-1.4885496
8540,-19.6131992,3.0597742,-14.7936964,-119.6946564,250.1297760,250.1297760,-0.1604107,-0.4740495,10.6325951,0.3129771,-5.3053436,-1.1984733
8550,-19.0433826,2.3223639,-14.9684725,-238.7633514,250.1297760,250.1297760,-0.1029501,-0.3878587,10.6206245,-0.2595420,-5.6335878,-1.5877863
8560,-15.0091734,1.0630201,-12.1983957,-250.1374054,250.1297760,250.1297760,-0.0191535,-0.3519458,10.7499104,-0.6870229,-6.0076337,-1.7175573
8570,-12.2558556,-1.0510491,-7.9558916,-250.1374054,250.1297760,250.1297760,0.0766141,-0.2489957,10.7954006,-0.4656489,-6.0305343,-1.9923664
8580,-8.9039907,-3.4715748,-3.6702924,-250.1374054,250.1297760,250.1297760,0.1173153,-0.2537841,10.8169479,0.0916031,-6.1755724,-1.0076336
8590,-4.8338685,-3.6080434,1.2377959,-250.1374054,250.1297760,250.1297760,0.1675933,-0.1460456,10.8576488,0.5954198,-6.0763359,-1.2137405
8600,1.0127422,-3.3710186,6.8354111,-250.1374054,250.1297760,250.1297760,0.2106887,-0.1675933,10.7163916,1.0076336,-5.2824426,-1.6030535
8610,9.6126709,-1.4652439,12.7418766,-250.1374054,141.5648804,250.1297760,0.3687052,-0.0933734,10.6996326,1.4885496,-4.2442746,-1.5801526
8620,19.6126022,1.5873476,17.4847660,-250.1374054,-25.7404575,250.1297760,0.3112446,-0.1436514,10.6661139,1.3129771,-3.1603053,-1.7786260
8630,19.6126022,3.6631098,17.9348736,-118.9847336,-136.0992432,196.3816833,0.3782819,-0.1604107,10.5847120,0.6106870,-2.7328243,-1.9847329
8640,19.6126022,6.3996682,17.0418396,-2.0076337,-192.6183167,69.3282471,0.3208214,-0.2298422,10.6469603,0.0916031,-2.7862597,-2.4732823
8650,19.6126022,8.7052727,15.4951944,81.9465637,-250.1374054,-56.7480927,0.2633608,-0.3088504,10.6900558,-0.6564885,-3.0305343,-3.3893130
8660,19.6126022,7.4626884,11.0156660,124.6106873,-250.1374054,-192.5419922,0.1005560,-0.3280039,10.6254129,-1.0839695,-3.2290077,-3.0763359
8670,17.2812595,5.1570840,8.2743187,141.2442780,-250.1374054,-250.1374054,-0.0430954,-0.4525018,10.6709023,-1.2595420,-3.1755726,-4.3129773
8680,12.3324699,4.5130472,6.2536230,153.5801544,-250.1374054,-250.1374054,-0.1436514,-0.5195391,10.7355452,-1.3435115,-3.0229008,-3.7709923
8690,8.6382351,4.7213416,4.0485744,162.4961853,-250.1374054,-250.1374054,-0.0957676,-0.5219333,10.6828737,-1.1221374,-2.7175572,-3.3587787
8700,5.8202744,5.7125359,1.8387375,169.2595367,-233.9084015,-250.1374054,-0.2082945,-0.6679789,10.7307568,-1.3282443,-3.0992367,-3.4198472
