timestamp,rxacclX,rxacclY,rxacclZ,rxgyroX,rxgyroY,rxgyroZ,txacclX,txacclY,txacclZ,txgyroX,txgyroY,txgyroZ
0,-5.1092005,4.3717899,1.7525467,153.3511505,-147.9694672,-207.9160309,-0.0119709,0.3303981,10.7499104,-0.8015267,3.9465649,-3.3511450
10,-5.4731169,4.6662750,1.5825592,133.7557220,-126.5496216,-193.6106873,-0.0885850,0.3495516,10.8361015,-0.2824427,3.9694657,-3.1450381
20,-5.8513989,5.2504573,1.4245427,113.9618301,-111.5038147,-178.4885559,-0.0885850,0.3519458,10.7499104,0.2442748,4.0992365,-3.8854961
30,-5.9040713,5.5018473,1.6160779,97.7557220,-102.0457993,-163.4656525,-0.1771700,0.3998296,10.7331514,0.9618320,3.5725191,-3.2748091
40,-6.0549049,5.6574697,2.2026544,88.6870193,-89.1984711,-148.4656525,-0.2130829,0.3687052,10.8528605,1.2900764,3.9465649,-2.3053436
50,-6.4523406,5.6790175,1.8219782,80.9389343,-76.4351120,-132.4732819,-0.1867468,0.3878587,10.8289185,2.1679389,3.5954199,-2.3816793
60,-6.0333576,5.7652082,1.2952565,70.4274826,-61.7022896,-117.4503784,-0.2657550,0.3734936,10.9749641,3.4656489,3.8854961,-1.5190840
70,-5.8585815,5.9399838,0.9911944,58.6946564,-45.6641235,-106.4580154,-0.2920911,0.3710994,11.0108776,5.4656487,4.7328243,-0.1297710
80,-6.0405402,6.0022330,1.1611819,48.4732819,-35.5877876,-98.5114517,-0.2035061,0.3280039,10.9821472,7.7175574,5.6946564,0.6717557
90,-6.2751703,5.6670465,1.2066715,40.1603050,-28.5038166,-90.1603088,-0.2466015,0.3303981,10.7977943,9.5267172,6.5114503,1.2519084
100,-6.5576849,5.5042415,1.1132981,33.7099228,-22.0000000,-81.5038147,-0.1268920,0.4357425,10.8049774,10.3053436,6.7099237,1.4351145
110,-6.4044566,5.3677726,1.1013272,27.9389305,-18.4122143,-73.3053436,-0.1412572,0.4381367,10.6972389,10.1603050,6.6870227,1.0305344
120,-6.6175399,5.2265158,1.2306134,22.4122143,-11.4503813,-65.7022934,-0.0526722,0.3830703,10.5104914,9.2519083,6.7404580,0.6641222
130,-6.9646969,5.0684991,1.1468167,17.1603050,-5.9923663,-57.5801544,-0.0742199,0.4070122,10.4697905,8.2290077,6.1145039,-0.4198473
140,-7.0341287,4.2257442,0.9504932,-12.3893127,-4.5954199,13.5648851,-0.4237715,0.4189832,10.7762470,2.2442749,3.3740458,-3.6335878
150,-6.0884237,2.0518203,0.9073978,-57.0610695,16.6030540,58.0000000,-0.5506636,0.5315101,10.8839855,5.6717558,1.5572519,-0.3587786
160,-6.4523406,1.4700323,1.3144100,-69.6183243,14.6335878,65.2824402,-0.4548960,0.5195391,10.7810354,6.4885497,1.7709924,-0.3282443
170,-6.9000540,0.7158626,2.4037662,-78.7480927,14.8244276,75.2442780,-0.4070122,0.5626345,10.7355452,6.6259542,1.6488550,-0.1832061
180,-7.5297260,-0.0694315,3.3758070,-79.3358765,15.3358774,89.0457993,-0.4501076,0.5578461,10.5990763,6.9770994,2.0076337,-0.4274809
190,-7.7787213,-0.5195391,3.8857694,-75.7557220,21.9541988,107.3435135,-0.3399749,0.5769997,10.4937325,6.6641221,1.9923664,-0.6870229
200,-8.4586716,-0.5506636,3.9097114,-71.8625946,43.7175560,132.6870270,-0.3208214,0.5362985,10.5847120,6.2595420,2.0763359,-0.9694657
210,-10.0843258,-0.4141948,2.5929072,-77.0763321,76.7633591,167.0610657,-0.3423691,0.6033357,10.5272512,4.9465647,1.8091604,-1.1221374
220,-13.0004492,-0.3208214,1.2832855,-95.9007645,99.6030502,215.0305328,-0.3184272,0.6655847,10.4099360,3.6564887,1.0992366,-1.7175573
230,-16.0386753,-1.2617378,0.0502780,-120.2748108,91.1679382,250.1297760,-0.2394189,0.6296718,10.4266949,2.2137403,0.8244275,-2.0992367
240,-17.2285881,-2.5689652,-0.3016679,-149.4809113,72.0305328,250.1297760,-0.3088504,0.6440369,10.5535870,1.0610687,0.6030535,-3.2519083
250,-18.0330353,-4.1347651,0.1436514,-184.6259613,64.6488571,250.1297760,-0.2896969,0.6344602,10.4003592,0.2671756,0.0076336,-3.6641221
260,-17.1783085,-6.7587967,1.0055596,-217.5877838,59.1221390,250.1297760,-0.3447633,0.6871324,10.5847120,-0.6717557,-0.6564885,-3.9007633
270,-14.8822813,-10.8001890,2.8107784,-242.8091583,42.4045792,250.1297760,-0.3519458,0.6488253,10.5464048,-1.5038168,-1.5572519,-4.1832061
280,-9.0117292,-17.9181137,6.7276726,-247.5190887,30.1908398,250.1297760,-0.3064562,0.6440369,10.6661139,-1.9160305,-2.9847329,-4.7557254
290,-0.4979914,-19.6131992,10.1968527,-240.2900696,81.6488571,250.1297760,-0.3232156,0.5674229,10.5416164,-2.4045801,-4.1145039,-5.2900763
300,10.2255831,-19.6131992,11.9757357,-232.8778687,148.0381622,250.1297760,-0.2992737,0.6177009,10.7594872,-3.1526718,-5.4198475,-6.1221375
310,19.6126022,-19.6131992,16.7521439,-231.7099304,173.7709961,250.1297760,-0.3136388,0.6081241,10.5703468,-3.7099237,-6.3358779,-6.9541984
320,19.6126022,-19.6131992,19.6126022,-198.5801544,157.3282471,250.1297760,-0.3543400,0.5051740,10.5320396,-4.3435116,-6.1526718,-7.6412215
330,19.6126022,-13.8623571,19.6126022,-124.6641235,175.2137451,250.1297760,-0.3232156,0.5841822,10.5200682,-5.3511453,-5.9694657,-7.4732823
340,19.6126022,-1.1252691,19.6126022,-15.4732828,143.8396912,250.1297760,-0.3375807,0.6057299,10.5966825,-6.0687022,-6.0687022,-7.9541984
350,19.6126022,1.8818330,19.6126022,93.8091583,98.6564865,83.6717529,-0.2992737,0.5315101,10.6900558,-6.4809160,-5.5954199,-7.8244276
360,19.6126022,0.7038917,10.0460186,118.9694672,-16.3511448,-94.4580154,-0.3184272,0.5602403,10.7499104,-6.8320613,-5.2366414,-8.0839691
370,16.6898956,0.2537841,5.6215568,85.1374054,-149.6717529,-161.9389343,-0.3710994,0.5626345,10.7403336,-6.5572519,-4.6030536,-8.1221371
380,9.0931320,0.5027798,6.7324610,40.8778610,-210.1984711,-144.4351196,-0.4572902,0.4979914,10.7858238,-6.1068702,-5.0763359,-7.7251906
390,7.2208753,0.7517755,8.9327211,13.3511448,-151.0534363,-86.5648880,-0.3495516,0.5147507,10.8289185,-5.5419846,-5.8015265,-7.9923663
400,7.0030041,2.4492557,9.9263096,-3.0992367,-29.2595425,-22.3664131,-0.3256098,0.4740495,10.7977943,-5.0763359,-7.3893127,-7.8854961
410,7.6733770,3.7301471,9.4211359,-14.6564884,70.2290039,23.6717548,-0.1532281,0.5602403,10.8121595,-4.6564884,-8.5954199,-9.1145039
420,8.7028790,4.1132174,8.8872309,-19.3740463,116.9847336,43.9083977,-0.0957676,0.5913648,10.8480721,-4.2366414,-9.6183205,-9.7557249
430,8.9183559,4.0485744,8.1498213,-16.6946564,123.3435135,46.6030540,-0.2992737,0.5434810,10.6948442,-4.3740458,-12.1832066,-10.7022905
440,9.0667953,3.7133877,7.4794478,-8.9007635,96.9312973,37.9847336,-0.1771700,0.5075682,10.7092094,-4.1068702,-13.8778629,-11.4274807
450,8.7794924,3.4667864,6.7683735,0.3129771,63.5877876,24.2900772,-0.1460456,0.4884146,10.6661139,-4.0534353,-14.2595415,-12.4274807
460,7.8505473,3.0525916,5.7628140,5.7480917,41.1984749,12.6717558,-0.1221037,0.6320660,10.5200682,-4.0992365,-14.8854961,-13.2748089
470,6.7947097,2.5258698,4.8051381,5.1526718,23.2137413,6.4427481,-0.2370248,0.5003856,10.4602137,-4.5572519,-14.0610685,-13.4351149
480,5.8226686,1.5634058,4.6016321,-2.6641221,-18.2748089,3.2290077,-0.3543400,0.6871324,10.8887739,-4.4580154,-11.6335878,-11.8396950
490,6.0189924,1.3862357,4.7500720,-7.6030536,-34.8931313,5.2824426,-0.3782819,0.5291159,11.0659437,-1.6946565,-8.0152674,-8.9312973
500,6.2775645,1.2689204,5.3270717,-13.2595415,-39.4274826,7.9312978,-0.2801202,0.2585725,11.6740675,3.9389312,-0.4732825,-6.3969464
510,6.4571290,1.1779412,5.6742291,-19.3282452,-32.5801544,11.9007635,-0.0407012,0.0670373,12.1385403,13.8015270,12.1679392,-6.6946564
520,6.6366930,1.1539993,6.2512288,-25.2442741,-15.0229006,17.2519093,-0.0478838,-0.1867468,12.3779593,25.3740463,24.7786255,-5.8854961
530,6.6654234,1.2282192,6.5576849,-30.5496178,6.1984735,24.1908398,0.0742199,-0.0694315,12.8065195,38.6946564,41.7938919,-2.9465649
540,6.7779503,1.2234308,6.8018923,-36.0992355,28.5801525,32.0534363,0.4261657,-0.2154770,13.1249466,54.5801544,58.5572510,-1.8778626
550,6.9431496,1.1779412,6.9024482,-42.3206100,48.0228996,39.8854980,0.8092360,-0.2418131,12.8974981,71.5572510,71.3816757,-1.8854961
560,7.1993275,1.2473727,6.7827387,-51.1221390,60.5954208,46.7251892,0.9385223,-0.1891410,12.5144281,86.3511429,82.1297684,-4.8015265
570,7.5560617,1.1539993,7.0532823,-62.0992355,66.3282471,52.1374054,0.8116302,-0.0047884,12.0810804,99.1450348,89.4198456,-8.4274807
580,8.1833391,0.8834559,7.8697009,-72.9618301,64.9770966,53.7938919,0.5961532,0.2106887,11.5352049,107.6564865,93.5343475,-12.3893127
590,9.1936874,0.7350162,8.8752604,-81.4045792,56.0992355,50.2061081,0.2968795,0.4333483,10.9366570,112.2595444,96.3893127,-14.2671757
600,10.2184010,0.4333483,10.2567072,-87.0687027,36.7099228,40.6793900,0.0143651,0.7637464,10.4626083,113.8854980,98.6641235,-16.9236641
610,11.3819771,0.3040621,11.1401634,-94.2213745,12.8091602,28.1068707,-0.2035061,0.9624642,10.1202393,113.5954208,99.6793900,-20.9541988
620,12.1529055,1.4006008,12.6987810,-91.9694672,12.8473282,14.5419846,-0.4812321,1.1492109,9.9646168,112.4885483,103.1068726,-25.3206100
630,13.7019463,0.0574605,13.8264437,-86.3206100,7.6030536,0.9465649,-0.5410868,1.4053892,9.7491398,111.6564865,103.9007645,-29.8244267
640,15.1863441,-1.3886299,15.3060532,-77.5572510,-2.5190840,-29.0305347,-0.5458752,1.5610116,9.6366129,110.5419846,103.6106873,-36.8396950
650,15.1288834,-1.3551112,16.8431225,-50.2213745,12.1908398,-65.0229034,-0.6153067,1.6591733,9.4067707,107.8702316,104.7328262,-45.4809151
660,14.0275564,-1.4245427,17.5087070,-11.9694653,13.6717558,-93.7633591,-0.9504932,1.9943599,9.2463598,100.2213745,107.5114517,-54.1297722
670,13.2805691,-1.5801650,18.2772427,34.2213745,-4.8167939,-120.2595444,-1.5945302,2.3774302,9.0883436,87.9847336,104.6946564,-61.5496178
680,12.8759508,-1.7621235,18.0545826,87.7480927,-38.9618340,-149.8473358,-2.4779861,2.5809362,9.0715837,76.3664093,93.7557220,-65.9847336
690,12.3612003,-1.8698620,16.4337158,137.0915985,-95.4274826,-185.8778687,-3.4260850,2.7293761,9.0691900,64.8167953,76.7480927,-67.4809189
700,11.9015160,-2.0757623,14.7841196,175.3511505,-162.1145020,-223.6717529,-3.9863255,2.6958573,9.2200232,57.6488533,61.4045792,-66.5496216
710,11.4609852,-2.0159075,13.3428183,204.5343475,-220.2061005,-250.1374054,-4.2832050,2.6312141,9.3493099,54.7786255,47.0992355,-64.0381699
720,10.5918941,-1.6352314,11.3412752,222.6183167,-250.1374054,-250.1374054,-4.5369892,2.7389526,9.2056589,54.8854980,34.7175560,-59.9236641
730,9.4714136,-1.6112895,9.0117292,224.8244324,-250.1374054,-250.1374054,-4.6543045,2.7293761,8.8130112,55.1908379,25.5267181,-55.3587799
740,8.3581152,-1.1204807,7.6829538,211.8549652,-250.1374054,-250.1374054,-4.4603748,2.6934631,8.5376797,53.1603050,14.5343513,-56.2366409
750,7.4698710,-0.6105183,7.1322904,193.0839691,-250.1374054,-250.1374054,-4.0389977,2.7700772,8.5903521,50.9083977,-1.4961832,-64.4732819
760,6.6678176,-0.1532281,6.9072366,177.5419922,-250.1374054,-250.1374054,-4.1084290,2.8395088,8.7172441,48.8167953,-19.6488552,-74.6030502
770,5.6167684,0.3040621,6.7779503,166.0992432,-250.1374054,-250.1374054,-4.5896611,2.9065459,8.4993725,46.4885483,-34.7251892,-77.1755753
780,5.0732875,0.6464311,5.1906028,150.8778687,-250.1374054,-250.1374054,-4.9655490,3.1699069,8.0660238,43.1068687,-46.1908379,-72.9923630
790,5.0421629,0.6560079,3.2632802,127.1603088,-250.1374054,-250.1374054,-5.1283536,3.4045374,7.7380204,37.2824440,-55.9847336,-65.4580154
800,4.3646073,1.0223188,2.2265961,97.7709961,-250.1374054,-250.1374054,-5.0661049,3.5338237,7.3334022,29.6717548,-63.5725174,-56.4503822
810,4.0366035,0.9552816,2.0159075,69.7557220,-250.1374054,-250.1374054,-4.9559722,3.6032550,7.0413113,19.3282452,-71.8702316,-49.8244286
820,3.3351059,1.2784972,2.2289903,49.8549614,-250.1374054,-250.1374054,-4.6088147,3.7636659,6.7300668,4.8625956,-73.4885483,-44.5877876
830,2.9424589,1.7429699,2.3750360,33.6259537,-250.1374054,-250.1374054,-4.3286943,3.6319854,6.5193777,-11.5877867,-68.2977066,-41.7786255
840,2.5833304,1.8626794,2.8562679,22.1221371,-250.1374054,-250.1374054,-4.2616572,3.6056492,6.6007805,-26.7709923,-64.6564865,-38.4198456
850,1.7453641,1.9153515,3.7540891,16.7633591,-222.6183167,-250.1374054,-3.7229645,3.1339941,7.0772243,-38.5572510,-57.6946564,-37.8549614
860,1.1276633,2.0685797,4.6399393,15.9770994,-193.4656525,-250.1374054,-3.8690102,3.3901722,7.9104018,-45.0916023,-49.7480927,-47.8778610
870,0.3327923,2.1811066,4.7644372,20.7251911,-161.7938995,-250.1374054,-5.1092005,3.6511390,8.0923605,-50.2519073,-45.8473282,-38.0839691
880,-0.2394189,2.3032103,5.1139889,29.2213745,-128.9465637,-250.1374054,-5.8274570,3.2537034,8.2360115,-56.1908379,-43.9312973,-19.7709923
890,-0.9193687,2.1595588,4.3095412,40.2442741,-99.1603088,-250.1374054,-5.6000090,3.2297616,8.8201942,-60.0534363,-37.6030540,-0.7328244
900,-1.5610116,2.1020982,2.6288199,50.4580154,-66.5877838,-245.5267181,-5.1115947,3.0549858,9.1984758,-61.6793900,-29.1526718,14.0839691
910,-2.8706331,1.9871773,1.0175306,56.8244286,-34.9694672,-233.8091583,-4.4172797,2.7868366,9.4714136,-61.1068687,-20.6488552,24.3587780
920,-4.1730723,1.8650736,-0.5315101,55.0687027,-10.9389315,-220.8396912,-4.0773048,2.4731977,9.5599985,-59.6183205,-13.2290077,30.0381680
930,-5.4563580,1.9225341,-1.5394639,42.6870232,3.1679389,-207.9465637,-3.7971845,2.1691356,9.7467451,-57.9465637,-7.0992365,33.8854980
940,-6.5696559,1.9895715,-2.2505381,24.0381680,14.9236641,-193.1526642,-3.6990228,2.0709739,9.6270361,-57.1603050,-5.3129773,36.6488533
950,-7.7978749,1.9584470,-2.4109488,3.6106870,29.5419846,-173.3206177,-3.4619980,1.9368993,9.6749191,-57.9618340,-7.4122138,39.8091621
960,-9.3445215,1.8770446,-2.1212518,-13.9236641,37.9312973,-146.0305328,-3.2537034,1.8219782,9.7036495,-59.9007645,-12.7786255,40.8931313
970,-11.1736822,1.7597293,-1.6615674,-23.2748089,54.8396950,-107.2671738,-2.8849983,1.8147956,9.7515335,-62.6564903,-17.5725193,40.7175560
980,-13.1560707,2.1380112,-1.6879035,-28.1374054,81.2442780,-55.8320618,-2.5929072,1.7453641,9.8065996,-65.4961853,-23.4961834,38.3282433
990,-14.9373484,2.4612267,-2.4420733,-36.8473282,107.3358765,1.9694656,-2.4157372,1.6400198,9.9406748,-67.4656525,-29.3282452,34.7251892
1000,-17.1304264,3.0310438,-3.8522508,-58.6030540,139.6335907,71.5648880,-2.2768741,1.4269369,10.0747490,-68.8167953,-34.8549614,31.6564884
1010,-19.6131992,3.3566537,-4.2209558,-100.4656525,170.2213745,153.3358765,-2.2936335,1.4149660,10.1417866,-69.1832047,-39.5496178,29.3282452
1020,-19.6131992,2.1380112,-2.2625091,-143.9618378,203.3969421,246.2366486,-2.1763182,1.2641320,10.1800938,-68.8702316,-42.3587799,27.6335869
1030,-19.6131992,-0.1604107,-0.2418131,-173.3511505,237.5114441,250.1297760,-2.1164634,1.3048333,10.3428984,-67.7022934,-43.0228996,26.3435116
1040,-19.6131992,-3.0717452,2.1188576,-190.5877838,234.7175598,250.1297760,-2.0542145,1.1468167,10.3907824,-66.8625946,-42.6030540,25.3816795
1050,-19.6131992,-6.7109132,4.8266859,-189.9236603,222.3969421,250.1297760,-1.9728121,1.1516051,10.4841557,-65.4427490,-40.9465637,25.3816795
1060,-13.3045111,-11.6860390,6.4092450,-166.1068726,178.9541931,250.1297760,-2.0278785,1.0414724,10.7068148,-63.7786255,-38.7557259,25.2290077
1070,-2.4157372,-16.8622761,5.0110383,-119.2366409,148.3511505,250.1297760,-1.9488702,0.9193687,10.9677820,-61.3206100,-38.6106873,25.5954189
1080,7.6901364,-19.5030670,2.7197993,-105.8320618,167.2748108,250.1297760,-1.9752063,0.8834559,11.0108776,-58.9236641,-39.4656487,26.0458012
1090,17.7912216,-19.0505657,7.2567883,-139.8702240,225.5267181,250.1297760,-2.0087249,0.7805058,11.2790270,-55.7557259,-40.3969460,26.3129768
1100,19.6126022,-16.7138367,16.6827126,-152.7022858,250.1297760,250.1297760,-1.9129574,0.5937590,11.4897156,-51.1832047,-41.9236641,26.2824421
1110,19.6126022,-9.3253679,19.6126022,-98.8702316,250.1297760,250.1297760,-1.6998745,0.4022238,11.5088692,-44.7328262,-40.3893127,26.1221371
1120,19.6126022,-3.0932927,19.6126022,5.3664122,250.1297760,250.1297760,-1.5250987,0.3256098,11.6094246,-37.1068687,-34.7633591,25.1908398
1130,19.6126022,2.0374553,11.1162214,95.3511429,51.4122124,227.8778687,-1.5538290,0.2896969,11.5423870,-29.2366409,-28.2061062,24.9007626
1140,19.6126022,3.5003049,2.0302727,121.2824402,-213.2442780,7.8931298,-1.6400198,0.2777260,11.4945040,-21.8549614,-24.2366409,25.6259537
1150,19.6126022,2.1308286,-1.3191984,87.9618301,-250.1374054,-111.6412201,-1.4891858,0.2489957,11.3891592,-15.8167934,-19.6335869,26.9312973
1160,19.1367569,1.3670821,0.1604107,28.6717548,-250.1374054,-126.6946564,-1.3718705,0.2849085,11.3795824,-10.7175570,-14.2519083,26.5114498
1170,14.6763811,1.8124014,3.3446827,-23.9083977,-191.4045868,-86.8931274,-1.2808913,0.2753318,11.1066446,-6.5801525,-9.0381680,26.9160309
1180,10.3285332,2.1691356,5.9543490,-45.6717567,-9.2671757,-36.0534363,-0.9217629,0.2059003,11.1353750,-3.6030533,-9.5725193,25.1374054
1190,5.9902620,2.8466914,7.3693151,-40.6030540,96.0152664,16.2900772,-0.7900825,0.2681492,10.6948442,-1.3435115,-5.7480917,21.6183205
1200,5.1283536,3.1339941,7.5153608,-18.8625946,124.3587799,60.6717567,-0.9504932,0.3567342,10.7331514,0.7480916,-1.9923664,18.5954189
1210,9.6461897,3.8307030,2.5115047,52.1908379,47.6564903,85.9847336,-0.6560079,0.5147507,10.4889441,4.4885497,-3.7175572,6.5190840
1220,9.4857788,2.2098370,1.6926919,1.5572519,19.6946564,39.4198456,-1.4149660,0.5961532,10.6230183,1.3816794,-1.3053435,-5.2824426
1230,9.6078825,2.0470319,2.2744799,3.6183207,9.9541988,38.8015251,-1.7118455,0.6536137,10.5631638,1.8702290,-1.3282443,-5.4351144
1240,9.9670105,2.0183017,2.5593886,8.0076332,6.0305343,37.8931313,-1.8674678,0.6847382,10.5416164,2.5038168,-1.2137405,-4.3053436
1250,10.2231894,1.7788827,2.1643472,8.0000000,10.1755724,39.3206100,-1.9081690,0.7302278,10.5535870,3.1068702,0.8015267,-2.6793892
1260,11.6525202,2.1380112,2.3702476,3.2442749,11.3206110,42.6488533,-1.9967541,0.7948709,10.5416164,3.5038168,1.8702290,-1.0229008
1270,12.5790710,2.2122312,2.5162930,0.1526718,13.8320608,34.6030540,-2.0183017,0.8810617,10.5033092,3.2900763,2.2977099,0.7251908
1280,12.4665442,2.2289903,2.9209111,-0.9389313,21.2595425,26.5343513,-2.0613971,0.7685348,10.1633339,2.0305343,4.2519083,2.4198472
1290,12.2343082,2.2242019,3.2752512,-1.4580153,22.0610695,22.2213745,-2.1140692,0.8403605,9.9574337,-0.0763359,3.9847329,4.1145039
1300,11.9541883,2.1954718,3.8187323,-0.8015267,8.7786255,15.0381680,-2.2002602,0.8427547,9.8712435,-3.4122138,2.0076337,6.0000000
1310,11.4561968,1.5658000,4.5537481,2.8396947,-13.6412210,4.1755724,-2.1212518,0.9002152,9.8903971,-6.6335878,-1.0458015,6.9389315
1320,11.1210098,1.1180865,5.0804701,11.9541988,-30.6412220,-4.8167939,-1.9943599,0.7158626,10.0508070,-9.2290077,-5.1221375,6.5954199
1330,11.4657736,0.9026094,4.7907729,21.7633591,-35.6259537,-7.5572519,-1.9704180,0.7206510,10.1537571,-11.1297712,-8.3511448,6.3511453
1340,13.0435438,1.3383518,4.2209558,28.4656487,-9.7175570,-10.8396950,-1.9225341,0.6440369,10.3165627,-12.4503813,-11.1832066,5.9465647
1350,14.3771076,1.7381816,2.5929072,28.1908398,42.6183205,-16.3206100,-1.8363433,0.6129125,10.4458485,-12.4656487,-12.9236641,6.4198475
1360,15.5239248,1.9680238,1.7764885,17.1984730,99.7557220,-22.2671757,-1.7717001,0.6224893,10.6565371,-11.4122133,-13.3435116,7.1679387
1370,12.6293497,1.5250987,3.5194585,4.6183205,131.2061005,-31.8702297,-1.6639616,0.6153067,10.8576488,-9.1679392,-12.2519083,6.8015265
1380,11.8919392,2.4612267,3.0047078,-16.9007626,61.5496178,-25.9160309,-1.6567791,0.6272776,10.8600435,-7.0076337,-10.1908398,7.7175574
1390,11.8033543,2.2409613,3.3566537,-31.6564884,23.7938938,-25.4122143,-1.4652439,0.6177009,11.0132713,-4.1832061,-7.7862597,8.5648851
1400,14.0443153,2.0877333,3.7301471,-33.3893127,8.3893127,-32.4351158,-1.3000449,0.6081241,11.0539722,-1.0076336,-5.3206105,8.9694653
1410,14.4058380,1.5873476,4.7835903,-26.9694653,-16.4351139,-47.5801544,-1.1899122,0.5171449,10.9198980,1.9312977,-3.0152671,8.6412210
1420,15.2868996,0.9265513,5.6215568,-10.7786255,-31.0458012,-66.1068726,-1.0247130,0.5027798,10.7594872,4.0152674,-1.0305344,7.1526718
1430,16.0386753,1.3191984,6.5002246,10.8320608,-32.6564903,-88.8854980,-1.1324517,0.3998296,10.6349897,5.0152674,0.3511450,5.0916033
1440,15.7489786,1.5514348,6.5935979,31.3587780,-34.4045792,-113.8244247,-1.0007712,0.4692611,10.4673967,5.0000000,0.2671756,2.7328243
1450,15.0307217,1.4939742,6.5840211,48.7175560,-36.4961815,-136.2900696,-1.1324517,0.4357425,10.3883877,4.5877862,-0.8320611,0.3282443
1460,14.8296099,1.7357874,6.3278427,62.5190849,-46.4732819,-158.1221313,-1.2234308,0.4094064,10.4075413,3.6641221,-1.0992366,-1.5572519
1470,14.1089582,1.7932479,5.7771792,72.3664093,-51.0992355,-177.3969421,-1.3551112,0.3974355,10.5583754,2.8167939,-0.6641222,-3.1755726
1480,13.1919842,2.3439114,4.9248476,78.1526718,-56.5343513,-192.1374054,-1.5442522,0.5243275,10.5655584,2.7480917,-0.6259542,-3.7786260
1490,12.1864243,2.8754215,4.1611013,78.9236679,-62.9847336,-204.3664093,-1.7309990,0.5482694,10.5966825,3.2977099,-0.9465649,-3.8549619
1500,11.7315283,3.3183465,3.8019729,74.7709961,-70.9389343,-217.5038147,-1.7836711,0.6751614,10.7187862,4.1297708,-0.7328244,-3.2061069
1510,11.5136566,3.5074875,3.3925664,68.9083939,-74.7862625,-229.9618378,-1.8435259,0.7733232,10.6349897,4.7786260,-0.5801527,-2.3893130
1520,10.1705170,3.7325413,3.1268115,61.8473282,-75.0229034,-237.2442780,-1.8483143,0.8188128,10.4673967,5.2671757,-0.0763359,-1.0229008
1530,8.9734221,3.9791429,3.1315999,51.5725174,-88.5801544,-234.2519073,-1.8411317,0.8738791,10.3524752,5.0458016,0.7099237,-0.2137405
1540,7.3214312,4.7093706,2.5713594,37.1908379,-117.8015289,-222.3053436,-1.8387375,0.9744351,10.1609402,3.9236641,0.8625954,0.7938932
1550,6.6031747,5.1858144,1.9895715,21.0839691,-178.7328186,-208.6870270,-1.7669119,0.9409165,9.9789820,2.0305343,0.3435115,1.6259542
1560,6.8186517,4.3646073,1.1779412,4.0610685,-235.7709961,-199.7557220,-1.8076130,0.9409165,9.9143381,-0.5267175,-0.6106870,2.3816793
1570,8.4514885,2.7006457,0.4668669,-8.7404585,-250.1374054,-205.1526642,-1.6998745,0.8882443,9.9502516,-3.1984732,-2.4198472,2.1755726
1580,10.2734671,1.6998745,-0.0766141,-15.7099237,-220.3053436,-233.1832123,-1.6184721,0.7876883,10.1202393,-5.7938933,-5.5648856,0.7938932
1590,10.4961262,1.8507085,0.0215477,-16.2900772,-149.2137451,-250.1374054,-1.5514348,0.6871324,10.2950144,-7.6412215,-7.8320613,-0.5801527
1600,8.6334467,2.2625091,1.0366840,-15.4656487,-92.9007645,-250.1374054,-1.5322813,0.6560079,10.5679522,-7.5954199,-8.8549614,-1.4961832
1610,5.8226686,2.5282640,1.4676381,-16.7633591,-87.4427490,-250.1374054,-1.5586174,0.5554519,10.7906122,-6.4351144,-8.6946564,-2.1221373
1620,4.6447277,1.9560528,1.1109039,-16.6259537,-85.0687027,-250.1374054,-1.4891858,0.4381367,10.9725704,-4.0839696,-8.1145039,-2.3206108
1630,3.5577655,1.5849534,0.4357425,-11.4351149,-71.4427490,-250.1374054,-1.4317253,0.4955972,11.0443964,-1.2824427,-6.5419846,-2.7022901
1640,1.8004304,0.9385223,-0.1077385,-6.4427481,-77.2519073,-250.1374054,-1.3694763,0.4572902,10.8887739,1.4351145,-4.0305343,-3.5114503
1650,-1.1109039,0.2466015,-0.4908088,-4.0610685,-109.4809189,-250.1374054,-1.4389079,0.4908088,10.8049774,3.6412213,-2.1984732,-4.0687022
1660,-4.1275826,0.2370248,-0.3519458,-3.5343511,-123.6106873,-250.1374054,-1.5298871,0.5147507,10.6996326,4.9083967,-1.3206106,-4.2290077
1670,-7.2017217,0.2585725,-0.0263361,-4.0152674,-120.4885483,-250.1374054,-1.6017127,0.5746055,10.6014709,5.7786260,-1.0381680,-3.7404580
1680,-10.4195127,0.2825144,0.2609667,-3.5343511,-130.5801544,-250.1374054,-1.6807210,0.6536137,10.3883877,5.7404580,-1.1374046,-4.3893127
1690,-12.4114780,0.0933734,0.2873027,-1.4427481,-158.3053436,-250.1374054,-1.8052188,0.6392486,10.3213511,5.0076337,-1.1679389,-4.6106873
1700,-12.9118633,0.9600700,0.4165890,0.0610687,-174.8854980,-242.6335907,-1.8363433,0.7733232,10.2950144,4.1221375,-1.3740458,-4.4427481
1710,-13.2135315,2.0949159,0.9026094,0.3511450,-151.5343475,-187.8931274,-1.8746504,0.6560079,10.2758608,2.9618320,-1.5801526,-3.9770992
1720,-13.5175934,2.5522060,1.0055596,0.5419847,-116.8854980,-119.4427490,-1.7190280,0.6560079,10.2255831,1.9312977,-2.5267177,-3.8396947
1730,-13.2829628,2.7988074,0.7206510,0.0305344,-81.7938919,-44.2213745,-1.7693061,0.6584021,10.2614956,0.9007633,-3.0381680,-4.1374044
1740,-13.1225519,3.1172347,0.1604107,-3.7022901,-52.0381660,28.7709923,-1.8004304,0.6847382,10.2950144,0.3816794,-3.6488550,-3.6030533
1750,-13.8001080,3.1555417,-1.1372399,-12.6106873,-27.8473282,99.5877838,-1.7956421,0.6967092,10.4458485,-0.2824427,-4.5114503,-3.6564887
1760,-15.7968616,2.2098370,-1.7094513,-27.2290077,-15.0381680,181.2519073,-1.7788827,0.6751614,10.4171181,-0.5190840,-4.8549619,-3.4503818
1770,-16.6851063,0.1149211,-1.8028246,-44.9389305,-10.5801525,250.1297760,-1.7190280,0.7182568,10.5440102,-0.7633588,-5.1679387,-3.1374047
1780,-17.0322647,-1.5274929,0.0598547,-66.1297684,10.7557249,250.1297760,-1.7286048,0.6727672,10.4195127,-0.7022901,-5.7251906,-2.1450381
1790,-17.8702297,-4.3358769,3.2082138,-80.8320618,71.0305328,250.1297760,-1.6807210,0.7421987,10.5152798,-0.6870229,-5.0839696,-2.6717558
1800,-16.5342731,-8.3676920,4.3382711,-79.9847336,124.2824402,250.1297760,-1.7908537,0.6847382,10.3788109,-1.0534351,-4.5419846,-2.4885497
1810,-11.3245163,-11.4561968,4.2616572,-66.4961853,169.2900696,250.1297760,-1.8483143,0.7733232,10.0412302,-2.3740458,-3.9770992,-0.6259542
1820,-1.3383518,-14.4632988,3.2560976,-53.0916023,218.8091583,250.1297760,-2.0805507,0.8762733,9.6605549,-5.3129773,-2.7786260,0.8625954
1830,5.9304070,-17.5589848,0.7493813,-55.8931313,216.8778687,250.1297760,-2.2433555,0.9528874,9.2846670,-11.3282442,-3.9007633,3.8549619
1840,12.3085279,-19.6131992,0.5147507,-72.6488571,209.1984711,250.1297760,-2.2433555,1.0845678,9.2750902,-18.5496178,-7.4732823,5.6488547
1850,19.6126022,-19.6131992,3.3877780,-99.1450348,183.6793823,250.1297760,-2.1451938,0.9145803,9.5743637,-25.9160309,-15.0687027,7.3816795
1860,19.6126022,-17.2573185,12.2343082,-123.2977066,194.6335907,250.1297760,-1.9584470,0.7900825,9.6749191,-31.6946564,-22.0916023,6.6793895
1870,19.6126022,-8.2934723,19.6126022,-112.6870193,179.1374054,250.1297760,-1.7381816,0.6272776,10.2160063,-34.7251892,-26.2977104,5.6793895
1880,19.6126022,-2.7485294,19.6126022,-34.8320618,166.2824402,250.1297760,-1.7740943,0.5315101,10.4099360,-35.2519073,-27.8778629,4.8625956
1890,19.6126022,-2.2002602,19.6126022,78.3435135,85.0457993,125.4427490,-1.7549409,0.3351865,10.8672256,-34.3282433,-30.8167934,5.7099237
1900,18.8901539,-2.2696917,12.1768475,176.0610657,-15.8473282,78.6717529,-1.6926919,0.2896969,10.9773588,-32.0381660,-30.6717548,5.2900763
1910,11.1497402,-2.2074428,4.4316444,230.9770966,-87.0229034,74.5954208,-1.5777708,0.1675933,10.9701757,-28.8091602,-29.3664131,6.3511453
1920,7.7811155,-0.4740495,-0.5362985,232.0992432,-122.4351120,85.0229034,-1.4939742,0.1508339,11.0396080,-25.3282452,-27.0534344,6.4885497
1930,8.2791071,1.9680238,-2.6671271,191.7862549,-108.7709961,91.4503784,-1.3982066,0.0430954,11.0683374,-21.7480907,-25.9541988,8.0610685
1940,11.0156660,3.4476328,-3.3494711,126.7938919,-59.9771004,92.4503784,-1.2880739,0.0119709,11.0180597,-18.1679382,-23.5496178,7.9007635
1950,13.8072910,3.5362179,-3.3542595,51.6793900,-7.7175574,82.8015289,-1.1587877,-0.0861908,11.0659437,-15.0534353,-20.9007626,7.9236641
1960,14.9995966,3.3686244,-2.2194135,-17.4732819,39.0610695,58.0305328,-0.9480990,-0.0861908,11.1305866,-11.3587790,-18.0839691,8.0076332
1970,13.8312321,2.2409613,0.1005560,-65.8015289,61.7557259,26.2748089,-0.8116302,-0.0861908,11.2263546,-7.7862597,-14.3206110,6.7251906
1980,10.3883877,0.7230452,2.6910689,-86.7633591,47.6870232,1.4656489,-0.8643024,-0.1077385,11.0420017,-4.4198475,-10.4198475,5.8931298
1990,7.9941988,-0.5769997,4.4196739,-83.3282471,-4.7251906,-10.9389315,-0.9050036,0.0335187,10.9605989,-1.2748091,-6.3053436,5.2671757
2000,7.4890246,-0.9480990,5.4755111,-63.4885483,-59.7175560,-18.5572510,-1.0079538,0.0478838,10.9462337,0.8167939,-4.1679387,5.4427481
2010,8.1186962,-1.0462608,5.8968887,-35.4580154,-94.9389343,-20.8015270,-0.9768293,0.1221037,10.8265247,2.3816793,-3.4503818,5.5877862
2020,9.3445215,-0.8834559,5.3629842,-11.4122133,-110.8778610,-19.0152664,-0.8331779,0.1221037,10.7906122,3.9236641,-3.2671757,4.7709923
2030,10.6158361,-0.6655847,4.5489597,6.7099237,-105.0992355,-16.0076332,-0.8236012,0.2202654,10.6038647,4.4122138,-2.3740458,3.2366412
2040,11.0013008,-0.5386927,3.4428444,16.6946564,-80.7557220,-9.7099237,-0.9720409,0.2896969,10.5009146,4.3053436,-1.3129771,2.0229008
2050,10.3668404,-0.5147507,3.0454090,21.9541988,-51.5419846,1.1755725,-1.0989330,0.2011119,10.3548698,3.3587787,-2.3358779,1.6106870
2060,9.7778702,-0.4070122,2.7197993,25.6106873,-28.0763359,13.9541988,-1.2162483,0.2274480,10.2806492,1.0000000,-4.8625956,1.2900764
2070,9.5576038,-0.3232156,2.5833304,30.5343513,-13.2900763,26.9923668,-1.3694763,0.2466015,10.3261395,-1.9847329,-8.6564884,0.8015267
2080,9.7730818,-0.1867468,2.2601149,37.3129768,-1.3893130,39.7175560,-1.4963684,0.2035061,10.4195127,-4.2900763,-15.0229006,-0.4198473
2090,10.7930059,0.0957676,1.9392935,41.8091621,14.7022905,50.2748108,-1.4532729,0.1292862,10.4578199,-6.0534353,-22.0534344,-2.0916030
2100,12.3588057,0.1508339,1.4365137,41.0763359,32.8167953,55.5114517,-1.4029950,0.1244979,10.4338779,-6.9312978,-27.2137413,-3.7633588
2110,13.6492739,0.3926471,1.1372399,35.6564903,46.3435097,51.9083977,-1.3191984,0.1005560,10.4602137,-7.5267177,-30.3282452,-5.4351144
2120,14.4297800,0.5410868,0.8307837,27.2061062,56.7480927,40.4732819,-1.3575054,0.1077385,10.5966825,-7.5648856,-31.1832066,-4.6564884
2130,14.4202032,0.0311245,0.6392486,17.6183205,58.4885483,28.7938938,-1.3359578,0.0957676,10.7570934,-6.8931298,-29.6717548,-3.3358779
2140,14.7769375,-0.2394189,0.6368544,8.5648851,50.1679382,18.6641216,-1.1779412,0.0143651,10.9103212,-4.8320613,-26.4732819,-1.0305344
2150,16.2589397,-0.6129125,0.7709290,-1.7099236,38.6335869,4.4198475,-1.0151364,-0.1244979,11.0443964,-2.1526718,-21.7709923,0.6335878
2160,17.7050304,-1.0749911,1.5131277,-11.1450386,19.8396950,-15.2137403,-0.7757174,-0.0909792,11.1617117,0.8396947,-16.6259537,2.8473282
2170,19.0242290,-0.9624642,2.3654592,-16.2519093,5.7175574,-39.6488533,-0.5123565,-0.1651991,11.1569233,4.5267177,-11.0916033,3.2442749
2180,19.6126022,-0.7038917,2.8993635,-16.8473282,-1.6412214,-69.4732819,-0.3208214,-0.0981618,11.0731258,7.6717558,-5.0381680,3.9007633
2190,19.6126022,-0.6105183,3.2177906,-14.2137403,-14.5954199,-100.8396912,-0.4261657,-0.0718257,11.0611553,10.5954199,1.4122137,3.3358779
2200,19.6126022,-0.2418131,2.9065459,-9.7786255,-30.7709923,-133.8091583,-0.3830703,0.0191535,10.9701757,13.4885492,5.4351144,4.2442746
2210,19.6126022,0.1604107,2.3343346,-6.6946564,-46.0992355,-167.2366486,-0.2729376,0.1029501,10.8983507,15.7633591,8.1755724,2.7709923
2220,19.6126022,0.3232156,1.7956421,-10.6793890,-54.7709923,-204.7709961,-0.1508339,0.1029501,10.7139978,17.3053436,10.5038166,0.6793893
2230,19.1702747,-0.1268920,1.1707586,-22.8396950,-70.1526718,-245.9618378,-0.2657550,0.2609667,10.6876621,18.0916023,12.8931293,-2.2671757
2240,19.1487274,-0.7110743,0.8762733,-44.4427490,-110.5419846,-250.1374054,-0.4764437,0.2825144,10.5559816,17.7251911,13.8702288,-4.0076337
2250,19.5964413,-1.1396341,0.6536137,-71.6870193,-151.3282471,-250.1374054,-0.7014975,0.3567342,10.4003592,16.6183205,12.7480917,-5.1297708
2260,18.6603127,-1.6304430,1.1204807,-97.6946564,-164.6030579,-250.1374054,-0.7972651,0.3615226,10.3261395,14.8091602,10.3358774,-7.1450381
2270,16.4648399,-1.5011568,2.2313845,-118.4580154,-177.9618378,-250.1374054,-0.9241571,0.3854645,10.2734671,12.5648851,8.1526718,-8.3664122
2280,13.9413652,-1.5466464,3.1100521,-128.5954132,-188.1603088,-250.1374054,-1.0893562,0.3710994,10.2279778,10.1832066,6.0381680,-8.6564884
2290,11.8775740,-1.8459201,3.9025288,-127.0534363,-197.4656525,-250.1374054,-1.1013272,0.4333483,10.2471304,7.7251906,4.2977099,-9.5496187
2300,10.9366570,-1.8602852,4.8147149,-117.7709961,-219.3816833,-250.1374054,-1.1276633,0.3543400,10.3883877,5.4961834,2.5343511,-9.0229006
2310,10.8815908,-1.8746504,4.9200592,-104.1297684,-233.9541931,-250.1374054,-1.2330076,0.3160330,10.4075413,4.1832061,0.7633588,-8.5267172
2320,9.6533718,-1.8602852,5.2289100,-88.8931274,-243.1374054,-250.1374054,-1.2976507,0.3327923,10.4937325,3.5496182,-0.5343512,-8.6870232
2330,8.4083929,-2.1930776,5.6646523,-73.3740463,-250.1374054,-250.1374054,-1.3239868,0.3136388,10.5176744,2.7786260,-0.2977099,-7.9083967
2340,6.1458845,-2.4396791,5.8202744,-61.0305328,-250.1374054,-250.1374054,-1.5538290,0.2825144,10.4266949,2.2900763,-0.2442748,-6.7251906
2350,4.4891052,-2.6192431,6.0118098,-51.4198456,-250.1374054,-250.1374054,-1.6567791,0.2466015,10.4266949,1.4503816,-0.6259542,-5.7175574
2360,3.4500270,-2.2313845,6.3685441,-43.5572510,-250.1374054,-250.1374054,-1.7309990,0.2561783,10.3859940,0.6335878,-2.2213740,-4.7938933
2370,2.3941894,-1.8938038,7.1490498,-33.4503822,-250.1374054,-250.1374054,-1.7022687,0.1771700,10.4123297,-0.4351145,-4.5114503,-4.1145039
2380,1.4484847,-1.2401901,7.4435349,-20.1908398,-242.0992432,-250.1374054,-1.5801650,0.1699875,10.5152798,-1.2442749,-6.5572519,-3.7328243
2390,0.7062859,-0.1795642,6.2943239,-3.2442749,-214.5648804,-250.1374054,-1.5203103,0.1747758,10.6230183,-1.5419847,-6.8320613,-2.2442749
2400,-0.6248835,0.6895266,5.0421629,12.4580154,-173.7099304,-250.1374054,-1.4101776,0.2059003,10.6756907,-0.9465649,-6.6564884,-1.7022901
2410,-1.9656296,1.6855093,3.2393384,19.7862587,-136.7022858,-250.1374054,-1.2713146,0.2513899,10.7355452,-0.1450382,-6.1908398,-1.0839695
2420,-3.1531475,2.4755919,1.7190280,16.2900772,-93.5801544,-250.1374054,-1.3790531,0.3471575,10.5942879,-0.2519084,-5.0839696,0.4274809
2430,-3.6415622,2.9999194,0.9289455,6.5877862,-42.8625946,-250.1374054,-1.3527170,0.5554519,10.1633339,-1.5725191,-2.4274809,0.8625954
2440,-3.9623835,2.6551561,0.3160330,-3.9694657,-1.6946565,-250.1374054,-1.5777708,0.7230452,9.7898407,-5.0610685,-2.2900763,3.9389312
2450,-4.2592630,2.0254843,-0.4740495,-17.3969460,20.9541988,-250.1374054,-1.7956421,0.8954269,9.6102762,-11.0687027,-6.2061067,7.3435116
2460,-5.3773494,2.0733681,-0.6416427,-33.2824440,30.1221371,-246.7786255,-1.7693061,1.0773853,9.5719690,-18.1221371,-13.9694653,9.6870232
2470,-6.8785062,1.7238164,-0.3112446,-51.3435097,24.3511448,-226.0076294,-1.6495966,1.0582317,9.5049324,-25.2595425,-20.6793900,10.2748089
2480,-8.6286592,1.1659702,0.3591284,-67.7557220,10.4732828,-200.8778687,-1.5538290,1.0103480,9.5887289,-31.3435116,-26.3435116,11.8015270
2490,-9.8592720,0.7829000,1.6352314,-78.3358765,-9.0534353,-170.5114441,-1.4532729,0.7493813,9.6366129,-36.2519073,-27.2061062,12.7251911
2500,-10.5224628,0.8475431,2.4899571,-80.8167953,-27.3282452,-136.1450348,-1.3934183,0.6153067,10.2040358,-40.2213745,-33.1832047,13.2595415
2510,-11.2215662,1.3479286,3.0597742,-74.4274826,-22.9465656,-100.0992355,-1.0749911,0.3327923,10.6206245,-41.2061081,-40.5343513,12.2977095
2520,-12.2750092,1.3910241,3.1531475,-63.2519073,-10.4198475,-60.0305328,-0.8451489,-0.0766141,10.8744087,-40.2442741,-46.0152664,10.7022905
2530,-12.7251167,1.2521610,2.9664006,-53.6488533,-4.6259542,-19.5343513,-0.5506636,-0.2657550,11.0707321,-37.5648842,-49.1984749,8.4427481
2540,-12.9094696,1.0055596,2.8323262,-46.6946564,-8.6030531,16.0916023,-0.4908088,-0.4668669,11.3915539,-33.5954208,-48.0228996,6.7709923
2550,-14.1137466,0.0502780,3.1028695,-41.1297722,-11.0839691,53.8702278,-0.4572902,-0.5769997,11.3700056,-28.7480907,-42.7862587,6.0534353
2560,-14.6524391,-0.4070122,3.3470769,-33.8702278,-5.4809160,104.5343475,-0.4668669,-0.5937590,11.5615406,-23.5114498,-36.3435097,6.8778625
2570,-15.7801027,-0.0023942,2.9256995,-26.9770985,19.3129768,176.9084015,-0.2226596,-0.6919208,11.5423870,-18.0152664,-31.0305347,7.9083967
2580,-18.0617657,-4.4268565,2.5043221,-38.2595406,90.2671738,250.1297760,0.0407012,-0.6943150,11.5639353,-7.3129773,-18.2977104,7.5419846
2590,-17.9109306,-6.6678176,3.1411765,-52.9389305,122.7099228,250.1297760,0.3303981,-0.8164186,11.3508520,-2.3282442,-12.5648851,6.6793895
2600,-16.0913467,-8.6526003,4.3765783,-64.5038147,145.1526642,250.1297760,0.4596844,-0.7565638,11.4514084,2.8320611,-6.0992365,4.5190840
2610,-13.2302914,-9.7491398,5.0852585,-63.9160309,168.8244324,250.1297760,0.5027798,-0.6727672,11.3005743,7.1603055,-1.2519084,2.2824428
2620,-9.9598284,-12.6508970,6.3781209,-49.6412201,188.3435059,250.1297760,0.5889706,-0.7062859,11.2024126,10.7404585,2.6030533,-0.3893130
2630,-5.3246775,-16.6970768,7.7284436,-22.3129768,208.2442780,250.1297760,0.4860204,-0.5554519,10.9749641,13.4580154,6.9236641,-3.4885497
2640,-2.8012016,-19.6131992,8.3317795,16.2595425,206.6564941,250.1297760,0.1771700,-0.3950413,10.8744087,14.5419846,10.3053436,-5.8091602
2650,6.0477223,-19.6131992,7.6159167,57.1679382,227.2671814,250.1297760,-0.1268920,-0.2681492,10.8313131,14.9541988,11.7022905,-6.0534353
2660,15.5765963,-19.6131992,6.8641410,83.2366409,234.0992432,250.1297760,-0.3974355,-0.1723816,10.7307568,14.9618320,11.5954199,-7.0916033
2670,19.6126022,-19.6131992,8.1881275,87.2977066,250.1297760,250.1297760,-0.6057299,-0.0790083,10.6302013,13.7480917,11.0000000,-7.1374044
2680,19.6126022,-19.0026817,8.9351149,63.8549614,250.1297760,250.1297760,-0.6775556,-0.0023942,10.4147243,12.2824430,9.9083967,-6.7557254
2690,19.6126022,-12.4234495,11.7363167,37.1679382,250.1297760,250.1297760,-0.7541697,0.0430954,10.4362717,10.5114508,8.1526718,-6.9160304
2700,19.6126022,-8.4945841,13.5080166,44.0305328,250.1297760,250.1297760,-0.8212070,-0.0119709,10.2806492,8.7404585,5.4580154,-6.8931298
2710,19.6126022,-4.7668314,10.1082678,84.5954208,55.0000000,208.0305328,-0.8930327,0.0718257,10.3907824,6.8320613,2.2137403,-6.6870227
2720,19.6126022,-2.6072724,5.3462253,118.1603088,-148.1679382,-25.4198475,-0.8331779,0.0502780,10.3117743,4.9389315,-0.0916031,-5.5343513
2730,19.6126022,-3.8354914,2.0877333,110.7862625,-250.1374054,-164.4885559,-0.8475431,0.0023942,10.4434547,3.2061069,-1.5572519,-5.0763359
2740,18.2341461,-3.1411765,1.3838415,71.6870193,-250.1374054,-223.8931274,-0.8092360,-0.0239419,10.5200682,2.3969467,-2.5114503,-4.4580154
2750,17.7792511,-1.0223188,2.2074428,28.3664131,-250.1374054,-222.7022858,-0.7589580,-0.0646431,10.7187862,2.0992367,-3.1679389,-4.1832061
2760,15.5909615,1.4652439,3.2537034,5.2137403,-170.3740387,-181.6717529,-0.6655847,-0.1580165,10.6278067,2.1526718,-3.0381680,-3.9312978
2770,12.2582502,2.8586621,3.4979107,4.5038166,-71.8396912,-123.8015289,-0.7852941,-0.1173153,10.6278067,2.0229008,-2.9694657,-3.6564887
2780,9.1266499,3.5697365,2.8610563,14.1450386,-4.3511453,-66.1221390,-0.9026094,-0.0670373,10.4913378,1.3587786,-2.9541984,-3.0916030
2790,8.2575598,3.6343796,1.6160779,22.4427490,23.7022896,-22.1832066,-1.0678085,0.0311245,10.4578199,0.3511450,-4.3511453,-2.3282442
2800,9.0979195,3.9575951,-0.0861908,22.2061062,21.9160309,-1.2824427,-1.2090657,0.0359128,10.3883877,-0.9770992,-6.3511453,-0.7557252
2810,10.2303715,4.1563129,-1.1180865,9.4274807,14.0152674,-4.3053436,-1.3239868,0.0909792,10.4506369,-2.0687022,-8.9160309,0.7328244
2820,10.3261395,3.9719603,-1.2138541,-12.7633591,1.6717557,-19.7557259,-1.2306134,0.0670373,10.5990763,-3.0839694,-12.0305347,2.9694657
2830,9.8281479,3.2944047,-0.3232156,-33.8549614,-9.4198475,-36.5725174,-1.0797794,0.0909792,10.6062593,-3.2595420,-13.6564884,4.2290077
2840,8.8106174,2.5019281,0.8882443,-45.8625946,-15.2213745,-46.7938919,-0.7709290,-0.0407012,10.8384953,-3.0687022,-14.5877867,4.6259542
2850,8.1258793,2.0901275,2.0183017,-45.2595406,-11.7633591,-47.7328262,-0.5554519,-0.0766141,10.6924505,-2.5801528,-14.3129768,4.5572519
2860,8.4490948,2.1619530,2.7988074,-33.9007645,0.9694657,-41.2519073,-0.4668669,-0.1604107,10.7475166,-1.5038168,-11.0000000,4.2366414
2870,9.3301563,2.3894010,2.3606708,-19.8396950,16.3893127,-31.2977104,-0.5722113,-0.1412572,10.8768024,-0.5801527,-8.6641226,4.7480917
2880,10.3620520,2.5426292,1.7238164,-8.0381680,27.5267181,-19.8625946,-0.3830703,-0.1508339,10.9055328,0.9312977,-7.2824426,4.9465647
2890,12.0738974,3.0525916,0.9457048,-3.1679389,42.4351158,-8.5877867,-0.3136388,-0.1484398,10.9031391,2.1221373,-6.0229006,4.7862597
2900,13.0674858,3.9168940,-0.7661406,-6.3358779,40.6030540,-0.3206107,-0.1723816,-0.1556223,10.7834291,2.8320611,-4.5190840,3.6106870
2910,14.2837343,4.5872669,-0.9002152,-19.4809170,49.4503822,2.9465649,0.0167593,-0.1891410,10.7355452,2.9083970,-4.3053436,3.3129771
2920,15.7465839,4.3286943,-0.0407012,-42.5954208,61.4427490,-1.4732825,0.1412572,-0.1173153,10.6445665,2.9694657,-3.3511450,0.7786260
2930,18.2580891,3.0023136,1.0151364,-63.7862587,71.4045792,-16.9847336,0.1412572,-0.1364688,10.7714586,3.0229008,-2.7709923,-1.0229008
2940,19.6126022,2.3463056,2.6503677,-71.1603088,59.4885483,-49.0992355,0.0742199,-0.0814024,10.8265247,3.3816793,-2.2213740,-3.2595420
2950,19.6126022,1.7022687,4.4603748,-63.6335869,35.3740463,-96.8167953,-0.1173153,-0.0095768,10.8049774,4.1221375,-0.8931298,-4.7175574
2960,19.6126022,1.6567791,5.5449429,-45.5801544,18.6946564,-151.0458069,-0.2537841,-0.0239419,10.7762470,4.8778625,1.2671756,-5.0916033
2970,19.6126022,1.7238164,5.8681583,-24.1221371,1.8167939,-201.0610657,-0.3710994,0.0814024,10.7666702,5.3587785,3.0610688,-5.8167939
2980,18.4783535,2.0949159,4.7333126,-4.0000000,-28.1755733,-247.3893127,-0.5147507,-0.0383070,10.7307568,6.0000000,3.9770992,-5.0458016
2990,18.0066986,2.1380112,3.3159523,15.5496187,-73.2213745,-250.1374054,-0.5027798,0.1005560,10.6445665,6.3358779,4.2061067,-5.0152674
3000,17.0777531,1.7908537,2.9520357,19.7175579,-76.5648880,-250.1374054,-0.6703730,0.0263361,10.5511932,6.0992365,3.8473282,-5.1297708
3010,15.7250366,1.5274929,2.5665710,14.1603050,-93.2519073,-250.1374054,-0.8068419,0.0861908,10.5272512,5.6183205,2.9694657,-4.8778625
3020,15.0283270,1.5394639,2.7748656,5.4885497,-107.1603088,-250.1374054,-0.9433106,0.0718257,10.5296450,4.5114503,-0.0687023,-5.0534353
3030,13.3164816,1.1707586,2.6767037,-4.8015265,-113.9847336,-250.1374054,-1.1468167,0.1580165,10.3596573,2.9160306,-2.7557251,-4.8625956
3040,10.0340481,0.7972651,2.4348907,-12.1068707,-122.1526718,-250.1374054,-1.1300575,0.1628049,10.2423429,0.8244275,-3.6335878,-3.2366412
3050,7.4531116,0.7469871,1.9895715,-14.9847326,-124.0992355,-250.1374054,-1.1516051,0.1388630,10.3931761,-1.2900764,-5.7633586,-1.4274809
3060,5.9375896,0.9337339,1.7525467,-17.7633591,-123.1450348,-250.1374054,-0.9313397,0.0909792,10.5128860,-2.2900763,-6.7328243,-0.2671756
3070,4.5250182,0.7565638,1.4173602,-25.0534344,-109.7404556,-250.1374054,-0.7829000,-0.0478838,10.7403336,-2.7175572,-7.8091602,-0.9389313
3080,2.1236460,0.3543400,2.6910689,-38.8473282,-72.9847336,-250.1374054,-0.6177009,-0.0502780,10.7810354,-2.1832061,-8.1908398,-1.1145039
3090,1.0462608,-0.2250538,4.8697815,-23.7251911,-65.5572510,-250.1374054,-0.4453192,-0.1412572,10.8121595,-1.5954199,-7.0458016,-1.7709924
3100,1.1899122,-0.0742199,5.7532372,8.2824430,-58.0228996,-250.1374054,-0.3303981,-0.1412572,10.9007444,0.0305344,-4.7480917,-1.7328244
3110,0.4764437,0.5913648,6.1650376,48.0000000,-58.4045792,-250.1374054,-0.3136388,-0.0646431,10.9486284,2.0076337,-1.1832061,-1.3664122
3120,-0.1292862,0.3471575,4.7045822,77.2137375,-53.6793900,-250.1374054,-0.2346306,0.0143651,11.0372133,3.9160306,2.6335878,-1.1755725
3130,-1.3239868,0.6991033,3.4811516,100.6793900,-66.3053436,-250.1374054,-0.2298422,0.0383070,11.0252428,6.1450381,4.7709923,-1.5801526
3140,-2.7988074,1.2713146,1.1803354,105.2137375,-69.4961853,-250.1374054,-0.2274480,0.0718257,10.8576488,7.4885497,5.5038166,-2.8854961
3150,-4.9176650,1.3527170,-0.6392486,90.3893127,-65.0687027,-250.1374054,-0.3567342,0.0526722,10.8696203,8.9465647,6.6106873,-3.6564887
3160,-7.5680327,2.2289903,-1.2330076,71.7175598,-83.1145020,-250.1374054,-0.3902529,0.1173153,10.7259684,9.7557249,6.9770994,-5.2671757
3170,-8.5855637,2.6024840,-1.9704180,53.5114517,-104.6946564,-250.1374054,-0.5769997,0.1987177,10.5847120,9.6106873,6.0992365,-5.2519083
3180,-9.6006994,1.8076130,-2.5498118,22.6030540,-115.3282471,-250.1374054,-0.7086801,0.2130829,10.4219065,8.5267172,4.4274807,-5.6946564
3190,-11.1952295,1.6735384,-2.7676830,-30.2519093,-83.8854980,-230.5038147,-0.8092360,0.1723816,10.1561518,6.6335878,2.5190840,-5.8549619
3200,-11.6429434,2.1427996,-0.8451489,-61.2137413,-73.9542007,-175.3740387,-0.9409165,0.1556223,10.1705170,4.3893127,0.1145038,-5.9160304
3210,-10.8648319,2.5522060,0.9289455,-67.5038147,-57.2748108,-126.5954208,-0.9624642,0.0311245,10.2112179,1.8244275,-2.5496182,-5.6870227
3220,-11.4131012,1.9799947,2.0159075,-64.4961853,-29.8702297,-77.6030502,-1.0558375,-0.0311245,10.4434547,-0.0839695,-4.7022901,-5.5877862
3230,-12.1026278,1.7980363,2.4157372,-56.2671738,-9.1679392,-22.7557259,-1.0462608,-0.1244979,10.4745789,-1.6717557,-5.8854961,-5.7786260
3240,-12.5718889,1.3048333,2.5976956,-48.2061081,6.7557254,32.8244286,-1.1468167,-0.0837966,10.7930059,-2.5572519,-6.4580154,-4.8702292
3250,-12.9310169,1.6567791,2.1236460,-40.3435097,13.3587790,81.2137375,-1.1109039,-0.1364688,10.7618818,-2.0992367,-6.9694657,-3.6335878
3260,-13.2590208,1.8842272,0.5339043,-38.0458031,13.7251911,124.7175598,-0.9648584,-0.1963235,10.9294748,-0.8396947,-6.9083967,-3.1832061
3270,-13.6780043,2.0206959,-1.5969244,-51.6488533,13.7938929,167.9007568,-0.9169745,-0.1723816,10.9797525,0.5877863,-5.5725193,-2.5267177
3280,-14.2166967,1.4939742,-2.5043221,-75.8091583,3.7175572,225.1755676,-0.7421987,-0.0095768,10.9558105,2.2519083,-3.5954199,-2.1679389
3290,-14.8559456,0.4237715,-2.0542145,-101.0000000,-6.9389315,250.1297760,-0.6392486,-0.0622489,10.8935623,3.9618320,-1.7404580,-1.7404580
3300,-16.8455162,-1.2808913,0.2059003,-119.6870193,12.7251911,250.1297760,-0.5913648,0.0430954,10.9055328,5.1068702,0.0000000,-2.5877862
3310,-19.2684364,-4.6758518,2.6671271,-121.0076370,40.7480927,250.1297760,-0.5099624,0.1460456,10.7954006,5.9160304,1.4809160,-3.2977099
3320,-18.6818600,-7.7284436,3.4165084,-109.6717529,60.4809151,250.1297760,-0.5650287,0.1460456,10.6421719,6.4427481,2.4427481,-4.2748094
3330,-16.0195217,-11.9110928,3.4524212,-109.3511429,99.0457993,250.1297760,-0.5602403,0.2585725,10.6445665,6.4656487,2.9312978,-5.1068702
3340,-12.1002331,-17.7170029,3.8522508,-115.0839691,112.6641235,250.1297760,-0.5674229,0.3471575,10.6134415,6.0687022,2.8396947,-5.4274807
3350,-4.2927818,-19.6131992,5.2863703,-119.6183243,115.0916061,250.1297760,-0.6033357,0.4094064,10.6493549,6.0229006,2.2977099,-6.0305343
3360,7.1298962,-19.6131992,8.7435799,-109.4198456,131.0992432,250.1297760,-0.6320660,0.4141948,10.6182299,5.9541984,1.7862595,-6.1450381
3370,15.7633438,-19.6131992,10.8768024,-87.1984711,168.8320618,250.1297760,-0.5698171,0.3926471,10.6732969,6.0610685,1.6641221,-6.3664122
3380,19.6126022,-19.6131992,15.0115681,-55.9236641,197.2748108,250.1297760,-0.6655847,0.4070122,10.6134415,6.3129773,2.1068702,-5.4961834
3390,19.6126022,-19.6131992,17.2237988,-5.3358779,220.8625946,250.1297760,-0.6392486,0.4237715,10.7259684,6.4732823,2.3206108,-5.0534353
3400,19.6126022,-16.5965214,14.8439751,50.8167953,214.5343475,250.1297760,-0.6871324,0.3878587,10.5751352,6.5038166,2.8473282,-5.0992365
3410,19.6126022,-11.9446115,10.5200682,85.6870193,148.0915985,250.1297760,-0.6248835,0.3519458,10.6062593,6.6183205,3.0610688,-4.7786260
3420,19.6126022,-8.8417416,4.8721757,78.1679382,30.3587780,250.1297760,-0.5889706,0.2609667,10.5727406,6.2900763,2.6717558,-5.0076337
3430,19.6126022,-5.9830794,2.6814921,35.4274826,-85.4656525,85.0457993,-0.6392486,0.2274480,10.6397781,6.1221375,2.7938931,-5.1984735
3440,19.6126022,-3.9408360,3.8187323,-12.4198475,-157.2900696,-110.0229034,-0.6488253,0.2346306,10.6421719,5.8778625,2.1679389,-5.8396945
3450,19.6126022,-3.9384418,6.5983863,-38.5114517,-173.4961853,-214.0000000,-0.7565638,0.1532281,10.7403336,6.0458016,1.8931298,-6.9236641
3460,18.5334206,-3.8307030,8.3485384,-39.9771004,-154.5496216,-236.0686951,-0.8499373,0.1651991,10.6397781,6.2748094,2.1526718,-6.9160304
3470,13.4840746,-3.1052637,9.2296000,-26.0381680,-110.9923630,-197.3129730,-0.9097920,0.2585725,10.7139978,6.8320613,2.8244274,-7.2061067
3480,10.7738523,-2.1619530,9.6150646,-3.3053436,-69.6488571,-126.6946564,-0.9792235,0.2609667,10.7307568,7.2213740,3.4656489,-5.8396945
3490,10.2974091,-1.0917504,8.3748751,18.1450386,-34.3358765,-55.8702278,-1.0558375,0.2561783,10.6206245,7.5038166,3.5954199,-5.8320613
3500,9.9646168,-0.8930327,3.4931223,16.3893127,-15.9160309,51.6183205,-1.1827296,0.4932030,10.5080976,6.9389315,1.8625954,-3.4351146
3510,10.5679522,2.8179610,1.6902977,-3.0381680,-22.0992374,54.8015251,-1.1061156,0.4357425,10.4386663,5.1832061,-0.4732825,-3.7633588
3520,9.6892843,4.8458395,2.3510940,-14.4961834,-30.7251911,54.6717567,-1.1300575,0.5386927,10.2495251,3.8167939,-1.2519084,-3.5114503
3530,9.8903971,5.8226686,3.5314295,-16.8854961,-35.6564903,55.9007645,-1.0965388,0.4333483,10.3500814,2.6488550,-2.2824428,-3.3358779
3540,9.8018112,4.6112089,4.0126615,-11.1526718,-27.4045811,58.9389305,-1.0678085,0.4620786,10.3572636,1.0534351,-2.8778627,-3.6717558
3550,9.9478569,2.3917952,3.2608860,-5.9160304,-27.9770985,68.8625946,-1.0558375,0.4237715,10.3405046,-0.0305344,-3.6717558,-3.3816793
3560,12.3516235,0.2633608,2.2385671,-3.0381680,-29.5648861,74.2290039,-0.9648584,0.3615226,10.4506369,-1.3893130,-4.5801525,-3.9618320
3570,15.0259333,-1.1970947,1.6448082,-1.2519084,-20.7404575,66.3129807,-0.9504932,0.3016679,10.4554253,-2.2900763,-5.3435116,-4.0534353
3580,17.5374374,-2.1523764,1.4293311,-0.1068702,5.5267177,41.5190849,-0.8643024,0.3112446,10.5823174,-2.7328243,-5.5954199,-4.1526718
3590,19.1295738,-1.6998745,1.9153515,-0.8778626,24.8015270,0.5801527,-0.9050036,0.3256098,10.6565371,-2.2442749,-5.1374044,-5.0229006
3600,19.6126022,-0.0909792,2.7700772,-3.3358779,11.9312973,-51.0076332,-0.9313397,0.2801202,10.6517487,-1.6030535,-3.5267177,-4.6259542
3610,19.6126022,1.0630201,3.0621684,-2.2519083,-14.4503813,-112.3740463,-0.9528874,0.2849085,10.4841557,-1.3358779,-1.7328244,-4.5419846
3620,19.6126022,1.3311694,1.9991482,-6.5038166,-41.4809151,-187.6030579,-1.0630201,0.2992737,10.4841557,-1.4580153,-1.0839695,-4.0916033
3630,19.6126022,0.2035061,1.1516051,-21.6335869,-65.0534363,-250.1374054,-1.0534433,0.2561783,10.4362717,-2.2671757,-1.3358779,-4.0000000
3640,19.6126022,-1.6304430,1.3191984,-39.6412201,-84.7175598,-250.1374054,-1.0582317,0.2657550,10.5392218,-3.1679389,-2.9465649,-4.9236641
3650,19.6126022,-2.8897867,2.0637913,-55.0687027,-94.1297684,-250.1374054,-1.0725969,0.2370248,10.6086531,-3.9236641,-4.7251906,-4.9236641
3660,19.6126022,-3.5553713,3.0142846,-63.0228996,-97.0610657,-250.1374054,-1.1085097,0.2011119,10.7259684,-4.0992365,-6.2900763,-5.0152674
3670,17.8007984,-3.5050933,2.1954718,-69.9770966,-104.9160309,-250.1374054,-1.1228749,0.2154770,10.8408899,-3.2213740,-6.0763359,-5.8167939
3680,16.0937424,-4.2233500,1.3455344,-81.6488571,-91.6259537,-250.1374054,-1.1013272,0.1843526,10.9414454,-1.7251909,-5.2442746,-5.0839696
3690,12.7730007,-5.0254035,1.8602852,-87.2290039,-66.2824402,-250.1374054,-1.0438666,0.2202654,10.8241301,-0.1908397,-4.3358779,-4.2977099
3700,10.2950144,-5.0206151,2.0494261,-99.7328262,-70.7328262,-250.1374054,-1.1324517,0.2777260,10.8480721,1.1374046,-2.0076337,-3.3282442
3710,6.3805151,-5.0684991,4.5441718,-95.7709961,-63.7175560,-250.1374054,-1.0845678,0.3327923,10.7570934,2.1068702,-0.7175573,-2.7175572
3720,4.0102673,-3.9982965,6.1051831,-83.6488571,-80.4961853,-250.1374054,-1.0917504,0.3375807,10.6709023,2.7022901,-0.9847328,-1.6717557
3730,3.5386121,-3.4572096,6.9982157,-59.4198456,-86.1374054,-250.1374054,-1.0558375,0.4525018,10.5487986,2.2061069,-1.8167939,-1.3435115
3740,2.7748656,-3.8043671,6.2057390,-36.0992355,-88.7633591,-250.1374054,-1.0749911,0.4237715,10.4338779,1.6412214,-2.2137403,-1.4351145
3750,1.7884595,-3.6152260,5.1379304,-27.5572510,-83.9542007,-250.1374054,-0.9768293,0.4477134,10.4673967,0.3282443,-2.9236641,-1.1526718
3760,0.3471575,-3.0621684,4.4843168,-29.0229015,-73.5419846,-250.1374054,-1.1348459,0.4453192,10.5296450,-0.4503817,-3.7557251,-1.5267175
3770,-1.5586174,-2.5665710,4.1658897,-35.4580154,-56.8702278,-250.1374054,-1.1013272,0.3567342,10.5248566,-1.1984733,-4.7022901,-1.5038168
3780,-1.4029950,-0.0023942,5.9375896,-33.3740463,-36.3511467,-250.1374054,-1.0989330,0.3974355,10.5847120,-1.7404580,-5.3893127,-1.1374046
3790,-1.5179161,-0.6248835,6.3613615,-12.8778629,-25.8091602,-250.1374054,-1.0151364,0.4261657,10.6445665,-1.7022901,-5.6259542,-1.6183206
3800,-2.2960277,-1.1348459,4.0653338,-0.5572519,-12.8931293,-250.1374054,-1.0989330,0.3974355,10.6900558,-1.4274809,-5.4656487,-0.2137405
3810,-3.8594334,-1.6711442,2.8658447,-0.9847328,-4.5572519,-250.1374054,-0.9864060,0.4213773,10.7283630,-1.0763359,-5.4198475,-0.1679389
3820,-5.2648225,-1.0414724,3.1411765,-2.9236641,-1.9236641,-250.1374054,-0.9888002,0.3902529,10.7355452,0.0152672,-4.5801525,1.4122137
3830,-6.6582408,-1.5346755,5.0277977,7.4656487,-5.4580154,-250.1374054,-0.9576758,0.4118006,10.7116032,1.1908396,-3.2366412,1.3587786
3840,-9.4091644,-2.1332228,5.3246775,23.8091602,-5.5419846,-250.1374054,-0.9696468,0.3663110,10.8456783,2.0000000,-2.5419848,1.5648855
3850,-12.2869806,-1.9105632,4.9703374,40.8320618,-17.0305347,-239.2519073,-0.9480990,0.4908088,10.6517487,2.4732823,-2.4580152,2.3282442
3860,-15.1576138,-1.8076130,4.3526363,53.4809151,-18.1755733,-179.9084015,-0.9433106,0.4046180,10.5823174,2.4656489,-2.8091602,1.8702290
3870,-18.2940025,-1.7094513,3.5841017,57.2137413,-5.8549619,-96.3435135,-0.8666966,0.4453192,10.4817610,1.8396946,-3.4503818,1.7709924
3880,-19.6131992,-1.1659702,3.3997490,59.8320618,10.6488552,8.2748089,-0.9121862,0.3351865,10.4458485,0.9465649,-4.2061067,1.0992366
3890,-19.6131992,0.3423691,2.6982515,63.8091621,29.9923668,130.2213745,-0.8475431,0.2944853,10.4841557,0.0839695,-5.3511453,0.5954198
3900,-19.6131992,0.4405309,1.4532729,58.7709923,49.4580154,250.1297760,-0.8307837,0.2705434,10.4865494,-0.9618320,-5.8320613,-0.5572519
3910,-19.5270100,-1.0031654,0.2346306,42.2748108,73.6870193,250.1297760,-0.9026094,0.2346306,10.5128860,-1.6793894,-5.7709923,-0.9618320
3920,-19.4336357,-3.5290353,0.2729376,18.4045811,97.5648880,250.1297760,-0.8451489,0.2609667,10.6709023,-1.9083970,-5.7328243,-1.4274809
3930,-19.3402615,-6.7085190,1.2401901,-3.6335878,116.4656525,250.1297760,-0.9935886,0.2489957,10.6206245,-1.5572519,-5.7862597,-2.1374047
3940,-18.4089222,-11.1664991,2.7940190,-18.6106873,136.4732819,250.1297760,-0.9504932,0.2705434,10.7499104,-0.9541985,-5.0992365,-1.6106870
3950,-16.1631737,-16.5079365,3.7421181,-21.9465656,159.0305328,250.1297760,-0.9768293,0.2250538,10.8576488,-0.6412213,-4.0076337,-1.4961832
3960,-11.9565821,-19.6131992,3.6870518,-25.2595425,172.1603088,250.1297760,-0.9361281,0.3543400,10.7618818,0.2595420,-3.1679389,-1.7862595
3970,-5.4443870,-19.6131992,4.3143296,-31.3358784,174.5801544,250.1297760,-0.9552816,0.2968795,10.6565371,0.7099237,-2.8320611,-1.3587786
3980,2.6431851,-19.6131992,5.2672167,-33.4656487,162.2748108,250.1297760,-0.9217629,0.3280039,10.5104914,1.0152671,-3.1679389,-1.6183206
3990,15.6603928,-19.6131992,7.1322904,-25.3206100,139.5343475,250.1297760,-1.0175306,0.3543400,10.7427282,1.2748091,-3.0610688,-2.5114503
4000,19.6126022,-19.6131992,7.9415264,-6.5572519,99.9389343,250.1297760,-0.8978211,0.4165890,10.6230183,1.3129771,-3.1526718,-2.5954199
4010,19.6126022,-19.6131992,7.5967631,11.7862597,118.7862625,250.1297760,-1.0414724,0.3543400,10.6110477,1.1145039,-3.2824428,-2.3129771
4020,19.6126022,-17.9300842,8.6430235,12.4427481,133.6106873,250.1297760,-0.9289455,0.3854645,10.5392218,1.1603054,-3.7557251,-2.2366412
4030,19.6126022,-11.9517937,10.9342632,26.5419846,130.1068726,250.1297760,-0.9265513,0.3663110,10.6182299,1.0381680,-4.0763359,-2.1603053
4040,19.6126022,-9.8880024,9.3612804,52.7404594,60.0687027,250.1297760,-0.8307837,0.3687052,10.6876621,1.1450381,-3.7557251,-2.7251909
4050,19.6126022,-7.3405848,5.9208307,64.8396912,-40.2748108,53.9771004,-0.7182568,0.4070122,10.6445665,1.1755725,-2.4045801,-3.9312978
4060,19.6126022,-6.0429344,3.1651185,48.8015251,-119.6641235,-111.8015289,-0.7781116,0.4094064,10.6852674,1.0687023,-2.5419848,-4.3587785
4070,19.6126022,-5.1690550,1.9177457,10.9618320,-148.5190887,-216.7404633,-0.7062859,0.3806761,10.6254129,1.2061069,-2.2671757,-5.3969464
4080,17.6451759,-3.5745249,3.4500270,-20.0152664,-129.8931274,-250.1374054,-0.7972651,0.3710994,10.5942879,1.0992366,-2.2824428,-6.5648856
4090,13.8144732,-2.1763182,4.8578105,-27.0839691,-87.0839691,-250.1374054,-0.8786675,0.3878587,10.5511932,0.8015267,-2.9160306,-6.8015265
4100,10.0603838,-1.2617378,5.2911587,-21.6412220,-48.4351158,-231.0992432,-1.0127422,0.2896969,10.5176744,0.7251908,-3.0610688,-6.6564884
4110,6.9407554,-0.5410868,5.3534074,-8.5801525,-25.5267181,-191.3893127,-1.0366840,0.3375807,10.4961262,0.2519084,-2.8091602,-6.9389315
4120,5.5186067,0.2106887,4.7668314,6.6564884,-14.1832066,-149.7938995,-1.1707586,0.3375807,10.4482431,-0.0458015,-2.6183207,-6.5801525
4130,5.0301919,0.4860204,3.4787574,16.3893127,-10.0687027,-111.7709961,-1.2401901,0.3926471,10.3213511,-1.1603054,-2.6106870,-5.7404580
4140,5.1259594,0.5817881,2.9592183,21.0152664,-6.1068702,-80.3511429,-1.4365137,0.3327923,10.4051476,-2.5190840,-2.5801528,-4.0152674
4150,5.6071916,0.6655847,2.6072724,25.2442741,-0.6183206,-56.0305328,-1.5538290,0.3974355,10.4482431,-3.5725191,-3.4656489,-2.8702290
4160,6.6271162,0.7158626,1.9584470,28.2595425,5.5801525,-37.4198456,-1.5562232,0.3112446,10.6948442,-3.8015268,-5.5572519,-0.7709923
4170,10.3716288,1.9273225,0.2609667,18.1221371,17.4045811,-20.6412220,-1.1276633,0.2681492,10.7307568,-2.7862597,-5.6030536,0.5038168
4180,11.0611553,1.9153515,-0.1675933,4.8167939,27.5572510,-23.7633591,-1.0797794,0.2178712,10.8337069,-1.5190840,-5.5038166,0.4656489
4190,11.5328102,2.0733681,-0.0023942,-8.2366409,37.0458031,-29.0381680,-0.9361281,0.2585725,10.7786407,-0.3282443,-5.1450381,0.4809160
4200,12.4114780,2.1332228,0.5650287,-18.2824421,39.7633591,-37.9541969,-0.8714849,0.3112446,10.6637201,0.5801527,-4.5114503,0.2595420
4210,13.4553452,2.0183017,1.2473727,-22.9618320,35.6335869,-50.9465637,-0.9097920,0.3375807,10.5751352,0.7557252,-3.4732823,-1.0305344
4220,14.0945930,1.9297167,1.5753766,-23.6717548,31.2213745,-66.7633591,-0.9073978,0.3064562,10.6038647,0.8702290,-3.2671757,-0.7786260
4230,15.0139618,2.1571648,2.0542145,-22.6259537,27.7786255,-84.1755753,-0.9648584,0.2466015,10.6828737,1.0916030,-3.6183207,-1.0152671
4240,15.2749290,2.8012016,2.5522060,-20.3969460,22.3816795,-100.6641235,-0.9337339,0.3591284,10.6613255,0.6793893,-3.4351146,-0.9160305
4250,15.0187502,3.6152260,2.7221935,-17.1450386,19.4580154,-112.0839691,-0.9768293,0.3543400,10.5942879,0.4045801,-3.4656489,-1.9465649
4260,14.1400833,4.3406653,2.1188576,-18.0076332,19.3282452,-115.5954208,-0.9768293,0.3256098,10.5871058,0.2595420,-3.6946564,-1.2748091
4270,12.9932661,4.5657191,1.5993185,-23.7404575,21.9923668,-111.3587799,-0.9289455,0.3495516,10.6110477,0.2137405,-4.0992365,-2.2061069
4280,12.4521790,4.2329268,1.2928623,-31.5648861,21.4809170,-102.1526718,-0.8762733,0.3591284,10.5655584,0.1374046,-3.8702290,-1.9694656
4290,12.6772327,4.2161674,0.8906385,-41.5267181,16.6564884,-92.1603088,-0.9504932,0.4141948,10.5631638,0.0534351,-3.8854961,-2.7099237
4300,12.8041248,4.1347651,1.0510491,-52.8625946,19.5496178,-85.3435135,-0.8882443,0.3878587,10.6996326,-0.0763359,-4.1755724,-2.3740458
4310,12.8352499,4.0102673,1.0893562,-64.5572510,23.3435116,-82.8167953,-0.7565638,0.4189832,10.6948442,-0.1603053,-4.3893127,-3.1679389
4320,13.5535069,3.5481887,1.1252691,-76.6564865,33.5725174,-85.1908417,-0.8762733,0.4309541,10.6397781,0.2595420,-4.0839696,-3.6259542
4330,14.2478218,3.3327117,1.7740943,-89.1221390,42.0152664,-95.7328262,-0.7852941,0.4118006,10.6302013,0.2748092,-3.3282442,-4.2061067
4340,15.0019913,3.0334380,2.6144550,-99.8396912,42.8549614,-113.9007645,-0.7900825,0.3854645,10.5511932,-0.0763359,-3.4961832,-4.7709923
4350,16.1919041,1.9321109,3.2010312,-107.5648880,35.2671738,-141.2748108,-0.7900825,0.4453192,10.5751352,-0.3435115,-3.6870229,-5.3435116
4360,17.6810894,0.8499373,3.6655040,-108.0839691,44.1603050,-184.7862549,-0.8283895,0.4213773,10.5200682,-0.8854962,-3.9770992,-6.6641221
4370,18.2676659,0.8714849,4.6590929,-103.2519073,42.6335869,-239.0381622,-0.9073978,0.3758878,10.4506369,-1.4580153,-4.3740458,-6.1068702
4380,17.8678360,1.4484847,4.7716198,-95.5190811,35.9771004,-250.1374054,-1.0366840,0.3974355,10.5440102,-1.5801526,-4.7022901,-6.2519083
4390,17.1974621,1.7357874,3.8546450,-89.2366409,35.2290077,-250.1374054,-1.1276633,0.3902529,10.5655584,-2.0152671,-4.7480917,-5.7099237
4400,15.4760408,2.2481439,2.6743097,-90.7099228,33.7480927,-250.1374054,-1.2330076,0.2992737,10.6206245,-2.1984732,-5.2595420,-4.8625956
4410,12.2295198,1.7046629,2.5138988,-95.6106873,33.6335869,-250.1374054,-1.1970947,0.2777260,10.7044210,-2.1984732,-5.5725193,-4.1603055
4420,5.9782910,0.4860204,2.6575503,-93.3511429,41.6106873,-250.1374054,-1.2042773,0.2202654,10.5248566,-1.8396946,-5.2977099,-4.4274807
4430,3.1148405,1.6328372,2.0302727,-89.7786255,28.1297703,-250.1374054,-1.1228749,0.2250538,10.6349897,-1.5114504,-5.0763359,-3.6564887
4440,2.8873925,3.0789278,1.9799947,-92.6946564,-0.3206107,-250.1374054,-1.1085097,0.1460456,10.6685085,-0.8396947,-3.9618320,-2.7786260
4450,4.1802549,4.2808108,1.7860653,-101.5877838,-10.3053436,-250.1374054,-1.1324517,0.1747758,10.7523050,-0.7175573,-4.6793895,-2.7099237
4460,5.6574697,4.6638808,2.2122312,-111.9694672,-0.1603053,-250.1374054,-1.1061156,0.1340746,10.6397781,-0.2442748,-4.9541984,-3.0687022
4470,8.6095057,3.9312592,3.1699069,-121.6717529,14.8396950,-250.1374054,-1.0318956,0.1651991,10.5966825,0.1450382,-4.3664122,-2.7786260
4480,7.7475972,1.7597293,4.1539187,-127.8473282,27.5572510,-250.1374054,-1.1228749,0.2896969,10.7379398,0.2671756,-4.9312978,-1.8091604
4490,5.9016771,0.0766141,4.2065907,-130.9236603,34.9847336,-250.1374054,-1.0486550,0.2705434,10.6158361,0.5190840,-4.4732823,-2.2290077
4500,4.0940638,-0.0335187,5.0134325,-125.9160309,51.9541969,-250.1374054,-1.0773853,0.2082945,10.6062593,0.8015267,-4.2671757,-2.0229008
4510,3.2632802,-0.0861908,6.5433197,-113.9923630,57.4351158,-250.1374054,-1.0749911,0.2466015,10.6110477,0.5954198,-3.7633588,-2.2748091
4520,2.3151813,-0.4046180,6.7252784,-94.3053436,57.3206100,-250.1374054,-1.0941446,0.2729376,10.5823174,0.5648855,-4.0458016,-1.5725191
4530,1.1300575,0.0718257,6.7923155,-75.0610657,54.1984749,-250.1374054,-0.9433106,0.3351865,10.6230183,0.5267175,-4.4274807,-1.4809160
4540,0.4381367,0.1675933,7.2472115,-57.8167953,47.1450386,-250.1374054,-0.9313397,0.3399749,10.6661139,0.5496183,-4.6412215,-0.7557252
4550,0.1939293,0.2992737,7.5656385,-40.1145020,49.0839691,-236.3435059,-0.9145803,0.3040621,10.6517487,0.0763359,-4.5801525,-1.3511450
4560,-0.7062859,0.4213773,7.5967631,-24.3129768,55.9618340,-214.7938995,-0.9169745,0.3710994,10.5631638,0.0916031,-4.2442746,-1.5725191
4570,-0.9576758,0.2082945,7.3142486,-14.7557249,67.9160309,-192.7786255,-0.8475431,0.3830703,10.5511932,-0.1832061,-4.6946564,-1.4885496
4580,-1.2401901,-0.2202654,7.3262196,-11.5954199,71.9236679,-175.5419922,-0.8547257,0.3184272,10.5823174,-0.8549618,-4.9389315,-2.0992367
4590,-1.5777708,-0.5362985,7.6829538,-7.4045801,80.3893127,-164.4580078,-0.8068419,0.3710994,10.6038647,-1.5190840,-5.2824426,-2.7633588
4600,-2.8442972,-0.7996593,8.1522150,-0.9236641,80.1450348,-151.8625946,-0.8978211,0.3567342,10.6397781,-2.0000000,-5.9541984,-2.6106870
4610,-4.0461802,-1.3024391,8.3341732,4.0076337,77.9542007,-135.6488495,-0.9026094,0.3806761,10.4985209,-2.5572519,-6.7175574,-3.0458016
4620,-4.6183915,-1.8985922,8.9901810,10.4045801,63.9923668,-119.0457993,-0.9265513,0.4285599,10.5080976,-3.3206108,-6.8854961,-3.0916030
4630,-5.4276276,-2.1332228,9.8544836,20.2519093,55.2061081,-103.1908417,-0.8906385,0.3303981,10.4841557,-3.4503818,-6.9236641,-3.5038168
4640,-6.0118098,-2.1691356,10.1465750,36.0458031,37.5496178,-85.3664093,-1.0031654,0.3208214,10.6206245,-3.7251909,-6.9312978,-3.5114503
4650,-6.3493905,-2.1835008,9.5839405,56.0152664,21.9770985,-69.0457993,-0.9552816,0.2729376,10.6685085,-3.7175572,-7.0076337,-3.2519083
4660,-6.9216018,-1.9967541,9.0835552,76.1068726,0.3358779,-51.0458031,-0.9792235,0.2394189,10.6709023,-3.2900763,-6.4427481,-2.9007633
4670,-6.7204900,-1.7717001,8.0588417,93.1145020,-24.6183205,-30.4198475,-1.0103480,0.2873027,10.7235746,-2.4885497,-6.1755724,-2.5496182
4680,-6.4834652,-1.6041069,7.4531116,114.4045792,-40.3206100,-8.0534353,-1.0630201,0.2250538,10.8576488,-1.2824427,-5.4732823,-1.5496184
4690,-6.7683735,-0.9792235,5.6766233,119.3587799,-29.5190830,28.5725193,-1.0462608,0.2513899,10.8839855,0.5954198,-4.3893127,-1.4274809
4700,-7.0413113,-0.9097920,4.6950054,108.2366409,-5.0000000,73.2748108,-1.0151364,0.2633608,10.7762470,2.0076337,-2.5496182,-0.1603053
4710,-8.0061693,-1.6831152,4.2975702,87.5267181,30.1603050,121.3969498,-0.9504932,0.1651991,10.7499104,2.6946564,-1.5419847,-0.1908397
4720,-9.9526453,-2.6120608,5.3773494,71.3816757,50.1679382,180.6488495,-0.9050036,0.2106887,10.5104914,2.6259542,-1.8473282,0.0381679
4730,-10.6230183,-3.0190730,5.6119800,56.4580154,89.1374054,238.8091583,-0.8978211,0.2250538,10.4721851,2.2213740,-2.4427481,-0.4274809
4740,-12.8137016,-4.2616572,6.9886389,44.6335869,120.1297684,250.1297760,-0.8331779,0.1699875,10.5176744,1.2137405,-3.3129771,-1.5954199
4750,-17.0298691,-5.9495606,9.7371683,49.1297722,117.9160309,250.1297760,-0.9361281,0.2370248,10.4769726,0.3206107,-4.5190840,-1.9160305
4760,-19.6131992,-8.6741486,12.5240049,85.6641235,96.8473282,250.1297760,-0.9050036,0.3064562,10.5487986,-0.4961832,-4.6870227,-2.7175572
4770,-19.6131992,-12.4880924,13.2207146,145.9313049,74.2595444,250.1297760,-0.8619082,0.2466015,10.5775290,-1.2213740,-5.0916033,-2.4274809
4780,-16.5270901,-18.7297440,10.8863792,198.8625946,83.9160309,250.1297760,-0.9097920,0.3016679,10.5775290,-1.0992366,-5.3740458,-2.5954199
4790,-10.1896706,-19.6131992,6.8066807,226.0381622,105.3282471,250.1297760,-0.8882443,0.2920911,10.6302013,-1.1221374,-6.0992365,-3.1221373
4800,3.1028695,-19.6131992,0.9720409,239.3129730,160.7633514,250.1297760,-0.8595140,0.2992737,10.6278067,-1.1297710,-6.9236641,-2.9694657
4810,13.6947641,-19.6131992,-3.1100521,235.0305328,239.5877838,250.1297760,-0.7685348,0.3112446,10.6421719,-1.4732825,-6.9465647,-3.6946564
4820,19.6126022,-19.6131992,-6.2009506,190.3816833,250.1297760,250.1297760,-0.7565638,0.2777260,10.6397781,-1.7557251,-7.6946564,-4.3740458
4830,19.6126022,-19.6131992,-0.0407012,87.3969498,250.1297760,250.1297760,-0.7493813,0.2729376,10.6182299,-1.8167939,-7.2595420,-4.8473282
4840,19.6126022,-16.2972469,9.3277617,2.7480917,150.9236603,250.1297760,-0.7829000,0.2489957,10.5990763,-1.8015267,-6.5496182,-5.0687022
4850,19.6126022,-1.0103480,15.8255920,-23.4732819,179.1374054,250.1297760,-0.7996593,0.1675933,10.8001890,-2.0076337,-7.4122138,-5.5190840
4860,19.6126022,3.0645626,18.9763451,16.6335869,127.1679382,160.5801544,-0.7254394,0.2466015,10.7810354,-1.1603054,-6.2900763,-5.8244276
4870,19.6126022,-0.3040621,15.4233685,75.7175598,48.4885483,-18.3053436,-0.7445929,0.2226596,10.7546988,-0.4580153,-4.9007635,-7.1450381
4880,19.6126022,-1.6567791,10.2136126,123.0839691,-58.7786255,-91.8854980,-0.7350162,0.2154770,10.7403336,0.4351145,-3.9465649,-7.5190840
4890,15.8543224,-0.0718257,4.5082588,137.6717529,-112.8702316,-102.7557220,-0.7852941,0.1771700,10.7642756,1.3053435,-3.6030533,-6.9770994
4900,13.0148134,0.9241571,1.2258250,108.0916061,-115.9465637,-89.4351120,-0.8164186,0.1556223,10.6685085,1.4885496,-3.3816793,-8.2748089
4910,11.7434988,2.7197993,0.7062859,70.7862625,-80.9618301,-63.5114517,-0.8834559,0.1580165,10.5392218,1.3664122,-2.8091602,-8.6564884
4920,12.0499554,4.5393834,1.4963684,40.5190849,-33.4961815,-32.7557259,-0.9888002,0.1723816,10.4147243,0.5725191,-2.7175572,-8.2595415
4930,12.9429884,5.2025738,2.0470319,22.6259537,8.7709923,-16.3969460,-1.1061156,0.2130829,10.5152798,0.1832061,-2.8091602,-7.4045801
4940,12.9669304,4.8123207,2.3367288,13.9847326,32.6412201,-14.8244276,-1.2258250,0.3112446,10.4793673,-0.5877863,-4.2290077,-6.1374044
4950,12.2678270,4.0605454,2.4755919,10.1679392,32.8091621,-21.8931293,-1.1851238,0.3567342,10.5607700,-0.7480916,-3.9923663,-4.8625956
4960,10.9653873,3.5266411,2.4923513,11.3511448,25.6106873,-27.6183205,-1.1635761,0.3423691,10.6230183,-0.7480916,-3.2671757,-3.2671757
4970,10.0747490,3.0573800,2.4157372,14.7786255,12.0229006,-28.6717548,-1.1109039,0.3399749,10.6397781,-0.6717557,-3.3587787,-2.3816793
4980,9.7563219,2.7245877,2.2888451,18.9389305,-1.5801526,-30.3740463,-1.0582317,0.2849085,10.6086531,-0.4885496,-3.7557251,-1.3053435
4990,9.8664551,2.5115047,2.2553265,25.3587780,-25.4580154,-31.7328243,-0.9720409,0.3687052,10.5679522,-0.5877863,-4.9465647,-0.9770992
5000,10.0484133,2.1188576,2.6192431,32.9465637,-41.1297722,-39.3511467,-0.9792235,0.2777260,10.5535870,-1.1755725,-5.1603055,-1.7862595
5010,10.1322098,2.0206959,2.8634505,45.1832047,-50.1450386,-45.4656487,-0.9888002,0.2346306,10.4745789,-1.9923664,-6.0000000,-1.5419847
5020,10.2351599,1.6663558,3.1292057,60.3969460,-47.2519073,-43.1603050,-0.9888002,0.1580165,10.5895004,-2.9160306,-6.1145039,-1.5419847
5030,10.6445665,1.5801650,3.4619980,68.3511429,-28.1984730,-33.0992355,-1.0007712,0.0814024,10.5487986,-3.3358779,-7.2595420,-1.4580153
5040,11.3077564,2.1523764,3.4212968,69.5419846,2.5419848,-15.2366409,-1.0247130,0.0335187,10.6685085,-3.4503818,-7.6335878,-0.7480916
5050,13.0291786,2.1380112,3.3518653,60.4580154,29.4885502,5.1221375,-0.9792235,-0.0478838,10.7499104,-3.1145039,-7.0992365,-0.8854962
5060,15.3084478,2.7269819,3.9288650,43.0534363,55.4732819,16.6641216,-0.9121862,-0.0383070,10.8313131,-2.2824428,-6.3664122,-0.5419847
5070,17.2525291,3.6391680,4.9248476,25.0381680,61.3664131,15.3282442,-0.9050036,-0.0143651,10.8169479,-1.0992366,-5.8244276,-0.0687023
5080,19.4719429,4.2736282,5.2121506,11.0152674,74.4809189,-5.6793895,-0.9720409,-0.0119709,10.8815908,0.1832061,-4.6335878,0.1221374
5090,19.6126022,2.4875629,6.4451580,-5.9694657,83.5801544,-80.3129807,-0.9792235,0.1388630,10.6469603,2.5038168,-1.1679389,1.5190840
5100,19.2588596,1.4317253,6.7157016,-25.5801525,32.9847336,-141.8854980,-1.1156923,0.1963235,10.6900558,3.2519083,-0.1603053,2.0076337
5110,18.6938305,0.5434810,6.9359670,-37.4122124,-9.9694653,-198.8625946,-1.0510491,0.2777260,10.6637201,3.3358779,-0.0687023,3.1679389
5120,18.8542423,-0.5626345,7.4219875,-32.2519073,-16.5496178,-238.1755676,-0.9504932,0.3208214,10.6589317,3.0916030,-0.8396947,3.1603053
5130,18.3418846,-0.8140244,7.5943689,-23.5496178,-12.9618320,-250.1374054,-0.8331779,0.3567342,10.5511932,2.8778627,-1.5267175,3.4045801
5140,16.2709122,-0.5219333,7.5991573,-20.1832066,-28.0305347,-250.1374054,-0.7421987,0.3806761,10.5296450,2.0610688,-1.9541985,3.2366412
5150,14.7529955,-0.7685348,7.4650826,-16.3129768,-46.3053436,-250.1374054,-0.7374104,0.4046180,10.6397781,1.5114504,-2.3129771,2.3587787
5160,13.3428183,-0.9816177,7.6302819,-17.5801525,-62.5419846,-250.1374054,-0.6009415,0.4525018,10.5176744,1.3358779,-2.9923663,1.6564885
5170,12.1792421,-1.9249283,8.2000990,-14.8320608,-71.9083939,-250.1374054,-0.4285599,0.4118006,10.6206245,0.9923664,-4.3740458,0.4732825
5180,10.5607700,-3.2177906,8.4514885,-2.2595420,-65.9007645,-250.1374054,-0.4860204,0.3758878,10.5559816,0.8244275,-4.1068702,-0.5114504
5190,7.4267755,-3.6128318,8.1785507,14.5496187,-59.3511467,-250.1374054,-0.5769997,0.4046180,10.5033092,0.3358779,-3.6870229,-1.2290076
5200,4.6327567,-4.2065907,7.7547798,28.5496178,-59.5343513,-250.1374054,-0.7158626,0.2873027,10.5799236,-0.0763359,-3.4656489,-1.7022901
5210,1.5993185,-4.4220681,7.3070664,41.9312973,-67.7480927,-250.1374054,-0.7996593,0.3208214,10.6278067,-0.2137405,-3.7633588,-2.7633588
5220,-0.4094064,-4.0773048,7.5728211,54.9312973,-87.9465637,-250.1374054,-0.7829000,0.3256098,10.6804790,-0.1297710,-4.1832061,-2.1832061
5230,-1.9129574,-3.5529771,7.8409705,70.8931274,-107.1832047,-250.1374054,-0.8068419,0.2059003,10.6589317,-0.1603053,-4.5496182,-2.6717558
5240,-3.2106080,-3.1531475,7.8673067,88.5190811,-116.0381699,-250.1374054,-0.7350162,0.1316804,10.6780853,-0.3282443,-4.6870227,-4.0381680
5250,-4.7716198,-2.6886747,7.9032192,101.3816757,-128.0000000,-250.1374054,-0.7541697,0.0790083,10.5966825,-0.4961832,-5.1374044,-4.5190840
5260,-5.9280128,-2.3630650,7.9534974,113.3435135,-149.4503784,-250.1374054,-0.7996593,0.1244979,10.5511932,-0.6335878,-5.0458016,-5.3129773
5270,-6.7683735,-2.0254843,7.6278877,124.1221390,-167.3053436,-250.1374054,-0.9121862,0.0837966,10.6517487,-0.8015267,-4.5496182,-5.4274807
5280,-7.7092900,-2.0159075,6.7875271,129.1603088,-166.6030579,-250.1374054,-0.9289455,0.0430954,10.6541433,-0.7404580,-4.4351144,-6.3129773
5290,-9.0356712,-2.0446377,5.9758968,125.9465637,-139.0839691,-250.1374054,-0.9576758,0.0646431,10.5416164,-0.3816794,-3.9770992,-5.7480917
5300,-10.0101061,-1.8243724,4.9751258,121.0152664,-116.4885483,-234.8015289,-1.1516051,0.1460456,10.7475166,0.1068702,-3.3282442,-5.2595420
5310,-10.5033092,-1.4772149,3.6966286,112.8778610,-93.9007645,-201.7709961,-1.1013272,0.1125269,10.6613255,0.2748092,-2.8473282,-5.2442746
5320,-11.3340931,-1.0654143,2.5402350,95.9923630,-64.3969498,-166.3129730,-1.0749911,0.1532281,10.6038647,0.1603053,-3.4809160,-4.6564884
5330,-11.8751793,-19.6131992,8.1210909,-219.2137451,139.1374054,250.1297760,-1.0151364,0.2059003,10.5128860,2.1755726,-2.0610688,1.4503816
5340,3.5505829,-19.6131992,8.5951405,-187.8320618,-30.5801525,250.1297760,-0.9193687,0.2681492,10.5535870,1.5648855,-2.7633588,1.1755725
5350,19.6126022,-19.6131992,12.2797976,-112.6335907,-136.6564941,250.1297760,-0.8475431,0.2777260,10.4865494,1.0076336,-3.0687022,1.2671756
5360,19.6126022,-19.6131992,15.1504307,2.7633588,-159.4885559,250.1297760,-0.7829000,0.3663110,10.5918941,0.4732825,-3.6946564,1.1297710
5370,19.6126022,-9.1314383,17.1878853,106.3282471,-216.7175598,250.1297760,-0.7302278,0.2968795,10.5823174,0.1374046,-4.3129773,0.7633588
5380,19.6126022,9.7084379,7.3118544,107.0076370,-250.1374054,250.1297760,-0.6679789,0.4070122,10.6852674,-0.1526718,-4.6641221,-0.1145038
5390,19.6126022,6.6821828,3.5984666,18.4274807,62.8091621,-93.1832047,-0.6943150,0.3040621,10.6852674,-0.1374046,-4.2366414,-0.4961832
5400,19.6126022,-0.7469871,4.0366035,-1.9465649,84.2595444,-234.3893127,-0.8643024,0.3064562,10.6613255,0.4122137,-4.2595420,-0.7099237
5410,12.3923244,-2.4085546,4.4053087,-2.7022901,3.7404580,-244.7480927,-0.8020535,0.2992737,10.6397781,0.5343512,-3.9465649,0.0000000
5420,0.1508339,-1.3742647,5.9543490,5.8320613,-87.9160309,-166.8244324,-0.8164186,0.2418131,10.7810354,1.0458015,-4.1145039,0.0992366
5430,-1.2042773,0.7685348,6.2584114,27.2824421,-114.6106873,-57.7862587,-0.8475431,0.2561783,10.5942879,0.9465649,-4.4732823,-0.1221374
5440,5.3869262,3.8857694,4.5920553,40.6641235,-83.9389343,21.3282452,-0.8451489,0.2489957,10.6565371,0.7175573,-5.3358779,-0.8625954
5450,10.9198980,5.8537931,2.5043221,38.0763359,-23.8854961,45.7404594,-0.8714849,0.1651991,10.8001890,0.7633588,-6.1297708,-1.3282443
5460,12.8735571,6.3302369,1.3886299,25.0229015,15.2061071,39.6335869,-0.8523315,0.1508339,10.5966825,0.9160305,-6.1984735,-1.6488550
5470,13.2566271,5.7867560,1.4915800,15.8549614,25.0610695,22.8396950,-0.8164186,0.1628049,10.6230183,1.0763359,-5.6793895,-1.5801526
5480,10.2303715,3.9240766,1.4029950,14.0381680,-11.1145039,-7.6488547,-0.8523315,0.1939293,10.5272512,1.3816794,-2.6564887,-2.3358779
5490,9.4738073,3.0454090,1.1611819,13.0152674,-35.4427490,-10.7404585,-0.9241571,0.2729376,10.5320396,1.3129771,-2.4427481,-2.0381680
5500,10.3333216,2.9017577,0.5602403,12.3740454,-29.8167934,-5.6793895,-0.9361281,0.2753318,10.4913378,0.9312977,-2.3969467,-1.8778626
5510,11.9972830,3.3638363,-1.0534433,-7.0000000,30.0152664,-4.4045801,-0.9097920,0.2896969,10.5823174,-0.0992366,-3.4885497,-1.8854961
5520,12.5024576,3.1579359,-1.3359578,-22.6870232,42.5572510,-6.2290077,-0.8619082,0.2777260,10.3931761,-0.8015267,-3.8702290,-2.4885497
5530,13.2255030,3.7253587,-0.9959828,-41.4885483,47.5725174,-12.1145039,-0.8212070,0.2657550,10.5272512,-0.9847328,-3.3816793,-1.8549619
5540,14.6428623,3.6176202,0.7565638,-62.5954208,34.1374054,-27.8931293,-0.7996593,0.3327923,10.6349897,-1.1603054,-3.2290077,-2.4732823
5550,15.7489786,3.2800395,2.3870070,-71.5877838,6.3435116,-52.9541969,-0.7876883,0.2322364,10.6637201,-1.4656489,-3.0534351,-3.2137403
5560,15.2342272,2.5881188,2.4133430,-80.7328262,-28.1145039,-89.4580154,-0.8858501,0.2202654,10.5296450,-1.7175573,-2.5496182,-3.2061069
5570,13.4314032,3.1651185,2.0973101,-84.2595444,-49.2137413,-102.5038147,-0.9864060,0.2657550,10.7403336,-1.2290076,-2.7480917,-2.3282442
5580,11.9398232,2.0877333,2.1906834,-81.9770966,-39.6335869,-103.2900772,-0.8188128,0.2274480,10.7930059,-0.9465649,-3.3129771,-3.1450381
5590,11.5830889,2.0422437,2.6000898,-81.5725174,-34.0916023,-103.2519073,-0.8451489,0.2513899,10.7546988,-0.5038168,-3.2137403,-2.9312978
5600,11.5854826,2.0159075,2.8466914,-87.6488571,-56.3511467,-107.0992355,-0.7972651,0.1939293,10.7475166,-0.1526718,-2.7786260,-3.3740458
5610,9.8089943,4.2975702,3.6535332,-91.8549652,-73.6946564,-106.1450348,-0.8164186,0.2035061,10.8097658,0.1908397,-3.2442749,-3.7862597
5620,10.7116032,3.7708483,3.3303175,-89.6106873,-60.6412201,-92.6641235,-0.8236012,0.1412572,10.5990763,0.0839695,-3.8015268,-3.8854961
5630,11.5783005,4.0126615,3.3398943,-78.0457993,-6.7862597,-76.9083939,-0.9624642,0.1460456,10.6182299,0.3969466,-3.2366412,-4.4427481
5640,12.6173782,4.9631548,4.1658897,-65.5190811,25.3969460,-73.4885483,-0.9816177,0.1604107,10.7020273,0.9007633,-2.8015268,-4.0763359
5650,13.8360205,5.1235652,4.7620430,-52.7862587,38.6793900,-79.9542007,-1.1492109,0.2059003,10.6445665,1.0534351,-2.3740458,-3.1374047
5660,14.5806141,4.2185616,4.5992379,-41.5496178,51.3129768,-98.3129807,-1.1109039,0.3064562,10.6780853,1.4045801,-2.4503818,-2.6488550
5670,15.8591108,4.0318151,4.6734576,-30.0534344,94.9694672,-124.2442780,-1.0271072,0.2226596,10.6421719,1.4274809,-2.5267177,-1.8015267
5680,15.2438040,3.6343796,5.9447722,-11.1679392,148.5114441,-150.4809113,-1.0247130,0.2944853,10.5631638,1.4427481,-2.5877862,-1.5572519
5690,12.5287933,3.0478032,7.5321202,15.0763359,163.7786255,-166.8854980,-0.9169745,0.3639168,10.5703468,1.4809160,-3.2366412,-1.5572519
5700,11.6357603,2.5498118,6.7013364,45.5038185,167.6717529,-174.5190887,-0.9696468,0.3998296,10.7068148,1.2519084,-3.9389312,-1.2900764
5710,11.6046362,2.0254843,5.7077475,75.0076370,180.8549652,-181.0839691,-0.9265513,0.4094064,10.6709023,1.0000000,-4.1297708,-0.6259542
5720,12.8424320,2.4875629,6.1003947,101.0457993,197.7557220,-192.6335907,-0.8882443,0.4716553,10.6038647,0.8091603,-4.4809160,-0.7022901
5730,12.6245613,1.7333932,5.2097564,125.2977066,229.0458069,-197.6106873,-0.8140244,0.4070122,10.7139978,0.6335878,-4.7709923,-0.7175573
5740,1.5945302,7.3621325,7.4650826,91.3740463,74.9618301,-198.6717529,-0.7110743,0.3687052,10.5272512,0.2671756,-4.3206105,-0.1832061
5750,10.6541433,5.3007355,3.4739690,41.6793900,-9.0381680,-233.7938995,-0.7852941,0.3639168,10.6517487,0.5114504,-4.0458016,-0.1908397
5760,10.8863792,2.8514795,3.1842721,29.5648861,33.5648842,-250.1374054,-0.7685348,0.3112446,10.6469603,0.6106870,-4.3511453,-0.8396947
5770,7.6015515,3.6822634,3.9480183,15.0610685,12.1908398,-250.1374054,-0.8738791,0.3016679,10.7355452,0.9541985,-4.1755724,-1.0152671
5780,5.6263452,3.5841017,4.8889351,0.6946565,-28.5648861,-250.1374054,-0.8547257,0.2657550,10.8456783,1.2748091,-4.4885497,-1.7862595
5790,3.4548154,4.3765783,5.5904322,-8.9923668,-50.8396950,-250.1374054,-0.8259954,0.2657550,10.7786407,1.6335878,-5.0763359,-1.8167939
5800,3.2991931,5.4180508,5.9926562,-17.4656487,-67.3587799,-250.1374054,-0.8499373,0.2585725,10.7283630,1.9694656,-5.4198475,-1.8702290
5810,4.2544746,5.6885943,6.8138633,-18.1679382,-61.8549614,-250.1374054,-0.9193687,0.2920911,10.5583754,1.9847329,-5.6259542,-1.9465649
5820,5.5736732,4.9368186,8.6741486,3.8625953,-35.7709923,-250.1374054,-0.9409165,0.2106887,10.5440102,1.8549619,-5.3053436,-2.0610688
5830,4.1946201,2.2481439,8.5711985,49.4427490,-18.3358784,-250.1374054,-0.9720409,0.2489957,10.6397781,1.7251909,-5.3435116,-2.3053436
5840,2.0326669,1.8124014,7.1251078,86.9923630,-38.9618340,-250.1374054,-0.9121862,0.2370248,10.5009146,1.5801526,-4.9770994,-1.7557251
5850,-0.3088504,2.6048782,6.0477223,113.4503784,-83.1221390,-250.1374054,-0.9888002,0.2466015,10.5057030,1.0916030,-4.4809160,-2.3358779
5860,-1.2282192,2.8059900,4.4388270,124.2748108,-105.0229034,-250.1374054,-0.9433106,0.2154770,10.4745789,0.6259542,-4.6870227,-2.4732823
5870,-2.3846128,2.6216373,3.6343796,127.1908417,-128.7175598,-250.1374054,-0.9457048,0.2130829,10.5104914,0.1221374,-4.6717558,-2.0458016
5880,-4.3813667,2.5929072,3.4069316,131.1145020,-163.8702240,-250.1374054,-0.9121862,0.1771700,10.5847120,-0.1755725,-4.9007635,-2.3511450
5890,-7.4842362,1.7333932,4.1132174,134.4885559,-190.3969421,-250.1374054,-0.8906385,0.2849085,10.6493549,-0.2366412,-4.8473282,-2.7251909
5900,-9.4666252,2.5522060,5.0373745,144.7251892,-214.0915985,-212.2137451,-0.8379663,0.2394189,10.7020273,-0.0381679,-4.0687022,-3.0534351
5910,-10.5990763,2.8227494,5.1283536,155.8244324,-214.0915985,-171.8396912,-0.8690908,0.1891410,10.7116032,0.7480916,-3.6641221,-2.7557251
5920,-11.1234045,2.9448531,3.9168940,163.2290039,-193.7938995,-129.8549652,-0.8858501,0.2920911,10.6804790,1.3587786,-3.1450381,-2.5877862
5930,-12.9429884,2.7030399,1.3335636,154.6030579,-155.3435059,-82.3206100,-0.8116302,0.3112446,10.6685085,2.0381680,-2.3129771,-2.9847329
5940,-16.4313221,1.9991482,-0.4405309,127.8091583,-105.2977066,-11.3587790,-0.7517755,0.2873027,10.7379398,2.7557251,-2.1755726,-2.8244274
5950,-13.4744978,1.2521610,-0.8331779,98.2977066,-63.2290077,58.5419846,-0.7517755,0.3423691,10.6565371,2.7557251,-2.4198472,-3.4122138
5960,-14.4992113,0.8427547,-2.2457497,74.6793900,-6.9618320,125.7557220,-0.7829000,0.4165890,10.6637201,2.6946564,-2.7480917,-3.6106870
5970,-14.2789459,-0.1173153,-3.2273674,53.5801544,38.7175560,200.8473358,-0.7589580,0.3567342,10.4865494,1.9618320,-3.3129771,-4.2061067
5980,-10.5392218,0.0981618,-1.8052188,22.3435116,73.3129807,250.1297760,-0.8786675,0.3663110,10.5751352,1.3893130,-3.2671757,-4.9541984
5990,-6.6941538,3.0382264,0.0766141,-15.9007635,112.8091583,250.1297760,-0.8140244,0.3375807,10.5368280,0.7175573,-3.1908398,-4.2671757
6000,-3.1890604,4.8937230,0.0790083,-58.7862587,134.4732819,250.1297760,-0.8643024,0.3782819,10.4195127,0.4274809,-2.7938931,-4.3893127
6010,-3.5673423,2.1715298,1.7956421,-85.5725174,171.7328186,250.1297760,-0.8738791,0.3519458,10.5990763,-0.1526718,-3.2595420,-4.3129773
6020,-6.2655940,-0.6560079,3.0597742,-102.0839691,175.7862549,250.1297760,-0.9289455,0.3423691,10.6086531,-0.3740458,-3.6488550,-3.9847329
6030,-13.5271702,-0.7948709,13.9772778,-64.2290039,67.5954208,250.1297760,-0.9696468,0.3806761,10.6038647,-0.4198473,-3.2900763,-4.2519083
6040,-6.5576849,-4.1323709,4.7069764,-31.5419846,110.3129807,250.1297760,-1.0199248,0.3519458,10.7451220,0.2900763,-3.4961832,-4.0534353
6050,-8.7675219,-3.9025288,4.3813667,6.0152674,95.2671738,250.1297760,-1.0103480,0.3399749,10.5942879,1.3435115,-3.1832061,-3.2290077
6060,-7.4291697,-5.2049680,2.4731977,10.2366409,88.5877838,250.1297760,-0.9433106,0.3734936,10.6924505,1.9083970,-2.2671757,-2.8549619
6070,-6.5050125,-5.6598639,1.5322813,-8.1526718,117.9770966,250.1297760,-0.9361281,0.3902529,10.5487986,2.0763359,-1.5496184,-2.4885497
6080,-5.4898763,-6.5600791,1.5921360,-39.9312973,174.9770966,250.1297760,-0.9337339,0.4620786,10.5296450,1.6717557,-1.9312977,-1.7404580
6090,-3.9168940,-8.6837254,2.7078283,-73.4427490,238.0305328,250.1297760,-0.9097920,0.3998296,10.3476868,0.5801527,-2.1374047,-2.1908398
6100,-1.6615674,-10.8001890,4.6686692,-102.6488571,250.1297760,250.1297760,-0.8978211,0.4141948,10.3692341,-0.7099237,-2.0839694,-2.5877862
6110,1.7884595,-13.3619709,7.6877422,-117.2137375,250.1297760,250.1297760,-0.8523315,0.3734936,10.3572636,-1.8625954,-2.5114503,-2.7862597
6120,9.0093346,-15.7968616,10.9294748,-110.6793900,246.3511505,250.1297760,-0.9385223,0.3184272,10.4195127,-3.1221373,-2.6641221,-3.2748091
6130,19.6126022,-15.8806591,16.8000278,-66.7480927,148.0992432,250.1297760,-1.0223188,0.3280039,10.4865494,-3.9007633,-3.5648854,-3.1832061
6140,19.6126022,-12.1720591,19.6126022,20.4045811,28.5648861,250.1297760,-0.9888002,0.2442073,10.6637201,-4.2519083,-4.4045801,-3.0687022
6150,19.6126022,-7.1634150,17.6140518,111.9389343,-51.6030540,250.1297760,-1.0438666,0.2849085,10.7403336,-4.1526718,-4.6793895,-3.1221373
6160,19.6126022,0.8236012,13.8264437,-60.1221390,45.7022896,27.5343513,-1.0989330,0.2274480,10.6565371,0.6183206,-3.3816793,-0.8931298
6170,19.6126022,1.2066715,14.8583393,-22.6412220,23.5725193,-12.0687027,-1.0223188,0.2442073,10.7044210,1.1068702,-3.4427481,-0.7938932
6180,19.6126022,1.7836711,14.6931410,25.5419846,-19.8778629,-63.8931313,-1.0678085,0.2849085,10.6828737,1.6259542,-4.0229006,-0.1603053
6190,19.6126022,2.7485294,11.6477318,61.2519073,-51.4885483,-124.5801544,-1.0869620,0.2274480,10.7187862,2.0305343,-3.9770992,-0.6335878
6200,19.6126022,3.1746953,7.7380204,67.7480927,-75.7786255,-189.3358765,-1.0151364,0.3543400,10.5416164,2.3129771,-3.9312978,0.7633588
6210,19.6126022,2.2912393,5.1618724,53.2213745,-92.9694672,-240.7328186,-1.0271072,0.3256098,10.5775290,2.4656489,-4.0381680,1.0152671
6220,19.6126022,1.3718705,4.5657191,34.3435097,-101.8091583,-250.1374054,-1.0606259,0.3112446,10.4410601,2.1145039,-3.9160306,1.3893130
6230,19.6126022,0.4453192,4.5920553,22.3282452,-105.0381699,-250.1374054,-1.0845678,0.3184272,10.1992474,1.0000000,-2.9312978,1.3969465
6240,17.9947281,-0.5889706,4.9344244,19.5496178,-101.9770966,-250.1374054,-1.2090657,0.2896969,10.2184010,-0.7786260,-2.4045801,1.6030535
6250,14.5830078,-1.4700323,4.9751258,22.4198475,-98.2061081,-250.1374054,-1.1252691,0.1987177,10.3165627,-2.1832061,-3.0839694,2.3893130
6260,11.7315283,-1.8315549,4.8003497,27.1755733,-93.0916061,-250.1374054,-0.9337339,0.1221037,10.3357162,-3.5419848,-4.0076337,2.9083970
6270,8.9327211,-1.9560528,4.4268565,33.6564903,-85.8625946,-250.1374054,-0.8666966,0.0909792,10.7499104,-4.8473282,-5.1145039,2.1832061
6280,5.7676024,-2.2936335,4.0820932,40.7862587,-80.1374054,-250.1374054,-0.8690908,0.0837966,10.8097658,-4.5267177,-5.7709923,0.7862595
6290,1.7333932,-2.6455793,3.2082138,46.4961815,-76.1679382,-250.1374054,-0.9792235,0.0742199,11.0108776,-3.1832061,-6.0992365,0.1984733
6300,-1.5155219,-2.4444675,2.8634505,47.5343513,-83.1374054,-250.1374054,-0.8547257,0.1412572,11.0731258,-0.8167939,-5.0152674,0.0305344
6310,-4.0916696,-1.9656296,3.1794837,51.5877876,-94.9312973,-250.1374054,-0.8475431,0.2082945,11.0108776,1.4885496,-3.4961832,0.1984733
6320,-6.8904772,-1.6376256,2.8347204,58.8625946,-105.3740463,-228.5725250,-0.9193687,0.3160330,10.9869356,3.6946564,-2.9312978,0.3358779
6330,-9.3110027,-1.0151364,2.2816625,63.2671738,-127.8091583,-179.1068726,-0.9121862,0.4333483,10.8648319,4.6717558,-2.9312978,0.5038168
6340,-10.0148945,-0.5985473,1.3862357,61.8778610,-147.8167877,-129.5801544,-0.8571198,0.4884146,10.6469603,5.0610685,-3.4122138,0.7938932
6350,-9.6366129,0.2992737,0.7781116,52.9847336,-137.4656525,-81.5954208,-0.9097920,0.4620786,10.5751352,4.6946564,-4.2824426,0.2137405
6360,-10.1154509,0.4189832,0.3184272,36.8778610,-100.1374054,-37.7480927,-0.8475431,0.4979914,10.5224628,3.7786260,-4.2824426,0.7862595
6370,-10.4195127,0.5243275,0.0407012,19.7633591,-59.9160309,8.1603050,-0.6224893,0.5171449,10.4985209,3.5496182,-5.0610685,0.0839695
6380,-9.9670105,0.6081241,0.1747758,1.0916030,-16.3129768,49.2213745,-0.5458752,0.4644727,10.3979645,2.4198472,-5.0229006,-0.8549618
6390,-9.8305416,0.5674229,0.2513899,-15.3740454,22.1908398,81.1068726,-0.4070122,0.4692611,10.4673967,1.5877863,-4.6946564,-1.6870229
6400,-10.4051476,0.1556223,0.4740495,-28.4045811,46.0687027,110.3740463,-0.4046180,0.3974355,10.4458485,0.5190840,-4.1679387,-2.8625953
6410,-10.9845409,-0.4764437,0.3232156,-37.8625946,56.8854980,140.7862549,-0.4692611,0.3782819,10.4506369,-0.5190840,-4.0687022,-4.5419846
6420,-10.7523050,-0.9768293,-0.2250538,-47.5877876,59.6717567,173.8625946,-0.5123565,0.3663110,10.4889441,-0.7099237,-3.2442749,-5.0763359
6430,-10.5942879,-1.4820032,-0.8475431,-59.5343513,60.8015251,207.8015289,-0.6607963,0.3208214,10.6493549,-0.9847328,-2.4503818,-6.8015265
6440,-9.3469152,-2.2984219,-0.3687052,-73.9542007,68.0610657,243.0610657,-0.8547257,0.3016679,10.7235746,-1.4580153,-3.2442749,-6.5496182
6450,-7.7236552,-2.9185169,0.8643024,-88.6259537,102.3358765,250.1297760,-0.8954269,0.3256098,10.6996326,-1.4732825,-4.0152674,-7.4045801
6460,-6.2416520,-3.6918402,1.9153515,-103.6870193,158.1603088,250.1297760,-0.9457048,0.3088504,10.7834291,-1.2137405,-5.0076337,-7.2671757
6470,-5.8968887,-5.0182209,3.0573800,-118.9160309,211.9007568,250.1297760,-1.0199248,0.3399749,10.7930059,-0.5954198,-4.8244276,-7.0000000
6480,-4.7309184,-6.6438756,4.5130472,-130.9007568,228.0229034,250.1297760,-0.9576758,0.3016679,10.6613255,0.3206107,-3.7557251,-6.6793895
6490,-1.2784972,-8.6980906,6.0165982,-137.3587799,199.5648804,250.1297760,-1.0175306,0.2801202,10.7618818,1.2290076,-3.2824428,-6.6946564
6500,9.3708572,-10.5033092,9.2679071,-137.9465637,127.8625946,250.1297760,-1.0079538,0.2298422,10.7930059,1.3969465,-3.1832061,-6.7480917
6510,19.6126022,-10.8983507,13.7953196,-121.8702316,75.4351120,250.1297760,-1.0151364,0.2609667,10.6254129,1.8931298,-3.3435113,-6.9923663
6520,19.6126022,-8.0588417,18.2054157,-91.2824402,53.5725174,250.1297760,-1.0702027,0.1867468,10.6924505,2.4351146,-3.3511450,-6.8625956
6530,19.6126022,-5.7149301,19.4001179,-50.7709923,36.3740463,250.1297760,-1.1396341,0.2154770,10.7714586,3.0687022,-3.3587787,-5.7251906
6540,19.6126022,-5.3390427,17.8558655,-14.7022905,21.9465656,159.5725250,-1.1994889,0.2274480,10.7044210,3.5496182,-2.6259542,-5.2213740
6550,19.6126022,-3.3877780,16.8119984,9.8091602,4.1526718,84.1297684,-1.1755470,0.2466015,10.7379398,4.0916033,-2.2824428,-4.6412215
6560,19.6126022,-1.2114599,17.0705700,30.2213745,-15.9847326,13.3587790,-1.2306134,0.2106887,10.6349897,4.1068702,-1.9694656,-4.0534353
6570,19.6126022,1.2952565,16.2349987,53.6641235,-20.5114498,-54.8625946,-1.2569494,0.2370248,10.5416164,3.7328243,-2.2977099,-3.5954199
6580,19.6126022,2.7916248,13.3069048,76.9083939,-3.4656489,-122.2671738,-1.1683644,0.2753318,10.5080976,3.3816793,-2.7022901,-1.8167939
6590,19.6126022,2.7078283,8.9973640,92.4885483,25.3893127,-187.2824402,-1.0941446,0.3423691,10.5104914,2.9007633,-2.7557251,-1.4122137
6600,19.6126022,2.0661855,4.9583664,86.9694672,30.6641216,-246.3969421,-1.1037214,0.4141948,10.5583754,2.7709923,-3.3511450,-1.1526718
6610,19.6126022,0.9552816,3.0023136,64.4045792,0.0916031,-250.1374054,-1.0869620,0.4596844,10.5535870,2.3816793,-3.3969467,-0.9083970
6620,19.6126022,-0.6464311,3.7157819,42.9771004,-60.3282433,-250.1374054,-1.0773853,0.4572902,10.6182299,2.2519083,-3.5572519,-0.1068702
6630,19.6126022,-3.1531475,5.3103123,38.1450386,-121.6259537,-250.1374054,-1.0749911,0.5123565,10.7786407,2.4809160,-2.5954199,0.5114504
6640,17.8582592,-4.9200592,6.5098009,48.1832047,-169.9847260,-250.1374054,-1.0295014,0.5051740,10.7187862,2.7022901,-1.3282443,1.6488550
6650,13.4122496,-6.0189924,6.3039007,60.7099228,-200.0763397,-250.1374054,-0.9696468,0.5051740,10.7546988,3.2137403,-0.6412213,2.0687022
6660,9.0308828,-6.8521700,5.5928264,68.7022934,-209.0305328,-250.1374054,-0.8259954,0.5339043,10.6397781,4.1374044,-1.2519084,2.2671757
6670,5.5832496,-7.1753860,4.9296360,71.2213745,-208.4427490,-250.1374054,-0.7829000,0.4716553,10.6493549,4.2824426,-1.2595420,1.9770992
6680,2.5450234,-7.1490498,4.3406653,71.6564865,-193.7862549,-250.1374054,-0.7948709,0.4668669,10.6685085,4.4198475,-1.5038168,2.1755726
6690,-0.3423691,-6.9407554,3.7445123,71.0992355,-175.5648804,-250.1374054,-0.8212070,0.4596844,10.5559816,3.9770992,-2.2137403,1.5801526
6700,-3.0358322,-6.7085190,3.5146701,67.1374054,-160.7786255,-250.1374054,-0.8451489,0.4237715,10.3764172,3.0152671,-3.0992367,-0.1526718
6710,-6.2344694,-6.5337429,3.4619980,64.4045792,-146.1526642,-250.1374054,-0.8619082,0.4333483,10.4578199,1.9541985,-4.4045801,-0.6717557
6720,-10.0915089,-6.1722202,3.8570392,63.9923668,-143.9923706,-250.1374054,-0.9313397,0.3854645,10.5009146,1.1068702,-4.8549619,-1.0534351
6730,-14.1376886,-5.8849177,4.0653338,65.4122162,-150.8320618,-250.1374054,-0.9983770,0.3615226,10.5176744,0.8015267,-5.4961834,-0.9160305
6740,-17.6332054,-5.3390427,3.5697365,63.8396950,-153.1679382,-219.5954132,-1.0271072,0.4333483,10.5847120,0.5877863,-4.9465647,-0.7633588
6750,-18.6243992,-4.7955613,3.3446827,58.8549614,-146.5343475,-137.4732819,-1.0893562,0.4094064,10.7116032,1.0839695,-4.7709923,-0.1679389
6760,-17.7122135,-4.1994085,3.2800395,53.0076332,-123.3816757,-58.2290077,-1.0366840,0.3303981,10.7092094,1.6488550,-4.1221375,0.1526718
6770,-15.6101151,-3.7852135,3.4931223,45.5801544,-80.7251892,6.8091602,-0.9959828,0.4357425,10.7068148,2.2366412,-3.9236641,0.0076336
6780,-13.8455973,-3.6248028,3.6822634,37.2671738,-31.5114498,57.7251892,-0.9289455,0.4501076,10.7451220,1.9465649,-5.2824426,-0.0610687
6790,-13.1201582,-3.9264708,4.3622131,36.9083977,-2.7099237,97.9007645,-0.8355721,0.4165890,10.6900558,2.1984732,-6.0916033,-0.8931298
6800,-12.9046812,-4.5489597,4.5800843,46.7480927,9.6488552,136.3893127,-0.7685348,0.3926471,10.5942879,2.8320611,-5.7099237,-1.5496184
6810,-12.8998928,-4.8793583,3.4236910,58.1679382,14.6488552,175.8931274,-0.7876883,0.4213773,10.5535870,3.1679389,-4.5343513,-1.7862595
6820,-12.8591919,-4.9511838,1.9345051,62.6335869,6.9083967,216.9313049,-0.7948709,0.4979914,10.5104914,3.1832061,-3.3358779,-2.1450381
6830,-13.3547888,-5.1259594,0.2585725,58.2213745,-4.6030536,250.1297760,-0.9193687,0.4572902,10.4314833,3.3511450,-2.5343511,-2.3129771
6840,-13.6325150,-6.1913738,-1.0462608,45.5419846,-6.0458016,250.1297760,-0.9720409,0.5075682,10.5176744,2.6488550,-2.4809160,-1.9618320
6850,-12.0331964,-7.1705976,-0.6679789,20.9389305,17.2366409,250.1297760,-0.9816177,0.4692611,10.5009146,2.0534351,-2.4732823,-2.5725191
6860,-9.8592720,-8.6573887,1.2042773,-9.5648851,83.3282471,250.1297760,-0.9504932,0.5554519,10.4410601,1.3893130,-2.3816793,-2.9007633
6870,-7.6733770,-10.9486284,4.2568688,-40.4503822,188.5190887,250.1297760,-1.1013272,0.5626345,10.5368280,1.1297710,-2.9312978,-2.0152671
6880,-3.0813217,-14.4393568,8.0396881,-59.3816795,250.1297760,250.1297760,-0.9696468,0.5339043,10.5057030,0.8015267,-2.8015268,-2.4809160
6890,8.2958660,-16.6300392,8.4467001,-75.1068726,250.1297760,250.1297760,-1.0390782,0.4932030,10.5607700,0.1908397,-3.3587787,-2.0992367
6900,19.6126022,-18.0761299,6.6726060,-125.7328262,250.1297760,250.1297760,-0.9624642,0.4237715,10.5990763,-0.0076336,-3.7862597,-1.8854961
6910,19.6126022,-16.5630035,9.1793222,-171.2900696,250.1297760,250.1297760,-0.9720409,0.5123565,10.6661139,0.0458015,-3.8549619,-1.5190840
6920,19.6126022,-8.2120695,16.1033192,-147.8702240,250.1297760,250.1297760,-0.9265513,0.4716553,10.7116032,0.1679389,-4.0610685,-1.7099236
6930,19.6126022,-1.1132981,19.6126022,-86.8473282,218.3969421,250.1297760,-0.8930327,0.4884146,10.7427282,0.4198473,-4.3816795,-2.0534351
6940,19.6126022,-1.7956421,19.6126022,-34.0916023,-39.6335869,8.4656487,-0.8523315,0.4644727,10.7810354,0.8473282,-4.8244276,-2.0152671
6950,19.6126022,-2.8562679,17.7026367,21.8320618,-230.2137451,-106.8015289,-0.8475431,0.5362985,10.7690639,1.2824427,-4.6030536,-1.7480916
6960,19.6126022,-1.0247130,14.8511572,63.0076332,-250.1374054,-137.0000000,-0.8092360,0.5243275,10.6828737,1.5877863,-4.0687022,-1.8854961
6970,19.6126022,1.6663558,12.2462788,81.5038147,-250.1374054,-124.1908417,-0.6775556,0.4908088,10.6421719,1.7633588,-3.7480917,-2.3435113
6980,19.6126022,2.9496415,8.2910776,84.0534363,-119.6717529,-97.0076370,-0.6464311,0.5530578,10.5799236,2.0610688,-3.0916030,-3.7786260
6990,19.6126022,3.6200144,4.3239059,74.5267181,15.0458012,-73.2061081,-0.7182568,0.5817881,10.6182299,1.8549619,-2.8854961,-4.1832061
7000,19.6126022,3.9863255,0.5913648,52.5725174,106.0763321,-69.5343475,-0.7469871,0.6488253,10.3979645,1.6030535,-3.3206108,-4.8778625
7010,19.6126022,4.2592630,-0.9433106,24.8244267,143.7786255,-93.6412201,-0.7182568,0.6153067,10.4195127,0.7633588,-3.2900763,-5.6106873
7020,19.6126022,3.7229645,-0.6177009,-0.7404580,123.9236679,-144.0839691,-0.9169745,0.5386927,10.3716288,0.0534351,-2.8854961,-6.0381680
7030,19.6126022,2.4612267,1.7453641,-14.3893127,47.4045792,-209.8396912,-1.0725969,0.6177009,10.2471304,-1.0839695,-3.2137403,-5.9465647
7040,19.6126022,0.8140244,3.7564833,-10.8396950,-42.7633591,-250.1374054,-1.2210367,0.6991033,10.1729107,-2.7022901,-4.0916033,-5.5114503
7050,17.4560356,-0.5458752,4.5441718,4.0916033,-109.8015289,-250.1374054,-1.4101776,0.5746055,10.1753054,-4.9847326,-5.7099237,-4.2824426
7060,15.6795464,-1.6567791,4.0102673,16.8167934,-147.8244324,-250.1374054,-1.4293311,0.5506636,10.1082678,-7.1374044,-7.6717558,-3.7480917
7070,13.2973280,-1.7142396,3.4572096,18.2977104,-162.4503784,-250.1374054,-1.4820032,0.4285599,10.3859940,-9.1068707,-8.2824430,-3.1450381
7080,11.1281929,-1.5562232,3.1818779,13.9160309,-166.5038147,-250.1374054,-1.7070571,0.2944853,10.5559816,-9.8702288,-9.8931293,-2.0534351
7090,8.9734221,-1.7669119,3.0549858,9.7709923,-162.6641235,-250.1374054,-1.5442522,0.0502780,10.8672256,-9.5190840,-10.5114508,-0.9465649
7100,6.5912037,-1.9536586,3.1052637,8.4274807,-149.2290039,-250.1374054,-1.4724265,0.0622489,11.2000179,-7.7175574,-9.6183205,1.2671756
7110,4.2377152,-1.8890154,2.7126167,8.9847326,-128.2290039,-250.1374054,-1.2473727,-0.0766141,11.1784706,-5.2671757,-7.3664122,2.4198472
7120,1.7597293,-1.5490406,2.3127871,8.0839691,-103.9389343,-250.1374054,-1.0007712,-0.0550664,11.3891592,-1.6030535,-5.0610685,2.9312978
7130,0.4453192,-1.6950861,3.1004753,7.0992365,-103.3511429,-250.1374054,-0.8355721,-0.0239419,11.2790270,2.1679389,-2.7175572,3.2900763
7140,-0.9385223,-1.8243724,3.5888901,11.9770994,-116.5954208,-250.1374054,-0.7589580,0.1388630,11.2479019,5.5267177,-1.1908396,3.1221373
7150,-2.5593886,-2.0398495,4.0006905,22.2213745,-125.2977066,-250.1374054,-0.6584021,0.2657550,11.0779142,7.9236641,-0.9770992,2.4961832
7160,-4.5154414,-2.0494261,4.5417776,35.5038185,-137.4274750,-250.1374054,-0.5243275,0.4692611,10.9007444,9.3664122,-0.6412213,1.4656489
7170,-6.5002246,-2.2289903,4.5585365,48.1526718,-158.8854980,-250.1374054,-0.4261657,0.6392486,10.6900558,10.1145039,-1.0000000,-0.0763359
7180,-8.6142941,-2.1140692,4.4507980,57.7557259,-185.2137451,-250.1374054,-0.4692611,0.8331779,10.5918941,9.6030531,-1.8473282,-1.0916030
7190,-11.4226780,-2.2768741,3.6894460,61.7099228,-210.9694672,-250.1374054,-0.5386927,0.9864060,10.1776991,8.1374044,-2.5801528,-1.2595420
7200,-14.7434187,-2.1499822,3.2584918,58.4732819,-239.4045868,-204.3816833,-0.4046180,1.1204807,10.1322098,5.9160304,-3.5572519,-1.9847329
7210,-15.9692440,-1.7621235,3.3351059,50.4351158,-243.3282471,-132.7251892,-0.4979914,1.0558375,9.9574337,3.0610688,-3.4961832,-2.2213740
7220,-16.0195217,-1.3862357,3.6942344,41.8244286,-198.7633514,-50.6259537,-0.5123565,0.9888002,9.9095497,0.2900763,-3.9389312,-2.1603053
7230,-16.8455162,-1.6998745,3.0430148,28.4961834,-102.2366409,41.7938919,-0.6943150,0.9145803,9.9717989,-2.7633588,-4.4274807,-2.5267177
7240,-17.6451759,-2.6647329,2.4420733,2.7099237,28.4503822,148.2290039,-0.6871324,0.7493813,10.1992474,-5.0763359,-5.9312978,-2.8473282
7250,-18.5406036,-3.9791429,2.5234756,-29.5038166,158.1297760,250.1297760,-0.6823440,0.5386927,10.3883877,-6.3893127,-6.5648856,-3.2824428
7260,-17.3291435,-5.6143742,3.9552009,-55.2824440,234.9923706,250.1297760,-0.7421987,0.3160330,10.6804790,-7.0381680,-7.3206105,-4.6488547
7270,-15.1839495,-8.0325060,5.3462253,-69.2748108,250.1297760,250.1297760,-0.9073978,0.2059003,10.8720140,-6.7099237,-7.3740458,-5.8778625
7280,-9.5671806,-14.2789459,9.9813757,-73.4045792,250.1297760,250.1297760,-1.3335636,-0.0023942,11.1138277,-3.1526718,-7.8625956,-7.7786260
7290,-4.4077029,-19.1918221,13.3954897,-55.0687027,250.1297760,250.1297760,-1.5466464,-0.1316804,11.2095947,-0.7557252,-7.1755724,-6.0687022
7300,7.9415264,-19.6131992,15.0426922,-24.2595425,250.1297760,250.1297760,-1.6280488,-0.0814024,11.0539722,1.8091604,-5.9312978,-4.4122138
7310,19.6126022,-19.6131992,15.1217003,23.3969460,250.1297760,250.1297760,-1.6160779,-0.0143651,10.9701757,4.1374044,-3.6793892,-2.4045801
7320,19.6126022,-17.4727955,12.9908724,77.3740463,250.1297760,250.1297760,-1.5274929,0.1125269,10.7786407,6.5648856,-1.5725191,-0.1526718
7330,19.6126022,-2.9664006,10.5272512,85.6946564,250.1297760,250.1297760,-1.4197544,0.2106887,10.6397781,8.2748089,0.6106870,2.2442749
7340,19.6126022,2.6814921,8.5281029,47.9541969,244.1984711,250.1297760,-1.2832855,0.3351865,10.5057030,9.1908398,1.8549619,3.5038168
7350,19.6126022,1.2880739,8.5664101,35.9160309,99.2213745,69.6564865,-1.2210367,0.5841822,10.4506369,8.4274807,2.1526718,4.5038166
7360,19.6126022,-1.8914096,8.3581152,51.2061081,-64.0076370,-35.0076332,-1.1156923,0.6751614,10.3740225,7.1450381,0.2900763,4.7938933
7370,19.6126022,-2.0805507,7.5440907,66.5038147,-202.4885559,-60.1068687,-1.0199248,0.8283895,10.3883877,5.4045801,-1.0916030,5.4427481
7380,15.5287132,-0.7972651,6.7947097,75.7099228,-250.1374054,-38.2824440,-0.8020535,0.9002152,10.3452930,4.1450381,-2.4045801,4.9083967
7390,19.6126022,3.1842721,9.1769285,54.6564903,-115.7633591,8.0152674,-0.5746055,0.9576758,10.3572636,3.0992367,-3.7480917,4.4961834
7400,19.6126022,2.0805507,8.4179697,71.1603088,-84.8396912,-24.3206100,-0.3998296,0.9840119,10.4051476,2.0458016,-4.4503818,3.8091602
7410,13.4601336,2.1763182,4.0102673,101.9923630,-77.3893127,-31.5267181,-0.2130829,0.9026094,10.4099360,1.0458015,-5.0152674,2.5038168
7420,12.4234495,4.5920553,-2.2505381,62.6793900,44.1297722,18.2671757,-0.1628049,0.7398046,10.3788109,-1.6793894,-5.2977099,-0.3435115
7430,13.0339670,4.9104824,-2.9927368,25.7022896,74.9160309,9.4503813,-0.1843526,0.5841822,10.4745789,-2.5877862,-5.0000000,-2.5190840
7440,12.0355902,4.0868812,-2.7006457,-4.4732823,99.3816757,-7.9770994,-0.2873027,0.5243275,10.5559816,-3.2137403,-4.7480917,-4.1832061
7450,10.2758608,3.1675127,-1.2689204,-23.5114498,100.0457993,-17.6488552,-0.4836263,0.4836263,10.7283630,-3.4274809,-5.0229006,-5.9541984
7460,9.2750902,2.4444675,0.0383070,-33.5114517,78.9389343,-21.6870232,-0.6991033,0.3902529,10.7714586,-2.8320611,-4.8244276,-7.5877862
7470,9.3205795,1.9799947,1.2186425,-33.8702278,49.6946564,-24.9465656,-0.8451489,0.3375807,10.8361015,-2.0152671,-4.9312978,-7.9923663
7480,10.0101061,1.5179161,1.9776005,-29.3129768,19.0992374,-29.0000000,-0.9840119,0.3112446,10.9390516,-0.9541985,-4.3129773,-8.1908398
7490,11.1760759,1.4604555,2.2601149,-25.3893127,-4.3740458,-32.7480927,-1.1923064,0.3399749,10.7762470,0.1984733,-3.8702290,-8.1908398
7500,12.6006193,1.4652439,2.6982515,-25.1908398,-18.5190830,-36.0381660,-1.3527170,0.3208214,10.7690639,1.3129771,-3.1908398,-7.2442746
7510,13.9341822,1.6041069,3.2872221,-28.1145039,-22.5648861,-39.5725174,-1.4939742,0.4022238,10.6349897,2.2290077,-2.6030533,-5.8244276
7520,15.5335016,1.7118455,4.2377152,-32.9923668,-18.1374054,-47.3587799,-1.4484847,0.4141948,10.6038647,2.4809160,-2.1068702,-4.6183205
7530,17.4680061,1.8938038,5.2552457,-35.5725174,-8.7862597,-60.4732819,-1.5346755,0.4357425,10.5104914,2.6564887,-1.9236641,-3.1603053
7540,18.2293587,1.7645177,5.9974446,-35.2748108,6.6183205,-76.6183243,-1.4245427,0.5075682,10.4458485,2.1908398,-2.2061069,-2.6946564
7550,18.2676659,1.5705882,7.0915890,-31.4580154,26.4809170,-91.6564865,-1.3622938,0.4955972,10.4697905,1.2977099,-3.2977099,-0.5343512
7560,18.0857067,1.0893562,7.6326761,-23.8625946,41.2290077,-102.5801544,-1.2880739,0.5027798,10.5344334,0.3358779,-4.0381680,0.1755725
7570,18.0689487,0.7374104,7.9654684,-13.0381680,48.1679382,-110.6641235,-1.1539993,0.4932030,10.4626083,-0.4656489,-4.2137403,0.0687023
7580,18.4544125,0.5722113,8.0301113,-0.0992366,49.7022896,-119.2748108,-1.0486550,0.5410868,10.6134415,-0.4732825,-4.3511453,0.7328244
7590,19.6126022,0.8116302,7.8840661,12.5954199,50.4427490,-132.8091583,-0.8978211,0.5075682,10.6732969,-0.1603053,-4.9847326,0.8396947
7600,19.6126022,1.3790531,7.7092900,25.0458012,50.6412201,-157.4198456,-0.7733232,0.6177009,10.7906122,0.2366412,-5.7022901,1.1297710
7610,19.6126022,1.5370697,7.3501616,37.7480927,47.6946564,-192.8549652,-0.5698171,0.6057299,10.8289185,0.7175573,-5.4961834,0.5954198
7620,19.6126022,1.2449785,7.0269461,51.2137413,35.7557259,-235.1374054,-0.3615226,0.6392486,10.7403336,1.0229008,-4.8549619,0.0992366
7630,19.6126022,0.5554519,6.9718795,65.9847336,7.6564884,-250.1374054,-0.1604107,0.6440369,10.7475166,1.9770992,-3.4580152,-1.5801526
7640,19.3618107,-0.1508339,6.3589673,78.2977066,-11.5190840,-250.1374054,-0.0766141,0.6177009,10.6373835,2.6030533,-2.0076337,-3.7328243
7650,17.0107155,-1.0031654,5.2169390,85.7022934,-21.5801525,-250.1374054,-0.1197095,0.5961532,10.5847120,2.7404580,-2.4732823,-6.0458016
7660,15.0474806,-1.6591733,3.8450682,83.6412201,-34.0458031,-250.1374054,-0.1221037,0.5051740,10.5751352,2.0076337,-2.2900763,-8.9618320
7670,12.0810804,-2.2960277,3.0765336,71.3282471,-49.4274826,-250.1374054,-0.4453192,0.6009415,10.3907824,1.3206106,-1.8244275,-10.1450386
7680,8.8034344,-3.2872221,3.0262554,56.5954208,-75.5114517,-250.1374054,-0.6224893,0.5793939,10.3428984,0.3816794,-1.4580153,-11.7251911
7690,6.9455438,-4.1012464,3.8714044,48.4809151,-122.6183243,-250.1374054,-0.7996593,0.5961532,10.4338779,-0.5496183,-2.1068702,-12.5190840
7700,5.4683285,-4.6854286,4.5537481,47.1297722,-169.3740387,-250.1374054,-0.7637464,0.5913648,10.3835993,-1.4809160,-2.0916030,-13.3358774
7710,3.6295912,-5.1451130,4.6997938,44.9236641,-208.3129730,-250.1374054,-1.0031654,0.5003856,10.5080976,-1.8931298,-2.4122138,-13.2519083
7720,2.1523764,-5.5353661,5.0517397,38.3129768,-231.1908417,-250.1374054,-1.0893562,0.5530578,10.5057030,-2.3664122,-2.5419848,-13.6335878
7730,0.4333483,-5.9232249,5.7460546,29.9923668,-239.5801544,-250.1374054,-1.2162483,0.4716553,10.7116032,-2.6488550,-2.6412213,-12.8167934
7740,-1.0869620,-6.2895355,6.4499464,23.6030540,-233.5877838,-250.1374054,-1.3335636,0.4668669,10.6038647,-2.6412213,-3.1526718,-11.9389315
7750,-2.3582766,-6.3230543,6.5145893,18.7938938,-212.2748108,-250.1374054,-1.3694763,0.4740495,10.6325951,-2.4198472,-2.7404580,-10.5038166
7760,-3.9623835,-6.2344694,6.5265603,13.1526718,-185.7557220,-250.1374054,-1.4053892,0.5099624,10.7451220,-1.9465649,-3.2137403,-9.0229006
7770,-6.0764527,-5.9950504,7.1131368,8.2900763,-159.6106873,-250.1374054,-1.4197544,0.4094064,10.6732969,-1.1984733,-3.1068702,-7.8549619
7780,-9.0500364,-5.8561873,8.1139078,9.3206110,-139.9770966,-250.1374054,-1.3646880,0.4644727,10.8097658,-0.1603053,-2.0534351,-6.5114503
7790,-12.3492289,-5.5736732,9.4642305,22.5419846,-131.3435059,-250.1374054,-1.3287752,0.3974355,10.7690639,1.0152671,-0.7251908,-4.4732823
7800,-14.5494890,-5.0421629,9.2798786,42.8778610,-124.2671738,-250.1374054,-1.3000449,0.4285599,10.6661139,1.8015267,-0.2748092,-3.2748091
7810,-15.4377337,-4.4603748,8.5065556,60.8320618,-121.6717529,-230.5572510,-1.2569494,0.4046180,10.8289185,2.3206108,-0.7251908,-2.6793892
7820,-14.9756546,-3.8019729,7.0221577,72.0381699,-118.0610657,-172.9694672,-1.1444225,0.4668669,10.7355452,2.7175572,-1.3129771,-2.8549619
7830,-13.8001080,-3.0478032,5.5066357,74.5114517,-115.2366409,-121.0229034,-1.0941446,0.3998296,10.5942879,2.8396947,-2.1832061,-2.3511450
7840,-12.0667152,-2.4588325,4.4053087,70.4351120,-106.9465637,-81.0687027,-1.1228749,0.4716553,10.6756907,3.1221373,-3.1068702,-1.6259542
7850,-10.4889441,-2.1092808,3.3662305,63.3053436,-91.7175598,-51.5648842,-1.1085097,0.4955972,10.8528605,3.6870229,-3.1145039,-1.2290076
7860,-9.5145092,-2.0685797,2.9017577,54.3664131,-76.5267181,-25.6717548,-1.2306134,0.5195391,10.6685085,3.9618320,-2.3664122,-0.3129771
7870,-8.7627335,-2.0637913,2.4348907,45.9007645,-51.9923668,-0.1297710,-1.1827296,0.5434810,10.5655584,4.8473282,-0.6335878,1.4961832
7880,-8.8130112,-2.0973101,2.1691356,36.1755714,-21.9923668,26.2977104,-1.2569494,0.6081241,10.5248566,5.5343513,2.2213740,3.1832061
7890,-9.1936874,-2.3056045,1.7764885,23.9312973,5.6030536,58.5267181,-1.3311694,0.6679789,10.4123297,5.9465647,6.0992365,5.6030536
7900,-9.8664551,-2.4229198,1.0941446,8.5725193,34.7480927,97.5648880,-1.2904681,0.7493813,10.3452930,5.8167939,8.5114508,7.2519083
7910,-10.9701757,-2.7365584,0.1460456,-14.4351149,81.5496216,148.1984711,-1.2569494,0.7805058,10.2758608,4.6030536,9.8167934,8.7557249
7920,-12.7418766,-3.3662305,-0.5243275,-46.8854980,147.6564941,215.2366486,-1.1444225,0.8882443,10.1346035,3.5419848,10.8931293,10.4580154
7930,-16.6946831,-4.6040263,-1.1875180,-91.8015289,224.6564941,250.1297760,-1.2042773,0.8834559,10.1561518,1.6259542,9.6412210,10.4885492
7940,-19.6131992,-6.7516141,0.5386927,-145.4427490,250.1297760,250.1297760,-1.1156923,0.9002152,10.1824875,-0.5114504,6.2595420,10.4274807
7950,-19.6131992,-9.2367830,3.2369442,-187.1603088,250.1297760,250.1297760,-1.0678085,0.8595140,10.2279778,-2.3969467,2.5572519,8.7328243
7960,-19.6131992,-12.7059631,6.1626434,-210.5038147,250.1297760,250.1297760,-1.0510491,0.8116302,10.1034794,-4.8625956,0.0687023,7.4274807
7970,-19.6131992,-19.4887028,9.7970228,-214.2824402,231.7328186,250.1297760,-1.0917504,0.7469871,10.1417866,-6.4351144,0.8320611,6.9694657
7980,-19.5341911,-19.6131992,13.4409800,-185.9465637,172.3435059,250.1297760,-1.0007712,0.7110743,9.8736372,-7.5190840,5.3282442,7.0076337
7990,1.0606259,-19.6131992,12.9118633,-149.5343475,167.3053436,250.1297760,-1.2282192,0.6464311,9.8425131,-8.5648851,9.9083967,8.8778629
8000,19.6126022,-19.6131992,10.4769726,-142.1450348,221.9084015,250.1297760,-1.3718705,0.5195391,9.8568783,-10.3969469,13.3587790,10.6793890
8010,19.6126022,-19.6131992,12.0523500,-158.0076294,178.2824402,250.1297760,-1.3575054,0.4333483,9.8784256,-13.0458012,16.0992374,12.2595415
8020,19.6126022,-18.2389355,19.6126022,-82.7862625,-28.6412220,250.1297760,-1.4413021,0.2849085,9.9789820,-15.9312973,19.7175579,13.3664122
8030,19.6126022,11.9972830,19.6126022,73.2519073,-21.0992374,250.1297760,-1.5897418,0.2729376,10.2662840,-17.5877857,20.0152664,13.4885492
8040,19.6126022,5.8322453,11.3293047,102.7404556,74.3740463,-177.6793823,-1.6519908,0.1412572,10.6421719,-18.5954189,18.7175579,14.2824430
8050,19.6126022,-1.9656296,4.8218975,57.5343513,26.8396950,-250.1374054,-1.6136837,0.0000000,10.9989061,-18.4274807,17.1908398,14.1145039
8060,1.5921360,-4.2065907,8.2791071,45.2748108,-141.0610657,-250.1374054,-1.5586174,0.0670373,11.2383251,-17.6946564,15.0076332,12.5572519
8070,-3.1962428,-0.5075682,9.6174593,68.4656525,-231.3740387,-89.4274826,-1.4556671,0.1197095,11.5735121,-13.9694653,10.0381680,10.5877867
8080,5.1020179,3.6439564,5.5640965,72.6641235,-141.1297760,60.6030540,-1.4053892,0.1005560,11.9063044,-8.8320608,4.5954199,8.3435116
8090,13.8144732,6.6414814,2.4133430,40.8778610,12.1832066,127.3358765,-1.0558375,0.2657550,11.9685535,-3.2213740,-0.5572519,6.5725193
8100,17.8941727,8.3748751,1.9823889,3.7709923,140.1832123,120.1526718,-0.8451489,0.4908088,11.6261835,1.9007634,-2.3664122,3.3358779
8110,16.3355541,7.5704269,3.3925664,-9.7328243,189.1984711,84.0763321,-0.7014975,0.4908088,11.2095947,5.7251906,-1.0229008,1.6870229
8120,13.0579090,6.1794028,4.1204000,-0.0534351,148.4198456,45.9083977,-0.5793939,0.6512195,10.8887739,8.3816795,1.6870229,-0.1068702
8130,9.8616667,4.8649931,4.5274124,20.7404575,66.3511429,15.4274807,-0.4692611,0.7829000,10.3620520,9.0076332,5.1832061,-0.9007633
8140,7.5919747,3.8642218,4.2640514,42.7557259,-6.0000000,0.3511450,-0.3471575,0.7230452,10.1920643,8.3587790,9.8778629,-2.7099237
8150,4.9966736,2.8179610,1.9512644,63.1603050,-67.4274826,9.5572519,-0.7278336,0.6607963,9.9071560,4.4122138,19.2671757,-5.4198475
8160,5.1834202,2.6048782,1.3862357,60.1297722,-59.2061081,24.4503822,-0.9935886,0.5291159,10.0819321,1.8091604,19.2137413,-6.8549619
8170,6.0142040,2.4612267,0.9480990,50.8549614,-34.1984749,39.3664131,-1.5011568,0.4644727,10.3524752,-0.3129771,13.9770994,-8.9160309
8180,7.8242111,2.4157372,-0.0335187,18.7022896,43.1832047,59.5419846,-2.0853391,0.2537841,10.7235746,-1.8091604,1.2977099,-11.0534353
8190,7.6973190,2.1930776,-0.0359128,-2.1679389,66.2442780,64.5954208,-2.3032103,0.2513899,10.7259684,-1.0229008,-1.4656489,-11.3511448
8200,7.3956513,1.7022687,0.5051740,-22.6183205,72.1984711,68.2977066,-2.4037662,0.2202654,10.5487986,-0.2977099,-2.0000000,-8.7633591
8210,7.3812861,1.4987626,1.2904681,-37.4503822,63.2900772,68.7099228,-2.6814921,0.2442073,10.2734671,0.2137405,-1.1908396,-5.1450381
8220,7.9319496,1.2641320,3.0501974,-57.4656487,36.9465637,62.6259537,-1.7740943,-0.1675933,9.3229742,0.2595420,56.9389305,-10.9923668
8230,7.6901364,1.1492109,5.3845320,-68.0152664,14.4427481,72.5496216,-3.3135581,0.5985473,9.6437950,-13.9770994,30.4122143,3.8473282
8240,9.3325500,1.2018831,5.8418221,-72.4198456,20.1450386,83.6488571,-3.8522508,0.8427547,10.5176744,-20.3816795,6.0839696,8.1450386
8250,11.2766323,1.8028246,5.9016771,-81.5267181,44.7709923,98.2213745,-3.1363883,0.5722113,10.9031391,-25.4198475,-13.7633591,9.3511448
8260,15.4113979,0.6033357,6.9072366,-88.7938919,105.6335907,105.1755753,-2.7988074,0.2681492,10.9151096,-23.6412220,-16.5190830,8.4122133
8270,16.3427372,-1.2066715,9.9287033,-97.0610657,140.8625946,103.4427490,-2.5809362,0.3064562,10.8911676,-18.3511448,-12.9694653,10.2290077
8280,19.3522339,-1.6926919,12.1074162,-116.4274826,77.4351120,90.9083939,-2.6575503,0.3854645,10.9007444,-13.6335878,-6.9847326,13.9465647
8290,19.6126022,-0.3926471,13.9509420,-102.5038147,84.7404556,62.0152664,-2.5737536,0.3615226,10.7259684,-10.0152674,-5.1221375,19.3435116
8300,19.6126022,-1.2521610,15.7992563,-64.8396912,100.6259537,10.2442751,-2.2194135,0.3519458,10.6637201,-8.0839691,-4.3664122,21.3053436
8310,19.6126022,-2.4109488,16.6396160,-9.8778629,97.7786255,-63.7099228,-1.8938038,0.3567342,10.5727406,-7.8320613,-4.9465647,22.2900772
8320,19.6126022,-2.8203552,15.6891232,52.5038185,80.5190811,-148.6030579,-1.4987626,0.3351865,10.5631638,-8.1145039,-6.4274807,21.4580154
8330,19.6126022,-2.5857246,12.8256731,88.6488571,29.6870232,-221.7557220,-1.1252691,0.3064562,10.4386663,-7.5267177,-6.4809160,18.9923668
8340,19.6126022,-2.6192431,10.2902260,93.9007645,-45.5877876,-250.1374054,-0.6751614,0.1364688,10.3213511,-6.4503818,-6.5038166,15.5954199
8350,19.2253418,-2.8490853,9.5983057,85.9923630,-124.7404556,-250.1374054,-0.4381367,0.0742199,10.2351599,-5.6106873,-5.6870227,10.3893127
8360,18.0785236,-3.6702924,9.7898407,81.4274826,-183.0000000,-250.1374054,-0.3040621,0.1101327,10.0364418,-6.4885497,-4.8473282,5.5267177
8370,16.5151196,-3.9456241,10.2447367,84.8625946,-219.3282471,-250.1374054,-0.3998296,0.1149211,9.8616667,-8.8778629,-1.9236641,-0.3816794
8380,14.8272152,-4.2209558,9.7539282,91.2442780,-230.2137451,-250.1374054,-0.7062859,0.0885850,9.6102762,-8.7786255,29.4351139,-8.7251911
8390,12.7155399,-4.3263001,9.1386213,94.6106873,-231.1068726,-250.1374054,-1.7549409,0.5769997,10.0077124,-11.9847326,22.5419846,-7.7633586
8400,10.8073711,-4.4316444,8.3269911,96.4656525,-226.5343475,-250.1374054,-2.4755919,0.3663110,10.2543135,-16.3587780,12.0916033,-2.7404580
8410,8.4945841,-4.7716198,7.0772243,95.9312973,-205.4351196,-250.1374054,-2.7102225,0.0646431,10.5128860,-19.8091602,-0.0610687,1.0610687
8420,5.7556314,-4.8769641,5.9758968,92.2213745,-179.6259613,-250.1374054,-2.6312141,0.0191535,10.9462337,-22.4427490,0.3587786,2.6335878
8430,3.4308734,-4.9847026,5.3869262,88.4580154,-162.9160309,-250.1374054,-2.7006457,-0.0239419,11.3771887,-20.8091602,2.9694657,3.4503818
8440,1.0055596,-4.8841467,4.7021880,84.4198456,-153.0381622,-250.1374054,-2.9113343,-0.1795642,11.5639353,-15.3511448,2.9007633,4.4961834
8450,-0.8403605,-4.5226240,4.9392128,81.1603088,-155.8473358,-250.1374054,-2.8107784,-0.1604107,11.7171631,-8.0458012,4.9312978,5.4198475
8460,-2.6910689,-4.0102673,4.5441718,79.4427490,-158.0839691,-250.1374054,-2.7676830,-0.1412572,11.4442253,-0.0152672,7.5267177,6.2213740
8470,-3.9815371,-3.1770895,4.0988522,76.1221390,-156.8473358,-250.1374054,-2.8155668,-0.1532281,11.2263546,6.9618320,6.3282442,6.3893127
8480,-4.8218975,-2.3295465,4.0964580,70.1603088,-163.3893127,-250.1374054,-2.5809362,-0.0694315,10.6924505,10.5801525,4.0763359,6.0152674
8490,-5.3294659,-1.7070571,4.5010762,65.7404556,-172.9465637,-250.1374054,-2.3391230,0.0239419,10.3261395,10.9465647,1.7175573,5.0610685
8500,-6.1363077,-1.3527170,4.2616572,64.0992355,-173.4885559,-250.1374054,-2.2026544,0.0383070,10.0005293,8.8931293,0.8244275,4.3664122
8510,-6.9024482,-0.8188128,3.6607156,59.0458031,-174.4198456,-250.1374054,-2.2146254,0.1101327,9.9143381,6.0916033,0.1832061,3.3969467
8520,-7.3932571,-0.4501076,3.7373297,51.5648842,-174.7633514,-250.1374054,-2.1068866,0.1436514,9.8401184,4.0229006,0.5190840,2.9694657
8530,-8.0396881,-0.0023942,3.9025288,46.6335869,-164.5038147,-250.1374054,-2.0685797,0.1675933,10.0077124,1.9618320,0.2671756,4.1374044
8540,-8.5472565,0.6536137,3.6894460,42.3664131,-144.2290039,-217.0152740,-1.9297167,0.1508339,10.1178446,0.3206107,-0.5114504,3.9923663
8550,-8.8465300,1.3503228,3.5864959,36.7099228,-112.5572510,-177.4198456,-1.7740943,0.1867468,10.2064295,-1.0916030,-0.1908397,2.8091602
8560,-9.5240860,1.7238164,3.2130022,29.7633591,-78.6335907,-134.4274750,-1.7405758,0.1053443,10.3476868,-2.1374047,-1.1297710,0.3053435
8570,-9.8856087,2.2170193,3.1675127,24.0381680,-47.5267181,-87.7633591,-1.6926919,0.1388630,10.5009146,-2.5114503,-2.0305343,-1.7709924
8580,-10.0962973,2.4875629,3.1172347,19.3435116,-16.1221371,-40.7938919,-1.7022687,0.0407012,10.5535870,-2.1221373,-2.7251909,-3.9923663
8590,-10.2255831,2.7389526,2.9280937,14.5954199,15.8244276,7.2900763,-1.7645177,-0.0454896,10.5583754,-1.3893130,-2.2519083,-5.4503818
8600,-10.5033092,2.9759774,2.7293761,10.5114508,44.5114517,55.8549614,-2.0087249,-0.0239419,10.6397781,0.3587786,-2.1450381,-6.8244276
8610,-10.8073711,2.8754215,2.2505381,7.9236641,68.1755753,105.6106873,-2.2816625,0.0095768,10.6206245,1.2900764,-2.5801528,-6.9541984
8620,-10.8456783,2.5234756,1.6735384,3.5267177,82.9618301,158.9618378,-2.5234756,-0.0119709,10.6565371,2.6106870,-3.2900763,-5.6793895
8630,-10.5440102,1.9464760,0.9864060,-7.1603055,102.2900772,215.0610657,-2.5474176,-0.0861908,10.8049774,4.8396945,-2.6946564,-4.2748094
8640,-10.4266949,1.0582317,0.0502780,-25.6030540,133.9618378,250.1297760,-2.4324965,-0.2442073,11.2263546,8.6870232,-1.2824427,-2.4122138
8650,-10.9246864,-0.6919208,-0.3663110,-49.5877876,173.0458069,250.1297760,-2.4085546,-0.4309541,11.4825325,15.0076332,0.7709923,-0.7328244
8660,-11.7746239,-2.2625091,0.0814024,-80.0305328,207.7862549,250.1297760,-2.3079987,-0.4070122,11.6477318,22.3587780,3.3435113,-0.1526718
8670,-12.2893744,-4.5944495,1.3694763,-113.0229034,247.5954132,250.1297760,-2.4827745,-0.3280039,11.7171631,29.8625946,5.5114503,0.4274809
8680,-12.9022865,-8.3581152,3.7971845,-142.6793823,250.1297760,250.1297760,-2.5498118,-0.1508339,11.3652172,36.7938919,6.5038166,1.0916030
8690,-10.6373835,-13.7282820,7.8816719,-159.2442780,250.1297760,250.1297760,-2.6838863,-0.0311245,11.1784706,41.5419846,6.1679387,2.3664122
8700,-5.5090299,-19.4671535,11.2072010,-159.1832123,250.1297760,250.1297760,-2.5881188,0.1604107,10.7786407,43.8244286,5.1145039,1.9007634
8710,4.9368186,-19.6131992,12.8160963,-156.5572510,250.1297760,250.1297760,-2.5426292,0.3543400,10.2758608,44.2748108,4.1908398,2.6183207
8720,19.6126022,-19.6131992,12.4354200,-173.5190887,250.1297760,250.1297760,-2.6120608,0.5410868,9.9478569,42.4656487,4.3511453,3.1526718
8730,19.6126022,-19.6131992,17.1064835,-193.0534363,250.1297760,250.1297760,-2.5498118,0.7374104,9.6773138,39.5725174,5.0763359,4.6870227
8740,19.6126022,-15.8327751,19.6126022,-147.7022858,250.1297760,250.1297760,-2.5498118,0.8978211,9.5599985,36.4809151,7.2824426,5.2442746
8750,19.6126022,-8.0899658,19.6126022,-18.7404575,203.6793823,250.1297760,-2.6264257,0.9050036,9.5887289,33.8015251,8.4732828,6.9236641
8760,19.6126022,-3.5434003,19.6126022,137.7862549,124.9236679,234.4809113,-2.5641768,0.9792235,9.5025377,30.7633591,10.4198475,7.4580154
