timestamp,rxacclX,rxacclY,rxacclZ,rxgyroX,rxgyroY,rxgyroZ,txacclX,txacclY,txacclZ,txgyroX,txgyroY,txgyroZ
0,0.3878587,1.5705882,9.5647869,-1.3740458,4.0916033,0.8320611,-1.3287752,1.2282192,10.6924505,-0.0305344,-30.7480907,1.8244275
10,0.7086801,1.9488702,9.7587166,-3.8167939,1.6641221,3.7862597,-1.1492109,1.2138541,10.9821472,1.3282443,-40.5725174,-1.5038168
20,1.3144100,2.1451938,9.9550400,-4.1145039,-4.1068702,-0.0916031,-1.3766589,1.2521610,11.3939476,3.2061069,-47.9389305,-1.8778626
30,1.9440818,1.9656296,9.8951855,-4.4122138,-3.5496182,-8.1755724,-1.1300575,1.1563935,11.1569233,2.3282442,-61.2213745,-1.4732825
40,1.6424140,2.1427996,9.8329363,-6.6488547,-9.1068707,-15.8396950,-0.6224893,1.0223188,10.6685085,3.8244274,-58.7862587,-4.7557254
50,1.8674678,2.3486998,10.0436249,-11.9083967,-22.9923668,-23.3358784,-0.5099624,1.0318956,10.6852674,5.4961834,-54.9541969,-8.3358774
60,1.8818330,2.3654592,10.3907824,-19.4580154,-45.6106873,-33.2671738,-0.4429250,1.0558375,10.6852674,6.8625956,-61.7938919,-10.9007635
70,1.1707586,2.2936335,10.9151096,-22.7862587,-81.9083939,-41.2977104,-0.1364688,0.9935886,10.6038647,7.1297708,-69.9465637,-14.9923668
80,1.3407460,1.9440818,11.0276365,-23.4122143,-122.7251892,-43.4427490,-0.1197095,1.0295014,10.6134415,6.0381680,-69.6183243,-19.6946564
90,2.4205256,2.4037662,12.4833040,-24.6488552,-174.2519073,-45.8320618,-0.1532281,1.1372399,10.4123297,4.4274807,-68.4809189,-23.6106873
100,4.5609307,2.4301023,15.6699696,-25.2366409,-220.8625946,-56.1679382,-0.2777260,1.2928623,10.4578199,3.4198472,-68.3587799,-23.4503822
110,8.6454182,0.2873027,15.4904060,-18.7022896,-206.3511505,-73.3740463,-0.2944853,1.3503228,10.5392218,3.2061069,-65.0687027,-22.2213745
120,7.3573442,2.3654592,18.3897686,-26.9312973,-207.3664093,-86.7786255,-0.7302278,1.4820032,11.0372133,4.2366414,-76.9542007,-20.5114498
130,10.4219065,2.3486998,19.6126022,-24.1297703,-225.1984711,-103.7633591,-0.5434810,1.3503228,11.1784706,4.1450381,-90.5954208,-19.0076332
140,13.7665892,-0.1149211,19.6126022,9.1832066,-165.8473358,-138.3435059,-0.3615226,1.3096216,11.2598734,2.6335878,-100.3053436,-17.9847336
150,14.1376886,-0.4644727,19.6126022,48.1297722,-119.8702316,-171.2137451,-0.0694315,1.3359578,11.2838144,1.4503816,-110.6870193,-19.2977104
160,13.0435438,-1.2497669,19.6126022,103.1068726,-80.6946564,-214.5114441,0.3902529,1.2210367,11.0850973,0.7022901,-120.0381699,-21.7633591
170,8.3700867,-1.2282192,19.6126022,155.8473358,-94.5190811,-248.6641235,0.7469871,1.1731528,10.5966825,0.8931298,-120.4351120,-24.1679382
180,7.1418672,-2.1044924,18.6483421,201.0915985,-139.4732819,-250.1374054,0.9097920,1.1539993,10.4003592,0.5114504,-119.9465637,-27.0610695
190,6.4140334,-1.6567791,16.1847210,233.2824402,-182.7862549,-250.1374054,1.0199248,1.3479286,10.0723553,-0.4274809,-114.6183243,-28.0763359
200,7.3860745,-1.4436963,14.0730457,250.1297760,-218.4961853,-250.1374054,1.1803354,1.3479286,9.9670105,-1.6412214,-106.8854980,-27.4274807
210,7.7595682,-1.3072275,12.0379848,250.1297760,-240.8167877,-250.1374054,1.1994889,1.3982066,9.9622221,-3.0000000,-93.8702316,-26.0610695
220,6.6103573,-1.2138541,10.7594872,250.1297760,-239.1526642,-250.1374054,1.2497669,1.5155219,10.0555954,-3.4580152,-79.4732819,-23.6412220
230,5.2265158,-1.2856797,9.5360565,250.1297760,-224.1526642,-250.1374054,1.1563935,1.4867916,10.1633339,-3.1908398,-66.2977066,-19.3587780
240,4.5681133,-1.3383518,8.5257082,248.2442780,-205.1755676,-250.1374054,1.0773853,1.5418580,10.1705170,-2.0839694,-53.6106873,-14.6259546
250,3.4404502,-1.4891858,7.0317345,242.7557220,-189.8473358,-250.1374054,1.0510491,1.5753766,10.2710724,-0.1374046,-40.6488533,-9.5343513
260,2.4444675,-1.7669119,5.3270717,233.4122162,-188.4809113,-250.1374054,1.3263810,1.5298871,10.1058741,1.6106870,-25.9236641,-4.8320613
270,1.3359578,-1.7932479,4.3478479,218.9770966,-195.5954132,-250.1374054,1.6160779,1.5059452,9.9789820,3.1221373,-9.6030531,-1.8854961
280,0.2418131,-1.6136837,4.2065907,204.4274750,-200.5496216,-250.1374054,1.8698620,1.3479286,9.7802639,3.7938931,4.7175574,-0.9236641
290,-1.3144100,-1.5562232,4.1227942,192.5190887,-200.6717529,-250.1374054,2.0542145,1.3790531,9.7251978,4.3206105,17.7938938,-1.4122137
300,-2.1667414,-1.8147956,4.5848727,181.3587799,-192.8931274,-250.1374054,2.0805507,1.3287752,9.5959110,4.2137403,28.8167934,-3.0229008
310,-3.6631098,-1.4389079,4.3717899,172.1145020,-189.8549652,-250.1374054,2.1547706,1.1947005,10.0436249,2.4503818,22.4045811,-5.5267177
320,-4.6878228,-1.1827296,4.3023586,163.8244324,-184.6641235,-250.1374054,2.4708035,1.2737088,10.2686787,-1.7175573,2.0992367,-10.5038166
330,-5.6957769,-0.6943150,4.3789725,158.1145020,-182.4732819,-250.1374054,2.5665710,1.3168042,10.6852674,-7.2671757,-14.3053436,-17.1984730
340,-6.4116392,-0.1125269,3.9384418,150.9313049,-187.1755676,-250.1374054,2.3175755,1.3527170,11.1593170,-11.8931293,-29.6793900,-22.2824421
350,-7.0844064,0.2705434,3.4356618,141.0000000,-190.7862549,-249.2061005,2.0015423,1.2641320,11.5902710,-11.6717558,-43.8549614,-22.9694653
360,-7.6422529,0.6943150,2.7964132,129.1984711,-190.9541931,-225.5038147,1.9225341,1.2018831,11.7315283,-8.1755724,-49.5877876,-22.6106873
370,-7.8792777,1.0342898,2.6312141,115.5496216,-187.2137451,-198.6641235,2.0709739,1.1611819,11.4968977,-1.9007634,-45.3893127,-21.9541988
380,-7.9175844,0.9911944,2.3941894,99.1603088,-176.0610657,-171.7557220,1.9632354,1.1492109,11.3125448,5.0992365,-35.8473282,-20.7786255
390,-8.3820572,1.2521610,1.6232605,80.5114517,-145.7022858,-142.5572510,1.8100072,1.2354017,11.0491848,10.9847326,-24.7099228,-19.8473282
400,-8.7890692,1.4939742,1.3910241,56.3893127,-119.1526718,-112.6488571,1.4915800,1.3072275,10.5176744,15.2519083,-13.8854961,-17.0000000
410,-8.5185261,1.6041069,2.1140692,36.4351158,-99.2442780,-84.4732819,1.2330076,1.5490406,10.0675669,16.8931293,-4.3740458,-12.6488552
420,-8.7531567,1.4173602,2.9352763,25.2900772,-76.1908417,-57.9465637,1.1037214,1.7142396,9.6725254,15.1221371,3.0763359,-8.0229006
430,-9.2846670,1.1994889,3.0478032,15.7938929,-48.9236641,-28.6641216,1.0702027,1.7357874,9.3660688,11.3816795,8.4503813,-3.0381680
440,-9.6078825,1.0007712,2.9640064,6.6106873,-25.3969460,2.1145039,1.0678085,1.7501525,9.1386213,6.0000000,13.7786255,0.8625954
450,-9.7491398,0.7469871,2.8203552,-2.4122138,-4.2442746,34.9618340,1.0654143,1.8291607,8.9997578,-0.0152672,17.2061062,3.7633588
460,-10.9653873,0.2154770,1.6831152,-30.3129768,69.0305328,119.9083939,1.6232605,1.3694763,9.3828287,-12.1526718,17.3282452,5.8244276
470,-10.7403336,0.2729376,1.3718705,-54.3206100,129.6793823,167.8549652,2.1906834,1.3000449,9.6653433,-18.3511448,10.0610685,1.2519084
480,-12.4617558,-0.1819584,0.5889706,-84.2442780,201.6259613,223.3740387,2.3582766,1.3168042,10.0962973,-24.8167934,-3.2137403,-3.9618320
490,-14.3172531,-0.6296718,0.1101327,-121.0610657,250.1297760,250.1297760,2.3989778,1.3431402,10.4602137,-31.4809170,-17.2213745,-8.9083967
500,-16.2541523,-1.3072275,-0.0790083,-166.0305328,250.1297760,250.1297760,2.4061604,1.2330076,10.7163916,-36.7480927,-31.2442741,-13.9083967
510,-18.6363716,-2.7317703,-0.5913648,-217.0915985,250.1297760,250.1297760,2.3415172,1.2354017,11.0443964,-39.8549614,-45.2137413,-16.0839691
520,-19.6131992,-4.8147149,0.4046180,-250.1374054,250.1297760,250.1297760,2.5115047,1.1013272,11.1234045,-39.0381660,-54.1374054,-17.4885502
530,-19.6131992,-8.2216463,2.0135133,-250.1374054,250.1297760,250.1297760,2.4301023,0.8834559,11.7267399,-33.4198456,-52.9694672,-17.1374054
540,-19.0122585,-14.5830078,4.3789725,-250.1374054,250.1297760,250.1297760,2.2696917,0.9289455,12.0691090,-21.9694653,-39.5954208,-14.8778629
550,-13.4385853,-19.6131992,6.8306227,-250.1374054,156.9847260,250.1297760,1.9392935,0.7493813,12.1600885,-7.7557254,-23.7938938,-10.2748089
560,-2.4492557,-19.6131992,10.1992474,-250.1374054,47.1755714,250.1297760,1.8626794,0.8882443,11.9398232,6.4427481,-6.5419846,-5.0534353
570,17.9564209,-19.6131992,16.6707420,-207.4732819,-33.5038185,250.1297760,1.7908537,0.9169745,11.5136566,17.2519093,7.0916033,-0.3664122
580,19.6126022,-19.6131992,19.6126022,-107.9694672,-3.3053436,250.1297760,1.6615674,1.0079538,11.2838144,24.0381680,6.0763359,2.7022901
590,19.6126022,-19.6131992,19.6126022,14.7709923,-19.1221371,250.1297760,1.8578910,1.0510491,10.9605989,24.9923668,-11.4809160,3.2671757
600,19.6126022,3.7421181,19.6126022,152.2671814,-5.3740458,250.1297760,2.1691356,0.9050036,10.4410601,21.3816795,-23.4122143,-0.4351145
610,19.6126022,2.2337787,13.0914278,206.7022858,7.0916033,-115.5877838,2.4396791,1.0821736,10.0651722,16.0381680,-32.4122124,-5.2824426
620,19.6126022,0.2322364,-1.1516051,148.1908417,-17.7786255,-249.4198456,2.4516499,1.2569494,9.8808203,10.4732828,-38.2519073,-8.2213745
630,10.4697905,0.5171449,-0.8714849,19.4809170,-36.1526718,-222.1297760,2.5282640,1.1947005,9.8784256,5.9083967,-40.7557259,-10.5190840
640,7.0101867,-1.9153515,7.9175844,-46.0839691,-1.8396946,-145.7175598,2.4947455,1.2114599,9.7635050,2.4809160,-37.9465637,-11.0229006
650,4.5824785,-0.4955972,11.6597023,-29.1374054,49.7328262,-57.4198456,2.4037662,1.2449785,9.8377247,0.5572519,-31.4809170,-10.5267172
660,8.4036045,3.9791429,8.1306677,15.3893127,113.6259537,48.4427490,2.3654592,1.3910241,9.6629486,-1.2900764,-18.7251911,-6.9923663
670,10.4290895,5.1139889,6.9910331,16.1526718,126.1297684,45.0992355,2.3894010,1.4556671,9.7299862,-2.8167939,-11.2671757,-4.7862597
680,10.6445665,4.8769641,6.2608056,21.0152664,119.9465637,28.5877857,2.4420733,1.4556671,9.6006994,-4.7709923,-3.9312978,-3.5114503
690,10.1944590,4.2808108,5.2025738,28.3969460,92.7709961,8.3740454,2.4708035,1.4724265,9.5336628,-6.9694657,4.5725193,-1.4503816
700,9.1649570,3.7756367,4.1299767,34.0839691,56.7938919,-9.3893127,2.4516499,1.5083394,9.4977493,-9.2290077,12.8396950,0.5190840
710,4.7811961,2.7341642,1.6615674,2.8091602,37.9083977,-6.1832061,2.1092808,1.0725969,10.7307568,-13.5801525,20.0687027,6.2442746
720,4.3598189,2.8227494,1.7405758,-14.7099237,46.1145020,5.9007635,2.2074428,0.9983770,11.0420017,-13.6488552,6.9160304,5.4732823
730,4.3406653,2.8419030,2.4205256,-30.9541988,48.9694672,17.1068707,2.5115047,0.9289455,11.3795824,-13.0992365,-5.2519083,2.5496182
740,4.5345950,2.6599445,3.3590479,-43.1450386,51.7328262,27.4580154,2.7557120,0.8212070,11.4418316,-11.7938929,-15.7099237,-1.2061069
750,5.0158267,2.6000898,4.1515245,-50.5572510,49.6564903,34.3053436,2.9137285,0.6440369,11.1401634,-9.7099237,-19.6564884,-4.6641221
760,5.7460546,2.5282640,4.6375451,-54.8091621,40.4885483,36.0305328,3.0071020,0.7517755,11.0539722,-6.9007635,-19.2061062,-8.4503813
770,7.4842362,2.1116750,4.6303625,-66.2137375,65.4427490,39.5954208,3.0166788,0.7493813,10.8289185,-3.9465649,-15.5496187,-10.2061071
780,8.8441362,2.5186872,5.5233951,-94.0687027,117.9160309,43.5725174,2.8107784,0.8283895,10.4721851,-2.2290077,-10.5114508,-11.3435116
790,8.9734221,2.0063307,7.3357964,-115.1832047,163.6870270,34.3282433,2.6647329,0.8930327,10.1681223,-1.3893130,-5.6030536,-11.6641226
800,8.0205345,1.4891858,8.6885138,-121.4503784,178.5343475,24.8091602,2.4157372,1.0749911,9.8353300,-2.4198472,-1.4503816,-10.2748089
810,7.4315639,1.0151364,10.2375546,-115.0839691,170.6717529,17.2748089,2.1380112,1.1707586,10.1082678,-3.6946564,0.4198473,-8.8702288
820,6.8832946,0.7421987,11.1257982,-102.0000000,150.7251892,12.4045801,1.8650736,1.1563935,10.2279778,-4.0763359,0.4503817,-6.0305343
830,6.7851329,0.6871324,11.6860390,-85.5877838,132.8778687,7.1450381,1.8195840,1.0869620,10.3692341,-4.3587785,2.2290077,-2.5648854
840,6.3350253,0.7254394,11.8943329,-64.7175598,113.7862625,-0.6870229,1.7860653,1.0606259,10.5009146,-4.2061067,4.4809160,-0.4656489
850,4.5393834,0.8978211,8.5304966,-9.6335878,79.3129807,-9.2366409,1.9297167,0.9696468,10.5655584,-3.0076337,10.3664122,5.9847326
860,3.5434003,-0.3878587,10.0436249,-35.7251892,93.3740463,-9.2748089,2.1212518,0.8882443,10.4458485,-9.0381680,31.9312973,3.0305343
870,2.8562679,-0.5219333,10.4266949,-30.2137413,85.7709961,-12.7709923,1.9847831,0.8858501,10.7187862,-9.4045801,28.7633591,1.9236641
880,2.2744799,-0.2226596,10.1609402,-25.8549614,72.8854980,-12.6870232,1.9153515,0.8188128,10.8480721,-9.6030531,25.1450386,1.5038168
890,2.6479735,-0.3806761,9.6821022,-24.1450386,67.3969498,-12.3282442,1.8147956,0.8595140,10.9701757,-9.0381680,21.7480907,0.8167939
900,2.5426292,0.1101327,9.5408449,-23.4351139,67.8473282,-12.3282442,1.7142396,0.7924767,10.9701757,-8.1526718,18.8778629,1.6641221
910,2.8754215,0.1149211,9.4618368,-24.2824421,68.2595444,-12.5496187,1.5562232,0.7661406,10.9965124,-6.5267177,17.0229015,0.5114504
920,2.9089401,0.3232156,9.8640604,-24.2061062,71.2519073,-12.0229006,1.4796091,0.7182568,10.9007444,-4.5343513,16.7862587,0.6183206
930,2.8442972,0.6823440,9.8257532,-23.1603050,70.5267181,-12.6870232,1.4341195,0.7685348,10.8337069,-2.7633588,18.0229015,1.2671756
940,2.4995339,0.9840119,9.4211359,-24.9694653,64.9770966,-11.9465647,1.3862357,0.8020535,10.8145542,-0.8244275,21.1526718,2.4732823
950,1.4700323,-0.0478838,9.7084379,-33.4885483,47.9083977,-10.8549614,1.2497669,0.9313397,10.4482431,2.6412213,34.1068687,7.1984735
960,1.4341195,-0.1364688,10.1705170,-36.1908379,38.3053436,-10.0763359,1.0654143,0.9050036,10.4243011,2.6412213,38.1679382,8.5419846
970,0.9217629,0.2011119,10.3309278,-36.0916023,27.3282452,-7.0763359,1.1755470,0.8547257,10.3596573,2.2824428,42.0839691,10.2290077
980,0.8020535,0.1795642,10.3716288,-34.9465637,13.6564884,-0.4580153,1.1516051,0.8331779,10.1800938,1.2748091,45.0458031,11.1755724
990,1.1923064,-0.5075682,10.5607700,-33.9007645,1.9465649,3.0992367,1.0271072,0.8068419,10.3213511,-0.4885496,46.5114517,11.1145039
1000,1.2665262,-0.9504932,10.3476868,-32.3358765,-10.1832066,2.7557251,1.0749911,0.8331779,10.3716288,-1.9618320,46.3358765,11.3893127
1010,1.0749911,-0.8068419,9.9933472,-31.6641216,-21.3969460,1.4198474,0.9241571,0.7158626,10.4147243,-3.6488550,44.6717567,10.3740454
1020,1.2856797,-0.5626345,10.0508070,-32.3511467,-30.0152664,1.5877863,0.8762733,0.7158626,10.5942879,-4.7022901,41.5496178,10.2213745
1030,1.8267666,-0.2418131,9.9741936,-33.4351158,-32.7404594,5.1374044,0.7733232,0.6177009,10.7211800,-5.3740458,36.9312973,8.5877867
1040,2.3630650,-0.6081241,9.6294298,-35.8320618,-39.1221390,8.7251911,0.4477134,0.5865764,10.9749641,-6.2900763,26.9770985,8.0152674
1050,3.8498566,-0.6703730,9.6126709,-30.3282452,-69.5572510,3.2900763,0.7493813,0.4860204,11.1234045,-10.2366409,0.7099237,3.7633588
1060,4.9990678,-0.9528874,9.9717989,-11.0076332,-130.8778687,-13.1908398,0.8523315,0.4189832,11.0108776,-8.1450386,1.1221374,2.4351146
1070,7.2615767,-1.2449785,9.9191265,-0.2366412,-144.8396912,-30.3358784,0.6775556,0.4525018,11.0060892,-4.9923663,5.2442746,1.8167939
1080,7.1107426,-1.5131277,10.3788109,-1.4351145,-114.3816757,-51.4580154,0.6368544,0.4764437,10.9605989,-2.1832061,9.1908398,2.4427481
1090,7.0628591,-1.3814473,10.6565371,-10.1832066,-86.1221390,-69.8473282,0.6248835,0.5315101,10.8241301,-0.2061069,12.8473282,2.9160306
1100,7.4555058,-0.9959828,10.9605989,-21.7557259,-40.4274826,-77.2137375,0.5841822,0.5746055,10.7283630,0.2824427,16.4580154,3.7633588
1110,6.7348547,-0.3687052,12.1002331,-32.1297722,-1.8320611,-78.4580154,0.5434810,0.6344602,10.6158361,0.2366412,18.0534344,4.7557254
1120,6.3302369,-0.1747758,12.8544035,-40.4427490,-8.9312973,-85.1755753,0.4979914,0.7254394,10.6349897,-0.5267175,17.3587780,4.9389315
1130,7.8002691,-0.7086801,14.2909164,-39.9312973,14.1374044,-99.4885483,0.4165890,0.6943150,10.6062593,-1.4885496,15.3969469,4.1603055
1140,7.9295554,-1.5562232,15.0259333,-24.0687027,14.6030531,-119.6641235,0.3303981,0.6943150,10.6996326,-1.7862595,13.5877867,4.5496182
1150,7.2448173,-2.3127871,15.0139618,-2.3969467,15.6259546,-137.1374054,0.3734936,0.7589580,10.7570934,-2.1755726,11.7633591,3.5954199
1160,6.5696559,-2.5450234,14.8080616,16.4045811,-7.8167939,-144.1145020,0.3878587,0.7134684,10.6756907,-2.2671757,9.7404585,3.4045801
1170,5.0708933,-2.4827745,13.8958759,8.6412210,31.2061062,-127.2290039,0.3591284,0.7062859,10.8217363,-2.2519083,8.7175570,3.8320611
1180,4.9176650,-2.3103929,14.8559456,27.5114498,1.5267175,-126.6183243,0.4118006,0.7326220,10.6852674,-1.6870229,9.5877867,3.5954199
1190,5.9567432,-1.9895715,14.9612904,48.0916023,-7.3664122,-132.5419922,0.3710994,0.7230452,10.7954006,-0.9236641,10.3664122,3.9312978
1200,4.9631548,-2.0925217,13.8312321,70.3358765,-7.1450381,-139.0458069,0.4189832,0.7254394,10.8552551,-0.4198473,11.0610685,3.2290077
1210,4.6734576,-2.5498118,12.1098099,84.9847336,-3.2137403,-138.6412201,0.4955972,0.6943150,10.7235746,0.1984733,11.8396950,3.6793892
1220,3.6655040,-2.1212518,11.0443964,88.6030502,-8.2595415,-131.4885559,0.4548960,0.6895266,10.7690639,0.4885496,11.9618320,3.0763359
1230,3.9552009,-1.8147956,10.2519188,86.5648880,1.0687023,-123.3969498,0.5003856,0.5817881,10.7187862,0.2977099,12.2366409,1.9465649
1240,4.2281384,-1.3359578,10.0603838,82.7862625,13.7022905,-117.6106873,0.4141948,0.5961532,10.7379398,0.3435115,12.1221371,0.6335878
1250,4.3047528,-0.7805058,9.9454632,77.8167953,25.7786255,-113.4809189,0.4285599,0.5674229,10.5799236,-0.2748092,11.3969469,-0.1145038
1260,4.4867110,-0.3639168,10.1776991,75.9694672,20.1603050,-113.4351120,0.3519458,0.6296718,10.6134415,-1.0687023,9.6946564,-1.2519084
1270,5.1666608,-0.1125269,11.5423870,78.5190811,15.5114508,-116.8244247,0.2561783,0.6057299,10.6756907,-1.4961832,7.9236641,-2.4656489
1280,5.5186067,0.1149211,12.9286232,89.7480927,9.1832066,-126.7938919,0.2920911,0.6823440,10.7403336,-1.9694656,7.0305343,-2.8473282
1290,5.2193332,0.3615226,13.8048964,111.0305328,-15.5725193,-139.1221313,0.2298422,0.6464311,10.7283630,-1.9389313,6.0610685,-3.5877862
1300,6.1674318,-0.3280039,13.9868546,156.5267181,-24.9770985,-169.7251892,0.1125269,0.6727672,10.5751352,-1.4656489,4.3893127,-4.9694657
1310,6.4978304,-0.3495516,12.6030130,175.9007568,-29.4809170,-188.9847260,0.0526722,0.6991033,10.6158361,-1.8702290,3.7709923,-5.2977099
1320,5.5401545,-0.9528874,12.0068598,190.6030579,-20.6259537,-211.4122162,0.1101327,0.6440369,10.6254129,-2.5725191,3.1908398,-5.0610685
1330,4.4124913,-0.8044477,11.6597023,200.1526642,-34.6335869,-222.5801544,0.0766141,0.6105183,10.5727406,-3.3435113,2.2213740,-5.6488547
1340,3.8761928,-0.9265513,10.2686787,207.9847260,-36.9694672,-228.8473358,0.0790083,0.5482694,10.5464048,-4.3969464,1.7862595,-6.4274807
1350,3.3829896,-0.5746055,8.9662399,211.0076294,-39.2137413,-234.9618378,0.0095768,0.4740495,10.5464048,-5.3969464,1.0687023,-6.8091602
1360,2.5450234,-0.3184272,7.2041159,209.2061005,-41.3511467,-239.1908417,-0.0502780,0.4908088,10.6206245,-6.1984735,0.0534351,-7.7862597
1370,1.5729824,0.2082945,5.9064655,198.9160309,-44.1526718,-237.3816833,-0.1101327,0.5075682,10.7020273,-6.7557254,-0.7099237,-7.9389315
1380,0.7134684,1.0941446,4.7859845,181.7099304,-39.1603050,-232.2290039,-0.2633608,0.3830703,10.7451220,-6.9465647,-1.1679389,-7.8473282
1390,0.2681492,1.5322813,4.3119354,162.6106873,-27.1908398,-225.2442780,-0.4333483,0.3519458,10.7666702,-6.3664122,-1.3740458,-6.8931298
1400,-1.3048333,2.3582766,4.5489597,147.6412201,-19.3664131,-214.6183167,-0.4525018,0.3064562,10.8217363,-5.6030536,-1.0000000,-5.0000000
1410,-1.1611819,2.3989778,5.3893204,141.5038147,-9.9847326,-199.7099304,-0.4261657,0.3519458,10.8959560,-4.6870227,-0.1908397,-3.0992367
1420,-1.1923064,2.1260402,6.3422079,141.3206177,30.4732819,-185.4427490,-0.3088504,0.4165890,10.9701757,-3.4732823,1.5801526,-1.7175573
1430,-2.0326669,2.8131726,4.8362627,142.6564941,31.0916023,-171.3816833,-0.1436514,0.4572902,10.9438400,-1.8854961,2.8396947,-0.6946565
1440,-2.1451938,2.9568241,3.7133877,135.9160309,29.1908398,-161.9313049,-0.1053443,0.5674229,11.1281929,0.0458015,4.6793895,0.5496183
1450,-2.5306582,3.2920105,3.4572096,125.7022934,32.3816795,-151.6335907,-0.0790083,0.6344602,11.0420017,1.9541985,6.1755724,0.2900763
1460,-2.9687948,3.8929520,3.1723011,116.3206100,21.4198475,-143.4198456,-0.0359128,0.6847382,11.0994625,3.7633588,6.4427481,0.6488550
1470,-3.1938488,4.6854286,2.8610563,97.4122162,-11.9694653,-133.4885559,0.0909792,0.8188128,10.9246864,6.5572519,7.2748094,0.2213740
1480,-3.1818779,4.8697815,2.9783716,87.8320618,-33.8931313,-126.7328262,0.0885850,0.8786675,10.6493549,7.4198475,7.8854961,-0.1068702
1490,-2.5162930,5.1882086,3.6894460,80.9389343,-61.3587799,-122.9694672,0.1077385,0.9313397,10.5009146,7.3053436,7.7862597,-0.4274809
1500,-1.4987626,5.6047974,4.9152708,79.3893127,-87.6488571,-124.7175598,0.0143651,0.9193687,10.3596573,5.9541984,6.9236641,0.0152672
1510,-1.3144100,5.6239510,5.6167684,84.1984711,-100.1145020,-128.2900696,-0.0861908,0.8690908,10.1800938,3.7557251,5.4656487,-0.2290076
1520,-1.2713146,5.9998388,6.0285692,89.8778610,-104.3129807,-129.4961853,-0.0502780,0.8786675,10.2231894,0.9541985,3.8702290,-0.6183206
1530,-0.7038917,6.0956063,5.7987270,93.8778610,-102.9007645,-129.9694672,-0.1795642,0.7709290,10.3237448,-1.6793894,1.9007634,0.1450382
1540,0.3854645,6.5744443,5.8537931,97.2595444,-107.6641235,-137.1297760,-0.2178712,0.5937590,10.4578199,-3.5572519,0.5114504,-0.5496183
1550,1.2377959,6.5696559,6.1794028,102.6641235,-110.4274826,-151.9007568,-0.3351865,0.4740495,10.4913378,-4.8091602,-1.0992366,-1.3358779
1560,1.7764885,6.5648675,6.0189924,110.5419846,-105.4045792,-175.1068726,-0.4333483,0.3471575,10.5607700,-5.4885497,-2.3435113,-1.8244275
1570,0.1891410,5.9232249,5.5808558,113.7633591,-101.2977066,-190.5954132,-0.4884146,0.2705434,10.6421719,-5.3664122,-3.0916030,-2.2595420
1580,-0.5769997,5.2983413,5.4946647,116.9847336,-94.6335907,-198.0610657,-0.5698171,0.0790083,10.7642756,-5.5038166,-3.2442749,-2.1068702
1590,-0.7996593,5.1163831,4.9416070,117.7328262,-78.2290039,-207.7480927,-0.7398046,0.0000000,10.8217363,-5.0305343,-3.8015268,-1.5572519
1600,-1.7142396,4.3813667,4.3023586,114.2824402,-59.8931313,-218.3587799,-0.7374104,-0.0095768,10.7594872,-4.7099237,-4.0076337,-1.3435115
1610,-3.0549858,3.7564833,4.2425036,109.9618301,-48.4122124,-226.4274750,-0.6488253,0.1268920,10.8720140,-3.8549619,-4.2671757,-0.8702290
1620,-4.7740140,2.7676830,4.3047528,108.7404556,-37.8396950,-229.8091583,-0.6272776,0.1484398,10.8552551,-2.9160306,-4.1984735,0.5267175
1630,-6.1410961,2.2888451,4.3023586,109.3053436,-34.8549614,-228.7251892,-0.5889706,0.1987177,10.9055328,-2.2213740,-3.9465649,1.2748091
1640,-7.4794478,1.5131277,4.1012464,109.5496216,-37.6106873,-226.4503784,-0.4381367,0.3160330,10.7786407,-1.1297710,-3.2900763,0.9236641
1650,-9.0883436,0.6679789,3.9599893,109.5419846,-40.7938919,-216.3053436,-0.3136388,0.4165890,10.8289185,-0.2671756,-2.5572519,0.5801527
1660,-10.4506369,-0.0263361,3.7397239,110.3587799,-48.5114517,-198.1908417,-0.3016679,0.5243275,10.8384953,0.4580153,-1.7709924,1.3664122
1670,-11.3843708,-0.5362985,3.5769191,110.7557220,-63.4045792,-173.9541931,-0.2537841,0.6751614,10.8456783,1.3893130,-0.8244275,1.0229008
1680,-12.0571384,-1.0295014,3.3925664,110.6641235,-74.1603088,-145.8244324,-0.1268920,0.7134684,10.8337069,2.3587787,0.5114504,1.4732825
1690,-12.5790710,-1.1994889,3.0190730,108.5267181,-80.3282471,-114.9236679,-0.0646431,0.7805058,10.9198980,3.3358779,1.4732825,1.5496184
1700,-12.9908724,-1.4676381,2.4731977,101.6641235,-79.0305328,-79.7480927,-0.0526722,0.8331779,10.8049774,4.5572519,2.8549619,1.9312977
1710,-13.1991663,-1.8794388,2.3558824,89.7557220,-72.0534363,-41.4503822,-0.0430954,0.9073978,10.6732969,5.2824426,2.9312978,1.3435115
1720,-13.6684275,-2.5785420,2.1547706,67.3435135,-39.8854980,48.6717567,0.2154770,0.8762733,10.5727406,4.5648856,1.3206106,1.0305344
1730,-13.8384151,-3.0549858,1.6448082,53.0687027,-9.0610685,103.0000000,0.1819584,0.7996593,10.5009146,3.1984732,1.0687023,-0.4961832
1740,-14.1951494,-3.5625539,1.1109039,36.0916023,26.2213745,161.4961853,0.1628049,0.6272776,10.3812056,1.6030535,0.4198473,-2.2137403
1750,-14.5470953,-4.0437860,0.4165890,18.2671757,48.8931313,223.8854980,0.1316804,0.6751614,10.3572636,-0.3053435,-0.9389313,-3.6870229
1760,-15.1025467,-5.2432747,-0.4979914,-4.1526718,66.1068726,250.1297760,-0.0909792,0.5362985,10.4985209,-1.9312977,-2.3664122,-4.6946564
1770,-15.8160152,-6.4810710,-0.4764437,-31.0381680,91.1984711,250.1297760,-0.2466015,0.5123565,10.5440102,-2.9770992,-3.6412213,-5.7938933
1780,-16.0985298,-7.9870162,-0.1340746,-57.0763359,121.6488571,250.1297760,-0.5051740,0.4596844,10.6948442,-2.9618320,-3.8931298,-5.5114503
1790,-17.2046452,-9.4905672,0.4501076,-83.3587799,152.6259613,250.1297760,-0.6177009,0.4022238,10.6732969,-3.0916030,-3.6870229,-6.2671757
1800,-19.3019562,-11.3293047,2.0853391,-108.9083939,181.5419922,250.1297760,-0.6823440,0.4525018,10.7163916,-2.4961832,-3.4198472,-4.7099237
1810,-19.6131992,-14.6428623,5.1020179,-124.5190811,184.3740387,250.1297760,-0.7326220,0.4189832,10.6709023,-1.8396946,-2.8778627,-4.6259542
1820,-19.4312420,-18.7943878,7.6901364,-123.0305328,152.8320618,250.1297760,-0.7182568,0.3878587,10.7618818,-1.1526718,-2.4732823,-3.1832061
1830,-9.8664551,-19.6131992,7.3118544,-116.0305328,99.4198456,250.1297760,-0.7014975,0.4453192,10.7570934,-0.7557252,-1.5877863,-2.4274809
1840,12.4809093,-19.6131992,6.9192076,-100.1068726,86.1450348,250.1297760,-0.6847382,0.4596844,10.6996326,-0.2671756,-1.0992366,-1.6106870
1850,19.6126022,-19.6131992,5.4539638,-92.3511429,181.1068726,250.1297760,-0.5171449,0.4333483,10.6732969,-0.0305344,-1.2061069,-0.4885496
1860,19.6126022,-19.6131992,8.8944139,-118.6793900,223.0534363,250.1297760,-0.4405309,0.5171449,10.7499104,0.5954198,-1.4198474,0.1450382
1870,19.6126022,-14.2813396,19.6126022,-105.4656525,93.5877838,250.1297760,-0.2992737,0.5267217,10.6972389,0.5877863,-1.5572519,-0.1145038
1880,19.6126022,5.3007355,19.6126022,36.1297722,-16.8396950,250.1297760,-0.1747758,0.5386927,10.5535870,0.2671756,-1.9465649,-1.2748091
1890,19.6126022,2.8538737,17.7960110,176.1603088,-95.3282471,9.5038166,-0.1101327,0.5674229,10.5775290,0.1679389,-2.0610688,-2.3053436
1900,19.6126022,-0.1556223,-0.4955972,181.4351196,-244.8244324,-169.3740387,-0.1508339,0.5769997,10.6397781,-0.4045801,-2.8702290,-2.8320611
1910,14.6811695,0.1077385,-4.0796990,92.9770966,-250.1374054,-188.5419922,-0.2082945,0.6177009,10.6589317,-0.8244275,-3.3358779,-4.0381680
1920,8.7028790,1.7094513,0.5315101,18.2137413,-250.1374054,-100.9923630,-0.2178712,0.5913648,10.5775290,-1.3358779,-3.7175572,-4.2442746
1930,11.2933912,3.2153964,4.1156116,-17.2748089,-100.7557220,-1.0763359,-0.3303981,0.6200951,10.6086531,-1.5648855,-3.5190840,-4.4656487
1940,13.8695393,4.7644372,4.2592630,-40.9465637,100.9923630,59.8244286,-0.4094064,0.5602403,10.7810354,-1.5648855,-3.6870229,-4.7175574
1950,14.1137466,5.6694407,4.4651632,-53.3358765,209.0610657,73.1679382,-0.3998296,0.5650287,10.7307568,-1.3664122,-3.6488550,-5.0076337
1960,12.7825775,5.2384863,5.3869262,-44.7328262,208.5572510,59.4885483,-0.4213773,0.5051740,10.8528605,-1.2824427,-3.7328243,-4.1832061
1970,11.4897156,4.7764082,5.1499014,-21.2977104,143.9465637,38.8625946,-0.5434810,0.4955972,10.6158361,-0.9083970,-3.4885497,-4.0381680
1980,10.4386663,4.4603748,4.5322008,3.2977099,77.6564865,16.8244267,-0.5722113,0.4716553,10.7834291,-0.6641222,-3.5725191,-3.8931298
1990,5.8226686,2.8849983,1.2306134,1.2290076,63.3664131,34.2824440,-0.4429250,0.4333483,10.7762470,0.4045801,-2.7480917,-2.4198472
2000,7.4219875,2.7174051,2.3486998,-12.4274807,68.5954208,47.4351158,-0.4333483,0.5099624,10.6469603,0.9312977,-2.6488550,-2.5038168
2010,8.0037756,2.7102225,2.8897867,-15.1755724,65.5648880,46.3129768,-0.3950413,0.5195391,10.6349897,1.2595420,-2.3129771,-2.3206108
2020,8.2503767,2.7006457,3.2608860,-15.5114508,51.7404594,40.4656487,-0.4165890,0.4788379,10.7379398,1.3893130,-2.2290077,-2.2290077
2030,8.5017672,2.5330524,3.4787574,-15.1297712,31.8015270,32.0076332,-0.3663110,0.4716553,10.6493549,1.4198474,-2.1450381,-1.8473282
2040,8.4299412,2.3774302,3.6391680,-15.1832066,11.6335878,24.2671757,-0.3710994,0.5650287,10.6086531,1.1908396,-2.1068702,-2.6030533
2050,8.5233145,2.1978660,3.7612717,-17.7786255,-4.7099237,18.6717548,-0.3998296,0.5746055,10.6062593,1.1068702,-2.4274809,-2.4732823
2060,8.1737623,2.0278785,4.1036406,-21.3282452,-11.0229006,16.3435116,-0.3902529,0.4668669,10.5775290,0.7862595,-2.7786260,-2.4580152
2070,8.5065556,1.5825592,4.2185616,-24.8931293,-5.2061067,16.9541988,-0.4046180,0.5410868,10.6278067,0.5343512,-2.9007633,-2.8778627
2080,8.8920193,1.5322813,4.1515245,-32.4045792,10.2519083,17.5572510,-0.3974355,0.5315101,10.6421719,0.2671756,-3.0916030,-2.6717558
2090,8.6214762,1.7094513,4.4699516,-39.8702278,36.0076332,20.9007626,-0.4620786,0.5147507,10.7930059,0.4198473,-3.1450381,-3.1755726
2100,8.2000990,1.6232605,5.1283536,-44.8625946,57.3282433,27.1526718,-0.4094064,0.5482694,10.6924505,0.4503817,-2.7938931,-2.8702290
2110,7.7140784,1.6352314,5.8609757,-46.0458031,65.4198456,33.4427490,-0.4189832,0.5075682,10.7068148,1.0763359,-2.3664122,-3.1450381
2120,6.9958215,1.8147956,6.2224984,-42.2366409,61.0076332,39.6183205,-0.3112446,0.4979914,10.6637201,1.5267175,-2.1068702,-2.8015268
2130,7.3693151,1.1994889,6.0333576,-37.7328262,38.0000000,45.9847336,-0.3591284,0.5243275,10.8744087,2.1603053,-1.4427481,-3.0229008
2140,12.6892042,1.7070571,6.0932121,-40.1145020,40.7633591,46.7022896,-0.3854645,0.5386927,10.6972389,2.8167939,-0.9236641,-3.4732823
2150,15.3156300,1.9752063,6.2943239,-77.9236679,88.0457993,62.6870232,-0.4429250,0.5793939,10.6230183,2.7709923,-0.8473282,-3.2061069
2160,13.8839045,1.5155219,8.6933022,-79.6183243,26.5801525,30.1374054,-0.4525018,0.5817881,10.5823174,2.3206108,-1.1679389,-3.5419848
2170,11.2072010,0.4788379,8.7483683,-53.3282433,-42.5954208,4.2213740,-0.4261657,0.6009415,10.6373835,1.8396946,-1.2061069,-3.9160306
2180,10.3907824,0.5793939,7.6925306,-21.6488552,-45.6412201,-9.8473282,-0.4405309,0.5123565,10.5320396,1.1603054,-2.0076337,-3.7709923
2190,9.0021524,0.7278336,6.9527264,3.0534351,-14.5114508,-17.8549614,-0.4860204,0.4979914,10.5248566,0.9389313,-2.5114503,-3.8320611
2200,7.1179252,0.7541697,6.0740585,13.9618320,-1.5267175,-15.9847326,-0.5003856,0.5482694,10.5751352,0.5877863,-3.0839694,-4.4885497
2210,6.5720501,0.8212070,5.0637107,13.5572519,1.0000000,-7.4045801,-0.5003856,0.4932030,10.6493549,0.4580153,-2.9160306,-4.8320613
2220,6.8330169,0.7613522,4.3550305,5.5572519,5.3282442,3.9236641,-0.5291159,0.4644727,10.5823174,0.5801527,-2.8015268,-3.7099237
2230,7.5057840,0.6200951,4.6279683,-3.8854961,3.9312978,12.6564884,-0.4860204,0.5267217,10.7810354,0.5725191,-2.6488550,-4.2366414
2240,8.3365679,0.6416427,5.3486195,-8.5190840,2.1908398,17.6030540,-0.4357425,0.4788379,10.7618818,1.1145039,-2.6183207,-4.1832061
2250,8.4347296,1.3766589,5.7340837,7.0992365,-25.0534344,9.0763359,-0.4955972,0.5530578,10.6900558,2.6030533,-1.0152671,-5.3358779
2260,7.9558916,1.2114599,4.5513539,-13.9465647,-67.2061081,27.9618320,-0.5746055,0.6272776,10.6062593,1.8854961,-1.3587786,-4.9770994
2270,8.0468712,0.9552816,4.4172797,-21.7022896,-74.8015289,33.5343513,-0.5913648,0.5769997,10.7235746,1.7404580,-1.4809160,-4.6793895
2280,8.7651272,1.1970947,4.3071470,-28.2900772,-78.8320618,36.7480927,-0.6560079,0.5841822,10.7139978,1.8625954,-1.5725191,-4.6564884
2290,9.3373384,0.6105183,4.1539187,-35.5496178,-80.1908417,33.5038185,-0.6488253,0.5937590,10.6613255,1.9083970,-1.8320611,-3.6793892
2300,9.3157911,0.4525018,4.1275826,-41.3282433,-86.1832047,32.2671738,-0.6607963,0.6200951,10.6445665,2.0992367,-1.6564885,-3.2366412
2310,9.6581602,0.7086801,3.7971845,-45.3053436,-86.6183243,31.3206100,-0.6224893,0.6033357,10.7451220,2.0534351,-1.7862595,-3.1908398
2320,9.9071560,0.7709290,3.4021432,-50.6488533,-80.4732819,30.6488552,-0.5722113,0.5722113,10.6062593,1.8549619,-1.8931298,-2.6106870
2330,10.4889441,0.4836263,3.2465210,-54.9541969,-72.0381699,29.7938938,-0.6105183,0.5841822,10.6349897,1.3358779,-2.1679389,-2.3969467
2340,11.0013008,0.4908088,3.1172347,-54.7633591,-61.9541969,28.5954189,-0.6105183,0.5817881,10.5344334,1.3664122,-2.3587787,-2.1603053
2350,11.8775740,0.7062859,3.6655040,-50.1679382,-55.9236641,26.2977104,-0.7206510,0.5602403,10.6349897,1.1450381,-2.7480917,-2.1526718
2360,13.0555153,0.8738791,4.2520804,-42.3511467,-54.0534363,18.1068707,-0.6248835,0.5219333,10.6110477,1.1603054,-2.8931298,-1.4885496
2370,13.8886929,0.4165890,4.4699516,-35.5496178,-60.2824440,4.7938933,-0.6440369,0.6272776,10.6613255,0.9312977,-3.1145039,-1.4427481
2380,14.8511572,-0.0837966,4.5417776,-31.6641216,-75.1984711,-8.5343513,-0.5482694,0.5626345,10.6828737,1.2671756,-2.6488550,-1.3893130
2390,16.6132812,-0.9289455,4.7285242,-33.3587799,-78.8854980,-20.0687027,-0.5506636,0.5698171,10.6421719,1.3435115,-2.1679389,-1.0763359
2400,18.9117031,-0.8403605,5.4324160,-33.6870232,-70.5038147,-33.0076332,-0.5219333,0.6129125,10.6972389,1.5725191,-2.3664122,-0.7022901
2410,19.6126022,-1.0103480,5.8777351,-28.1374054,-45.4656487,-50.7022896,-0.5865764,0.6200951,10.6589317,1.6946565,-2.3358779,-1.3969465
2420,19.6126022,-0.8906385,6.0812411,-14.8625956,-11.5343513,-72.2977066,-0.5434810,0.5985473,10.5942879,1.6030535,-2.4351146,-1.6183206
2430,19.2756195,-0.8068419,6.1626434,2.3282442,20.1221371,-92.8702316,-0.5434810,0.6536137,10.6086531,1.5190840,-2.4274809,-0.9389313
2440,17.5446205,-0.8595140,5.9351954,19.4427490,33.0916023,-109.0000000,-0.6129125,0.6224893,10.5607700,1.4961832,-2.4580152,-1.3893130
2450,16.5246964,-0.5339043,5.5473371,33.1221390,25.8854961,-123.9618301,-0.4812321,0.5769997,10.6062593,1.0229008,-2.6335878,-1.3053435
2460,16.2972469,-0.3208214,4.5729017,41.7709923,13.8015270,-141.2290039,-0.5602403,0.6536137,10.5918941,0.8778626,-2.9618320,-1.6870229
2470,16.1272602,-0.1508339,3.6535332,43.9007645,3.8778627,-158.3129730,-0.5003856,0.6153067,10.6254129,0.7251908,-2.7938931,-1.8091604
2480,15.9357252,0.3232156,3.1699069,42.4198456,-6.8091602,-177.6106873,-0.4261657,0.6584021,10.6661139,0.5419847,-3.0763359,-1.1908396
2490,15.8136215,0.5003856,2.7317703,38.0152664,-14.8625956,-202.2290039,-0.4884146,0.6799498,10.7307568,0.6259542,-3.1603053,-2.6717558
2500,14.6787758,0.3591284,2.6312141,30.7557259,-24.9923668,-225.5343475,-0.4908088,0.6177009,10.6828737,1.2137405,-2.5572519,-2.8702290
2510,13.7905312,0.2442073,2.7509236,23.3358784,-41.8625946,-245.0381622,-0.5865764,0.6512195,10.7020273,1.4045801,-2.2061069,-2.9618320
2520,13.2709923,0.3734936,2.8706331,17.4351139,-59.8931313,-250.1374054,-0.5243275,0.6679789,10.8001890,1.5114504,-1.8167939,-2.5954199
2530,12.4976692,0.5099624,2.7221935,13.3358774,-70.1297684,-250.1374054,-0.5123565,0.6727672,10.5775290,1.5419847,-1.8091604,-2.9312978
2540,11.6046362,0.4501076,2.3079987,9.6564884,-68.5801544,-250.1374054,-0.6224893,0.6368544,10.5942879,1.4580153,-1.7328244,-2.8778627
2550,10.9127159,0.1747758,2.3008161,5.2213740,-63.1984749,-250.1374054,-0.5051740,0.6631905,10.5487986,1.2442749,-1.8091604,-3.1221373
2560,10.3524752,0.3974355,2.0518203,0.0916031,-57.0992355,-250.1374054,-0.5602403,0.6464311,10.5895004,1.0381680,-2.1221373,-3.1755726
2570,9.5216913,0.8236012,1.8698620,-6.5038166,-36.9160309,-250.1374054,-0.5817881,0.7038917,10.6493549,1.1374046,-2.1984732,-3.3816793
2580,8.2575598,0.9145803,1.5490406,-14.8473282,-12.3816795,-250.1374054,-0.5506636,0.6344602,10.6876621,1.0381680,-2.4503818,-2.8396947
2590,3.6822634,1.1683644,3.0262554,-17.7022896,22.0076332,-250.1374054,-0.6967092,0.6105183,10.6373835,0.9770992,-2.3587787,-2.6564887
2600,2.1619530,1.3886299,2.8945751,-8.3740454,17.8854961,-250.1374054,-0.6823440,0.6967092,10.6014709,1.0229008,-2.4656489,-2.7022901
2610,0.8427547,1.9225341,2.7078283,-0.2290076,9.4503813,-250.1374054,-0.6823440,0.6775556,10.5942879,1.0229008,-2.4656489,-2.4274809
2620,-0.1484398,2.5809362,2.1619530,3.4885497,0.9618320,-250.1374054,-0.7158626,0.6129125,10.6445665,1.0076336,-2.6946564,-2.1603053
2630,-0.9313397,3.0286496,1.9081690,3.1755726,-9.9312973,-235.5114441,-0.7374104,0.6392486,10.6972389,1.1297710,-2.7022901,-2.3511450
2640,-1.3455344,3.4883339,1.7956421,0.0458015,-27.4809170,-218.1450348,-0.7254394,0.6584021,10.6828737,1.1297710,-2.9541984,-1.3206106
2650,-1.5610116,4.0485744,1.8674678,-4.6335878,-47.3282433,-199.5801544,-0.7781116,0.6129125,10.6685085,1.3587786,-2.7862597,-1.0229008
2660,-1.5490406,4.5705075,1.9512644,-8.7557249,-55.7175560,-180.5190887,-0.6967092,0.6464311,10.6445665,1.5267175,-2.6564887,-1.0305344
2670,-1.8195840,4.8673873,2.6072724,-8.9847326,-52.8702278,-159.2519073,-0.7781116,0.6584021,10.6828737,1.5114504,-2.2671757,-0.8091603
2680,-1.9345051,5.1427188,2.9735832,-4.7938933,-48.8015251,-135.9694672,-0.7613522,0.6392486,10.5033092,1.5572519,-2.5496182,-0.5725191
2690,-1.9584470,5.6000090,2.8993635,0.7480916,-40.8625946,-113.4274826,-0.7685348,0.6392486,10.6158361,1.7557251,-2.4503818,-0.1755725
2700,-2.0566087,6.0980005,2.6240315,4.4122138,-26.9312973,-90.4427490,-0.7062859,0.5913648,10.5631638,1.5725191,-2.6488550,0.2290076
2710,-2.1044924,6.3589673,2.3127871,4.2061067,-7.4885497,-68.4274826,-0.6751614,0.6823440,10.5799236,1.3282443,-2.7633588,-0.1145038
2720,-2.0590029,6.5672617,2.3056045,1.0916030,9.5114508,-48.9465637,-0.7445929,0.6655847,10.6325951,1.3206106,-3.0305343,0.1679389
2730,-2.1188576,6.7468257,2.5210814,-1.7557251,17.4351139,-31.8396950,-0.6943150,0.6631905,10.6278067,1.2595420,-3.1450381,0.5419847
2740,-1.8890154,6.9239960,2.5737536,-3.5496182,22.9923668,-17.5190830,-0.7230452,0.5937590,10.6493549,1.1984733,-3.0687022,1.2366412
2750,-1.4389079,7.1466556,2.9233053,-2.5877862,15.8854961,6.5496182,-0.6919208,0.6679789,10.6493549,1.1832061,-3.2366412,0.5725191
2760,-0.9720409,7.3501616,2.5689652,-2.0152671,5.4045801,19.0305347,-0.6967092,0.6512195,10.6661139,1.1374046,-3.4351146,0.2442748
2770,0.0790083,7.6326761,2.2433555,-2.9083970,1.3664122,30.2213745,-0.5793939,0.6344602,10.7307568,1.5725191,-3.3816793,0.6564885
2780,1.0295014,7.8912482,1.9608412,-3.3206108,5.2595420,38.8625946,-0.4740495,0.7206510,10.7858238,2.1297710,-3.3435113,0.8625954
2790,1.3982066,8.1115141,2.3391230,1.6412214,10.4351149,46.8244286,-0.4405309,0.8020535,10.7618818,2.6183207,-2.3282442,0.0458015
2800,2.1571648,8.2479830,2.0111191,7.7633586,34.3740463,49.4580154,-0.3567342,0.7900825,10.7499104,3.1832061,-1.5496184,-0.7022901
2810,2.3343346,8.3365679,2.7940190,-4.4045801,-19.2366409,7.7633586,-0.4908088,0.8690908,10.1274214,-1.3282443,-0.9389313,-5.8854961
2820,2.4324965,7.6302819,2.8682389,0.7328244,-38.7480927,-5.6641221,-0.7278336,0.7421987,10.1848822,-3.6717558,-3.2290077,-5.7480917
2830,2.4348907,7.3741035,3.0717452,15.5572519,-48.2519073,-17.3053436,-0.8212070,0.6967092,10.3596573,-5.8473282,-6.9007635,-6.2519083
2840,2.1164634,7.1610208,3.1220231,32.5419846,-52.6106873,-24.1068707,-0.8786675,0.6081241,10.6302013,-6.9083967,-9.0610685,-6.6793895
2850,1.6424140,6.6773944,3.0310438,47.6488533,-50.3053436,-26.0458012,-1.0055596,0.4022238,10.7977943,-6.3358779,-9.3893127,-6.7862597
2860,1.0678085,5.7699966,3.2225790,61.5877876,-41.0763359,-27.6335869,-1.0965388,0.4022238,11.0874910,-4.3282442,-8.7404585,-6.3511453
2870,1.4939742,5.2743993,3.5026991,76.1603088,-23.0152664,-34.7633591,-1.0869620,0.4213773,11.0084829,-2.0916030,-7.0763359,-5.1374044
2880,1.1851238,5.1977854,3.3255291,87.6259537,-2.1832061,-42.8244286,-0.9552816,0.4309541,10.9773588,0.2671756,-4.9923663,-2.9618320
2890,-0.7230452,4.2113791,1.7932479,92.7099228,6.1526718,-39.6793900,-0.5602403,0.5985473,10.7786407,3.0916030,-1.4427481,-1.0610687
2900,-2.2840567,4.1371593,1.5562232,86.2061081,-13.2671757,-34.4427490,-0.3734936,0.6895266,10.6349897,3.4580152,-0.6412213,-1.4427481
2910,-3.0358322,3.7923961,1.1635761,65.8625946,-59.6030540,-26.7251911,-0.2609667,0.8116302,10.5104914,2.8473282,-1.1145039,-3.4274809
2920,-3.3135581,3.2082138,0.8666966,43.7633591,-91.1832047,-14.4274807,-0.2418131,0.8236012,10.5703468,1.7786260,-2.3358779,-4.5267177
2930,-3.7708483,2.6336083,1.5227045,36.0610695,-82.4580154,0.1374046,-0.3399749,0.8954269,10.4506369,0.6106870,-3.0152671,-6.2977099
2940,-5.6694407,2.1092808,1.8842272,35.1374054,-51.6106873,24.5801525,-0.4477134,0.8786675,10.5847120,-0.2442748,-3.7022901,-6.8244276
2950,-9.1529865,2.2936335,1.1444225,30.1526718,-5.5419846,68.7633591,-0.6057299,0.9385223,10.4171181,-0.9389313,-3.7557251,-6.1450381
2960,-13.4314032,1.9991482,-0.7445929,16.3511448,68.2290039,144.4045868,-0.6991033,0.9433106,10.6804790,-1.1526718,-3.9160306,-5.0229006
2970,-18.0761299,1.6088953,-3.0765336,-21.9465656,143.1297760,250.1297760,-0.7900825,0.8786675,10.7307568,-0.9160305,-3.1526718,-3.3664122
2980,-19.6131992,-0.7948709,-3.2249732,-85.2900772,217.3740387,250.1297760,-0.7709290,0.8882443,10.7570934,-0.8854962,-2.8625953,-2.3053436
2990,-19.0194416,-4.8625989,0.2873027,-150.8396912,250.1297760,250.1297760,-0.7421987,0.8164186,10.7690639,-0.0992366,-2.2137403,-2.0152671
3000,-14.4154148,-11.4490137,4.8123207,-198.4656525,250.1297760,250.1297760,-0.6679789,0.7565638,10.7786407,0.3816794,-1.7557251,-1.7938931
3010,-6.3158717,-18.8997307,9.0572186,-222.4961853,250.1297760,250.1297760,-0.6224893,0.6847382,10.8217363,1.1221374,-1.7938931,-1.7175573
3020,7.3357964,-19.6131992,11.7339230,-236.5877838,250.1297760,250.1297760,-0.7134684,0.5506636,10.7762470,1.6488550,-1.0381680,-1.6183206
3030,19.6126022,-19.6131992,13.4433737,-250.1374054,250.1297760,250.1297760,-0.8020535,0.5171449,10.7307568,2.1450381,-0.6717557,-1.8778626
3040,19.6126022,-15.2270451,19.6126022,-250.1374054,250.1297760,250.1297760,-0.8810617,0.4884146,10.6134415,2.2137403,-1.2366412,-2.7786260
3050,19.6126022,-7.3453732,19.6126022,-210.9923706,250.1297760,250.1297760,-0.9840119,0.5099624,10.4003592,1.7938931,-1.2977099,-1.7786260
3060,19.6126022,-5.3581958,19.6126022,-71.9923630,10.1450386,245.5801544,-1.0965388,0.4070122,10.4697905,1.0763359,-1.5114504,-0.7786260
3070,19.6126022,-4.1180058,19.6126022,97.9618301,-250.1374054,21.4427490,-1.1803354,0.4141948,10.4243011,0.3358779,-2.5267177,-0.2061069
3080,19.6126022,-3.7660601,15.9644556,196.4274750,-250.1374054,-108.1755753,-1.1899122,0.5243275,10.5248566,-0.1679389,-4.2824426,0.6793893
3090,16.9508610,-2.3750360,7.6733770,200.8931274,-250.1374054,-136.6259613,-1.2761030,0.4740495,10.6278067,-0.4274809,-4.7251906,1.9847329
3100,15.4808292,-0.6057299,4.5729017,165.1679382,-250.1374054,-99.5725174,-1.0893562,0.5913648,10.5535870,-0.3511450,-5.2137403,2.8473282
3110,16.5462437,1.2377959,2.2409613,119.0839691,-250.1374054,-43.3282433,-1.0486550,0.6464311,10.6852674,-0.2671756,-5.3129773,4.2061067
3120,19.6126022,2.7030399,0.9864060,54.5114517,6.0229006,2.6259542,-0.8595140,0.7206510,10.5631638,-0.0839695,-5.3282442,4.3206105
3130,13.9796724,3.3542595,0.4979914,18.2595425,143.4885559,-8.5267172,-0.7876883,0.8379663,10.6206245,0.0000000,-5.3511453,4.6030536
3140,8.8608952,3.3111639,2.1882892,-10.8244276,177.5801544,40.6106873,-0.3878587,0.9409165,10.7331514,0.0381679,-4.9312978,3.8396947
3150,10.4626083,3.9192882,2.8299320,-6.0610685,152.9847260,38.0458031,-0.3902529,0.9026094,10.7283630,0.2366412,-4.1450381,2.6717558
3160,10.7211800,3.6463506,3.1723011,7.3358779,82.4809189,9.6106873,-0.1819584,0.9504932,10.6948442,0.4503817,-4.1603055,2.0381680
3170,9.5552101,2.7293761,2.3965836,10.2213745,30.2290077,-13.6335878,-0.0622489,0.8236012,10.5918941,-0.3816794,-4.2366414,-1.5114504
3180,8.9542685,2.3319404,2.3989778,7.8396945,11.2977095,-19.1068707,-0.1388630,0.7062859,10.6517487,-1.3129771,-3.5954199,-4.1221375
3190,8.4634600,1.9608412,2.4253139,3.9847329,-2.0992367,-21.5954189,-0.2585725,0.6871324,10.5847120,-1.4503816,-3.4732823,-5.7786260
3200,8.0899658,1.7860653,2.4995339,-0.0610687,-10.3053436,-22.0763359,-0.4908088,0.6679789,10.7475166,-0.9465649,-3.7328243,-6.4198475
3210,7.5369086,1.4915800,2.7940190,-3.0916030,-11.1221371,-17.7404575,-0.6751614,0.6272776,10.6517487,-0.8625954,-3.3053436,-6.4122138
3220,7.3262196,1.2449785,3.0071020,-5.2671757,-9.4961834,-9.6030531,-0.8307837,0.5889706,10.5751352,-0.4809160,-2.5725191,-5.8702292
3230,7.3860745,1.1492109,3.2537034,-6.5267177,-3.3816793,-0.9312977,-0.8786675,0.5865764,10.7594872,-0.1984733,-2.6106870,-6.0000000
3240,7.7882981,1.2641320,3.3518653,-7.9465647,5.2519083,7.2671757,-0.9504932,0.6344602,10.5344334,0.0229008,-2.8396947,-5.1755724
3250,8.1186962,1.2234308,3.4380560,-11.1603050,15.1374044,13.1374044,-0.9864060,0.5913648,10.7139978,0.3358779,-3.1984732,-4.3587785
3260,8.4969788,1.0606259,3.6535332,-13.8015270,21.8625946,16.4198475,-0.9504932,0.5554519,10.6637201,0.7099237,-3.4351146,-4.2290077
3270,8.7411861,1.0007712,4.1371593,-14.2213745,23.1984730,18.2519093,-0.9433106,0.6679789,10.6732969,0.5343512,-3.1297710,-3.4198472
3280,9.1194677,1.0318956,4.4914994,-13.0229006,22.6335869,18.2748089,-0.8954269,0.6847382,10.7068148,0.5114504,-3.3664122,-2.7099237
3290,9.4259243,0.9265513,4.6064205,-11.3282442,20.5801525,16.4045811,-0.8020535,0.6272776,10.5895004,0.3664122,-3.9541984,-2.6946564
3300,9.3014259,1.0558375,4.9320302,-8.0763359,9.6335878,7.4198475,-0.5722113,0.6991033,10.5751352,-0.4732825,-4.3358779,-2.2824428
3310,9.0189114,1.1180865,4.9248476,-6.9618320,2.1755726,5.9770994,-0.6368544,0.6727672,10.5990763,-0.5954198,-4.2824426,-3.4503818
3320,8.7268209,0.9050036,5.1834202,-1.6564885,-6.4656487,6.7251906,-0.6584021,0.7350162,10.6349897,0.0687023,-4.1603055,-3.0000000
3330,9.0859489,0.9672526,4.9009056,-0.1374046,-5.3129773,8.3206110,-0.6607963,0.6919208,10.6206245,0.3511450,-3.5267177,-2.9770992
3340,10.4003592,1.1707586,5.1475072,-5.3358779,20.9541988,11.8091602,-0.7278336,0.7326220,10.5727406,0.5801527,-3.3282442,-2.6793892
3350,10.7235746,1.0965388,5.5305777,-8.3282442,46.9236641,10.6870232,-0.7110743,0.7685348,10.6780853,0.5801527,-3.4885497,-2.8091602
3360,9.2679071,0.9265513,5.4372044,-1.8167939,40.7175560,4.8549619,-0.7374104,0.7469871,10.5918941,0.5190840,-3.4656489,-2.9236641
3370,9.2822723,1.2449785,5.3103123,2.0992367,25.2977104,4.5419846,-0.7565638,0.7302278,10.5248566,0.0076336,-3.7557251,-2.5572519
3380,9.3612804,1.3982066,5.0661049,4.8244276,12.8396950,0.7557252,-0.7326220,0.7565638,10.7211800,-0.0992366,-3.8549619,-2.5267177
3390,9.1721401,1.4101776,4.9224534,4.5343513,6.1221375,-2.1145039,-0.6679789,0.6248835,10.7068148,-0.2061069,-4.1145039,-2.5267177
3400,8.8417416,1.4053892,4.9870968,3.2366412,4.0229006,-3.1755726,-0.6847382,0.7038917,10.6062593,-0.0076336,-3.9007633,-1.6488550
3410,8.4562769,1.2377959,4.9966736,3.6030533,3.8778627,-2.4503818,-0.7230452,0.6584021,10.6685085,0.2442748,-3.8244274,-2.1832061
3420,8.1761570,1.0749911,4.9823084,4.3969464,3.5725191,0.1450382,-0.6512195,0.6105183,10.6517487,0.2442748,-3.5190840,-1.9312977
3430,8.2336178,0.9169745,4.9918852,5.0763359,5.0839696,4.0381680,-0.6009415,0.6296718,10.7020273,0.6564885,-3.2442749,-2.1526718
3440,8.6190825,0.8762733,5.1379304,4.0610685,13.9007635,7.8320613,-0.7493813,0.6512195,10.6230183,0.9923664,-3.4122138,-2.1526718
3450,9.2272062,0.8643024,5.4970589,4.5038166,24.3893127,10.3435116,-0.6943150,0.7589580,10.6852674,1.3893130,-3.0534351,-1.4351145
3460,9.9310980,0.7661406,5.8059096,8.8473282,33.9465637,10.1221371,-0.7278336,0.7493813,10.7523050,1.6335878,-2.4351146,-2.0076337
3470,9.9310980,0.6464311,5.9256191,16.7938938,33.9541969,5.8320613,-0.6655847,0.7661406,10.6421719,2.0229008,-2.5190840,-1.3664122
3480,9.4067707,1.0606259,5.5186067,23.4580154,26.2061062,0.9160305,-0.6775556,0.8116302,10.6038647,1.9770992,-2.4122138,-1.9160305
3490,8.3724804,1.2713146,4.4412212,19.0992374,8.8167934,-1.0229008,-0.6775556,0.7876883,10.4817610,0.1297710,-3.7786260,-2.2366412
3500,8.2838955,1.4436963,4.1826491,13.7022905,7.7709923,0.2671756,-0.6512195,0.7565638,10.4817610,-0.4809160,-4.1984735,-2.3206108
3510,8.3078375,1.5418580,4.1994085,6.6870227,8.8091602,2.7786260,-0.7541697,0.6991033,10.6086531,-0.9465649,-4.7099237,-2.8473282
3520,8.3988171,1.5155219,4.3023586,0.4274809,8.7786255,4.9618320,-0.7374104,0.6919208,10.6541433,-0.9236641,-4.8320613,-2.2213740
3530,8.6573887,1.5298871,4.6088147,-3.6946564,7.3053436,5.7786260,-0.7541697,0.6344602,10.8241301,-0.6488550,-4.5648856,-2.3435113
3540,9.1027079,1.4700323,4.8218975,-5.5725193,4.9770994,4.2519083,-0.6967092,0.6775556,10.7451220,0.2977099,-3.7786260,-2.4732823
3550,9.1601686,1.3982066,4.9511838,-6.8625956,4.4198475,1.3511450,-0.5722113,0.7038917,10.7187862,1.0152671,-3.2595420,-2.6870229
3560,9.0236998,1.2713146,4.9583664,-7.7633586,4.2595420,-0.3358779,-0.5913648,0.7254394,10.7642756,1.8167939,-2.2977099,-2.7786260
3570,8.8489246,1.2018831,5.0182209,-8.5572519,4.8931298,-0.3893130,-0.6009415,0.7661406,10.6613255,2.2442749,-2.1297710,-3.5877862
3580,8.9135675,1.2186425,5.1355362,-8.9847326,6.1984735,-0.2595420,-0.6057299,0.8307837,10.6182299,2.2442749,-1.8244275,-3.3816793
3590,9.1745338,1.0055596,5.0349803,-9.8320608,8.6335878,0.5496183,-0.7158626,0.8116302,10.5559816,1.7251909,-2.2519083,-3.3587787
3600,9.5432396,0.7709290,4.9823084,-10.0000000,8.0229006,0.9389313,-0.6440369,0.7541697,10.4745789,0.9770992,-2.8625953,-3.6641221
3610,10.3596573,0.4884146,4.7261300,-13.6946564,11.1374044,2.1984732,-0.6631905,0.8092360,10.4817610,-0.1908397,-3.5877862,-4.4580154
3620,11.6525202,0.3016679,4.6519103,-22.6717548,15.7175570,3.2061069,-0.6895266,0.7661406,10.4721851,-0.9694657,-4.2519083,-3.6030533
3630,13.9748840,0.0478838,4.9080882,-37.0534363,22.8396950,1.0916030,-0.8140244,0.6943150,10.6469603,-1.1679389,-4.3511453,-4.5114503
3640,16.7904510,0.3160330,5.6646523,-52.3740463,36.7480927,-10.1984730,-0.8643024,0.6272776,10.6637201,-1.1068702,-4.2977099,-4.5572519
3650,18.8470592,0.3423691,6.9120250,-65.9007645,58.4045792,-33.4732819,-0.9552816,0.6296718,10.7068148,-0.3358779,-4.1603055,-3.8549619
3660,18.3323078,0.4094064,8.7387915,-71.8091583,66.6259537,-66.7557220,-0.8930327,0.5698171,10.7858238,0.2824427,-3.5114503,-3.1908398
3670,15.8112268,0.2896969,10.8456783,-58.5572510,55.3435097,-93.3053436,-1.0199248,0.5961532,10.7594872,0.8625954,-3.5267177,-2.3969467
3680,13.0291786,0.1364688,11.9996777,-27.2290077,29.1374054,-107.4351120,-0.9935886,0.5865764,10.6517487,0.8778626,-3.4198472,-1.7404580
3690,11.1449518,0.1867468,11.6908274,10.9160309,-0.0610687,-110.5267181,-0.9097920,0.5985473,10.5296450,0.7328244,-3.5114503,-1.6412214
3700,10.4027529,0.8020535,10.3955708,41.8473282,-19.5725193,-105.9312973,-0.8930327,0.6703730,10.5152798,0.9847328,-3.8320611,-0.5496183
3710,10.2974091,1.4029950,8.9518747,59.9389305,-27.8625946,-100.6564865,-0.8619082,0.6775556,10.5823174,0.4122137,-4.2519083,-0.4122137
3720,10.6565371,1.8435259,7.2831244,66.9694672,-24.2900772,-95.6870193,-0.7733232,0.7469871,10.5918941,0.2519084,-4.6946564,-0.5190840
3730,11.5830889,2.1954718,6.0022330,63.8549614,-7.4732823,-90.8091583,-0.7374104,0.8068419,10.6972389,0.1374046,-4.6946564,-0.9160305
3740,13.5104113,2.3654592,5.0900469,52.9847336,16.9847336,-88.9847336,-0.6967092,0.7972651,10.6517487,-0.1221374,-4.5725193,-0.4351145
3750,15.4616756,2.7581062,4.6447277,37.7709923,42.0992355,-97.8931274,-0.6248835,0.8212070,10.7211800,0.2977099,-4.3511453,-0.7175573
3760,17.2668934,3.0214672,4.8458395,22.4045811,54.1068687,-122.0687027,-0.5267217,0.8403605,10.6732969,0.7557252,-3.8931298,0.3358779
3770,18.2796364,2.8682389,5.8274570,12.0687027,44.4351158,-159.6183167,-0.5865764,0.8164186,10.6469603,1.1755725,-3.4503818,-0.0763359
3780,17.9037495,2.5402350,6.9120250,12.4961834,12.3969469,-206.3587799,-0.5267217,0.8068419,10.6493549,1.3740458,-2.9236641,-0.6564885
3790,16.8886127,1.5250987,7.8433647,20.7480907,-37.5954208,-250.1374054,-0.4884146,0.8451489,10.5823174,1.2366412,-2.9236641,-1.0992366
3800,16.4815998,0.8714849,8.4275465,35.2671738,-82.5954208,-250.1374054,-0.5339043,0.7469871,10.6158361,0.9770992,-3.0000000,-1.3969465
3810,15.0067797,0.2729376,8.4467001,51.6717567,-110.6793900,-250.1374054,-0.5889706,0.7972651,10.4673967,0.5801527,-3.2213740,-2.0305343
3820,12.6341381,-0.2082945,7.7092900,63.9923668,-126.8167953,-250.1374054,-0.6344602,0.7613522,10.4865494,0.0534351,-3.6793892,-3.1984732
3830,10.7690639,-0.7278336,7.2424231,72.3511429,-133.4427490,-250.1374054,-0.6943150,0.7469871,10.5727406,-0.4122137,-3.9007633,-2.8091602
3840,8.3772688,-0.6320660,6.7611909,79.1984711,-137.5954132,-250.1374054,-0.7254394,0.6943150,10.5679522,-0.6183206,-4.2213740,-3.0763359
3850,6.6342988,-0.7661406,6.1051831,84.4274826,-141.1755676,-250.1374054,-0.7829000,0.6536137,10.5416164,-0.5877863,-4.1908398,-3.4580152
3860,5.0206151,-0.9097920,5.2600341,87.2366409,-138.1068726,-250.1374054,-0.7302278,0.6607963,10.7068148,-0.2900763,-3.8167939,-2.7938931
3870,3.4356618,-0.4070122,4.3478479,85.9465637,-130.1450348,-250.1374054,-0.8140244,0.7206510,10.6254129,-0.0916031,-4.2061067,-3.2977099
3880,1.5131277,-0.8810617,3.9216824,79.8778610,-131.7328186,-250.1374054,-0.8068419,0.7637464,10.6685085,0.2213740,-3.7862597,-2.4198472
3890,-0.1292862,-0.5817881,3.9240766,75.3282471,-144.0610657,-250.1374054,-0.7757174,0.6679789,10.5679522,0.3358779,-3.5877862,-2.6412213
3900,-1.6112895,-0.8810617,3.9312592,69.6259537,-152.9694672,-250.1374054,-0.7038917,0.6464311,10.6325951,0.7557252,-3.4274809,-2.1832061
3910,-3.4739690,-0.6392486,4.6686692,66.9923630,-167.5648804,-250.1374054,-0.7158626,0.7110743,10.5703468,0.7480916,-3.3206108,-2.6564887
3920,-4.4053087,-0.0359128,5.1690550,66.1374054,-179.6412201,-250.1374054,-0.6536137,0.6655847,10.6972389,0.9312977,-3.3206108,-2.5572519
3930,-5.3294659,0.6272776,5.5688848,66.4274826,-187.9694672,-250.1374054,-0.6296718,0.7589580,10.5320396,0.6793893,-3.4351146,-3.1679389
3940,-6.3446021,1.3168042,6.0094156,66.4809189,-192.3053436,-250.1374054,-0.6464311,0.7805058,10.5631638,0.3282443,-3.5190840,-3.1603053
3950,-6.9048424,1.8028246,6.1722202,67.4351120,-189.1145020,-250.1374054,-0.6416427,0.7661406,10.4937325,0.1526718,-3.6106870,-3.3893130
3960,-7.0389171,2.3917952,5.9663200,68.8320618,-176.1068726,-222.9160309,-0.7158626,0.7398046,10.5033092,0.0076336,-3.8854961,-3.4580152
3970,-6.9982157,2.8849983,5.7364779,68.6946564,-157.9313049,-195.2366486,-0.7374104,0.7972651,10.6756907,-0.0916031,-4.2977099,-3.4961832
3980,-7.1634150,3.2153964,5.3462253,67.3816757,-138.0686951,-168.7022858,-0.7541697,0.8259954,10.6613255,0.1145038,-4.1374044,-3.7404580
3990,-7.3836803,3.2872221,5.0206151,66.5648880,-114.8091583,-142.0763397,-0.7278336,0.6967092,10.6086531,0.0305344,-3.7786260,-2.9083970
4000,-7.4387465,3.4524212,4.7381010,65.4427490,-90.9847336,-116.1068726,-0.7350162,0.7062859,10.5966825,0.1603053,-3.7709923,-2.6946564
4010,-7.3429790,3.4069316,4.3310885,63.4656487,-69.8167953,-91.5496216,-0.7541697,0.6871324,10.6637201,0.5496183,-3.4961832,-2.8091602
4020,-7.1490498,3.4045374,4.0485744,60.7633591,-52.0228996,-69.9083939,-0.7134684,0.7134684,10.6397781,0.4809160,-3.5801528,-2.6488550
4030,-7.0317345,3.2369442,3.8163381,58.2061081,-36.4732819,-50.2595406,-0.7493813,0.7158626,10.5392218,0.5725191,-3.5496182,-3.4045801
4040,-7.0293403,3.0908985,3.5793133,54.8854980,-23.9160309,-32.1679382,-0.7038917,0.7757174,10.6349897,0.6488550,-3.8778627,-2.6030533
4050,-6.7994981,2.9376705,3.1220231,50.5877876,-11.5877867,-16.3206100,-0.7685348,0.7062859,10.6565371,0.3969466,-3.8091602,-2.3893130
4060,-6.7180958,2.5234756,2.8730273,45.5725174,-3.9618320,-2.3740458,-0.7876883,0.7158626,10.5583754,0.2671756,-3.7099237,-1.9007634
4070,-7.5752153,0.9193687,2.3750360,30.7786255,10.5496187,45.4503822,-0.7948709,0.7421987,10.5511932,0.1221374,-3.7404580,-1.8396946
4080,-8.7890692,0.2873027,1.7070571,24.0152664,30.9770985,75.6870193,-0.8379663,0.6967092,10.5942879,-0.0916031,-3.8549619,-1.9618320
4090,-10.8265247,-0.2873027,1.0151364,11.4580154,61.4503822,120.7251892,-0.8236012,0.6991033,10.6254129,0.2519084,-4.0839696,-1.5648855
4100,-12.9358053,-0.6871324,-0.0047884,-8.7251911,106.0610657,182.2137451,-0.8020535,0.7158626,10.6565371,0.2061069,-4.2061067,-1.8396946
4110,-15.7082767,-1.4197544,-1.4053892,-41.2900772,177.7938995,250.1297760,-0.8451489,0.7445929,10.6349897,0.0763359,-3.9770992,-1.5648855
4120,-19.6131992,-3.7900019,-2.7221935,-88.5190811,250.1297760,250.1297760,-0.8619082,0.7134684,10.6182299,0.4503817,-4.2977099,-1.5267175
4130,-19.6131992,-8.1953106,-3.6822634,-153.5954132,250.1297760,250.1297760,-0.7996593,0.6847382,10.6709023,0.2290076,-4.1984735,-0.5725191
4140,-19.6131992,-13.6396971,-1.9440818,-240.9847260,250.1297760,250.1297760,-0.7182568,0.7709290,10.6613255,0.3511450,-4.1297708,-0.3053435
4150,-19.6131992,-19.6131992,4.0102673,-250.1374054,250.1297760,250.1297760,-0.7829000,0.6512195,10.5631638,0.2977099,-4.2748094,-0.2977099
4160,-12.8496151,-19.6131992,13.6684275,-250.1374054,250.1297760,250.1297760,-0.7350162,0.7374104,10.7044210,0.2366412,-4.2290077,0.1221374
4170,9.7036495,-19.6131992,19.6126022,-250.1374054,250.1297760,250.1297760,-0.6224893,0.7469871,10.6876621,0.9160305,-4.5725193,-0.2366412
4180,19.6126022,-19.6131992,19.6126022,-250.1374054,250.1297760,250.1297760,-0.6512195,0.7493813,10.6876621,0.9236641,-4.2442746,0.0839695
4190,19.6126022,-19.6131992,19.6126022,-250.1374054,250.1297760,250.1297760,-0.4333483,0.7206510,10.8001890,1.5419847,-4.1526718,-0.6259542
4200,19.6126022,-15.6005383,19.6126022,-74.0992355,-65.3511429,250.1297760,-0.4309541,0.7781116,10.8648319,2.3282442,-3.5343511,-1.5572519
4210,19.6126022,-7.0628591,19.6126022,250.1297760,-250.1374054,175.2671814,-0.3615226,0.8810617,10.7594872,2.8320611,-2.7786260,-1.7022901
4220,19.6126022,-0.2561783,2.7126167,250.1297760,-250.1374054,-86.5877838,-0.3543400,0.8140244,10.6996326,3.2595420,-1.6030535,-3.8015268
4230,19.6126022,3.5864959,-9.8736372,201.0305328,-250.1374054,-162.4656525,-0.4285599,0.9050036,10.5080976,2.9236641,-1.4045801,-4.1221375
4240,14.0107965,1.8171898,-6.7085190,19.6793900,-250.1374054,-107.5801544,-0.5386927,0.8690908,10.3093796,2.4274809,-1.4885496,-5.5114503
4250,11.0755205,-1.0654143,0.0766141,-82.3587799,-90.6106873,-12.1526718,-0.6823440,0.9768293,10.2998028,0.9389313,-1.9007634,-5.4809160
4260,9.8425131,0.0000000,4.8362627,-127.4580154,158.1603088,79.8244247,-0.7086801,0.8786675,10.2806492,-0.7786260,-2.2213740,-5.7786260
4270,12.6389265,2.2792683,8.5233145,-135.5725250,247.1145020,125.5725174,-0.7326220,0.8379663,10.3859940,-2.2137403,-3.5038168,-5.0610685
4280,15.8231983,3.5410061,10.4865494,-117.8549652,244.0839691,116.7251892,-0.8403605,0.7733232,10.4626083,-3.6030533,-5.0152674,-6.2213740
4290,16.8431225,4.0246325,11.7985659,-84.1832047,190.2290039,75.2671738,-0.8762733,0.6440369,10.6134415,-4.4122138,-5.9618320,-5.6030536
4300,15.3395720,3.6966286,11.9254580,-40.2519073,118.0687027,27.9007626,-0.9337339,0.6009415,10.6565371,-4.2137403,-7.0381680,-5.7099237
4310,12.4689388,2.9233053,10.1058741,2.4122138,70.4732819,-3.6717558,-1.1180865,0.5291159,10.7810354,-3.1984732,-7.1068702,-5.4809160
4320,9.8616667,2.4564383,7.7308378,29.6030540,42.6412201,-17.4961834,-1.0606259,0.5123565,10.8528605,-1.5267175,-5.8167939,-5.1450381
4330,7.8816719,2.0326669,5.5952206,39.5496178,16.5496178,-19.7251911,-1.0223188,0.4668669,10.8552551,0.1755725,-3.9083970,-3.9847329
4340,6.4882536,1.7022687,4.3167233,38.1374054,-9.0229006,-14.5725193,-0.9576758,0.5434810,10.8744087,1.6946565,-2.9236641,-3.0076337
4350,6.4547348,1.3766589,3.8690102,32.5572510,-27.6641216,-4.6946564,-0.7924767,0.6081241,10.6661139,2.9389312,-2.3587787,-2.2442749
4360,8.4562769,1.2641320,3.8809812,17.1068707,-26.7251911,10.7099237,-0.4932030,0.7278336,10.5583754,2.6183207,-2.2900763,-2.6870229
4370,9.4402885,1.3670821,4.9487896,3.0381680,3.3893130,13.6564884,-0.5841822,0.9097920,10.3476868,0.5267175,-3.5648854,-4.6259542
4380,7.9511032,0.9145803,4.7883787,7.4274807,9.0229006,12.7557249,-0.7302278,0.9050036,10.5464048,-3.6488550,-5.4503818,-3.3511450
4390,9.1888990,1.2042773,4.6447277,-13.1908398,3.3587787,12.1984730,-0.7374104,0.6584021,10.8432837,-0.3206107,-3.3206108,-2.7633588
4400,11.4202833,1.7453641,5.4874821,-35.0458031,42.4274826,13.7022905,-0.7876883,0.5554519,10.8624372,0.8473282,-2.5496182,-3.1068702
4410,10.2519188,0.9289455,7.2519999,-39.8931313,47.9541969,7.1984735,-0.7900825,0.5315101,10.8337069,2.1450381,-1.7480916,-2.9618320
4420,8.2838955,1.2521610,7.1107426,7.9389315,5.6259542,-2.2213740,-1.0725969,0.5339043,10.5176744,2.9083970,-1.5419847,-1.4732825
4430,7.6278877,1.0749911,5.7053533,4.4351144,5.3053436,-1.0152671,-0.9911944,0.7086801,10.6325951,0.4580153,-4.6030536,1.1450381
4440,7.6278877,1.1037214,5.7747850,1.5343511,8.1755724,2.2977099,-0.9313397,0.7230452,10.5152798,-0.0305344,-5.2366414,1.4351145
4450,7.7284436,1.1851238,5.7915444,-0.5343512,8.3587790,4.1679387,-0.7565638,0.7996593,10.6732969,-0.0076336,-5.7404580,1.9083970
4460,7.9606800,1.2425843,5.9591374,-1.5954199,7.5801525,4.3740458,-0.6607963,0.8068419,10.5727406,-0.1755725,-5.7099237,1.0992366
4470,8.1977043,1.2066715,6.1674318,-1.1603054,5.7022901,3.2519083,-0.5147507,0.9241571,10.6732969,0.0381679,-5.4580154,1.5648855
4480,8.4155760,1.2737088,6.1554613,0.5954198,4.5190840,1.4122137,-0.4213773,0.9600700,10.7116032,0.2824427,-5.2213740,1.0229008
4490,8.4467001,1.1899122,6.1195483,1.9007634,4.7633586,-0.1221374,-0.2968795,0.9552816,10.5942879,0.4503817,-4.8625956,0.0763359
4500,8.3341732,1.1923064,6.1267309,3.5038168,4.7404580,-1.5496184,-0.2226596,0.9361281,10.7044210,0.6183206,-4.2213740,-0.4809160
4510,8.2791071,1.1468167,5.9926562,5.0839696,4.4580154,-1.8091604,-0.2489957,0.9289455,10.6373835,0.6106870,-3.7557251,-1.8625954
4520,8.2120695,1.1516051,5.8011212,5.5801525,4.4732823,-0.5725191,-0.2274480,0.9289455,10.6158361,0.5572519,-3.0534351,-2.6335878
4530,8.2815018,1.1109039,5.6766233,4.5114503,5.9160304,0.7251908,-0.3615226,0.8188128,10.5871058,0.2900763,-3.0381680,-4.1755724
4540,8.2934723,1.0821736,5.6933827,3.0610688,5.6183205,1.5801526,-0.4453192,0.7326220,10.7618818,0.0610687,-2.8396947,-4.8702292
4550,8.3245964,1.1539993,5.6383162,1.1755725,5.0229006,1.7404580,-0.6368544,0.6177009,10.5416164,0.1145038,-2.4961832,-6.1832061
4560,8.3557215,1.2449785,5.5880380,-1.3969465,5.0305343,1.5725191,-0.8044477,0.6871324,10.6780853,0.2824427,-2.2748091,-6.3511453
4570,8.2695303,1.2425843,5.6718349,-3.5725191,5.1603055,1.5267175,-0.9002152,0.6488253,10.6349897,0.5954198,-2.3282442,-6.2366414
4580,8.1881275,1.2090657,5.7556314,-5.6183205,4.3206105,1.7557251,-0.9361281,0.6488253,10.6828737,1.0610687,-2.2824428,-5.4961834
4590,8.2288294,1.1324517,5.7723908,-7.4274807,3.8473282,1.4580153,-0.9672526,0.6655847,10.6014709,1.2595420,-2.1526718,-4.8015265
4600,8.1977043,1.1300575,5.9639258,-8.2824430,5.0687022,1.1450381,-0.9816177,0.6177009,10.4410601,1.2213740,-2.2442749,-4.5801525
4610,8.2431946,1.1683644,6.1171541,-8.1374044,6.5496182,0.9847328,-0.9911944,0.6320660,10.4362717,0.8244275,-2.6335878,-3.9770992
4620,8.2240410,1.1899122,6.1913738,-7.1755724,6.5114503,1.0610687,-0.9624642,0.7469871,10.5775290,0.4885496,-3.1908398,-4.1221375
4630,8.1881275,1.1659702,6.2560172,-5.8167939,6.0000000,1.0305344,-0.8762733,0.7493813,10.5895004,-0.2977099,-4.0610685,-3.9389312
4640,8.1905222,1.1300575,6.2751703,-4.2213740,5.7709923,1.2595420,-0.9217629,0.7110743,10.5871058,-0.7633588,-4.8396945,-3.5267177
4650,8.1378498,1.0582317,6.1578555,-3.0687022,4.8396945,1.4961832,-0.7852941,0.6847382,10.6325951,-0.9847328,-5.3358779,-3.7328243
4660,8.2312231,1.1013272,6.1913738,-2.3358779,3.6412213,1.8091604,-0.7637464,0.7781116,10.5703468,-1.0916030,-5.5114503,-3.8702290
4670,8.3174143,1.1468167,6.1339135,-2.2366412,3.7480917,2.1068702,-0.7781116,0.7709290,10.7259684,-0.9007633,-5.0458016,-3.1374047
4680,8.2048874,1.1611819,6.1458845,-1.6564885,3.4961832,1.5572519,-0.6943150,0.7948709,10.6397781,-0.8244275,-4.9389315,-3.2213740
4690,8.2192526,1.1372399,6.0046272,-1.3435115,2.4732823,1.4427481,-0.7493813,0.7541697,10.7092094,-0.5038168,-4.5572519,-4.0839696
4700,8.2024927,1.1563935,6.1291251,-1.3587786,2.1374047,1.8473282,-0.7805058,0.7421987,10.6900558,-0.2900763,-3.9312978,-2.8091602
4710,8.3198080,1.1252691,5.9136481,-1.8549619,1.7633588,2.5343511,-0.8140244,0.7254394,10.6086531,0.1450382,-3.8931298,-3.1145039
4720,8.6071110,1.1803354,5.7173243,-3.1603053,2.3435113,2.7251909,-0.7685348,0.7326220,10.6685085,0.3358779,-3.5572519,-2.4351146
4730,8.6310530,1.2258250,5.6742291,-5.3511453,1.6488550,2.9236641,-0.8212070,0.7541697,10.7092094,0.2442748,-3.4122138,-2.1832061
4740,8.7579451,1.2473727,5.5808558,-8.6183205,0.2595420,6.0381680,-0.7876883,0.7445929,10.5966825,0.5038168,-3.4351146,-2.1374047
4750,9.3253679,0.7685348,5.2743993,-12.4580154,-4.0076337,12.9694653,-0.8259954,0.7541697,10.5775290,0.4580153,-3.8473282,-1.8931298
4760,9.9382801,-0.0646431,4.7692256,-18.7175579,-12.7786255,24.9083977,-0.8643024,0.7852941,10.6709023,0.1526718,-4.7099237,-1.7786260
4770,12.9429884,0.1508339,3.9887197,-37.9771004,-5.5954199,41.1755714,-0.9433106,0.8092360,10.6900558,0.0534351,-5.7786260,-0.8702290
4780,18.3035774,1.5897418,4.7357068,-74.7938919,29.1297703,46.4656487,-0.9768293,0.8331779,10.6661139,0.0000000,-5.0305343,0.3587786
4790,19.6126022,2.5306582,6.9934273,-104.6488571,76.8473282,18.7633591,-0.7948709,0.7948709,10.7211800,0.3511450,-4.2061067,1.1526718
4800,19.6126022,1.5777708,9.9837704,-118.7404556,111.4885483,-33.2213745,-0.7829000,0.6823440,10.7211800,0.7709923,-4.0305343,1.7251909
4810,14.6715927,-0.8379663,9.4259243,116.6412201,-92.9389343,-250.1374054,-0.8355721,0.7589580,10.4745789,-1.2671756,-4.2824426,-3.4732823
4820,14.5063934,-0.9696468,8.0157461,120.5343475,-94.1603088,-250.1374054,-0.8786675,0.8212070,10.5344334,-1.4656489,-4.6946564,-3.4198472
4830,14.0131912,-1.0318956,6.5864153,117.2290039,-98.6946564,-250.1374054,-0.9217629,0.7661406,10.5320396,-2.0992367,-5.1603055,-3.2671757
4840,12.0068598,-0.6153067,5.4994531,107.7557220,-101.5801544,-250.1374054,-0.9289455,0.7469871,10.5152798,-3.0534351,-6.1755724,-2.0687022
4850,10.6158361,-0.6368544,5.5545197,92.3740463,-127.0305328,-250.1374054,-0.9121862,0.7038917,10.5655584,-3.5877862,-6.9618320,-1.8015267
4860,7.0676475,-1.2282192,5.7292953,76.7480927,-138.5572510,-250.1374054,-0.8140244,0.6823440,10.7092094,-4.3053436,-8.4503813,-1.3129771
4870,5.8873119,-1.0342898,5.5233951,74.9007645,-135.0229034,-250.1374054,-0.6727672,0.6177009,10.7930059,-3.8167939,-7.8473282,-1.0610687
4880,4.7524662,-1.0606259,4.9799142,72.1984711,-127.1221390,-250.1374054,-0.6631905,0.6320660,10.8552551,-2.6488550,-6.8549619,-1.3053435
4890,3.2920105,-0.7996593,4.5657191,68.6717529,-117.9236679,-250.1374054,-0.6751614,0.6344602,10.8648319,-1.2519084,-5.5648856,-1.4656489
4900,1.9752063,-0.6105183,4.2233500,63.6793900,-110.5725174,-250.1374054,-0.5793939,0.6368544,10.8408899,0.1374046,-4.3129773,-1.1526718
4910,0.8499373,-0.3806761,3.8426740,58.6412201,-103.7251892,-250.1374054,-0.6081241,0.7302278,10.7834291,1.5648855,-3.3053436,-1.0458015
4920,-0.1508339,0.1244979,3.6415622,54.0687027,-96.5725174,-250.1374054,-0.5075682,0.7996593,10.7738523,2.6412213,-2.1068702,-0.5648855
4930,-1.0175306,0.4932030,3.4955165,49.6183205,-91.5496216,-250.1374054,-0.4405309,0.8547257,10.8001890,2.8320611,-1.5419847,-0.8244275
4940,-1.9081690,0.6560079,3.4428444,44.9923668,-91.7557220,-250.1374054,-0.3854645,0.9026094,10.6038647,3.0458016,-1.0229008,-1.3587786
4950,-2.5354466,0.8164186,3.5649481,41.7557259,-95.1832047,-250.1374054,-0.3160330,0.8714849,10.7283630,3.2137403,-0.7251908,-1.6259542
4960,-3.1938488,0.9337339,3.8139439,40.0381660,-100.2213745,-250.1374054,-0.3375807,0.8475431,10.6469603,3.0610688,-0.4580153,-3.1526718
4970,-3.8474624,0.9888002,4.1036406,39.1755714,-102.6793900,-250.1374054,-0.4333483,0.7924767,10.5727406,2.7328243,-0.6106870,-3.9770992
4980,-4.4555864,0.9552816,4.1970143,38.7328262,-97.9618301,-250.1374054,-0.5291159,0.8068419,10.6493549,2.4122138,-0.7404580,-5.0076337
4990,-5.1570840,1.0582317,4.3334827,37.5648842,-84.4656525,-242.3282471,-0.5937590,0.7805058,10.7044210,2.1221373,-0.8931298,-5.6641221
5000,-6.0094156,0.9744351,4.2975702,35.4732819,-64.1679382,-223.4732819,-0.6895266,0.7038917,10.6421719,2.2442749,-0.6412213,-5.3511453
5010,-7.0484939,1.0079538,4.6543045,33.2137413,-44.2290077,-202.5648804,-0.7876883,0.6943150,10.7235746,2.0000000,-1.0458015,-4.7633586
5020,-7.8912482,0.9145803,4.9176650,32.2442741,-30.3053436,-181.0534363,-0.8858501,0.6919208,10.5631638,2.0000000,-1.4274809,-4.9541984
5030,-8.7794924,0.5602403,5.3127065,35.1679382,-19.8473282,-156.9007568,-0.9624642,0.6679789,10.4889441,1.8167939,-1.5343511,-4.3816795
5040,-9.7275915,0.4453192,5.3581958,41.0687027,-13.7404585,-129.5801544,-0.9911944,0.6416427,10.5895004,1.5496184,-2.2519083,-4.3358779
5050,-10.7570934,0.3423691,5.3653784,45.5496178,-10.1984730,-97.8473282,-0.9672526,0.6607963,10.5104914,1.3664122,-2.4503818,-4.0992365
5060,-11.4873209,0.2442073,5.2121506,49.5648842,-4.5496182,-60.6564903,-1.0223188,0.6464311,10.5344334,1.1755725,-2.6259542,-3.8473282
5070,-12.0188313,-0.0191535,4.9655490,53.0076332,1.3282443,-20.9389305,-0.9792235,0.6344602,10.5895004,0.9236641,-2.9236641,-3.1221373
5080,-12.1193867,-0.1963235,4.4699516,55.5343513,6.3816795,20.9694653,-0.9289455,0.6895266,10.6541433,1.0458015,-2.8854961,-2.9160306
5090,-11.8009596,-0.3447633,4.1108232,54.8320618,13.4809160,63.0763359,-0.8427547,0.7182568,10.6086531,1.0152671,-3.1908398,-2.7633588
5100,-11.2838144,-0.5722113,3.4835455,51.3206100,27.6488552,105.4198456,-0.8212070,0.7421987,10.5607700,1.3893130,-2.8854961,-2.7480917
5110,-10.8696203,-0.9409165,2.9304879,43.9236641,50.1603050,147.6870270,-0.8140244,0.7781116,10.5679522,1.6259542,-2.6335878,-2.7938931
5120,-10.7235746,-1.5514348,2.3558824,33.6106873,77.3664093,192.9847260,-0.7421987,0.7613522,10.5823174,1.4045801,-2.5343511,-2.0458016
5130,-10.7451220,-2.1882892,1.6807210,20.6412220,107.7633591,241.2977142,-0.6871324,0.7948709,10.5152798,0.9236641,-2.7404580,-2.5648854
5140,-11.3604288,-3.0023136,0.8547257,2.4503818,143.1221313,250.1297760,-0.6991033,0.7517755,10.5631638,0.2748092,-3.2290077,-2.6870229
5150,-12.9477768,-3.9671719,0.7685348,-16.0305347,168.1450348,250.1297760,-0.7805058,0.7733232,10.5296450,-0.1145038,-4.2061067,-3.1755726
5160,-15.1719790,-5.5545197,0.8882443,-30.5267181,181.3969421,250.1297760,-0.8259954,0.7805058,10.4913378,-0.9465649,-4.4122138,-3.6259542
5170,-17.2142220,-7.8409705,0.8571198,-45.1679382,187.0458069,250.1297760,-0.7829000,0.7829000,10.5607700,-1.2977099,-4.9160304,-2.9007633
5180,-17.0729656,-11.8608141,2.3008161,-63.3435097,180.7480927,250.1297760,-0.9050036,0.7254394,10.6493549,-1.2824427,-4.9694657,-2.6870229
5190,-15.1839495,-17.7026367,4.3382711,-82.2977066,211.2061005,250.1297760,-0.8643024,0.7661406,10.6325951,-0.9160305,-4.9618320,-2.2442749
5200,-8.4993725,-19.6131992,6.9527264,-104.2671738,250.1297760,250.1297760,-0.8331779,0.8188128,10.7642756,-0.6030535,-4.4351144,-1.8091604
5210,7.2855186,-19.6131992,7.4890246,-126.4732819,250.1297760,250.1297760,-0.7565638,0.7876883,10.7379398,-0.1221374,-4.1984735,-1.2671756
5220,19.6126022,-19.6131992,8.2192526,-149.7633514,250.1297760,250.1297760,-0.6967092,0.7445929,10.7163916,0.2137405,-3.7175572,-1.2290076
5230,19.6126022,-19.6131992,14.8679161,-169.9084015,250.1297760,250.1297760,-0.7350162,0.7589580,10.7475166,0.7328244,-2.9465649,-1.4198474
5240,19.6126022,-5.9806852,19.6126022,-160.4732819,250.1297760,250.1297760,-0.8499373,0.7637464,10.6541433,0.7633588,-2.7633588,-1.1068702
5250,19.6126022,-0.3327923,19.6126022,-61.8854980,201.2824402,250.1297760,-0.8307837,0.7805058,10.6230183,1.0000000,-2.7251909,-1.2595420
5260,19.6126022,-4.5417776,19.6126022,104.6793900,74.8854980,78.5038147,-0.7493813,0.7398046,10.7092094,1.1450381,-2.6641221,-0.8702290
5270,17.4967365,-3.4069316,16.1033192,229.3053436,-106.1450348,22.7709923,-0.7924767,0.7086801,10.6589317,1.3206106,-2.2824428,-0.7633588
5280,8.3605099,-3.1555417,4.8075323,250.1297760,-249.6412201,57.2595406,-0.8188128,0.7637464,10.7379398,1.5801526,-1.8091604,-0.6488550
5290,11.5112629,-0.9337339,-1.5634058,215.9313049,-237.7786255,122.9312973,-0.8762733,0.7876883,10.6852674,1.6946565,-2.0152671,-0.5801527
5300,19.6126022,1.4556671,-4.8721757,133.7786255,-94.0534363,164.1145020,-0.9169745,0.6991033,10.6852674,1.6793894,-2.3969467,-0.3129771
5310,19.6126022,4.2496862,-4.1347651,39.6183205,96.1526718,147.8854980,-0.9121862,0.6847382,10.6445665,1.7786260,-2.1297710,0.5572519
5320,19.6126022,5.7269011,-0.2585725,-25.0916023,226.1603088,107.5648880,-0.9265513,0.7829000,10.6325951,1.5877863,-2.5114503,0.5190840
5330,19.6126022,4.6447277,2.6647329,-53.0228996,250.1297760,60.8625946,-0.9313397,0.7421987,10.5296450,1.4198474,-2.8778627,0.9389313
5340,17.5925045,3.3183465,3.4691806,-39.3282433,211.2748108,2.0381680,-0.8475431,0.7948709,10.5871058,1.0992366,-3.4274809,1.4885496
5350,12.0308018,2.9855542,3.6870518,-26.6183205,110.1145020,-14.8702288,-0.8786675,0.7661406,10.5775290,0.6335878,-4.0763359,1.4580153
5360,11.1952295,2.9592183,3.9695661,-18.5801525,-8.1221371,-22.5572510,-0.8666966,0.7733232,10.6493549,0.5419847,-4.7404580,1.6030535
5370,11.9254580,2.2074428,4.0581512,-11.0229006,-95.3664093,-38.2977104,-0.7876883,0.7398046,10.6158361,0.6259542,-5.1526718,1.1145039
5380,12.1193867,1.7764885,4.1539187,-8.5725193,-137.9541931,-48.8396950,-0.7972651,0.7278336,10.6996326,0.7175573,-5.4427481,1.3969465
5390,13.7857428,1.5705882,4.3861551,-10.5648851,-166.4427490,-54.5801544,-0.7685348,0.7852941,10.7116032,1.5114504,-4.8167939,1.2366412
5400,16.0697994,1.5849534,4.4172797,-16.9923668,-169.1297760,-61.7557259,-0.7661406,0.7996593,10.6397781,2.0534351,-4.3435116,0.8091603
5410,18.6866493,1.5777708,4.5226240,-26.8396950,-147.5267181,-73.1221390,-0.6296718,0.8403605,10.6086531,2.4580152,-4.7633586,0.8778626
5420,19.6126022,1.7525467,4.5752959,-39.1832047,-109.6870193,-93.6183243,-0.5937590,0.8164186,10.5823174,2.5496182,-4.7022901,0.8549618
5430,19.6126022,1.5131277,4.5896611,-53.4732819,-68.2671738,-124.3740463,-0.5267217,0.8212070,10.5392218,2.3435113,-4.0687022,-0.1297710
5440,19.6126022,1.1683644,4.9655490,-68.5419846,-46.5343513,-162.1832123,-0.5147507,0.7852941,10.4530315,1.8702290,-4.1221375,-1.2595420
5450,19.6126022,0.6560079,5.9902620,-77.8549652,-58.1450386,-205.5114441,-0.5267217,0.8475431,10.4195127,1.3587786,-3.7709923,-1.9770992
5460,19.6126022,0.1508339,7.1969333,-75.3816757,-92.8473282,-250.1374054,-0.5051740,0.8930327,10.3428984,0.4351145,-3.3969467,-3.6641221
5470,19.6126022,-0.5003856,8.2168579,-61.1450386,-124.4427490,-250.1374054,-0.5147507,0.8475431,10.3524752,-0.9541985,-2.5954199,-3.6870229
5480,18.9356441,-0.8690908,8.4706421,-40.9465637,-140.1984711,-250.1374054,-0.6320660,0.8044477,10.3213511,-2.3816793,-2.3206108,-4.3358779
5490,17.2860470,-1.0510491,7.4818420,-23.6488552,-142.3816833,-250.1374054,-0.6847382,0.7757174,10.4195127,-3.2595420,-2.9847329,-4.6335878
5500,15.1264887,-1.4173602,6.2177100,-14.8244276,-140.9847260,-250.1374054,-0.7805058,0.7421987,10.6900558,-3.6183207,-4.5954199,-5.7480917
5510,13.0674858,-1.6041069,5.3198891,-12.7862597,-147.6717529,-250.1374054,-0.8690908,0.6296718,10.8073711,-3.4580152,-6.4809160,-6.7175574
5520,11.3843708,-1.7166338,5.2648225,-12.3816795,-167.9389343,-250.1374054,-0.8834559,0.5841822,10.9079275,-2.3664122,-7.1297708,-6.3435116
5530,10.1274214,-1.8147956,5.2456689,-9.7175570,-197.0000000,-250.1374054,-0.8666966,0.6272776,10.8049774,-0.6183206,-5.9541984,-5.7175574
5540,9.6198530,-2.2960277,5.3151007,-5.2900763,-224.3664093,-250.1374054,-0.8547257,0.5913648,10.7810354,0.9312977,-3.7022901,-5.0305343
5550,9.5647869,-2.6264257,5.1666608,-1.5572519,-246.4198456,-250.1374054,-0.7613522,0.6584021,10.6493549,1.9541985,-1.4732825,-4.5648856
5560,8.6310530,-3.1699069,4.6638808,-2.4809160,-250.1374054,-250.1374054,-0.6296718,0.7876883,10.5080976,2.0916030,-0.7862595,-4.5572519
5570,6.4547348,-3.9073172,4.8649931,-12.2595415,-237.4274750,-250.1374054,-0.6272776,0.9002152,10.3740225,1.4580153,-1.2366412,-5.0763359
5580,3.4715748,-4.4507980,6.0596933,-24.2900772,-220.5267181,-250.1374054,-0.5506636,0.9217629,10.5344334,0.8091603,-2.8015268,-6.3664122
5590,0.2178712,-4.9823084,7.6111283,-29.5343513,-192.6335907,-250.1374054,-0.5123565,1.0103480,10.5224628,0.3282443,-3.4732823,-7.2519083
5600,-3.1651185,-5.6024032,8.8034344,-23.4732819,-156.4885559,-250.1374054,-0.5698171,0.9816177,10.6517487,0.2748092,-3.7022901,-7.4045801
5610,-7.4100165,-5.9423780,9.0787668,-6.3053436,-125.2061081,-250.1374054,-0.6751614,0.9768293,10.7068148,0.8396947,-2.8931298,-7.0534353
5620,-11.0228481,-5.6933827,9.0404596,16.9770985,-117.9542007,-250.1374054,-0.7350162,0.9672526,10.5871058,0.6564885,-1.9770992,-5.8549619
5630,-14.0371332,-4.7644372,8.6214762,44.7633591,-133.4656525,-250.1374054,-0.8140244,0.9337339,10.4673967,0.6641222,-1.8549619,-5.3816795
5640,-15.7777081,-3.3494711,7.4626884,68.4732819,-159.5114441,-248.4045868,-0.7781116,0.8355721,10.5607700,0.0534351,-2.3206108,-4.7938933
5650,-15.8926296,-2.1092808,5.7532372,78.5648880,-151.8396912,-180.0000000,-0.8810617,0.7661406,10.5871058,-0.3129771,-2.9541984,-4.3893127
5660,-16.1895084,-1.6615674,3.4332676,69.6259537,-92.3282471,-106.7709961,-0.9792235,0.7900825,10.5583754,-0.7938932,-3.2442749,-3.6870229
5670,-19.6131992,-12.7706070,3.5074875,-198.3740387,250.1297760,250.1297760,-1.3455344,0.5530578,10.7020273,1.7557251,-2.7633588,-0.9541985
5680,-19.6131992,-19.6131992,8.0420828,-219.0305328,250.1297760,250.1297760,-1.3359578,0.5674229,10.5966825,1.7938931,-3.0152671,0.3053435
5690,-9.7826586,-19.6131992,11.5495701,-213.7786255,250.1297760,250.1297760,-1.2832855,0.5913648,10.5152798,1.6641221,-3.9923663,1.6335878
5700,10.3309278,-19.6131992,13.9533358,-200.7328186,250.1297760,250.1297760,-1.1659702,0.6272776,10.4410601,1.0305344,-4.7404580,2.5114503
5710,19.6126022,-19.6131992,14.1759958,-203.1832123,250.1297760,250.1297760,-1.0582317,0.6607963,10.3740225,0.6793893,-5.3129773,3.1832061
5720,19.6126022,-18.3155499,17.0322647,-238.6870270,250.1297760,250.1297760,-0.9504932,0.6967092,10.5104914,0.4580153,-5.7251906,3.4427481
5730,19.6126022,-2.3726418,19.6126022,-208.7480927,250.1297760,250.1297760,-0.8906385,0.8140244,10.6182299,0.3282443,-6.0992365,3.6793892
5740,19.6126022,0.4620786,19.6126022,-36.0763359,-60.0000000,105.8702316,-0.8403605,0.9193687,10.6062593,0.1374046,-6.2213740,4.0000000
5750,19.6126022,-0.8331779,19.6126022,165.3511505,-250.1374054,-161.4427490,-0.7326220,1.0342898,10.5511932,0.2137405,-5.8931298,4.6564884
5760,18.0450058,-1.3096216,13.7522240,243.4198456,-250.1374054,-250.1374054,-0.5769997,1.0486550,10.6804790,0.3358779,-5.6564884,4.6641221
5770,7.0963774,0.1268920,7.2783360,230.0534363,-250.1374054,-225.2061005,-0.3806761,1.0295014,10.7283630,0.4503817,-4.8854961,4.5038166
5780,2.9927368,1.2258250,3.9049230,193.0610657,-250.1374054,-113.6030502,-0.3064562,0.9840119,10.6732969,0.8702290,-4.9465647,3.9541984
5790,1.9392935,1.8387375,0.9217629,147.8015289,-144.1755676,15.4656487,-0.1484398,0.9816177,10.5583754,1.2137405,-4.9389315,1.7175573
5800,3.0454090,2.4372849,-1.5993185,94.0381699,66.9389343,128.4732819,-0.0454896,0.9672526,10.5751352,1.0000000,-5.0229006,0.5419847
5810,8.2695303,3.9743545,-1.8650736,42.8091621,196.9084015,192.0381622,-0.0766141,0.8547257,10.5440102,0.5496183,-3.8320611,-1.0000000
5820,12.8927097,5.3797436,-0.3423691,6.4122138,250.1297760,201.4809113,-0.1532281,0.7589580,10.4721851,0.4580153,-2.7557251,-2.8015268
5830,15.5287132,6.0596933,1.4484847,-15.0534353,250.1297760,176.7404633,-0.3591284,0.7900825,10.5942879,0.4503817,-2.1603053,-5.2213740
5840,15.4568872,5.5928264,3.0908985,-21.2442741,250.1297760,137.3206177,-0.4381367,0.8331779,10.5942879,0.2824427,-1.7709924,-6.2748094
5850,13.8120794,4.5154414,3.7923961,-13.4122133,237.9084015,99.4961853,-0.6416427,0.6967092,10.4530315,0.1984733,-1.6106870,-7.1679387
5860,12.4354200,3.8307030,3.9121056,2.5190840,145.3206177,64.6946564,-0.8427547,0.7637464,10.6493549,0.1755725,-1.9236641,-7.6717558
5870,11.8943329,3.2034254,3.7253587,18.7175579,21.7175579,32.7099228,-0.9433106,0.7493813,10.5751352,0.2748092,-1.7480916,-7.5038166
5880,12.8687687,3.0837159,3.1100521,29.8091602,-75.6106873,5.9236641,-1.0797794,0.7134684,10.5895004,0.4732825,-1.7786260,-7.5496182
5890,13.8025026,2.8562679,2.3630650,30.6641216,-129.3893127,-15.1908398,-1.1587877,0.7565638,10.4961262,0.5572519,-1.7709924,-6.5648856
5900,15.2198620,3.0071020,1.9297167,20.4351139,-150.0763397,-29.6335869,-1.1947005,0.7493813,10.4937325,0.1984733,-1.7709924,-5.2595420
5910,17.6475697,3.3901722,2.1954718,2.7557251,-131.6946564,-42.1145020,-1.2138541,0.7948709,10.3309278,-0.1145038,-2.1450381,-4.3587785
5920,19.0577488,3.5960727,2.6814921,-15.3969469,-76.9770966,-56.5572510,-1.1923064,0.7829000,10.4697905,-0.8931298,-3.4198472,-3.6870229
5930,19.1846409,3.1483591,3.4739690,-30.8015270,-15.7022905,-72.5954208,-1.0151364,0.7398046,10.6565371,-1.4122137,-4.9618320,-3.0992367
5940,19.0122585,2.6958573,4.1132174,-41.0839691,28.1221371,-85.8396912,-0.9073978,0.7038917,10.5727406,-1.2900764,-5.3816795,-2.5190840
5950,19.4527893,2.5976956,4.8673873,-44.9160309,49.5496178,-102.0534363,-0.7781116,0.6919208,10.6349897,-1.2671756,-5.3053436,-3.0305343
5960,19.6126022,2.6336083,5.5042415,-42.0916023,50.6641235,-127.4122162,-0.7350162,0.7326220,10.7139978,-0.9236641,-5.5038166,-3.3969467
5970,19.6126022,2.4660151,5.5210009,-35.3969460,30.2213745,-164.2671814,-0.7805058,0.7326220,10.6014709,-0.5954198,-5.5114503,-2.4732823
5980,19.6126022,2.5665710,5.4276276,-26.5725193,-14.0152674,-207.9236603,-0.8116302,0.8212070,10.5440102,-0.5954198,-5.2290077,-2.7404580
5990,19.6126022,2.3391230,5.2049680,-18.4580154,-72.7328262,-250.1374054,-0.8403605,0.8906385,10.4530315,-0.8396947,-4.9847326,-1.9312977
6000,18.2676659,2.0063307,5.0158267,-12.6717558,-124.7633591,-250.1374054,-0.8236012,0.9050036,10.4961262,-1.4809160,-5.0534353,-1.0000000
6010,16.5534267,1.2784972,4.6543045,-10.9694653,-155.8091583,-250.1374054,-0.8307837,0.9241571,10.4434547,-1.9083970,-5.5114503,-0.6183206
6020,14.5734310,0.6799498,4.2018023,-12.7175570,-167.1374054,-250.1374054,-0.7278336,0.9193687,10.6493549,-2.4885497,-5.9160304,-0.2137405
6030,12.2678270,0.3447633,4.2712340,-13.9465647,-169.8778687,-250.1374054,-0.7445929,0.9097920,10.6541433,-3.1221373,-6.5419846,-0.4961832
6040,10.2423429,0.0790083,4.3670015,-11.8702288,-173.7404633,-250.1374054,-0.6464311,0.9145803,10.7331514,-2.6106870,-6.4045801,-0.1068702
6050,8.1881275,0.0550664,4.6543045,-5.4809160,-183.2061005,-250.1374054,-0.7517755,0.8236012,10.7307568,-2.0763359,-5.9083967,-0.2061069
6060,6.3374195,-0.1436514,4.5872669,2.0152671,-200.1603088,-250.1374054,-0.6703730,0.7254394,10.7546988,-1.1984733,-5.0000000,-0.0916031
6070,4.5920553,-0.1221037,4.1251884,9.6564884,-222.3435059,-250.1374054,-0.7062859,0.7062859,10.7810354,-0.2442748,-4.0305343,-0.6717557
6080,3.1842721,0.0335187,4.3382711,15.7862597,-250.1374054,-250.1374054,-0.7350162,0.6919208,10.6876621,0.4198473,-3.4580152,0.0610687
6090,1.8100072,0.0430954,4.3741841,22.8167934,-250.1374054,-250.1374054,-0.7182568,0.6919208,10.7475166,1.2290076,-2.9236641,-0.4732825
6100,0.7014975,0.3878587,4.8099265,28.1603050,-250.1374054,-250.1374054,-0.7469871,0.6991033,10.6397781,1.4045801,-3.1450381,-0.9465649
6110,-0.5458752,0.2585725,5.2696109,30.1908398,-250.1374054,-250.1374054,-0.8403605,0.7230452,10.4865494,1.5419847,-3.3206108,-0.3435115
6120,-1.4915800,0.0694315,5.4587522,26.3511448,-250.1374054,-250.1374054,-0.8188128,0.7757174,10.4985209,1.4427481,-3.1679389,-0.6412213
6130,-1.9225341,0.1675933,5.8370337,16.4961834,-250.1374054,-250.1374054,-0.8906385,0.7661406,10.5727406,1.0305344,-3.8320611,-0.8549618
6140,-2.5976956,0.0335187,5.8490047,4.8320613,-250.1374054,-250.1374054,-0.8786675,0.8259954,10.4841557,0.4045801,-3.9618320,-0.0076336
6150,-3.2513094,-0.0598547,5.8130918,-8.3969469,-250.1374054,-250.1374054,-0.8547257,0.7661406,10.5344334,0.0458015,-4.2442746,0.0992366
6160,-4.1491303,-0.2801202,6.1865854,-18.4885502,-192.5954132,-250.1374054,-0.7900825,0.8164186,10.5775290,-0.1221374,-3.5725191,0.0381679
6170,-5.2121506,-0.3112446,6.1794028,-26.0076332,-109.5801544,-226.8320618,-0.8571198,0.7996593,10.6230183,-0.0534351,-3.9847329,0.3740458
6180,-6.6175399,-0.4908088,6.2009506,-29.5419846,-30.9083977,-189.9313049,-0.6488253,0.8116302,10.6732969,-0.0763359,-4.6106873,0.4503817
6190,-8.7890692,-0.4046180,6.4260044,-28.9694653,29.2519093,-147.6870270,-0.5865764,0.8020535,10.6062593,-0.0534351,-3.7862597,-0.3816794
6200,-11.8344784,-0.1819584,6.6103573,-19.7480907,69.4732819,-93.2977066,-0.5913648,0.7541697,10.7427282,-0.0763359,-3.9389312,-1.1526718
6210,-17.1783085,0.4261657,5.4587522,-8.6793890,102.4122162,-14.6412210,-0.5674229,0.7589580,10.6062593,-0.0152672,-4.4045801,-1.7709924
6220,-19.6131992,0.5051740,3.0765336,-15.3053436,152.2061005,100.9007645,-0.5722113,0.7589580,10.5200682,-0.0229008,-4.2290077,-2.6488550
6230,-19.6131992,-1.2617378,2.0781565,-43.4503822,221.4045868,250.1297760,-0.6129125,0.7350162,10.4913378,-0.5190840,-4.1145039,-3.7022901
6240,-19.6131992,-5.0517397,3.5410061,-86.5725174,250.1297760,250.1297760,-0.7421987,0.7134684,10.5775290,-0.9694657,-4.4580154,-3.8167939
6250,-19.6131992,-10.4697905,7.2400289,-136.7175598,250.1297760,250.1297760,-0.7733232,0.7134684,10.6325951,-1.3053435,-4.5572519,-3.7938931
6260,-19.6131992,-18.2604828,12.3612003,-178.0305328,250.1297760,250.1297760,-0.7972651,0.6967092,10.6972389,-1.4503816,-4.6412215,-3.5038168
6270,-18.4903259,-19.6131992,18.7512913,-203.5801544,250.1297760,250.1297760,-0.7398046,0.7661406,10.6996326,-0.7709923,-4.0458016,-3.8167939
6280,-8.2886839,-19.6131992,19.6126022,-187.6564941,250.1297760,250.1297760,-0.7613522,0.7158626,10.8217363,0.3969466,-3.4198472,-4.5801525
6290,10.3788109,-19.6131992,19.6126022,-119.9770966,250.1297760,250.1297760,-0.7469871,0.7685348,10.8576488,1.8167939,-3.2519083,-3.4656489
6300,19.6126022,-19.6131992,19.6126022,12.1984730,250.1297760,250.1297760,-0.7733232,0.7876883,10.7307568,3.2519083,-1.8015267,-4.2366414
6310,19.6126022,-19.6131992,19.6126022,190.1832123,242.8473358,250.1297760,-0.7900825,0.8762733,10.7139978,4.2213740,-1.3358779,-3.7251909
6320,19.6126022,-7.2927012,12.8615856,250.1297760,137.8015289,250.1297760,-0.7661406,0.9433106,10.6230183,4.5496182,-1.2519084,-2.8320611
6330,19.6126022,4.5848727,-4.6351509,250.1297760,-134.9770966,181.1755676,-0.5746055,0.9935886,10.5344334,4.1526718,-1.4732825,-2.9083970
6340,19.3953285,3.5146701,-16.4456882,50.9771004,-250.1374054,-117.6412201,-0.5841822,0.9768293,10.3788109,1.7175573,-1.8396946,-3.1984732
6350,12.2845860,5.3797436,-5.4874821,-69.9007645,-250.1374054,-52.3129768,-0.6368544,0.9289455,10.4266949,0.5267175,-2.6946564,-4.3282442
6360,19.6126022,-0.1628049,1.8195840,-110.6793900,-192.0839691,6.4503818,-0.7326220,0.8666966,10.5344334,-0.2824427,-3.4198472,-4.4961834
6370,19.6126022,1.7525467,6.0980005,-117.0381699,76.7862625,12.5648851,-0.6895266,0.7493813,10.7092094,-1.0152671,-4.1603055,-4.6641221
6380,14.2909164,2.6719155,8.9949694,-109.7022934,207.6946564,23.6106873,-0.7613522,0.7733232,10.7235746,-0.8015267,-3.9847329,-4.8244276
6390,11.1593170,2.6767037,9.7275915,-72.9236679,249.5114441,32.2595406,-0.8020535,0.7134684,10.7499104,-0.0458015,-3.4198472,-4.2137403
6400,8.5137377,2.8849983,8.8585014,-27.4503822,236.3129730,43.0000000,-0.9026094,0.6512195,10.7546988,0.9160305,-2.4809160,-5.0763359
6410,7.3836803,2.6431851,5.3007355,30.4198475,182.7480927,63.5267181,-1.1013272,0.6631905,10.5535870,1.8854961,-1.9160305,-3.3511450
6420,7.5991573,2.5330524,3.5577655,38.2213745,175.1526642,70.9389343,-1.0773853,0.6847382,10.3955708,1.5038168,-2.3206108,-3.9312978
6430,7.8649125,2.8059900,2.0997043,33.4656487,179.8244324,75.1984711,-1.0749911,0.7158626,10.5200682,0.8625954,-3.0458016,-4.0992365
6440,8.2407999,3.1914546,1.2761030,20.8625946,173.9313049,73.9923630,-1.0773853,0.7326220,10.4195127,0.1908397,-4.1068702,-3.0076337
6450,8.8632889,3.5386121,1.3718705,7.3587785,147.3358765,65.2900772,-1.1492109,0.7421987,10.5368280,-0.6259542,-4.9923663,-2.6335878
6460,9.3133974,3.3015873,2.1140692,-1.7328244,104.8625946,50.8854980,-0.9864060,0.7900825,10.5440102,-1.1068702,-5.5038166,-1.9389313
6470,9.5887289,2.8538737,2.9304879,-5.4045801,59.7099228,35.9771004,-0.8307837,0.7996593,10.5655584,-0.9236641,-5.2748094,-1.8778626
6480,9.7658987,2.5785420,3.7612717,-5.2137403,16.3206100,22.2748089,-0.7900825,0.7661406,10.6230183,-0.3053435,-4.6183205,-1.6793894
6490,9.9239149,2.1787124,4.2616572,-2.0458016,-16.2213745,11.9007635,-0.7110743,0.7637464,10.8025827,0.2900763,-3.8702290,-1.9389313
6500,9.9837704,1.7357874,4.5202298,1.3435115,-30.6946564,5.2748094,-0.7014975,0.7900825,10.8073711,0.8931298,-3.8167939,-2.1374047
6510,9.8161764,1.6735384,4.6638808,2.2824428,-32.2366409,3.9541984,-0.6057299,0.8427547,10.6732969,1.3664122,-3.4885497,-2.5877862
6520,9.7012558,1.5490406,4.7883787,3.2671757,-22.8473282,6.8625956,-0.5626345,0.9097920,10.7187862,1.2900764,-3.4732823,-2.7480917
6530,9.7228031,1.4867916,4.7548604,4.4427481,-4.4961834,11.9694653,-0.6344602,0.9217629,10.6613255,1.5267175,-3.5190840,-2.7480917
6540,9.6437950,1.4269369,4.4412212,4.1755724,15.5343513,17.2519093,-0.5793939,0.9121862,10.6182299,1.4045801,-3.3740458,-3.7175572
6550,9.6461897,1.3575054,4.2784166,1.2366412,31.7633591,22.5572510,-0.6416427,0.8858501,10.5416164,1.2519084,-3.3358779,-3.7709923
6560,10.5775290,1.5873476,4.2616572,-9.5343513,49.0534363,29.8015270,-0.9097920,0.8188128,10.5895004,0.5038168,-3.0610688,-3.0534351
6570,15.2126799,2.0206959,4.1443419,-34.7328262,96.0381699,38.1297722,-0.8954269,0.8212070,10.6110477,0.2900763,-3.5267177,-2.9847329
6580,14.6644106,0.9097920,6.5792327,-34.3206100,57.2137413,2.5954199,-1.0438666,0.8116302,10.6565371,0.2900763,-4.1526718,-2.6946564
6590,11.2526903,1.3191984,7.0532823,-13.4656487,4.1908398,-22.2213745,-1.0534433,0.7948709,10.5942879,0.9236641,-3.9083970,-1.8931298
6600,8.1306677,1.7166338,5.4539638,6.5190840,-13.3816795,-23.4045811,-0.9911944,0.7900825,10.6852674,2.3129771,-3.6870229,-1.3358779
6610,6.9551206,1.4221486,5.0565281,5.6183205,-22.9083977,-20.7251911,-0.9792235,0.7733232,10.6254129,2.6412213,-3.7786260,-0.5572519
6620,7.0700417,1.2832855,4.5824785,5.8854961,-26.4732819,-9.1984730,-0.8643024,0.8834559,10.5176744,2.0687022,-4.1450381,0.2061069
6630,8.1665802,1.0223188,4.9200592,-12.8473282,23.4122143,8.6946564,-0.7876883,0.8595140,10.5416164,0.6030535,-5.8396945,0.8396947
6640,8.3293848,0.8619082,5.6766233,-14.2519083,32.6412201,14.0763359,-0.7565638,0.8236012,10.5320396,0.0839695,-6.2824426,-0.1984733
6650,8.7770987,1.0390782,6.0022330,-9.0534353,26.9389305,14.4045801,-0.6967092,0.8786675,10.6182299,-0.2900763,-6.3740458,-0.2442748
6660,9.1960821,1.1827296,6.0956063,-2.6488550,16.1297703,11.4503813,-0.6631905,0.8810617,10.5272512,-0.2519084,-5.8244276,-0.0381679
6670,9.6533718,1.3718705,5.7508430,2.4732823,10.5038166,6.3740458,-0.6416427,0.8786675,10.5942879,0.0534351,-5.0839696,-0.5954198
6680,9.3517036,1.3934183,5.4659348,4.1297708,8.3587790,0.1908397,-0.6584021,0.7781116,10.6924505,0.5114504,-4.5190840,-0.5038168
6690,8.6909075,1.5107336,5.2672167,4.0610685,3.7709923,-2.4885497,-0.5793939,0.8307837,10.6828737,0.6717557,-4.3511453,-1.3206106
6700,8.3940287,1.4652439,5.2504573,3.3740458,1.2519084,-1.9465649,-0.6105183,0.7972651,10.7594872,1.0687023,-4.1755724,-1.5343511
6710,8.2910776,1.4915800,5.1714492,2.9007633,0.6030535,-0.3511450,-0.5817881,0.8475431,10.7331514,1.1526718,-4.0381680,-2.0916030
6720,8.3868456,1.5562232,5.2265158,2.4045801,2.6412213,1.0534351,-0.6248835,0.9073978,10.5942879,1.2061069,-3.6870229,-2.3282442
6730,8.5472565,1.5921360,5.2863703,2.2519083,4.6488547,2.3129771,-0.6296718,0.8283895,10.6254129,1.1755725,-3.6259542,-3.2442749
6740,8.6933022,1.5634058,5.2408805,2.2977099,5.8702292,2.3893130,-0.6200951,0.8954269,10.5104914,0.9770992,-2.9465649,-3.4351146
6750,8.7340031,1.5083394,5.1163831,2.6946564,5.9083967,2.8396947,-0.6512195,0.8834559,10.5248566,0.7862595,-2.5648854,-4.5267177
6760,8.7962523,1.4724265,5.0756817,2.5801528,5.3587785,3.5725191,-0.5985473,0.9217629,10.4530315,0.4809160,-2.7175572,-4.0839696
6770,8.7651272,1.4460905,5.0732875,1.2977099,4.7786260,3.7709923,-0.6464311,0.9073978,10.5559816,-0.1145038,-2.9694657,-4.7099237
6780,8.6621771,1.4317253,5.0613165,-0.1908397,4.2061067,3.5419848,-0.6871324,0.9313397,10.4219065,-0.6259542,-2.9160306,-4.8320613
6790,8.6047173,1.4628497,5.0230093,-1.4274809,5.8625956,3.9160306,-0.7038917,0.8810617,10.5392218,-1.1984733,-2.8167939,-5.1374044
6800,8.5664101,1.5322813,5.1499014,-2.8473282,6.9694657,3.8625953,-0.7589580,0.8834559,10.3428984,-1.5648855,-2.4732823,-5.0534353
6810,8.6166878,1.4700323,5.2648225,-3.9541984,7.9083967,3.7709923,-0.7733232,0.8643024,10.4554253,-2.0458016,-2.6870229,-6.1526718
6820,8.7747040,1.4341195,5.3845320,-6.7099237,14.0610685,-0.0916031,-0.8714849,0.6009415,10.7906122,-1.1984733,-4.3129773,-6.3511453
6830,8.3533268,1.3479286,5.6047974,-6.2671757,12.2442751,0.2595420,-0.7781116,0.8666966,10.3596573,1.2671756,-1.1221374,-6.5343513
6840,8.2695303,1.1803354,5.6478930,-5.1221375,9.5038166,2.4656489,-0.7972651,0.9552816,10.5703468,-1.2061069,-4.0458016,-6.9083967
6850,8.3892403,1.2880739,5.6790175,-4.9389315,8.2671757,3.6488550,-0.8140244,1.0366840,10.5583754,-1.7862595,-4.6183205,-6.3358779
6860,8.3485384,1.4006008,5.7867560,-4.5648856,7.3129773,3.7938931,-0.8212070,1.0318956,10.6206245,-1.7938931,-4.3893127,-5.6412215
6870,8.4395180,1.3622938,5.7963328,-3.2290077,5.3129773,3.6259542,-0.8283895,0.9864060,10.6589317,-1.5496184,-3.7938931,-4.6259542
6880,8.5113440,1.3958124,5.7867560,-2.4580152,3.4122138,2.8702290,-0.7493813,0.8738791,10.7307568,-1.7480916,-3.6717558,-4.0152674
6890,8.6095057,1.3096216,5.5640965,-2.1145039,3.0687022,2.1374047,-0.6799498,0.8331779,10.6421719,-1.7557251,-3.3969467,-4.0992365
6900,8.4562769,1.3670821,5.6024032,-2.3511450,3.2442749,1.8778626,-0.7038917,0.7900825,10.7211800,-1.4580153,-3.6564887,-3.7786260
6910,8.3652983,1.3766589,5.5712790,-2.8396947,1.9770992,2.5954199,-0.7876883,0.6799498,10.7977943,-0.6488550,-3.2977099,-4.0534353
6920,8.2934723,1.3096216,5.5521255,-3.4961832,0.0381679,3.5572519,-0.9073978,0.6584021,10.8265247,0.2900763,-2.6030533,-4.0076337
6930,8.4586716,1.3575054,5.6167684,-4.0534353,-0.0152672,4.4656487,-1.0295014,0.6416427,10.8337069,1.4198474,-2.1984732,-4.1297708
6940,8.5328913,1.2473727,5.5856438,-4.3053436,0.1526718,4.8625956,-1.1348459,0.6464311,10.7451220,2.1068702,-1.5267175,-3.0229008
6950,8.4754305,1.2473727,5.5617023,-4.9770994,0.4045801,5.0687022,-1.1994889,0.6272776,10.5895004,2.5954199,-1.7175573,-2.7557251
6960,8.5209198,1.2761030,5.5425487,-5.8091602,0.4274809,5.6412215,-1.2449785,0.6560079,10.5368280,2.7251909,-2.2748091,-1.7633588
6970,8.4874020,1.3000449,5.3965030,-6.9694657,-0.8854962,6.9618320,-1.2976507,0.6967092,10.4841557,2.1984732,-1.9236641,-0.3664122
6980,8.4514885,1.3742647,5.3270717,-8.8473282,-1.7786260,9.7404585,-1.3718705,0.7445929,10.4578199,1.8396946,-3.0000000,0.9923664
6990,8.3437500,1.4628497,5.2815819,-9.9847326,-2.8625953,13.9236641,-1.2066715,0.7445929,10.5200682,1.2290076,-4.4961834,2.2748091
7000,9.4570484,1.1324517,5.4802995,-15.2366409,-24.0687027,29.3511448,-0.9864060,0.8355721,10.6709023,0.9541985,-6.2900763,3.7404580
7010,11.2742386,0.6943150,4.9224534,-22.7786255,-23.3206100,37.2824440,-0.8475431,0.8355721,10.6110477,0.9083970,-6.0305343,3.9007633
7020,14.1520538,1.4341195,4.8482337,-38.6793900,-2.2824428,43.3664131,-0.6751614,0.9145803,10.7570934,1.6259542,-5.6641221,3.8167939
7030,16.9604378,1.9105632,5.6143742,-60.2213745,24.3358784,36.7251892,-0.6488253,0.9959828,10.6325951,1.8167939,-5.3664122,3.7938931
7040,19.6126022,1.7262106,7.2543941,-79.9236679,45.6946564,19.2366409,-0.5147507,1.0127422,10.5990763,1.9083970,-5.5038166,3.0152671
7050,19.6126022,0.9289455,9.4115591,-88.1526718,58.0992355,-15.4198475,-0.4812321,1.0582317,10.4434547,1.7175573,-5.3664122,2.4656489
7060,19.6126022,-0.2035061,11.6573086,-81.5801544,55.3511467,-62.6412201,-0.3902529,0.9720409,10.5152798,1.0916030,-5.2671757,1.7328244
7070,19.6126022,-0.6799498,13.5008345,-56.0228996,36.7251892,-115.0839691,-0.4094064,0.9145803,10.5703468,0.3664122,-5.1984735,1.1526718
7080,19.6126022,-0.6991033,14.6524391,-16.3206100,4.3664122,-163.5877838,-0.4572902,0.8906385,10.6038647,-0.2137405,-5.6259542,-0.3206107
7090,19.6126022,-1.0534433,14.2573986,29.8015270,-31.9541988,-208.0763397,-0.5841822,0.7852941,10.6613255,-0.3587786,-6.2442746,-1.0916030
7100,18.3658276,-0.9409165,12.2774038,62.8549614,-65.3053436,-247.2900696,-0.6655847,0.7134684,10.8600435,-0.4503817,-6.6870227,-2.4274809
7110,17.3363266,-0.9911944,9.7108326,79.3664093,-91.6259537,-250.1374054,-0.7206510,0.6584021,10.9055328,0.5954198,-7.2748094,-2.4427481
7120,16.2517586,-0.8906385,7.5345144,78.6793900,-113.7480927,-250.1374054,-0.7805058,0.6440369,11.0204544,2.2290077,-6.8625956,-2.6335878
7130,15.3994265,-0.9911944,6.4882536,69.6183243,-134.7328186,-250.1374054,-0.8044477,0.5937590,10.8648319,4.1374044,-5.5419846,-3.1755726
7140,14.1305065,-0.8906385,6.0022330,58.2900772,-161.4122162,-250.1374054,-0.7876883,0.7254394,10.6732969,5.6106873,-3.8473282,-3.2900763
7150,13.7953196,-1.1563935,5.5832496,47.8320618,-184.5801544,-250.1374054,-0.7733232,0.8283895,10.4530315,6.2671757,-1.7404580,-3.4351146
7160,12.7011747,-1.5083394,5.2456689,40.5877876,-193.3587799,-250.1374054,-0.7948709,0.8786675,10.1609402,5.5038166,-0.7938932,-3.3435113
7170,10.8193426,-2.0542145,4.9990678,33.2061081,-197.5954132,-250.1374054,-0.7637464,0.9696468,10.0125008,3.4427481,-0.9770992,-3.6412213
7180,9.0859489,-2.3079987,4.2999644,24.0763359,-202.4351196,-250.1374054,-0.7996593,0.9337339,9.9119444,0.6946565,-1.2366412,-3.3282442
7190,7.7811155,-2.7988074,3.6080434,13.1832066,-198.7328186,-250.1374054,-0.8523315,0.9959828,10.0125008,-2.3206108,-2.1908398,-3.7709923
7200,6.1937680,-3.2225790,2.8299320,-0.0763359,-193.5190887,-250.1374054,-0.8571198,0.9528874,10.1633339,-4.4198475,-3.4732823,-4.2671757
7210,4.6902170,-3.5960727,2.5546002,-14.9083967,-179.9618378,-250.1374054,-0.8188128,0.9385223,10.4506369,-6.0839696,-4.7633586,-4.9160304
7220,3.0071020,-4.1132174,2.9879484,-25.8015270,-164.7480927,-250.1374054,-0.8619082,0.8930327,10.6278067,-6.3129773,-5.1221375,-4.8625956
7230,1.0079538,-4.3981261,4.1156116,-30.8625946,-160.4961853,-250.1374054,-0.8547257,0.7972651,10.8217363,-5.3740458,-5.2137403,-4.0610685
7240,-0.7134684,-4.6088147,5.5186067,-25.6564884,-161.2595367,-250.1374054,-0.8044477,0.7469871,11.1186161,-3.4809160,-4.5038166,-3.6488550
7250,-2.5737536,-4.4867110,7.0221577,-10.7709923,-162.7709961,-250.1374054,-0.7374104,0.7086801,11.0467901,-1.1526718,-3.1450381,-3.6030533
7260,-4.5800843,-4.3574247,7.8960366,7.7175574,-167.6259613,-250.1374054,-0.6536137,0.7038917,10.9821472,1.0229008,-2.1908398,-2.7862597
7270,-6.0812411,-4.0557570,7.9774394,24.3435116,-175.7251892,-250.1374054,-0.5602403,0.6584021,10.8887739,2.5267177,-1.5343511,-3.8015268
7280,-7.1083484,-3.6726866,7.9654684,39.5267181,-179.0686951,-250.1374054,-0.6655847,0.7876883,10.6780853,3.2213740,-1.5648855,-4.6335878
7290,-7.4507174,-3.3183465,7.0149751,51.8931313,-173.2824402,-250.1374054,-0.7733232,0.7757174,10.5559816,2.9312978,-1.7938931,-5.0000000
7300,-7.4890246,-2.9592183,5.8753409,56.4122124,-160.1145020,-250.1374054,-0.8451489,0.8044477,10.2950144,2.0076337,-2.3969467,-4.4122138
7310,-7.6853480,-2.9185169,4.4962878,52.4122124,-134.0763397,-238.6106873,-0.9624642,0.8164186,10.3620520,0.5801527,-2.4122138,-4.6717558
7320,-8.4778252,-3.1004753,3.7612717,41.6030540,-102.6030502,-207.9160309,-0.9672526,0.8930327,10.4075413,-0.4351145,-2.5114503,-3.9465649
7330,-9.6222477,-3.0597742,3.8546450,28.8015270,-76.7786255,-172.1145020,-1.0438666,0.8930327,10.5583754,-0.8778626,-2.5343511,-3.3740458
7340,-11.5112629,-2.7557120,4.3622131,20.8244267,-49.8931313,-128.7709961,-1.0582317,0.9576758,10.6685085,-1.0534351,-3.6106870,-3.2290077
7350,-14.4321737,-2.3894010,3.7157819,13.6946564,-7.4961834,-67.9847336,-1.1444225,0.9217629,10.8217363,-0.4961832,-4.7786260,-2.5572519
7360,-18.6411591,-1.5729824,2.1571648,-5.4809160,55.5114517,14.5038166,-1.0295014,0.8619082,10.9629936,0.5114504,-5.9389315,-2.0534351
7370,-19.6131992,-1.6448082,1.1539993,-35.7404594,127.5877838,119.6030502,-0.9720409,0.8427547,10.8337069,1.7328244,-7.0992365,-2.0000000
7380,-19.6131992,-2.9496415,1.0630201,-74.0916061,188.5496216,250.1297760,-0.9361281,0.8355721,10.8289185,2.2900763,-6.5496182,-1.5267175
7390,-19.6131992,-4.8195033,3.3398943,-110.4809189,231.5572510,250.1297760,-0.8475431,0.8523315,10.7235746,3.0152671,-6.3969464,-0.8167939
7400,-19.6131992,-8.2910776,6.4212160,-136.9084015,250.1297760,250.1297760,-0.7421987,0.8475431,10.5871058,3.1603053,-5.7480917,-0.1221374
7410,-19.6131992,-12.0906563,9.0404596,-156.6106873,250.1297760,250.1297760,-0.4812321,0.8571198,10.5895004,2.8549619,-5.0000000,-0.5954198
7420,-19.6131992,-18.8255119,12.0667152,-167.5267181,250.1297760,250.1297760,-0.3734936,0.9121862,10.3883877,2.0000000,-4.2061067,-1.6335878
7430,-12.3276815,-19.6131992,13.3284531,-159.3511505,250.1297760,250.1297760,-0.2274480,0.9121862,10.4123297,1.2519084,-3.4961832,-2.7938931
7440,3.3710186,-19.6131992,12.3468351,-141.2137451,230.9770966,250.1297760,-0.3399749,0.9624642,10.3716288,0.5419847,-2.9770992,-5.3969464
7450,19.6126022,-19.6131992,11.9972830,-121.0457993,250.1297760,250.1297760,-0.4572902,1.0510491,10.3069859,0.2366412,-3.0381680,-6.9618320
7460,19.6126022,-19.6131992,17.1759148,-92.6335907,153.4732819,250.1297760,-0.6057299,1.0630201,10.4266949,-0.9694657,-3.5267177,-7.3664122
7470,19.6126022,-19.6131992,19.6126022,14.9007635,-49.6641235,250.1297760,-0.8020535,1.0582317,10.4195127,-1.4198474,-2.0763359,-7.5572519
7480,19.6126022,7.4507174,19.6126022,157.6717529,-149.9236603,250.1297760,-0.9313397,1.0558375,10.4530315,-1.8931298,-1.8091604,-5.7786260
7490,19.6126022,7.3429790,-2.0230901,165.3511505,-5.0610685,-96.2977066,-1.0654143,1.0247130,10.5751352,-2.7328243,-1.8320611,-4.8702292
7500,19.6126022,0.9313397,-4.6495161,68.6793900,-79.9236679,-250.1374054,-1.0127422,0.9337339,10.5511932,-3.0763359,-1.4122137,-4.0458016
7510,15.3898497,-1.2018831,0.8379663,-13.6335878,-190.9160309,-250.1374054,-0.9073978,0.8475431,10.6445665,-2.7557251,-1.9770992,-3.4045801
7520,4.3119354,-1.2952565,8.7938576,-24.0839691,-204.4045868,-250.1374054,-0.7900825,0.6272776,10.7499104,-2.4198472,-2.4351146,-3.6259542
7530,0.1771700,0.9528874,9.7323799,16.0916023,-101.3206100,-123.5572510,-0.9097920,0.5961532,10.7594872,-1.9236641,-1.7480916,-4.8396945
7540,0.8379663,4.2832050,6.3948798,38.5267181,25.3053436,-1.6335878,-0.9911944,0.5291159,10.8887739,-0.7786260,-2.2900763,-5.0687022
7550,4.2592630,7.1107426,3.1435707,26.8931293,101.6488571,74.1984711,-1.2114599,0.4405309,10.8361015,0.2519084,-2.9694657,-5.0458016
7560,7.1634150,8.7244263,2.1427996,2.4274809,137.6412201,102.5572510,-1.2449785,0.4477134,10.7403336,1.2595420,-3.7709923,-3.5496182
7570,8.5496502,8.2838955,3.3949606,-18.8549614,140.9770966,103.2824402,-1.2808913,0.3998296,10.5464048,1.8396946,-2.9465649,-3.2290077
7580,9.5456333,6.3637557,5.6885943,-21.3206100,126.3893127,94.8778610,-1.3096216,0.5530578,10.5727406,2.1679389,-2.7786260,-2.0687022
7590,10.2207947,4.5896611,6.9287844,-2.5801528,118.0229034,85.8167953,-1.4341195,0.6847382,10.5871058,2.1984732,-2.7404580,-1.0000000
7600,10.2567072,3.5434003,6.3062949,21.9389305,122.6106873,76.7175598,-1.4341195,0.7398046,10.3596573,1.9389313,-3.4732823,0.7404580
7610,7.4052281,0.8403605,5.3510137,-74.3740463,85.9770966,48.6946564,-0.6847382,0.7110743,10.7259684,0.4274809,-2.9083970,-8.7786255
7620,7.2855186,0.8786675,5.8657641,-77.4351120,91.0839691,51.6793900,-0.9193687,0.7086801,10.5727406,1.0000000,-1.7022901,-8.6641226
7630,7.1969333,0.8044477,6.2057390,-80.1374054,96.0152664,54.1679382,-1.1659702,0.6751614,10.6230183,1.9312977,-0.8015267,-9.0000000
7640,11.3077564,1.9799947,4.6423335,-117.8091583,150.5267181,64.8244247,-1.3263810,0.6751614,10.5080976,2.0916030,-0.2366412,-7.5419846
7650,11.9134865,1.9632354,8.3461447,-153.4274750,194.9770966,56.0763359,-1.3598996,0.6703730,10.5176744,1.8091604,-0.2900763,-6.4045801
7660,10.0675669,0.5554519,11.6285782,-147.7557220,207.3816833,46.4656487,-1.4341195,0.6847382,10.4697905,1.1221374,-0.7786260,-5.8091602
7670,7.6015515,0.4237715,13.4553452,-110.6870193,182.4045868,44.3816795,-1.3694763,0.7350162,10.4458485,0.6564885,-1.3587786,-4.4885497
7680,7.1514440,0.5051740,13.3523941,-68.9618301,132.6183167,39.4580154,-1.2354017,0.7757174,10.4793673,-0.0839695,-1.9923664,-3.5343511
7690,7.0915890,0.2442073,11.9757357,-34.4274826,85.7786255,27.3893127,-1.1947005,0.7158626,10.4506369,-0.5038168,-2.7862597,-2.3587787
7700,6.5217719,-0.1532281,10.4602137,-12.9083967,52.0458031,17.3969460,-1.0366840,0.7948709,10.5775290,-1.0458015,-3.2290077,-2.6488550
7710,6.3948798,-0.5650287,9.2798786,-1.7251909,33.7022896,12.2519083,-0.8283895,0.7900825,10.4602137,-1.3282443,-3.3206108,-2.3435113
7720,6.4858594,-0.6057299,7.0748301,-13.8167934,20.8473282,9.9465647,-0.6823440,0.9241571,10.6182299,-0.5648855,-4.0763359,-3.1068702
7730,6.4714942,-0.4644727,7.2998838,-20.8473282,24.8625946,9.2061071,-0.7948709,0.9289455,10.5296450,-0.4274809,-4.5267177,-1.9618320
7740,6.5768385,-0.6057299,7.6590118,-25.5496178,28.1908398,9.4274807,-0.9217629,0.9504932,10.4937325,-0.8473282,-5.0229006,-1.6793894
7750,7.0173693,-0.8020535,7.9606800,-28.5190830,19.5801525,8.8091602,-0.8236012,0.9073978,10.5583754,-1.3969465,-6.5419846,-1.7862595
7760,8.0803890,-0.5099624,8.7794924,-28.4809170,-4.7786260,3.6412213,-0.6129125,0.9002152,10.4889441,-1.8549619,-7.3129773,-1.8167939
7770,9.3564920,-0.5746055,9.2032642,-25.6259537,-32.1526718,-7.3206105,-0.5458752,0.8643024,10.5152798,-1.5114504,-6.0305343,-2.0610688
7780,10.8193426,-0.4668669,9.5073261,-23.7099228,-55.6870232,-24.2748089,-0.5817881,0.7829000,10.5751352,-1.4351145,-4.0916033,-2.7175572
7790,11.8847561,-0.0574605,10.3405046,-23.0763359,-83.9923630,-47.7709923,-0.6416427,0.9026094,10.5823174,-1.2366412,-3.4427481,-3.6717558
7800,12.4880924,0.1771700,11.6022425,-16.9618320,-114.6793900,-76.4198456,-0.6560079,0.8906385,10.4793673,-1.6488550,-3.5954199,-3.5572519
7810,12.8113079,-0.2657550,12.5407648,-2.7938931,-139.3969421,-105.9389343,-0.7278336,0.9241571,10.4051476,-2.7557251,-4.1908398,-4.5496182
7820,12.5766773,-0.6248835,12.8807392,18.2748089,-159.4274750,-132.0076294,-0.6679789,0.9433106,10.3835993,-4.0763359,-4.6641221,-4.9694657
7830,12.2678270,-0.8355721,12.6508970,41.2595406,-170.5190887,-150.7786255,-0.6344602,1.0079538,10.5080976,-4.8931298,-5.8015265,-5.5877862
7840,11.5591469,-0.5554519,12.0810804,61.2595406,-176.2137451,-163.6335907,-0.5865764,0.9145803,10.6852674,-5.3435116,-7.0916033,-6.4656487
7850,10.8791971,0.0287303,11.1832590,75.6946564,-175.7328186,-171.6412201,-0.5386927,0.7445929,10.9270811,-4.5725193,-7.5801525,-7.9236641
7860,10.2399483,0.2513899,10.2016411,86.6030502,-166.2595367,-174.6793823,-0.5769997,0.7350162,10.9390516,-2.6564887,-6.6106873,-9.2442751
7870,9.6270361,0.3830703,9.1074963,93.7786255,-154.6183167,-172.7175598,-0.5913648,0.6177009,11.0539722,-0.4961832,-4.8396945,-9.3816795
7880,9.1170731,0.9193687,8.1857338,97.9007645,-148.3816833,-167.5114441,-0.6871324,0.6392486,10.9510221,1.5190840,-2.7022901,-9.7251911
7890,8.9614515,1.2401901,7.1466556,99.4274826,-141.0000000,-160.1374054,-0.5554519,0.6177009,10.8887739,3.3664122,-0.7328244,-9.1603050
7900,9.1098909,2.1499822,6.1722202,96.0839691,-127.7480927,-151.7175598,-0.7110743,0.5793939,10.6637201,3.9312978,0.7938932,-10.5877867
7910,9.7922344,2.9041519,5.3965030,87.7633591,-107.4274826,-143.8396912,-0.7805058,0.6679789,10.4841557,3.5038168,0.9007633,-10.5801525
7920,11.1545286,3.5960727,4.5681133,75.4732819,-72.2824402,-138.5954132,-0.9121862,0.6512195,10.4003592,2.5725191,0.2442748,-11.1068707
7930,13.8144732,4.1658897,3.6942344,60.3282433,-23.4503822,-140.5954132,-0.9457048,0.6631905,10.2950144,1.1221374,-1.1374046,-11.7786255
7940,14.6308918,4.4316444,3.0885043,41.8702278,21.1984730,-151.2519073,-1.0223188,0.6703730,10.2950144,-0.1221374,-2.8320611,-10.9541988
7950,14.6332855,4.5465660,3.3135581,21.3129768,27.2213745,-173.3282471,-1.1563935,0.7086801,10.3189564,-1.6488550,-4.2824426,-10.7633591
7960,14.9972029,4.0222383,4.6519103,11.1374044,-15.6412210,-206.8625946,-1.2066715,0.7565638,10.5080976,-2.5343511,-5.2137403,-9.7251911
7970,16.1320477,2.9065459,6.0716643,18.1297703,-91.7175598,-250.1374054,-1.3335636,0.8092360,10.5392218,-3.4961832,-5.9389315,-8.2137403
7980,17.2261925,2.1595588,6.5648675,34.0839691,-164.5801544,-250.1374054,-1.2832855,0.8140244,10.4482431,-3.8091602,-7.1297708,-6.3587785
7990,16.9173431,1.8531027,5.4659348,42.1450386,-200.5725250,-250.1374054,-1.2545552,0.7924767,10.6278067,-4.1221375,-7.1832061,-4.5877862
8000,16.0602226,1.5873476,4.0126615,31.3206100,-203.8091583,-250.1374054,-1.1611819,0.8283895,10.7092094,-4.0458016,-6.8396945,-2.5801528
8010,14.6404686,1.1276633,3.5912843,8.5190840,-199.5038147,-250.1374054,-1.0390782,0.7781116,10.7068148,-4.0916033,-6.7709923,-1.4274809
8020,12.9214401,0.5554519,4.5824785,-10.4351149,-199.6106873,-250.1374054,-0.8331779,0.7852941,10.6661139,-3.6183207,-6.5496182,-0.9541985
8030,11.3700056,-0.3710994,5.5186067,-17.5877857,-194.5877838,-250.1374054,-0.6919208,0.7302278,10.7834291,-2.8015268,-5.8854961,-0.5572519
8040,8.9901810,-1.1851238,5.9160423,-16.2977104,-177.4503784,-250.1374054,-0.5482694,0.6751614,10.9031391,-1.4503816,-5.0534353,-1.6641221
8050,6.4499464,-1.5346755,5.7867560,-15.0076332,-160.3816833,-250.1374054,-0.6105183,0.7134684,10.9510221,0.0000000,-3.8473282,-2.2595420
8060,4.0461802,-1.6184721,5.7699966,-15.0534353,-148.6870270,-250.1374054,-0.7733232,0.6153067,10.8001890,1.5038168,-2.0839694,-2.9312978
8070,2.1691356,-1.6208663,6.5217719,-12.2442751,-140.5725250,-250.1374054,-0.8882443,0.6344602,10.7977943,2.8473282,-0.9465649,-2.6946564
8080,0.4644727,-1.8076130,6.8138633,-3.4961832,-130.7938995,-250.1374054,-1.0989330,0.6057299,10.6900558,3.8015268,-0.4122137,-1.6641221
8090,-1.4676381,-1.9967541,6.7731619,5.7862597,-116.5801544,-250.1374054,-1.2258250,0.5674229,10.6254129,4.1297708,-0.0992366,-0.4580153
8100,-2.9400647,-2.0302727,6.7348547,11.5190840,-101.9312973,-250.1374054,-1.2497669,0.5674229,10.4362717,4.0916033,-0.2671756,1.2366412
8110,-4.5250182,-2.1044924,6.5840211,16.0152664,-82.5267181,-250.1374054,-1.2473727,0.5937590,10.5511932,3.6106870,-0.9160305,2.4122138
8120,-5.9998388,-2.2672975,6.6390872,20.9083977,-57.9389305,-250.1374054,-1.2306134,0.5769997,10.3381100,2.3435113,-1.8625954,3.3511450
8130,-7.5177550,-2.2912393,6.4212160,25.5496178,-30.4503822,-250.1374054,-1.1587877,0.5889706,10.4458485,1.7099236,-3.3435113,3.9923663
8140,-9.0859489,-2.4660151,6.0357518,28.7938938,-6.6030536,-250.1374054,-1.1156923,0.6823440,10.3907824,0.7557252,-4.6412215,4.1679387
8150,-10.4673967,-2.8107784,5.9902620,29.3282452,11.1374044,-225.7251892,-1.0199248,0.7182568,10.4937325,0.2977099,-5.2824426,4.5419846
8160,-12.7634239,-3.0980811,6.3829093,29.6183205,22.4198475,-188.5648804,-1.0989330,0.7948709,10.5631638,-0.2824427,-5.9083967,5.7404580
8170,-15.8950233,-3.4715748,8.2120695,37.1374054,5.7022901,-141.8778687,-0.8403605,0.8451489,10.6613255,-0.4809160,-6.3511453,5.3893127
8180,-17.4416695,-3.7636659,10.0148945,60.7862587,-19.9694653,-82.2900772,-0.7733232,0.9552816,10.8241301,-0.2671756,-5.7404580,5.0610685
8190,-17.5877151,-4.1323709,10.1274214,96.6870193,-34.9694672,-13.0687027,-0.6655847,0.9648584,10.7810354,0.8396947,-3.8549619,6.2061067
8200,-17.2166157,-4.1587071,7.8816719,120.8625946,-37.1068687,62.8396950,-0.5985473,1.0534433,10.7977943,1.8931298,-2.2137403,6.4274807
8210,-15.0905762,-5.4946647,5.8825235,128.8320618,-19.2900772,129.0839691,-0.5075682,1.0654143,10.6900558,2.3511450,-2.4122138,6.4809160
8220,-13.7665892,-4.9775200,3.9001346,126.0687027,38.3282433,199.0763397,-0.2418131,1.0797794,10.6134415,2.4274809,-2.7251909,5.3969464
8230,-13.4553452,-5.6215568,2.0254843,108.1297684,115.7099228,250.1297760,-0.1364688,0.9959828,10.4889441,1.8625954,-2.6106870,3.4656489
8240,-13.7929258,-5.9782910,0.9265513,78.2595444,204.8015289,250.1297760,-0.0933734,0.9696468,10.4769726,1.1068702,-2.7328243,1.0152671
8250,-15.9548788,-8.5400734,0.5123565,38.7709923,250.1297760,250.1297760,-0.1173153,0.8571198,10.5344334,0.0992366,-3.3893130,-1.6946565
8260,-19.0529594,-11.4370432,2.1451938,-11.9541988,250.1297760,250.1297760,-0.2059003,0.7829000,10.5200682,-0.4503817,-3.8320611,-3.3816793
8270,-19.4647598,-15.4904060,5.4204450,-63.5725174,250.1297760,250.1297760,-0.3591284,0.7350162,10.7427282,-0.6717557,-2.5038168,-4.8702292
8280,-16.5199070,-19.6131992,8.8130112,-97.1297684,250.1297760,250.1297760,-0.7206510,0.7158626,10.7307568,0.0763359,-1.5801526,-5.9618320
8290,-9.7084379,-19.6131992,11.2742386,-126.0992355,250.1297760,250.1297760,-0.7733232,0.7350162,10.6996326,0.6564885,-1.0687023,-5.2671757
8300,4.1826491,-19.6131992,12.0379848,-156.2442780,250.1297760,250.1297760,-0.9073978,0.7206510,10.6804790,1.3129771,-1.0152671,-4.4656487
8310,19.6126022,-19.6131992,8.8225880,-199.6259613,250.1297760,250.1297760,-1.0606259,0.6991033,10.5559816,1.4427481,-1.0916030,-4.0763359
8320,19.6126022,-19.6131992,14.5806141,-235.8167877,250.1297760,250.1297760,-1.0702027,0.6320660,10.4027529,0.6641222,-1.8473282,-3.4656489
8330,19.6126022,-14.3459835,19.6126022,-192.7251892,250.1297760,250.1297760,-1.0127422,0.6344602,10.4123297,-0.3511450,-3.0916030,-3.2290077
8340,19.6126022,-0.3040621,19.6126022,-68.8854980,212.2900696,250.1297760,-1.0582317,0.6296718,10.4243011,-0.9312977,-4.2213740,-4.1374044
8350,19.6126022,-2.1547706,19.6126022,104.5267181,-144.6259613,-147.3664093,-1.0917504,0.6679789,10.4410601,-1.9770992,-5.1450381,-4.2748094
8360,19.6126022,-4.0725164,12.9741125,201.3740387,-250.1374054,-250.1374054,-1.0989330,0.6153067,10.6086531,-2.0992367,-6.2290077,-3.8091602
8370,7.0413113,-4.2257442,7.1083484,193.1908417,-250.1374054,-250.1374054,-0.9864060,0.6847382,10.6397781,-2.3282442,-6.2213740,-3.7938931
8380,1.7884595,-1.3144100,7.2639709,158.3282471,-250.1374054,-250.1374054,-0.9457048,0.6368544,10.7092094,-1.5190840,-5.7404580,-3.2366412
8390,4.1395535,-0.0981618,5.6071916,130.8015289,-250.1374054,-109.7099228,-0.8930327,0.7134684,10.7666702,-0.6183206,-4.6793895,-2.9236641
8400,6.8521700,0.8738791,2.0853391,104.0916061,-90.9618301,16.7175579,-0.7445929,0.7350162,10.7834291,0.3893130,-4.0381680,-2.7557251
8410,8.7531567,2.4636209,-1.3527170,71.9312973,173.1755676,110.4122162,-0.6536137,0.7924767,10.7810354,0.9312977,-3.2442749,-2.5419848
8420,10.3261395,4.3143296,-2.0135133,37.1908379,250.1297760,163.7938995,-0.6607963,0.8212070,10.6756907,1.5267175,-2.8702290,-3.7022901
8430,12.1768475,4.8434453,-1.4341195,5.2061067,250.1297760,176.1679382,-0.6081241,0.8451489,10.6828737,1.3969465,-2.8931298,-3.7328243
8440,13.0124197,4.4340386,-0.2992737,-15.8396950,250.1297760,156.1603088,-0.6248835,0.9385223,10.5416164,1.2213740,-2.6259542,-4.1679387
8450,12.9334116,3.7756367,0.9624642,-21.1755733,250.1297760,118.2137375,-0.7254394,0.9552816,10.5248566,0.7022901,-3.0687022,-4.5038166
8460,12.1265697,3.0669568,1.9009864,-12.7175570,202.6183167,76.2442780,-0.8020535,0.9768293,10.5224628,0.1526718,-3.4198472,-5.1221375
8470,10.6110477,2.1092808,2.2912393,1.9312977,104.2137375,38.2137413,-0.7829000,0.9265513,10.4745789,-0.6259542,-3.6717558,-4.8778625
8480,9.9287033,2.2768741,1.9081690,18.0381680,-70.0229034,-18.6717548,-0.9313397,0.7996593,10.6325951,-1.1526718,-4.3129773,-4.0763359
8490,9.7299862,1.9105632,1.4532729,17.3893127,-116.4885483,-33.4961815,-0.9504932,0.7685348,10.5775290,-0.9923664,-4.4961834,-3.9847329
8500,9.6557665,2.0709739,1.2377959,11.5038166,-132.7786255,-40.3435097,-0.8810617,0.7493813,10.6565371,-1.0687023,-4.6946564,-4.1145039
8510,10.0029240,1.9728121,1.2377959,1.3969465,-121.8396912,-41.7862587,-0.9361281,0.6679789,10.6517487,-0.6335878,-4.1984735,-4.0534353
8520,10.2064295,1.9488702,1.2090657,-9.8167934,-86.3282471,-39.1603050,-0.9433106,0.6991033,10.6325951,0.0687023,-3.8167939,-3.7251909
8530,9.6773138,1.8459201,1.6400198,-19.8396950,-33.6870232,-29.0916023,-0.9696468,0.6727672,10.6182299,0.4198473,-3.4503818,-3.0381680
8540,9.0667953,1.6974803,2.2529323,-28.8702297,15.7022905,-12.3740454,-0.9217629,0.6655847,10.6589317,0.7862595,-3.3664122,-2.6335878
8550,8.2240410,0.9624642,3.2345500,-45.3587799,62.4809151,19.2519093,-0.9457048,0.7637464,10.6086531,0.7633588,-3.1603053,-2.5954199
8560,8.3293848,0.7038917,3.7900019,-50.1755714,66.7099228,29.1374054,-0.9145803,0.7254394,10.5200682,0.5572519,-3.3664122,-2.6946564
8570,8.6765423,0.5937590,4.3023586,-50.7862587,62.9160309,33.7633591,-0.9002152,0.7206510,10.5751352,0.4198473,-3.5419848,-2.5954199
8580,9.0859489,0.4405309,4.9200592,-47.1755714,54.5267181,34.2061081,-0.8643024,0.7637464,10.4889441,0.4198473,-3.6335878,-2.1679389
8590,9.4594421,0.3902529,5.2001796,-41.3816795,43.2213745,32.1450386,-0.8523315,0.8259954,10.6469603,0.4732825,-3.7480917,-2.0534351
8600,9.7419567,0.4453192,5.5377603,-33.6870232,30.6946564,28.6793900,-0.9002152,0.7900825,10.6110477,0.5801527,-3.5114503,-1.8091604
8610,11.7602587,0.9744351,5.7843618,-29.7633591,40.9694672,25.9236641,-0.8283895,0.8116302,10.6517487,0.5725191,-3.7175572,-2.0152671
8620,13.5750542,1.2066715,6.0716643,-42.9389305,97.8396912,45.0839691,-0.8427547,0.8307837,10.5224628,0.3587786,-3.6183207,-1.1679389
8630,12.6125898,-0.3327923,6.5169835,-36.3435097,115.9847336,25.9007626,-0.8451489,0.8643024,10.5703468,0.2213740,-3.5725191,-2.0534351
8640,10.6900558,0.1484398,6.7276726,-18.0763359,91.4427490,0.3587786,-0.7589580,0.8762733,10.5057030,-0.1526718,-3.8854961,-1.2290076
8650,8.7770987,0.6679789,5.8849177,-3.9389312,65.5648880,-4.1068702,-0.8523315,0.8307837,10.4985209,-0.7251908,-3.9541984,-1.0763359
8660,8.4778252,0.7948709,5.1929970,1.6412214,45.7709923,0.6106870,-0.8403605,0.8451489,10.5727406,-0.7786260,-4.2671757,-1.4656489
8670,8.8058290,0.9097920,4.7620430,0.7404580,34.2290077,3.2900763,-0.8666966,0.7876883,10.5583754,-0.9770992,-4.4656487,-1.3129771
8680,8.6454182,1.1420283,4.5274124,-10.0305347,21.3282452,1.2900764,-1.1156923,0.7445929,10.6828737,-0.6946565,-4.6488547,-0.1603053
8690,8.8058290,1.0773853,4.6566987,-18.2137413,19.3053436,4.4809160,-1.0223188,0.6607963,10.6014709,0.0992366,-4.3206105,1.2748091
8700,8.9997578,1.1156923,4.9487896,-20.9618320,16.6946564,2.5801528,-1.0079538,0.5937590,10.6110477,0.4427481,-4.1221375,1.5114504
8710,8.9734221,0.7996593,5.3007355,-22.7633591,8.7404585,-1.9312977,-0.9457048,0.6272776,10.5583754,0.9847328,-4.0305343,2.2366412
8720,8.9063845,0.5937590,5.3893204,-21.2061062,4.7404580,-2.9847329,-0.8451489,0.6607963,10.5368280,1.0916030,-4.2595420,2.4274809
8730,8.8465300,0.5291159,5.5760674,-18.5343513,2.7099237,-3.5496182,-0.8643024,0.6823440,10.5368280,1.3358779,-4.1908398,2.6717558
8740,8.8034344,0.4477134,5.5952206,-15.9541988,1.1297710,-3.5114503,-0.8044477,0.7158626,10.7355452,1.5343511,-4.4122138,2.3206108
8750,8.7747040,0.2705434,5.5617023,-13.0687027,0.8931298,-2.7633588,-0.7541697,0.7685348,10.6302013,1.4045801,-4.2290077,1.7175573
8760,8.7220325,0.2513899,5.5425487,-10.1526718,0.6870229,-1.2595420,-0.7421987,0.7541697,10.6637201,1.3969465,-3.9770992,1.1832061
8770,8.6286592,0.2178712,5.4802995,-6.5190840,-0.0076336,1.4198474,-0.6631905,0.8571198,10.6517487,1.4427481,-4.1450381,0.5954198
8780,8.6980906,0.3447633,5.2624283,-3.2519083,-1.6106870,3.9923663,-0.6560079,0.8810617,10.6062593,1.3816794,-3.5343511,0.0534351
8790,8.9375095,0.5195391,5.0876527,-0.9160305,-2.5954199,6.1755724,-0.6943150,0.8786675,10.5727406,1.2366412,-2.4503818,-0.4045801
8800,9.2391768,0.7230452,4.6997938,-0.9236641,-1.2748091,6.3511453,-0.6512195,0.9217629,10.4937325,0.7251908,-3.0152671,-0.3816794
8810,9.2894554,0.7086801,4.4316444,-3.8167939,2.8396947,6.3282442,-0.5386927,0.8882443,10.4889441,0.0916031,-3.1145039,-1.2748091
8820,9.1721401,0.6847382,4.4555864,-7.5877862,5.4351144,6.8396945,-0.4118006,0.8643024,10.6397781,-0.6183206,-2.2366412,-1.7251909
8830,8.8728657,0.6607963,4.6950054,-17.5801525,-11.5267172,11.7175570,-0.3854645,0.8259954,10.6637201,-0.4274809,-4.7251906,-5.2061067
8840,9.8401184,0.4333483,4.7213416,-21.3587780,-17.6488552,13.8931293,-0.4309541,0.7972651,10.7163916,-0.2366412,-4.0763359,-6.7786260
8850,10.9055328,0.5961532,4.8147149,-22.6793900,-8.3435116,13.5038166,-0.5674229,0.8307837,10.7355452,-0.0458015,-3.0229008,-7.8931298
