timestamp,rxacclX,rxacclY,rxacclZ,rxgyroX,rxgyroY,rxgyroZ,txacclX,txacclY,txacclZ,txgyroX,txgyroY,txgyroZ
0,2.2816625,-2.0470319,11.7698355,-5.7022901,-59.0916023,-47.9312973,-1.7501525,1.1348459,10.6278067,-2.4122138,-6.0076337,0.0763359
10,3.5362179,-1.9368993,12.0331964,11.2900763,-56.9236641,-44.8549614,-1.6376256,1.1516051,10.6493549,-0.9770992,-5.6717558,-0.1832061
20,4.1826491,-2.3941894,11.7842007,33.5038185,-61.8396950,-50.3587799,-1.5442522,1.0965388,10.6062593,0.8473282,-4.6793895,-0.0381679
30,4.0366035,-2.2122312,12.1864243,46.1221390,-107.5343475,-57.5648842,-1.5634058,1.1875180,10.6613255,2.3664122,-3.6793892,-0.1374046
40,4.5752959,-1.5777708,11.4753504,49.6870232,-144.9389343,-64.5267181,-1.4724265,1.1731528,10.4362717,3.0458016,-2.7633588,-0.4885496
50,5.5257893,-1.6136837,10.6541433,52.3587799,-155.1145020,-75.9770966,-1.5298871,1.1923064,10.2710724,2.9770992,-2.7328243,-0.8549618
60,6.3709383,-1.9919657,10.3452930,49.9923668,-145.4961853,-89.2900772,-1.5490406,1.3144100,10.2854376,2.2824428,-2.8473282,-1.3816794
70,6.7635851,-1.8195840,10.3189564,45.4351158,-153.6030579,-105.4885483,-1.5777708,1.2641320,10.1561518,1.2748091,-3.3893130,-1.6030535
80,7.8816719,-1.7429699,10.9198980,46.4274826,-191.5801544,-131.7175598,-1.5921360,1.3096216,10.3213511,0.2366412,-3.7862597,-2.0305343
90,9.0428534,-1.6926919,12.0236197,53.7862587,-237.5572510,-170.7022858,-1.7956421,1.2449785,10.2399483,-0.6870229,-4.0839696,-2.0305343
100,10.2495251,-1.7214222,12.9884777,67.4122162,-250.1374054,-219.0458069,-1.7238164,1.2737088,10.3117743,-1.1145039,-4.0458016,-1.7099236
110,10.9007444,-2.3151813,13.1345234,86.6030502,-250.1374054,-250.1374054,-1.7740943,1.2449785,10.3428984,-1.3893130,-4.0076337,-1.0992366
120,10.9031391,-2.9280937,12.8160963,107.5114517,-250.1374054,-250.1374054,-1.7621235,1.2593436,10.3931761,-1.3893130,-3.8625953,-1.1908396
130,9.4259243,-2.6000898,12.5359764,126.1832047,-250.1374054,-250.1374054,-1.7884595,1.2593436,10.4290895,-1.0763359,-3.9618320,-1.2519084
140,8.4371233,-2.3989778,11.2095947,142.4045868,-250.1374054,-250.1374054,-1.7118455,1.1947005,10.4219065,-0.8167939,-3.6641221,-1.1603054
150,7.3070664,-1.7621235,9.7323799,158.0534363,-250.1374054,-250.1374054,-1.6328372,1.1611819,10.4386663,-0.5038168,-3.8702290,-1.5038168
160,7.1394730,-0.8451489,8.1115141,171.9618378,-250.1374054,-250.1374054,-1.5083394,1.1228749,10.4290895,-0.5496183,-3.7480917,-2.0381680
170,6.6941538,0.5793939,6.2871413,183.4351196,-250.1374054,-250.1374054,-1.5681942,1.1539993,10.3979645,-0.5267175,-3.5496182,-2.2977099
180,6.6271162,1.7573351,4.8410511,188.7022858,-250.1374054,-250.1374054,-1.5610116,1.1587877,10.3285332,-0.7557252,-3.4122138,-2.5725191
190,6.6510582,3.0334380,3.6008608,186.7099304,-250.1374054,-250.1374054,-1.5562232,1.2377959,10.3548698,-0.7251908,-3.3816793,-3.6412213
200,6.5098009,4.2425036,2.2122312,179.8244324,-250.1374054,-250.1374054,-1.6376256,1.2234308,10.4865494,-0.7404580,-3.6488550,-3.2595420
210,5.9280128,4.8171091,0.4955972,167.6564941,-250.1374054,-250.1374054,-1.6184721,1.2114599,10.3285332,-0.5877863,-3.4580152,-3.9236641
220,5.6167684,5.3031297,-0.4979914,149.2442780,-250.1374054,-250.1374054,-1.7022687,1.2354017,10.3596573,-0.6106870,-3.3206108,-3.5801528
230,4.8769641,5.4707227,-0.9504932,127.1832047,-250.1374054,-250.1374054,-1.7022687,1.2569494,10.4338779,-0.3664122,-3.0610688,-3.8702290
240,2.5067163,4.9320302,-0.8283895,108.5343475,-250.1374054,-250.1374054,-1.7333932,1.2330076,10.4219065,-0.4656489,-2.8854961,-3.6641221
250,-0.3974355,4.4891052,-0.6560079,92.8473282,-250.1374054,-250.1374054,-1.6926919,1.2258250,10.3644457,-0.5114504,-2.8854961,-3.3282442
260,-2.9640064,4.3023586,-0.6320660,81.1679382,-250.1374054,-250.1374054,-1.7381816,1.2521610,10.2878323,-0.8854962,-3.0229008,-3.6030533
270,-3.9073172,4.9296360,-1.7836711,70.4351120,-250.1374054,-250.1374054,-1.6974803,1.2114599,10.3572636,-1.2213740,-3.4045801,-3.9160306
280,-4.7620430,5.6670465,-3.5314295,54.8931313,-205.0839691,-250.1374054,-1.6472024,1.2042773,10.3859940,-1.1374046,-3.6183207,-3.6335878
290,-5.7388721,6.0261750,-4.9942794,32.9007645,-110.2748108,-248.0610657,-1.7405758,1.1994889,10.4530315,-1.3587786,-3.6870229,-3.5038168
300,-7.8625183,6.9814563,-6.1626434,2.9007633,-25.7557259,-187.6106873,-1.6807210,1.2066715,10.3428984,-1.2213740,-3.5038168,-3.1755726
310,-9.4953556,8.0420828,-7.2448173,-33.9541969,42.7938919,-115.6488571,-1.7166338,1.2425843,10.4410601,-0.8015267,-3.4274809,-3.5190840
320,-11.4226780,8.7866755,-8.3509331,-74.7862625,111.8702316,-27.1755733,-1.6472024,1.1587877,10.3788109,-0.6564885,-3.1374047,-3.2900763
330,-11.8512383,8.7148495,-8.9279327,-118.6641235,186.7480927,63.6946564,-1.7381816,1.1563935,10.4338779,-0.4656489,-3.2137403,-3.0458016
340,-11.1234045,8.1761570,-9.1242561,-167.0534363,250.1297760,145.1908417,-1.7549409,1.1683644,10.4314833,-0.4961832,-3.6717558,-3.1603053
350,-9.4115591,6.7061248,-8.4874020,-221.5725250,250.1297760,212.0076294,-1.7238164,1.1587877,10.5320396,-0.1832061,-3.7251909,-2.5267177
360,-7.1514440,4.6064205,-6.6797886,-250.1374054,250.1297760,250.1297760,-1.7142396,1.1683644,10.4578199,0.2290076,-3.8549619,-2.4122138
370,-6.5169835,3.0142846,-3.2321558,-250.1374054,250.1297760,250.1297760,-1.6950861,1.1731528,10.3907824,0.4656489,-3.7175572,-2.5267177
380,-3.1770895,2.4971397,1.7932479,-250.1374054,68.2824402,250.1297760,-1.7190280,1.1468167,10.5152798,0.7480916,-3.4961832,-2.3816793
390,5.2600341,1.9368993,10.9845409,-250.1374054,-182.3893127,250.1297760,-1.6783268,1.1851238,10.3309278,0.7862595,-3.3969467,-2.6030533
400,16.1488075,6.4212160,19.6126022,-216.2595367,-250.1374054,197.2671814,-1.6783268,1.2282192,10.3165627,0.7786260,-3.5954199,-2.7480917
410,19.6126022,9.6988611,19.6126022,-55.9923668,-250.1374054,101.0534363,-1.7094513,1.2761030,10.3428984,0.6183206,-3.3587787,-2.4656489
420,19.6126022,9.2200232,19.6126022,86.1374054,-250.1374054,-31.0534344,-1.7286048,1.2497669,10.2375546,0.2671756,-3.4885497,-2.5267177
430,19.6126022,7.9104018,12.6796274,189.4961853,-250.1374054,-174.7786255,-1.8076130,1.2330076,10.2806492,-0.3206107,-3.5572519,-2.1832061
440,19.6126022,5.4707227,4.7644372,250.1297760,-160.2213745,-250.1374054,-1.7501525,1.2138541,10.3213511,-0.8625954,-3.9160306,-2.3511450
450,10.2207947,2.8706331,0.6967092,250.1297760,-112.0152664,-250.1374054,-1.7645177,1.1827296,10.3883877,-1.5190840,-3.7709923,-2.1297710
460,3.4787574,2.7485294,-1.6184721,250.1297760,-107.1832047,-250.1374054,-1.7381816,1.1635761,10.3835993,-1.7557251,-3.9770992,-2.3053436
470,-0.2561783,4.3167233,-9.8042059,200.6183167,-102.8473282,-250.1374054,-1.7812769,1.1420283,10.3405046,-1.9618320,-4.1068702,-2.6946564
480,-1.6088953,8.6382351,-9.6054878,56.9618340,-164.1984711,-238.8854980,-1.7405758,1.1468167,10.4434547,-1.6488550,-4.1526718,-2.4045801
490,0.7972651,6.9096308,-6.2105274,-13.2748089,-43.5190849,-228.9084015,-1.7022687,1.0989330,10.5033092,-1.4198474,-3.8549619,-2.1908398
500,-2.2074428,5.2336984,-4.0461802,-36.9541969,97.7328262,-220.1526642,-1.6591733,1.1587877,10.4554253,-0.7938932,-3.4427481,-2.5190840
510,-5.1906028,5.5664907,-4.4747400,-50.7938919,157.9541931,-209.4503784,-1.6591733,1.0725969,10.5655584,-0.2900763,-3.1297710,-2.5572519
520,-7.2089043,5.2336984,-4.4268565,-58.1526718,154.4656525,-199.2671814,-1.6304430,1.0773853,10.4769726,0.0610687,-2.8167939,-2.6183207
530,-9.6126709,5.0684991,-3.8809812,-59.2061081,132.1984711,-185.3282471,-1.6495966,1.1611819,10.4314833,0.0534351,-2.4198472,-3.5114503
540,-12.7586355,5.4395986,-3.8474624,-54.2748108,111.7099228,-155.0305328,-1.7309990,1.1707586,10.4219065,0.1145038,-3.1297710,-4.0229006
550,-16.1081066,6.6773944,-4.8218975,-54.8015251,99.5801544,-101.6106873,-1.7022687,1.1563935,10.2734671,-0.1068702,-3.2900763,-4.0687022
560,-18.7632618,7.7619624,-6.1195483,-71.2824402,108.0229034,-24.5038166,-1.6495966,1.2425843,10.2998028,-0.3740458,-3.2900763,-3.0381680
570,-19.4264526,8.2336178,-6.5672617,-99.7709961,127.0839691,67.9389343,-1.6543850,1.2066715,10.2878323,-0.9389313,-3.2061069,-3.8244274
580,-17.7313671,7.7978749,-5.7580256,-132.2519073,146.5038147,157.8167877,-1.6950861,1.2832855,10.3788109,-1.0229008,-3.5725191,-4.3511453
590,-13.8886929,6.9910331,-3.9456241,-157.8931274,166.1755676,233.3206177,-1.8100072,1.2066715,10.4434547,-1.3893130,-3.8320611,-3.6259542
600,-9.4378948,5.7221127,-2.5354466,-175.1526642,181.8320618,250.1297760,-1.7405758,1.1683644,10.4123297,-1.6335878,-4.1374044,-3.4961832
610,-5.3749552,4.5561423,-1.8052188,-190.0305328,188.9694672,250.1297760,-1.7645177,1.1013272,10.4386663,-1.4961832,-3.8244274,-3.0229008
620,-0.2202654,3.3590479,-1.1803354,-201.8931274,179.9923706,250.1297760,-1.7309990,1.1396341,10.4458485,-1.3740458,-3.9160306,-3.3282442
630,6.1434903,2.6767037,-0.0622489,-205.2290039,135.3587799,250.1297760,-1.6663558,1.1755470,10.4458485,-1.0992366,-4.1984735,-3.0458016
640,13.4170380,4.2353210,3.3015873,-191.0229034,28.0610695,250.1297760,-1.7357874,1.1779412,10.5080976,-0.6946565,-4.3206105,-3.5190840
650,19.6126022,6.9287844,8.0564480,-149.2977142,-101.9618301,173.6564941,-1.7142396,1.1109039,10.4458485,-0.3816794,-4.0763359,-3.1450381
660,19.6126022,9.1458035,10.1034794,-90.9618301,-168.6870270,50.2213745,-1.6615674,1.1755470,10.4195127,-0.0916031,-3.8702290,-2.8091602
670,19.6126022,9.7802639,10.3381100,-57.7099228,-144.6717529,-89.6106873,-1.6615674,1.1228749,10.5200682,0.1832061,-3.7022901,-3.2137403
680,19.6126022,7.6111283,11.5711174,-38.5343513,-86.0381699,-207.3587799,-1.6065011,1.1635761,10.4147243,0.4427481,-3.3816793,-3.5267177
690,18.5932751,5.5880380,13.2685976,-2.5114503,-42.2824440,-250.1374054,-1.6424140,1.1468167,10.4243011,0.5038168,-3.4809160,-3.8931298
700,10.8480721,4.1994085,13.3859129,47.4732819,-28.1221371,-250.1374054,-1.7046629,1.2138541,10.3428984,0.3664122,-3.3206108,-3.9236641
710,5.6359220,4.1060348,12.0116482,101.3435135,-41.4503822,-250.1374054,-1.7286048,1.1899122,10.4099360,0.4274809,-3.2824428,-3.6183207
720,2.2122312,4.3598189,8.8082228,146.6564941,-65.5114517,-250.1374054,-1.7405758,1.1659702,10.3620520,0.5877863,-2.8931298,-4.2213740
730,0.2346306,4.5705075,5.3007355,173.5419922,-85.2519073,-250.1374054,-1.8004304,1.2162483,10.3620520,0.3969466,-3.0076337,-3.5496182
740,-1.3383518,4.7285242,1.9560528,180.3664093,-97.7328262,-250.1374054,-1.7573351,1.1300575,10.4147243,0.1374046,-3.0763359,-2.7938931
750,-3.0214672,4.4029145,-0.9888002,169.0915985,-101.2748108,-250.1374054,-1.7764885,1.1731528,10.3500814,-0.2748092,-3.5267177,-2.7786260
760,-5.4683285,3.8115497,-3.1675127,151.2595367,-91.6030502,-250.1374054,-1.7621235,1.1228749,10.3021975,-0.4427481,-3.6412213,-2.8015268
770,-8.9255381,3.5194585,-4.5202298,131.5725250,-67.5190811,-250.1374054,-1.7333932,1.1396341,10.4937325,-0.8244275,-3.9923663,-2.4732823
780,-13.3930960,3.2944047,-6.0261750,106.9389343,-56.6793900,-250.1374054,-1.7549409,1.1061156,10.3476868,-0.6793893,-4.2442746,-2.5114503
790,-17.2860470,4.2568688,-7.4195933,74.4656525,-53.6488533,-224.4274750,-1.7094513,1.0989330,10.3692341,-0.9923664,-4.3358779,-2.3969467
800,-19.6131992,5.2384863,-8.4586716,33.1908379,-26.5267181,-150.7633514,-1.7166338,1.0678085,10.3596573,-0.6030535,-4.0381680,-2.4885497
810,-19.6131992,6.0549049,-9.0452480,-13.1908398,14.4351149,-65.1221390,-1.7501525,1.1109039,10.4099360,-0.3816794,-3.6412213,-2.6793892
820,-19.6131992,6.6893654,-8.4490948,-61.1603050,49.7862587,28.1755733,-1.7908537,1.0606259,10.4003592,-0.3740458,-3.3893130,-2.5190840
830,-19.6131992,6.7851329,-7.2998838,-103.4809189,85.7175598,120.2061081,-1.7214222,1.1228749,10.4195127,-0.2061069,-3.8778627,-2.4503818
840,-19.6131992,6.3374195,-5.1738434,-137.4656525,124.3740463,202.0152740,-1.7669119,1.1228749,10.3572636,-0.1908397,-3.7938931,-2.3129771
850,-17.3578739,5.3174949,-3.5912843,-162.0763397,143.4427490,250.1297760,-1.7357874,1.0773853,10.4314833,-0.5572519,-3.5419848,-3.1526718
860,-13.1776190,4.3263001,-2.4420733,-178.3129730,142.0915985,250.1297760,-1.9201399,1.0869620,10.3931761,-0.5725191,-4.1603055,-2.6259542
870,-8.8225880,3.5721307,-1.6352314,-187.5267181,134.8396912,250.1297760,-1.8339491,1.1204807,10.4578199,-0.3206107,-4.1832061,-2.3893130
880,-4.5752959,2.3319404,-1.1109039,-194.6335907,112.1755753,250.1297760,-1.8267666,1.0773853,10.3428984,-0.4809160,-3.8625953,-1.8702290
890,0.1580165,1.6783268,-0.1460456,-196.6030579,62.3129768,250.1297760,-1.8076130,1.1037214,10.4147243,-0.5419847,-3.5877862,-1.6488550
900,6.7947097,1.2521610,2.7892308,-184.3664093,-21.1908398,250.1297760,-1.8076130,1.0821736,10.5080976,-0.5038168,-3.5190840,-0.9083970
910,14.9780493,3.9815371,7.3645267,-147.4503784,-129.5038147,250.1297760,-1.7764885,1.1324517,10.4793673,-0.3053435,-3.9389312,-1.3206106
920,19.6126022,7.2879128,10.4961262,-94.9083939,-192.8244324,200.7328186,-1.6352314,1.1348459,10.4099360,-0.1526718,-4.2900763,-1.1679389
930,19.6126022,8.9207497,11.6381550,-53.0152664,-181.2671814,83.2977066,-1.6711442,1.0989330,10.5248566,0.2137405,-4.7099237,-1.7022901
940,19.6126022,10.4051476,13.6947641,-16.5725193,-114.3053436,-38.6641235,-1.6328372,1.2090657,10.4697905,0.5190840,-4.7404580,-1.6335878
950,19.6126022,8.7124557,14.2717638,35.0992355,-35.5038185,-153.1145020,-1.6855093,1.1707586,10.5033092,1.3129771,-4.5343513,-2.1832061
960,16.3523140,6.6223278,12.3899307,89.4732819,-18.4732819,-233.2442780,-1.6950861,1.1923064,10.5727406,1.4274809,-4.3587785,-2.1603053
970,9.6892843,5.5473371,9.3229742,133.0152740,-42.4885483,-250.1374054,-1.6304430,1.2018831,10.4793673,1.4656489,-4.0305343,-2.1526718
980,5.2001796,5.0732875,6.2991123,163.5038147,-69.9618301,-250.1374054,-1.6184721,1.1731528,10.4290895,1.4122137,-3.9694657,-2.1908398
990,1.8650736,4.9440012,2.4875629,174.8702240,-83.0763321,-250.1374054,-1.5250987,1.1994889,10.3644457,1.3053435,-4.0229006,-2.7175572
1000,-0.6607963,5.0062504,-0.5650287,168.2671814,-77.7938919,-250.1374054,-1.5250987,1.1731528,10.4243011,1.0152671,-4.0992365,-2.8702290
1010,-3.7493007,4.9655490,-3.0047078,148.9541931,-49.2748108,-250.1374054,-1.6424140,1.2904681,10.3620520,0.8091603,-4.2977099,-3.3587787
1020,-7.5800037,5.0277977,-4.3023586,127.2137375,-5.6412215,-250.1374054,-1.5873476,1.2521610,10.3381100,0.7709923,-4.2900763,-3.9007633
1030,-12.8208847,5.4419928,-6.2512288,106.4961853,34.5267181,-250.1374054,-1.5993185,1.1683644,10.4650021,0.5954198,-4.2137403,-3.6412213
1040,-18.6243992,5.5233951,-8.3030491,76.0534363,54.1450386,-205.6641235,-1.5705882,1.1827296,10.4434547,0.8625954,-3.9389312,-4.2977099
1050,-19.6131992,6.4451580,-10.4458485,30.9160309,61.1068687,-117.3282471,-1.6376256,1.2330076,10.4314833,0.8091603,-3.9694657,-3.9770992
1060,-19.6131992,6.8713236,-11.2814207,-23.8396950,73.2519073,-21.0763359,-1.6041069,1.2066715,10.4937325,0.8625954,-4.0000000,-4.5648856
1070,-19.6131992,7.0820122,-10.3548698,-81.3893127,90.1374054,76.2900772,-1.6831152,1.0893562,10.4123297,0.7404580,-2.7328243,-5.1679387
1080,-19.6131992,6.8018923,-8.0013809,-129.7938995,109.2519073,161.7633514,-1.6304430,1.1228749,10.4003592,0.7557252,-2.9007633,-5.6946564
1090,-17.6547527,6.0596933,-4.7189474,-161.8549652,128.3282471,229.2213745,-1.7357874,1.1156923,10.3764172,0.7480916,-2.9389312,-5.2442746
1100,-14.3962612,5.2049680,-2.1356170,-176.4503784,135.8320618,250.1297760,-1.7118455,1.1587877,10.3405046,0.5648855,-2.4122138,-5.3282442
1110,-11.0539722,4.4579806,-0.5386927,-179.0915985,130.8931274,250.1297760,-1.7740943,1.1085097,10.3692341,0.6106870,-3.1145039,-5.4503818
1120,-6.5457139,4.0868812,0.5291159,-172.6335907,104.2595444,250.1297760,-1.8435259,1.0702027,10.3692341,0.2061069,-1.8702290,-5.6870227
1130,-2.3295465,3.5481887,1.6663558,-159.0915985,57.6030540,250.1297760,-1.8985922,1.1539993,10.3333216,0.4351145,-2.4732823,-5.3282442
1140,3.1268115,3.3087699,3.0789278,-135.0381622,-6.0152674,250.1297760,-1.8507085,1.0893562,10.2399483,0.2442748,-3.3435113,-4.2824426
1150,9.2152348,4.1754665,4.4484038,-103.3740463,-83.3206100,250.1297760,-1.8147956,1.0797794,10.3213511,-0.4809160,-3.5343511,-4.4198475
1160,16.0697994,6.6103573,6.3565731,-66.3206100,-149.9007568,226.3282471,-1.8626794,1.1563935,10.3500814,-0.8167939,-2.3053436,-3.7251909
1170,19.6126022,8.5855637,7.6159167,-31.6030540,-176.8320618,136.7862549,-1.9368993,1.0606259,10.3476868,-0.4961832,-3.0000000,-3.4351146
1180,19.6126022,9.9382801,8.8297710,-2.7404580,-157.6106873,34.8625946,-1.9943599,1.1444225,10.4578199,-0.1526718,-3.5496182,-3.1984732
1190,19.6126022,9.9813757,9.6318245,25.4503822,-112.0534363,-68.0687027,-1.8626794,1.1300575,10.3764172,-0.3816794,-3.6106870,-2.5954199
1200,18.2820301,8.7124557,9.8951855,57.1832047,-70.9312973,-151.5954132,-1.8531027,1.0965388,10.2926207,-0.5725191,-3.3282442,-1.8931298
1210,13.0483322,7.3956513,8.8752604,90.0381699,-54.4732819,-209.4427490,-1.8626794,1.0869620,10.2998028,-0.7709923,-3.4351146,-1.7404580
1220,7.9870162,6.7971039,7.3190370,118.8778610,-58.3816795,-243.8778687,-1.8411317,1.0941446,10.2638903,-0.9923664,-3.6488550,-1.5496184
1230,4.5250182,6.5816269,5.6742291,141.2671814,-67.8167953,-250.1374054,-1.8554969,1.0414724,10.3045912,-1.7022901,-3.9007633,-1.4274809
1240,1.7717001,6.5576849,3.2417326,154.2671814,-70.8091583,-250.1374054,-1.8842272,1.0438666,10.3548698,-2.1068702,-4.3969464,-0.7175573
1250,-0.2035061,6.5457139,1.0223188,155.9313049,-65.4351120,-250.1374054,-1.8219782,0.8978211,10.3692341,-2.3358779,-4.9923663,-0.9312977
1260,-2.8227494,6.1051831,-1.2689204,149.8778687,-46.4045792,-250.1374054,-1.8698620,1.0175306,10.4434547,-2.0610688,-5.2366414,-0.8549618
1270,-6.1099715,5.6838059,-3.0142846,140.2671814,-32.1832047,-250.1374054,-1.8171898,1.0127422,10.4985209,-1.7862595,-4.9389315,-0.4351145
1280,-9.1793222,6.1722202,-4.7524662,129.4580078,-41.8320618,-233.8854980,-1.8004304,1.0271072,10.5416164,-1.2213740,-4.8854961,-0.0687023
1290,-13.6013899,5.5760674,-7.1610208,106.4961853,-59.1145020,-195.1374054,-1.7046629,1.0199248,10.5344334,-0.8244275,-4.7633586,0.2824427
1300,-15.5933561,6.5289545,-8.7004843,70.0992355,-63.9083977,-134.7099304,-1.6400198,1.0414724,10.4506369,-0.1603053,-3.6030533,-0.2290076
1310,-16.9795914,7.5369086,-9.1146793,22.6946564,-38.8702278,-64.0763321,-1.6974803,1.1635761,10.5535870,0.2595420,-3.4274809,0.0610687
1320,-18.0713425,7.8146343,-9.0548248,-25.9618320,13.4274807,7.2442746,-1.6304430,1.2066715,10.3859940,0.6183206,-3.6335878,-0.2519084
1330,-18.7081966,7.7499914,-8.4323349,-75.8244247,73.2977066,85.3664093,-1.5729824,1.2665262,10.3859940,0.5496183,-3.9847329,-0.6488550
1340,-17.7792511,7.2496057,-7.1083484,-121.3358765,122.7862625,162.1603088,-1.5250987,1.2808913,10.4051476,0.4427481,-3.8244274,-0.7938932
1350,-15.3898497,6.2991123,-5.2384863,-157.4274750,149.4274750,229.7022858,-1.4772149,1.3335636,10.3285332,0.3740458,-3.7175572,-1.3587786
1360,-12.6389265,5.4204450,-3.5577655,-181.6412201,156.4732819,250.1297760,-1.5418580,1.3239868,10.2710724,0.2442748,-3.6641221,-1.6106870
1370,-9.2032642,4.4843168,-1.9680238,-197.3893127,160.6412201,250.1297760,-1.6376256,1.3000449,10.3428984,-0.5954198,-3.3587787,-2.6564887
1380,-5.8322453,3.5864959,-0.4094064,-207.7175598,161.1450348,250.1297760,-1.6711442,1.2928623,10.2064295,-1.2137405,-3.5954199,-2.6183207
1390,-2.3989778,2.7413468,1.2880739,-212.2061005,148.0610657,250.1297760,-1.5993185,1.2186425,10.2112179,-1.8320611,-4.2748094,-3.0763359
1400,2.3032103,2.2864509,3.6702924,-207.3893127,103.0076370,250.1297760,-1.6974803,1.1516051,10.3620520,-2.3587787,-4.3511453,-3.2748091
1410,9.0883436,3.1387823,6.9934273,-183.8625946,21.5190830,250.1297760,-1.6184721,1.0678085,10.4266949,-2.7557251,-3.5572519,-3.8244274
1420,17.1184540,5.7628140,10.3333216,-136.5267181,-69.2900772,246.3740387,-1.7238164,1.0630201,10.4913378,-2.1603053,-2.9312978,-3.6946564
1430,19.6126022,7.6614060,12.7801828,-73.5648880,-129.2748108,147.5267181,-1.8483143,1.0271072,10.4913378,-1.4274809,-2.6106870,-3.9389312
1440,19.6126022,9.2128410,14.1879663,-6.9389315,-160.1526642,40.2061081,-1.7836711,0.9720409,10.4889441,-0.9160305,-1.8931298,-4.6030536
1450,19.6126022,9.7323799,13.7977142,46.6641235,-150.8091583,-70.7786255,-1.7669119,0.9744351,10.5272512,-0.4503817,-1.3053435,-4.7328243
1460,19.6126022,8.5616217,12.4569674,93.2061081,-118.3740463,-177.9465637,-1.9225341,0.9169745,10.4099360,-0.1068702,-1.4351145,-4.1984735
1470,16.7736912,6.9335728,10.0915089,133.8167877,-90.0992355,-250.1374054,-1.9249283,0.9816177,10.3764172,-0.1984733,-1.4122137,-4.5343513
1480,10.9222927,6.5121951,7.5536675,163.4198456,-61.3893127,-250.1374054,-1.8578910,1.0199248,10.3333216,-0.6946565,-1.8854961,-3.4732823
1490,6.7348547,6.0189924,5.0206151,181.6870270,-43.6412201,-250.1374054,-1.9321109,1.0558375,10.3428984,-1.0839695,-2.1374047,-2.7480917
1500,3.4236910,5.3917146,2.6623387,192.8549652,-37.4809151,-250.1374054,-1.8578910,1.0199248,10.2471304,-1.4885496,-2.7633588,-2.5877862
1510,0.9959828,4.5489597,-0.1173153,196.2290039,-32.0305328,-250.1374054,-1.8147956,1.0582317,10.4434547,-1.6793894,-3.7786260,-2.3664122
1520,-1.8650736,3.8498566,-2.7437410,188.7022858,-17.9312973,-250.1374054,-1.8076130,1.0271072,10.3500814,-1.9847329,-4.6259542,-2.4809160
1530,-4.4867110,3.1962428,-4.5441718,175.5572510,1.0076336,-250.1374054,-1.7932479,1.1085097,10.4314833,-1.8167939,-4.7786260,-2.2900763
1540,-8.7531567,2.5282640,-6.2751703,159.3282471,19.3282452,-250.1374054,-1.8267666,1.2282192,10.5895004,-1.2519084,-5.1450381,-1.9007634
1550,-13.5630836,2.4181314,-8.7244263,133.9541931,30.9923668,-250.1374054,-1.7094513,1.2282192,10.5464048,-0.6793893,-4.6030536,-1.4580153
1560,-18.5717278,3.2489152,-10.4171181,95.6030502,36.3893127,-250.1374054,-1.6088953,1.2162483,10.4961262,0.1145038,-4.1068702,-0.7862595
1570,-19.6131992,3.9552009,-11.8584204,48.5496178,43.3206100,-182.9618378,-1.6280488,1.1994889,10.4793673,0.6641222,-3.6641221,-1.0458015
1580,-19.6131992,4.4986820,-12.3276815,-6.8244276,60.1068687,-91.4503784,-1.6112895,1.2018831,10.4506369,0.9541985,-3.5038168,-1.4885496
1590,-19.6131992,5.3198891,-11.4298601,-63.6335869,73.3664093,-3.0076337,-1.6998745,1.2282192,10.3812056,1.0000000,-3.1603053,-1.5648855
1600,-19.6131992,5.8585815,-9.7180147,-108.8396912,85.8549652,74.6870193,-1.7429699,1.2330076,10.3452930,0.9694657,-2.5877862,-1.9770992
1610,-18.9595871,6.2679882,-7.9367380,-140.3053436,94.3282471,137.7404633,-1.8219782,1.1444225,10.3117743,0.9389313,-2.3511450,-1.1832061
1620,-16.5175133,6.2296810,-6.7707677,-162.8320618,97.4885483,189.8320618,-1.8914096,1.0462608,10.2207947,0.6717557,-2.4885497,-1.4351145
1630,-14.0275564,5.7556314,-6.0692701,-181.6793823,93.3053436,231.8625946,-1.8866212,0.9959828,10.2136126,0.4045801,-2.4732823,-1.2137405
1640,-11.6309719,5.3773494,-5.0828643,-199.2519073,82.7862625,250.1297760,-1.9225341,0.8930327,10.1633339,-0.0992366,-2.4427481,-1.1374046
1650,-8.7220325,4.6495161,-4.2065907,-215.4732819,73.8625946,250.1297760,-1.9416877,0.9313397,10.1465750,-0.6412213,-3.1755726,-1.1832061
1660,-5.8513989,3.7493007,-3.4356618,-231.6030579,68.4809189,250.1297760,-1.9488702,0.8044477,10.2112179,-1.2061069,-4.5343513,-1.2137405
1670,-3.1699069,2.7174051,-2.3558824,-248.0915985,62.0839691,250.1297760,-1.9967541,0.7996593,10.3381100,-2.1297710,-4.7251906,-1.1755725
1680,-0.0742199,1.2784972,-0.4333483,-250.1374054,46.0916023,250.1297760,-1.9105632,0.8164186,10.2519188,-2.6412213,-5.2824426,-1.3435115
1690,3.6822634,0.3303981,2.6383967,-250.1374054,-1.4351145,250.1297760,-1.9440818,0.8930327,10.3093796,-3.2061069,-5.4045801,-0.9694657
1700,9.3133974,0.9289455,6.9527264,-226.9694672,-89.3511429,250.1297760,-1.8363433,0.8762733,10.2998028,-3.3129771,-5.3511453,-1.1145039
1710,15.6220865,3.7277529,11.3053627,-176.7175598,-173.8931274,249.0534363,-1.6998745,0.9361281,10.4362717,-3.2519083,-5.0839696,-1.3969465
1720,19.6126022,6.3805151,15.3754845,-113.9770966,-204.3740387,160.9618378,-1.7238164,0.9385223,10.5775290,-2.8549619,-5.0458016,-1.7709924
1730,19.6126022,8.1809454,18.1240139,-46.5572510,-168.5572510,48.1908379,-1.5921360,1.0462608,10.5607700,-2.3664122,-4.5190840,-2.1374047
1740,19.6126022,8.4945841,18.2125988,21.9083977,-96.0000000,-66.3053436,-1.5945302,1.1228749,10.6469603,-1.3282443,-4.4656487,-2.5648854
1750,19.6126022,6.8425937,16.6372223,86.8625946,-36.1755714,-166.0763397,-1.5753766,1.1563935,10.6397781,-0.2824427,-3.9389312,-2.4198472
1760,17.2166157,5.1786318,14.2669754,142.3587799,-6.1221375,-240.9541931,-1.5658000,1.1803354,10.6517487,0.7557252,-3.2824428,-3.8015268
1770,11.6716738,3.8905578,11.1688938,187.3511505,15.4122133,-250.1374054,-1.4843974,1.2617378,10.4458485,1.6946565,-2.6717558,-3.2366412
1780,7.5512733,3.5481887,8.4610653,221.2519073,45.5801544,-250.1374054,-1.5418580,1.2832855,10.4027529,2.0076337,-2.5114503,-3.2671757
1790,4.6064205,3.1579359,5.5569139,244.7251892,78.5877838,-250.1374054,-1.5442522,1.3120158,10.4650021,1.9312977,-2.8931298,-3.8244274
1800,2.3199697,2.5330524,1.9728121,250.1297760,108.7175598,-250.1374054,-1.5083394,1.3383518,10.3333216,1.5267175,-3.0763359,-4.3435116
1810,0.1867468,1.9345051,-1.6711442,250.1297760,112.4503784,-250.1374054,-1.6017127,1.3790531,10.2998028,1.1450381,-3.4656489,-4.9541984
1820,-2.9711890,0.8044477,-5.0924411,250.1297760,96.5114517,-250.1374054,-1.6687500,1.2210367,10.3309278,0.6030535,-3.5190840,-4.6641221
1830,-6.8856888,0.3327923,-8.2934723,250.1297760,64.2900772,-250.1374054,-1.7884595,1.2545552,10.4290895,-0.0381679,-4.2290077,-5.0381680
1840,-11.7626524,0.8547257,-12.6963863,244.6106873,21.8091602,-250.1374054,-1.8195840,1.2521610,10.3357162,-0.2290076,-3.7709923,-4.3740458
1850,-16.0626163,2.3056045,-15.8519287,200.0076294,-20.6717548,-250.1374054,-1.8315549,1.1635761,10.3812056,-0.2137405,-3.2290077,-3.4427481
1860,-19.6131992,4.4053087,-18.4041348,119.4656525,-18.3206100,-193.0534363,-1.8483143,1.0510491,10.4003592,0.3587786,-2.6412213,-2.9541984
1870,-19.6131992,5.1714492,-18.9404335,23.8549614,37.9541969,-114.4732819,-1.8674678,1.0486550,10.4865494,0.7862595,-2.2748091,-2.8549619
1880,-19.6131992,5.5233951,-17.4488525,-62.8473282,90.1068726,-31.9618320,-1.8890154,0.9911944,10.3979645,1.1984733,-1.7938931,-2.5801528
1890,-19.6131992,5.6502872,-15.1719790,-131.5496216,117.8473282,47.4809151,-1.8890154,0.9624642,10.3692341,1.1908396,-1.8702290,-1.5343511
1900,-19.6131992,5.5856438,-11.6860390,-178.9770966,108.9160309,116.3969498,-1.8914096,0.8188128,10.3883877,1.1450381,-2.6259542,-1.3740458
1910,-17.4751892,5.1929970,-8.8585014,-204.4809113,82.5419846,171.6717529,-1.9105632,0.8882443,10.2806492,0.7099237,-2.5114503,-1.9694656
1920,-14.7146883,4.9942794,-6.8928714,-216.0763397,44.6030540,213.2290039,-1.9416877,0.8858501,10.2543135,0.3740458,-3.4351146,-1.7709924
1930,-11.8823624,4.5154414,-5.3581958,-220.9313049,10.1755724,247.1068726,-1.9943599,0.8092360,10.2854376,0.1450382,-4.8549619,-1.4961832
1940,-9.4115591,3.8642218,-3.8809812,-221.6946564,-12.5496187,250.1297760,-1.8866212,0.9145803,10.2088242,-0.7328244,-5.0381680,-1.0839695
1950,-6.7755561,2.8395088,-3.3782012,-224.4732819,-28.1755733,250.1297760,-1.9632354,0.8379663,10.3596573,-1.0916030,-4.3893127,-1.5954199
1960,-3.9144998,1.5897418,-2.7078283,-233.9313049,-39.2442741,250.1297760,-1.9536586,0.9504932,10.4147243,-0.9465649,-5.1832061,-1.0076336
1970,-0.9504932,0.4333483,-0.8906385,-244.9694672,-51.0000000,250.1297760,-1.9560528,0.9121862,10.3141680,-0.9618320,-5.3053436,-1.7251909
1980,3.3805954,-0.4884146,2.1571648,-245.4274750,-76.6412201,250.1297760,-1.9297167,0.9600700,10.5009146,-0.6946565,-5.2900763,-1.1068702
1990,9.0236998,0.3303981,5.9543490,-226.8167877,-138.7557220,250.1297760,-1.7884595,0.9864060,10.3883877,-0.6106870,-4.9389315,-0.8778626
2000,16.8096046,3.1459649,11.1976242,-178.6412201,-223.2748108,250.1297760,-1.8507085,1.0223188,10.3883877,-0.3969466,-4.6259542,-1.0000000
2010,19.6126022,7.1155310,14.9181948,-112.4809189,-250.1374054,168.8931274,-1.6855093,0.9744351,10.3716288,-0.5267175,-4.6106873,-1.1221374
2020,19.6126022,9.1601686,17.3291435,-42.4961815,-213.6030579,49.2213745,-1.7501525,1.0007712,10.4099360,-0.5419847,-4.5954199,-1.4961832
2030,19.6126022,9.0332766,17.0514164,27.6564884,-141.6564941,-76.3740463,-1.6088953,1.0366840,10.4745789,-0.8854962,-4.5877862,-1.9465649
2040,19.6126022,8.4467001,14.5375185,93.1679382,-70.4122162,-181.2213745,-1.6136837,1.0438666,10.4243011,-1.0076336,-4.0534353,-2.4580152
2050,16.0410690,6.3661499,11.1664991,145.0076294,-44.4198456,-250.1374054,-1.5993185,1.0582317,10.4482431,-1.0000000,-4.0916033,-2.6106870
2060,10.5703468,5.4348102,7.7452030,182.6412201,-54.0000000,-250.1374054,-1.6448082,1.1085097,10.4530315,-0.9007633,-3.6793892,-3.0152671
2070,6.7516141,5.1044121,4.5824785,204.6259613,-69.6259537,-250.1374054,-1.5921360,1.1923064,10.4817610,-0.2290076,-3.3587787,-3.3969467
2080,3.6200144,5.1403246,1.1037214,211.4351196,-76.4732819,-250.1374054,-1.5729824,1.2689204,10.5272512,0.3053435,-2.9618320,-3.6412213
2090,0.8116302,4.7309184,-1.9919657,201.6488495,-72.2366409,-250.1374054,-1.6735384,1.3024391,10.4219065,0.7022901,-2.7404580,-3.9160306
2100,-2.2385671,4.0988522,-4.1443419,180.8473358,-64.0763321,-250.1374054,-1.6543850,1.3982066,10.4602137,0.8625954,-2.6870229,-2.9541984
2110,-5.9926562,3.3566537,-5.4467812,162.9160309,-40.5038185,-250.1374054,-1.6136837,1.3359578,10.3788109,0.6641222,-2.4580152,-3.4045801
2120,-11.7434988,2.6455793,-7.2352405,146.6641235,-20.3129768,-250.1374054,-1.7070571,1.2665262,10.3189564,0.3053435,-2.9007633,-3.6793892
2130,-17.9899387,3.0932927,-9.1194677,117.7633591,-14.2595415,-250.1374054,-1.6950861,1.2234308,10.3333216,-0.1374046,-3.1068702,-3.5877862
2140,-19.6131992,3.5912843,-10.8696203,73.6183243,-4.6183205,-223.8473358,-1.7717001,1.1851238,10.3357162,-0.6106870,-3.3893130,-4.0152674
2150,-19.6131992,4.2568688,-12.2462788,13.7251911,15.1908398,-129.2977142,-1.8531027,1.0989330,10.4123297,-0.7633588,-3.4809160,-3.6641221
2160,-19.6131992,4.8434453,-11.6788559,-50.4351158,41.3206100,-32.9312973,-1.8602852,1.0175306,10.4266949,-0.4427481,-3.4198472,-2.6488550
2170,-19.6131992,4.9296360,-9.6797075,-106.0381699,65.4961853,64.0839691,-1.9392935,0.9624642,10.5128860,-0.1755725,-3.1755726,-3.2671757
2180,-19.6131992,4.6519103,-6.7492199,-143.8473358,80.1679382,150.1984711,-1.9057748,0.8666966,10.3883877,0.4503817,-2.6412213,-2.5954199
2190,-19.6131992,4.4436154,-4.5776901,-165.1221313,72.1603088,215.4580078,-1.9560528,0.8188128,10.4099360,1.0229008,-2.2671757,-1.7480916
2200,-15.4880114,4.0030847,-3.1363883,-175.8778687,53.0687027,250.1297760,-1.8985922,0.8954269,10.3859940,1.1145039,-1.9770992,-2.0916030
2210,-11.4992924,3.5098817,-2.2672975,-180.2137451,37.4580154,250.1297760,-1.8626794,0.8427547,10.3644457,0.7786260,-2.7709923,-2.1450381
2220,-8.6717539,3.1196289,-1.7429699,-183.7175598,23.7938938,250.1297760,-1.9440818,0.8355721,10.2447367,-0.0152672,-3.8396947,-1.7938931
2230,-5.3390427,2.4995339,-0.9193687,-186.3129730,2.1297710,250.1297760,-1.9033806,0.9289455,10.2758608,-0.6870229,-4.6335878,-1.4809160
2240,-1.6711442,2.0254843,0.4740495,-183.9007568,-26.6259537,250.1297760,-1.8961980,0.9576758,10.3117743,-1.6106870,-5.4885497,-1.4809160
2250,3.5505829,1.7645177,2.9927368,-170.1374054,-78.7938919,250.1297760,-1.8028246,0.9672526,10.3859940,-1.9618320,-5.8931298,-1.6412214
2260,10.4027529,2.3894010,5.6909885,-140.8015289,-146.8854980,250.1297760,-1.9177457,0.9480990,10.4075413,-1.9465649,-5.7404580,-2.3282442
2270,18.4999027,7.2400289,8.3150196,-103.2824402,-198.1679382,236.3435059,-1.8100072,1.0055596,10.3716288,-1.5648855,-5.3129773,-2.3129771
2280,19.6126022,9.1290445,10.2447367,-61.6870232,-178.9007568,141.7862549,-1.7788827,1.0606259,10.4961262,-1.1603054,-4.7633586,-2.8396947
2290,19.6126022,10.4937325,11.3005743,-21.1145039,-109.7633591,29.0687027,-1.7788827,0.9433106,10.4027529,-0.8091603,-4.4809160,-2.8015268
2300,19.6126022,10.4362717,11.1856527,19.3129768,-49.4503822,-79.5572510,-1.7597293,0.9720409,10.4434547,-0.4427481,-4.0687022,-1.9694656
2310,19.6126022,8.9542685,9.7347746,57.3969460,-32.5954208,-168.4274750,-1.6136837,1.0175306,10.4410601,-0.3587786,-3.8091602,-3.0229008
2320,15.1001530,7.5680327,7.6039457,90.6335907,-49.9160309,-236.5419922,-1.6256547,1.0223188,10.3333216,-0.4732825,-3.5877862,-2.7862597
2330,10.9342632,6.7204900,5.2528515,114.8320618,-65.9083939,-250.1374054,-1.6184721,1.0797794,10.4530315,-0.8702290,-3.6412213,-3.5648854
2340,6.8425937,6.1865854,2.2529323,125.7404556,-60.4198456,-250.1374054,-1.5274929,1.1132981,10.4769726,-0.9007633,-4.1679387,-3.7633588
2350,3.4619980,5.8681583,-0.0119709,120.3129807,-45.5496178,-250.1374054,-1.5610116,1.1156923,10.5272512,-0.9007633,-4.0534353,-4.6335878
2360,0.2442073,5.3174949,-1.6663558,105.4351120,-26.1221371,-250.1374054,-1.5634058,1.1228749,10.3644457,-0.6030535,-3.8625953,-4.6412215
2370,-2.9855542,4.5345950,-2.5761478,89.5496216,2.4351146,-250.1374054,-1.6136837,1.1635761,10.4937325,-0.2824427,-3.4885497,-5.1374044
2380,-7.0030041,3.6535332,-3.1292057,74.2519073,29.7404575,-250.1374054,-1.6352314,1.2497669,10.4123297,-0.0305344,-3.1221373,-5.2137403
2390,-11.9374285,2.8203552,-3.4021432,62.9083977,41.9312973,-250.1374054,-1.6807210,1.2186425,10.4386663,0.2290076,-2.9770992,-5.0992365
2400,-17.7337608,2.4133430,-3.7109938,58.6870232,38.0610695,-250.1374054,-1.6663558,1.2018831,10.3835993,0.2900763,-2.8473282,-5.1832061
2410,-19.6131992,2.4755919,-4.8386569,49.2671738,16.6030540,-223.3816833,-1.7142396,1.1731528,10.4099360,0.2824427,-2.7938931,-5.3816795
2420,-19.6131992,2.8754215,-6.0453281,25.1145039,-4.0381680,-130.3969421,-1.7022687,1.1180865,10.3572636,0.0229008,-2.8702290,-5.2290077
2430,-19.6131992,3.3877780,-6.6941538,-12.5572519,-2.6183207,-22.9847336,-1.7166338,1.1444225,10.4458485,0.0381679,-2.0534351,-5.5343513
2440,-19.6131992,3.8259149,-5.8083038,-54.6412201,19.6793900,85.1068726,-1.8124014,1.1013272,10.4985209,0.5419847,-1.6488550,-5.4809160
2450,-19.6131992,3.8953462,-4.2951760,-86.1450348,43.7175560,172.6335907,-1.8554969,1.0199248,10.4123297,1.0458015,-1.9694656,-5.4885497
2460,-18.8039646,3.7612717,-3.0286496,-106.5725174,54.7786255,236.3664093,-1.9799947,0.9840119,10.4937325,1.1832061,-1.8854961,-4.7786260
2470,-14.9181948,3.6511390,-2.0757623,-118.9465637,57.5496178,250.1297760,-1.9368993,0.9026094,10.4171181,1.4503816,-1.5267175,-3.7328243
2480,-11.3460636,3.4404502,-1.5298871,-125.2442780,61.3053436,250.1297760,-2.0326669,0.8523315,10.4602137,1.7938931,-0.8396947,-3.4656489
2490,-8.9039907,3.2034254,-1.1444225,-131.3969421,56.0763359,250.1297760,-2.0230901,0.8762733,10.3045912,1.7480916,-0.9389313,-2.3282442
2500,-5.6287394,2.7221935,-0.2849085,-135.7175598,37.3740463,250.1297760,-2.0709739,0.9217629,10.2710724,1.3740458,-1.6335878,-2.3511450
2510,-2.2744799,2.3319404,0.5506636,-131.8167877,9.5801525,250.1297760,-2.0566087,0.7996593,10.3333216,0.7938932,-2.5648854,-1.6717557
2520,2.8730273,2.1332228,1.9129574,-119.7709961,-32.2061081,250.1297760,-2.0422437,0.8547257,10.2710724,-0.0992366,-3.9770992,-1.5496184
2530,9.2056589,3.0573800,3.6702924,-100.5038147,-85.6488571,250.1297760,-2.0183017,0.8619082,10.3165627,-0.4503817,-4.9465647,-0.8854962
2540,15.6484222,6.8425937,6.5576849,-72.3816757,-149.6183167,249.9389343,-2.1044924,0.7876883,10.3213511,-0.5190840,-5.4503818,-0.6793893
2550,19.6126022,8.9925756,8.5257082,-39.6946564,-156.9923706,176.0686951,-2.0063307,0.8714849,10.3812056,-0.9083970,-5.8854961,-0.3587786
2560,19.6126022,10.7834291,9.7180147,-8.7786255,-94.3129807,80.2748108,-1.9895715,0.9097920,10.3596573,-0.9389313,-5.8854961,0.1068702
2570,19.6126022,11.2048063,10.0771437,20.5648861,-23.8396950,-21.5877857,-1.9440818,0.9145803,10.4147243,-1.1297710,-6.1297708,-0.1679389
2580,19.6126022,10.1729107,9.5576038,54.0458031,2.6793892,-113.7862625,-1.8602852,0.9672526,10.3548698,-1.2213740,-6.0610685,0.3587786
2590,16.0602226,8.3988171,8.0420828,86.7328262,-12.7480917,-186.9160309,-1.8100072,1.0031654,10.3452930,-1.4580153,-6.0458016,0.4961832
2600,11.2191715,7.3693151,5.8298512,113.7709961,-37.4503822,-242.4809113,-1.7836711,0.9840119,10.3764172,-1.5496184,-5.8625956,0.3893130
2610,7.3621325,6.9144192,3.3590479,129.6717529,-48.7404594,-250.1374054,-1.6448082,1.0534433,10.3835993,-1.8015267,-5.7328243,-0.1832061
2620,4.2089849,6.6917596,0.7900825,132.4122162,-45.9007645,-250.1374054,-1.6711442,1.0630201,10.3716288,-1.8854961,-5.7633586,-0.4580153
2630,0.6751614,6.2488346,-1.2976507,123.3969498,-39.8473282,-250.1374054,-1.6041069,1.0821736,10.3883877,-1.7251909,-5.4656487,-0.9770992
2640,-2.3894010,5.5210009,-2.6886747,107.1145020,-36.7557259,-250.1374054,-1.6136837,1.0534433,10.4985209,-1.3358779,-4.9847326,-1.6946565
2650,-6.0644817,4.4962878,-3.0190730,89.3129807,-35.7557259,-250.1374054,-1.5562232,1.1444225,10.5057030,-0.5725191,-4.5267177,-2.0992367
2660,-9.8089943,4.1227942,-3.1890604,76.3587799,-39.0228996,-250.1374054,-1.4508789,1.1516051,10.5631638,0.0305344,-3.9389312,-2.1297710
2670,-13.5630836,3.5673423,-3.3758070,64.1068726,-38.5877876,-250.1374054,-1.5753766,1.2401901,10.5033092,0.7862595,-3.2442749,-2.5496182
2680,-18.0737362,3.2321558,-2.7964132,50.2900772,-42.6717567,-236.8091583,-1.5203103,1.2665262,10.4075413,1.1679389,-2.7480917,-2.6946564
2690,-19.6131992,3.2704628,-2.5785420,36.1526718,-40.0000000,-163.8625946,-1.5945302,1.2928623,10.2878323,1.1526718,-2.1526718,-3.4274809
2700,-19.6131992,3.7205703,-2.3822186,14.7022905,-20.5954189,-78.3053436,-1.6232605,1.2856797,10.3500814,0.9541985,-2.3435113,-3.3969467
2710,-19.6131992,3.8091555,-1.9704180,-9.4274807,13.1450386,14.0534353,-1.5945302,1.2569494,10.3117743,0.4580153,-2.8549619,-4.2290077
2720,-19.6131992,3.9240766,-1.2186425,-28.6488552,45.9847336,103.1526718,-1.7118455,1.2808913,10.4003592,-0.3129771,-3.3969467,-4.4885497
2730,-19.6131992,4.2736282,-1.0702027,-43.6564903,69.9923630,180.6412201,-1.6902977,1.1970947,10.3907824,-0.9312977,-3.5038168,-4.2671757
2740,-17.0657825,4.2305326,-1.1707586,-55.9694672,87.1068726,242.0686951,-1.7908537,1.1037214,10.2974091,-1.1908396,-2.9083970,-4.1832061
2750,-14.0850163,4.1060348,-1.0749911,-65.4198456,97.5114517,250.1297760,-1.7309990,1.0271072,10.4697905,-0.6564885,-1.7786260,-4.3053436
2760,-11.2239599,3.8378856,-1.0821736,-73.7175598,102.2213745,250.1297760,-1.8195840,0.9672526,10.5895004,-0.1679389,-0.9847328,-3.7938931
2770,-8.3700867,3.4596038,-1.0510491,-81.6183243,108.6030502,250.1297760,-1.8602852,0.8858501,10.4841557,0.3282443,-0.6412213,-3.7862597
2780,-5.5856438,2.9831600,-0.6751614,-90.6488571,115.5801544,250.1297760,-1.7884595,0.7374104,10.4410601,0.8625954,-0.9389313,-3.2290077
2790,-2.3223639,2.3103929,-0.2609667,-98.5038147,109.0381699,250.1297760,-1.7525467,0.8451489,10.4290895,0.9770992,-1.4656489,-4.2595420
2800,1.8746504,1.9201399,0.8379663,-101.4198456,82.9389343,250.1297760,-1.7453641,0.6607963,10.3237448,0.1984733,-0.5343512,-4.8320613
2810,6.3876977,2.7245877,3.1004753,-88.4732819,21.9923668,250.1297760,-2.0326669,0.7709290,10.4027529,0.0916031,-0.0534351,-5.3664122
2820,11.9302464,4.7931671,5.8298512,-56.2137413,-51.7251892,250.1297760,-2.0326669,0.7757174,10.4171181,0.6106870,-1.8778626,-4.5725193
2830,18.3203373,7.3357964,7.5512733,-12.5419846,-114.8396912,247.5496216,-2.1547706,0.7996593,10.4075413,0.6335878,-2.9236641,-4.2595420
2840,19.6126022,10.9318695,7.4028339,27.6030540,-136.9770966,149.6717529,-2.1404054,0.8619082,10.2614956,0.0000000,-3.5648854,-4.1679387
2850,19.6126022,12.9022865,6.4212160,53.5496178,-119.8778610,39.3053436,-2.1404054,0.8595140,10.2519188,-0.6641222,-4.4274807,-3.2519083
2860,19.6126022,13.1225519,5.4156566,72.7251892,-105.7251892,-71.9236679,-2.0398495,0.8954269,10.3812056,-1.1450381,-4.9389315,-2.8778627
2870,19.4120884,11.0827026,4.0102673,93.0457993,-107.6335907,-174.5801544,-1.9895715,0.8834559,10.2327662,-1.5190840,-5.5038166,-2.0916030
2880,14.0634689,9.4738073,2.4923513,112.4809189,-126.9007645,-250.1374054,-1.8459201,0.8978211,10.3165627,-1.6870229,-5.3511453,-2.0992367
2890,9.7826586,8.2934723,0.3303981,123.8549652,-149.4351196,-250.1374054,-1.8961980,0.9145803,10.4626083,-1.5572519,-5.3664122,-2.2290077
2900,5.0541339,7.2567883,-2.0661855,120.0687027,-162.8778687,-250.1374054,-1.7501525,0.9480990,10.5464048,-1.0000000,-5.0687022,-2.9847329
2910,1.4532729,6.6079631,-3.8235207,100.9236679,-169.1145020,-250.1374054,-1.6783268,0.9433106,10.5057030,-0.2748092,-4.6183205,-3.2748091
2920,-0.7972651,6.0836353,-4.6088147,71.1603088,-162.9084015,-250.1374054,-1.7477583,1.0366840,10.4219065,0.1450382,-4.2137403,-3.6412213
2930,-3.4787574,5.3438311,-4.5226240,39.1145020,-150.5267181,-250.1374054,-1.8076130,1.0390782,10.4506369,0.4961832,-4.0229006,-3.1374047
2940,-5.8418221,4.3574247,-3.9575951,9.2442751,-123.8167953,-250.1374054,-1.7812769,1.1061156,10.4290895,0.8854962,-3.7786260,-2.9465649
2950,-9.4833841,3.2920105,-2.6814921,-11.9770994,-90.4427490,-250.1374054,-1.7932479,1.0965388,10.4937325,0.8015267,-3.6488550,-2.1221373
2960,-13.7282820,2.6599445,-1.3646880,-24.3587780,-56.8244286,-250.1374054,-1.7621235,1.1396341,10.5057030,0.7251908,-3.7480917,-1.4580153
2970,-18.5382080,2.4612267,-0.1292862,-31.4732819,-41.6259537,-213.3206177,-1.7788827,1.1156923,10.3428984,0.3587786,-3.7099237,-1.1450381
2980,-19.6131992,2.4827745,0.7110743,-34.4885483,-32.6412201,-127.2061081,-1.7405758,1.1947005,10.5152798,0.2748092,-3.8549619,-1.1145039
2990,-19.6131992,2.2912393,1.2449785,-36.9007645,-5.7404580,-25.1679382,-1.7429699,1.1803354,10.4697905,0.6259542,-3.3816793,-1.0534351
3000,-19.6131992,2.7174051,1.2234308,-42.5725174,33.9541969,91.9923630,-1.7860653,1.1779412,10.5511932,0.9923664,-3.5267177,-1.4427481
3010,-19.6131992,3.3782012,0.4572902,-52.2290077,94.2442780,203.0305328,-1.8052188,1.1803354,10.5200682,1.4351145,-3.2366412,-0.9618320
3020,-18.6291885,3.4596038,-0.2322364,-70.7938919,160.6335907,250.1297760,-1.8459201,1.1755470,10.5009146,1.7099236,-3.0076337,-0.9312977
3030,-14.4225969,2.9592183,-0.1508339,-91.8320618,205.0686951,250.1297760,-1.7740943,1.1037214,10.4530315,2.3129771,-2.8396947,-0.6717557
3040,-10.8576488,2.4995339,0.0861908,-106.8473282,231.3816833,250.1297760,-1.8147956,1.0630201,10.3596573,2.3282442,-2.5496182,0.0534351
3050,-7.9750452,2.1978660,0.3639168,-115.4809189,228.4961853,250.1297760,-1.8531027,1.0606259,10.3285332,1.7862595,-3.1068702,0.0076336
3060,-4.7955613,1.3982066,0.6248835,-119.0687027,214.3053436,250.1297760,-1.8435259,0.9433106,10.3021975,1.3129771,-3.4809160,-0.0458015
3070,-0.2011119,0.9385223,1.3024391,-115.7175598,180.5496216,250.1297760,-1.8722562,0.9744351,10.2926207,0.2137405,-3.6717558,-0.3282443
3080,5.8729467,1.3311694,1.8722562,-102.0839691,114.0457993,250.1297760,-1.8435259,0.8499373,10.2519188,-0.4580153,-4.1908398,-0.5954198
3090,14.7649660,4.3861551,2.9999194,-73.0076370,21.5114498,250.1297760,-1.8554969,0.8595140,10.2327662,-1.2900764,-5.0458016,-0.2137405
3100,19.6126022,9.0763721,5.1307478,-27.9923668,-66.2900772,250.1297760,-1.8219782,0.8331779,10.1729107,-2.0992367,-5.0000000,-0.9923664
3110,19.6126022,12.3659887,6.2943239,19.0458012,-103.1984711,127.0839691,-1.8985922,0.8212070,10.2519188,-2.6106870,-4.5267177,-0.7709923
3120,19.6126022,14.0347385,6.1171541,49.0992355,-98.6030502,-11.6564884,-1.9512644,0.7685348,10.4458485,-2.6412213,-4.5419846,-1.5954199
3130,19.6126022,13.4433737,5.5664907,61.9541969,-102.7862625,-128.4122162,-1.9464760,0.7374104,10.4769726,-2.4427481,-4.8015265,-1.3816794
3140,19.1726685,10.9510221,4.6136031,66.8320618,-129.7480927,-219.2671814,-1.9847831,0.7565638,10.4362717,-2.0992367,-5.2366414,-1.4656489
3150,13.6061783,8.4059992,3.4715748,75.7251892,-141.6564941,-250.1374054,-1.8435259,0.7134684,10.4745789,-1.8702290,-5.5725193,-2.1679389
3160,8.5257082,7.3932571,2.0877333,89.9465637,-127.0076370,-250.1374054,-1.7764885,0.7733232,10.4937325,-1.1832061,-5.6106873,-2.9465649
3170,4.1874375,6.9479380,0.6129125,102.6335907,-108.2595444,-250.1374054,-1.7956421,0.7589580,10.3979645,-0.6259542,-5.1374044,-3.3816793
3180,0.5865764,6.4283986,-1.4891858,102.0534363,-103.6717529,-250.1374054,-1.7453641,0.8212070,10.4003592,-0.1679389,-4.7633586,-3.7557251
3190,-1.8985922,6.2057390,-2.8562679,90.6870193,-94.5877838,-250.1374054,-1.6950861,0.8858501,10.4889441,0.0916031,-4.3053436,-4.5877862
3200,-4.4148855,5.7149301,-3.6846576,66.0229034,-91.1755753,-250.1374054,-1.6879035,0.9792235,10.4697905,0.4351145,-3.9923663,-4.8549619
3210,-7.3645267,5.0349803,-3.3973548,39.4274826,-93.7862625,-250.1374054,-1.7118455,0.9672526,10.4697905,0.6946565,-3.5572519,-4.9923663
3220,-11.1688938,4.1395535,-2.3798244,25.9847336,-99.9083939,-250.1374054,-1.7573351,1.0366840,10.4027529,0.8625954,-3.2061069,-5.1374044
3230,-14.9253769,3.6152260,-1.6615674,22.9923668,-101.9236679,-237.0763397,-1.7549409,1.1037214,10.3428984,0.9236641,-2.7709923,-4.7328243
3240,-18.3754044,3.6607156,-1.1276633,21.8015270,-99.3587799,-172.2213745,-1.8004304,1.1132981,10.4051476,1.0076336,-2.5190840,-4.0763359
3250,-19.6131992,4.0150557,-1.1324517,14.1068707,-70.9312973,-91.8931274,-1.8507085,1.0941446,10.4051476,0.8854962,-2.4122138,-4.0458016
3260,-19.6131992,4.5968437,-1.4508789,-6.0687022,-12.4809160,1.9465649,-1.8100072,1.0917504,10.3381100,0.6793893,-2.5190840,-4.1755724
3270,-19.6131992,4.8985114,-1.5011568,-32.5877876,62.7022896,97.2366409,-1.8028246,1.0941446,10.4602137,0.4274809,-2.9160306,-3.4503818
3280,-19.0074692,4.8362627,-1.4365137,-61.1068687,144.4732819,186.4580078,-1.8818330,1.0965388,10.4075413,0.3358779,-3.2290077,-2.4274809
3290,-16.4504757,4.2425036,-0.4692611,-85.4656525,208.9847260,250.1297760,-1.8722562,1.1109039,10.4147243,0.1450382,-3.5190840,-2.5648854
3300,-13.3332415,3.5888901,0.0598547,-103.2442780,244.6870270,250.1297760,-1.7405758,1.1372399,10.3333216,-0.1297710,-3.6412213,-1.8778626
3310,-9.8951855,3.1028695,-0.4525018,-117.7557220,250.1297760,250.1297760,-1.7573351,1.1180865,10.3955708,-0.3129771,-3.6564887,-1.4656489
3320,-6.6845770,3.0286496,-0.8044477,-131.9313049,250.1297760,250.1297760,-1.7525467,1.1204807,10.4697905,-0.0152672,-3.2977099,-0.7251908
3330,-2.9113343,2.7628946,-0.2777260,-140.9160309,218.4580078,250.1297760,-1.7453641,1.1204807,10.5248566,0.3358779,-3.1603053,-0.8320611
3340,1.9656296,2.6551561,0.4596844,-137.2977142,161.0152740,250.1297760,-1.8363433,1.1492109,10.4697905,0.7099237,-3.2442749,-0.7786260
3350,8.6214762,4.2520804,1.1204807,-118.5190811,71.2748108,250.1297760,-1.8243724,1.1300575,10.5823174,1.3587786,-3.5267177,-0.9694657
3360,16.3786507,7.2879128,2.7605004,-80.7786255,-39.0000000,250.1297760,-1.9225341,1.0654143,10.5272512,1.4503816,-3.3435113,-0.7480916
3370,19.6126022,10.6110477,4.7764082,-30.4809170,-125.5801544,150.7709961,-1.9536586,1.1156923,10.4266949,1.4122137,-3.5114503,0.0839695
3380,19.6126022,13.0243902,5.6766233,14.9770994,-149.3740387,28.8244267,-1.9584470,0.9720409,10.3117743,1.0763359,-3.7099237,0.3969466
3390,19.6126022,13.9078465,5.9950504,45.0305328,-136.7633514,-75.8396912,-1.9177457,0.9624642,10.2184010,0.5801527,-4.2442746,1.1832061
3400,19.6126022,13.0842457,6.2967181,65.8244247,-118.4122162,-157.4045868,-1.9321109,0.9217629,10.1800938,-0.3664122,-4.5877862,0.5877863
3410,17.4919491,10.7259684,5.7676024,84.5038147,-86.6106873,-222.5648804,-1.9345051,0.8571198,10.3213511,-1.2900764,-5.5190840,0.8167939
3420,12.4737272,8.7340031,4.4388270,101.3282471,-38.3129768,-250.1374054,-1.9345051,0.8475431,10.2614956,-1.9389313,-6.0229006,0.5572519
3430,7.7356262,7.7619624,3.0501974,116.9083939,5.0229006,-250.1374054,-1.8626794,0.7876883,10.4338779,-2.1526718,-5.8854961,0.1374046
3440,3.3231349,7.1107426,0.3806761,119.8091583,26.8854961,-250.1374054,-1.8578910,0.7565638,10.4961262,-1.8473282,-5.5114503,-0.0305344
3450,0.8690908,6.8425937,-2.3534882,104.8015289,31.5267181,-250.1374054,-1.8363433,0.7326220,10.4482431,-1.0000000,-4.8702292,0.0000000
3460,-1.6759326,6.6271162,-4.3789725,80.2595444,28.5954189,-250.1374054,-1.8171898,0.8307837,10.5296450,-0.4122137,-4.3129773,-0.4503817
3470,-4.9080882,5.9040713,-5.7292953,59.9160309,9.8167934,-250.1374054,-1.7238164,0.8690908,10.4865494,0.3969466,-4.1526718,-1.2900764
3480,-9.0644016,4.9368186,-6.3278427,49.7022896,-22.7022896,-250.1374054,-1.7501525,0.9289455,10.4937325,0.7328244,-4.1984735,-1.9694656
3490,-12.9645357,4.8027439,-6.4667058,44.6946564,-78.5038147,-232.0305328,-1.6591733,0.9265513,10.4673967,1.1450381,-4.2366414,-1.8549619
3500,-15.7513723,5.3246775,-6.9000540,32.1908379,-124.2519073,-186.4961853,-1.6711442,0.9624642,10.2710724,1.3206106,-4.4503818,-2.7633588
3510,-18.2173882,5.8705525,-7.4387465,0.3893130,-127.7938919,-126.0992355,-1.6902977,1.0247130,10.3668404,0.9465649,-4.5419846,-2.8244274
3520,-19.6131992,5.8442163,-7.0460997,-43.5419846,-86.9923630,-48.5954208,-1.6783268,1.0917504,10.2758608,0.6106870,-4.0992365,-3.2137403
3530,-19.6131992,5.3845320,-5.6670465,-83.7862625,-18.1908398,40.7786255,-1.7525467,1.1037214,10.3021975,0.0534351,-3.9236641,-3.2748091
3540,-19.6131992,5.0852585,-4.5322008,-115.7404556,60.8473282,128.5343475,-1.7693061,1.0582317,10.2902260,-0.0534351,-3.6412213,-3.7557251
3550,-17.6834831,4.8649931,-3.3183465,-143.6412201,122.9618301,204.6641235,-1.7070571,1.0438666,10.3812056,-0.2213740,-3.6183207,-4.0229006
3560,-15.3108416,4.4507980,-2.0446377,-166.2824402,165.3282471,250.1297760,-1.8052188,1.0486550,10.5224628,-0.2061069,-3.4656489,-4.1068702
3570,-12.6461086,3.7995787,-0.7038917,-181.1374054,191.5267181,250.1297760,-1.8124014,1.0702027,10.4243011,-0.1450382,-3.4580152,-3.5725191
3580,-9.7156210,3.4667864,0.5171449,-187.5496216,198.9007568,250.1297760,-1.7286048,1.0247130,10.4602137,0.1297710,-3.2519083,-4.3664122
3590,-5.9902620,3.0717452,1.7525467,-185.3816833,193.8702240,250.1297760,-1.7501525,1.0702027,10.5104914,0.4045801,-3.0000000,-3.7251909
3600,-3.0549858,2.3247581,2.7748656,-178.1679382,170.1755676,250.1297760,-1.7836711,1.0079538,10.3428984,0.4351145,-2.7328243,-4.3358779
3610,1.9680238,2.2409613,4.4412212,-161.9923706,117.8931274,250.1297760,-1.7740943,1.0103480,10.3285332,0.4732825,-3.0229008,-4.1297708
3620,9.4378948,3.2058196,6.6726060,-127.7862625,33.2213745,250.1297760,-1.7094513,1.0414724,10.3859940,0.1755725,-3.1984732,-4.1297708
3630,19.3594151,6.5121951,8.8393478,-70.7099228,-84.9618301,238.7175598,-1.7286048,1.0702027,10.3524752,0.0305344,-3.5267177,-4.1832061
3640,19.6126022,10.3548698,10.2207947,-1.9694656,-179.3282471,112.0687027,-1.7717001,1.0414724,10.4530315,0.1068702,-3.4732823,-3.6564887
3650,19.6126022,11.8560257,8.9063845,54.7862587,-210.1145020,-23.6488552,-1.7309990,1.0223188,10.4578199,0.2442748,-3.1145039,-3.8778627
3660,19.6126022,12.6772327,6.2392578,75.3816757,-197.8396912,-133.8473358,-1.7884595,1.1539993,10.4386663,0.7251908,-3.2137403,-3.7786260
3670,19.6126022,10.8911676,4.4172797,69.0457993,-154.9084015,-226.6946564,-1.8291607,1.1324517,10.4602137,1.1526718,-2.7480917,-3.1832061
3680,17.6427822,8.8058290,4.3981261,69.0229034,-117.6946564,-250.1374054,-1.7860653,1.1396341,10.4434547,1.4961832,-2.6793892,-3.3969467
3690,11.1329813,6.5050125,4.0006905,75.6183243,-89.3893127,-250.1374054,-1.8794388,1.1587877,10.4075413,1.4885496,-2.8702290,-2.9541984
3700,6.5265603,5.7077475,3.3853838,81.8702316,-71.7404556,-250.1374054,-1.8531027,1.1109039,10.3788109,1.1145039,-2.9541984,-2.9160306
3710,3.0741394,5.5281835,2.0183017,84.5114517,-58.9923668,-250.1374054,-1.9249283,1.1324517,10.3117743,0.9847328,-3.0152671,-2.4198472
3720,-0.3567342,5.1259594,0.6200951,81.1832047,-46.6183205,-250.1374054,-1.9440818,0.9816177,10.3333216,0.4809160,-3.2595420,-2.6717558
3730,-3.6918402,4.3861551,-0.2537841,78.1068726,-46.3511467,-250.1374054,-1.9536586,0.9552816,10.3883877,0.2061069,-3.5190840,-2.2595420
3740,-7.9534974,3.4045374,-1.6519908,75.4503784,-65.2595444,-250.1374054,-1.9967541,0.8954269,10.2926207,-0.0381679,-3.5877862,-1.2213740
3750,-12.1098099,3.2010312,-3.1148405,66.6183243,-98.0763321,-250.1374054,-2.0350611,0.8236012,10.3141680,-0.2290076,-3.6030533,-0.9541985
3760,-16.9795914,3.1387823,-4.7165532,40.7022896,-128.3435059,-250.1374054,-2.0997043,0.7805058,10.4362717,-0.4503817,-3.6793892,-1.0000000
3770,-19.6131992,3.6631098,-5.0948353,2.7557251,-121.6641235,-181.5114441,-2.0518203,0.6919208,10.4793673,-0.2519084,-4.3587785,0.1145038
3780,-19.6131992,3.8378856,-4.2975702,-35.4732819,-73.4045792,-87.9542007,-1.9680238,0.6871324,10.4410601,0.0000000,-4.9312978,-0.4809160
3790,-19.6131992,3.8546450,-2.4827745,-68.3587799,2.0305343,15.1145039,-1.9464760,0.7493813,10.4195127,-0.0381679,-5.3435116,0.1984733
3800,-19.6131992,3.6631098,-0.5722113,-91.6412201,73.2290039,108.7251892,-1.8961980,0.7781116,10.4769726,0.3358779,-5.5954199,-0.1221374
3810,-19.6131992,3.5864959,1.2521610,-101.7786255,127.4122162,188.1908417,-1.8674678,0.8188128,10.4721851,0.6183206,-5.9465647,-0.0839695
3820,-17.2381649,3.6678982,2.8035958,-101.3435135,153.3816833,250.1297760,-1.8818330,0.9121862,10.4314833,0.4656489,-5.9083967,-0.3511450
3830,-13.7498302,3.6631098,3.2058196,-94.2290039,157.5496216,250.1297760,-1.8147956,0.9504932,10.4314833,0.3893130,-6.0687022,0.3587786
3840,-10.3405046,3.6798692,2.7581062,-85.2519073,152.7786255,250.1297760,-1.7621235,1.0175306,10.3141680,0.1450382,-6.1832061,-0.6335878
3850,-6.7085190,3.5481887,1.3910241,-80.6259537,145.5801544,250.1297760,-1.6328372,1.0438666,10.4602137,0.1679389,-6.0458016,-0.6183206
3860,-2.9280937,3.5098817,0.1556223,-80.7251892,131.0534363,250.1297760,-1.7286048,1.0917504,10.4290895,0.1374046,-5.4427481,-0.9007633
3870,1.4652439,3.5864959,-0.2992737,-81.5038147,100.0000000,250.1297760,-1.5945302,1.2114599,10.3500814,0.0381679,-5.0687022,-1.7633588
3880,6.9670911,3.9911139,0.2298422,-77.0381699,48.1755714,250.1297760,-1.6160779,1.2473727,10.3500814,0.1145038,-4.6564884,-1.5496184
3890,13.5989962,6.2703824,1.4604555,-61.1603050,-23.7404575,250.1297760,-1.5681942,1.2545552,10.3093796,0.0687023,-4.4885497,-2.8473282
3900,19.6126022,9.3517036,2.8251436,-35.9389305,-101.1297684,173.9236603,-1.5729824,1.2066715,10.2806492,-0.2061069,-3.9923663,-2.5419848
3910,19.6126022,11.8871508,3.6918402,-18.2442741,-141.9313049,52.4885483,-1.5921360,1.2042773,10.3309278,-0.4580153,-3.7862597,-2.3893130
3920,19.6126022,12.3635941,5.3174949,-10.3129768,-138.0992432,-63.4351158,-1.6448082,1.1204807,10.4075413,-0.5114504,-3.5343511,-3.1374047
3930,19.6126022,10.8313131,7.5728211,8.6259546,-109.4656525,-161.9923706,-1.6088953,1.0869620,10.4913378,-0.4503817,-3.7480917,-3.6412213
3940,16.1464138,8.8537130,8.4562769,38.0228996,-91.6335907,-229.3206177,-1.5729824,1.0366840,10.5272512,-0.1145038,-3.5648854,-3.8091602
3950,11.2072010,7.4938130,8.0348997,69.8702316,-90.2748108,-250.1374054,-1.6974803,1.0462608,10.5895004,0.4732825,-3.0534351,-4.4274807
3960,6.8114691,6.5624733,6.0405402,96.1068726,-84.6717529,-250.1374054,-1.7309990,1.0007712,10.5224628,1.0687023,-2.4656489,-4.8396945
3970,2.8826041,6.2201042,3.3782012,108.3969498,-79.0381699,-250.1374054,-1.7788827,1.1061156,10.4985209,1.8702290,-1.5496184,-4.6488547
3980,-0.7158626,6.3206601,0.5482694,104.4045792,-63.5114517,-250.1374054,-1.7717001,1.1300575,10.3931761,2.2519083,-1.3206106,-4.7709923
3990,-3.8737986,6.0070214,-1.2234308,90.1679382,-42.1297722,-250.1374054,-1.8411317,1.1396341,10.4147243,2.5419848,-1.4351145,-4.1068702
4000,-7.0844064,5.5257893,-2.3056045,75.9083939,-21.9312973,-250.1374054,-1.8291607,1.1180865,10.3285332,2.3587787,-1.8167939,-4.7022901
4010,-11.3963413,4.9727316,-3.3734128,62.1679382,-19.8702297,-250.1374054,-1.9440818,1.0917504,10.3237448,1.7022901,-2.0305343,-4.1068702
4020,-15.8710823,4.5417776,-4.3717899,46.2442741,-29.9236641,-217.0458069,-1.9368993,1.0702027,10.2758608,0.8396947,-2.4809160,-3.8473282
4030,-19.6131992,4.7476778,-4.8841467,27.4427490,-43.3816795,-151.4122162,-1.9776005,1.0558375,10.2160063,0.3129771,-2.9312978,-3.4351146
4040,-19.6131992,5.1451130,-5.1163831,0.5190840,-31.8320618,-70.1679382,-2.0063307,0.9816177,10.2902260,-0.3816794,-2.9618320,-2.5954199
4050,-19.6131992,5.2576399,-4.7644372,-34.2366409,12.6793890,22.9312973,-2.0183017,0.9026094,10.2495251,-0.7328244,-3.2671757,-2.3435113
4060,-19.6131992,5.3605900,-3.3159523,-65.6564865,75.4809189,111.5114517,-2.0542145,0.8714849,10.3213511,-0.7709923,-3.3129771,-2.3816793
4070,-18.7943878,5.0493455,-1.3766589,-87.0687027,133.7328186,187.3282471,-1.9608412,0.8475431,10.4602137,-1.0305344,-3.3282442,-1.9694656
4080,-15.8447456,4.8051381,-0.2059003,-97.2900772,162.9541931,245.2748108,-1.9464760,0.8116302,10.3644457,-0.8015267,-3.2900763,-1.2824427
4090,-13.0650921,4.6854286,0.2537841,-101.8167953,168.6564941,250.1297760,-1.9632354,0.7421987,10.3692341,-0.8244275,-3.0916030,-1.5648855
4100,-10.1130562,4.4914994,0.2513899,-104.3358765,163.8625946,250.1297760,-1.8914096,0.7757174,10.5080976,-0.7557252,-3.4351146,-1.2366412
4110,-6.7659793,3.9743545,-0.0454896,-107.5343475,156.8244324,250.1297760,-1.7693061,0.8834559,10.3668404,-0.8625954,-4.0229006,-1.5114504
4120,-3.1196289,3.7157819,-0.1628049,-109.9923630,133.1145020,250.1297760,-1.8339491,0.8690908,10.3381100,-0.7786260,-4.4656487,-1.5114504
4130,1.5658000,3.3949606,0.2226596,-107.9694672,94.2748108,250.1297760,-1.8459201,0.9289455,10.3835993,-0.6717557,-4.5343513,-2.5190840
4140,8.3174143,4.3837609,1.0773853,-96.1679382,32.2519073,250.1297760,-1.7908537,0.9600700,10.4266949,-0.8396947,-4.3969464,-2.3282442
4150,15.7010946,7.2903070,2.7605004,-74.3282471,-37.3511467,246.7480927,-1.8171898,1.0295014,10.2231894,-1.0076336,-4.0381680,-2.4045801
4160,19.6126022,9.8377247,4.1898317,-51.3664131,-81.6870193,149.1068726,-1.8363433,0.9768293,10.3021975,-1.5038168,-3.6259542,-2.2213740
4170,19.6126022,11.6980095,5.9806852,-40.1297722,-90.6564865,46.2137413,-1.7477583,1.0630201,10.2878323,-1.8244275,-3.5572519,-2.5648854
4180,19.6126022,11.7674408,8.5975342,-24.1221371,-71.7938919,-55.7022896,-1.7836711,1.0606259,10.3261395,-2.2061069,-3.5572519,-2.5343511
4190,19.5246143,9.9502516,10.3021975,11.6030531,-41.1526718,-139.9770966,-1.7597293,1.1061156,10.3189564,-2.5343511,-4.0381680,-2.7480917
4200,14.7841196,8.6334467,10.4266949,57.8625946,-35.2061081,-196.9694672,-1.8171898,1.1228749,10.2854376,-2.5954199,-3.8549619,-3.1603053
4210,10.4075413,7.9487090,8.4275465,100.4961853,-40.6259537,-235.3587799,-1.7477583,1.0749911,10.3261395,-2.7786260,-3.4274809,-3.7786260
4220,6.7707677,7.9056134,5.6311336,127.1221390,-36.1068687,-250.1374054,-1.7597293,1.0606259,10.4075413,-2.8778627,-2.9160306,-3.9007633
4230,3.1770895,8.0396881,1.9057748,135.4274750,-14.4580154,-250.1374054,-1.7166338,0.9888002,10.3955708,-3.0229008,-2.9389312,-3.9541984
4240,0.3950413,8.1330614,-1.0606259,127.9312973,11.8015270,-250.1374054,-1.6567791,1.0510491,10.3285332,-3.0305343,-2.6106870,-3.9160306
4250,-2.3822186,7.9104018,-3.4500270,110.5038147,34.7709923,-250.1374054,-1.6160779,0.9959828,10.3716288,-3.2290077,-2.4503818,-4.2824426
4260,-4.8913293,7.7882981,-4.9152708,86.9923630,56.0381660,-249.7480927,-1.6950861,0.9672526,10.3213511,-3.4961832,-2.4351146,-4.9236641
4270,-7.6422529,7.6949248,-6.2560172,62.4885483,69.6717529,-229.1908417,-1.7621235,0.9624642,10.4578199,-3.6106870,-2.1145039,-5.3053436
4280,-10.3644457,7.1993275,-7.5297260,34.2595406,73.2290039,-201.4961853,-1.8171898,0.9840119,10.4099360,-3.4580152,-1.6870229,-4.7175574
4290,-13.3667593,6.8258343,-7.7236552,5.5343513,68.6183243,-165.4045868,-1.7573351,0.9624642,10.4099360,-3.2137403,-0.6259542,-5.2671757
4300,-15.7896795,6.5983863,-7.0341287,-13.5190840,56.3511467,-119.3435135,-1.8985922,0.9241571,10.5104914,-2.6793892,0.2977099,-5.0610685
4310,-17.2237988,6.1482787,-6.5002246,-27.9465656,32.8778610,-69.0229034,-1.8483143,1.0414724,10.4219065,-2.3282442,0.1221374,-4.6564884
4320,-17.4560356,5.8801293,-5.9926562,-43.9694672,3.2977099,-18.5114498,-1.9608412,1.0031654,10.5535870,-2.5114503,-0.1832061,-4.9541984
4330,-16.6013088,6.1195483,-5.0230093,-65.0152664,-7.5877862,35.2977104,-1.9967541,1.0199248,10.4985209,-2.1984732,-0.2824427,-3.8015268
4340,-15.9883976,5.8873119,-4.4675574,-91.2519073,21.1068707,92.0076370,-1.9033806,0.9504932,10.5320396,-1.7099236,0.1526718,-4.7633586
4350,-14.4249916,5.2983413,-2.8347204,-117.2061081,71.8015289,149.8396912,-1.9321109,0.8930327,10.3309278,-0.4809160,2.2519083,-3.2824428
4360,-12.5742826,4.7572546,-1.2928623,-133.4656525,107.8625946,197.5496216,-2.0135133,0.9888002,10.3452930,-0.5877863,1.9618320,-3.9007633
4370,-10.5607700,4.1299767,0.0909792,-141.9923706,119.4503784,232.3206177,-2.1404054,0.8547257,10.3812056,-1.2824427,0.1984733,-3.4961832
4380,-8.1785507,3.7564833,1.5538290,-139.2519073,107.1603088,250.1297760,-1.9895715,0.8403605,10.5033092,-1.6793894,-1.3282443,-3.4580152
4390,-4.9440012,3.2273674,2.6743097,-122.0152664,62.6564903,250.1297760,-1.9847831,0.7996593,10.4075413,-1.5954199,-1.2748091,-3.5496182
4400,0.0670373,2.9783716,3.5242469,-90.0305328,-28.1832066,250.1297760,-2.0015423,0.7206510,10.3357162,-0.9083970,-0.3511450,-2.8244274
4410,6.4738884,5.0421629,2.8706331,-49.9923668,-131.9389343,220.3282471,-2.1020982,0.7421987,10.3548698,-0.8702290,-0.2977099,-2.6412213
4420,12.1768475,7.3405848,1.7262106,-15.0992365,-204.5877838,156.8549652,-2.0446377,0.7350162,10.4075413,-0.6793893,-0.9694657,-2.2824428
4430,16.6108856,10.3141680,0.9911944,-2.4809160,-224.5877838,85.9389343,-2.0877333,0.7350162,10.4913378,-0.3129771,-0.9541985,-1.8625954
4440,19.6036224,12.5958309,1.3622938,-19.5801525,-192.7022858,15.9618320,-2.0757623,0.7637464,10.4219065,-0.0687023,-1.4885496,-1.8396946
4450,19.6126022,12.2821922,4.1802549,-39.0305328,-122.0610657,-59.3969460,-2.1499822,0.7086801,10.4051476,-0.2900763,-2.0076337,-1.5419847
4460,15.9333305,10.8073711,7.7116842,-34.5725174,-44.5496178,-121.5419846,-2.0470319,0.7900825,10.3740225,-0.5190840,-2.8396947,-1.5343511
4470,11.6309719,8.7866755,9.0189114,-6.7938933,6.4961834,-156.6946564,-2.0829449,0.7900825,10.2591019,-0.4656489,-3.6335878,-1.2213740
4480,9.1601686,7.7643566,8.3198080,27.5343513,9.4274807,-188.5496216,-2.0709739,0.8475431,10.3620520,-0.8854962,-4.6641221,-1.1832061
4490,6.2991123,7.1466556,6.7659793,56.5801544,-8.1603050,-220.6946564,-2.0446377,0.8619082,10.3572636,-1.1526718,-5.3511453,-0.7938932
4500,3.6822634,6.8785062,4.3813667,73.0457993,-20.5114498,-244.4656525,-2.0470319,0.8834559,10.4434547,-1.0839695,-5.8396945,-0.7709923
4510,1.1180865,6.6797886,1.5179161,74.2595444,-26.9847336,-250.1374054,-1.9752063,0.9457048,10.2112179,-1.2977099,-6.7328243,-0.2137405
4520,-2.1404054,5.8035154,-0.1268920,66.8091583,-26.0000000,-250.1374054,-1.9728121,0.9696468,10.3428984,-1.4351145,-6.0687022,-0.3893130
4530,-6.5505023,4.6734576,-0.7398046,62.5725174,-30.2748089,-250.1374054,-1.8914096,0.9744351,10.1968527,-1.8473282,-5.8931298,0.3282443
4540,-11.2335367,3.9528067,-1.7262106,60.2671738,-51.1984749,-250.1374054,-1.9057748,0.9480990,10.3883877,-1.6335878,-5.8473282,-0.1145038
4550,-16.2493629,4.1491303,-2.3415172,56.7251892,-77.7633591,-219.6946564,-1.8267666,0.9289455,10.4314833,-1.3129771,-5.8549619,-0.6412213
4560,-19.6131992,4.9272418,-3.3351059,43.2748108,-88.8244247,-156.3893127,-1.7932479,0.9624642,10.5248566,-1.0916030,-5.4503818,-1.4274809
4570,-19.6131992,5.7029591,-4.1347651,14.6717558,-65.2366409,-73.3969498,-1.8722562,0.8978211,10.3883877,-1.0381680,-4.9770994,-1.2977099
4580,-19.6131992,5.9184365,-4.2377152,-19.7633591,-16.2213745,18.3358784,-1.8339491,0.9026094,10.4290895,-0.8473282,-4.5343513,-1.0687023
4590,-19.6131992,5.5880380,-3.6104376,-50.3893127,47.3206100,118.3206100,-1.8124014,0.9002152,10.4769726,-0.6488550,-3.6870229,-1.5038168
4600,-19.6131992,4.9655490,-2.9807658,-72.2366409,99.0534363,212.2900696,-1.8531027,0.9002152,10.3764172,-0.1297710,-3.3282442,-1.5801526
4610,-18.3514614,4.6734576,-2.1978660,-89.6870193,128.8091583,250.1297760,-1.9704180,0.9026094,10.4650021,0.2748092,-3.0839694,-1.9007634
4620,-14.5351238,4.1275826,-1.1994889,-105.4656525,149.3893127,250.1297760,-1.9129574,0.8523315,10.5799236,0.3435115,-2.8625953,-1.9312977
4630,-10.4697905,3.6463506,-0.1532281,-116.0839691,159.0839691,250.1297760,-1.9321109,0.8762733,10.4721851,0.6564885,-2.9694657,-1.6564885
4640,-6.9168134,3.2465210,0.4884146,-120.2595444,155.1526642,250.1297760,-1.9512644,0.9409165,10.3213511,0.6641222,-3.2977099,-1.6259542
4650,-2.3750360,2.8658447,1.4532729,-117.6793900,132.5954132,250.1297760,-1.9584470,0.9073978,10.3859940,0.2900763,-3.6335878,-1.5954199
4660,3.4260850,3.0478032,1.9752063,-104.8931274,82.2900772,250.1297760,-1.8914096,0.8906385,10.2543135,-0.0305344,-3.9541984,-0.9312977
4670,11.1377697,4.6136031,2.6575503,-81.2824402,1.2977099,250.1297760,-1.8842272,0.8738791,10.2926207,-0.5648855,-4.1679387,-2.0152671
4680,18.1168308,7.0820122,3.8642218,-46.4274826,-86.2977066,250.1297760,-1.9656296,0.9193687,10.2806492,-0.7480916,-4.1450381,-1.5343511
4690,19.6126022,10.2543135,5.5617023,-5.5877862,-131.8854980,150.2748108,-1.8626794,0.9672526,10.3524752,-0.7786260,-4.1374044,-1.9923664
4700,19.6126022,12.0499554,6.2201042,23.4503822,-119.6030502,40.7099228,-1.9201399,0.8906385,10.3812056,-0.7022901,-3.9312978,-2.0076337
4710,19.6126022,12.5263996,6.8282285,34.3358765,-94.0916061,-63.4198456,-1.9752063,0.8259954,10.3668404,-0.9694657,-3.6488550,-2.0458016
4720,19.6126022,10.9462337,7.6111283,48.3740463,-74.0687027,-151.9770966,-1.8722562,0.8403605,10.3740225,-0.5648855,-3.4580152,-1.4198474
4730,15.8567171,9.3062143,7.8697009,71.8473282,-55.3740463,-205.4885559,-1.9033806,0.8188128,10.4434547,-0.3206107,-2.8549619,-2.3129771
4740,11.4226780,7.9056134,6.6079631,99.0763321,-36.1068687,-225.2366486,-1.9823889,0.7805058,10.3333216,-0.0610687,-2.9312978,-1.9236641
4750,7.7954807,6.0620875,4.3526363,123.6259537,7.8549619,-242.4198456,-1.9704180,0.8068419,10.4099360,0.0152672,-3.1068702,-2.7328243
4760,4.1754665,5.6909885,2.5282640,141.8778687,49.9083977,-250.1374054,-1.9081690,0.8212070,10.4937325,0.1450382,-2.9541984,-3.2366412
4770,0.4285599,5.1642666,0.1244979,151.8625946,77.6030502,-250.1374054,-2.0518203,0.7876883,10.3596573,0.4885496,-3.1832061,-2.4961832
4780,-2.7197993,5.2887645,-3.0932927,153.1755676,106.0534363,-250.1374054,-2.0805507,0.7589580,10.4003592,0.5801527,-3.6793892,-3.0000000
4790,-5.2001796,5.2025738,-4.9392128,145.7175598,139.5038147,-250.1374054,-2.0661855,0.8307837,10.3668404,0.1984733,-4.1526718,-2.7022901
4800,-9.3277617,5.4348102,-7.0460997,132.9236603,158.2671814,-236.3969421,-2.0422437,0.8523315,10.3524752,-0.2595420,-4.4885497,-1.7862595
4810,-13.3859129,7.2591825,-9.7275915,105.8167953,170.6030579,-184.7175598,-1.9704180,0.8355721,10.1968527,-0.7251908,-5.0381680,-2.4045801
4820,-15.2868996,7.8289995,-10.6565371,53.7786255,164.5801544,-130.1832123,-1.9488702,0.8451489,10.3596573,-0.8015267,-5.5954199,-1.9083970
4830,-17.9707851,8.2958660,-10.6182299,5.7557254,143.8473358,-63.6870232,-1.8770446,0.8259954,10.4123297,-0.9694657,-5.6793895,-1.0687023
4840,-18.1718979,7.6278877,-10.9677820,-37.6106873,142.1374054,2.0229008,-1.8842272,0.8690908,10.4266949,-0.8396947,-5.8015265,-1.8396946
4850,-17.4871597,8.1067257,-10.1346035,-84.4809189,133.2366486,53.7862587,-1.8722562,0.9145803,10.3979645,-0.5572519,-5.4580154,-2.4122138
4860,-16.7593269,7.8170285,-8.7531567,-130.7938995,110.2290039,104.4656525,-1.8746504,0.8523315,10.4219065,-0.3129771,-5.4198475,-2.1068702
4870,-14.9373484,6.9072366,-6.6199336,-158.8015289,90.7862625,153.2137451,-1.8602852,0.8714849,10.4386663,-0.2137405,-4.9541984,-2.5190840
4880,-12.1122046,6.3254485,-4.9559722,-172.9618378,74.1832047,194.1068726,-1.7956421,0.8547257,10.4003592,-0.3358779,-4.6717558,-2.2977099
4890,-9.3732519,5.9160423,-3.8977404,-183.5572510,63.6564903,224.7099304,-1.8554969,0.8882443,10.3716288,-0.2213740,-4.5801525,-2.6259542
4900,-7.2950954,5.5664907,-3.3279233,-194.1603088,65.2061081,249.0839691,-1.8435259,0.8954269,10.4266949,0.0687023,-4.4503818,-2.9618320
4910,-5.5760674,4.9679432,-2.4372849,-204.0686951,83.2748108,250.1297760,-1.8531027,0.8930327,10.3812056,0.0687023,-4.5190840,-2.9236641
4920,-3.8929520,3.9432299,-1.6711442,-216.1908417,113.9770966,250.1297760,-1.9009864,0.9121862,10.4147243,0.3282443,-4.5648856,-2.7709923
4930,-0.4237715,3.8067613,-0.2753318,-226.2671814,113.9236679,250.1297760,-1.8052188,0.9648584,10.4602137,0.4045801,-4.2213740,-3.1068702
4940,5.5473371,4.2903876,3.1794837,-217.9313049,27.1221371,250.1297760,-1.8267666,0.8714849,10.3835993,0.4809160,-4.1908398,-3.1679389
4950,11.4801388,5.0158267,6.7228842,-186.5190887,-80.8091583,217.9465637,-1.8004304,0.8451489,10.3835993,0.4961832,-4.4198475,-3.2671757
4960,17.1160603,6.6510582,9.6988611,-142.0534363,-171.5419922,152.8015289,-1.8866212,0.8690908,10.3165627,0.5190840,-4.4198475,-3.9083970
4970,19.6126022,8.1593981,11.6142130,-95.1068726,-240.1221313,70.9389343,-1.8291607,0.8714849,10.4099360,0.2900763,-4.5419846,-3.9618320
4980,19.6126022,8.9327211,12.4234495,-60.7938919,-250.1374054,-14.7557249,-1.8147956,0.8427547,10.4147243,0.4427481,-4.3664122,-4.2977099
4990,19.6126022,8.3940287,13.3883076,-29.9618320,-205.0458069,-86.5038147,-1.8914096,0.9002152,10.4266949,0.6717557,-4.7404580,-4.2137403
5000,16.2397861,7.1131368,14.1305065,14.7022905,-118.2442780,-132.2290039,-1.8770446,0.8619082,10.3165627,0.8702290,-4.7633586,-5.1832061
5010,11.8081427,6.3733325,13.6157551,68.5267181,-51.3435097,-155.6870270,-1.9704180,0.8595140,10.3500814,0.8473282,-4.7404580,-5.1450381
5020,8.2743187,6.6438756,11.0563669,106.6870193,-33.9847336,-165.6335907,-1.9632354,0.8475431,10.3452930,0.6335878,-4.3740458,-4.7557254
5030,6.5026188,7.1394730,7.9941988,126.0381699,-43.3816795,-175.0839691,-2.0302727,0.8666966,10.2806492,0.5496183,-3.9923663,-4.2213740
5040,6.7276726,7.7380204,5.4276276,136.6335907,-70.4198456,-196.7709961,-2.0566087,0.7805058,10.4123297,0.4427481,-3.5267177,-3.8778627
5050,6.2608056,7.8553357,3.2082138,144.9236603,-96.9847336,-232.4503784,-2.0973101,0.7350162,10.3883877,0.4503817,-3.6564887,-3.4045801
5060,4.0773048,7.6590118,0.2681492,142.4732819,-116.8167953,-250.1374054,-2.0637913,0.7421987,10.4458485,0.2366412,-3.9160306,-2.5038168
5070,1.4748207,7.1658092,-1.8100072,132.2900696,-131.2290039,-250.1374054,-1.9440818,0.7086801,10.4051476,0.1908397,-4.4198475,-2.7328243
5080,-2.2457497,6.0285692,-2.9568241,119.4961853,-126.4274826,-250.1374054,-2.1044924,0.6416427,10.4554253,0.0916031,-4.4961834,-2.1755726
5090,-7.4698710,5.4707227,-3.9480183,108.1984711,-111.0992355,-250.1374054,-2.0494261,0.7517755,10.4147243,0.1450382,-5.0076337,-1.8549619
5100,-12.6030130,5.6574697,-5.3222833,90.5190811,-91.5572510,-250.1374054,-2.0206959,0.7326220,10.4458485,0.0839695,-5.2137403,-2.0076337
5110,-16.0961361,6.0860295,-6.5313487,59.0228996,-60.1679382,-215.4961853,-2.0254843,0.7421987,10.3357162,0.0381679,-5.2366414,-1.7175573
5120,-18.8949432,6.6773944,-7.3214312,16.7480907,-7.1145039,-141.7557220,-1.9416877,0.8475431,10.3405046,0.4656489,-5.3893127,-1.5725191
5130,-19.6131992,6.7348547,-7.3741035,-26.7022896,55.6030540,-61.5572510,-1.9009864,0.8595140,10.4075413,0.5114504,-5.5648856,-1.5572519
5140,-19.6131992,6.6031747,-6.3134775,-68.7633591,117.4809189,21.2366409,-1.9656296,0.9696468,10.3955708,0.6030535,-5.3511453,-0.9847328
5150,-19.6131992,6.3086891,-4.4651632,-101.6870193,161.8396912,94.6488571,-1.8914096,0.9265513,10.3476868,0.6412213,-5.4274807,-0.9770992
5160,-17.6427822,5.7508430,-2.6647329,-124.9083939,168.1603088,154.8015289,-1.8387375,0.9337339,10.3189564,0.5038168,-5.7175574,-0.7328244
5170,-14.6572275,5.2336984,-1.2928623,-138.8625946,150.4274750,203.4503784,-1.8124014,0.9121862,10.3788109,0.2061069,-5.3969464,-0.8320611
5180,-11.5711174,4.7548604,-0.6416427,-147.3206177,134.7938995,242.0152740,-1.7094513,0.9265513,10.3452930,-0.0305344,-5.4503818,-0.3969466
5190,-8.0013809,4.2688398,0.0407012,-153.0152740,126.1908417,250.1297760,-1.7477583,0.9528874,10.4027529,-0.2671756,-5.2137403,-1.0458015
5200,-4.0366035,3.9815371,1.0941446,-153.2061005,111.3053436,250.1297760,-1.7309990,0.9457048,10.3668404,-0.0839695,-4.8396945,-1.4427481
5210,0.1340746,3.6750808,2.4516499,-144.8625946,73.7633591,250.1297760,-1.6974803,0.9433106,10.3237448,0.1603053,-4.4351144,-1.9923664
5220,5.9112539,3.9911139,4.0054789,-126.6335907,3.9847329,250.1297760,-1.7525467,0.9313397,10.4027529,0.3282443,-3.7862597,-2.1221373
5230,11.2622671,5.6598639,5.3629842,-103.0457993,-60.6717567,228.0305328,-1.7860653,0.9672526,10.4266949,0.7022901,-3.5343511,-2.0992367
5240,15.6316633,7.2591825,6.4451580,-84.7862625,-93.2824402,168.4961853,-1.8459201,0.9935886,10.4290895,1.1450381,-3.3740458,-2.3740458
5250,19.0146523,8.5137377,8.5975342,-70.1832047,-98.3816757,99.8167953,-1.7884595,0.9433106,10.4769726,1.2366412,-3.2519083,-2.7328243
5260,19.4432125,8.4275465,10.9582052,-47.0228996,-63.3587799,30.7099228,-1.7764885,0.9816177,10.3357162,1.1908396,-3.1832061,-2.9541984
5270,17.2333755,7.9774394,13.0004492,-7.6183205,-1.7557251,-26.5572510,-1.8267666,0.9217629,10.3955708,1.1450381,-3.1908398,-3.4274809
5280,13.1369171,7.5847921,12.9884777,45.1068687,54.0228996,-66.6488571,-1.7740943,0.8906385,10.4841557,0.9389313,-2.9465649,-3.3587787
5290,9.8401184,7.7116842,11.2383251,89.1679382,78.8778610,-91.6717529,-1.8339491,0.8930327,10.4530315,0.9694657,-3.3206108,-3.2595420
5300,6.9790621,7.8744893,8.5352850,121.3282471,86.8778610,-111.4809189,-1.8147956,0.8666966,10.4506369,1.2900764,-2.8549619,-3.6259542
5310,4.9870968,8.4778252,5.6239510,139.8702240,93.8167953,-127.6793900,-1.8028246,0.9217629,10.4003592,1.3969465,-2.3969467,-4.1221375
5320,3.2489152,8.8824425,2.3056045,149.5114441,104.2824402,-142.5572510,-1.8483143,0.7924767,10.4578199,1.8931298,-2.0839694,-3.8473282
5330,2.0111191,8.8225880,-0.6368544,148.1068726,100.4503784,-158.9160309,-1.9728121,0.8355721,10.4075413,1.9618320,-1.7404580,-3.8244274
5340,1.2377959,8.2551651,-2.9568241,137.9694672,84.3206100,-178.8167877,-2.0254843,0.8666966,10.3428984,1.9770992,-1.9389313,-3.1374047
5350,-3.4643922,8.1881275,-7.3908629,86.9007645,88.0229034,-196.9541931,-2.0446377,0.7493813,10.2926207,1.0000000,-2.1297710,-2.6564887
5360,-6.8880830,7.9534974,-6.0022330,-184.0076294,63.4351158,167.2213745,-1.9776005,0.7924767,10.4195127,0.2213740,-5.7557254,1.0000000
5370,-5.6359220,6.7037306,-3.7564833,-198.4045868,94.3358765,191.5267181,-1.9321109,0.8116302,10.3883877,0.0687023,-6.0076337,0.7709923
5380,-3.6798692,5.5664907,-0.7709290,-198.6030579,73.1755753,205.8167877,-1.8531027,0.7900825,10.4266949,-0.2213740,-6.2519083,0.7251908
5390,-1.1037214,4.6566987,2.6886747,-175.6106873,-12.2213745,208.9618378,-1.8435259,0.9097920,10.3788109,-0.6412213,-6.4503818,1.1526718
5400,2.4109488,4.3430595,5.4204450,-132.8091583,-137.7328186,200.9618378,-1.7573351,0.8834559,10.3859940,-0.8702290,-6.4122138,0.7251908
5410,6.4212160,4.7500720,5.8322453,-85.9770966,-250.1374054,183.3282471,-1.7405758,0.9409165,10.3093796,-1.1145039,-6.4198475,0.3816794
5420,11.3221216,6.1746144,5.6981707,-48.9236641,-250.1374054,148.2061005,-1.6902977,1.0318956,10.3883877,-1.1984733,-6.4503818,-0.0916031
5430,14.9588957,7.7260494,12.8184900,38.1068687,-8.4885492,-149.8320618,-1.5873476,1.1659702,10.5248566,1.2977099,-4.0000000,-2.7328243
5440,11.3963413,7.2903070,11.3484583,98.9770966,13.2290077,-187.7709961,-1.6232605,1.1899122,10.4817610,1.7862595,-3.2290077,-3.4656489
5450,8.6837254,6.9168134,8.6956959,143.8778687,-9.8778629,-224.6488495,-1.5394639,1.1324517,10.3716288,1.8702290,-2.6183207,-4.0687022
5460,6.1099715,6.7133074,5.4443870,167.6412201,-44.1908379,-250.1374054,-1.6687500,1.1300575,10.3572636,1.6488550,-2.5343511,-4.6030536
5470,4.0078731,6.3446021,2.3175755,175.0610657,-69.5725174,-250.1374054,-1.6400198,1.1396341,10.3428984,1.1374046,-2.5572519,-4.8396945
5480,2.3798244,5.7508430,0.2609667,174.3969421,-77.6717529,-250.1374054,-1.8171898,1.0247130,10.4051476,0.5648855,-2.3511450,-5.1068702
5490,-0.1340746,5.2121506,-1.4173602,167.1221313,-72.9236679,-250.1374054,-1.8267666,0.9337339,10.3117743,0.5190840,-2.0687022,-6.0076337
5500,-2.7197993,4.7500720,-2.3008161,153.5725250,-57.8320618,-250.1374054,-1.9321109,0.9193687,10.4458485,0.6717557,-1.5190840,-5.5496182
5510,-6.4307928,4.2592630,-2.9592183,138.8625946,-36.5954208,-250.1374054,-1.9560528,0.8259954,10.3692341,1.1297710,-1.3358779,-4.8931298
5520,-9.9382801,4.0988522,-3.7325413,122.1908417,-4.1679387,-250.1374054,-2.0230901,0.7805058,10.4410601,1.4274809,-0.8702290,-4.8091602
5530,-14.5877962,4.4891052,-4.8386569,103.4885483,27.6412220,-250.1374054,-2.1092808,0.6464311,10.3716288,1.9847329,-1.1221374,-4.8320613
5540,-18.8518486,5.4659348,-6.1506729,81.6717529,53.8320618,-182.1068726,-2.0757623,0.7182568,10.4003592,1.9694656,-1.4885496,-3.9236641
5550,-19.6131992,6.3685441,-7.9199786,49.6183205,76.8931274,-97.8549652,-2.1284344,0.6871324,10.3596573,2.0992367,-1.8854961,-4.1068702
5560,-19.6131992,7.4459291,-10.1992474,6.0076337,95.9465637,-7.4274807,-2.2098370,0.6871324,10.3333216,1.8473282,-2.7328243,-3.0229008
5570,-19.6131992,8.0732069,-12.0906563,-56.6641235,116.9847336,82.3740463,-2.2744799,0.7829000,10.3716288,1.4503816,-3.4122138,-2.0916030
5580,-19.6131992,7.7332320,-12.5120344,-126.3816757,146.4122162,167.2290039,-2.2194135,0.7374104,10.2710724,0.8167939,-4.2824426,-1.8625954
5590,-18.9619808,6.3924856,-12.0092545,-196.8931274,187.7022858,248.4503784,-2.1284344,0.7757174,10.2040358,0.3816794,-5.1984735,-0.7633588
5600,-15.0666342,4.5776901,-10.6828737,-250.1374054,231.5190887,250.1297760,-2.2050486,0.7972651,10.3716288,-0.0305344,-5.7786260,-0.7480916
5610,-11.0300312,2.6767037,-8.3245964,-250.1374054,250.1297760,250.1297760,-2.0590029,0.8331779,10.3979645,-0.3358779,-6.0000000,-0.3282443
5620,-8.2264347,0.5937590,-5.5760674,-250.1374054,250.1297760,250.1297760,-2.0015423,0.8068419,10.4410601,-0.1984733,-6.2977099,0.5267175
5630,-5.2576399,-1.3934183,-0.7613522,-250.1374054,250.1297760,250.1297760,-1.9488702,0.8666966,10.3955708,-0.2290076,-6.4198475,0.5114504
5640,-1.4556671,-2.6096666,4.6806402,-250.1374054,151.6717529,250.1297760,-1.9416877,0.8379663,10.4075413,-0.0992366,-6.4351144,0.9923664
5650,4.1802549,-2.2625091,10.0484133,-250.1374054,-6.4122138,250.1297760,-1.8698620,0.9265513,10.4937325,0.0610687,-6.3893127,0.6564885
5660,12.1169930,0.1771700,14.9565020,-217.5038147,-198.4351196,250.1297760,-1.8578910,0.9289455,10.4195127,0.0763359,-6.4503818,0.7404580
5670,19.6126022,6.3134775,18.0354290,-108.9694672,-250.1374054,183.6030579,-1.7190280,0.9648584,10.3069859,-0.1297710,-6.3053436,0.6183206
5680,19.6126022,8.7723103,16.8143921,-39.9541969,-250.1374054,58.9312973,-1.6974803,1.0007712,10.3357162,-0.5419847,-6.1145039,0.8015267
5690,19.6126022,9.7180147,16.8455162,2.0916030,-250.1374054,-60.9694672,-1.6639616,1.0271072,10.3117743,-0.6335878,-6.0458016,0.4427481
5700,19.6126022,8.3533268,14.7218714,54.5190849,-250.1374054,-164.1679382,-1.6495966,1.0462608,10.5200682,-0.4885496,-5.8473282,-0.4351145
5710,18.3394909,5.9735026,11.8775740,106.6030502,-122.0305328,-235.7328186,-1.5610116,1.1109039,10.4673967,-0.2519084,-5.4274807,-1.0152671
5720,11.3269100,4.8554163,9.2104464,146.3740387,-44.6488533,-250.1374054,-1.5825592,1.1444225,10.4530315,0.1450382,-5.1297708,-1.7099236
5730,6.8928714,4.5752959,7.1322904,167.8473358,-32.2748108,-250.1374054,-1.5514348,1.1420283,10.4434547,0.5190840,-4.4885497,-1.9007634
5740,3.5625539,4.9272418,4.8865409,176.4732819,-51.4580154,-250.1374054,-1.5562232,1.1707586,10.3788109,0.8931298,-3.9847329,-2.4656489
5750,1.2162483,5.6359220,2.7126167,177.7709961,-64.4809189,-250.1374054,-1.5011568,1.1348459,10.4697905,1.0687023,-3.6793892,-3.4351146
5760,-0.2825144,6.2320752,0.4309541,171.9160309,-58.0839691,-250.1374054,-1.6065011,1.1563935,10.3883877,0.8931298,-3.2366412,-3.8931298
5770,-1.4724265,6.5888095,-1.5610116,159.0076294,-36.4198456,-250.1374054,-1.6639616,1.0462608,10.3500814,1.0305344,-2.9618320,-4.9389315
5780,-3.1579359,6.7037306,-3.5673423,139.1374054,-18.8091602,-250.1374054,-1.6974803,0.9840119,10.3117743,0.3969466,-2.5496182,-5.3664122
5790,-5.6431046,6.4212160,-4.8434453,114.8244247,-9.8091602,-250.1374054,-1.7477583,0.9050036,10.3165627,0.0916031,-2.0305343,-4.9236641
5800,-8.8249826,6.2727766,-5.6287394,92.0076370,-4.8396945,-250.1374054,-1.8674678,0.8930327,10.4051476,-0.0229008,-1.6030535,-5.3664122
5810,-12.9693241,6.3805151,-5.9782910,74.0763321,-0.5038168,-222.8091583,-1.9560528,0.8188128,10.5033092,0.0610687,-1.1984733,-5.2900763
5820,-17.6116581,7.7188668,-6.8761120,54.7099228,6.3358779,-165.5496216,-1.8818330,0.7924767,10.3620520,0.1755725,-1.0534351,-5.0458016
5830,-19.6131992,8.3964224,-9.0596132,16.1832066,33.3435097,-81.2061081,-2.0733681,0.7757174,10.5248566,0.3206107,-1.3816794,-5.2824426
5840,-19.6131992,8.7196379,-10.6134415,-50.6641235,84.0076370,35.3511467,-2.0087249,0.7254394,10.5918941,0.9160305,-1.6717557,-4.8778625
5850,-19.6131992,8.1426382,-10.5607700,-131.8320618,163.7099304,157.0763397,-2.0494261,0.7900825,10.4913378,1.1679389,-2.1526718,-4.4427481
5860,-19.2205524,6.3661499,-7.2567883,-206.9007568,250.1297760,250.1297760,-2.0877333,0.7541697,10.4123297,1.2824427,-2.6183207,-4.0076337
5870,-15.2438040,4.4077029,-2.8466914,-250.1374054,250.1297760,250.1297760,-2.1068866,0.7374104,10.5033092,1.4198474,-2.8167939,-3.2900763
5880,-11.6429434,2.5426292,0.1005560,-250.1374054,250.1297760,250.1297760,-2.0853391,0.8236012,10.4362717,1.3358779,-3.0916030,-2.7557251
5890,-7.3046722,1.1827296,2.8347204,-250.1374054,250.1297760,250.1297760,-2.0398495,0.7805058,10.3381100,0.7862595,-3.7404580,-1.7862595
5900,-2.7724714,0.6655847,6.8449879,-250.1374054,250.1297760,250.1297760,-2.0374553,0.8212070,10.2974091,0.5190840,-4.3740458,-1.1145039
5910,4.4172797,1.2737088,11.9134865,-223.9541931,162.6564941,250.1297760,-2.0661855,0.8571198,10.4027529,0.2366412,-4.7938933,-0.5114504
5920,12.2438850,3.9552009,14.8487625,-134.7404633,-95.7022934,246.8244324,-2.0039365,0.8236012,10.4458485,-0.0839695,-5.6793895,-0.3664122
5930,19.6126022,7.8984308,14.9541073,-12.5648851,-250.1374054,116.4656525,-1.9512644,0.9528874,10.3931761,-0.1068702,-5.9923663,0.1145038
5940,19.6126022,7.4938130,12.3109226,98.7099228,-250.1374054,-31.4427490,-1.9823889,0.9313397,10.4219065,-0.1603053,-6.2900763,0.4503817
5950,19.6126022,8.2862902,8.9279327,173.2977142,-250.1374054,-158.7938995,-1.9799947,0.9648584,10.3261395,-0.4885496,-6.2213740,0.3358779
5960,14.7889080,9.0380650,3.4619980,168.9847260,-250.1374054,-217.7786255,-1.7908537,0.9720409,10.3979645,-0.5038168,-6.0076337,0.5267175
5970,10.1513634,8.9231443,2.2170193,135.3664093,-173.3053436,-246.9923706,-1.7956421,0.9672526,10.2447367,-0.7786260,-5.9007635,0.7175573
5980,6.3254485,6.2991123,2.3463056,118.5954208,-95.5572510,-250.1374054,-1.7381816,1.0318956,10.3548698,-1.0229008,-5.6183205,0.9083970
5990,0.7278336,5.2097564,2.9209111,128.3816833,-36.2519073,-250.1374054,-1.6831152,1.0151364,10.4123297,-0.9007633,-5.5801525,-0.0076336
6000,-3.3925664,5.6071916,1.3527170,143.8473358,-14.3129768,-250.1374054,-1.6974803,1.0199248,10.4051476,-0.8396947,-5.5190840,-0.5190840
6010,-5.4659348,6.6055689,-1.3814473,148.4580078,-12.3511448,-238.0915985,-1.5322813,1.0175306,10.4027529,-0.4503817,-5.0305343,-1.2366412
6020,-7.7691450,7.6326761,-4.5082588,132.8244324,-15.4580154,-208.9923706,-1.5681942,1.0390782,10.4003592,0.0152672,-4.5114503,-1.3664122
6030,-9.7778702,8.0899658,-6.8378053,104.5648880,-36.3740463,-175.5877838,-1.6567791,1.0271072,10.4865494,0.0839695,-4.3053436,-2.0076337
6040,-11.1664991,8.3365679,-8.4658537,71.1297684,-68.0610657,-140.8854980,-1.6807210,1.0223188,10.4937325,0.3511450,-3.7862597,-2.7022901
6050,-12.3516235,8.6118994,-8.9063845,38.0458031,-81.3511429,-101.3358765,-1.5897418,1.0821736,10.5128860,0.7099237,-3.9007633,-2.8320611
6060,-13.7953196,8.7962523,-8.8130112,8.8167934,-60.0763359,-53.3969460,-1.6208663,1.0582317,10.5176744,1.4274809,-3.7480917,-3.5496182
6070,-14.2502155,8.8465300,-8.3533268,-22.2671757,-15.7862597,1.7938931,-1.6472024,1.0175306,10.5511932,2.0610688,-3.4122138,-3.9618320
6080,-14.2813396,8.7770987,-7.5009956,-56.3816795,34.8931313,60.6793900,-1.7717001,1.0630201,10.5631638,2.7251909,-3.2290077,-3.8244274
6090,-13.9892492,8.3222027,-6.8449879,-91.5114517,91.8778610,116.9389343,-1.8052188,1.1396341,10.4506369,3.0916030,-2.8396947,-4.0839696
6100,-13.3069048,7.6614060,-5.1858144,-122.0916061,146.9389343,171.0992432,-1.8411317,1.1132981,10.4434547,3.0152671,-2.3282442,-3.9007633
6110,-11.7818060,6.8785062,-3.2704628,-142.0152740,181.6641235,217.7709961,-1.8004304,1.1468167,10.2016411,2.6488550,-2.0305343,-3.6870229
6120,-9.7611103,6.1985564,-2.2170193,-156.3206177,202.0152740,250.1297760,-1.8818330,1.0342898,10.2016411,1.8549619,-1.6106870,-3.0076337
6130,-7.4842362,5.5138183,-1.5514348,-170.3206177,207.2977142,250.1297760,-1.8842272,0.9648584,10.1082678,0.7786260,-1.8167939,-3.1603053
6140,-5.0780759,4.5633249,-1.0989330,-183.9389343,203.3511505,250.1297760,-1.9560528,0.9361281,10.1441803,-0.1450382,-2.1145039,-3.1526718
6150,-2.3391230,3.7397239,-0.1651991,-195.1374054,189.8320618,250.1297760,-2.0206959,0.8882443,10.1800938,-0.8320611,-2.7175572,-2.9694657
6160,1.0797794,2.6072724,1.9991482,-196.0458069,149.6870270,250.1297760,-2.0470319,0.7541697,10.3357162,-1.3511450,-3.0992367,-3.2213740
6170,5.2576399,2.1739240,4.5202298,-181.3358765,72.3587799,250.1297760,-2.1475880,0.6895266,10.4075413,-1.1832061,-4.1526718,-3.3511450
6180,11.0036945,2.7988074,7.6302819,-150.2213745,-35.7633591,240.7633514,-2.1595588,0.6272776,10.2710724,-1.2671756,-5.6870227,-3.2442749
6190,18.3466740,5.9112539,10.9869356,-105.1068726,-156.1603088,162.7480927,-2.0494261,0.5243275,10.3788109,-2.0000000,-4.4656487,-3.1526718
6200,19.6126022,9.2511482,14.2071199,-52.4351158,-247.0152740,51.7404594,-2.1092808,0.5482694,10.3835993,-2.0687022,-4.7862597,-2.7786260
6210,19.6126022,10.8001890,15.1576138,-0.1450382,-250.1374054,-71.1908417,-2.0901275,0.5961532,10.4913378,-1.7099236,-5.0916033,-2.4732823
6220,19.6126022,10.3069859,14.6189203,52.9160309,-211.5877838,-177.4885559,-2.0326669,0.5769997,10.4506369,-1.4809160,-5.2977099,-2.4122138
6230,17.1256371,8.7459745,12.2774038,108.7862625,-130.8778687,-248.3587799,-2.0015423,0.6009415,10.4003592,-1.4503816,-5.3282442,-2.1603053
6240,10.9294748,7.6159167,8.7363977,153.8549652,-79.7328262,-250.1374054,-1.8961980,0.6967092,10.5080976,-1.2442749,-5.1068702,-2.3664122
6250,6.8617468,7.3980455,5.1546898,177.1068726,-51.8931313,-250.1374054,-1.8722562,0.7565638,10.3740225,-1.3587786,-5.6335878,-2.8549619
6260,3.1818779,6.9910331,1.7262106,182.1450348,-37.0381660,-250.1374054,-1.8698620,0.8164186,10.4434547,-1.3511450,-5.9236641,-3.1068702
6270,0.3663110,6.7635851,-1.3263810,174.0458069,-27.5648861,-250.1374054,-1.8195840,0.9289455,10.4003592,-1.2671756,-6.1603055,-2.7328243
6280,-2.3822186,6.3924856,-3.7516949,158.9313049,-10.2900763,-250.1374054,-1.7381816,1.0007712,10.5272512,-0.6946565,-5.9389315,-2.7862597
6290,-5.4826937,6.0094156,-5.3151007,144.4274750,-8.9236641,-250.1374054,-1.6567791,1.0941446,10.5990763,0.1679389,-4.6641221,-2.6412213
6300,-9.8305416,5.3677726,-7.2879128,130.7786255,-37.2595406,-250.1374054,-1.6639616,1.2330076,10.5272512,1.4656489,-3.9007633,-3.3969467
6310,-13.8671455,5.6335278,-9.1865053,109.0076370,-79.3282471,-231.3511505,-1.6735384,1.2641320,10.4650021,2.4122138,-3.2290077,-3.0076337
6320,-16.8455162,6.6630292,-10.9773588,66.6870193,-97.7251892,-170.2977142,-1.5945302,1.3551112,10.5296450,2.7022901,-2.8091602,-2.9236641
6330,-18.2509060,7.3405848,-11.4083128,6.6793895,-55.4351158,-95.4045792,-1.6184721,1.3622938,10.4338779,2.5496182,-2.6870229,-2.9618320
6340,-18.6818600,7.2352405,-9.9454632,-52.0763359,28.0534344,-17.2671757,-1.5370697,1.4293311,10.3357162,2.1221373,-3.2366412,-3.2213740
6350,-18.2532997,6.6079631,-7.0580707,-94.8931274,103.9007645,56.1526718,-1.5131277,1.4125718,10.3405046,1.4198474,-4.0763359,-3.4427481
6360,-16.9724083,6.1099715,-4.7069764,-119.9465637,146.8473358,117.9389343,-1.5035510,1.2832855,10.3213511,0.8854962,-4.6793895,-4.0000000
6370,-14.7936964,5.7077475,-2.7126167,-133.4656525,153.4656525,164.9694672,-1.5634058,1.2976507,10.3859940,0.2595420,-4.8396945,-4.5114503
6380,-12.2390966,5.5114241,-1.0462608,-140.9160309,138.2595367,200.0534363,-1.6232605,1.1635761,10.4865494,0.3740458,-4.5954199,-4.9007635
6390,-9.7994175,5.1211715,0.1604107,-142.2137451,115.4045792,227.8244324,-1.7070571,1.0989330,10.5200682,0.6030535,-3.9923663,-4.4351144
6400,-6.4595232,4.6782460,0.9217629,-136.6259613,87.4427490,248.0152740,-1.8794388,1.0055596,10.5176744,1.2442749,-3.0076337,-4.0763359
6410,-2.5138988,4.6327567,1.5346755,-125.6030502,50.7099228,250.1297760,-1.9392935,0.9911944,10.5176744,1.9694656,-1.7709924,-3.6793892
6420,2.2912393,4.7309184,2.2768741,-107.1450348,-5.6641221,245.1679382,-1.9584470,0.9169745,10.4530315,2.7633588,-1.0229008,-2.8396947
6430,7.9127960,5.6790175,2.6982515,-83.5419846,-79.4274826,212.4122162,-2.0925217,0.8307837,10.3357162,2.9923663,-0.7633588,-2.2824428
6440,12.7801828,7.4794478,3.4045374,-59.8244286,-145.4732819,158.7862549,-2.1451938,0.7757174,10.2830439,2.8244274,-0.7480916,-1.9923664
6450,17.0155048,9.0763721,4.6830344,-38.2061081,-182.8473358,84.3816757,-2.1427996,0.7374104,10.2686787,2.3587787,-1.2061069,-1.3969465
6460,18.7345333,10.1968527,6.2871413,-19.7786255,-183.6488495,5.5496182,-2.1763182,0.7182568,10.1729107,1.7022901,-2.2824428,-0.7404580
6470,17.9468441,10.7475166,7.5009956,4.1450381,-139.3740387,-66.2748108,-2.2601149,0.7014975,10.2160063,0.8625954,-3.3129771,-0.3435115
6480,14.8176384,10.5392218,8.2503767,38.5877876,-71.4503784,-125.9083939,-2.1763182,0.6679789,10.1992474,0.0305344,-4.6412215,0.3358779
6490,11.0683374,9.9933472,7.4579000,79.3816757,-31.0076332,-172.5419922,-2.1882892,0.6057299,10.2184010,-0.5648855,-5.5801525,0.6412213
6500,7.4219875,9.3253679,5.2265158,115.0610657,-28.0839691,-214.4198456,-2.1643472,0.6224893,10.3500814,-0.7022901,-6.4427481,0.9389313
6510,4.8434453,8.4969788,2.4708035,140.0534363,-51.9465637,-250.1374054,-2.0350611,0.6177009,10.3357162,-0.4885496,-6.6412215,1.8702290
6520,1.5658000,7.1705976,-0.5386927,152.3587799,-94.2442780,-250.1374054,-2.0230901,0.6631905,10.4075413,-0.1908397,-6.5114503,1.1755725
6530,-2.7557120,5.7245069,-3.5888901,149.0152740,-142.4198456,-250.1374054,-1.8698620,0.7254394,10.3764172,0.3435115,-6.0992365,1.4656489
6540,-8.7986460,4.6375451,-6.3565731,131.0305328,-176.1221313,-250.1374054,-1.8195840,0.7637464,10.3333216,0.6641222,-5.6030536,1.6030535
6550,-15.1935263,4.9056940,-7.9941988,103.1450348,-181.3053436,-250.1374054,-1.8339491,0.8307837,10.3309278,0.7022901,-5.3129773,1.1068702
6560,-19.5485573,6.8928714,-9.2655134,61.3740463,-165.4122162,-183.2900696,-1.8483143,0.9576758,10.4506369,0.6183206,-5.3358779,0.5648855
6570,-19.6131992,7.9295554,-9.8257532,1.2366412,-108.6259537,-82.6183243,-1.9656296,1.1228749,10.4410601,0.6870229,-6.3435116,-0.3435115
6580,-19.6131992,7.7140784,-8.5568333,-61.0534363,-24.2213745,15.6412210,-2.0542145,1.1827296,10.3141680,0.6488550,-7.6488547,0.0916031
6590,-18.2604828,6.9407554,-6.1530671,-108.0381699,53.8396950,101.3969498,-2.0422437,1.2641320,10.3668404,0.3206107,-8.3740454,0.9236641
6600,-16.1200771,5.9040713,-4.2209558,-140.0992432,97.9465637,168.3206177,-2.0039365,1.2761030,10.3045912,-0.1679389,-8.0839691,3.3740458
6610,-13.5966015,5.0948353,-2.7293761,-163.1603088,101.9618301,218.6259613,-1.7286048,1.2761030,10.4578199,-0.1221374,-6.9923663,3.9007633
6620,-10.5990763,4.1611013,-1.1611819,-178.7557220,86.5725174,250.1297760,-1.5490406,1.2377959,10.4410601,-0.0534351,-5.6870227,4.6030536
6630,-7.6973190,3.4380560,0.4525018,-186.3206177,70.2366409,250.1297760,-1.4006008,1.2114599,10.4506369,0.2366412,-4.8702292,3.9389312
6640,-11.2981796,5.3941088,-4.2975702,120.6183243,-15.7557249,-250.1374054,-1.9704180,0.6943150,10.5775290,0.7251908,-2.4656489,-5.5343513
6650,-15.0426922,5.8609757,-6.2081332,104.4503784,-24.5190830,-217.8473358,-2.0542145,0.6751614,10.5128860,1.5954199,-2.7099237,-5.7633586
6660,-18.6651001,6.5481081,-8.0013809,75.3358765,-27.3969460,-155.5648804,-1.9488702,0.7086801,10.3859940,1.9389313,-3.3435113,-5.3969464
6670,-19.6131992,6.9934273,-8.6909075,39.0305328,-13.1526718,-77.9160309,-2.0350611,0.7852941,10.4123297,2.1297710,-3.4122138,-4.4732823
6680,-19.6131992,7.8744893,-9.2391768,-3.1908398,21.0305347,3.3053436,-2.0015423,0.8666966,10.2974091,2.3893130,-3.1068702,-4.3740458
6690,-19.3139267,7.6781654,-8.9566631,-50.7251892,64.0687027,75.5190811,-1.9512644,0.8762733,10.3788109,2.2137403,-3.3053436,-4.1068702
6700,-17.1400032,7.4602942,-7.2855186,-91.5572510,103.4122162,132.2977142,-1.9991482,0.9816177,10.3189564,1.8473282,-3.8778627,-3.4809160
6710,-15.3156300,6.7516141,-5.7005649,-122.0534363,121.8702316,182.0610657,-1.9967541,1.0414724,10.3381100,0.9541985,-4.5267177,-2.8702290
6720,-12.5024576,6.1482787,-4.4077029,-144.2290039,116.0839691,221.0305328,-1.9321109,1.0678085,10.2662840,0.1450382,-5.2824426,-2.9465649
6730,-9.5623922,5.9040713,-3.6104376,-159.1984711,103.6412201,246.9465637,-1.8866212,1.0917504,10.3357162,-0.5343512,-5.4503818,-2.2290077
6740,-6.5409255,5.5425487,-2.7365584,-169.0915985,97.2213745,250.1297760,-1.9656296,1.1156923,10.3476868,-0.8702290,-5.6641221,-2.2671757
6750,-3.8833754,5.5210009,-1.3622938,-173.7404633,89.8549652,250.1297760,-1.8818330,1.1204807,10.4889441,-1.0458015,-6.0381680,-1.5572519
6760,-1.1899122,5.4324160,0.2394189,-168.5801544,73.4351120,250.1297760,-1.7860653,1.0797794,10.4482431,-0.8320611,-5.7251906,-1.1832061
6770,1.7597293,5.9998388,1.3311694,-159.0305328,53.0534363,248.3282471,-1.7381816,1.0271072,10.5152798,-0.4732825,-5.6641221,-1.5954199
6780,5.8944945,7.5704269,2.1954718,-154.7480927,26.7862587,222.6564941,-1.7190280,1.0654143,10.5918941,0.3587786,-5.2290077,-1.9389313
6790,10.4650021,8.9662399,4.4077029,-145.6106873,6.2442746,174.9465637,-1.6735384,1.0678085,10.6230183,1.5114504,-4.8244276,-1.4732825
6800,13.8551741,9.5599985,7.3046722,-123.0381699,-19.9847336,106.6641235,-1.6902977,1.1707586,10.4889441,2.2824428,-4.2900763,-1.9541985
6810,15.0211449,9.6868906,9.7850523,-84.9007645,-42.6259537,31.7328243,-1.6567791,1.1779412,10.4697905,2.8473282,-3.5190840,-1.6793894
6820,14.5758257,9.6030941,11.7291346,-31.6412220,-67.7175598,-39.7404594,-1.6663558,1.2234308,10.3500814,2.9770992,-3.1145039,-1.1374046
6830,12.5671005,9.2319946,11.8320847,30.5648861,-103.5190811,-102.9770966,-1.6879035,1.2401901,10.3931761,2.6030533,-2.6183207,-1.1679389
6840,9.2439651,8.5017672,10.0986910,90.6870193,-148.9541931,-155.3969421,-1.6352314,1.2713146,10.1465750,2.0152671,-2.7022901,-0.7709923
6850,5.9591374,7.8936424,7.6446471,134.1526642,-196.0992432,-184.6106873,-1.7262106,1.3407460,10.1561518,0.6183206,-3.2137403,-1.0916030
6860,3.0047078,6.9742737,5.0613165,153.5648804,-224.6488495,-198.5038147,-1.8147956,1.2976507,10.1968527,-0.6106870,-3.7786260,-1.5496184
6870,1.0438666,6.9335728,2.2122312,155.0763397,-213.8320618,-200.9007568,-1.8602852,1.2784972,10.1944590,-1.5038168,-4.4732823,-0.6870229
6880,-0.9169745,7.2807302,0.1029501,140.0152740,-163.9694672,-194.0000000,-1.9009864,1.1923064,10.2255831,-2.1984732,-4.9083967,-0.7862595
6890,-3.1004753,7.4674768,-0.5889706,117.0992355,-105.4503784,-173.7786255,-1.9440818,1.1085097,10.3668404,-2.1679389,-4.8702292,0.2595420
6900,-5.8801293,7.9654684,-2.0422437,90.2671738,-46.4045792,-139.1450348,-2.0494261,1.0318956,10.5128860,-1.7328244,-4.3893127,0.9083970
6910,-8.2288294,8.6813307,-3.8857694,54.2900772,17.1068707,-95.6717529,-1.9392935,0.9552816,10.4578199,-0.9007633,-3.6030533,1.6259542
6920,-10.1058741,9.0979195,-4.9966736,10.8931293,81.4351120,-44.8473282,-1.8985922,0.8355721,10.6254129,-0.0992366,-3.4351146,1.9083970
6930,-11.5639353,9.0979195,-5.5545197,-32.8854980,131.6793823,13.8778629,-1.9368993,0.8140244,10.5272512,0.8549618,-2.9770992,2.1221373
6940,-12.1337519,8.8800488,-5.6239510,-75.1832047,166.6030579,74.8320618,-1.8411317,0.8020535,10.5080976,1.6412214,-2.9389312,2.0687022
6950,-11.4442253,8.5568333,-5.0852585,-114.6717529,177.9847260,129.0992432,-1.8722562,0.7852941,10.4386663,2.3435113,-3.2290077,2.0305343
6960,-9.5839405,7.7859039,-4.4771342,-150.8091583,169.5190887,174.2671814,-1.8147956,0.7805058,10.3500814,2.5419848,-3.7786260,1.7557251
6970,-7.0772243,6.6342988,-3.4931223,-184.4427490,152.0763397,207.4961853,-1.8938038,0.8762733,10.4075413,2.5343511,-4.1603055,1.9160305
6980,-4.0892754,5.1953912,-1.3072275,-208.2137451,111.6717529,226.8396912,-1.9392935,0.9121862,10.3141680,1.9770992,-4.3435116,2.1679389
6990,-0.9480990,4.0030847,1.9680238,-212.3511505,37.6106873,230.1755676,-2.0015423,1.0055596,10.3189564,1.5267175,-4.6335878,2.3664122
7000,3.5793133,3.7038112,5.6119800,-191.8396912,-60.5038185,219.7480927,-1.9823889,1.0702027,10.3452930,1.0763359,-4.9694657,2.9312978
7010,7.8074517,4.6375451,8.8393478,-153.6641235,-148.2366486,195.6335907,-1.9129574,1.0821736,10.1489687,0.3511450,-5.0992365,3.0916030
7020,12.7299051,6.3230543,11.7578640,-105.6717529,-202.3435059,143.8473358,-1.8985922,1.1539993,10.2351599,-0.4427481,-5.1221375,3.7786260
7030,16.3092194,8.0708122,14.0491037,-61.7328262,-214.9923706,69.0381699,-1.8602852,1.1324517,10.3309278,-0.8778626,-5.2366414,4.1526718
7040,17.7648849,9.4187412,16.2804890,-16.2061062,-196.1145020,-13.2061071,-1.7788827,1.1635761,10.3237448,-1.4274809,-5.2213740,3.0458016
7050,16.6491928,9.8568783,16.6252518,36.1832047,-155.4274750,-91.3740463,-1.6687500,1.1061156,10.3309278,-1.7404580,-5.5190840,3.0076337
7060,13.3236647,8.6573887,14.7194767,90.0763321,-115.7709961,-152.3740387,-1.5322813,1.1252691,10.3524752,-2.0229008,-5.4351144,2.7862597
7070,9.4666252,7.2328463,11.1832590,134.7480927,-93.4427490,-198.0534363,-1.4604555,1.1228749,10.4865494,-2.0534351,-5.0076337,1.6641221
7080,5.9519548,6.7157016,7.8649125,159.7251892,-80.2290039,-232.5343475,-1.3910241,1.1707586,10.5607700,-1.6793894,-4.8167939,0.6412213
7090,3.0286496,6.0357518,4.8195033,165.7862549,-70.0457993,-250.1374054,-1.3742647,1.1683644,10.5033092,-1.0839695,-4.0152674,-0.5572519
7100,0.3375807,5.7676024,3.3662305,165.6488495,-61.2442741,-250.1374054,-1.2761030,1.1875180,10.4673967,-0.4274809,-3.5801528,-1.7175573
7110,-2.1858950,5.5569139,1.6088953,163.6946564,-43.3816795,-250.1374054,-1.2880739,1.2761030,10.4721851,0.0076336,-3.7557251,-3.0839694
7120,-4.5489597,5.9256191,0.1819584,156.9770966,-21.8396950,-250.1374054,-1.2401901,1.2569494,10.3788109,0.1221374,-3.2595420,-4.4351144
7130,-7.1705976,6.3853035,-2.0183017,139.6412201,13.4732828,-240.3969421,-1.2497669,1.2689204,10.4123297,0.3435115,-2.9312978,-5.6793895
7140,-9.8592720,7.1346846,-4.1898317,107.4732819,56.3969460,-200.6488495,-1.2952565,1.2856797,10.3740225,0.2824427,-2.5725191,-7.3893127
7150,10.7930059,6.7635851,10.4937325,-120.3664093,-82.8091583,185.2519073,-2.0805507,0.8427547,10.4889441,0.8854962,-1.5038168,-6.4656487
7160,15.0498753,8.7363977,12.6628675,-66.2137375,-118.7862625,119.2519073,-2.1978660,0.8858501,10.3357162,1.0610687,-1.7709924,-6.2137403
7170,17.7361546,10.9605989,14.4585104,-12.6259546,-101.9465637,31.0916023,-2.1044924,0.8858501,10.3285332,1.0763359,-2.0916030,-5.1603055
7180,16.7401733,11.3771887,14.7506008,50.0228996,-48.1679382,-64.3816757,-2.0781565,0.8571198,10.4673967,0.9923664,-2.7251909,-4.6870227
7190,12.5455532,10.3213511,12.5647058,116.8473282,-8.5496187,-148.0534363,-2.0997043,0.9744351,10.4003592,0.7251908,-3.4885497,-3.8473282
7200,7.8409705,8.7651272,8.9806042,176.1679382,-17.4580154,-215.9618378,-2.1260402,0.9983770,10.2902260,0.3664122,-4.2748094,-2.8854961
7210,2.4851687,7.2519999,4.6519103,216.4427490,-53.2519073,-250.1374054,-2.0757623,1.0725969,10.3141680,0.1068702,-4.8931298,-2.1755726
7220,-0.9457048,6.3278427,0.6536137,235.3206177,-96.6641235,-250.1374054,-1.9728121,1.0390782,10.3189564,-0.3053435,-5.4427481,-2.1526718
7230,-4.6950054,5.8633699,-3.0621684,230.3129730,-133.3664093,-250.1374054,-1.9464760,1.1132981,10.2806492,-0.5419847,-5.7480917,-0.7175573
7240,-8.6118994,6.0046272,-6.9168134,206.1221313,-138.5801544,-250.1374054,-1.9823889,1.0773853,10.3381100,-0.9312977,-5.7251906,-0.2137405
7250,-12.7490587,7.0676475,-10.3764172,159.8473358,-119.2290039,-226.3816833,-1.8483143,1.0821736,10.4123297,-1.0534351,-5.7404580,0.1145038
7260,-15.6867294,8.5065556,-12.5766773,91.0457993,-82.6564865,-154.5725250,-1.8195840,1.0558375,10.4051476,-1.2442749,-5.7709923,0.4274809
7270,-17.0490227,9.3062143,-13.1345234,13.1145039,-17.1450386,-73.5267181,-1.7094513,1.1204807,10.4003592,-1.2748091,-5.8549619,-0.0305344
7280,-17.7648849,9.3062143,-12.1122046,-63.9007645,66.5419846,11.2442751,-1.7166338,1.0414724,10.3931761,-1.4885496,-5.7557254,0.2137405
7290,-17.0059280,8.6118994,-9.4809904,-128.0000000,135.7022858,92.0687027,-1.6879035,1.0630201,10.4745789,-1.4580153,-5.1832061,0.0992366
7300,-14.6787758,7.6422529,-6.6750002,-178.0458069,179.6412201,158.6030579,-1.6112895,1.0079538,10.4985209,-0.9694657,-4.8320613,-0.6793893
7310,-11.4825325,6.3493905,-3.7828193,-211.7175598,197.2977142,207.8091583,-1.6041069,1.0223188,10.4410601,-0.5954198,-4.3511453,-1.3740458
7320,-8.2958660,5.4180508,-1.3910241,-230.5572510,199.3511505,239.6412201,-1.6519908,1.0414724,10.4673967,-0.0458015,-3.8473282,-1.3282443
7330,-5.2720051,4.3550305,0.8427547,-237.3740387,180.4885559,250.1297760,-1.6759326,1.0845678,10.4123297,0.5419847,-3.4503818,-2.0000000
7340,-1.5945302,3.5481887,3.6870518,-228.5038147,126.4961853,250.1297760,-1.7070571,1.1109039,10.5296450,0.7175573,-3.4045801,-2.3893130
7350,2.9376705,3.6367738,6.8856888,-198.4961853,41.9160309,239.2061005,-1.7333932,1.1755470,10.4434547,1.0000000,-3.1832061,-2.6717558
7360,8.6190825,4.8673873,10.1920643,-145.2671814,-64.1679382,198.1068726,-1.7142396,1.1444225,10.4147243,1.1679389,-3.1374047,-2.3053436
7370,13.6899757,7.0484939,12.1960011,-81.0763321,-145.3893127,133.9007568,-1.7597293,1.2162483,10.3596573,0.9236641,-3.3664122,-2.6793892
7380,17.6068687,9.1146793,12.6269550,-31.1221371,-166.1526642,48.3969460,-1.7214222,1.1683644,10.3093796,0.5496183,-3.6412213,-2.3358779
7390,18.9571915,9.9095497,12.9932661,2.5190840,-134.9541931,-42.3053436,-1.7357874,1.1396341,10.4123297,-0.1145038,-3.8931298,-2.8473282
7400,16.3666782,9.8257532,13.3356352,45.9618340,-76.1755753,-121.9694672,-1.8004304,1.1444225,10.3931761,-0.1679389,-4.2748094,-2.6335878
7410,12.0906563,8.1617918,11.9637651,101.8549652,-25.0916023,-182.1297760,-1.8052188,1.0965388,10.3764172,-0.2977099,-4.2595420,-3.0687022
7420,6.7994981,7.3166428,9.0213060,147.3969421,-9.9541988,-227.9618378,-1.7549409,1.0295014,10.4003592,0.0229008,-4.2519083,-2.6793892
7430,2.6288199,6.7755561,6.1195483,176.3282471,-18.4427490,-250.1374054,-1.7717001,0.9864060,10.4626083,0.1832061,-3.7480917,-2.7938931
7440,-0.5051740,6.3996682,2.7820482,190.7938995,-33.5877876,-250.1374054,-1.7740943,1.0007712,10.4697905,0.6335878,-3.4580152,-3.1526718
7450,-2.6862805,6.2871413,-0.0646431,190.5572510,-35.2748108,-250.1374054,-1.8171898,1.0438666,10.4195127,0.8244275,-3.4656489,-2.8854961
7460,-5.0230093,6.2847471,-2.5593886,178.4580078,-22.8778629,-250.1374054,-1.7262106,0.9840119,10.2231894,0.5648855,-3.2595420,-3.9770992
7470,-8.2360115,6.4786768,-5.2241216,155.8015289,3.4503818,-236.7175598,-1.7597293,0.9720409,10.1441803,-0.4809160,-4.5343513,-3.2137403
7480,-12.8807392,6.9216018,-7.5608501,125.3053436,25.9923668,-194.7938995,-1.7309990,0.9959828,10.0364418,-2.4732823,-5.6488547,-4.5419846
7490,-15.7824965,7.6183109,-9.2846670,91.4656525,27.9923668,-136.5114441,-1.8171898,1.1300575,10.0651722,-4.5343513,-7.1603055,-4.5725193
7500,-18.2652721,7.9343438,-11.7267399,39.0076332,37.7786255,-71.0152664,-1.9297167,0.7445929,9.7491398,-7.6793895,-12.6870232,-5.1984735
7510,-18.4951134,7.8385763,-11.9853125,-20.7480907,45.9236641,6.4351144,-1.9488702,0.9361281,10.3548698,-10.2900763,-9.7633591,-5.2595420
7520,-16.9412842,7.9271612,-11.1042509,-83.2748108,72.2671738,77.2748108,-1.9608412,0.8212070,10.5679522,-9.2137403,-6.7557254,-5.0763359
7530,-14.0898046,7.5345144,-8.7699156,-136.5343475,105.8091583,130.6412201,-2.1044924,0.6775556,10.6756907,-6.5343513,-9.0992365,-3.3893130
7540,-12.0427732,6.6845770,-6.2584114,-176.7633514,139.5190887,172.8091583,-2.1739240,0.8954269,10.7594872,-3.9312978,-8.6870232,-2.9236641
7550,-10.2734671,6.2488346,-4.1347651,-204.5038147,161.0839691,205.9313049,-2.0781565,1.0199248,10.8432837,-1.6870229,-7.0229006,-1.2290076
7560,-8.2096758,5.7029591,-2.0278785,-221.7022858,165.7175598,228.7251892,-1.9967541,0.9840119,10.8432837,0.9389313,-5.9160304,-0.1221374
7570,-6.0142040,4.5848727,-0.4046180,-229.5648804,155.8167877,243.2671814,-1.8650736,1.1109039,10.7810354,4.0381680,-3.4198472,0.7328244
7580,-3.5888901,3.5098817,1.2306134,-230.0305328,124.5343475,250.0305328,-1.6950861,1.1635761,10.5320396,6.5038166,-0.6870229,1.3587786
7590,-0.0981618,3.0597742,3.8378856,-219.4274750,67.3129807,247.3893127,-1.5346755,1.1228749,10.3692341,7.1068702,1.4198474,2.0687022
7600,4.5130472,2.7102225,6.8545642,-188.9313049,-19.1679382,229.1526642,-1.4436963,1.2569494,10.3524752,6.9007635,1.1221374,1.7404580
7610,9.4618368,3.5601597,9.6581602,-137.6946564,-114.6717529,193.5343475,-1.4436963,1.2282192,10.1872759,5.5038166,0.4503817,0.8549618
7620,13.8695393,5.5114241,11.8919392,-77.3587799,-174.4656525,136.3664093,-1.4700323,1.1492109,10.1178446,3.5114503,-0.7022901,-1.2061069
7630,17.1256371,7.2591825,13.0291786,-32.8167953,-174.4732819,58.4198456,-1.5107336,1.1156923,10.0125008,1.0992366,-2.9312978,-2.3740458
7640,17.7600975,8.4778252,14.3364067,0.2671756,-132.5801544,-15.7557249,-1.6519908,1.0725969,10.2016411,-0.8244275,-3.8778627,-2.8778627
7650,16.2924595,8.5568333,15.7346134,50.3664131,-57.6412201,-83.3816757,-1.6472024,1.0342898,10.2662840,-2.2671757,-4.9694657,-3.6259542
7660,12.1792421,7.5129666,14.8224268,117.4885483,8.2977095,-138.6335907,-1.7956421,0.9792235,10.4697905,-2.4351146,-5.5572519,-3.1832061
7670,7.0891948,7.1179252,11.5783005,177.9770966,22.8244267,-177.5038147,-1.8794388,0.9600700,10.6014709,-1.7328244,-5.2977099,-2.9083970
7680,3.0094962,7.1586266,7.6877422,215.2671814,8.3893127,-201.5419922,-1.9009864,0.9720409,10.7355452,-0.3664122,-4.3893127,-2.2748091
7690,0.3663110,7.2591825,3.6056492,235.3587799,-8.0687027,-213.9618378,-1.8459201,0.9624642,10.6445665,1.3129771,-3.4580152,-1.1068702
7700,-1.4532729,7.2735476,0.2418131,241.6717529,-15.4198475,-217.8015289,-1.7597293,1.0510491,10.5224628,2.5725191,-2.3206108,-0.7786260
7710,-3.0669568,7.3286138,-3.6631098,233.1603088,-11.3053436,-215.9770966,-1.8028246,1.0414724,10.4721851,3.3358779,-1.2137405,-0.5190840
7720,-4.8649931,7.5009956,-6.9335728,209.6717529,-4.9389315,-207.8549652,-1.6998745,1.1061156,10.2974091,3.3740458,-1.1755725,-1.4427481
7730,-7.7571740,7.8313937,-9.9550400,173.8091583,-0.5496183,-187.7557220,-1.6998745,1.1013272,10.1824875,2.8931298,-1.7328244,-1.1832061
7740,-10.8648319,8.3629036,-12.3444405,128.6793823,-2.8167939,-153.1374054,-1.6950861,1.0797794,10.1585455,1.5496184,-2.2748091,-1.9618320
7750,-13.9509420,8.9207497,-14.1855726,71.9160309,-6.1679387,-103.9160309,-1.6639616,1.0845678,10.1920643,-0.1297710,-3.1374047,-2.3816793
7760,-15.1145182,9.5025377,-14.3459835,6.8244276,-0.0992366,-45.3435097,-1.6136837,1.0654143,10.1705170,-1.3816794,-3.8854961,-3.0152671
7770,-14.8152447,9.3756456,-13.2350798,-57.5496178,24.0992374,12.5190840,-1.6711442,1.0462608,10.3045912,-2.3129771,-4.2366414,-3.8549619
7780,-13.8551741,9.1242561,-11.1569233,-115.5419846,57.1526718,64.8549652,-1.7214222,0.9816177,10.3692341,-2.4274809,-4.5877862,-3.7938931
7790,-12.6197729,8.3988171,-8.5185261,-165.3740387,92.6030502,111.8549652,-1.7836711,1.0534433,10.5727406,-1.9770992,-4.4961834,-4.5419846
7800,-11.1329813,7.4890246,-5.3893204,-201.5419922,111.8778610,150.6106873,-1.7262106,0.9935886,10.5751352,-1.2900764,-4.2290077,-3.6488550
7810,-9.3995876,6.4595232,-2.6216373,-222.4122162,116.0534363,182.2519073,-1.7645177,1.0223188,10.5871058,-0.4580153,-3.4580152,-4.0839696
7820,-7.3884687,5.5760674,-0.1867468,-229.2977142,107.1603088,205.7862549,-1.7286048,1.0534433,10.4626083,0.3511450,-2.7022901,-4.5190840
7830,-4.9272418,4.6830344,1.8554969,-226.1603088,82.9694672,220.2213745,-1.7238164,0.9888002,10.5248566,0.9923664,-2.3587787,-4.3969464
7840,-2.1906834,4.0174499,4.0868812,-213.1832123,44.4732819,224.5419922,-1.7070571,0.9911944,10.3189564,1.2061069,-2.6488550,-4.1832061
7850,1.7980363,3.7085996,6.4355812,-188.2977142,-10.7709923,217.3664093,-1.7621235,0.9911944,10.4243011,1.1145039,-2.4809160,-5.1374044
7860,6.0525107,4.3143296,8.7890692,-150.6870270,-74.6183243,193.5801544,-1.6926919,0.9600700,10.4075413,1.0381680,-2.4427481,-5.0458016
7870,10.9294748,5.4802995,10.8265247,-108.8015289,-127.8396912,149.3816833,-1.7884595,1.0678085,10.2878323,0.7709923,-2.5038168,-4.9083967
7880,15.1911325,7.0341287,12.1289635,-72.9694672,-137.4351196,84.2213745,-1.7980363,1.0462608,10.3764172,0.3358779,-3.0152671,-5.4503818
7890,16.8742466,7.6781654,14.1903610,-39.5877876,-104.6793900,13.5038166,-1.7477583,1.0175306,10.3859940,0.1984733,-3.2442749,-5.3282442
7900,16.2373924,7.6805596,16.0051556,5.9083967,-60.3435097,-52.3816795,-1.7381816,1.0271072,10.3189564,0.0000000,-3.1297710,-5.2671757
7910,12.8927097,7.1705976,16.4504757,65.0687027,-20.3893127,-105.1221390,-1.7262106,0.9983770,10.4650021,-0.1297710,-2.9312978,-4.8473282
7920,9.4187412,7.0772243,14.5423069,125.5267181,-4.2977099,-139.4198456,-1.7357874,1.0821736,10.3500814,0.0000000,-2.7709923,-5.5190840
7930,6.6678176,7.1753860,11.6118193,172.6412201,-13.7404585,-165.2137451,-1.6950861,1.0893562,10.4314833,0.1297710,-2.8091602,-5.3740458
7940,4.6351509,7.2376347,8.0660238,205.2137451,-26.3664131,-185.0992432,-1.8028246,1.0630201,10.4386663,0.1984733,-2.9236641,-5.3435116
7950,2.8945751,7.1610208,4.4795284,224.6641235,-19.4961834,-200.4045868,-1.8147956,1.1324517,10.4219065,0.3893130,-3.0152671,-6.0534353
7960,0.9600700,7.4579000,0.9097920,228.5572510,1.0763359,-212.1221313,-1.7717001,1.1420283,10.4769726,0.5725191,-3.0458016,-5.8015265
7970,-1.3622938,7.4339581,-1.2306134,220.1603088,6.9694657,-220.6793823,-1.8243724,1.1611819,10.3452930,0.5801527,-2.7480917,-5.4961834
7980,-3.9887197,6.8258343,-3.0286496,212.7633514,6.9160304,-221.6106873,-1.8243724,1.1659702,10.3021975,0.2442748,-2.5343511,-5.4580154
7990,-7.0652533,6.6103573,-5.6526814,202.7022858,-1.1908396,-209.8473358,-1.7333932,1.1013272,10.3213511,0.0534351,-3.0610688,-5.7786260
8000,-10.0532017,7.0245519,-9.3804340,175.3129730,1.0000000,-181.5877838,-1.7477583,1.0510491,10.3237448,-0.9389313,-2.7404580,-5.8702292
8010,-14.4034433,7.3597383,-13.5367470,123.5114517,31.9083977,-131.7786255,-1.8076130,1.0342898,10.3572636,-1.2519084,-1.6793894,-5.8167939
8020,-16.9652271,8.0325060,-16.0290985,56.8854980,64.5267181,-62.2442741,-1.8914096,0.9528874,10.4793673,-0.8320611,-1.9389313,-6.1297708
8030,-17.8175583,8.6813307,-17.8582592,-16.1526718,94.9465637,7.7404580,-1.9440818,0.9241571,10.5320396,-0.3206107,-1.5877863,-6.1908398
8040,-17.2142220,8.1785507,-17.4440651,-97.6870193,142.6412201,74.7022934,-1.9680238,0.9073978,10.5200682,0.2366412,-1.5801526,-6.2137403
8050,-15.1217003,7.9199786,-14.0443153,-164.1679382,178.5648804,128.5877838,-2.0997043,0.8738791,10.4793673,0.7557252,-1.2519084,-5.4351144
8060,-12.8711624,7.3812861,-10.3596573,-208.5648804,200.2900696,167.2671814,-2.0757623,0.8283895,10.3979645,0.9618320,-1.2366412,-5.1068702
8070,-10.8528605,6.6582408,-7.1251078,-235.8167877,202.5267181,193.3282471,-2.1954718,0.8068419,10.2854376,1.0305344,-1.4198474,-4.5648856
8080,-9.0021524,5.8753409,-4.0557570,-248.9236603,180.9084015,210.5877838,-2.2481439,0.8738791,10.3141680,0.8396947,-2.0534351,-3.0000000
8090,-6.6151457,4.9775200,-1.0965388,-248.1374054,141.1450348,222.6946564,-2.2026544,0.8523315,10.3213511,0.4427481,-3.1221373,-1.8931298
8100,-3.2465210,4.0677280,1.3479286,-235.2061005,87.2977066,225.8702240,-2.1954718,0.8690908,10.4003592,-0.1374046,-4.4274807,-1.0916030
8110,0.5769997,3.3925664,4.1036406,-213.0152740,14.6793890,217.5954132,-2.1427996,0.9193687,10.3931761,-0.3511450,-5.3282442,-1.0152671
8120,5.2911587,3.7421181,7.3956513,-174.6641235,-80.5801544,195.1679382,-2.0183017,0.9265513,10.4410601,-0.7557252,-6.1755724,0.3587786
8130,11.5687237,5.5353661,10.7906122,-118.6183243,-172.5190887,151.7557220,-2.0590029,0.8355721,10.4458485,-0.6183206,-6.2519083,0.7786260
8140,16.9556503,6.8330169,12.8496151,-67.6183243,-220.4961853,79.6641235,-1.9967541,0.9816177,10.4650021,-0.0534351,-6.1145039,1.1221374
8150,18.9595871,7.7332320,14.1161413,-36.1755714,-212.7709961,-2.3893130,-1.8602852,1.0031654,10.5392218,0.4732825,-5.9312978,2.0000000
8160,18.7225609,8.2312231,15.9093885,1.2900764,-165.2366486,-77.1526718,-1.8554969,1.0462608,10.3500814,0.8091603,-5.7557254,1.9770992
8170,14.8679161,7.2615767,16.8191814,57.6946564,-99.0381699,-133.4122162,-1.7333932,1.1085097,10.3692341,0.8015267,-5.6641221,2.2671757
8180,10.3141680,6.6151457,15.5311069,125.8625946,-40.5954208,-164.9541931,-1.7405758,1.0965388,10.2926207,0.6641222,-5.7251906,1.7709924
8190,6.3302369,6.7923155,11.7506819,180.9923706,-22.6183205,-181.2366486,-1.7046629,1.1396341,10.2064295,-0.1068702,-5.4656487,2.1679389
8200,4.1754665,7.1969333,7.3669209,212.0000000,-34.3053436,-194.3816833,-1.6448082,1.1635761,10.1681223,-0.9694657,-5.6106873,1.3969465
8210,2.9735832,7.4986014,2.9328821,222.9694672,-38.6335869,-209.5267181,-1.6950861,1.1755470,10.2016411,-1.7938931,-5.5877862,0.8625954
8220,1.5466464,7.5369086,-1.3096216,217.9007568,-21.8931293,-221.5038147,-1.6136837,1.1539993,10.3428984,-2.6259542,-5.7862597,0.0610687
8230,-0.1364688,7.5536675,-4.3143296,198.8091583,10.3816795,-227.2977142,-1.5921360,1.1276633,10.3357162,-2.7633588,-6.0687022,-0.0305344
8240,-2.6312141,7.5752153,-7.4435349,168.2290039,42.0992355,-224.7862549,-1.6304430,1.1300575,10.4482431,-2.8549619,-6.0610685,-0.9923664
8250,-7.0556765,7.3812861,-10.3548698,128.9236603,75.4580154,-209.0763397,-1.5801650,1.1827296,10.5200682,-2.2824428,-5.4198475,-1.5725191
8260,-11.8057480,7.6733770,-12.4066896,84.5801544,91.5648880,-172.9770966,-1.6519908,1.2377959,10.5296450,-1.3969465,-4.7480917,-2.3282442
8270,-15.7322187,8.3557215,-13.8503857,40.2061081,80.5954208,-121.4732819,-1.5610116,1.1085097,10.5224628,-0.5572519,-3.9465649,-2.8167939
8280,-18.2868195,7.7188668,-14.8535509,-11.9923668,62.1297722,-60.9618340,-1.5274929,1.0342898,10.5057030,0.0610687,-3.1450381,-3.8244274
8290,-17.8869896,8.0301113,-13.9437590,-71.5877838,49.0305328,4.4503818,-1.5681942,1.0702027,10.4434547,0.4961832,-2.2290077,-5.3664122
8300,-16.2421818,7.8936424,-11.7578640,-123.7022934,66.5648880,56.5343513,-1.5610116,0.9840119,10.4219065,0.8244275,-1.6793894,-5.6030536
8310,-14.7889080,7.2208753,-9.0117292,-165.0534363,97.0916061,102.4122162,-1.6855093,0.9169745,10.4266949,0.7557252,-1.2748091,-6.2213740
8320,-13.4050665,6.6223278,-5.9471664,-189.4656525,106.1679382,139.8549652,-1.8650736,0.9097920,10.3859940,0.7404580,-0.8396947,-5.9083967
8330,-11.9924946,6.1841912,-3.7109938,-199.2137451,95.8549652,172.0686951,-1.9057748,0.7781116,10.3692341,0.7099237,-0.4122137,-5.6870227
8340,-9.6677370,5.5497313,-2.0254843,-200.2671814,77.9694672,199.1603088,-1.8914096,0.6751614,10.5104914,1.1450381,0.1603053,-5.2442746
8350,-7.5608501,4.8769641,-1.0725969,-199.6717529,62.1068687,220.3893127,-1.9273225,0.6655847,10.4841557,1.4809160,-0.1908397,-5.7480917
8360,-4.7716198,3.8857694,0.1173153,-199.9847260,39.4961815,235.3740387,-1.9680238,0.7206510,10.4697905,1.7022901,-1.3129771,-5.6717558
8370,-1.7549409,3.2034254,1.8124014,-194.5572510,0.0763359,241.9236603,-1.9991482,0.7589580,10.5320396,1.9083970,-2.2595420,-6.1450381
8380,2.3439114,2.5354466,4.3765783,-177.2977142,-54.4656487,237.5648804,-2.0063307,0.8451489,10.3692341,2.0458016,-3.2519083,-5.6870227
8390,7.0796180,2.9017577,6.6438756,-150.5419922,-114.9923630,219.5572510,-2.0230901,0.9433106,10.4266949,2.1603053,-3.9236641,-5.9083967
8400,12.0882626,4.2592630,9.0620070,-118.6183243,-163.5877838,179.3969421,-1.9392935,1.0007712,10.3500814,2.0610688,-4.1984735,-4.7938933
8410,17.4799767,5.9735026,12.0236197,-86.6335907,-176.8015289,114.4580154,-2.0183017,1.1444225,10.3357162,1.7022901,-4.1068702,-3.9465649
8420,19.6126022,7.3788919,14.9181948,-53.8015251,-155.1450348,34.5419846,-1.9057748,1.1539993,10.2902260,1.3435115,-3.7633588,-2.9236641
8430,18.5022964,7.7906923,16.9891682,-5.0458016,-102.7328262,-35.4503822,-1.9009864,1.1683644,10.2710724,0.8702290,-3.7938931,-2.3435113
8440,15.4784346,7.1610208,17.6667233,64.9083939,-53.2442741,-86.0534363,-1.9057748,1.1923064,10.3500814,0.7480916,-4.1221375,-1.9083970
8450,12.6580801,6.8952656,15.0498753,143.1679382,-35.6183205,-122.6641235,-1.8626794,1.2306134,10.3788109,0.5114504,-4.6488547,-1.6030535
8460,10.3788109,7.5847921,10.4123297,199.0458069,-46.3969460,-154.8091583,-1.8339491,1.1707586,10.3093796,0.1297710,-4.2900763,-1.8854961
8470,8.5017672,7.6542239,6.0477223,222.2900696,-46.1068687,-185.8854980,-1.8698620,1.0725969,10.3955708,-0.0229008,-4.4503818,-1.4961832
8480,6.5265603,7.8792777,2.3486998,229.1603088,-14.3740454,-211.1679382,-1.7908537,1.0223188,10.4554253,0.2290076,-4.2824426,-1.4885496
8490,4.3382711,7.6805596,-0.5291159,231.3129730,21.9541988,-230.3435059,-1.9129574,0.9624642,10.4434547,0.2671756,-4.2366414,-1.7786260
8500,2.1427996,7.1753860,-3.2058196,226.1068726,40.9236641,-250.1374054,-1.9560528,0.9385223,10.4554253,0.5877863,-4.0152674,-1.6717557
8510,-1.3790531,6.1339135,-5.5904322,215.4198456,36.2137413,-250.1374054,-1.9081690,1.0055596,10.4410601,0.8167939,-4.2137403,-1.4885496
8520,-5.5473371,5.5186067,-7.9750452,203.3511505,5.4274807,-250.1374054,-1.9680238,0.9528874,10.4386663,1.3740458,-4.3740458,-1.0458015
8530,-10.2950144,5.7412663,-11.1018562,180.9847260,-29.7938938,-249.0915985,-1.9345051,0.9552816,10.3452930,1.3816794,-4.4274807,-1.5496184
8540,-14.4944229,6.6342988,-14.2645807,135.8549652,-34.9236641,-206.2824402,-1.9129574,0.9624642,10.4243011,1.4885496,-3.9618320,-0.5343512
8550,-18.2197819,7.4363523,-16.5318775,69.6259537,-0.1679389,-138.3664093,-1.9033806,1.0917504,10.3668404,1.4885496,-4.4045801,-0.5954198
8560,-19.6131992,7.6446471,-17.1950684,-4.8015265,53.5038185,-64.9847336,-1.8842272,1.0127422,10.3668404,1.1755725,-4.1679387,-0.7404580
8570,-19.6131992,7.8864598,-15.5837793,-76.8015289,97.1603088,9.2213745,-1.8315549,1.0462608,10.3764172,0.6335878,-4.6488547,-0.9236641
8580,-19.1606979,7.1682034,-12.2606440,-131.5648804,115.6870193,76.0152664,-1.8674678,1.0678085,10.3333216,0.1908397,-4.8625956,-0.9923664
8590,-16.3547077,6.5816269,-8.7387915,-165.9465637,116.2519073,128.7099304,-1.8650736,1.0247130,10.4027529,-0.1755725,-5.2748094,-0.8244275
8600,-13.7210999,6.1458845,-6.0405402,-182.5954132,108.3664093,167.3587799,-1.8076130,1.0438666,10.3955708,-0.3435115,-4.9312978,-0.9160305
8610,-11.2048063,5.6287394,-3.8570392,-190.2061005,99.1526718,197.6030579,-1.7717001,1.1037214,10.4051476,-0.1297710,-4.7633586,-1.2900764
8620,-8.6789370,5.2743993,-2.4875629,-193.9084015,92.5343475,222.5496216,-1.8507085,1.0869620,10.4769726,0.0687023,-4.1832061,-1.0916030
8630,-6.3469963,4.8314743,-2.2098370,-199.0534363,95.6412201,242.6641235,-1.8578910,1.0151364,10.4817610,0.4809160,-3.7251909,-1.4427481
8640,-3.9959023,4.1970143,-1.7022687,-210.7633514,97.5725174,250.1297760,-1.8459201,1.0438666,10.4985209,0.9007633,-3.3358779,-1.2519084
8650,-1.7190280,3.2920105,-0.3495516,-221.5343475,84.8167953,250.1297760,-1.7812769,1.0031654,10.4171181,1.1908396,-3.3511450,-0.9007633
8660,2.3271523,2.4755919,2.7102225,-217.7328186,35.0305328,250.1297760,-1.8698620,1.0247130,10.4434547,0.9923664,-3.6183207,-0.6870229
8670,7.4100165,2.8586621,6.0860295,-190.5954132,-50.2366409,238.9007568,-1.8674678,1.0223188,10.4434547,0.7404580,-3.8854961,-1.3435115
8680,12.8520088,4.4771342,8.9063845,-148.1755676,-135.1603088,194.2824402,-1.8890154,1.0318956,10.3764172,0.4427481,-4.5801525,-0.9694657
8690,18.1240139,6.6271162,11.2095947,-106.1603088,-175.3053436,124.9770966,-1.8650736,0.9241571,10.4195127,0.2519084,-4.9847326,-0.9312977
8700,19.6126022,7.8433647,13.4816809,-69.9160309,-160.2290039,42.3664131,-1.8842272,0.9840119,10.2471304,0.3282443,-4.4580154,-0.2519084
8710,19.6126022,8.3700867,16.1464138,-24.3587780,-110.6946564,-40.3664131,-1.9105632,0.9840119,10.3620520,0.4732825,-4.3969464,-0.5190840
