timestamp,rxacclX,rxacclY,rxacclZ,rxgyroX,rxgyroY,rxgyroZ,txacclX,txacclY,txacclZ,txgyroX,txgyroY,txgyroZ
0,1.4700323,0.3878587,6.2224984,164.0992432,-194.2671814,-250.1374054,-1.2473727,0.1771700,10.5918941,0.6335878,-2.3816793,-3.2900763
10,0.8403605,0.1125269,5.9615316,158.9618378,-190.0686951,-250.1374054,-1.3766589,0.1316804,10.6062593,0.8625954,-2.5877862,-2.7175572
20,-0.0933734,0.0622489,5.7987270,155.0534363,-182.2519073,-250.1374054,-1.4101776,0.1125269,10.6062593,0.7862595,-3.4809160,-2.0839694
30,-0.6751614,0.0000000,5.4635406,150.3511505,-169.8931274,-250.1374054,-1.3646880,0.1963235,10.5511932,0.4122137,-4.7786260,-2.1755726
40,-1.1731528,-0.2082945,4.8051381,142.9389343,-152.3740387,-250.1374054,-1.2737088,0.2346306,10.5152798,0.0992366,-5.8091602,-1.8244275
50,-2.0063307,-0.2729376,4.1395535,132.8702240,-129.6641235,-250.1374054,-1.3024391,0.3088504,10.6278067,0.1068702,-6.4274807,-1.3893130
60,-2.5019281,-0.4908088,4.0413918,120.8549652,-100.4045792,-250.1374054,-1.1683644,0.3519458,10.6182299,-0.3511450,-7.0992365,-0.6564885
70,-3.4117200,-0.8643024,4.3861551,111.2977066,-64.2061081,-250.1374054,-1.1803354,0.4644727,10.5080976,-0.5496183,-7.1984735,-0.8473282
80,-6.0596933,-0.7517755,5.1235652,109.8167953,-25.5496178,-250.1374054,-0.9983770,0.4572902,10.5440102,-0.4351145,-6.6946564,-0.6488550
90,-7.8266053,-1.2689204,4.6399393,114.0076370,17.5496178,-250.1374054,-0.9457048,0.5410868,10.6325951,-0.5648855,-6.4656487,-0.3587786
100,-9.4857788,-1.3072275,3.3207407,114.0076370,55.7022896,-242.5267181,-0.8379663,0.5722113,10.6278067,-0.5114504,-6.1832061,-0.7862595
110,-11.0707321,-0.8786675,1.7070571,104.3435135,95.5725174,-201.8473358,-0.7014975,0.5243275,10.5751352,-0.4427481,-5.3206105,-0.8396947
120,-12.6293497,-0.5817881,0.0287303,86.9847336,116.6641235,-159.3740387,-0.7613522,0.5889706,10.7235746,-0.1450382,-4.4045801,-1.3358779
130,-13.7163115,-0.1340746,-1.3862357,64.4503784,113.6030502,-113.9083939,-0.7493813,0.6153067,10.5990763,-0.3435115,-3.4656489,-1.6488550
140,-14.5016060,0.3806761,-1.9991482,40.8778610,85.7022934,-68.4427490,-0.7302278,0.5602403,10.6876621,-0.4198473,-2.5343511,-2.1526718
150,-14.9134064,0.5841822,-1.7836711,21.5038166,44.8015251,-22.4732819,-0.7948709,0.4357425,10.7307568,-0.3435115,-2.0534351,-2.3282442
160,-14.6093445,0.7230452,-1.5610116,6.3282442,15.0992365,28.1603050,-0.9265513,0.4189832,10.6254129,-0.1755725,-2.2900763,-3.0610688
170,-14.5806141,1.0414724,-1.7645177,-11.7480917,8.8549614,83.4961853,-1.0127422,0.2849085,10.6541433,-0.3358779,-2.0458016,-3.4503818
180,-14.3795023,1.1563935,-1.9632354,-36.8549614,19.2137413,142.4961853,-1.1156923,0.2346306,10.6852674,-0.2519084,-1.5419847,-3.9007633
190,-14.5782194,1.2282192,-2.4636209,-67.8778610,43.5190849,207.6412201,-1.1683644,0.1460456,10.5990763,-0.1145038,-1.1450381,-4.2671757
200,-15.0043850,1.1109039,-2.4684093,-105.7099228,68.5954208,250.1297760,-1.2880739,0.1747758,10.7163916,0.2824427,-1.5343511,-3.6106870
210,-15.0738173,0.7781116,-1.8124014,-143.7022858,93.4885483,250.1297760,-1.3910241,0.1340746,10.4889441,0.6106870,-2.2519083,-3.3511450
220,-16.2613354,-0.5817881,-1.2306134,-177.4885559,126.2671738,250.1297760,-1.3982066,0.1532281,10.5487986,0.4656489,-3.1603053,-3.1984732
230,-18.6124287,-3.1531475,-0.2920911,-209.8549652,140.3816833,250.1297760,-1.2880739,0.1532281,10.4985209,0.2671756,-4.4961834,-2.2671757
240,-18.2006283,-6.9335728,2.0350611,-233.0076294,147.0381622,250.1297760,-1.3000449,0.1268920,10.4578199,-0.1908397,-5.6259542,-2.3969467
250,-15.8567171,-13.3332415,3.0525916,-248.4198456,139.5190887,250.1297760,-1.2258250,0.2059003,10.4530315,-0.8244275,-6.5496182,-2.2061069
260,-9.6844959,-19.6131992,3.2704628,-250.1374054,97.0229034,250.1297760,-1.1731528,0.3327923,10.5703468,-1.2671756,-7.4274807,-2.7709923
270,-1.3144100,-19.6131992,4.5848727,-250.1374054,50.0534363,250.1297760,-1.0917504,0.3495516,10.6086531,-1.9312977,-7.2595420,-2.3206108
280,12.3061342,-19.6131992,8.9422979,-250.1374054,26.6717548,250.1297760,-0.9840119,0.5003856,10.5607700,-2.0458016,-7.2213740,-2.1526718
290,19.6126022,-19.6131992,15.8184099,-220.1374054,106.5419846,250.1297760,-0.9169745,0.4477134,10.6948442,-1.9007634,-6.8854961,-2.1374047
300,19.6126022,-18.2892132,19.6126022,-174.5343475,147.4809113,250.1297760,-0.9050036,0.4692611,10.6661139,-1.6259542,-6.5343513,-2.1145039
310,19.6126022,2.0278785,19.6126022,-50.2595406,175.6564941,250.1297760,-0.7972651,0.4860204,10.7283630,-1.3740458,-6.0916033,-2.9389312
320,19.6126022,2.4061604,19.6126022,93.8778610,97.3893127,121.5572510,-0.8619082,0.5291159,10.7738523,-1.2290076,-5.3435116,-2.7022901
330,19.6126022,3.3183465,10.1465750,163.2290039,-121.9542007,-102.3664093,-0.7805058,0.4165890,10.6517487,-0.8854962,-4.8473282,-2.8015268
340,19.4839134,1.4891858,2.2409613,141.7938995,-250.1374054,-210.4732819,-0.8451489,0.4070122,10.6086531,-0.3053435,-3.7251909,-3.1526718
350,9.7754755,1.1923064,1.7956421,78.4503784,-250.1374054,-206.6335907,-0.9097920,0.3663110,10.5464048,-0.2519084,-3.2671757,-3.3664122
360,7.4842362,1.3814473,4.5681133,29.3129768,-250.1374054,-130.9084015,-0.9097920,0.3806761,10.6972389,-0.1984733,-3.0763359,-3.6412213
370,8.0947542,2.5737536,6.5026188,3.1145039,-174.4580078,-33.8244286,-1.0342898,0.3136388,10.7187862,0.1908397,-3.3358779,-4.5190840
380,9.4498653,4.2832050,6.4930420,-13.0916033,24.8473282,39.9618340,-1.0845678,0.2298422,10.5799236,0.1603053,-3.3893130,-4.1221375
390,10.0532017,5.1355362,5.4060798,-25.4503822,159.2900696,74.9083939,-1.0965388,0.2729376,10.6086531,0.0839695,-3.3893130,-3.5725191
400,9.3660688,5.0852585,4.8602047,-31.4732819,225.7709961,87.0763321,-1.2737088,0.1795642,10.6732969,0.1450382,-3.2061069,-4.5267177
410,8.8106174,4.6231799,4.2377152,-31.1908398,240.2671814,89.8091583,-1.2545552,0.1915352,10.6134415,0.4885496,-4.0229006,-3.3740458
420,8.3820572,4.3957319,3.9456241,-27.7938938,213.0610657,85.6030502,-1.2665262,0.1604107,10.6517487,0.8015267,-4.6641221,-3.7022901
430,8.1474266,4.0773048,3.9528067,-21.9312973,170.1984711,76.3358765,-1.2880739,0.1819584,10.4626083,0.6412213,-5.2442746,-3.6259542
440,7.9175844,3.7876077,3.8857694,-17.0229015,129.7099304,64.6717529,-1.1516051,0.2370248,10.6206245,0.4885496,-5.9465647,-3.2366412
450,7.7188668,3.6439564,3.7397239,-14.3358774,86.4809189,50.2366409,-1.2162483,0.2322364,10.6517487,0.4122137,-7.0687022,-2.1374047
460,7.4076223,3.2967989,3.9384418,-12.3282442,30.0763359,35.0916023,-1.1563935,0.2346306,10.6469603,0.6030535,-7.6106873,-2.1679389
470,7.6638002,2.9807658,4.1539187,-8.6717558,-20.3969460,22.4961834,-0.9816177,0.2705434,10.6637201,1.1679389,-7.6793895,-1.3816794
480,7.9439206,2.7748656,4.6471219,-5.2595420,-55.1068687,13.9236641,-0.9313397,0.3399749,10.5847120,1.3664122,-7.5801525,-1.4351145
490,11.3101511,2.7796540,5.1522956,-37.4427490,36.7709923,12.1908398,-0.6967092,0.5602403,10.5200682,0.3129771,-4.4427481,-1.9694656
500,10.4099360,2.2912393,5.7652082,-48.2137413,78.3511429,9.6412210,-0.5865764,0.4836263,10.4841557,-0.0687023,-3.6488550,-2.9541984
510,9.5743637,2.1523764,5.9375896,-53.6412201,100.6641235,9.4122133,-0.7254394,0.4692611,10.5918941,-0.6259542,-4.1603055,-3.8854961
520,8.6142941,1.9177457,6.2512288,-57.8244286,113.4961853,13.7022905,-0.7541697,0.4572902,10.6397781,-0.6564885,-3.1526718,-5.6259542
530,8.0396881,1.5801650,6.4379754,-58.7709923,112.4580154,18.0229015,-0.9217629,0.3471575,10.7020273,-0.5801527,-3.4122138,-5.6870227
540,8.1378498,1.5538290,6.4427638,-59.0458031,98.7938919,19.2519093,-1.1013272,0.3256098,10.7930059,-0.1908397,-2.5267177,-6.0000000
550,8.5783806,1.5250987,6.5385313,-59.1374054,84.4503784,17.9083977,-1.0869620,0.2873027,10.6445665,0.3664122,-1.9312977,-5.3969464
560,8.8968077,1.6400198,6.8114691,-60.1450386,71.5114517,14.1450386,-1.1132981,0.1915352,10.5535870,0.9541985,-1.6870229,-5.1679387
570,9.7802639,2.2936335,6.9287844,-61.5954208,63.2290077,-1.7404580,-1.3072275,0.1173153,10.6637201,1.6183206,-1.9312977,-5.5267177
580,9.6868906,2.3965836,6.7157016,-63.1984749,69.0457993,-8.9007635,-1.2569494,0.0885850,10.6254129,2.1832061,-2.3511450,-5.0610685
590,9.2367830,2.0925217,6.7037306,-67.7786255,72.2442780,-14.6488552,-1.3239868,0.1867468,10.6206245,2.7099237,-2.3816793,-3.7328243
600,8.7914639,1.8052188,6.7420373,-75.1221390,79.3664093,-17.3740463,-1.3024391,0.2106887,10.6469603,2.8015268,-3.5267177,-3.0152671
610,8.6358414,1.6400198,6.9814563,-84.2595444,86.7251892,-18.4198475,-1.2234308,0.1580165,10.4937325,2.3969467,-4.2977099,-1.8167939
620,8.8441362,1.5873476,7.4794478,-91.6412201,89.7404556,-19.9007626,-1.2042773,0.2370248,10.5823174,2.1068702,-4.7022901,-1.9770992
630,9.3229742,1.6687500,7.5273318,-98.1526718,92.7938919,-23.6259537,-1.0725969,0.2466015,10.5009146,1.7862595,-5.1374044,-2.2595420
640,9.4546537,2.7844424,6.5265603,-104.5572510,123.2595444,-24.6717548,-1.1324517,0.3256098,10.4985209,1.1603054,-5.5190840,-2.2213740
650,9.1553802,0.4764437,7.9199786,-121.6488571,122.8244247,-27.4656487,-0.9217629,0.4357425,10.5272512,0.5801527,-5.6412215,-2.9694657
660,10.4410601,-0.1484398,8.9015961,-136.3358765,125.8473282,-40.4656487,-0.9648584,0.5219333,10.5416164,-0.0916031,-6.2290077,-2.9083970
670,10.7714586,-0.2585725,10.6254129,-132.0763397,142.1221313,-55.4580154,-0.9050036,0.5937590,10.5775290,-0.4351145,-6.0839696,-2.6793892
680,11.2095947,-0.8116302,12.3755655,-115.8854980,133.2519073,-76.9694672,-0.7805058,0.5243275,10.6302013,-0.5801527,-6.4427481,-2.4961832
690,12.1002331,-1.2713146,13.0866394,-89.2442780,107.0763321,-110.3816757,-0.7757174,0.5554519,10.6661139,-0.6564885,-5.8625956,-3.3740458
700,13.1297350,-1.4915800,14.1472654,-54.5725174,80.9618301,-154.9389343,-0.7398046,0.5602403,10.7139978,-0.5343512,-4.8473282,-2.7557251
710,12.6245613,-2.0278785,14.4106264,-15.4656487,44.4122124,-206.8167877,-0.7685348,0.5530578,10.6038647,-0.1603053,-3.4503818,-2.7786260
720,11.3771887,-2.4444675,13.9078465,20.5496178,-3.9923663,-250.1374054,-0.7996593,0.4836263,10.6254129,-0.1297710,-2.7404580,-2.5190840
730,10.2567072,-2.7724714,12.9860840,45.6717567,-47.8549614,-250.1374054,-0.8619082,0.4141948,10.7451220,0.0610687,-2.6641221,-2.9160306
740,9.4019823,-2.9520357,12.5359764,63.3740463,-81.4580154,-250.1374054,-0.8164186,0.3519458,10.6996326,-0.1755725,-2.9236641,-3.2977099
750,8.7603388,-3.0094962,12.4665442,76.6412201,-104.1297684,-250.1374054,-0.9145803,0.2609667,10.5775290,0.1908397,-2.5343511,-4.2900763
760,8.2024927,-3.1579359,12.5575237,87.2900772,-122.3816757,-250.1374054,-1.0342898,0.2777260,10.6685085,0.8702290,-2.1603053,-4.0305343
770,7.6494355,-3.0430148,12.6915979,97.2290039,-135.5419922,-250.1374054,-1.1827296,0.1987177,10.7546988,1.6183206,-1.6259542,-4.0152674
780,7.1538382,-2.9975252,12.2893744,106.8854980,-131.2671814,-250.1374054,-1.2306134,0.1532281,10.6996326,2.4045801,-1.0916030,-3.1755726
790,6.5481081,-2.8155668,11.6022425,115.0000000,-123.4427490,-250.1374054,-1.2808913,0.0909792,10.7020273,3.2671757,-1.4351145,-2.9083970
800,5.7221127,-2.4229198,10.6852674,117.7251892,-118.8091583,-250.1374054,-1.2689204,0.1556223,10.6541433,3.4274809,-2.0534351,-2.7480917
810,5.0589223,-2.2122312,10.0603838,116.9847336,-114.6641235,-250.1374054,-1.4173602,0.1388630,10.5152798,3.4122138,-2.9007633,-1.9923664
820,4.1946201,-1.9728121,9.6916790,117.6030502,-106.5038147,-250.1374054,-1.3718705,0.2202654,10.4985209,3.1145039,-3.7099237,-1.2366412
830,3.4739690,-1.4269369,9.4331064,119.9770966,-104.3587799,-250.1374054,-1.3646880,0.3064562,10.4841557,2.3893130,-4.4656487,-1.0534351
840,3.1986370,-0.9169745,8.8680773,121.6106873,-104.6946564,-250.1374054,-1.3503228,0.3088504,10.4243011,1.7175573,-5.3587785,0.2671756
850,3.0047078,-0.5243275,8.1043310,120.8931274,-107.3053436,-250.1374054,-1.1539993,0.3758878,10.5176744,0.8244275,-5.9312978,0.8015267
860,2.3941894,-0.2418131,7.7092900,117.9923630,-111.8702316,-250.1374054,-1.1348459,0.4357425,10.4290895,0.5190840,-6.8244276,0.9770992
870,1.5921360,-0.1819584,7.2950954,115.0305328,-109.8167953,-250.1374054,-0.9289455,0.4788379,10.4697905,-0.3435115,-7.1755724,1.7709924
880,0.9265513,-0.0215477,7.4315639,112.5801544,-107.3740463,-250.1374054,-0.8643024,0.5339043,10.6086531,-0.8778626,-7.0763359,1.0305344
890,0.2418131,0.0502780,8.0085640,113.1374054,-110.0229034,-250.1374054,-0.7781116,0.4381367,10.6038647,-0.9541985,-6.7709923,-0.0610687
900,-0.7924767,0.0933734,8.5400734,120.2442780,-111.1374054,-250.1374054,-0.5985473,0.4716553,10.7618818,-0.8320611,-6.0610685,-0.9770992
910,-1.8483143,0.1340746,8.9829988,132.2442780,-102.9847336,-250.1374054,-0.6009415,0.4860204,10.6780853,-0.6106870,-5.2824426,-2.0534351
920,-2.6527619,0.0311245,9.4977493,150.3358765,-99.1679382,-250.1374054,-0.6607963,0.4477134,10.6230183,-0.1984733,-4.7251906,-2.7709923
930,-3.4596038,-0.1484398,8.5041609,165.7862549,-95.5801544,-250.1374054,-0.7757174,0.4453192,10.6732969,-0.0687023,-4.0381680,-3.5419848
940,-4.2664456,-0.0143651,8.1833391,175.2061005,-95.7633591,-250.1374054,-0.8092360,0.4261657,10.6373835,-0.0687023,-3.5190840,-4.0687022
950,-4.8865409,-0.0478838,6.6773944,178.5877838,-99.3587799,-250.1374054,-0.9169745,0.3974355,10.6685085,0.1374046,-2.7480917,-3.9083970
960,-5.9256191,0.0143651,5.0445571,173.2061005,-95.0076370,-245.4427490,-0.9911944,0.2298422,10.6397781,0.1297710,-2.4961832,-4.5038166
970,-6.5983863,0.2944853,3.8809812,158.3358765,-81.8473282,-223.6259613,-1.1300575,0.2705434,10.5751352,0.7633588,-2.5267177,-4.5190840
980,-7.3597383,0.7565638,2.9975252,139.2900696,-53.6717567,-196.9694672,-1.1659702,0.2633608,10.7331514,1.0305344,-2.6412213,-4.3358779
990,-8.3940287,1.1611819,2.4779861,118.6030502,-21.8854961,-163.6564941,-1.2521610,0.2322364,10.5895004,1.4656489,-2.7099237,-3.7938931
1000,-9.3086090,1.6256547,2.3463056,100.0992355,3.4198472,-125.7786255,-1.2521610,0.2418131,10.6397781,1.8396946,-2.9465649,-3.3816793
1010,-9.9598284,1.9512644,2.0183017,86.4961853,32.1603050,-87.0457993,-1.1156923,0.2059003,10.5966825,2.0610688,-3.6641221,-2.8549619
1020,-10.8815908,2.4061604,1.6424140,71.4045792,64.6564865,-45.4580154,-1.1396341,0.3423691,10.6445665,2.0534351,-3.6259542,-2.2442749
1030,-12.2941628,2.5522060,1.2042773,54.3740463,93.1908417,5.9541984,-1.1707586,0.3806761,10.5583754,2.3053436,-3.3893130,-2.3511450
1040,-13.9365768,2.8969693,0.4381367,35.5343513,125.3664093,66.1221390,-1.0582317,0.3974355,10.5679522,2.2977099,-3.1374047,-1.4045801
1050,-16.5510311,3.0597742,-0.3423691,9.4198475,168.8931274,139.4198456,-0.9337339,0.4596844,10.4410601,1.7786260,-4.1679387,-1.2442749
1060,-19.6131992,3.3470769,0.5602403,-20.3893127,205.6717529,232.8015289,-0.8882443,0.5339043,10.4673967,0.6412213,-4.6564884,-1.4503816
1070,-19.6131992,1.9895715,2.1260402,-44.8473282,229.2824402,250.1297760,-0.8140244,0.5530578,10.5200682,-0.0076336,-4.9694657,-2.2442749
1080,-19.6131992,0.3471575,3.5625539,-61.5190849,250.1297760,250.1297760,-0.7948709,0.5602403,10.5416164,-0.8473282,-4.9236641,-2.6564887
1090,-18.9547977,-2.8897867,5.3318601,-75.2366409,250.1297760,250.1297760,-0.7326220,0.5099624,10.5009146,-1.4122137,-4.5114503,-3.4732823
1100,-15.9668493,-8.7507620,6.6295104,-82.0229034,250.1297760,250.1297760,-0.8619082,0.4979914,10.4506369,-1.7557251,-4.8778625,-3.3282442
1110,-11.1425581,-14.6284971,8.1641865,-79.1755753,250.1297760,250.1297760,-0.7996593,0.4429250,10.5464048,-2.3129771,-4.9923663,-4.6717558
1120,-4.9535780,-19.6131992,9.0931320,-71.9007645,250.1297760,250.1297760,-0.9385223,0.3591284,10.7642756,-2.1679389,-4.5419846,-4.7022901
1130,3.6008608,-19.6131992,10.3644457,-53.0305328,212.9160309,250.1297760,-0.9361281,0.3232156,10.6517487,-1.4961832,-3.0381680,-4.7251906
1140,17.1256371,-19.6131992,12.9525652,-18.0000000,215.7022858,250.1297760,-0.9457048,0.2035061,10.7044210,-0.7175573,-3.7480917,-4.4885497
1150,19.6126022,-19.6131992,16.3475246,21.3206100,250.1297760,250.1297760,-1.1156923,0.2968795,10.7379398,-0.2442748,-2.8015268,-5.2442746
1160,19.6126022,-11.9182749,19.6126022,50.6717567,250.1297760,250.1297760,-1.2928623,0.2585725,10.6852674,0.1374046,-2.8778627,-4.7709923
1170,19.6126022,1.6280488,19.6126022,64.8549652,250.1297760,250.1297760,-1.3575054,0.2466015,10.7307568,0.7480916,-4.0381680,-3.6564887
1180,19.6126022,3.1627243,13.8479919,99.9007645,250.1297760,109.8320618,-1.3335636,0.3064562,10.5775290,1.3664122,-3.8931298,-2.6946564
1190,19.6126022,0.5913648,4.8721757,118.8320618,76.9542007,-107.7709961,-1.2976507,0.2537841,10.6230183,1.6412214,-3.9083970,-1.4122137
1200,17.9851513,-0.0814024,1.3311694,90.4427490,-161.7175598,-198.1068726,-1.2761030,0.2753318,10.5224628,1.1221374,-4.5114503,-1.0763359
1210,8.5233145,-0.4141948,5.1211715,45.4427490,-250.1374054,-184.2061005,-1.1851238,0.3974355,10.5057030,0.4656489,-5.1603055,-0.3587786
1220,6.5552907,0.1436514,8.6262646,25.8778629,-220.3511505,-110.1221390,-1.1396341,0.4189832,10.5583754,0.1526718,-6.0916033,-0.4656489
1230,7.0796180,1.9033806,8.1378498,14.6488552,-38.7099228,-33.1297722,-1.0941446,0.4525018,10.5966825,0.2366412,-6.6106873,-0.0610687
1240,7.1107426,4.3981261,6.5121951,-12.6030531,194.6641235,44.7480927,-0.8738791,0.5291159,10.6709023,1.3893130,-6.5114503,0.8702290
1250,7.7595682,3.9863255,5.4563580,4.3816795,160.5725250,50.1908379,-0.8044477,0.6320660,10.6661139,2.1297710,-5.7328243,0.8702290
1260,7.8242111,4.0701222,4.9128766,17.3893127,99.5190811,39.5954208,-0.8140244,0.6272776,10.5751352,2.2900763,-5.4274807,0.6870229
1270,7.7332320,3.8091555,4.2161674,26.5954189,51.2900772,27.7404575,-0.8188128,0.5793939,10.5416164,2.1297710,-5.0916033,0.5267175
1280,7.1394730,3.6607156,3.4380560,29.2061062,16.0381680,20.1603050,-0.7685348,0.4740495,10.5655584,1.5954199,-4.3053436,0.6717557
1290,6.5528965,3.5362179,3.0861101,27.0916023,-9.0839691,18.9770985,-0.7230452,0.3471575,10.5080976,1.4122137,-4.1679387,0.2213740
1300,6.4523406,3.6152260,3.1770895,23.2442741,-27.9923668,20.1603050,-0.7350162,0.2896969,10.6493549,1.0916030,-4.0534353,-0.5190840
1310,6.6151457,3.4165084,3.0382264,18.7709923,-40.6946564,22.9618320,-0.7350162,0.2298422,10.6685085,0.9694657,-4.1068702,-0.9389313
1320,6.9982157,3.1627243,2.9352763,15.2213745,-46.9236641,25.8625946,-0.7661406,0.2274480,10.6780853,1.2061069,-3.5725191,-2.2061069
1330,7.3453732,3.2153964,2.8466914,10.4580154,-49.8702278,30.0534344,-0.7996593,0.1675933,10.5416164,1.5496184,-3.4885497,-3.4656489
1340,8.9279327,3.2704628,2.3415172,-8.3740454,-40.5114517,35.6564903,-0.9911944,0.3758878,10.5128860,2.1297710,-3.0152671,-4.5419846
1350,10.0915089,3.5673423,2.0757623,-33.7175560,0.9770992,41.7480927,-1.1827296,0.4955972,10.5128860,1.7709924,-3.7862597,-4.4732823
1360,10.6493549,3.6008608,3.3375001,-42.9618340,8.1297712,35.2977104,-1.0965388,0.5291159,10.4386663,0.9236641,-4.4122138,-3.6946564
1370,10.0508070,3.2393384,3.4907281,-50.7938919,21.2137413,24.3740463,-1.0366840,0.5889706,10.4243011,0.4732825,-4.4885497,-3.4351146
1380,9.1769285,2.8778157,3.4380560,-62.3740463,44.4656487,20.1297703,-0.9768293,0.5817881,10.4578199,-0.0229008,-4.3435116,-3.8244274
1390,9.7850523,2.1835008,3.8259149,-80.6259537,86.6259537,26.8473282,-0.8164186,0.5913648,10.5368280,-0.3893130,-4.2824426,-3.8931298
1400,10.7906122,2.9999194,4.7476778,-106.2595444,141.9389343,33.6030540,-0.7565638,0.5219333,10.5631638,-0.7022901,-3.7862597,-4.1374044
1410,12.5814657,3.0262554,6.3541789,-124.3511429,176.7099304,23.7480907,-0.6679789,0.5195391,10.7570934,-0.6946565,-3.7480917,-5.0076337
1420,11.1377697,2.0230901,7.2065101,-130.7328186,168.3511505,5.7633586,-0.7062859,0.4596844,10.7092094,-0.1068702,-2.9007633,-5.4274807
1430,8.9734221,1.3096216,7.2879128,-126.8396912,133.0152740,-2.1908398,-0.7110743,0.4022238,10.8121595,0.5114504,-2.2137403,-6.0458016
1440,7.5536675,1.5634058,6.8210459,-122.6564865,105.4045792,5.1679387,-0.8259954,0.3782819,10.7834291,1.4122137,-1.2824427,-6.8320613
1450,7.7954807,2.1020982,6.6247220,-124.4045792,83.1984711,13.6793890,-0.8810617,0.4118006,10.7235746,2.1603053,-1.0610687,-7.0687022
1460,9.6533718,2.3654592,7.2759418,-131.4885559,63.4961815,10.5954199,-1.1013272,0.3399749,10.6254129,2.3740458,-1.3587786,-6.9770994
1470,10.7020273,3.4332676,8.8130112,-144.3435059,32.9083977,-3.4427481,-1.1156923,0.3591284,10.5344334,2.3969467,-1.2519084,-7.2290077
1480,13.8767223,1.4173602,10.3237448,-157.1984711,2.0610688,-21.7328243,-1.1683644,0.3854645,10.4362717,2.1908398,-1.4885496,-7.6564884
1490,16.7712975,-0.2968795,12.1888189,-150.9770966,12.3206110,-63.6488533,-1.1970947,0.4070122,10.4027529,1.3816794,-2.0687022,-6.6259542
1500,16.5725803,-0.4261657,13.8264437,-127.7633591,14.0763359,-111.2290039,-1.3431402,0.3806761,10.4243011,0.5190840,-3.1679389,-6.1450381
1510,14.9181948,-0.4070122,14.4896345,-91.0763321,9.8549614,-147.3358765,-1.4053892,0.3950413,10.3692341,-0.9694657,-4.9618320,-5.5038166
1520,13.6780043,-1.2114599,14.3028879,-51.8091621,-11.5877867,-173.9541931,-1.4628497,0.3878587,10.4290895,-1.9770992,-6.0152674,-4.0763359
1530,13.9270000,-1.4891858,14.1831779,-12.1068707,-45.6641235,-201.0763397,-1.4029950,0.3615226,10.5392218,-2.6564887,-6.8473282,-3.3511450
1540,14.8128500,-1.4628497,13.9270000,27.5801525,-79.3358765,-236.0839691,-1.3191984,0.4094064,10.6302013,-2.4732823,-6.8702292,-2.0458016
1550,15.4808292,-1.2354017,12.6389265,61.8778610,-109.9770966,-250.1374054,-1.2401901,0.3878587,10.6685085,-2.0916030,-7.0534353,-1.4656489
1560,15.0714226,-0.9121862,11.4945040,84.2671738,-130.0610657,-250.1374054,-1.1061156,0.3351865,10.6565371,-1.8015267,-7.1908398,-1.1679389
1570,14.1783895,-1.2425843,11.1305866,99.0457993,-152.0000000,-250.1374054,-0.9744351,0.3232156,10.7475166,-1.5190840,-7.5954199,-1.1679389
1580,13.4601336,-1.6687500,10.8791971,115.7709961,-169.8854980,-250.1374054,-0.9816177,0.3687052,10.7259684,-1.1221374,-7.5190840,-0.9770992
1590,11.7698355,-2.0183017,10.0915089,130.8473358,-171.3893127,-250.1374054,-0.9002152,0.4525018,10.6924505,-0.1755725,-7.4045801,-1.1908396
1600,9.0380650,-1.4820032,8.7220325,136.1526642,-179.4122162,-250.1374054,-0.7996593,0.4333483,10.7475166,0.3511450,-6.8015265,-0.8625954
1610,7.5345144,-0.9552816,7.2903070,127.8854980,-197.7557220,-250.1374054,-0.7733232,0.4501076,10.7139978,0.8778626,-6.0610685,-1.1450381
1620,6.6534524,-0.4955972,5.2863703,109.8320618,-208.1374054,-250.1374054,-0.7805058,0.6033357,10.6852674,1.1984733,-5.6793895,-1.1145039
1630,6.4403696,0.2537841,3.1220231,84.3587799,-213.6641235,-250.1374054,-0.7565638,0.6200951,10.5966825,1.2519084,-4.9847326,-1.2442749
1640,6.1937680,0.7565638,2.1068866,53.7251892,-200.0076294,-250.1374054,-0.7158626,0.6272776,10.5224628,1.2977099,-3.8778627,-1.2671756
1650,4.9583664,0.7589580,1.7932479,22.9694653,-166.7022858,-250.1374054,-0.7158626,0.6392486,10.5966825,1.1374046,-2.9389312,-0.5496183
1660,3.4332676,0.6607963,2.1787124,-2.7175572,-146.7480927,-250.1374054,-0.7733232,0.6584021,10.6086531,1.0381680,-2.0305343,-0.4580153
1670,2.6814921,0.7996593,2.8802099,-17.5954189,-141.8396912,-250.1374054,-0.7421987,0.5578461,10.5152798,0.7175573,-1.5725191,-0.9694657
1680,1.7788827,0.7230452,3.8714044,-24.9465656,-132.8015289,-250.1374054,-0.6799498,0.5099624,10.5416164,0.3893130,-1.7557251,-1.7938931
1690,0.7158626,0.7421987,4.3981261,-29.6183205,-125.8091583,-250.1374054,-0.8236012,0.4596844,10.4913378,-0.3816794,-1.8625954,-2.4122138
1700,-0.4932030,0.8738791,5.0349803,-32.6564903,-121.0152664,-250.1374054,-0.8427547,0.3830703,10.6828737,-0.6488550,-1.8702290,-3.3053436
1710,-1.5753766,0.4764437,5.8106980,-29.1374054,-118.3053436,-250.1374054,-0.9552816,0.3663110,10.6373835,-0.9160305,-2.0610688,-3.5038168
1720,-3.0501974,0.5267217,6.2919297,-22.1832066,-123.5267181,-250.1374054,-1.0223188,0.2609667,10.6517487,-0.8320611,-2.0076337,-3.9236641
1730,-4.3454537,0.6631905,6.7994981,-13.3969469,-125.3053436,-250.1374054,-0.9696468,0.2657550,10.6325951,-0.5267175,-2.0610688,-4.0076337
1740,-5.4419928,0.7541697,6.5720501,-5.1679387,-120.9236679,-250.1374054,-1.1180865,0.1963235,10.7403336,0.1450382,-1.6793894,-4.0381680
1750,-6.7061248,1.0438666,6.1171541,-2.3511450,-115.2824402,-231.2290039,-1.1803354,0.2274480,10.7714586,0.7480916,-2.1603053,-3.4732823
1760,-7.7140784,1.4628497,5.8394279,-4.9312978,-105.0992355,-194.9160309,-1.1635761,0.2801202,10.6349897,0.9083970,-2.8015268,-3.7480917
1770,-8.4778252,1.8411317,5.4779053,-10.7404585,-88.2519073,-152.2061005,-1.2377959,0.2537841,10.6445665,1.2290076,-3.6870229,-3.2748091
1780,-9.0213060,2.1020982,4.9368186,-21.5648861,-63.9694672,-105.8396912,-1.3000449,0.3687052,10.4793673,1.0839695,-4.2213740,-3.1755726
1790,-9.6964674,1.8938038,4.7309184,-35.5419846,-35.3358765,-56.7786255,-1.1994889,0.3351865,10.5464048,1.0458015,-4.6335878,-3.1068702
1800,-10.8648319,1.5753766,4.8506279,-50.5954208,-11.2748089,-1.3587786,-1.0797794,0.3998296,10.5631638,0.8473282,-4.7022901,-2.2519083
1810,-11.8249016,1.2689204,5.8705525,-60.0839691,-11.7099237,58.8931313,-0.9744351,0.3950413,10.5440102,0.7099237,-4.2061067,-1.7938931
1820,-11.7698355,1.2521610,6.7540083,-61.4427490,-15.0152674,126.5648880,-0.8451489,0.5913648,10.6397781,0.2442748,-4.4045801,-2.5419848
1830,-12.1936073,0.9959828,7.4028339,-62.4732819,-4.7251906,204.3206177,-0.7781116,0.5530578,10.6397781,-0.0381679,-4.2442746,-2.0839694
1840,-11.8201132,-0.3615226,9.0404596,-62.3282433,14.4961834,250.1297760,-0.7493813,0.5722113,10.4841557,-0.3435115,-4.2595420,-2.5954199
1850,-10.5152798,-2.2050486,10.8193426,-53.9465637,59.2748108,250.1297760,-0.7685348,0.7038917,10.6421719,-0.6641222,-3.5190840,-2.8396947
1860,-9.6916790,-4.7788019,13.0339670,-41.5267181,132.4122162,250.1297760,-0.7398046,0.5554519,10.5895004,-1.0381680,-3.1526718,-4.1145039
1870,-9.4187412,-8.8465300,16.1799316,-26.1603050,214.0839691,250.1297760,-0.7182568,0.5171449,10.5583754,-1.1450381,-2.6793892,-3.8702290
1880,-8.5616217,-12.9046812,19.6126022,-4.3664122,250.1297760,250.1297760,-0.8140244,0.5027798,10.5559816,-1.3969465,-2.4351146,-4.0458016
1890,-6.4810710,-18.5286331,19.6126022,21.7709923,250.1297760,250.1297760,-0.8882443,0.4357425,10.5631638,-1.5190840,-2.1832061,-4.9618320
1900,-4.2975702,-19.6131992,19.6126022,59.8931313,250.1297760,250.1297760,-0.8858501,0.3687052,10.5942879,-1.7480916,-2.4122138,-4.9083967
1910,1.1061156,-19.6131992,19.6126022,126.9083939,250.1297760,250.1297760,-0.9409165,0.3112446,10.6421719,-2.0458016,-2.7786260,-4.7175574
1920,10.8744087,-19.6131992,19.6126022,222.3053436,160.8091583,250.1297760,-1.0295014,0.2944853,10.7163916,-1.7099236,-2.3893130,-4.5877862
1930,19.6126022,-19.6131992,19.6126022,250.1297760,119.2290039,250.1297760,-1.0725969,0.2920911,10.6804790,-1.2748091,-2.1374047,-4.8091602
1940,19.6126022,-19.6131992,15.9596672,250.1297760,157.4885559,250.1297760,-1.1516051,0.2226596,10.6709023,-0.7709923,-2.1297710,-4.2824426
1950,19.6126022,-19.1343613,11.6836443,250.1297760,144.7480927,250.1297760,-1.2401901,0.1795642,10.5464048,-0.0076336,-2.0610688,-5.1145039
1960,19.6126022,-5.0038562,4.0006905,250.1297760,69.9618301,250.1297760,-1.2018831,0.2202654,10.5799236,0.2671756,-2.8396947,-4.4961834
1970,19.6126022,3.2130022,-9.2607250,250.1297760,-6.2442746,135.1832123,-1.3000449,0.3016679,10.5990763,0.3282443,-3.3740458,-4.0381680
1980,19.6126022,6.6534524,-16.2828827,212.6183167,-108.7862625,-14.9465647,-1.2282192,0.3495516,10.6445665,0.2061069,-3.9465649,-3.4656489
1990,19.4503956,4.4843168,-8.7387915,60.0610695,-199.7709961,-68.4885483,-1.2473727,0.3519458,10.5847120,0.1145038,-4.6412215,-2.7786260
2000,16.3978043,2.3774302,1.0175306,14.1832066,-204.6488495,-55.5114517,-1.1037214,0.3830703,10.5416164,-0.1603053,-4.4961834,-2.0458016
2010,16.7617207,3.6942344,6.0668759,36.9923668,-135.7938995,-34.7557259,-1.0989330,0.4572902,10.5583754,-0.5877863,-4.3053436,-2.3358779
2020,17.0801468,4.5513539,6.2751703,74.5725174,-51.9236641,-28.4885502,-0.9289455,0.4908088,10.5057030,-0.8015267,-4.7480917,-2.0305343
2030,15.6316633,4.8889351,4.3933377,103.7862625,9.9847326,-32.3206100,-0.8164186,0.5075682,10.6206245,-0.9618320,-4.8854961,-2.0839694
2040,13.1105814,4.7500720,1.4006008,119.7862625,48.2671738,-38.1297722,-0.7757174,0.5291159,10.6445665,-0.8931298,-5.2290077,-2.1832061
2050,10.8049774,4.3670015,-0.9097920,120.7022934,62.1526718,-39.2748108,-0.7589580,0.5315101,10.6325951,-0.8778626,-4.4656487,-3.1450381
2060,8.6406298,4.0509686,-2.6719155,109.3435135,55.7251892,-35.4198456,-0.6607963,0.5698171,10.6014709,-0.5572519,-3.6030533,-4.0305343
2070,7.1586266,4.0342093,-3.2130022,91.1679382,31.2595425,-28.8854961,-0.8259954,0.5362985,10.6373835,-0.9694657,-2.2061069,-4.2977099
2080,6.5888095,4.1922259,-3.1411765,71.4732819,6.1145039,-24.0916023,-0.9528874,0.4477134,10.4961262,-1.2213740,-2.1679389,-3.3358779
2090,6.4643116,4.3933377,-2.7628946,52.2977104,-10.4274807,-22.6641216,-0.9768293,0.4213773,10.4889441,-2.2977099,-2.1297710,-3.7862597
2100,6.3398137,4.4268565,-2.0805507,34.5114517,-20.9923668,-22.0229015,-1.0055596,0.3136388,10.5104914,-2.6870229,-2.4732823,-3.7328243
2110,6.0501165,4.4891052,-1.2354017,20.4732819,-30.0610695,-21.5954189,-1.0462608,0.2657550,10.5440102,-3.0992367,-3.1679389,-3.6488550
2120,5.9375896,4.2305326,-0.6153067,9.8473282,-37.5419846,-20.3129768,-1.1180865,0.1771700,10.6732969,-3.0000000,-3.4351146,-3.7022901
2130,5.8083038,4.1323709,-0.3136388,0.3587786,-41.9236641,-17.8473282,-1.2545552,0.1891410,10.7163916,-2.4122138,-3.1526718,-4.3587785
2140,5.4395986,4.1036406,0.2154770,-7.4732823,-47.8015251,-14.9083967,-1.3622938,0.1460456,10.6637201,-1.5343511,-4.3129773,-4.1832061
2150,5.2696109,4.1156116,0.6751614,-13.5038166,-60.5648842,-10.5267172,-1.4125718,0.1221037,10.6924505,-0.5572519,-4.6717558,-4.2366414
2160,5.5066357,4.0820932,0.7134684,-18.5419846,-66.8854980,-4.3435116,-1.3886299,0.1580165,10.7116032,0.0839695,-5.2977099,-3.3206108
2170,5.6981707,4.0389977,0.9337339,-23.9847336,-62.1832047,1.9541985,-1.3263810,0.1221037,10.4985209,0.4274809,-5.1374044,-1.7099236
2180,5.8992829,3.9671719,1.0749911,-30.7251911,-52.8778610,10.2366409,-1.2521610,0.2370248,10.5416164,0.2137405,-5.2061067,-0.7862595
2190,6.4403696,4.0389977,1.1037214,-38.0687027,-42.0076332,18.7480907,-1.1396341,0.2346306,10.4697905,-0.7480916,-5.7786260,-0.3587786
2200,7.0149751,3.9935081,1.5681942,-45.6259537,-28.3282452,26.2213745,-1.0271072,0.3064562,10.5272512,-1.4045801,-6.3511453,-0.9465649
2210,7.4148049,3.9911139,1.9871773,-52.6030540,-13.4656487,32.8854980,-1.0007712,0.3184272,10.5344334,-1.9923664,-6.8473282,-0.7480916
2220,7.8122401,3.9623835,2.5402350,-57.8702278,-0.3664122,37.5190849,-0.9145803,0.4094064,10.6637201,-1.9618320,-7.2900763,-0.7022901
2230,7.9918046,3.7277529,3.0430148,-61.3358765,8.8549614,40.8167953,-0.7805058,0.5937590,10.7259684,-2.0992367,-7.2977099,-1.1221374
2240,8.2000990,3.5649481,3.4356618,-63.0381660,14.7480917,44.9236641,-0.8188128,0.5841822,10.7977943,-1.6793894,-6.8091602,-0.4274809
2250,8.5185261,3.3949606,3.8115497,-64.5114517,17.1145039,51.5114517,-0.7876883,0.6272776,10.8384953,-0.9160305,-5.6564884,-0.1984733
2260,11.6357603,3.9360476,5.6143742,-61.6106873,7.5725193,67.0763321,-0.7517755,0.5458752,10.8025827,1.3435115,-2.7099237,-0.0610687
2270,13.5870247,4.3574247,6.4978304,-53.7862587,-0.0305344,65.9847336,-0.8403605,0.5578461,10.7139978,2.0305343,-2.0992367,-0.6259542
2280,15.9836092,4.5800843,7.4363523,-43.6106873,-20.3358784,53.9771004,-0.9911944,0.3806761,10.5320396,1.9007634,-2.2748091,0.0610687
2290,18.5932751,4.5800843,8.6741486,-29.5496178,-51.0610695,28.0381680,-1.0558375,0.3974355,10.5152798,1.6183206,-2.0610688,-0.1603053
2300,19.6126022,4.2760224,9.6581602,-9.8854961,-83.6030502,-7.8702292,-1.0271072,0.2873027,10.5440102,1.1984733,-0.9770992,0.2366412
2310,19.6126022,4.0749106,9.5480280,11.6717558,-114.1526718,-49.9007645,-0.9528874,0.1747758,10.5607700,0.8854962,0.1832061,0.4427481
2320,19.6126022,3.9839313,8.6933022,28.8473282,-137.6335907,-92.6106873,-0.9888002,0.0694315,10.6948442,0.7480916,0.2824427,0.2061069
2330,19.6126022,3.6032550,7.4195933,39.0000000,-153.2900696,-131.1450348,-1.0151364,-0.0239419,10.6996326,1.3053435,0.0916031,-0.3358779
2340,19.6126022,3.4835455,6.2871413,42.0763359,-160.9847260,-162.2519073,-0.9935886,-0.0071826,10.7618818,2.2748091,-0.5801527,-1.2519084
2350,18.3083668,3.4811516,5.2552457,39.0305328,-168.2061005,-189.8473358,-1.1156923,0.0454896,10.9294748,3.4580152,-1.7099236,-1.6488550
2360,16.5869446,3.2944047,4.8817525,34.0228996,-184.0686951,-216.5954132,-1.1803354,0.1388630,10.7331514,4.6259542,-2.1374047,-2.9389312
2370,14.9876261,3.0621684,4.7500720,31.4580154,-207.4427490,-242.0152740,-1.2258250,0.3710994,10.5871058,5.0992365,-1.8778626,-2.1603053
2380,13.7330704,2.9233053,5.2576399,33.5801544,-236.9084015,-250.1374054,-1.2090657,0.5315101,10.4410601,5.1832061,-1.8015267,-1.6183206
2390,12.4090843,2.5857246,5.3462253,40.9465637,-250.1374054,-250.1374054,-1.1635761,0.6320660,10.4650021,4.3206105,-1.6717557,0.1450382
2400,10.9773588,2.7006457,4.4651632,51.5877876,-250.1374054,-250.1374054,-1.0630201,0.7110743,10.4314833,2.9618320,-1.3129771,1.4885496
2410,9.5552101,2.8562679,3.2297616,58.5496178,-239.1832123,-250.1374054,-0.8595140,0.7254394,10.3309278,1.5725191,-0.8854962,2.0763359
2420,8.1593981,2.9640064,1.7333932,57.0534363,-229.2366486,-250.1374054,-0.7086801,0.7182568,10.4434547,0.2748092,-1.4885496,1.4427481
2430,6.7420373,2.3415172,1.1204807,47.6183205,-229.8854980,-250.1374054,-0.6129125,0.6799498,10.7499104,-0.9083970,-1.7709924,1.1450381
2440,4.8075323,1.6902977,0.7350162,34.7709923,-235.4656525,-250.1374054,-0.6081241,0.4884146,10.6397781,-0.4503817,-1.4732825,-1.4122137
2450,3.1866663,1.2617378,0.8978211,24.5038166,-242.9770966,-250.1374054,-0.5674229,0.5219333,10.8241301,0.2061069,0.3053435,-2.5267177
2460,2.3008161,1.0630201,1.4580613,16.4351139,-238.9389343,-250.1374054,-0.7661406,0.4285599,10.7163916,1.4503816,2.9389312,-3.5190840
2470,2.5522060,0.9983770,3.2225790,12.6412210,-237.9007568,-250.1374054,-0.8882443,0.3974355,10.7546988,2.3740458,5.6717558,-3.2366412
2480,3.0837159,1.2689204,3.8761928,16.1755733,-216.1145020,-250.1374054,-0.9528874,0.3782819,10.6421719,2.9541984,7.4198475,-3.3282442
2490,3.0693510,1.6376256,4.0868812,22.1221371,-174.3358765,-250.1374054,-1.1324517,0.2873027,10.4913378,2.5038168,7.8473282,-3.1145039
2500,2.4372849,1.5083394,3.7181761,28.1526718,-125.4580154,-250.1374054,-1.2282192,0.2896969,10.3740225,2.0305343,6.8549619,-3.3206108
2510,1.6280488,1.2689204,3.0262554,35.0763359,-88.6106873,-250.1374054,-1.3479286,0.2442073,10.3883877,0.8320611,4.7175574,-3.8167939
2520,0.5530578,0.5075682,1.4724265,43.0763359,-41.8778610,-250.1374054,-1.4149660,0.1867468,10.3931761,-0.8091603,4.8015265,-4.2824426
2530,-1.7956421,-0.7948709,0.4884146,51.4656487,10.1755724,-250.1374054,-1.6567791,0.0861908,10.4123297,-1.6412214,3.0229008,-3.7251909
2540,-4.0366035,-1.2282192,-0.8571198,58.8091621,53.2137413,-226.5114441,-1.7118455,0.1364688,10.4602137,-2.0534351,-0.9770992,-3.7099237
2550,-5.9878678,-0.8714849,-2.2984219,63.1755714,77.8091583,-193.8167877,-1.6184721,0.1987177,10.6230183,-1.8015267,-4.2137403,-3.2671757
2560,-7.4076223,-0.4548960,-3.3327117,63.7480927,79.7480927,-159.0992432,-1.5418580,0.1747758,10.7834291,-1.4198474,-6.4885497,-2.9923663
2570,-9.1194677,-0.1340746,-3.5745249,62.7633591,78.0229034,-120.1221390,-1.4365137,0.1244979,10.7977943,-0.4503817,-6.5114503,-2.6335878
2580,-10.1010857,-0.0191535,-3.7540891,63.9694672,79.9618301,-76.8854980,-1.2784972,0.2633608,10.7116032,0.0458015,-6.3740458,-2.7175572
2590,-11.3843708,-0.0335187,-3.7660601,70.7557220,87.1984711,-29.7938938,-1.1803354,0.3543400,10.7954006,0.6106870,-5.3587785,-2.1526718
2600,-14.0179796,0.1484398,-4.9847026,80.1755753,92.5648880,22.3664131,-1.1396341,0.4213773,10.6517487,1.0305344,-5.2748094,-2.1068702
2610,-17.0322647,-0.2873027,-7.0413113,85.4045792,58.8320618,85.4732819,-1.0414724,0.6033357,10.7546988,1.2900764,-5.1908398,-1.6793894
2620,-19.4719429,-1.0582317,-8.9566631,87.7175598,12.9847326,162.6488495,-0.8595140,0.6703730,10.7977943,2.0839694,-3.4122138,-2.0152671
2630,-19.6131992,-2.2242019,-10.7546988,87.2290039,-39.2824440,250.1297760,-0.9409165,0.7206510,11.2670555,4.8244276,-0.8931298,-0.8015267
2640,-17.7385502,-3.4787574,-12.3899307,73.5267181,-26.9465656,250.1297760,-1.2234308,0.7038917,11.7554703,11.8091602,8.0763359,3.1755726
2650,-14.2214851,-5.5497313,-13.8168669,36.2824440,66.4122162,250.1297760,-0.9648584,0.5003856,12.1457233,20.9083977,16.0763359,6.5190840
2660,-9.8808203,-6.1147599,-14.1951494,-20.5114498,204.7251892,250.1297760,-0.7493813,0.4572902,12.6317434,32.7099228,24.1832066,6.9160304
2670,-4.9080882,-7.9199786,-13.6947641,-93.0305328,250.1297760,250.1297760,-0.5865764,0.3280039,13.4433737,48.6641235,33.7709923,6.5648856
2680,3.8091555,-9.0021524,-13.6013899,-174.2977142,250.1297760,250.1297760,-0.6991033,0.1221037,13.4409800,66.3435135,47.7251892,7.0610685
2690,11.6022425,-7.3310080,-14.3292236,-250.1374054,250.1297760,250.1297760,-0.5243275,0.0359128,12.8879223,82.0076370,62.3206100,7.1526718
2700,16.3451309,-9.4067707,-14.6404686,-250.1374054,250.1297760,250.1297760,-0.4477134,0.3495516,12.1002331,92.1297684,74.5114517,5.7328243
2710,19.6126022,-10.0723553,-6.7851329,-250.1374054,250.1297760,250.1297760,-0.3806761,0.4022238,11.1377697,100.9542007,84.2748108,2.7938931
2720,19.6126022,-8.8489246,15.0618458,-250.1374054,250.1297760,250.1297760,-0.7038917,0.6105183,10.2375546,102.3129807,89.8854980,-0.1908397
2730,19.6126022,-2.0925217,19.6126022,-250.1374054,199.6946564,141.3435059,-1.1875180,1.0199248,9.7730818,99.0534363,91.3206100,-2.4274809
2740,19.6126022,-2.8155668,19.6126022,-227.9313049,-119.0152664,-148.2366486,-1.8914096,1.2784972,9.5169029,94.1374054,91.1908417,-3.3893130
2750,19.6126022,-5.1738434,19.6126022,-6.1984735,-250.1374054,-250.1374054,-2.2816625,1.4580613,9.2655134,89.0839691,89.1679382,-4.0381680
2760,12.3947191,-3.0358322,15.4257622,39.7099228,-250.1374054,-249.2137451,-2.6336083,1.6926919,9.2415714,83.1374054,84.0687027,-3.9312978
2770,7.9989872,0.1651991,7.7619624,-7.2442746,-250.1374054,-183.0229034,-3.1339941,1.7477583,9.1577749,78.3206100,74.1297684,-3.9694657
2780,10.6948442,2.7221935,6.4236102,-54.8015251,-242.5343475,-124.2824402,-3.3398943,1.9943599,9.0332766,74.4427490,63.8702278,-3.9160306
2790,12.2654324,4.4891052,6.4427638,-81.2290039,-66.1374054,-93.8854980,-3.5242469,2.3726418,8.8752604,69.5038147,54.8396950,-5.2977099
2800,10.3021975,4.8602047,5.9974446,-90.2137375,63.2061081,-86.0992355,-3.6894460,2.4708035,8.5209198,62.8702278,42.6564903,-6.6717558
2810,6.2799587,4.5561423,5.5784616,-89.4351120,114.9083939,-82.3969498,-3.6463506,2.6264257,8.1234846,54.1755714,31.0534344,-5.5038166
2820,3.7181761,3.9001346,5.5664907,-78.6564865,110.0457993,-72.9694672,-3.5553713,2.7365584,8.0636301,44.3129768,21.9007626,-3.6412213
2830,2.5641768,3.5721307,5.6215568,-58.9312973,90.7328262,-57.2442741,-3.2632802,2.9017577,7.8289995,35.3664131,21.6183205,-3.0610688
2840,2.6647329,3.8354914,5.1666608,-38.3969460,82.3587799,-39.3358765,-3.4117200,3.1196289,7.9415264,25.9465656,20.5267181,-4.0763359
2850,3.0334380,4.3334827,4.4603748,-23.7633591,87.8931274,-23.2824421,-3.7349355,3.1459649,7.9678626,16.4503822,15.5419846,-2.2061069
2860,3.1387823,4.4077029,3.7828193,-16.4961834,99.0305328,-9.3511448,-3.7421181,3.0908985,8.2120695,7.6259542,6.3511453,-0.0534351
2870,3.0310438,4.2089849,3.0932927,-14.9312973,112.8549652,4.5954199,-3.6702924,2.9664006,8.3844519,0.6870229,-1.9694656,2.1908398
2880,2.8945751,4.0342093,2.4660151,-16.9312973,127.3511429,20.3511448,-3.4165084,2.9065459,8.5137377,-5.4122138,-9.1145039,3.1221373
2890,2.9616125,3.8881636,1.6807210,-22.6717548,135.1145020,33.5419846,-3.0478032,2.7197993,8.5041609,-11.3129768,-16.9541988,1.4732825
2900,3.0262554,3.6702924,1.3407460,-31.8167934,129.7480927,42.3893127,-2.7916248,2.6407909,8.5472565,-17.2366409,-23.1450386,-0.8931298
2910,3.6463506,3.5481887,1.4101776,-42.0458031,115.4427490,46.9771004,-2.7389526,2.5498118,8.6573887,-23.2900772,-28.5801525,-3.9465649
2920,4.6255741,3.3279233,2.5976956,-42.3893127,107.7709961,38.1908379,-2.7581062,2.5282640,8.9015961,-28.6183205,-34.4198456,-6.4580154
2930,5.2648225,4.0701222,4.1970143,-38.3358765,68.4045792,28.6946564,-2.8658447,2.4684093,9.1074963,-33.0381660,-38.8625946,-8.0381680
2940,6.2248926,3.8019729,5.0876527,-31.2671757,31.2900772,21.0687027,-3.0094962,2.3678534,9.5121145,-36.5496178,-41.4809151,-8.6488552
2950,6.8162575,3.9025288,5.4946647,-22.1755733,11.0076332,16.1526718,-3.0549858,2.2792683,9.8042059,-38.2595406,-43.5648842,-8.5725193
2960,7.1418672,4.0270267,5.2815819,-14.4045801,5.8015265,15.4656487,-3.0142846,2.1475880,10.0579901,-38.1908379,-43.1526718,-8.4427481
2970,7.4052281,3.9432299,4.5226240,-11.3893127,17.2366409,18.0763359,-2.8730273,2.1882892,10.2447367,-37.5343513,-41.3893127,-9.1908398
2980,7.3501616,3.6319854,4.0796990,-14.0381680,40.3206100,25.1374054,-2.9280937,2.1787124,10.4602137,-34.7099228,-38.5725174,-8.2442751
2990,7.0628591,3.6271970,3.8809812,-23.7480907,63.0076332,38.9236641,-2.8897867,2.1164634,10.5751352,-30.4580154,-34.6106873,-6.1526718
3000,7.3693151,3.6846576,3.8163381,-40.2366409,88.3969498,56.2671738,-2.7748656,2.0973101,10.6062593,-25.5038166,-30.2061062,-3.7022901
3010,7.6422529,3.9504125,3.8283088,-61.0992355,115.2824402,75.4045792,-2.6623387,2.1116750,10.7092094,-21.0534344,-25.6793900,-1.0381680
3020,8.3389616,4.0342093,4.3670015,-85.9465637,146.2366486,95.1832047,-2.5210814,2.1619530,10.6900558,-17.2671757,-21.5648861,-0.2977099
3030,9.7443514,3.8881636,4.8649931,-112.9312973,174.4198456,110.6793900,-2.3415172,2.2146254,10.4626083,-13.6717558,-16.9847336,0.3816794
3040,11.9972830,3.7660601,5.5712790,-138.0229034,207.7175598,120.8473282,-2.1858950,2.1188576,10.4099360,-11.4580154,-13.2977095,0.2671756
3050,14.3651371,4.0366035,6.9646969,-157.2977142,240.0915985,123.5190811,-2.1404054,2.1811066,10.1800938,-10.1297712,-9.7938929,0.7022901
3060,14.7913027,3.7373297,9.2774839,-161.3435059,199.0763397,121.7480927,-2.1475880,2.1260402,10.1298151,-9.7022905,-7.6793895,0.3511450
3070,19.3713875,4.2664456,12.1624823,-144.8091583,153.4351196,98.6412201,-2.2601149,2.0087249,10.1920643,-9.2213745,-6.9236641,-0.2442748
3080,19.6126022,3.7804251,14.0275564,-114.1450348,130.6412201,35.5190849,-2.3367288,2.0015423,10.1848822,-9.2595415,-7.2290077,-1.4503816
3090,19.6126022,2.5569944,16.2780933,-83.5419846,86.3435135,-57.1679382,-2.3989778,1.8459201,10.0747490,-9.7862597,-8.1832066,-2.2061069
3100,19.6126022,1.6136837,17.1088772,-42.9694672,44.1297722,-150.7251892,-2.4444675,1.8387375,10.1202393,-9.9694653,-8.7404585,-3.1832061
3110,19.6126022,0.9720409,17.5757446,7.8549619,-6.5419846,-222.6183167,-2.5306582,1.7118455,10.0819321,-9.7786255,-8.3053436,-3.3511450
3120,19.5102501,0.3830703,17.0250816,58.1984749,-52.0152664,-250.1374054,-2.6527619,1.7238164,10.1274214,-9.7786255,-7.9618320,-2.8473282
3130,19.2133713,-0.3543400,15.8567171,104.5038147,-70.9312973,-250.1374054,-2.6527619,1.6472024,10.1274214,-9.6030531,-7.1984735,-2.4580152
3140,18.0665531,-0.9337339,14.1855726,138.9618378,-73.9465637,-250.1374054,-2.6168492,1.7094513,10.0915089,-9.7709923,-6.9312978,-2.3740458
3150,16.4600525,-0.9361281,12.0355902,149.9084015,-68.4122162,-250.1374054,-2.6886747,1.8052188,10.1202393,-9.4656487,-7.7328243,-1.7404580
3160,13.4314032,-0.6416427,9.0117292,136.6106873,-44.0916023,-250.1374054,-2.5474176,1.7788827,10.1034794,-9.5343513,-8.8396950,-1.8320611
3170,9.8592720,-0.8738791,7.9846220,111.6488571,-52.2213745,-250.1374054,-2.4133430,1.9081690,10.0891142,-8.9923668,-9.6641226,-2.0152671
3180,9.5432396,-1.5274929,8.0875721,100.8931274,-74.8625946,-250.1374054,-2.3846128,1.9512644,10.1417866,-9.0000000,-10.4198475,-1.8778626
3190,8.5376797,-2.1499822,8.5759869,102.9618301,-87.9770966,-250.1374054,-2.3510940,2.0039365,10.2974091,-8.4351149,-11.2519083,-2.3435113
3200,6.8066807,-2.6934631,8.2886839,111.5954208,-98.7022934,-250.1374054,-2.3151813,1.9464760,10.2758608,-7.8778625,-11.3816795,-2.4503818
3210,5.2815819,-2.7844424,7.4986014,116.2824402,-107.7175598,-250.1374054,-2.2649033,1.8770446,10.2375546,-6.9618320,-10.7862597,-3.3893130
3220,3.9432299,-3.2656744,6.3182659,112.5267181,-111.2977066,-250.1374054,-2.1643472,1.8267666,10.3141680,-6.0152674,-9.7022905,-3.1832061
3230,2.9640064,-3.4452386,5.3821378,102.8320618,-98.4885483,-250.1374054,-2.2457497,1.8483143,10.3021975,-5.3893127,-7.7862597,-2.8015268
3240,1.4891858,-3.4596038,5.0158267,89.7938919,-88.1068726,-250.1374054,-2.2385671,1.7549409,10.2638903,-5.1526718,-6.0305343,-1.3740458
3250,-0.1316804,-3.5434003,5.7340837,81.8625946,-84.3587799,-250.1374054,-2.2074428,1.6328372,10.3381100,-4.6030536,-4.5801525,-1.7480916
3260,-1.4580613,-3.8905578,6.4834652,80.6259537,-83.4351120,-250.1374054,-2.2026544,1.6041069,10.2614956,-4.0839696,-3.7938931,-2.2366412
3270,-3.1459649,-4.2377152,7.5943689,86.1908417,-84.5419846,-250.1374054,-2.2529323,1.5011568,10.2064295,-3.6946564,-4.7557254,-3.2137403
3280,-4.3837609,-4.0868812,8.5161324,99.5572510,-86.0229034,-250.1374054,-2.2888451,1.5035510,10.1202393,-4.0992365,-6.6106873,-3.7709923
3290,-5.2408805,-4.0988522,8.9303265,117.0076370,-81.0534363,-250.1374054,-2.3654592,1.5011568,10.1178446,-5.0305343,-8.1297712,-4.9618320
3300,-6.5792327,-4.3837609,8.5281029,127.1832047,-63.6793900,-250.1374054,-2.5905130,1.4891858,10.0986910,-6.0152674,-9.2519083,-5.7557254
3310,-8.4586716,-4.6279683,8.7292147,135.7786255,-55.6106873,-250.1374054,-2.6958573,1.5442522,10.0651722,-6.9389315,-10.1679392,-5.5343513
3320,-10.9175043,-4.0102673,8.2551651,154.0305328,-111.8549652,-250.1374054,-2.7126167,1.6208663,10.2088242,-7.2824426,-10.7709923,-3.5725191
3330,-10.9127159,-2.8107784,8.1163025,161.7175598,-142.3129730,-250.1374054,-2.6455793,1.6328372,10.1082678,-7.6030536,-10.8396950,-2.4274809
3340,-12.4521790,-2.5809362,7.2280579,165.1374054,-151.4961853,-228.6793823,-2.5306582,1.6687500,10.0986910,-8.0839691,-10.9083967,-1.1908396
3350,-13.1010046,-3.7684543,6.0836353,158.6488495,-144.7022858,-180.0076294,-2.3917952,1.7357874,10.1441803,-8.8778629,-11.0610685,-0.8702290
3360,-14.1352949,-3.7876077,5.1451130,151.0152740,-117.6870193,-111.0610657,-2.2625091,1.6974803,10.1800938,-9.2442751,-10.9847326,-0.5419847
3370,-14.1424770,-3.6918402,4.4053087,144.4427490,-56.3358765,-34.1679382,-2.1020982,1.6807210,10.1561518,-8.9083967,-10.6335878,-1.2290076
3380,-12.8663740,-2.7844424,3.8833754,131.0305328,57.4122124,35.7022896,-2.0637913,1.6232605,10.2303715,-9.2290077,-10.8473282,-1.2137405
3390,-13.5606890,-2.4061604,3.2967989,114.8396912,145.7709961,112.8320618,-1.9991482,1.6735384,10.2519188,-8.7786255,-10.8396950,-1.3740458
3400,-13.7618008,-2.6455793,2.2146254,97.2290039,204.5648804,187.6259613,-1.9273225,1.6017127,10.3213511,-8.1908398,-10.0152674,-1.9236641
3410,-13.7163115,-3.4643922,1.6280488,73.4732819,250.1297760,250.1297760,-1.9823889,1.5466464,10.2878323,-7.8167939,-8.8702288,-2.7633588
3420,-16.7760849,-4.7189474,1.9392935,37.1526718,250.1297760,250.1297760,-1.9680238,1.5562232,10.2327662,-7.4503818,-7.7175574,-3.2290077
3430,-14.2837343,-5.7364779,-0.2873027,-0.2290076,250.1297760,250.1297760,-2.0230901,1.5466464,10.2016411,-7.4274807,-6.9541984,-3.2442749
3440,-15.4401274,-7.9199786,-0.2466015,-44.0534363,250.1297760,250.1297760,-2.1188576,1.5873476,10.1681223,-8.1679392,-7.7022901,-4.1450381
3450,-15.3323889,-10.6804790,-0.0550664,-81.1832047,250.1297760,250.1297760,-2.0613971,1.5993185,10.0795374,-9.0687027,-7.9847326,-4.1068702
3460,-14.7913027,-15.6101151,2.3175755,-105.1297684,250.1297760,250.1297760,-2.1451938,1.5705882,10.0101061,-9.6030531,-8.5801525,-4.8702292
3470,-10.3572636,-19.6131992,4.4986820,-116.3206100,250.1297760,250.1297760,-2.2481439,1.4173602,10.2040358,-9.8778629,-8.7480917,-4.9007635
3480,1.7956421,-19.6131992,6.2751703,-108.9389343,232.9694672,250.1297760,-2.3247581,1.3886299,10.2878323,-10.2748089,-8.0381680,-4.9770994
3490,19.6126022,-19.6131992,6.5121951,-111.1832047,250.1297760,250.1297760,-2.3223639,1.3287752,10.3476868,-10.4122133,-7.9312978,-4.7786260
3500,19.6126022,-19.6131992,6.4930420,-150.3511505,250.1297760,250.1297760,-2.4348907,1.2330076,10.3357162,-10.1297712,-8.2595415,-3.9541984
3510,19.6126022,-11.6980095,14.1137466,-173.3893127,250.1297760,250.1297760,-2.3271523,1.2689204,10.2878323,-9.3893127,-8.3587790,-3.7709923
3520,19.6126022,3.2441268,19.6126022,-144.5496216,250.1297760,250.1297760,-2.4516499,1.2018831,10.4386663,-7.8778625,-8.1374044,-2.8702290
3530,19.6126022,5.8346395,19.6126022,-9.7938929,-17.3206100,81.1374054,-2.4324965,1.2497669,10.4793673,-6.8702292,-8.5343513,-1.8931298
3540,19.6126022,2.1092808,17.5302544,123.2290039,-250.1374054,-148.1145020,-2.4229198,1.1899122,10.3979645,-5.9465647,-8.0305347,-1.0534351
3550,19.6126022,1.2186425,7.9606800,151.6946564,-250.1374054,-202.0534363,-2.3654592,1.2449785,10.3955708,-5.9847326,-8.7480917,-0.4198473
3560,11.0707321,2.8754215,4.2448978,117.7557220,-250.1374054,-148.2595367,-2.2744799,1.2856797,10.4171181,-6.0534353,-9.2977095,0.3587786
3570,9.9215212,3.6271970,2.3989778,74.0229034,-250.1374054,-56.7557259,-2.2337787,1.3982066,10.2902260,-5.8473282,-9.7557249,1.3511450
3580,10.6254129,5.1427188,0.9050036,26.0152664,-44.6488533,22.1221371,-2.0949159,1.3598996,10.3788109,-5.1603055,-9.7251911,2.0076337
3590,10.3165627,5.8226686,0.3327923,-17.8244267,139.1068726,67.5801544,-2.0422437,1.3910241,10.4099360,-3.7175572,-9.1221371,1.1374046
3600,9.4402885,5.6718349,1.6041069,-43.4122124,218.2824402,86.3206100,-1.9536586,1.3814473,10.4195127,-3.0916030,-8.9236641,1.0305344
3610,9.5528164,5.2217274,3.1411765,-49.0076332,221.0458069,89.1755753,-1.9321109,1.4604555,10.3620520,-3.4045801,-9.7938929,0.6793893
3620,10.3117743,4.8937230,3.6750808,-40.1755714,192.5267181,79.6564865,-1.7764885,1.4317253,10.2447367,-4.6335878,-9.5496187,0.2366412
3630,10.6302013,4.6710634,3.6487448,-27.8244267,156.0229034,62.0305328,-1.6926919,1.4987626,10.2040358,-4.6793895,-8.4656487,-0.0763359
3640,10.2806492,4.6207857,3.0071020,-18.9770985,135.4122162,45.1374054,-1.6855093,1.4077834,10.2303715,-4.4580154,-7.3893127,-0.8244275
3650,9.4594421,4.3574247,2.3295465,-16.1603050,122.7099228,30.8854961,-1.7286048,1.3670821,10.2231894,-4.4503818,-6.6030536,-1.6106870
3660,8.5400734,4.0844874,1.6208663,-18.8244267,106.5496216,20.7099228,-1.7693061,1.2856797,10.2112179,-4.8931298,-5.9923663,-2.4351146
3670,7.6494355,3.6271970,1.3000449,-28.1145039,96.6183243,14.5343513,-1.8435259,1.3024391,10.1800938,-5.6946564,-5.5496182,-3.1068702
3680,7.0820122,3.2177906,1.4269369,-39.9007645,86.7633591,14.4809160,-1.9105632,1.2138541,10.3069859,-6.1297708,-5.0305343,-3.9083970
3690,6.5002246,2.8251436,2.1188576,-47.6564903,68.8625946,18.4503822,-1.9057748,1.1132981,10.4075413,-6.0458016,-5.1145039,-4.0458016
3700,6.9239960,2.4013720,3.1339941,-53.5725174,55.4503822,24.5572510,-1.9776005,1.0318956,10.4530315,-5.6259542,-5.4274807,-4.6106873
3710,7.7332320,2.2792683,3.9073172,-58.5725174,51.2748108,30.1908398,-2.0877333,0.9696468,10.4865494,-4.6030536,-4.1908398,-5.5954199
3720,8.4897957,2.1882892,4.5130472,-60.0228996,53.1221390,33.3435097,-2.1475880,0.9672526,10.5057030,-3.5877862,-3.6259542,-5.6488547
3730,8.8561068,2.1068866,4.8242917,-58.2519073,52.6183205,33.9312973,-2.1954718,0.9648584,10.5104914,-2.5190840,-4.3282442,-5.0534353
3740,9.2583303,2.2218077,4.7237358,-57.5343513,58.0458031,33.6717567,-2.1475880,0.9385223,10.4745789,-1.3893130,-4.8854961,-4.4427481
3750,9.0955257,2.1571648,4.6399393,-59.1145020,67.3053436,33.7862587,-2.2601149,0.9720409,10.4219065,-0.5725191,-5.5725193,-4.9541984
3760,8.7148495,1.7022687,3.9480183,-66.1374054,62.6870232,34.7633591,-2.2170193,1.0486550,10.4027529,-0.8702290,-6.2671757,-4.4809160
3770,9.6988611,1.5274929,3.0047078,-81.0992355,58.5190849,35.8549614,-2.1164634,1.1396341,10.2447367,-1.0076336,-6.6106873,-3.8091602
3780,10.4482431,1.6376256,2.6958573,-105.1832047,56.9847336,33.4580154,-1.9943599,1.2114599,10.3524752,-0.6870229,-5.8778625,-3.2519083
3790,11.4107065,2.6096666,2.9376705,-130.3969421,72.3282471,30.9236641,-2.0063307,1.2234308,10.4458485,1.1908396,-4.5419846,-2.4961832
3800,12.3779593,2.6671271,4.1443419,-152.5954132,97.6412201,24.4351139,-2.1643472,1.3838415,10.3716288,1.3893130,-3.7709923,-1.6030535
3810,13.3667593,2.5785420,5.8585815,-165.1450348,104.7251892,12.8702288,-2.0877333,1.4436963,10.1178446,0.1221374,-4.2824426,-0.5801527
3820,14.7913027,2.3558824,7.4938130,-164.1755676,97.5419846,-6.6641221,-1.9321109,1.4293311,10.0771437,-1.7633588,-4.6412215,-0.3816794
3830,15.5765963,2.0230901,7.1969333,-153.2671814,92.8702316,-33.8702278,-1.8411317,1.4365137,10.1346035,-2.6870229,-4.8473282,-0.8244275
3840,15.0498753,1.6112895,6.5696559,-142.7404633,88.8320618,-59.6946564,-1.8459201,1.3910241,10.1178446,-2.9541984,-4.4427481,-1.2213740
3850,15.2797174,1.4508789,6.9599090,-133.5954132,62.8091621,-82.9160309,-1.7956421,1.3359578,10.1681223,-3.7557251,-4.6488547,-1.2748091
3860,16.0027618,1.4508789,8.1522150,-122.8167953,0.3740458,-114.9312973,-1.8578910,1.2497669,10.2758608,-4.8396945,-5.0916033,-1.8702290
3870,16.5749741,1.7166338,8.2623482,-116.1832047,-71.8702316,-156.3969421,-1.9560528,1.1348459,10.3644457,-5.8396945,-5.8091602,-2.2366412
3880,16.8311520,1.4700323,7.8697009,-120.6259537,-113.6259537,-196.3206177,-2.0039365,1.0342898,10.4003592,-5.8625956,-5.5954199,-3.4045801
3890,16.3690739,1.3311694,7.9199786,-131.5954132,-131.1908417,-224.8549652,-2.0757623,0.9241571,10.3788109,-5.6717558,-5.2061067,-2.3358779
3900,16.7186241,0.8643024,8.1977043,-140.8778687,-138.8625946,-250.1374054,-2.2289903,0.8978211,10.3381100,-5.9694657,-5.4045801,-1.5419847
3910,16.7473545,0.3375807,7.8697009,-143.9236603,-129.4122162,-250.1374054,-2.1715298,0.8666966,10.4290895,-5.9236641,-5.0992365,-1.5114504
3920,16.2948532,-1.0606259,9.1888990,-133.1297760,-123.6106873,-250.1374054,-2.1978660,0.8355721,10.4793673,-5.4961834,-5.0916033,-1.3282443
3930,16.3403435,-2.2888451,10.5535870,-112.7175598,-138.0610657,-250.1374054,-2.2361729,0.8762733,10.4243011,-4.7480917,-6.1145039,-0.9160305
3940,16.8359394,-2.6503677,11.9948893,-86.8778610,-163.0229034,-250.1374054,-2.2170193,0.8786675,10.2926207,-4.6106873,-6.3206105,-0.5038168
3950,17.0226879,-2.7844424,12.2989511,-62.2290077,-185.1526642,-250.1374054,-2.2313845,0.9696468,10.2638903,-4.8091602,-6.7480917,-0.6870229
3960,15.6412401,-3.1124463,12.2582502,-43.6870232,-193.9313049,-250.1374054,-2.1882892,1.0438666,10.2782555,-5.7709923,-7.4580154,0.4885496
3970,13.0866394,-3.0980811,12.2893744,-27.2595425,-207.1145020,-250.1374054,-2.0805507,1.1109039,10.2184010,-6.5648856,-8.6564884,0.8396947
3980,11.8392668,-3.0932927,11.5519638,-13.8778629,-232.9160309,-250.1374054,-2.0111191,1.0821736,10.5583754,-5.6030536,-8.5114508,0.8473282
3990,11.0539722,-2.6312141,10.2758608,-4.0687022,-250.1374054,-250.1374054,-1.8602852,1.0342898,10.6134415,-3.8473282,-8.2595415,1.1297710
4000,9.4881725,-2.0254843,8.6933022,0.1908397,-250.1374054,-250.1374054,-1.8961980,1.1228749,10.5895004,-2.7175572,-8.5267172,1.4503816
4010,7.8098459,-1.6328372,7.4626884,3.0916030,-238.3893127,-250.1374054,-1.8459201,1.2042773,10.5200682,-2.6259542,-8.7328243,1.3740458
4020,5.7723908,-1.4772149,6.1937680,4.4274807,-208.8396912,-250.1374054,-1.5873476,1.1851238,10.6038647,-2.1984732,-7.6641221,1.6183206
4030,4.0078731,-1.2090657,4.8745699,4.0839696,-176.9389343,-250.1374054,-1.3910241,1.1923064,10.6948442,-0.2595420,-5.1908398,0.9541985
4040,2.2242019,-0.8044477,3.7780309,0.7404580,-149.0763397,-250.1374054,-1.4077834,1.1803354,10.6804790,1.7633588,-2.3969467,0.5419847
4050,0.7302278,-0.3854645,3.6463506,-4.3358779,-123.4503784,-250.1374054,-1.4508789,1.1563935,10.6062593,2.6793892,-0.9694657,0.1297710
4060,-0.6392486,-0.2561783,3.8737986,-7.6106873,-98.6335907,-250.1374054,-1.3982066,1.1659702,10.5248566,2.6793892,-0.7328244,-1.0992366
4070,-1.9728121,-0.4716553,4.6112089,-8.7328243,-90.4351120,-250.1374054,-1.3551112,1.1659702,10.5272512,2.9083970,-0.0152672,-2.9083970
4080,-2.9999194,-0.5698171,5.1762376,-7.8320613,-92.2519073,-250.1374054,-1.5538290,1.1420283,10.4673967,3.5496182,0.9618320,-4.7175574
4090,-3.6966286,-0.3399749,5.3845320,-6.4961834,-90.2824402,-250.1374054,-1.6543850,1.3000449,10.3381100,3.6641221,1.2213740,-5.8167939
4100,-4.0557570,-0.1843526,5.7388721,-5.1450381,-78.2366409,-227.2519073,-1.8722562,1.2162483,10.3428984,3.3129771,1.6183206,-5.4809160
4110,-4.1994085,-0.1101327,6.2871413,-3.0610688,-62.2900772,-194.0076294,-1.9895715,1.2162483,10.3428984,3.0381680,1.9694656,-5.5038166
4120,-4.6686692,-0.2968795,6.5720501,-2.8167939,-47.3511467,-160.2519073,-1.9895715,1.1611819,10.2591019,3.0839694,2.1450381,-5.4885497
4130,-5.8825235,-0.4429250,7.3980455,2.1679389,-38.0152664,-120.6564865,-1.9967541,1.1803354,10.4793673,3.3435113,2.4656489,-4.6106873
4140,-6.5457139,0.1963235,8.5257082,-1.7328244,68.5572510,9.6335878,-1.8650736,1.1779412,10.2447367,2.7480917,3.5496182,-5.3358779
4150,-6.2440462,0.3639168,9.5432396,6.5496182,81.5343475,49.8778610,-1.8554969,1.1635761,10.2974091,1.9312977,3.7022901,-5.3511453
4160,-6.0812411,0.0550664,10.1920643,25.6259537,88.7022934,88.9618301,-1.8578910,1.1516051,10.2399483,1.8091604,3.4961832,-6.4503818
4170,-5.6191626,-0.2825144,10.5775290,53.9007645,94.9007645,129.3282471,-1.8004304,1.0582317,10.3668404,2.6183207,3.3511450,-7.0381680
4180,-4.8410511,-0.8355721,10.2040358,85.6030502,104.7175598,170.1908417,-1.8650736,1.1324517,10.2207947,2.0381680,2.0839694,-7.3816795
4190,-4.1658897,-1.4245427,9.5863342,116.3358765,125.8015289,212.3969421,-2.0135133,1.0845678,10.2495251,0.2366412,0.3511450,-7.7022901
4200,-4.3526363,-2.4947455,8.7387915,141.3511505,160.5496216,250.1297760,-1.9440818,1.0773853,10.1633339,-1.4732825,-0.0839695,-9.2519083
4210,-6.2033448,-4.4627690,9.3205795,161.7328186,207.3206177,250.1297760,-2.0111191,1.0223188,10.3357162,-1.7328244,-0.5496183,-9.6412210
4220,-8.5999289,-9.0332766,12.3612003,187.9541931,241.1297760,250.1297760,-2.2840567,0.8547257,10.2614956,-1.1450381,-0.0763359,-9.5190840
4230,-9.2224178,-14.8607340,16.5270901,231.3129730,250.1297760,250.1297760,-2.5258698,0.8738791,10.2231894,-1.0610687,0.1984733,-8.5419846
4240,-4.3813667,-19.6131992,17.9492378,250.1297760,250.1297760,250.1297760,-2.6024840,0.7661406,10.2351599,-1.4351145,-0.8244275,-8.1450386
4250,7.0987716,-19.6131992,14.4656925,250.1297760,250.1297760,250.1297760,-2.7820482,0.7086801,10.3069859,-1.5343511,-1.6564885,-7.5648856
4260,19.6126022,-19.6131992,6.5002246,250.1297760,250.1297760,250.1297760,-2.9376705,0.7374104,10.3069859,-1.0839695,-3.0687022,-6.7404580
4270,19.6126022,-19.6131992,2.1930776,250.1297760,250.1297760,250.1297760,-3.1004753,0.7182568,10.2758608,-0.8778626,-5.4732823,-4.0763359
4280,19.6126022,-19.6131992,4.4962878,207.2748108,250.1297760,250.1297760,-2.9256995,0.7733232,10.1561518,-1.3435115,-7.6488547,-2.5114503
4290,19.6126022,-6.7109132,10.0101061,208.7328186,250.1297760,250.1297760,-2.6910689,0.6919208,10.1130562,-2.1145039,-9.8473282,-0.4198473
4300,19.6126022,8.6741486,4.2712340,186.2290039,-5.3206105,242.0839691,-2.5498118,0.6560079,10.1417866,-2.7328243,-11.2137403,0.3435115
4310,19.6126022,5.2911587,-2.7341642,172.6641235,-100.3816757,-164.0152740,-2.4324965,0.7589580,10.1561518,-3.6488550,-12.9770994,0.9694657
4320,19.6126022,3.1100521,-1.5562232,125.3129807,-250.1374054,-250.1374054,-2.3079987,0.7781116,10.2471304,-4.5343513,-14.4656487,0.3206107
4330,8.5831690,0.6296718,0.8403605,100.7633591,-250.1374054,-250.1374054,-2.2361729,0.8236012,10.3548698,-5.1984735,-16.6717548,-0.0305344
4340,4.3382711,1.0989330,1.5203103,100.0534363,-249.1068726,-165.2290039,-2.2242019,0.9217629,10.3428984,-5.7557254,-18.8167934,0.2519084
4350,4.7141590,3.8043671,-0.3591284,99.5419846,-94.6488571,-60.2671738,-2.0613971,0.9720409,10.4482431,-5.6412215,-18.9694653,0.2366412
4360,7.8194227,5.6957769,-4.2784166,71.7709961,63.6946564,41.0839691,-1.9704180,1.0438666,10.6732969,-4.3587785,-17.6870232,0.7328244
4370,10.4697905,5.9064655,-4.8027439,39.0000000,171.2290039,102.2213745,-1.8554969,1.1492109,10.5320396,-1.6412214,-13.1221371,0.5190840
4380,11.9206696,5.8083038,-3.3710186,16.1603050,229.3511505,126.6488571,-1.8531027,1.2928623,10.4123297,-0.8702290,-12.3206110,1.6183206
4390,12.3540173,5.1762376,-1.9512644,4.6335878,243.3053436,120.6259537,-1.8578910,1.5274929,10.4506369,-1.7938931,-12.6870232,2.1755726
4400,11.4897156,4.3622131,-0.5961532,1.7633588,232.4961853,97.5190811,-1.5897418,1.4748207,10.3740225,-2.2519083,-11.4198475,2.0152671
4410,7.7643566,2.4612267,1.6376256,8.9389315,72.3206100,37.9007645,-1.2880739,1.5083394,10.4338779,-0.9923664,-6.1984735,3.1068702
4420,7.9367380,1.2042773,3.1914546,-32.7633591,4.4885497,49.3587799,-2.1164634,0.7254394,10.5200682,2.2290077,2.3206108,-7.4885497
4430,9.1266499,0.7900825,3.7876077,-33.2977104,42.1145020,81.6106873,-2.4396791,0.6536137,10.3357162,2.7404580,-1.0076336,-5.6412215
4440,10.3668404,1.0486550,3.8330972,-30.3358784,62.2366409,85.1068726,-2.4660151,0.8044477,10.2423429,2.3511450,-2.9618320,-5.0839696
4450,11.1018562,1.1324517,3.8929520,-29.3816795,76.2213745,83.0839691,-2.4348907,0.7900825,10.3069859,2.1755726,-4.3053436,-4.4274807
4460,11.9877062,1.2928623,3.9599893,-33.4580154,66.8702316,74.5419846,-2.3534882,0.7900825,10.3165627,3.0076337,-4.7938933,-3.9312978
4470,13.0938225,1.6495966,4.3310885,-41.7557259,40.8473282,56.8320618,-2.3989778,0.9696468,10.2662840,2.1984732,-5.6183205,-2.5267177
4480,14.3388004,1.5538290,4.9655490,-49.7709923,16.6259537,31.7862587,-2.3894010,1.0654143,10.1776991,0.7786260,-7.4198475,-0.9923664
4490,15.3012648,0.8643024,6.8066807,-49.0610695,-11.4656487,-25.0152664,-1.8794388,1.1707586,10.2375546,0.2442748,-6.9160304,-0.5801527
4500,15.1312771,0.8475431,7.5345144,-39.0076332,-22.7786255,-48.8931313,-1.8315549,1.2162483,10.3165627,0.4656489,-6.4580154,0.3282443
4510,14.6476507,0.9600700,7.7667508,-28.5877857,-39.4656487,-65.1603088,-1.7860653,1.2425843,10.3548698,-0.0458015,-6.0229006,0.4351145
4520,14.5399122,1.4987626,8.0325060,-19.2213745,-63.8931313,-72.9312973,-1.6735384,1.2377959,10.3069859,-0.9541985,-6.0229006,-0.2442748
4530,13.8647509,3.4380560,7.8242111,-11.6870232,-79.6717529,-71.1068726,-1.6208663,1.1300575,10.4027529,-1.1832061,-5.8931298,-0.8167939
4540,15.5071650,2.7150109,7.6997132,-10.2137403,-90.2061081,-68.3816757,-1.6472024,1.0702027,10.5368280,-0.8549618,-4.4427481,-1.4656489
4550,17.0155048,1.7214222,7.9127960,-10.8396950,-82.2442780,-73.7557220,-1.8722562,1.0678085,10.3668404,-0.6335878,-3.1755726,-1.9694656
4560,18.1862640,0.9935886,8.4850073,-13.4961834,-72.5877838,-91.4351120,-1.7501525,1.0342898,10.4721851,-0.6106870,-2.8702290,-2.0305343
4570,18.7225609,0.4022238,9.6390066,-10.7175570,-74.7633591,-122.5877838,-2.0183017,0.9504932,10.3812056,-0.4274809,-3.6641221,-2.8931298
4580,19.3522339,-0.1939293,11.5280218,3.4045801,-97.2442780,-162.8854980,-2.1619530,0.8547257,10.5655584,0.0381679,-3.8396947,-2.7709923
4590,19.2420998,-0.0670373,11.8057480,29.7175579,-119.1908417,-204.9236603,-2.2026544,0.8571198,10.4554253,0.5114504,-4.4122138,-2.0839694
4600,17.8845959,0.0957676,10.9510221,61.2519073,-136.8091583,-239.1297760,-2.2002602,0.8140244,10.4171181,1.0381680,-5.2977099,-1.4732825
4610,16.8526993,-0.5985473,9.7347746,85.3129807,-160.3816833,-250.1374054,-2.1475880,0.9026094,10.3548698,0.9618320,-5.3893127,-1.6488550
4620,15.6005383,-0.8283895,8.5448618,102.5648880,-193.1221313,-250.1374054,-2.1380112,0.9504932,10.3357162,0.9694657,-5.8625956,-0.5648855
4630,14.0921993,-0.6248835,6.9144192,111.4351120,-220.2519073,-250.1374054,-1.9871773,0.8690908,10.4530315,1.4961832,-5.6946564,-0.2442748
4640,13.1393118,-0.6536137,5.2959471,116.1832047,-233.3511505,-250.1374054,-1.9512644,1.0031654,10.3093796,1.5725191,-5.3511453,-0.0305344
4650,11.8392668,-0.3615226,3.8570392,116.0381699,-229.4656525,-250.1374054,-1.9129574,1.0582317,10.4147243,1.1832061,-5.9160304,-0.8167939
4660,10.5033092,0.2202654,2.8514795,112.2137375,-218.8091583,-250.1374054,-1.8961980,1.1851238,10.1800938,0.2061069,-6.5419846,-0.1526718
4670,9.4642305,0.4620786,1.8124014,107.5648880,-214.9084015,-250.1374054,-1.8052188,1.2641320,10.3524752,-0.8625954,-6.8854961,-0.0381679
4680,8.3557215,0.2633608,0.1699875,102.0076370,-196.9465637,-250.1374054,-1.6208663,1.1970947,10.3428984,-0.9770992,-6.5954199,-0.2595420
4690,6.4619174,0.2035061,-0.4309541,90.8778610,-179.0534363,-250.1374054,-1.5921360,1.2521610,10.3788109,-0.8396947,-5.4503818,-1.0839695
4700,4.3071470,0.1580165,-0.6392486,74.2290039,-185.3511505,-250.1374054,-1.6543850,1.2234308,10.3141680,-1.1984733,-4.6335878,-0.8778626
4710,3.1387823,-0.0143651,-0.6320660,56.9312973,-198.8167877,-250.1374054,-1.6328372,1.2234308,10.4195127,-1.4503816,-4.4045801,-1.0610687
4720,2.6862805,-0.2992737,0.0550664,44.6412201,-203.7633514,-250.1374054,-1.5729824,1.1228749,10.4266949,-1.6259542,-3.7709923,-2.7175572
4730,1.9632354,-0.4141948,0.7134684,40.5190849,-205.4580078,-250.1374054,-1.6519908,1.0486550,10.4171181,-1.4961832,-4.0687022,-2.7251909
4740,1.1755470,-0.3782819,0.7158626,40.9923668,-201.1755676,-250.1374054,-1.8124014,0.9840119,10.5320396,-1.1374046,-3.6564887,-3.3511450
4750,0.8858501,-0.6248835,0.7685348,45.4122124,-195.2442780,-250.1374054,-1.8674678,0.9600700,10.4889441,-0.3664122,-2.8015268,-3.7022901
4760,-1.0390782,-1.0438666,1.3431402,61.2824440,-199.8167877,-250.1374054,-1.7788827,0.9026094,10.5655584,0.2977099,-2.0000000,-3.7557251
4770,-3.3614421,-1.6065011,0.6464311,71.4580154,-199.1755676,-250.1374054,-1.8435259,0.8714849,10.5487986,1.7404580,-0.7099237,-4.0610685
4780,-6.2153158,-1.5658000,0.6033357,72.7099228,-187.5572510,-250.1374054,-1.9225341,0.8499373,10.4578199,2.9236641,0.7557252,-4.0763359
4790,-8.2958660,-1.2330076,0.3160330,53.9694672,-153.2442780,-250.1374054,-2.0206959,0.8930327,10.4386663,3.2213740,0.2748092,-3.9160306
4800,-10.0196829,-1.0127422,0.6631905,40.2213745,-141.5419922,-250.1374054,-1.9895715,0.9217629,10.4219065,2.8702290,-1.1908396,-4.7251906
4810,-10.8600435,-0.4165890,-0.2489957,31.1755733,-129.5572510,-213.2595367,-2.0590029,1.0079538,10.3955708,2.1450381,-2.4198472,-4.5801525
4820,-10.8169479,-0.0502780,-0.9073978,24.9083977,-106.9236679,-169.5954132,-2.0590029,1.0127422,10.3261395,1.4122137,-3.2290077,-4.0381680
4830,-10.6565371,0.1699875,-1.1659702,24.0763359,-97.4503784,-130.6412201,-1.9464760,1.0390782,10.3931761,1.4885496,-2.9007633,-4.1603055
4840,-10.7858238,-0.0047884,-1.1851238,26.9694653,-86.6641235,-91.1526718,-1.9871773,1.0941446,10.4314833,2.1068702,-2.5877862,-4.3282442
4850,-10.7163916,-0.3447633,-1.4221486,32.1297722,-74.9618301,-48.4351158,-2.0159075,1.0606259,10.3931761,2.4351146,-3.7709923,-4.3282442
4860,-10.3093796,0.0119709,-1.4939742,36.4961815,-51.4122124,-9.1068707,-2.1451938,1.1204807,10.4602137,1.6793894,-4.9312978,-3.5038168
4870,-10.8121595,-0.2681492,-1.7597293,37.1450386,-8.3587790,29.5801525,-2.0015423,1.0773853,10.3021975,1.7328244,-5.6564884,-3.3893130
4880,-13.4505568,-0.3136388,-2.3486998,33.3053436,40.8167953,79.8854980,-2.0254843,1.0079538,10.3309278,2.0152671,-4.8167939,-2.8778627
4890,-16.8981895,-0.9217629,-3.5434003,19.8931293,98.1908417,152.4885559,-2.0446377,0.9768293,10.3357162,2.3511450,-4.0229006,-2.5114503
4900,-19.5102501,-1.5298871,-4.2592630,-10.7251911,181.0992432,250.1297760,-1.9752063,0.9696468,10.3476868,2.1908398,-3.3664122,-1.0076336
4910,-19.6131992,-3.2656744,-3.9216824,-58.2213745,250.1297760,250.1297760,-1.9321109,1.0031654,10.3189564,1.9007634,-3.9465649,-1.7022901
4920,-19.6131992,-6.1722202,-1.2018831,-107.9923630,250.1297760,250.1297760,-1.8459201,0.9552816,10.3237448,1.1374046,-5.2595420,-0.8625954
4930,-17.5925045,-9.5815458,2.9640064,-146.1984711,250.1297760,250.1297760,-1.7693061,0.9744351,10.4650021,0.8167939,-5.8167939,-2.4961832
4940,-12.1720591,-15.1240950,6.8880830,-165.7786255,250.1297760,250.1297760,-1.7190280,0.9888002,10.3524752,0.5343512,-4.5801525,-2.8854961
4950,-2.6024840,-19.1415443,8.5520449,-173.2824402,250.1297760,250.1297760,-1.7836711,1.1539993,10.4243011,0.6793893,-4.2977099,-2.4580152
4960,7.2352405,-19.6131992,6.6247220,-185.2290039,250.1297760,250.1297760,-1.7477583,1.2042773,10.5033092,0.9160305,-3.8854961,-2.6641221
4970,16.2804890,-19.6131992,6.3781209,-220.4198456,250.1297760,250.1297760,-1.7621235,1.2306134,10.4841557,1.0839695,-3.3969467,-3.1297710
4980,19.6126022,-17.6403885,10.5440102,-250.1374054,250.1297760,250.1297760,-1.8124014,1.2952565,10.3931761,1.5114504,-2.7938931,-3.4045801
4990,19.6126022,-12.2726154,17.8774128,-250.1374054,250.1297760,250.1297760,-1.8315549,1.3096216,10.4697905,2.1374047,-1.3282443,-2.9618320
5000,19.6126022,-5.3270717,19.6126022,-232.5267181,250.1297760,250.1297760,-1.8243724,1.2689204,10.3285332,2.2519083,-1.0305344,-3.1526718
5010,19.6126022,2.5474176,19.6126022,-150.4580078,250.1297760,236.7709961,-1.8387375,1.3670821,10.2854376,1.8931298,-0.8931298,-2.3282442
5020,19.6126022,-1.0606259,19.6126022,-30.7022896,36.7022896,-92.3969498,-1.6807210,1.2880739,10.2950144,1.3435115,-0.5267175,-2.2442749
5030,18.5190563,-2.5043221,14.8703108,50.0763359,-250.1374054,-209.4809113,-1.6687500,1.1779412,10.3740225,1.7862595,1.0610687,-3.2290077
5040,10.1417866,-1.4580613,9.8018112,57.1603050,-250.1374054,-227.7633514,-1.7142396,1.0893562,10.3117743,2.1068702,2.0763359,-3.7099237
5050,6.7779503,0.3471575,7.8553357,37.2213745,-250.1374054,-193.2748108,-1.8554969,1.1324517,10.3117743,1.1755725,1.0152671,-4.5419846
5060,7.1873569,1.5681942,7.3764977,18.7175579,-250.1374054,-134.5572510,-1.8794388,0.9959828,10.2782555,-0.2671756,0.0305344,-4.8167939
5070,8.2479830,2.6982515,6.7444315,5.7328243,-250.1374054,-71.8473282,-1.7812769,0.9217629,10.4865494,-0.4045801,-0.6717557,-6.0229006
5080,8.5448618,3.3949606,5.9016771,-3.5725191,-106.0916061,-13.0152674,-1.8961980,0.8331779,10.3812056,0.0687023,-0.6946565,-7.5496182
5090,9.1338329,3.5194585,5.4180508,-5.7557254,106.1679382,71.2748108,-2.4468615,0.8331779,10.3716288,0.2290076,-0.4732825,-7.6564884
5100,9.8736372,3.4332676,5.4755111,2.0839694,145.6717529,85.6946564,-2.5881188,0.8786675,10.2136126,-0.6870229,-2.8549619,-6.4122138
5110,10.0005293,3.1699069,5.0301919,14.6870232,161.9618378,87.8549652,-2.6383967,0.8882443,10.1034794,-1.9694656,-4.7404580,-5.2366414
5120,10.0220766,3.1962428,4.4795284,30.7175579,152.4732819,82.6564865,-2.5857246,0.8283895,10.1489687,-2.5419848,-6.5343513,-3.7633588
5130,9.8018112,3.1004753,3.6463506,43.5725174,117.2442780,68.7862625,-2.6312141,0.8690908,10.1681223,-3.5343511,-7.6793895,-1.5877863
5140,9.6797075,3.1292057,2.3486998,50.5801544,72.1297684,49.5038185,-2.3822186,0.8499373,10.2519188,-4.2977099,-8.5648851,-0.4122137
5150,9.2391768,3.2489152,1.3072275,49.2671738,20.8625946,31.0458012,-2.2768741,0.8331779,10.2088242,-4.9847326,-9.6030531,-0.2900763
5160,9.4259243,3.3901722,0.7374104,40.4274826,-19.8702297,16.9847336,-2.2242019,0.8451489,10.4578199,-5.5725193,-10.9694653,-0.6030535
5170,10.0005293,3.5003049,0.2753318,30.0763359,-39.1526718,6.4351144,-2.1571648,0.9145803,10.5104914,-5.4885497,-12.2290077,0.1679389
5180,10.2830439,3.6846576,0.3112446,17.3740463,-46.4961815,-1.6870229,-1.9680238,0.9504932,10.6134415,-4.8778625,-12.8244276,0.3435115
5190,10.6182299,3.5386121,0.2322364,3.4961832,-45.4122124,-7.6564884,-1.8938038,1.0199248,10.6421719,-3.9770992,-12.7938929,0.3053435
5200,10.6158361,3.5098817,0.2753318,-8.0916033,-32.8015251,-9.2061071,-1.8554969,1.0390782,10.6661139,-2.8320611,-12.3816795,0.4045801
5210,10.1609402,3.3829896,0.5219333,-17.1221371,-15.2595415,-4.5801525,-1.6591733,1.0893562,10.6014709,-0.7862595,-8.2671757,0.5877863
5220,9.7251978,3.3710186,0.9911944,-24.9770985,-0.4274809,5.8625956,-1.7286048,1.2234308,10.7307568,1.0839695,-7.9236641,1.4045801
5230,10.5631638,3.2967989,1.7812769,-37.0763359,30.2061062,31.6641216,-1.5777708,1.3670821,10.5464048,3.1832061,-5.5190840,1.2519084
5240,11.4394369,3.1842721,2.1116750,-41.3206100,44.4274826,36.3129768,-1.4724265,1.4508789,10.3093796,2.4427481,-4.3053436,1.5267175
5250,12.1193867,3.2177906,2.2672975,-46.1526718,52.0076332,35.9465637,-1.1947005,1.4556671,10.2974091,1.7557251,-3.6335878,1.5877863
5260,12.7825775,3.2752512,2.5258698,-52.2824440,54.1145020,32.7480927,-1.1132981,1.4006008,10.3548698,1.3282443,-2.1221373,-0.1450382
5270,13.6803989,3.1770895,2.5354466,-58.6259537,57.3893127,27.4122143,-1.1875180,1.3838415,10.3428984,1.2061069,0.1297710,-1.7709924
5280,15.0738173,3.0741394,2.7030399,-62.0610695,69.7175598,18.9236641,-1.3191984,1.2880739,10.4003592,1.1832061,0.8854962,-2.8702290
5290,16.6539822,2.7102225,3.5673423,-61.2671738,90.8931274,-6.4656487,-1.5753766,1.2234308,10.4554253,0.6641222,0.6564885,-5.1679387
5300,17.3889980,2.4157372,3.9264708,-57.9847336,85.3587799,-21.3053436,-1.7621235,1.1037214,10.5655584,1.0992366,1.3969465,-6.1603055
5310,18.1910515,2.3870070,4.0054789,-53.9771004,82.2519073,-39.0763359,-1.9895715,1.0534433,10.4386663,1.7022901,2.4198472,-5.6946564
5320,18.4975071,2.5809362,4.8362627,-42.3664131,74.2748108,-87.0076370,-2.1978660,0.8714849,10.4697905,2.4427481,3.2824428,-4.5648856
5330,18.3299141,2.3056045,4.8961172,-36.1068687,56.5877876,-114.7251892,-2.2744799,0.7948709,10.4626083,3.0152671,2.3893130,-3.7786260
5340,1.2114599,0.8307837,4.8745699,26.9694653,-194.3664093,-250.1374054,-1.5083394,1.2114599,10.5583754,-0.8396947,-4.3587785,-3.5648854
5350,0.9265513,1.3191984,4.0222383,23.8778629,-181.8244324,-250.1374054,-1.6376256,1.0773853,10.4602137,-0.4427481,-3.3129771,-4.4503818
5360,0.6057299,1.9201399,3.2656744,16.0305347,-163.5572510,-250.1374054,-1.7190280,1.1156923,10.5583754,0.3740458,-1.8854961,-5.1374044
5370,-0.0909792,2.3127871,2.9903426,4.0458016,-146.9847260,-250.1374054,-1.8339491,1.0558375,10.5033092,0.3740458,-1.6793894,-4.5877862
5380,-0.7086801,2.3534882,2.9592183,-9.8549614,-129.7175598,-250.1374054,-1.9656296,0.9959828,10.4171181,0.4503817,-1.6412214,-4.5648856
5390,-0.9935886,2.6838863,3.5122759,-23.2213745,-117.6564865,-237.3969421,-2.1380112,0.9433106,10.4841557,1.1450381,-2.3511450,-4.9389315
5400,-0.8954269,2.7628946,4.5944495,-30.7404575,-109.1908417,-219.9007568,-2.1954718,0.9696468,10.3788109,1.4580153,-3.1679389,-3.9007633
5410,-0.9313397,2.7317703,5.3558016,-29.7099228,-97.0839691,-205.1450348,-2.2505381,0.9504932,10.5320396,1.5572519,-3.7786260,-2.7557251
5420,-1.2928623,2.7078283,5.8561873,-24.4198475,-83.8702316,-191.0305328,-2.1978660,0.8858501,10.3500814,1.7404580,-4.5572519,-2.0839694
5430,-1.7070571,2.6982515,5.8777351,-20.0076332,-71.0076370,-176.8244324,-2.2170193,0.9265513,10.3237448,1.6641221,-4.7404580,-1.9847329
5440,-2.2457497,2.6623387,6.0165982,-16.0305347,-51.7557259,-161.4503784,-2.1906834,0.9983770,10.3021975,1.3358779,-6.0763359,-1.4580153
5450,-2.7605004,2.4277081,6.0932121,-11.6870232,-28.6259537,-145.5343475,-2.0757623,0.9696468,10.2279778,0.8396947,-5.8473282,0.1679389
5460,-3.5577655,2.1212518,6.2584114,-5.8244276,-8.9923668,-127.8778610,-2.0925217,1.0366840,10.1346035,0.3053435,-5.5190840,0.0687023
5470,-3.9360476,1.8171898,6.5145893,0.9160305,7.0610685,-108.8396912,-2.0590029,1.0438666,10.1537571,-0.1374046,-5.7862597,0.4732825
5480,-4.3574247,1.6376256,6.6630292,9.8167934,27.7328243,-88.3206100,-2.0829449,1.1348459,10.2567072,-1.4809160,-7.6717558,1.3969465
5490,-4.8218975,1.5011568,6.4068508,19.6259537,53.7480927,-68.1374054,-1.8339491,1.2018831,10.2782555,-2.9618320,-9.2213745,1.5114504
5500,-5.4443870,1.1899122,6.0860295,26.9236641,71.7404556,-46.8244286,-1.8794388,1.2425843,10.3692341,-3.2824428,-9.5114508,1.2519084
5510,-6.1003947,0.8092360,5.5401545,33.4122124,84.6183243,-24.0534344,-1.7884595,1.2377959,10.3428984,-2.9618320,-8.5801525,2.0229008
5520,-7.5416965,0.6727672,4.7165532,46.3587799,115.5877838,30.1679382,-1.5681942,1.2425843,10.4769726,-2.7251909,-7.1221375,2.8015268
5530,-9.0931320,0.7158626,4.2209558,51.7480927,143.0763397,68.3282471,-1.4269369,1.2234308,10.5871058,-2.4809160,-6.0610685,1.6717557
5540,-11.8464499,0.6991033,3.5841017,55.9694672,170.8167877,122.1221390,-1.3144100,1.1276633,10.4793673,-2.5343511,-5.6030536,0.8167939
5550,-15.5981445,0.5195391,2.4540441,58.1832047,195.2442780,200.1832123,-1.3431402,1.0989330,10.5703468,-2.4351146,-4.3435116,-0.8625954
5560,-19.6131992,-0.1053443,0.9792235,52.6793900,206.7099304,250.1297760,-1.3814473,1.0749911,10.5990763,-1.6412214,-3.0763359,-1.7633588
5570,-19.6131992,-2.0230901,0.0191535,36.7862587,203.1603088,250.1297760,-1.3910241,1.0031654,10.7594872,-0.3740458,-2.7786260,-4.4045801
5580,-19.6131992,-6.0668759,0.5817881,7.1679387,216.3282471,250.1297760,-1.6615674,0.9504932,10.8456783,1.3893130,-1.7175573,-5.8549619
5590,-14.6452570,-10.9821472,3.2560976,-23.9083977,250.1297760,250.1297760,-1.8650736,0.8810617,10.7834291,3.4045801,-1.6335878,-6.7022901
5600,-8.4323349,-16.8742466,5.8921003,-47.6335869,250.1297760,250.1297760,-1.9967541,0.9026094,10.6517487,4.7175574,-1.2290076,-6.0229006
5610,-1.1109039,-19.6131992,7.6398587,-66.5954208,250.1297760,250.1297760,-2.0470319,0.9002152,10.5176744,5.7633586,-0.4885496,-4.5877862
5620,9.0691900,-19.6131992,7.9870162,-87.2290039,250.1297760,250.1297760,-2.0853391,0.8523315,10.4362717,6.1145039,-0.3587786,-3.5648854
5630,19.6126022,-19.6131992,9.8520899,-96.2671738,250.1297760,250.1297760,-2.0518203,0.9409165,10.3859940,5.9847326,-1.4580153,-3.0992367
5640,19.6126022,-19.6131992,13.9341822,-80.0152664,250.1297760,250.1297760,-1.9560528,0.9888002,10.2974091,5.7557254,-1.9923664,-2.3129771
5650,19.6126022,-11.4298601,18.7273502,-49.3740463,250.1297760,250.1297760,-1.8842272,1.0390782,10.1705170,5.0000000,-2.2900763,-1.9236641
5660,19.6126022,3.2537034,19.6126022,-10.0992365,250.1297760,250.1297760,-2.0230901,1.1659702,9.9981356,3.8091602,-3.2061069,-2.0916030
5670,19.6126022,2.8155668,18.5621510,44.2977104,236.5419922,103.0992355,-2.0135133,1.3646880,10.1441803,1.6106870,-4.7786260,-1.3969465
5680,19.6126022,-0.5913648,7.4171991,76.7099228,83.0305328,-77.4427490,-1.8866212,1.3311694,10.0579901,-0.2748092,-6.3969464,-1.6412214
5690,16.6108856,-0.4094064,2.2218077,51.2748108,-101.8320618,-156.1221313,-1.7621235,1.3479286,10.1705170,-1.2213740,-6.5267177,-1.1832061
5700,7.3621325,-0.5434810,1.9943599,3.2900763,-250.1374054,-151.8931274,-1.7238164,1.3886299,10.0843258,-1.3969465,-4.0839696,-0.9923664
5710,6.3589673,-0.0933734,4.0222383,-25.4351139,-250.1374054,-101.8854980,-1.7381816,1.3958124,10.2614956,-2.1755726,-2.9618320,-0.7404580
5720,8.6262646,1.2665262,5.4036856,-35.4656487,-250.1374054,-40.2595406,-1.7214222,1.3144100,10.2399483,-3.6183207,-3.1526718,-0.6106870
5730,11.2526903,2.5402350,6.0022330,-41.4274826,-133.0915985,9.5801525,-1.5753766,1.2521610,10.4506369,-4.2519083,-3.8778627,-1.1145039
5740,12.8280668,3.3327117,6.4140334,-48.5954208,0.4885496,40.8625946,-1.5729824,1.0462608,10.6254129,-4.1908398,-3.8854961,-1.5572519
5750,12.6676559,3.1770895,6.7707677,-53.1679382,106.2977066,57.6793900,-1.4939742,0.9792235,10.6541433,-3.2671757,-2.4503818,-2.8549619
5760,11.5830889,2.6838863,7.0197635,-48.7862587,161.3511505,66.8396912,-1.5298871,0.8643024,10.6900558,-1.8702290,-0.7480916,-3.8091602
5770,10.7762470,2.1284344,6.7492199,-39.7709923,176.6106873,72.6870193,-1.6639616,0.7541697,10.7858238,-0.0992366,-0.4503817,-4.7938933
5780,10.8815908,1.9225341,6.3972740,-29.7709923,162.8244324,72.3282471,-1.8650736,0.7158626,10.7211800,2.2213740,-0.5114504,-6.2213740
5790,11.4729557,2.1356170,6.0572991,-22.5725193,129.3511505,62.7786255,-2.0877333,0.6847382,10.5392218,3.4885497,-1.4580153,-6.7557254
5800,12.4162664,2.1906834,5.4874821,-18.4809170,92.1603088,46.4503822,-2.2936335,0.7326220,10.4003592,4.0610685,-2.1450381,-6.5496182
5810,13.3595772,2.4037662,4.9392128,-19.8473282,58.6870232,24.3511448,-2.3175755,0.8331779,10.2710724,3.7709923,-3.1984732,-5.7404580
5820,14.0491037,2.5522060,4.2161674,-28.2366409,30.4961834,-1.4045801,-2.3750360,0.8978211,10.1489687,2.8778627,-4.2290077,-4.1450381
5830,14.0443153,2.4372849,4.2257442,-40.7175560,0.7175573,-29.7251911,-2.2888451,0.9576758,10.0292597,1.6793894,-5.3969464,-2.6641221
5840,13.6253319,2.0733681,4.7165532,-55.6335869,-26.0610695,-55.8091621,-2.1116750,1.0247130,10.0460186,0.4198473,-5.7862597,-2.5038168
5850,13.2111378,1.7573351,5.4539638,-65.8854980,-37.3893127,-73.8015289,-2.0590029,1.0989330,10.2064295,-0.8854962,-7.1450381,-2.1984732
5860,12.5742826,1.3527170,6.5935979,-71.4580154,-38.4656487,-86.5572510,-1.9081690,1.2282192,10.2471304,-2.3206108,-8.4427481,-2.2442749
5870,12.0954447,1.1468167,7.5369086,-70.7862625,-36.9312973,-93.4580154,-1.7956421,1.2377959,10.3524752,-3.4351146,-9.5496187,-1.9694656
5880,11.9685535,1.0821736,8.2575598,-64.0992355,-31.0076332,-98.0610657,-1.5729824,1.3072275,10.5176744,-3.2366412,-9.1297712,-2.4503818
5890,11.9039097,0.8212070,8.3892403,-54.3511467,-23.4503822,-101.2213745,-1.5442522,1.2665262,10.6349897,-2.3129771,-8.0687027,-2.1984732
5900,12.1696653,0.8978211,8.0420828,-45.7404594,-21.9083977,-105.3969498,-1.4197544,1.3934183,10.7259684,-1.1984733,-6.0534353,-2.3129771
5910,12.6676559,1.0079538,7.8050575,-41.8778610,-26.4961834,-113.6106873,-1.2928623,1.3551112,10.5535870,-0.3358779,-4.3816795,-2.6488550
5920,13.2709923,1.0941446,7.8385763,-40.6412201,-30.5725193,-125.6870193,-1.3168042,1.2689204,10.5559816,0.3969466,-3.0229008,-2.9847329
5930,13.6133614,1.0749911,8.0875721,-37.9236641,-32.8702278,-140.9923706,-1.3790531,1.2665262,10.5655584,0.8931298,-1.5954199,-4.0381680
5940,13.4577389,1.1970947,8.4969788,-32.0076332,-35.0228996,-157.0992432,-1.4963684,1.1970947,10.4961262,1.0916030,-0.4580153,-5.2977099
5950,13.0603037,1.1468167,8.8034344,-22.6870232,-36.5572510,-170.8015289,-1.6328372,1.1276633,10.3859940,0.9007633,-0.0763359,-5.2595420
5960,12.8711624,1.2928623,8.8752604,-9.7328243,-38.7557259,-182.7786255,-1.8076130,1.1204807,10.4243011,0.7404580,-0.1374046,-6.0000000
5970,12.7370882,1.4508789,8.5185261,5.0763359,-40.3358765,-193.8702240,-1.9967541,1.0223188,10.4075413,0.5038168,-0.1221374,-5.8549619
5980,12.5479469,1.5921360,7.9295554,18.7862587,-45.4580154,-204.5496216,-2.1787124,0.9983770,10.2614956,0.7557252,-0.1374046,-5.5038166
5990,12.5216112,1.9991482,7.3262196,27.9389305,-54.5038185,-216.3358765,-2.1475880,0.8834559,10.3452930,0.5877863,-0.6488550,-3.9465649
6000,12.3181047,2.0757623,6.9479380,35.4045792,-68.8702316,-230.9236603,-2.1978660,0.8762733,10.5009146,0.8015267,-1.0305344,-3.5801528
6010,11.6453371,1.9608412,6.0596933,41.6030540,-80.9542007,-245.4961853,-2.2744799,0.8714849,10.4051476,1.4885496,-2.2137403,-3.3206108
6020,11.1377697,2.0039365,5.3845320,45.0763359,-86.7786255,-250.1374054,-2.2433555,0.8882443,10.3740225,1.6793894,-2.7786260,-2.2824428
6030,10.2327662,2.3606708,4.9679432,43.3816795,-93.5343475,-250.1374054,-2.2002602,0.9576758,10.3261395,1.5343511,-3.3053436,-0.5572519
6040,9.0500364,2.4516499,4.4005203,38.3511467,-95.4274826,-250.1374054,-2.0039365,0.9840119,10.2758608,1.4045801,-3.5114503,-0.8931298
6050,7.9247670,2.6000898,3.7373297,31.3129768,-95.1603088,-250.1374054,-1.9368993,1.0390782,10.2303715,1.2977099,-4.2900763,-0.6793893
6060,7.3501616,3.0023136,3.5601597,23.5725193,-88.6641235,-250.1374054,-1.9129574,1.1372399,10.1776991,0.5725191,-5.2213740,-0.2519084
6070,7.9630742,2.4708035,3.9935081,26.5496178,-58.0839691,-250.1374054,-1.8267666,1.2186425,10.1058741,-1.2595420,-6.1755724,-0.6488550
6080,6.0525107,2.8897867,4.6183915,42.4580154,-29.0229015,-250.1374054,-1.6783268,1.1875180,10.1202393,-2.5725191,-6.9618320,-1.3206106
6090,4.4484038,3.4979107,4.0892754,47.2748108,-30.7480907,-250.1374054,-1.7597293,1.1827296,10.1681223,-3.3893130,-6.7175574,-2.1603053
6100,3.6248028,3.8761928,3.4404502,44.6641235,-32.8778610,-250.1374054,-1.6926919,1.1827296,10.1657286,-3.9160306,-6.2061067,-1.7251909
6110,3.7301471,4.4364328,2.8682389,38.8167953,-30.0763359,-236.3816833,-1.7333932,1.1348459,10.3764172,-4.6946564,-6.0076337,-1.8702290
6120,3.3470769,4.9535780,2.5833304,28.4885502,-37.0381660,-219.9694672,-1.7309990,1.0702027,10.3859940,-5.0534353,-5.8549619,-2.4274809
6130,3.5888901,5.3222833,2.1068866,15.0534353,-43.8320618,-206.3511505,-1.8171898,0.9935886,10.4027529,-5.5114503,-6.2977099,-2.7328243
6140,4.1611013,5.2336984,1.9033806,3.3053436,-46.3129768,-198.2519073,-1.8531027,0.9385223,10.5272512,-5.3893127,-6.3206105,-3.0839694
6150,5.1379304,5.7843618,1.6543850,-7.7328243,-32.4427490,-198.0152740,-1.9656296,0.8786675,10.5703468,-5.0992365,-6.4198475,-2.6946564
6160,4.9224534,5.7316895,1.5634058,-19.4351139,-22.5648861,-202.8091583,-1.9081690,0.8212070,10.5751352,-4.0916033,-6.6564884,-3.4580152
6170,4.5130472,5.6167684,1.4269369,-32.0076332,-18.1297703,-208.0686951,-1.8961980,0.7781116,10.6900558,-2.8167939,-6.4503818,-4.0763359
6180,3.9144998,5.4108682,1.6759326,-44.4122124,-15.6106873,-213.3587799,-1.9991482,0.7805058,10.6038647,-1.6412214,-6.2290077,-3.5496182
6190,3.3231349,5.0828643,2.4468615,-52.7099228,-18.1755733,-218.2824402,-2.0853391,0.8259954,10.5727406,-0.7862595,-5.7480917,-3.2595420
6200,2.6695213,4.7811961,3.0597742,-55.0152664,-18.0992374,-222.2061005,-2.0254843,0.8451489,10.5344334,-0.1984733,-5.7328243,-2.1755726
6210,1.8602852,4.3933377,3.4763632,-54.8244286,-16.3664131,-225.3969421,-2.0590029,0.8475431,10.4769726,0.7480916,-6.7480917,-2.6717558
6220,1.3191984,4.0868812,3.6367738,-54.8702278,-15.6335878,-227.7022858,-2.0063307,0.8906385,10.4793673,1.2366412,-6.5496182,-1.6106870
6230,0.7158626,3.6415622,3.8714044,-53.8091621,-11.4503813,-231.6870270,-1.9943599,0.9480990,10.4578199,1.5877863,-6.4274807,-1.5114504
6240,-0.2274480,3.1315999,4.0677280,-52.1068687,-4.5572519,-235.5725250,-2.0302727,0.9840119,10.3524752,1.4198474,-6.7862597,-0.7404580
6250,-1.1994889,2.6312141,4.4364328,-48.3511467,3.6106870,-237.9465637,-1.8985922,1.0941446,10.3093796,1.3053435,-7.0839696,-0.3893130
6260,-2.4348907,1.8961980,5.0469513,-41.4351158,10.3129768,-239.4732819,-1.8028246,1.1156923,10.3381100,0.7938932,-7.5419846,0.8091603
6270,-4.6183915,2.0973101,5.4898763,-32.1297722,16.2442741,-233.8320618,-1.7621235,1.1516051,10.2878323,0.1297710,-7.6564884,0.9923664
6280,-6.2631998,1.8411317,5.5952206,-25.1374054,6.0000000,-218.4198456,-1.6232605,1.1994889,10.4338779,-0.6335878,-7.5648856,1.1450381
6290,-7.7045016,1.5705882,5.9471664,-19.0610695,-7.2366414,-197.3587799,-1.5729824,1.1827296,10.5009146,-0.6030535,-6.7480917,0.5572519
6300,-8.6980906,1.6304430,6.0213866,-12.4351149,-19.9007626,-169.7938995,-1.4556671,1.2354017,10.4793673,0.0076336,-5.8778625,0.5190840
6310,-9.0667953,1.8602852,5.9806852,-8.3816795,-25.5419846,-139.0839691,-1.3958124,1.3120158,10.5080976,0.4503817,-4.5572519,0.3587786
6320,-9.1434097,1.9536586,6.0022330,-6.3053436,-25.6641216,-107.4351120,-1.2569494,1.1755470,10.5009146,0.7099237,-3.5190840,-0.3664122
6330,-9.1817169,1.7812769,6.0118098,-6.1297708,-18.3664131,-75.8167953,-1.2904681,1.0965388,10.4314833,0.7328244,-2.0076337,-1.6183206
6340,-9.1338329,1.6974803,6.1219425,-5.9389315,-5.0229006,-45.0610695,-1.3742647,1.0438666,10.3117743,0.2977099,-1.6030535,-4.0076337
6350,-9.1721401,1.2952565,6.1578555,-4.9007635,11.3511448,-15.4656487,-1.6591733,1.0678085,10.5104914,-0.1984733,-1.7938931,-4.4274807
6360,-9.2966375,0.9911944,6.2081332,-4.4961834,27.1297703,14.3129768,-1.7812769,1.0462608,10.5799236,-0.5267175,-2.3740458,-5.6335878
6370,-9.3756456,0.5434810,6.0932121,-3.2977099,40.1450386,44.4045792,-1.8363433,0.9935886,10.4506369,-0.2213740,-2.0534351,-5.1221375
6380,-9.5959110,0.0766141,6.2033448,-0.7786260,48.7709923,75.0457993,-2.1332228,0.9002152,10.5057030,0.5496183,-1.6488550,-4.0152674
6390,-10.4626083,-0.6464311,6.3781209,1.8091604,50.2061081,106.4809189,-2.0637913,0.9193687,10.5320396,1.4045801,-1.3053435,-2.7175572
6400,-12.4545736,-1.1659702,7.4555058,5.4885497,41.1908379,140.2213745,-2.0877333,0.8283895,10.4817610,1.9007634,-1.7251909,-1.9312977
6410,-15.3802729,-2.0494261,9.7587166,19.5877857,28.9312973,189.4122162,-2.0997043,0.8427547,10.4362717,2.0839694,-2.3587787,-1.2213740
6420,-19.1702747,-3.4236910,12.1193867,49.2290077,17.3282452,250.1297760,-2.1619530,0.8499373,10.3835993,1.7251909,-3.3282442,-0.4809160
6430,-19.6131992,-8.3006544,14.1089582,96.6106873,35.7633591,250.1297760,-2.0087249,0.9241571,10.3045912,1.2213740,-4.3129773,0.1679389
6440,-19.6131992,-12.0164366,13.3883076,143.2366486,117.4427490,250.1297760,-1.8219782,0.9409165,10.2519188,0.7099237,-5.1145039,0.2061069
6450,-16.5103302,-16.8957958,9.8999729,154.8702240,246.8702240,250.1297760,-1.7764885,1.0414724,10.3333216,0.2137405,-6.0305343,-0.0381679
6460,-9.4115591,-19.6131992,6.5002246,118.4885483,250.1297760,250.1297760,-1.6280488,1.0797794,10.4410601,-0.4503817,-6.3740458,-0.2290076
6470,-4.9320302,-19.6131992,4.9535780,44.7633591,250.1297760,250.1297760,-1.4796091,1.1731528,10.3213511,-1.0305344,-6.1984735,-1.2671756
6480,-1.6950861,-19.6131992,6.5313487,-40.5496178,250.1297760,250.1297760,-1.3263810,1.1539993,10.4769726,-0.1374046,-4.9847326,-1.7557251
6490,3.2201848,-19.6131992,9.9813757,-112.8473282,250.1297760,250.1297760,-1.3622938,1.1923064,10.4793673,0.2900763,-4.1984735,-3.3587787
6500,18.5094795,-19.6131992,14.4225969,-138.6717529,250.1297760,250.1297760,-1.4843974,1.1923064,10.5535870,0.7175573,-3.5190840,-3.2137403
6510,19.6126022,-19.6131992,19.6126022,-100.9770966,250.1297760,250.1297760,-1.5107336,1.1947005,10.3955708,0.9465649,-3.0000000,-3.4198472
6520,19.6126022,-18.9452209,19.6126022,-11.7328243,250.1297760,250.1297760,-1.5322813,1.1444225,10.4458485,1.0534351,-2.6183207,-4.0763359
6530,19.6126022,9.4857788,19.6126022,57.4122124,181.8473358,250.1297760,-1.6280488,1.1468167,10.5751352,1.4732825,-2.2977099,-5.4656487
6540,19.6126022,5.4084740,17.7816448,110.3664093,58.4656487,-13.2900763,-1.7309990,1.0534433,10.5655584,2.2595420,-2.0763359,-4.9770994
6550,19.6126022,-0.4668669,3.7445123,111.1755753,-83.4503784,-188.1297760,-1.7860653,1.0414724,10.5152798,2.4885497,-2.0229008,-4.5572519
6560,9.0500364,-0.9241571,-3.0717452,37.8015251,-227.1755676,-192.0915985,-1.7645177,1.0007712,10.5392218,2.9389312,-1.7099236,-5.0076337
6570,3.3470769,-0.9983770,-0.2968795,-46.7175560,-250.1374054,-95.3129807,-1.8626794,0.9552816,10.5057030,3.4274809,-1.1221374,-4.5343513
6580,10.3740225,0.0790083,4.8075323,-76.8091583,-250.1374054,4.8244276,-1.8411317,0.9840119,10.4578199,4.1145039,-1.2137405,-4.4885497
6590,18.5262375,3.0908985,7.4650826,-80.7175598,-173.5038147,48.3664131,-1.8650736,0.9840119,10.4913378,4.3816795,-1.4656489,-4.6946564
6600,19.6126022,5.5760674,9.0452480,-81.1450348,-19.9160309,39.1221390,-1.7860653,0.9792235,10.2710724,3.9312978,-1.7175573,-4.1908398
6610,19.6126022,5.2504573,9.8856087,-72.1832047,102.4961853,2.7175572,-1.7190280,0.9385223,10.4027529,3.6259542,-1.9541985,-4.9770994
6620,16.7018661,3.6774750,9.5671806,-49.0916023,156.2977142,-26.4427490,-1.7501525,1.0318956,10.3333216,3.4656489,-1.7557251,-5.9312978
6630,12.1792421,2.4612267,8.0779953,-23.8549614,158.5648804,-38.0228996,-1.7980363,1.0725969,10.3381100,3.2900763,-1.4809160,-5.1984735
6640,8.7675219,1.8698620,6.1698260,-6.2824426,122.4580154,-41.2977104,-1.8411317,1.1851238,10.2231894,3.0916030,-0.8396947,-5.0992365
6650,5.9040713,2.0757623,4.2975702,6.9618320,-75.2061081,-33.3969460,-1.9416877,1.2928623,10.2279778,-0.9465649,-2.5343511,-3.2748091
6660,6.0620875,1.9560528,4.6519103,3.8320611,-90.1221390,-27.2977104,-1.8914096,1.2234308,10.2423429,-1.1450381,-2.2519083,-3.4580152
6670,6.1003947,1.7908537,4.9368186,2.1221373,-91.1068726,-19.6488552,-1.8100072,1.1156923,10.2160063,-1.4961832,-1.2595420,-2.8702290
6680,6.1746144,1.6424140,5.2672167,2.2748091,-85.5114517,-11.0305347,-1.7836711,1.1061156,10.3117743,-1.7633588,-1.0000000,-3.1603053
6690,6.2201042,1.4101776,5.4587522,4.2671757,-76.3816757,-1.9312977,-1.7908537,1.0031654,10.4434547,-2.3358779,-1.4045801,-3.2061069
6700,7.2591825,1.2784972,5.4012914,10.1068707,-45.5877876,17.9160309,-2.0494261,0.7924767,10.4434547,-2.9083970,-3.7480917,-4.5725193
6710,8.0348997,1.4484847,5.2743993,10.8473282,-25.9465656,25.3206100,-2.0637913,0.8331779,10.5080976,-2.6106870,-5.1221375,-4.6106873
6720,10.2734671,2.3917952,4.1706781,-1.6793894,36.0381660,29.3587780,-2.3774302,0.7541697,10.3476868,-0.8396947,-5.9236641,-2.6259542
6730,10.4314833,2.5378408,4.0174499,-11.2061071,46.6717567,24.4503822,-2.3032103,0.7805058,10.4003592,-1.0763359,-6.4732823,-1.0229008
6740,10.3357162,2.4540441,4.3095412,-20.3511448,52.0839691,20.0305347,-2.2864509,0.7230452,10.1968527,-1.4503816,-8.1832066,-0.7480916
6750,10.6110477,2.5091105,4.8721757,-25.6335869,51.8931313,16.5877857,-2.1715298,0.8212070,10.2447367,-1.9236641,-9.8244276,-0.0992366
6760,10.8480721,2.6144550,5.1690550,-27.3664131,47.4885483,13.3053436,-2.0805507,0.9002152,10.2854376,-2.8320611,-11.3053436,-0.3816794
6770,11.4681673,2.6312141,5.3773494,-26.8167934,40.1755714,8.0534353,-2.0973101,0.9169745,10.2614956,-3.1068702,-12.2671757,0.1450382
6780,12.2774038,2.8706331,5.3701668,-26.2137413,32.3816795,-0.4045801,-1.9895715,1.0342898,10.4650021,-2.9847329,-12.9236641,1.3435115
6790,13.0674858,3.1723011,5.1977854,-26.7480907,25.7175579,-10.8702288,-1.9991482,1.1420283,10.5942879,-2.5725191,-12.2061071,1.7022901
6800,13.7833490,3.3758070,4.9847026,-29.3969460,24.9541988,-24.9160309,-1.7070571,1.3383518,10.5751352,-1.5267175,-11.0076332,3.4732823
6810,13.9700956,3.3183465,4.8003497,-33.7480927,26.0534344,-41.2061081,-1.5346755,1.4317253,10.6254129,-0.5877863,-9.2748089,3.8167939
6820,13.6540623,3.1339941,4.7309184,-39.6183205,23.2824421,-57.6412201,-1.2784972,1.4724265,10.5607700,0.2442748,-7.2900763,4.2213740
6830,13.2350798,2.8538737,4.9176650,-45.9465637,13.3740454,-71.8167953,-1.0606259,1.4939742,10.5823174,1.2824427,-5.4122138,3.3587787
6840,13.3404236,2.7796540,5.1044121,-51.0076332,0.2671756,-84.6793900,-0.9648584,1.4939742,10.3620520,1.6259542,-3.5267177,1.9541985
6850,13.3787308,2.7820482,5.2839761,-55.9618340,-12.3740454,-98.3282471,-0.8092360,1.4796091,10.3620520,1.0839695,-2.1755726,0.7938932
6860,13.5104113,2.6575503,5.5114241,-61.2442741,-22.2442741,-111.6564865,-0.7852941,1.2928623,10.1178446,0.0610687,-0.8549618,-2.0000000
6870,13.7139168,2.5091105,5.8681583,-67.3816757,-32.2900772,-126.6412201,-1.0654143,1.1779412,10.2926207,-1.6030535,-0.6106870,-5.2061067
6880,13.7378588,2.4851687,6.3469963,-72.2061081,-50.5572510,-145.3435059,-1.2713146,1.1755470,10.3285332,-2.7786260,-0.8167939,-7.0381680
6890,13.6660337,2.2433555,6.9407554,-74.7099228,-75.6641235,-167.0229034,-1.6184721,0.9696468,10.4195127,-3.7175572,-1.1145039,-8.0534353
6900,13.6732159,1.9105632,7.5033898,-73.4961853,-97.8473282,-189.4656525,-1.9321109,0.8283895,10.5440102,-3.4503818,-1.2595420,-8.2061071
6910,13.3045111,1.6376256,8.1163025,-68.2442780,-117.8396912,-210.9236603,-2.0398495,0.7374104,10.6254129,-2.1832061,-0.6412213,-8.1068707
6920,12.6437149,1.3527170,8.5472565,-60.2213745,-134.4274750,-229.5038147,-2.1595588,0.6224893,10.6278067,-0.5038168,0.1374046,-7.0076337
6930,12.4234495,1.1779412,8.5520449,-50.9694672,-140.1068726,-243.1526642,-2.2553265,0.6368544,10.6828737,1.0916030,0.0687023,-6.3129773
6940,12.0403786,0.9073978,8.6454182,-42.3740463,-141.6183167,-250.1374054,-2.3846128,0.6153067,10.6445665,2.3664122,-1.3664122,-5.1908398
6950,11.3652172,0.9528874,8.5065556,-34.3664131,-149.4885559,-250.1374054,-2.3750360,0.6607963,10.4769726,2.4580152,-2.8320611,-3.8015268
6960,10.9342632,0.9864060,8.6765423,-27.0458012,-168.2519073,-250.1374054,-2.2960277,0.7134684,10.4410601,2.6183207,-4.1145039,-2.6412213
6970,10.7810354,1.0702027,8.8513184,-17.4198475,-189.7862549,-250.1374054,-2.1811066,0.8212070,10.4458485,2.1984732,-4.8549619,-2.4045801
6980,10.4147243,1.0199248,8.8465300,-5.7175574,-211.6183167,-250.1374054,-2.0542145,0.9073978,10.4506369,2.4732823,-5.1450381,-0.9923664
6990,9.5384512,0.9983770,8.4179697,5.2519083,-222.9770966,-250.1374054,-1.9057748,0.9217629,10.5128860,2.9618320,-5.0000000,-0.6030535
7000,8.6478119,1.0630201,7.4914188,12.0000000,-228.5801544,-250.1374054,-1.7022687,1.1085097,10.4075413,3.3282442,-5.6183205,-1.0152671
7010,8.1570034,1.2330076,6.8665352,13.9923668,-239.8549652,-250.1374054,-1.6184721,1.2234308,10.4219065,2.9847329,-5.4198475,-1.2977099
7020,7.7715387,1.4580613,6.6414814,13.3435116,-250.1374054,-250.1374054,-1.4987626,1.2138541,10.3093796,2.1679389,-5.0610685,-1.5343511
7030,6.9838505,1.4580613,6.7971039,14.0458012,-250.1374054,-250.1374054,-1.5322813,1.3144100,10.2854376,1.3511450,-4.5114503,-1.6412214
7040,6.0764527,1.4556671,6.9646969,17.2442741,-250.1374054,-250.1374054,-1.4939742,1.3311694,10.2423429,0.8778626,-4.0305343,-2.7175572
7050,4.7931671,1.3910241,6.8593526,21.4427490,-245.1679382,-250.1374054,-1.4820032,1.3766589,10.1896706,0.1145038,-4.2977099,-2.7099237
7060,3.8354914,1.5466464,6.3733325,24.7404575,-230.0305328,-250.1374054,-1.5538290,1.3024391,10.1920643,-0.9007633,-4.0305343,-3.0763359
7070,2.8969693,1.9895715,5.8418221,25.1832066,-214.2137451,-250.1374054,-1.5969244,1.2330076,10.3069859,-1.7099236,-3.8091602,-3.9160306
7080,1.8531027,2.1499822,5.2696109,22.9770985,-194.1603088,-250.1374054,-1.7166338,1.1539993,10.3572636,-2.4580152,-3.6488550,-4.3206105
7090,0.9624642,2.2265961,4.3095412,18.2442741,-159.4885559,-250.1374054,-1.7788827,1.0654143,10.4602137,-2.3740458,-3.6564887,-3.9465649
7100,-0.0933734,2.3151813,3.7085996,8.8320608,-128.6793823,-250.1374054,-1.8650736,0.9337339,10.4913378,-1.9694656,-3.3740458,-4.2671757
7110,-0.9361281,2.1691356,3.1603301,-3.3511450,-110.1374054,-250.1374054,-2.0087249,0.9457048,10.5607700,-1.1221374,-3.1297710,-3.2137403
7120,-1.5562232,1.9177457,3.0238612,-13.7709923,-98.3129807,-250.1374054,-2.1164634,0.8403605,10.5655584,-0.1832061,-3.0152671,-2.9770992
7130,-2.1763182,2.0925217,2.9640064,-21.0916023,-90.9694672,-241.5648804,-2.0470319,0.7733232,10.5416164,0.4580153,-3.4274809,-2.1908398
7140,-2.5378408,1.7621235,2.7557120,-27.8778629,-83.7786255,-230.3587799,-2.0494261,0.7805058,10.4530315,0.8473282,-4.3435116,-0.6793893
7150,-2.9089401,1.6088953,3.0214672,-34.6793900,-63.8702278,-216.0534363,-2.1092808,0.8379663,10.4913378,1.1374046,-4.4961834,-0.6335878
7160,-3.0262554,1.4580613,3.1339941,-41.1679382,-29.5419846,-200.9465637,-2.0374553,0.9121862,10.4386663,1.4503816,-4.3511453,0.2824427
7170,-3.5170643,1.1947005,3.5888901,-46.2290077,18.9083977,-185.4656525,-2.0398495,0.9193687,10.2902260,1.4961832,-4.7099237,0.6030535
7180,-5.0589223,0.9672526,4.3478479,-45.6564903,75.4885483,-165.9465637,-1.9752063,0.9720409,10.4266949,1.6946565,-4.9007635,1.5877863
7190,-7.8697009,0.9600700,4.8123207,-38.0610695,128.0763397,-138.6259613,-1.8195840,0.9864060,10.5296450,1.8625954,-4.5572519,1.0381680
7200,-12.3612003,1.4580613,5.5712790,-23.9541988,157.3206177,-96.1068726,-1.8411317,1.1037214,10.5631638,2.5725191,-4.0992365,1.9465649
7210,-17.5446205,2.2146254,6.5600791,-1.9618320,162.9618378,-30.9694653,-1.9584470,1.1683644,10.7618818,5.0381680,-1.6183206,4.0992365
7220,-19.6131992,2.4013720,7.1801744,28.9465656,149.4122162,65.7938919,-2.1212518,1.2761030,10.9941177,9.0992365,1.7709924,7.2900763
7230,-19.6131992,0.9744351,7.6566176,62.4122124,138.1984711,198.6793823,-2.3151813,1.2641320,11.6453371,15.2290077,8.3129768,11.6717558
7240,-19.6131992,-1.5514348,8.1426382,91.0992355,170.0839691,250.1297760,-2.3965836,1.2449785,12.0068598,24.4503822,14.5267172,15.4351149
7250,-19.6131992,-5.1834202,7.8864598,107.3969498,250.1297760,250.1297760,-2.1930776,1.1851238,12.0092545,33.7633591,22.3511448,18.1984730
7260,-16.0386753,-9.9502516,6.9982157,99.8473282,250.1297760,250.1297760,-3.0908985,1.2138541,12.6676559,42.1526718,34.8015251,17.7633591
7270,-10.2064295,-16.8359394,6.5074067,70.8167953,250.1297760,250.1297760,-5.3821378,1.2473727,13.8455973,57.2900772,39.4656487,27.7862587
7280,-4.2281384,-19.6131992,7.8768835,42.4198456,250.1297760,250.1297760,-6.4834652,1.5825592,14.6883526,75.9465637,57.7786255,48.9923668
7290,6.5935979,-19.6131992,7.8361821,23.1908398,250.1297760,250.1297760,-6.7396431,1.8578910,15.5622311,100.6335907,73.0000000,77.4427490
7300,19.6126022,-19.6131992,7.9319496,-3.6488550,250.1297760,250.1297760,-6.6151457,1.3096216,15.7513723,126.8015289,87.3053436,103.0839691
7310,19.6126022,-19.6131992,6.4810710,-42.8015251,250.1297760,250.1297760,-5.7436604,0.8451489,15.7106714,151.5877838,103.6564865,122.2748108
7320,19.6126022,-10.0532017,11.2119894,-73.1755753,250.1297760,250.1297760,-4.3526363,0.5985473,15.1504307,173.1221313,124.3282471,134.3435059
7330,19.6126022,5.5042415,19.6126022,-39.7175560,250.1297760,250.1297760,-3.3518653,-0.0861908,15.4999828,188.9770966,140.4580078,142.0915985
7340,19.6126022,4.3981261,16.2206345,51.0839691,36.0839691,48.8473282,-2.4636209,-0.7805058,15.7537670,202.7404633,138.9160309,144.2977142
7350,19.6126022,2.2002602,6.3924856,105.5267181,-250.1374054,-184.9160309,-0.8523315,-0.9193687,15.2270451,213.6412201,109.6641235,131.3969421
7360,15.6795464,0.8259954,1.7214222,96.6259537,-250.1374054,-250.1374054,0.9145803,-0.9768293,13.8360205,225.0915985,61.1374054,105.9542007
7370,8.0325060,1.3598996,1.5849534,65.4122162,-250.1374054,-209.9618378,2.4660151,-0.5291159,11.9805241,235.1450348,10.9312973,70.7099228
7380,7.2112985,2.3415172,1.6879035,36.5725174,-250.1374054,-112.1755753,3.0142846,-0.1795642,9.5839405,239.7633514,-23.2213745,26.7938938
7390,7.3669209,3.4500270,0.8834559,4.4122138,-95.3511429,-15.4885492,2.1236460,0.0430954,7.7260494,237.9084015,-74.5343475,-0.2824427
7400,5.9830794,4.1874375,0.5410868,-29.7938938,135.5801544,64.0992355,2.0494261,1.3000449,5.7987270,228.2977142,-116.3587799,-21.9389305
7410,5.8226686,4.2233500,1.7214222,-49.6641235,246.3358765,115.8167953,1.9321109,2.8323262,4.7620430,211.9084015,-125.9923630,-39.1145020
7420,7.0101867,3.7947903,3.3997490,-49.0076332,250.1297760,141.0229034,1.5562232,3.9552009,4.1922259,193.6030579,-116.7251892,-54.0916023
7430,8.1857338,3.2991931,4.5585365,-32.8167953,247.8931274,145.9389343,1.1611819,5.0230093,3.6271970,174.8854980,-103.6106873,-64.9007645
7440,9.9789820,3.0765336,5.4084740,-9.2900763,201.5954132,137.3816833,0.9744351,5.7771792,3.2967989,155.6946564,-86.7022934,-72.3435135
7450,11.0324249,2.9616125,5.1259594,15.8549614,162.7099304,121.5801544,0.5554519,6.1458845,3.0118904,136.9007568,-66.1984711,-77.3358765
7460,11.5711174,2.9807658,3.8211265,34.5572510,123.4961853,98.4885483,0.0407012,6.8401995,2.5569944,120.2290039,-40.1908379,-84.1374054
7470,11.3532467,3.0549858,2.4157372,41.8778610,81.9160309,73.4809189,-0.5099624,7.3046722,1.8100072,104.5038147,-11.3511448,-89.3816757
7480,10.6732969,2.8586621,1.2258250,37.8625946,43.0610695,51.8702278,-1.2737088,7.7595682,0.7421987,86.7480927,9.1526718,-93.0992355
7490,10.2112179,2.6383967,0.3974355,25.0610695,9.7175570,38.0000000,-1.7717001,8.0564480,-0.4333483,61.6259537,15.1908398,-92.0305328
7500,10.7283630,2.5737536,-0.1412572,5.4045801,-5.8320613,29.3358784,-1.9871773,8.1354561,-1.0199248,30.5267181,13.5954199,-90.9312973
7510,11.0420017,2.6575503,0.2059003,-16.5725193,-2.7022901,23.1221371,-1.9871773,7.8313937,-0.9648584,-4.0992365,3.4961832,-97.1755753
7520,10.9941177,2.4684093,1.1683644,-36.6183205,3.4809160,18.0763359,-2.1715298,7.3310080,-0.8690908,-37.8473282,-14.8091602,-106.6717529
7530,10.7977943,2.1380112,2.2888451,-50.3969460,9.2213745,12.9236641,-2.2026544,6.8138633,-0.5171449,-70.2137375,-36.2900772,-116.4885483
7540,10.2926207,1.8363433,3.2417326,-55.1526718,14.0916033,9.0305347,-2.5354466,6.3039007,-0.3974355,-103.2442780,-57.3893127,-124.6641235
7550,9.8113880,1.5179161,3.8761928,-53.0000000,17.7251911,8.1908398,-3.0214672,5.6383162,-0.1077385,-138.1068726,-72.6488571,-127.6564865
7560,9.3540983,1.2473727,4.0485744,-50.7557259,24.2519093,11.3358774,-3.5864959,5.5233951,0.7134684,-172.5801544,-84.9770966,-127.0305328
7570,9.8640604,1.4604555,3.9073172,-49.3435097,29.0076332,15.8167934,-4.5729017,5.3749552,1.4939742,-204.8854980,-107.2442780,-122.7099228
7580,10.5942879,1.5897418,3.5410061,-52.7633591,45.3358765,18.2290077,-5.1642666,4.3646073,2.3486998,-239.0610657,-134.5190887,-110.7099228
7590,11.2622671,1.4963684,3.1746953,-63.1221390,67.1221390,19.6641216,-5.3438311,3.7085996,3.5505829,-250.1374054,-154.8396912,-94.2061081
7600,11.8272963,1.1228749,2.8993635,-80.4732819,78.2595444,20.0687027,-5.1403246,3.3949606,4.8482337,-250.1374054,-165.3206177,-78.7251892
7610,12.6341381,1.7118455,3.0047078,-95.4503784,99.4961853,20.1679382,-4.8027439,2.7221935,6.6151457,-250.1374054,-154.0686951,-64.9083939
7620,13.2973280,1.9105632,3.6726866,-106.0305328,125.0229034,20.0992374,-4.6758518,1.4700323,8.5735922,-250.1374054,-126.8320618,-51.5725174
7630,13.8144732,1.8650736,4.8769641,-109.6946564,139.9160309,15.9923668,-4.7740140,0.4644727,10.4697905,-250.1374054,-101.8473282,-37.0458031
7640,14.8415804,1.4748207,5.6862001,-109.8549652,131.9770966,5.9312978,-4.6638808,-0.7302278,12.6197729,-250.1374054,-81.4885483,-20.5877857
7650,16.1607780,1.2042773,6.1434903,-110.2366409,122.3053436,-13.4580154,-4.1826491,-0.8499373,14.2741575,-250.1374054,-62.2977104,-2.4351146
7660,16.0338860,1.4987626,6.8018923,-110.5114517,102.3740463,-37.9160309,-3.5098817,-1.6472024,14.8679161,-250.1374054,-25.9465656,12.0305347
7670,16.8718529,-0.2609667,7.7619624,-109.0839691,73.8015289,-65.9694672,-3.3590479,-2.5785420,15.7681322,-250.1374054,5.7480917,26.0992374
7680,17.2022514,-1.0725969,8.9566631,-98.5419846,41.5267181,-91.3435135,-1.8674678,-2.9640064,15.2797174,-243.2061005,38.1297722,32.7938919
7690,17.8391056,-1.0390782,10.0077124,-77.5801544,24.2137413,-111.1679382,-4.3622131,-3.4045374,15.8686876,-217.9160309,12.8931293,40.0000000
7700,19.0218353,-1.0869620,10.4338779,-53.0916023,20.9160309,-132.4274750,-4.1275826,-4.5609307,16.6635590,-206.5572510,-53.4961815,39.8473282
7710,19.6126022,-1.2449785,9.9406748,-27.9236641,38.3893127,-163.8244324,-0.6272776,-4.9128766,16.5414543,-190.8549652,-98.8854980,31.1374054
7720,18.0881004,-0.8403605,8.7052727,-6.5496182,54.9618340,-203.5801544,0.5458752,-4.9751258,15.5957499,-151.4122162,-77.6106873,16.6183205
7730,15.9931860,-1.0606259,7.2639709,2.1679389,38.2290077,-241.1679382,0.4716553,-4.6878228,15.1480370,-101.4122162,-39.3969460,1.3664122
7740,14.5231533,-1.2713146,5.8490047,-4.3358779,-11.5343513,-250.1374054,-0.5386927,-4.5992379,14.8942528,-53.3053436,-33.8625946,-9.6870232
7750,13.4050665,-1.6855093,5.2696109,-23.8396950,-77.1068726,-250.1374054,-0.9888002,-4.0461802,14.2214851,-14.5725193,-20.2213745,-16.6641216
7760,12.2893744,-2.2433555,6.1051831,-47.6793900,-143.5954132,-250.1374054,-2.2768741,-3.2417326,13.7570124,14.9923668,-4.0229006,-18.4045811
7770,11.4466200,-3.0645626,7.6590118,-61.7938919,-190.2671814,-250.1374054,-3.1938488,-2.5857246,13.1081877,37.6564903,5.2519083,-15.9923668
7780,10.6565371,-3.5050933,8.9710283,-62.2977104,-210.3587799,-250.1374054,-3.7277529,-1.9871773,11.9733410,54.4885483,12.5725193,-9.7175570
7790,9.6797075,-3.4189026,9.7251978,-54.5954208,-209.7709961,-250.1374054,-4.0078731,-1.4389079,11.1808643,65.6793900,16.9541988,-3.1374047
7800,8.6597834,-3.1938488,9.5312681,-43.3740463,-196.4656525,-250.1374054,-4.1012464,-1.0103480,10.4721851,70.8702316,15.0534353,4.8778625
7810,7.5009956,-2.8634505,8.6741486,-34.7633591,-175.4885559,-250.1374054,-3.9575951,-0.5889706,9.5336628,69.7633591,13.1603050,13.9236641
7820,6.5481081,-2.2481439,7.9367380,-30.5496178,-150.5496216,-250.1374054,-3.8450682,-0.2011119,8.9135675,63.5190849,10.5190840,21.8854961
7830,5.5281835,-1.2425843,7.4626884,-26.4580154,-127.0763321,-250.1374054,-3.5936785,-0.0023942,8.4275465,54.8244286,2.8702290,28.7251911
7840,4.8889351,-0.5674229,6.7492199,-21.9465656,-107.0152664,-250.1374054,-3.2082138,0.1532281,8.3269911,42.1068687,-5.5648856,33.8320618
7850,4.6064205,-0.0957676,6.2608056,-16.8702297,-83.4274826,-250.1374054,-2.7245877,-0.0119709,8.3940287,28.4045811,-16.2290077,36.8396950
7860,4.4507980,0.2585725,5.8370337,-11.6259546,-62.1297722,-250.1374054,-2.0709739,-0.1843526,8.6095057,14.4885492,-26.4122143,36.8473282
7870,4.3382711,0.7613522,5.4156566,-9.5954199,-46.4198456,-250.1374054,-1.5897418,-0.2322364,9.0548248,1.6488550,-35.4122124,34.3129768
7880,4.0988522,1.5538290,5.1331420,-15.8167934,-45.2824440,-250.1374054,-1.1324517,-0.4237715,9.4378948,-8.5267172,-43.5954208,30.6030540
7890,3.8570392,1.9009864,4.9128766,-28.3129768,-47.1832047,-250.1374054,-0.8451489,-0.5626345,9.8664551,-15.6335878,-49.7404594,25.0992374
7900,3.3255291,2.2649033,4.9535780,-41.2061081,-37.0076332,-250.1374054,-0.4429250,-0.8643024,10.4075413,-18.7022896,-54.0458031,20.7709923
7910,3.4643922,1.6472024,5.5736732,-49.6412201,-17.2213745,-250.1374054,-0.2609667,-0.8810617,10.6230183,-19.0458012,-54.0000000,15.0534353
7920,2.4109488,2.3606708,6.3709383,-51.0992355,9.6793890,-250.1374054,-0.1699875,-0.9217629,10.8983507,-17.7709923,-52.1755714,10.1603050
7930,1.1755470,2.6623387,6.7228842,-48.4427490,29.3206100,-250.1374054,-0.1915352,-1.0869620,11.0922794,-15.3816795,-51.3664131,5.8931298
7940,0.3710994,2.6192431,7.0963774,-43.9160309,41.7709923,-240.9465637,-0.3399749,-1.1444225,11.1593170,-12.0381680,-48.3740463,1.6412214
7950,-0.5171449,2.5976956,7.4770536,-37.1603050,49.6335869,-231.4656525,-0.6440369,-1.0678085,10.8432837,-8.5190840,-43.7938919,-1.1908396
7960,-1.3982066,3.1076579,8.2048874,-25.1679382,56.2137413,-223.0839691,-1.0007712,-0.9217629,10.7546988,-6.0076337,-38.7938919,-2.0610688
7970,-2.5498118,3.4476328,8.5017672,-7.8854961,55.1068687,-212.7099304,-1.2761030,-0.8212070,10.5990763,-5.1297708,-35.0992355,-0.6030535
7980,-3.7014170,3.8857694,8.6047173,11.6412210,46.3511467,-198.7557220,-1.3742647,-0.7350162,10.5344334,-5.4274807,-32.4274826,1.7480916
7990,-4.2999644,4.2305326,8.1330614,31.0381680,38.6259537,-182.7633514,-1.4221486,-0.7134684,10.5942879,-6.1755724,-30.8625946,3.8015268
8000,-4.8386569,4.6279683,7.4291697,48.0381660,39.0228996,-164.5954132,-1.2737088,-0.7062859,10.5272512,-6.9389315,-27.9770985,7.9236641
8010,-5.4874821,4.8793583,6.6773944,60.1450386,48.5725174,-144.2442780,-1.0199248,-0.7613522,10.6804790,-6.8854961,-24.7251911,9.7786255
8020,-6.1027889,5.1068063,5.7292953,67.4580154,66.7480927,-122.3358765,-0.7565638,-0.7206510,10.7355452,-5.9007635,-20.1755733,11.4045801
8030,-6.2991123,5.1642666,4.9583664,70.0000000,81.0916061,-102.4732819,-0.6775556,-0.8140244,10.7714586,-4.6717558,-15.8473282,12.1755724
8040,-6.1865854,5.0876527,4.3909435,69.2671738,76.4122162,-89.9083939,-0.5722113,-0.8666966,10.9725704,-2.5725191,-13.6412210,11.7786255
8050,-6.3541789,4.8937230,4.1323709,70.9083939,62.5419846,-82.0763321,-0.3710994,-0.9504932,10.8408899,-0.2977099,-11.1145039,9.7328243
8060,-6.6750002,4.7141590,3.7349355,72.1755753,48.0458031,-74.7709961,-0.1963235,-1.0175306,10.8887739,1.8778626,-6.6106873,7.3358779
8070,-6.8545642,4.5178356,3.3039815,71.4809189,34.8931313,-66.3587799,-0.1292862,-1.0318956,10.7786407,3.4732823,-2.6335878,5.1526718
8080,-6.9239960,4.3382711,3.4021432,68.3664093,24.1984730,-56.3511467,-0.2537841,-1.0414724,10.8408899,4.8549619,-0.0305344,1.5877863
8090,-7.2280579,4.2496862,3.4619980,65.2824402,16.9236641,-45.3053436,-0.4094064,-0.9792235,10.8049774,5.9007635,2.2671757,-0.4351145
8100,-7.6063399,4.1754665,3.6415622,62.5648842,18.4351139,-30.9389305,-0.6631905,-0.9935886,10.5559816,6.5801525,3.1297710,-2.5648854
8110,-7.8697009,4.2233500,3.6990228,60.0458031,28.8778629,-13.3358774,-0.9648584,-0.9313397,10.5080976,6.6030536,4.3435116,-3.1984732
8120,-8.1665802,3.9025288,3.8833754,55.7938919,56.1221390,30.6717548,-1.4700323,-0.7805058,10.3979645,4.8167939,2.6641221,-2.1832061
8130,-7.9534974,3.5098817,3.8857694,54.2671738,68.9618301,54.5801544,-1.4460905,-0.7852941,10.3405046,2.8931298,-1.2824427,-1.0534351
8140,-7.8002691,3.1315999,3.7277529,51.9236641,79.9770966,77.3664093,-1.4700323,-0.7374104,10.4697905,1.5572519,-5.8091602,-0.3206107
8150,-7.3741035,2.4971397,3.5625539,48.1984749,85.6870193,98.5572510,-1.3814473,-0.7565638,10.5344334,0.9236641,-10.0000000,0.1984733
8160,-6.8234401,1.8411317,3.5194585,44.5190849,85.0305328,115.2213745,-1.5274929,-0.7685348,10.9079275,2.0152671,-12.5343513,1.6946565
8170,-6.3422079,1.1827296,3.7325413,42.7022896,75.8625946,128.6793823,-1.6160779,-0.8355721,11.2359314,6.2061067,-11.3664122,4.8549619
8180,-5.8825235,0.3471575,3.8809812,43.9618340,65.4732819,140.7862549,-1.5298871,-0.7733232,11.3747940,11.6412210,-6.4732823,8.6335878
8190,-5.8370337,-0.2944853,4.0294209,47.1679382,56.8702278,153.2671814,-1.1803354,-0.7062859,11.3580351,16.9465656,-0.0305344,11.1603050
8200,-6.0237808,-1.0654143,4.0581512,54.5114517,55.4045792,168.3740387,-0.9193687,-0.6512195,10.8384953,22.1145039,9.0610685,12.1984730
8210,-7.5321202,-1.9249283,3.6894460,60.0152664,62.4809151,195.0992432,-1.3168042,-0.5746055,10.8049774,25.6793900,14.7099237,12.9770994
8220,-10.0029240,-2.7772598,3.0478032,61.6717567,68.2213745,241.6488495,-1.1803354,-0.4453192,10.7786407,27.0381680,11.3511448,14.1526718
8230,-12.5407648,-4.1180058,2.5282640,59.6488533,72.3587799,250.1297760,-0.9050036,-0.4213773,10.4195127,26.3282452,12.6106873,14.0763359
8240,-14.6117382,-6.3374195,2.2936335,55.2519073,85.5267181,250.1297760,-0.8044477,-0.3639168,10.1944590,24.9541988,15.5038166,13.2671757
8250,-14.8631277,-9.5528164,2.7317703,41.1526718,121.0534363,250.1297760,-0.7541697,-0.3423691,10.0532017,22.7404575,16.1832066,11.3206110
8260,-13.8408089,-14.5518837,4.5657191,15.9770994,204.4580078,250.1297760,-1.0175306,-0.3830703,10.2160063,20.1068707,15.1984730,9.1221371
8270,-9.9143381,-19.6131992,7.3357964,-12.4809160,250.1297760,250.1297760,-1.0797794,-0.3663110,10.3620520,17.2900772,9.0381680,7.1832061
8280,-0.6799498,-19.6131992,9.9406748,-33.0763359,250.1297760,250.1297760,-1.0414724,-0.4692611,10.5392218,16.3206100,5.8167939,6.2137403
8290,14.4273853,-19.6131992,11.7363167,-52.5114517,250.1297760,250.1297760,-0.8331779,-0.7014975,10.6325951,16.9541988,1.2900764,3.9312978
8300,19.6126022,-19.6131992,14.3292236,-76.5419846,250.1297760,250.1297760,0.0215477,-0.8236012,10.5775290,19.0000000,-0.9618320,-1.0839695
8310,19.6126022,-19.6131992,19.6126022,-81.8778610,250.1297760,250.1297760,0.5889706,-0.6895266,10.4266949,20.6488552,0.7862595,-11.3969469
8320,19.6126022,-5.7819676,19.6126022,-28.6870232,250.1297760,250.1297760,0.4692611,-0.2346306,10.2279778,19.6793900,3.9770992,-22.7175579
8330,19.6126022,2.3941894,19.6126022,89.5954208,207.7557220,250.1297760,-0.2992737,0.2370248,10.1226330,14.6412210,5.4961834,-28.1450386
8340,19.6126022,1.5729824,7.2663651,156.6488495,-86.3129807,11.7709923,-0.9026094,0.2849085,10.1824875,8.5190840,4.7862597,-27.9007626
8350,19.6126022,1.8124014,-2.8634505,115.0610657,-250.1374054,-108.2748108,-1.3598996,0.2513899,10.1944590,3.6030533,3.7480917,-23.5725193
8360,13.5582952,1.5849534,-3.1148405,28.2900772,-250.1374054,-111.1603088,-1.4820032,0.0837966,10.2734671,0.6183206,4.6183205,-17.4961834
8370,14.9732609,0.9648584,1.3646880,-28.8015270,-250.1374054,-55.6793900,-1.6280488,-0.0790083,10.5895004,-0.7404580,7.7557254,-13.6488552
8380,18.8470592,1.6591733,5.6885943,-49.2137413,-250.1374054,-2.2366412,-1.7166338,-0.2346306,10.7211800,0.3053435,9.8396950,-10.5419846
8390,19.6126022,2.9400647,7.8385763,-50.7480927,-56.6946564,28.0687027,-1.7286048,-0.3256098,10.7355452,2.7251909,11.5954199,-9.6259546
8400,16.6731358,2.7269819,8.5424681,-35.8931313,121.2748108,44.0000000,-1.8411317,-0.1915352,10.6924505,4.5267177,13.0534353,-10.1068707
8410,13.7881374,2.4899571,8.0540533,-7.9083967,196.5114441,58.8320618,-2.1188576,-0.0263361,10.6206245,5.4732823,13.2977095,-9.7862597
8420,12.3444405,2.0613971,6.5121951,21.5343513,207.9694672,67.5343475,-2.2553265,0.0790083,10.4602137,4.9541984,10.1297712,-8.0229006
8430,11.3771887,1.8961980,4.6638808,45.3664131,179.6335907,68.7938919,-2.2601149,-0.0047884,10.3596573,3.6641221,5.6946564,-6.7786260
8440,11.3628235,2.6264257,3.1268115,57.7022896,135.7022858,63.4351158,-2.0925217,0.0000000,10.0986910,2.2748091,1.0763359,-5.5877862
8450,11.7339230,3.2872221,1.7142396,58.3053436,97.1755753,50.3053436,-1.9129574,-0.1580165,10.2207947,1.1068702,-4.0610685,-6.4274807
8460,11.5399933,3.5912843,0.7733232,49.8473282,70.8549652,32.2137413,-1.9632354,-0.2681492,10.2998028,0.1832061,-9.9923668,-7.1526718
8470,10.2950144,3.2752512,0.2657550,35.6030540,46.5190849,17.0152664,-1.8435259,-0.2346306,10.3955708,-0.3511450,-12.6335878,-8.6030531
8480,9.4546537,3.0454090,0.0957676,20.5496178,15.4122133,8.6870232,-1.8411317,-0.3854645,10.3955708,-0.8473282,-13.2137403,-9.1908398
8490,8.9614515,2.6767037,0.4644727,4.3816795,-10.2519083,5.4732823,-1.8866212,-0.4405309,10.4817610,-1.2137405,-14.5343513,-8.4961834
8500,9.0284882,2.1739240,1.2401901,-8.2366409,-27.4656487,3.7557251,-2.0159075,-0.4668669,10.5248566,-1.6030535,-12.9770994,-4.4885497
8510,9.3110027,2.0637913,1.8459201,-18.6870232,-34.4427490,3.7022901,-1.9632354,-0.5267217,10.7379398,-0.4961832,-13.5190840,-2.0839694
8520,9.6102762,1.9608412,2.4301023,-26.6870232,-31.3587780,3.6106870,-1.9009864,-0.6392486,10.6565371,0.9923664,-13.7862597,1.8778626
8530,9.9502516,1.6400198,3.0334380,-29.5419846,-23.7786255,4.7938933,-1.6759326,-0.6631905,10.5727406,2.1526718,-13.9007635,3.1908398
8540,10.2279778,1.6400198,2.9041519,-28.6335869,-7.3435116,7.5877862,-1.4772149,-0.4860204,10.5248566,2.7022901,-12.8320608,4.7557254
8550,10.5440102,1.7764885,2.6168492,-29.9160309,16.7786255,8.8549614,-1.3838415,-0.2513899,10.6589317,2.8702290,-11.1297712,4.8015265
8560,10.5871058,1.7405758,2.3726418,-36.9236641,34.9160309,9.1297712,-1.3144100,-0.1508339,10.6517487,3.3129771,-10.0992365,5.4732823
8570,10.6924505,1.5729824,2.3439114,-47.0916023,53.5038185,10.0305347,-1.1683644,-0.0143651,10.7499104,4.2595420,-8.4427481,6.0000000
8580,11.3819771,1.1947005,3.1196289,-74.9694672,94.9389343,4.5801525,-0.8523315,0.4644727,10.8552551,8.4961834,2.5267177,5.5496182
8590,11.5519638,1.1348459,3.4284792,-82.6259537,99.1221390,-1.7175573,-0.6799498,0.5506636,10.8504667,10.0381680,6.8549619,5.1526718
8600,11.5615406,1.0295014,4.0246325,-89.2290039,103.0992355,-8.8167934,-0.6943150,0.4908088,10.6373835,11.0381680,10.8854961,3.9770992
8610,11.7099810,0.9959828,4.5058646,-94.1221390,98.6641235,-14.8091602,-0.7852941,0.4501076,10.4889441,11.0152674,13.2519083,2.1908398
8620,12.2845860,1.0175306,4.9368186,-97.7099228,92.5496216,-21.9083977,-0.9121862,0.3471575,10.3788109,10.1450386,13.4351149,-0.3969466
8630,13.2255030,1.1420283,5.2001796,-100.3893127,92.7938919,-30.8320618,-1.0606259,0.2322364,10.2686787,8.6106873,11.6564884,-2.6717558
8640,14.0227680,1.1061156,5.2073622,-104.9770966,94.8549652,-44.0763359,-1.2521610,0.0407012,10.1992474,6.5114503,8.9770994,-5.3816795
8650,14.7673607,1.2377959,5.4946647,-111.8549652,90.1374054,-60.8549614,-1.4628497,-0.0837966,10.0723553,4.1145039,7.3435116,-7.8473282
8660,15.4568872,1.2641320,5.8944945,-121.2824402,80.1603088,-83.2748108,-1.6663558,-0.1292862,9.8951855,0.7328244,6.4580154,-8.7175570
8670,15.4712524,1.5227045,6.2919297,-131.9313049,67.5343475,-106.2671738,-2.1715298,0.0430954,9.8137827,-3.4503818,0.3587786,-8.6870232
8680,16.8598824,0.1388630,6.8809004,-140.1603088,58.4580154,-132.3740387,-2.3917952,-0.1364688,9.7347746,-8.5190840,-5.4427481,-6.9847326
8690,17.3171730,-0.5315101,7.8529415,-140.8167877,62.6946564,-165.4045868,-2.6336083,-0.3112446,9.3517036,-15.2671757,-9.3435116,-3.4427481
8700,16.9101601,-0.5075682,9.0667953,-133.6946564,67.2519073,-197.3816833,-2.5976956,-0.3088504,9.0931320,-23.5419846,-12.0305347,-0.4198473
8710,16.5294838,-0.8499373,9.4331064,-122.9770966,59.9007645,-228.8396912,-2.6838863,-0.1795642,8.6813307,-34.4198456,-16.4732819,3.0687022
8720,16.3259773,-1.5993185,9.6270361,-112.7557220,38.9618340,-250.1374054,-2.5976956,-0.0287303,8.5616217,-47.6717567,-25.9847336,5.9541984
8730,15.9429073,-2.4229198,10.4721851,-101.4274826,7.5419846,-250.1374054,-2.6000898,0.0047884,8.5041609,-61.6793900,-39.5801544,7.0916033
8740,16.2134514,-3.3686244,12.0260134,-85.3053436,-19.4198475,-250.1374054,-2.7509236,0.1053443,8.7196379,-75.0457993,-52.4580154,9.0916033
8750,16.0290985,-3.8594334,12.8591919,-62.6488533,-21.6946564,-250.1374054,-2.9520357,0.0598547,9.2415714,-87.0076370,-64.3511429,13.4351149
8760,14.4632988,-4.7045822,13.2159262,-35.8320618,-10.7251911,-250.1374054,-3.1339941,-0.3878587,10.0029240,-93.3053436,-78.8015289,20.7175579
