timestamp,rxacclX,rxacclY,rxacclZ,rxgyroX,rxgyroY,rxgyroZ,txacclX,txacclY,txacclZ,txgyroX,txgyroY,txgyroZ
0,-2.4229198,11.7578640,-9.7898407,66.8167953,-133.6030579,12.9160309,2.1092808,6.4020624,7.1083484,-10.3358774,-27.1068707,-27.3358784
10,-3.3925664,10.7307568,-8.6502066,51.7404594,-129.9236603,21.2366409,1.6280488,6.2584114,7.5105724,-11.5801525,-28.9007626,-28.4045811
20,-3.4811516,9.9454632,-7.1658092,47.8167953,-131.1755676,33.0152664,1.4413021,6.0118098,7.4626884,-13.0534353,-28.8320618,-27.2061062
30,-3.5529771,9.1051025,-5.2169390,55.6946564,-132.4274750,44.8778610,1.3958124,5.9854736,7.5800037,-14.9083967,-25.0000000,-25.4656487
40,-3.2058196,8.4634600,-4.4507980,71.2595444,-124.8702316,55.2061081,1.3622938,5.7029591,8.1498213,-14.9694653,-23.1526718,-23.7938938
50,-3.3973548,7.8577299,-3.9815371,86.0305328,-107.0076370,66.6030502,1.3622938,5.3629842,8.6166878,-13.0839691,-22.7404575,-22.9160309
60,-3.2560976,7.3310080,-4.3263001,98.1068726,-86.6488571,77.8015289,1.3694763,5.1594782,8.7196379,-9.1679392,-21.7251911,-23.3969460
70,-2.8347204,6.8785062,-5.0732875,100.8854980,-68.5954208,87.5648880,1.2330076,5.0900469,8.5903521,-5.7480917,-18.0229015,-24.1526718
80,-1.3239868,6.1291251,-5.0684991,101.0457993,-49.6641235,85.4122162,0.9097920,5.1666608,8.5233145,-3.3282442,-11.2061071,-23.4656487
90,-0.2992737,5.1762376,-5.4802995,96.5572510,-30.4732819,73.2671738,0.4237715,4.9823084,8.3198080,-0.9236641,1.0534351,-21.6183205
100,-0.6416427,3.7756367,-5.3462253,81.9923630,2.8320611,57.6717567,-0.2274480,4.8218975,8.0468712,-0.1908397,17.4885502,-18.7786255
110,-0.1125269,1.1803354,-3.8546450,66.9236679,34.0687027,42.0000000,-0.9385223,4.8171091,8.0420828,-0.5877863,33.7022896,-14.1526718
120,-1.5322813,-2.5761478,-2.7676830,56.0000000,46.4656487,40.0305328,-1.4245427,4.9296360,8.3389616,-0.3282443,46.6259537,-7.7633586
130,-1.7788827,-6.8258343,-1.2066715,47.7404594,53.4809151,61.2519073,-1.8866212,5.0373745,8.7770987,3.7633588,58.9847336,-3.1603053
140,-0.5626345,-10.8504667,0.7852941,44.5267181,69.1526718,107.3435135,-2.4109488,5.4635406,9.2008705,10.1297712,71.3816757,1.7404580
150,2.4324965,-12.8998928,2.2026544,44.6793900,110.0076370,174.6793823,-3.1794837,5.9806852,9.1242561,15.6870232,79.2595444,7.4885497
160,9.0452480,-14.0347385,1.0558375,34.9160309,186.6259613,238.0152740,-3.7493007,6.2727766,9.0955257,19.2595425,81.8320618,17.3129768
170,18.3538570,-13.6420918,1.1420283,13.4809160,250.1297760,250.1297760,-4.1539187,6.9024482,8.7770987,20.6106873,85.7786255,29.3740463
180,19.6126022,-10.6517487,2.9568241,7.0839696,250.1297760,250.1297760,-4.1658897,7.4291697,8.3820572,19.6335869,96.2061081,42.5801544
190,19.6126022,-4.5585365,3.3949606,25.6641216,250.1297760,204.7404633,-4.2018023,7.6159167,7.7092900,16.4503822,117.3587799,57.3893127
200,19.6126022,2.6814921,-1.2761030,31.3664131,204.9847260,132.9007568,-4.3885493,7.4339581,7.9367380,12.6030531,141.7480927,73.1832047
210,19.6126022,9.8688488,-6.3709383,-8.9770994,100.9694672,50.5343513,-4.5393834,7.1969333,8.4012108,10.2977095,159.3816833,87.8015289
220,19.6126022,11.3388815,-4.4938936,-76.6412201,14.9847326,-56.8244286,-4.6159973,6.9982157,9.5169029,13.8931293,159.9694672,102.2900772
230,19.6126022,6.3876977,2.8323262,-119.4961853,-8.9083967,-184.2671814,-4.5705075,6.5744443,10.6110477,23.1984730,155.1221313,118.5725174
240,19.6126022,0.1029501,5.5042415,-132.7328186,55.5343513,-250.1374054,-3.6559272,6.9407554,11.1521349,34.6793900,166.3587799,125.2290039
250,19.6126022,-5.4731169,3.8905578,-133.4045868,146.6335907,-250.1374054,-3.2106080,6.5289545,11.0324249,46.7022896,166.9465637,124.6870193
260,14.9995966,-8.4155760,0.5267217,-127.2824402,200.2519073,-250.1374054,-3.7780309,4.9942794,10.1274214,56.5725174,139.8473358,134.8778687
270,8.6238708,-8.7651272,-1.7597293,-120.4503784,206.0076294,-250.1374054,-2.4803803,7.0484939,9.9502516,59.4045792,128.8778687,140.6793823
280,5.4611464,-6.8186517,-2.6719155,-108.2442780,191.5725250,-250.1374054,-1.0247130,7.4962072,8.9973640,47.4961815,150.9694672,126.5496216
290,5.1259594,-4.1084290,-3.3039815,-92.6717529,163.5648804,-250.1374054,-1.2090657,6.5864153,8.7723103,36.8549614,151.0534363,112.3358765
300,5.5473371,-1.2808913,-4.7524662,-88.9847336,142.2366486,-246.8778687,-1.2737088,5.9711084,9.6366129,34.3969460,144.8549652,107.3129807
310,4.6902170,1.8578910,-6.7444315,-106.8167953,148.2442780,-234.4274750,-0.5075682,5.9567432,10.8289185,42.6717567,155.7938995,109.0763321
320,3.2584918,3.3853838,-6.6702118,-131.0229034,170.0000000,-223.2290039,0.3734936,5.7819676,11.2526903,58.6870232,179.4045868,111.6641235
330,-0.1268920,6.6989422,-5.7388721,-139.8931274,195.7862549,-205.2061005,1.0175306,5.6790175,11.4442253,76.6183243,206.6412201,112.5267181
340,-2.8419030,9.2774839,-3.9432299,-122.3511429,187.2137451,-175.5877838,1.4676381,5.8154860,11.6070309,94.3129807,236.2824402,111.2977066
350,-3.9288650,11.3652172,-2.5186872,-87.2748108,144.7786255,-134.7099304,1.4029950,5.8873119,11.4442253,112.7862625,250.1297760,111.8167953
360,-2.3079987,13.2662039,-2.8514795,-54.3129768,92.2442780,-96.4961853,1.2449785,6.3446021,10.6302013,126.5343475,250.1297760,109.0000000
370,0.3471575,16.3475246,-2.8634505,-30.8625946,48.9923668,-69.5801544,1.4269369,6.6031747,9.3062143,129.0763397,250.1297760,102.7175598
380,2.7748656,17.8606529,-2.7748656,-10.3053436,23.2213745,-61.5038185,1.3766589,6.9838505,8.3796635,120.9312973,250.1297760,95.8320618
390,3.7540891,18.4424419,-3.0693510,6.6030536,4.5801525,-65.1755753,1.4987626,7.2998838,7.6661944,105.7404556,231.6870270,89.4656525
400,3.9360476,19.0002880,-2.8897867,24.9541988,-8.1984730,-66.1755753,1.7046629,7.4794478,7.2735476,86.7557220,196.5572510,82.5801544
410,3.8115497,18.6435528,-3.1651185,45.3282433,-30.0458012,-69.2748108,2.0805507,7.6614060,7.1753860,66.0076370,162.4580078,75.0229034
420,3.7157819,17.6571465,-4.2448978,59.2213745,-50.5648842,-78.2366409,2.6312141,7.4818420,7.4531116,48.4961815,139.9694672,69.2213745
430,2.9592183,15.8950233,-4.8218975,66.9160309,-74.1984711,-84.8931274,3.1986370,7.4148049,7.9965930,38.4274826,128.0000000,62.8549614
440,2.5067163,14.3795023,-4.7907729,69.2824402,-83.9007645,-86.6793900,3.5170643,7.1035600,8.5999289,37.1679382,125.5572510,55.1832047
450,2.1739240,13.2494440,-4.4603748,68.0763321,-89.9694672,-87.6183243,3.7277529,6.8545642,8.7699156,42.2290077,130.5572510,46.9847336
460,2.0661855,12.0092545,-3.5769191,67.8702316,-102.9160309,-87.1145020,3.4907281,6.9766679,8.7507620,50.1526718,139.2519073,39.5496178
470,0.6919208,10.1274214,-3.4643922,65.9694672,-106.3129807,-84.6106873,3.2991931,6.7133074,8.6214762,64.2900772,148.6412201,32.6641235
480,-0.5243275,9.1793222,-3.4787574,57.9541969,-94.7633591,-72.3206100,3.0501974,7.1251078,7.5584559,73.0763321,160.6717529,27.0839691
490,-1.5681942,8.9207497,-3.1890604,43.6106873,-70.2366409,-51.1603050,2.4516499,6.9718795,6.7492199,72.5572510,165.6259613,19.2519093
500,0.1292862,5.3605900,-2.4875629,28.7099228,-48.2290077,-42.9083977,1.9536586,7.3405848,6.2943239,76.7175598,166.6564941,15.7175570
510,-1.1875180,4.8697815,-1.7573351,14.7709923,-18.1297703,-30.4885502,0.8882443,7.7787213,5.5018473,67.2442780,155.5496216,7.2671757
520,-3.0310438,4.0294209,-1.1947005,2.0076337,10.2061071,-5.8549619,-0.0574605,8.1761570,5.0158267,52.6106873,121.4351120,2.3664122
530,-2.7652888,3.0430148,-1.1731528,-9.1526718,29.7938938,19.1297703,-0.6679789,8.3652983,4.9056940,34.6030540,86.2595444,0.1984733
540,-3.0525916,1.7740943,-0.6560079,-17.1755733,45.4351158,43.3053436,-0.9720409,8.2144642,5.2360926,18.6717548,55.6259537,-0.8702290
550,-1.6591733,2.1404054,-0.6248835,-26.8854961,42.3206100,65.9618301,-1.3096216,8.0325060,5.4850879,5.0305343,28.1755733,-3.2366412
560,-0.2825144,2.9472473,0.6536137,-29.7251911,47.9236641,71.1068726,-1.3838415,7.8720951,5.6718349,-5.0839696,3.6030533,-7.2519083
570,0.7805058,2.4612267,0.3399749,-27.5954189,38.6564903,69.2519073,-1.3311694,7.9271612,6.1051831,-10.7633591,-11.2366409,-11.0839691
580,1.6615674,2.4612267,-0.0933734,-25.1068707,26.4045811,63.9847336,-1.3598996,7.7667508,6.1291251,-13.5648851,-12.9312973,-11.6030531
590,2.2002602,2.5761478,-0.8020535,-26.6335869,13.0076332,54.3587799,-1.3742647,7.8122401,6.3086891,-12.4580154,-7.0610685,-11.6641226
600,1.9584470,2.1451938,-1.6088953,-33.3969460,7.3816795,49.1679382,-1.3575054,7.8697009,6.1506729,-9.4885492,4.4351144,-11.2595415
610,1.4317253,2.0997043,-1.4939742,-41.0076332,-0.3740458,45.6717567,-1.6687500,7.8002691,6.1889796,-4.6946564,21.9160309,-8.3282442
620,0.9409165,2.9376705,-1.4867916,-49.4961815,-14.0763359,41.5648842,-1.7142396,8.2671366,6.1051831,1.3206106,35.1832047,-3.1145039
630,0.9600700,3.4859397,-1.7669119,-60.6183205,-22.4961834,40.8396950,-2.0685797,8.2384062,6.0980005,7.5572519,48.5114517,3.0839694
640,1.4963684,3.5601597,-0.8595140,-68.4885483,-22.4045811,43.5496178,-2.2433555,7.8601241,6.1865854,12.8625956,54.4198456,12.4045801
650,2.5282640,4.5178356,0.1364688,-68.4045792,-16.0687027,43.1832047,-1.6663558,7.9894104,6.0285692,16.3358784,52.6259537,17.1603050
660,3.1651185,5.5138183,-0.0502780,-65.3206100,-6.4503818,39.9160309,-1.3527170,8.2455883,5.7173243,16.0763359,44.8167953,16.1679382
670,2.1906834,8.0899658,-0.2513899,-49.9312973,-2.4503818,36.1374054,-0.8283895,8.4131813,4.8530221,5.9389315,21.0610695,12.1145039
680,1.7238164,10.0053177,-1.2138541,-40.1832047,-18.1984730,44.2900772,-0.4788379,8.3700867,4.6255741,-0.3435115,10.6488552,8.4809160
690,1.9847831,11.0994625,-2.3391230,-35.1832047,-48.6641235,51.1221390,-0.3806761,8.2934723,4.6854286,-5.5572519,3.8244274,4.0152674
700,2.5162930,12.0786858,-2.7078283,-32.0305328,-91.5877838,56.2824440,-0.2825144,8.5496502,4.8578105,-9.5572519,-1.7404580,0.4198473
710,3.6942344,12.4641504,-2.6743097,-29.5343513,-126.3511429,61.6717567,-0.4309541,8.4419117,4.9080882,-12.4656487,-6.6106873,-2.1374047
720,4.3646073,12.3612003,-2.0039365,-24.5648861,-150.9923706,67.7480927,-0.3160330,8.4347296,5.0158267,-14.6412210,-9.1984730,-4.9541984
730,6.8665352,11.9757357,-1.2186425,-16.8854961,-158.9618378,67.2213745,-0.4764437,8.4945841,5.1211715,-15.3893127,-7.7404580,-8.3740454
740,5.1858144,13.0794573,-2.1906834,-6.2824426,-135.1450348,49.5114517,-0.8523315,8.6142941,4.8458395,-15.5419846,-1.7328244,-10.9541988
750,3.9192882,15.7489786,-3.3087699,-12.1526718,-110.6106873,52.8015251,-1.1851238,8.7555504,5.0469513,-16.4885502,3.0687022,-12.4809160
760,3.3111639,14.5255470,-3.2249732,-14.1679392,-104.8702316,55.4122124,-1.5538290,8.8537130,5.0373745,-17.7862587,4.0610685,-13.2977095
770,2.1284344,14.5183649,-4.2401094,-11.4274807,-118.2748108,65.2671738,-1.8147956,9.0021524,5.1977854,-20.7175579,0.6641222,-15.2137403
780,1.8531027,15.7896795,-4.5609307,-12.7938929,-129.7938995,78.2977066,-2.0326669,9.0021524,5.4850879,-24.2977104,-6.7099237,-16.2824421
790,2.2984219,15.7394018,-4.4124913,-18.0076332,-124.0076370,90.2671738,-2.3822186,8.9159613,5.7963328,-27.2595425,-16.6259537,-16.3740463
800,1.9153515,15.9788208,-4.4196739,-18.8702297,-117.7633591,97.4274826,-3.3015873,8.4634600,5.2815819,-30.5496178,-25.5877857,-13.6641226
810,1.2665262,16.2685165,-3.3853838,-14.7633591,-111.2519073,107.2366409,-1.6112895,9.4762020,6.7492199,-35.1603050,-34.5038185,-8.5190840
820,-0.6105183,15.7561607,-2.8299320,0.7404580,-119.4809189,120.4961853,-2.4013720,9.0715837,5.9160423,-33.7251892,-41.0534363,-11.1908398
830,-2.2912393,15.6077213,-2.8155668,23.5877857,-135.7862549,139.3435059,-2.3630650,8.8034344,5.6407104,-37.2442741,-49.4656487,-11.5877867
840,-3.8714044,15.5287132,-3.4907281,43.2900772,-157.9465637,163.1145020,-1.9321109,9.0476418,5.8011212,-39.7404594,-54.1832047,-10.8778629
850,-4.1275826,14.4800577,-4.2065907,59.8473282,-175.1068726,191.7328186,-1.9919657,8.7842808,5.8968887,-41.3358765,-53.5877876,-9.8091602
860,-4.6950054,13.9030581,-4.2879934,71.5038147,-177.5725250,225.0305328,-1.8890154,8.5735922,6.1458845,-40.7709923,-50.3587799,-9.1832066
870,-3.6367738,13.4266148,-5.0254035,77.7099228,-161.2213745,250.1297760,-1.7381816,8.4395180,6.3039007,-38.2290077,-46.5954208,-8.1068707
880,-3.1603301,13.2829628,-3.3351059,81.6412201,-128.2748108,250.1297760,-1.6376256,8.4419117,6.6199336,-34.4274826,-42.8931313,-8.0534353
890,-1.1085097,12.4066896,-4.6782460,80.1374054,-98.1221390,250.1297760,-1.7693061,8.3772688,6.2464404,-32.1679382,-40.8320618,-7.9236641
900,-0.1987177,11.6070309,-4.7764082,71.0000000,-52.8167953,250.1297760,-1.6783268,8.4874020,6.0357518,-30.8625946,-41.2061081,-5.7175574
910,1.8100072,11.0946741,-5.6263452,51.1068687,-11.0152674,250.1297760,-1.5227045,8.6023226,5.5090299,-31.3358784,-40.0610695,-2.5038168
920,3.6511390,10.0603838,-5.8513989,25.0152664,17.9007626,250.1297760,-1.1779412,8.4658537,5.2360926,-33.6335869,-37.9923668,0.2137405
930,5.3222833,8.6262646,-5.9735026,-2.1374047,29.8473282,250.1297760,-0.9959828,8.3605099,4.9152708,-36.9541969,-36.7633591,1.4503816
940,6.3900914,6.5768385,-6.1578555,-29.7328243,28.9160309,250.1297760,-0.9696468,8.2264347,4.9487896,-41.1755714,-39.7557259,-0.5038168
950,7.5656385,3.6439564,-5.6407104,-53.9694672,17.4809170,250.1297760,-0.9433106,8.2551651,4.6207857,-46.3358765,-47.3129768,-1.7251909
960,8.4897957,-0.7230452,-5.7699966,-75.0687027,3.2595420,211.3435059,-1.0606259,8.2886839,4.2209558,-54.1221390,-57.3969460,-3.2366412
970,8.7866755,-7.4267755,-5.3031297,-99.0229034,-12.1832066,139.3358765,-0.9217629,8.0899658,3.9456241,-63.8702278,-67.0916061,-3.8931298
980,8.6358414,-15.7154598,-0.6488253,-103.9312973,-33.2671738,69.5648880,-0.4189832,7.8577299,4.1682839,-74.4045792,-70.7251892,-3.8167939
990,8.9638453,-19.6131992,1.8554969,-74.4961853,-76.0305328,18.8473282,-0.0790083,7.5057840,5.2336984,-79.7862625,-65.4045792,-5.0534353
1000,7.6015515,-19.6131992,7.4531116,-2.7709923,-89.6030502,26.2061062,0.0933734,7.0317345,6.4188218,-76.4961853,-54.6793900,-6.2290077
1010,6.6654234,-19.6131992,2.2505381,47.6106873,-27.3511448,106.3129807,0.0287303,6.8809004,7.0580707,-67.4809189,-42.6488533,-7.8702292
1020,7.4866304,-19.6131992,-3.5434003,9.3511448,66.3893127,229.1221313,-0.3280039,6.8856888,7.1538382,-56.5954208,-28.7633591,-7.4809160
1030,15.9572725,-19.6131992,-1.3503228,-81.6870193,129.3358765,250.1297760,-0.7086801,6.9814563,6.8018923,-47.9236641,-18.5725193,-4.3893127
1040,19.6126022,-9.3469152,8.9207497,-137.0076294,151.9847260,250.1297760,-0.8044477,6.9000540,6.2009506,-45.9083977,-9.6106873,-1.6259542
1050,19.6126022,-0.6943150,18.3299141,-101.8320618,131.4885559,148.1679382,-0.8283895,6.8904772,6.1937680,-48.4427490,-1.7938931,0.2900763
1060,19.6126022,3.1962428,19.6126022,-2.5648854,91.5801544,-51.3969460,-0.9121862,6.8282285,6.7324610,-50.3511467,3.8167939,-0.0152672
1070,19.6126022,-1.3335636,18.5549679,107.3893127,109.5496216,-245.8244324,-1.1516051,6.8354111,7.1538382,-50.4961815,4.4885497,-1.0763359
1080,19.6126022,-10.7020273,7.9439206,179.9084015,181.3511505,-250.1374054,-1.3646880,6.9096308,7.2089043,-50.6946564,1.0305344,-0.6488550
1090,19.6126022,-19.5629215,-3.5434003,185.8778687,250.1297760,-250.1374054,-1.4508789,6.8545642,7.3166428,-52.5038185,-4.3282442,-1.8549619
1100,13.4385853,-19.6131992,-10.4673967,149.8549652,250.1297760,-250.1374054,-1.4843974,6.8449879,7.5393028,-55.2748108,-12.0992365,-1.8091604
1110,4.4100971,-19.6131992,-12.6868095,103.1221390,250.1297760,-250.1374054,-1.5227045,6.7013364,7.9223728,-57.3206100,-22.0076332,-2.6793892
1120,0.3064562,-17.4344883,-12.2295198,66.1450348,250.1297760,-250.1374054,-1.4413021,6.5457139,8.2000990,-57.9083977,-28.3740463,-3.0534351
1130,1.7142396,-10.8217363,-9.3014259,52.2977104,248.5725250,-250.1374054,-1.3287752,6.2727766,8.5831690,-56.5877876,-27.7557259,-4.1526718
1140,2.7126167,-4.3741841,-6.3158717,51.9618340,223.9084015,-250.1374054,-1.3646880,6.2177100,9.2080526,-52.5496178,-22.5725193,-3.6641221
1150,3.9982965,0.2011119,-4.3670015,58.0458031,216.1374054,-250.1374054,-1.4556671,6.0022330,9.6964674,-46.6870232,-15.4732828,-3.9083970
1160,3.6894460,3.9743545,-5.0900469,58.0992355,207.5954132,-241.8396912,-1.5945302,5.8657641,10.2423429,-40.3282433,-7.9541984,-4.1603055
1170,1.2617378,7.6159167,-6.8665352,41.2290077,207.4351196,-206.0076294,-1.8076130,5.7292953,11.1066446,-31.3816795,1.2442749,-2.1679389
1180,-0.6584021,11.5615406,-6.8545642,16.9541988,205.3511505,-155.4961853,-2.0661855,5.6024032,11.7434988,-19.2442741,9.4274807,-0.6259542
1190,1.0007712,14.9612904,-4.4460096,3.5190840,188.6946564,-111.3053436,-2.1619530,5.5808558,11.7051926,-6.5114503,15.3206110,0.8625954
1200,3.3901722,16.8981895,-2.3678534,8.8549614,154.6030579,-82.6183243,-2.1739240,5.7245069,11.4945040,3.4122138,16.7251911,1.7786260
1210,5.1355362,19.2540722,-1.0438666,21.3816795,125.1679382,-64.4045792,-2.1380112,5.8011212,11.2766323,10.5267172,13.4503813,1.8702290
1220,6.7994981,19.6126022,-0.5434810,35.7251892,105.3587799,-50.2977104,-1.9033806,5.9399838,10.9869356,15.3053436,7.9923663,0.3893130
1230,8.5089493,19.6126022,-0.8475431,47.3129768,86.0457993,-44.4427490,-1.7238164,6.0740585,10.3859940,17.7480907,2.5419848,-0.1755725
1240,9.4929609,19.6126022,-1.1396341,54.8854980,69.9083939,-44.6641235,-1.6376256,6.3015065,9.9885588,19.1068707,-2.5648854,-1.2977099
1250,9.7587166,19.6126022,-1.4508789,61.7099228,46.4885483,-47.4961815,-1.4604555,6.5600791,9.6030941,19.9389305,-4.9160304,-1.1679389
1260,9.8975792,19.3785686,-1.9656296,65.9770966,13.9541988,-53.1603050,-1.4724265,6.7372489,9.3062143,21.3664131,-3.3587787,-0.9541985
1270,9.5097208,17.4703999,-1.9105632,66.6793900,-12.3053436,-60.0916023,-1.4245427,6.9192076,8.8896255,23.8854961,-0.2137405,0.1374046
1280,8.3892403,15.3706961,-0.9026094,68.8625946,-33.6030540,-65.6106873,-1.3311694,6.9862447,8.4610653,25.6106873,3.1450381,1.7709924
1290,6.9144192,12.9741125,-0.0670373,72.0000000,-50.8625946,-67.2977066,-1.2713146,7.1849627,8.1450329,25.9618320,6.0229006,3.1603053
1300,5.6622581,10.8720140,0.6200951,75.2671738,-61.4427490,-65.9160309,-1.1516051,7.2472115,7.6590118,24.6717548,8.1526718,4.1297708
1310,0.0047884,1.3551112,1.4125718,54.9007645,-30.2671757,-15.2290077,-0.0718257,7.4507174,7.6374645,13.4045801,-11.4961834,-1.1297710
1320,0.1364688,1.3886299,1.0630201,56.0076332,-32.9923668,-7.1068702,-0.0215477,7.1011658,7.4267755,14.8625956,-13.3587790,-3.2061069
1330,1.1755470,1.4293311,0.6967092,54.1374054,-32.7938919,-3.6030533,-0.2609667,7.1705976,7.4626884,16.4045811,-14.3053436,-4.4809160
1340,2.2265961,1.3575054,-0.0359128,47.2137413,-23.8931293,-7.5572519,-0.2513899,7.0963774,7.2208753,17.2977104,-16.0916023,-4.8778625
1350,3.0094962,1.4652439,-0.5315101,34.2442741,-9.7862597,-16.9160309,-0.1628049,7.2256637,6.9192076,17.3587780,-17.3893127,-5.1679387
1360,4.2808108,1.8770446,-0.9840119,17.8473282,8.8778629,-32.7862587,-0.3184272,7.0556765,6.7180958,16.5877857,-19.8167934,-4.6335878
1370,3.8642218,2.1571648,-1.4676381,-0.8320611,27.7251911,-50.0992355,0.0239419,6.7396431,6.5385313,15.7251911,-20.9618320,-5.3511453
1380,2.8131726,1.9656296,-1.6639616,-17.8167934,40.7938919,-59.0839691,0.2226596,6.7899213,6.3517847,13.1526718,-22.3511448,-6.3587785
1390,1.8626794,2.1068866,-1.1228749,-28.2977104,44.3969460,-59.4198456,0.2418131,7.0341287,6.2536230,10.2671757,-23.7480907,-6.9770994
1400,0.9696468,3.0525916,-0.6799498,-31.8091602,39.1908379,-53.4045792,0.3160330,6.9934273,6.2368636,7.5725193,-23.9770985,-7.6259542
1410,1.5035510,4.5034704,-0.2585725,-29.0992374,24.2748089,-45.9694672,0.2298422,6.8880830,6.3110833,5.1755724,-21.8167934,-7.3893127
1420,3.8977404,6.9718795,-0.1723816,-25.0305347,11.6793890,-52.1679382,0.2681492,6.7803445,6.2895355,1.6717557,-18.3053436,-7.0763359
1430,4.6327567,9.7108326,0.3567342,-18.1679382,0.1297710,-69.8625946,0.3040621,6.7635851,6.3924856,-2.0763359,-15.7022905,-7.0687022
1440,3.9599893,11.6716738,0.8762733,-6.4427481,-12.8396950,-82.4809189,0.2298422,6.6247220,6.6486640,-6.1374044,-13.8778629,-8.0763359
1450,2.8442972,12.5383701,0.6847382,10.9694653,-27.3664131,-80.4351120,0.2394189,6.7085190,6.9120250,-9.4122133,-14.1679392,-9.1221371
1460,1.4245427,13.5942078,0.0814024,31.0305347,-49.3969460,-64.2519073,0.1268920,6.6845770,7.2711535,-11.4580154,-14.3053436,-10.8625956
1470,1.4221486,15.2414103,-1.2042773,46.4045792,-66.6564865,-41.9236641,-0.2274480,6.8928714,7.8864598,-14.4198475,-12.0992365,-14.4809160
1480,2.4133430,16.3834381,-2.2505381,56.0992355,-75.8015289,-25.1603050,-0.3519458,6.6414814,8.1115141,-9.2137403,-11.2671757,-14.5267172
1490,3.9887197,16.7712975,-3.0645626,59.6717567,-72.6183243,-17.8473282,-0.6871324,6.6941538,8.0468712,-9.9465647,-9.7022905,-17.0305347
1500,4.6734576,16.7473545,-3.9767487,55.7175560,-56.9312973,-16.1221371,-1.2449785,6.5624733,8.0564480,-10.0534353,-8.7862597,-17.9847336
1510,4.8314743,16.0745888,-4.1826491,45.1755714,-33.6335869,-15.9389315,-1.6041069,6.4236102,8.1378498,-10.4045801,-7.2213740,-17.7938938
1520,5.0206151,15.0259333,-4.0581512,32.4885483,-10.1145039,-16.4351139,-2.0470319,6.1075773,8.2838955,-9.4045801,-4.6870227,-17.8244267
1530,4.6662750,13.7570124,-3.3805954,20.6259537,9.7328243,-16.7251911,-2.4133430,5.9040713,8.3006544,-7.6259542,1.3129771,-17.3358784
1540,3.8785870,12.1193867,-2.8251436,11.3435116,21.9389305,-15.5419846,-2.8203552,5.7269011,8.3102312,-6.3435116,10.6564884,-16.6793900
1550,2.9233053,10.5152798,-1.9297167,6.0076337,23.0687027,-11.6030531,-3.4643922,5.6790175,8.4347296,-5.1526718,16.2366409,-14.9465647
1560,1.8147956,8.9614515,-1.1827296,6.8778625,13.5190840,-3.7938931,-3.9504125,5.7029591,8.5783806,-3.5190840,16.1526718,-12.0381680
1570,0.8331779,5.9375896,0.4357425,24.0381680,-29.6488552,22.0763359,-3.3710186,6.0716643,8.7459745,4.4656487,4.0763359,1.8625954
1580,0.4908088,5.4563580,0.4046180,32.0000000,-35.7328262,26.4580154,-2.8227494,6.0501165,8.4874020,7.7786260,1.2061069,2.4503818
1590,-0.0766141,5.1977854,-0.1723816,37.7862587,-44.4656487,33.5496178,-2.2768741,6.1339135,8.1163025,10.9083967,-1.0534351,1.1145039
1600,-0.2968795,5.2145448,-0.5961532,40.6717567,-52.8320618,40.9771004,-1.6831152,6.2631998,7.6254935,12.3587790,-0.1984733,-1.6793894
1610,-0.4572902,5.7221127,-1.0055596,41.8702278,-58.6335869,48.9389305,-1.1180865,6.6510582,7.2328463,13.4274807,9.6793890,-5.8015265
1620,-1.0845678,6.2679882,-2.0542145,40.3816795,-66.0687027,58.7404594,-1.2210367,6.9168134,7.1442614,15.1526718,27.6412220,-9.3740454
1630,-1.8171898,7.2879128,-2.8012016,36.4580154,-80.8091583,70.0076370,-1.5658000,7.2831244,7.0460997,15.6717558,50.9618340,-10.9541988
1640,-1.9368993,7.8744893,-2.5138988,37.5114517,-100.3664093,83.5114517,-2.2696917,7.4076223,7.2065101,15.7480917,74.1679382,-10.7786255
1650,-0.8188128,8.9087791,-1.7022687,49.4198456,-112.8320618,95.6793900,-2.2361729,8.1067257,7.4914188,16.3358784,87.5725174,-11.3053436
1660,0.9696468,10.1298151,-1.9009864,67.0687027,-113.3435135,98.4732819,-2.5234756,8.0109577,7.5345144,16.4045811,71.8854980,-9.9236641
1670,2.0542145,10.8313131,-3.2225790,80.9007645,-107.3129807,89.8015289,-2.0039365,8.1306677,7.8481531,13.8549614,51.0000000,-7.7862597
1680,1.5538290,11.6908274,-5.2576399,86.0305328,-102.8473282,84.8778610,-1.4891858,8.5281029,8.5496502,15.7557249,31.3969460,-9.4732828
1690,1.1228749,12.0499554,-6.2081332,86.4885483,-114.7709961,80.4656525,-1.1085097,9.1098909,8.9039907,21.7099228,22.9083977,-10.2519083
1700,0.5339043,12.5575237,-6.0716643,92.2213745,-149.3282471,74.2213745,-0.8068419,9.7850523,8.6717539,28.0000000,20.2748089,-12.8931293
1710,0.0407012,12.2438850,-5.2313042,109.5343475,-188.5877838,69.9847336,-0.6488253,10.4099360,8.3293848,29.9770985,16.7633591,-15.1679392
1720,-1.1156923,12.4761209,-5.3725610,135.8320618,-218.0686951,68.9542007,-0.6919208,10.6086531,8.0348997,29.0152664,11.5954199,-15.7938929
1730,-2.7413468,12.7299051,-7.0484939,153.8396912,-226.4351196,75.1297684,-0.9768293,10.5009146,7.8170285,26.2595425,9.2977095,-15.1832066
1740,-3.7301471,12.7993364,-9.3612804,153.9084015,-220.0381622,84.2442780,-1.1827296,10.3788109,7.8289995,23.3206100,10.8320608,-12.2442751
1750,-4.4077029,12.7610302,-10.2734671,141.6335907,-203.4961853,97.3129807,-1.3958124,10.2327662,8.2096758,22.4732819,14.4503813,-8.9618320
1760,-4.7524662,12.1768475,-9.9406748,128.7175598,-182.4351196,112.3358765,-1.5059452,10.2040358,8.5448618,23.3969460,17.0687027,-3.2671757
1770,-5.0780759,11.1784706,-9.6126709,121.5190811,-156.0305328,128.9160309,-1.7429699,9.9119444,8.8656836,24.4274807,14.5801525,0.9160305
1780,-5.4922705,10.2998028,-9.5288744,119.3511429,-135.7786255,146.1068726,-1.5466464,9.7658987,9.0428534,24.6641216,10.2671757,5.2366414
1790,-5.7388721,9.5240860,-9.1362267,122.1221390,-129.5648804,165.5343475,-1.3982066,9.4690189,9.4762020,25.4809170,7.8015265,8.7099237
1800,-5.3893204,8.5161324,-8.5089493,130.9389343,-129.6488495,184.8167877,-1.4413021,8.6645718,9.8760319,31.4274807,5.9541984,11.2900763
1810,-4.8554163,7.1155310,-8.1641865,141.9007568,-129.0305328,204.1145020,-1.5442522,7.9511032,9.9741936,39.2900772,4.6030536,12.5038166
1820,-3.4931223,5.7795734,-8.2767134,148.6030579,-120.4351120,219.3206177,-1.4748207,7.7140784,9.1194677,43.6412201,9.9770994,15.3053436
1830,-1.1085097,4.3047528,-7.9487090,148.8167877,-103.5114517,223.2595367,-1.0582317,7.9989872,9.4067707,51.7862587,18.5648861,13.5725193
1840,1.9967541,2.5929072,-6.8354111,145.3893127,-74.3969498,213.1832123,-1.6711442,7.1418672,7.9175844,56.6564903,31.5038166,11.9007635
1850,4.4148855,0.5554519,-6.1937680,134.4580078,-38.6641235,190.5877838,-1.8650736,7.7236552,7.7236552,63.1679382,36.2595406,13.7099237
1860,6.7252784,-2.8730273,-5.3031297,113.6870193,-0.6870229,158.4198456,-2.1715298,7.1011658,7.3262196,68.2442780,42.8778610,17.7633591
1870,9.6437950,-7.6422529,-2.8634505,90.9923630,32.9312973,126.1526718,-2.3798244,7.0293403,6.6941538,70.0992355,45.8549614,22.0610695
1880,11.4873209,-12.2654324,-1.1635761,78.9312973,70.1603088,104.2900772,-2.3917952,7.0844064,6.5289545,74.2824402,42.2137413,26.0763359
1890,13.7474356,-16.2948532,0.0407012,75.7022934,126.8167953,101.7328262,-2.2529323,6.6151457,5.8897061,77.9160309,43.1068687,31.3816795
1900,18.1144371,-18.6962261,1.1109039,82.3740463,206.7938995,105.4198456,-1.9560528,6.3565731,5.0661049,78.1679382,43.6335869,34.4198456
1910,19.6126022,-18.4352589,0.2489957,89.6335907,250.1297760,129.1603088,-1.9728121,6.1626434,4.4747400,76.3358765,41.1374054,36.4503822
1920,19.6126022,-12.9669304,-4.8362627,63.4656487,250.1297760,182.4045868,-1.5801650,6.2775645,3.7516949,70.5496216,39.3511467,37.0458031
1930,19.6126022,-2.7748656,-11.5447817,-24.6870232,250.1297760,223.3511505,-1.3383518,5.9040713,3.0525916,62.9771004,37.0381660,37.0610695
1940,19.6126022,6.4283986,-10.3045912,-150.4198456,166.5648804,181.7862549,-1.3191984,5.9735026,2.6743097,53.7480927,30.8549614,35.5267181
1950,19.6126022,10.0268650,5.2863703,-208.2595367,70.1603088,28.6183205,-1.2928623,5.7819676,2.6407909,44.7022896,26.0534344,34.0687027
1960,19.6126022,7.9654684,14.4656925,-161.8015289,26.9083977,-178.2290039,-1.1061156,5.6263452,2.6216373,35.5954208,23.0000000,30.3893127
1970,19.6126022,-2.3894010,9.1458035,-114.4503784,78.6717529,-250.1374054,0.0454896,4.8889351,2.4851687,31.0610695,39.5419846,22.2595425
1980,19.6126022,-14.1640244,1.0223188,-112.6259537,159.0763397,-250.1374054,-0.9241571,5.6143742,3.3997490,26.9847336,32.5648842,13.5648851
1990,9.9981356,-19.6131992,-5.7532372,-131.2824402,211.7099304,-250.1374054,-1.0582317,5.9567432,3.9097114,23.3969460,31.6488552,5.8931298
2000,1.3910241,-17.9037495,-6.2847471,-137.7175598,197.7099304,-250.1374054,-1.3551112,6.0860295,3.7995787,22.7022896,22.7251911,2.9541984
2010,1.6663558,-13.9772778,-3.1555417,-108.3435135,131.5267181,-250.1374054,-1.3694763,6.0788469,3.6128318,21.0458012,11.8320608,4.3816795
2020,5.6383162,-8.5759869,-2.2936335,-60.4580154,83.4351120,-214.0534363,-1.4053892,6.4188218,3.3494711,17.0839691,0.8015267,3.7175572
2030,6.9934273,-2.8299320,-5.1953912,-37.4656487,64.2290039,-205.6412201,-1.1779412,6.3805151,3.1723011,10.8015270,-6.7557254,-1.2137405
2040,6.4906478,1.5610116,-7.6159167,-47.4961815,69.7709961,-211.7709961,-1.2497669,6.4571290,2.7293761,4.0534353,-17.3664131,-3.1221373
2050,4.8649931,3.9264708,-8.1737623,-71.5725174,89.6259537,-215.1679382,-1.2952565,6.3661499,2.8897867,-4.0458016,-26.0305347,-9.7022905
2060,2.6336083,4.8841467,-7.3717093,-89.7175598,116.2595444,-206.6335907,-1.6879035,6.1410961,2.8826041,-13.5648851,-33.2290077,-14.1221371
2070,-0.7278336,6.3422079,-7.1634150,-94.8931274,135.7099304,-182.2900696,-1.9776005,6.1865854,3.0932927,-21.4961834,-37.4961815,-18.2290077
2080,-3.0071020,8.9351149,-7.0748301,-88.2061081,137.7099304,-146.7328186,-2.3702476,6.2943239,3.4572096,-27.4885502,-37.8320618,-19.9618320
2090,-2.9113343,10.5559816,-6.2847471,-66.0534363,101.2900772,-115.3282471,-2.5929072,6.7228842,3.7325413,-31.5877857,-33.7480927,-18.6106873
2100,-1.7333932,12.1505117,-5.4372044,-33.1603050,46.5954208,-94.0381699,-2.5569944,6.9000540,3.9456241,-36.0305328,-28.0916023,-18.5267181
2110,0.1915352,12.2007895,-4.9344244,0.3587786,-0.6259542,-84.1450348,-2.4827745,7.1634150,4.3478479,-38.6717567,-19.6030540,-17.7251911
2120,1.8650736,13.6205435,-5.3270717,27.7938938,-24.8167934,-83.6946564,-2.4109488,7.8122401,4.7213416,-40.7938919,-7.8931298,-15.4045801
2130,2.8203552,13.2470503,-6.8042865,41.9694672,-35.4045792,-92.7938919,-2.2457497,8.1593981,5.2552457,-40.8091621,3.9160306,-12.3969469
2140,2.5593886,12.7490587,-8.4395180,38.2519073,-32.8854980,-105.3129807,-1.7190280,8.7148495,5.8897061,-37.8396950,14.4198475,-10.3893127
2150,1.1085097,12.1983957,-8.9518747,23.7709923,-30.4580154,-113.0076370,-1.3479286,9.1745338,6.3134775,-32.3969460,22.6412220,-11.8854961
2160,-0.7158626,10.9869356,-8.1282730,9.9160309,-29.2061062,-110.6793900,-1.1851238,9.7180147,6.4547348,-25.1297703,28.1221371,-12.7022905
2170,-2.4037662,10.0412302,-6.9910331,0.7175573,-29.6488552,-98.9847336,-1.0342898,10.1465750,6.4379754,-18.9160309,32.8549614,-14.6259546
2180,-3.4787574,9.4833841,-5.9806852,-2.4503818,-33.1450386,-81.5877838,-1.0103480,10.3788109,6.2823529,-14.2290077,36.4885483,-16.1221371
2190,-3.9671719,9.0141230,-4.8147149,-0.1984733,-30.6106873,-61.5190849,-1.2114599,10.3165627,6.1817970,-11.0687027,38.3740463,-19.8549614
2200,-4.1946201,8.6933022,-4.0366035,8.0305347,-28.4961834,-42.2671738,-1.5250987,10.3452930,6.1626434,-8.5648851,37.9465637,-24.1068707
2210,-4.4148855,8.2527714,-3.7588775,19.8244267,-33.0381660,-22.3129768,-2.1188576,10.3764172,6.2440462,-7.2519083,35.1526718,-27.8015270
2220,-3.4476328,8.3198080,-4.1036406,28.7099228,-31.4427490,-5.1374044,-2.6647329,10.5152798,6.1482787,-6.4809160,29.8167934,-28.0458012
2230,-2.3894010,8.4682484,-3.9144998,35.2977104,-26.7251911,2.1832061,-3.0741394,10.5464048,6.0429344,-7.2213740,22.3587780,-24.9312973
2240,-2.3391230,8.4706421,-4.1156116,41.7251892,-21.7786255,6.6564884,-3.2513094,10.5966825,5.9902620,-8.7557249,14.9389315,-20.0076332
2250,-2.3989778,8.3245964,-4.6638808,45.9465637,-17.5572510,11.7328243,-3.1387823,10.3979645,5.8226686,-10.0916033,7.3740458,-16.0381680
2260,-2.3056045,8.4347296,-5.0182209,49.7099228,-15.8396950,16.4122143,-3.0166788,10.1178446,5.8633699,-10.1374044,3.4656489,-10.3129768
2270,-2.2337787,8.6549950,-5.5018473,54.6564903,-19.2595425,20.7328243,-2.6527619,9.7132263,5.9256191,-8.0000000,4.3969464,-7.4580154
2280,-1.9943599,8.9973640,-6.3781209,57.2519073,-27.9465656,25.0305347,-2.4348907,9.6653433,5.6766233,-4.9312978,8.8396950,-6.1145039
2290,-1.1707586,9.3062143,-7.1586266,56.7709923,-37.1908379,24.9465656,-2.3582766,9.3971939,5.6885943,-1.2748091,12.6183205,-4.7251906
2300,-0.8451489,9.4163475,-7.5273318,53.7480927,-43.8167953,22.4351139,-2.3032103,9.3373384,5.5569139,1.4656489,14.5801525,-2.8167939
2310,-0.9026094,9.6246414,-7.5919747,50.2519073,-49.3435097,22.0687027,-2.1427996,9.4666252,5.1020179,2.4809160,15.1832066,-1.4732825
2320,-0.8595140,9.7994175,-7.6877422,45.9083977,-53.6335869,23.6488552,-2.1763182,9.0691900,4.8817525,1.7862595,12.7786255,0.1068702
2330,-0.0742199,10.1968527,-7.5919747,39.5343513,-54.6946564,25.6946564,-2.0063307,9.2272062,4.4675574,-2.8625953,7.4274807,2.1221373
2340,1.1947005,10.9941177,-7.6590118,30.9007626,-49.5725174,21.7175579,-1.7932479,9.2248116,4.0940638,-12.2137403,0.1374046,3.3511450
2350,1.7357874,11.5711174,-7.2232695,21.0458012,-40.0228996,10.2290077,-1.5370697,8.9063845,4.1802549,-21.8396950,-7.2519083,5.5648856
2360,0.5554519,11.5663290,-6.1722202,15.8778629,-31.8549614,2.6412213,-1.1420283,8.8968077,4.6279683,-29.6412220,-10.3816795,6.2824426
2370,-0.9888002,11.2718439,-5.3749552,18.3664131,-31.1374054,5.7099237,-0.8212070,8.7148495,5.2935529,-33.2366409,-7.1374044,7.5343513
2380,-2.5378408,11.2957859,-4.4148855,28.7862587,-38.1221390,16.1068707,-0.6224893,8.4299412,5.8035154,-33.4274826,-2.2900763,7.1297708
2390,-3.2704628,11.4346485,-3.8642218,49.7557259,-51.8015251,28.6106873,-0.6560079,8.3605099,5.9016771,-31.2061062,3.8244274,4.9236641
2400,-3.8929520,11.6429434,-4.2999644,74.6717529,-72.2900772,41.3282433,-0.9744351,8.1450329,5.8609757,-29.4274807,9.9770994,2.8473282
2410,-4.2401094,11.4178896,-5.8490047,91.8702316,-89.4122162,52.9541969,-1.1587877,8.5616217,5.6071916,-28.7633591,13.4427481,-0.6183206
2420,-5.4419928,11.4466200,-6.7324610,102.2061081,-97.2137375,65.5954208,-1.7525467,7.5704269,5.8849177,-26.0610695,15.3969469,-0.0916031
2430,-6.7444315,10.9845409,-7.5201492,111.5419846,-98.2748108,84.0839691,-2.1715298,7.5608501,5.4922705,-28.5343513,20.4961834,-5.4732823
2440,-8.2288294,9.9981356,-8.0779953,116.7786255,-96.1603088,109.5954208,-3.0023136,7.2376347,5.4970589,-29.5725193,16.4885502,-8.7175570
2450,-9.2703018,9.1984758,-8.3533268,120.9847336,-90.3282471,142.0076294,-3.5122759,6.8449879,5.4611464,-30.6717548,13.3129768,-9.2977095
2460,-9.6078825,8.1522150,-8.9566631,123.7099228,-85.4656525,176.2519073,-3.8307030,6.4834652,5.5880380,-30.5496178,9.5343513,-11.2977095
2470,-9.2008705,7.0389171,-9.5791521,120.6946564,-86.1450348,206.7709961,-4.1347651,6.0596933,5.8753409,-28.0839691,6.0610685,-15.9541988
2480,-8.4395180,5.9854736,-9.3636751,114.1374054,-82.0305328,233.0000000,-4.3789725,5.4922705,5.7053533,-25.0381680,6.3969464,-20.4503822
2490,-7.1825686,4.0940638,-9.0979195,104.5725174,-71.6488571,250.1297760,-4.2472920,5.0637107,5.4802995,-24.2595425,11.6488552,-28.6183205
2500,-5.8202744,1.8243724,-8.5855637,91.5419846,-58.7480927,250.1297760,-5.0565281,5.5593081,5.8490047,-22.8091602,16.3511448,-34.9618340
2510,-4.0126615,-1.2282192,-7.5560617,76.1145020,-48.1068687,250.1297760,-6.0046272,6.2201042,5.9040713,-21.0076332,18.8778629,-31.6183205
2520,-1.2737088,-5.0086441,-5.7699966,62.8473282,-48.9312973,250.1297760,-6.3924856,6.0501165,5.9112539,-20.8167934,21.7099228,-22.5190830
2530,1.9464760,-9.1386213,-3.9935081,53.3816795,-58.0763359,250.1297760,-6.1746144,6.2368636,6.4499464,-20.7175579,19.9389305,-13.1526718
2540,6.2440462,-13.4888630,-1.5059452,52.4656487,-62.7404594,250.1297760,-6.0788469,6.5600791,7.0317345,-18.8320618,13.0152674,-3.2748091
2550,12.4066896,-17.6068687,2.2289903,70.8167953,-53.5954208,250.1297760,-5.2983413,6.5792327,7.1466556,-14.9770994,4.1679387,6.4809160
2560,19.5892582,-19.6131992,4.8865409,121.8320618,-12.8854961,250.1297760,-4.0581512,6.7372489,6.9120250,-9.9541988,-3.4045801,12.7099237
2570,19.6126022,-19.6131992,1.3144100,170.5954132,39.2595406,250.1297760,-2.7197993,6.6869712,6.6797886,-6.1832061,-2.9541984,13.5267172
2580,19.6126022,-19.5222206,-5.8418221,163.6564941,90.6259537,250.1297760,-1.7884595,7.0221577,6.4451580,-1.9007634,-0.3816794,10.1603050
2590,19.6126022,-13.3045111,-11.9446115,97.4809189,122.6106873,250.1297760,-1.4365137,7.0772243,6.4547348,2.0305343,0.6259542,4.2213740
2600,19.6126022,-4.5489597,-13.8527803,-8.1755724,141.3053436,250.1297760,-1.1683644,7.2472115,6.0716643,4.3129773,7.3511453,-4.3053436
2610,19.6126022,4.0868812,-10.0484133,-108.7938919,143.3664093,250.1297760,-1.3527170,7.6685886,5.7580256,4.7175574,15.6946564,-13.3282442
2620,19.6126022,9.3564920,-0.5674229,-164.8167877,130.4503784,99.4198456,-1.9991482,8.0277176,5.9016771,3.3206108,23.0381680,-20.6946564
2630,19.6126022,7.3549500,6.5313487,-155.6793823,106.9312973,-83.3511429,-2.7892308,8.4395180,6.3541789,2.5419848,25.9236641,-24.6488552
2640,19.6126022,0.0981618,7.1466556,-108.1297684,107.2442780,-230.1832123,-3.6702924,8.6478119,6.9910331,5.2977099,24.3435116,-25.1832066
2650,19.6126022,-7.8481531,1.0007712,-65.9923630,141.2977142,-250.1374054,-4.2329268,9.1218615,7.3310080,9.0305347,17.8931293,-22.7099228
2660,12.6245613,-12.3995075,-5.8130918,-61.6030540,169.3816833,-250.1374054,-4.0868812,9.5911226,7.1346846,11.2671757,8.9083967,-18.1526718
2670,5.7340837,-12.9836893,-9.9454632,-90.4503784,190.9618378,-250.1374054,-4.1826491,9.9263096,7.1155310,11.4580154,-1.9618320,-12.8854961
2680,2.4085546,-11.4897156,-9.4331064,-117.8702316,217.2213745,-250.1374054,-3.5769191,10.5128860,7.1011658,10.6183205,-9.5648851,-9.6641226
2690,2.0135133,-8.3509331,-6.3302369,-115.3664093,215.7938995,-198.6870270,-3.3303175,10.4673967,7.2304521,8.2519083,-13.3587790,-8.9847326
2700,3.5505829,-5.6287394,-4.1874375,-90.2366409,196.2900696,-163.9618378,-3.1555417,10.5104914,7.6326761,5.6106873,-14.9770994,-9.8091602
2710,7.4914188,8.1833391,-7.0125809,10.1908398,57.2213745,-54.6946564,-4.1850433,7.4650826,5.7723908,53.8854980,-31.0687027,13.6488552
2720,6.4523406,8.2431946,-6.7635851,9.1908398,50.5572510,-60.5648842,-3.8570392,7.5201492,4.9679432,51.9007645,-35.3282433,15.9618320
2730,5.8561873,7.9870162,-6.0860295,10.2061071,36.7709923,-61.6641235,-3.7157819,6.9479380,4.6782460,49.4732819,-36.6030540,18.8167934
2740,5.8873119,7.8266053,-5.4755111,13.7099237,20.0839691,-63.6717567,-3.4069316,6.9455438,4.1802549,47.5343513,-34.4351158,21.6488552
2750,5.7364779,8.1665802,-5.2408805,17.4427490,1.2213740,-70.5648880,-3.1268115,6.2871413,4.1682839,46.6412201,-28.1755733,24.6030540
2760,5.1499014,7.8960366,-4.2448978,23.3129768,-19.3969460,-77.7251892,-2.7964132,6.2368636,3.7540891,44.6717567,-19.1679382,27.6946564
2770,5.1762376,7.5704269,-3.7085996,28.2442741,-31.3129768,-80.9160309,-2.5234756,5.8897061,3.6295912,44.2519073,-10.3740454,30.4580154
2780,4.6183915,7.5632443,-3.6008608,29.4809170,-29.5725193,-80.5648880,-2.0733681,5.6766233,3.2441268,42.1755714,-4.1679387,32.4351158
2790,3.4572096,7.6949248,-3.8905578,25.7557259,-25.5267181,-74.3664093,-1.7453641,5.6407104,2.9280937,37.8244286,0.7862595,32.3129768
2800,2.7916248,7.7332320,-4.3885493,17.0687027,-17.2519093,-64.7175598,-1.2593436,5.4443870,2.4995339,32.9694672,6.9847326,30.3969460
2810,2.5450234,7.9941988,-3.8426740,11.1603050,-4.4503818,-54.7480927,-1.2090657,5.5305777,2.2936335,26.7557259,12.2061071,29.1374054
2820,2.4396791,8.2719250,-3.6798692,11.1526718,5.0610685,-46.8015251,-1.3168042,5.3845320,2.2936335,20.4045811,16.0000000,26.8473282
2830,2.3391230,8.7459745,-4.0749106,14.1374044,8.3893127,-39.9312973,-1.2282192,5.3725610,2.2625091,13.2290077,19.3129768,25.2442741
2840,2.6814921,9.2008705,-4.5561423,14.8549614,11.1450386,-35.2977104,-1.1180865,5.3773494,2.6288199,7.8625956,24.3129768,23.4809170
2850,2.7365584,9.4522600,-4.8338685,15.4045801,14.2061071,-33.1832047,-1.1228749,5.2935529,2.9233053,4.3206105,29.2213745,21.3511448
2860,2.4779861,9.5216913,-5.2169390,16.1679382,12.5114508,-28.4961834,-1.2425843,5.4802995,3.1531475,2.8549619,31.5419846,15.9847326
2870,2.2816625,9.4043760,-5.9160423,14.5801525,5.7862597,-20.8091602,-1.6304430,5.8490047,3.2872221,-0.7633588,26.7328243,10.4045801
2880,2.3391230,9.2391768,-6.1410961,11.5801525,-0.0458015,-11.2671757,-1.8171898,6.4954362,3.3805954,-7.0000000,18.2290077,4.9160304
2890,2.5976956,9.2511482,-6.2775645,10.0916033,-2.4961832,-1.1145039,-2.2194135,7.1107426,3.2704628,-15.8931293,6.1145039,-0.9847328
2900,3.8714044,9.2655134,-6.4834652,7.1908398,-8.6870232,16.9465656,-2.3367288,7.8146343,4.1515245,-24.1221371,-7.3358779,-5.6870227
2910,4.9032998,9.0452480,-6.3685441,4.7328243,-9.1755724,18.5419846,-2.5689652,8.2527714,4.6207857,-26.4656487,-9.5267172,-8.8015270
2920,5.5186067,9.1362267,-6.2009506,4.0992365,-5.6488547,15.2900763,-2.4085546,8.9806042,4.9535780,-26.7709923,-11.0152674,-10.6564884
2930,5.6909885,9.2679071,-6.6055689,3.1526718,-1.8015267,9.5496187,-2.2289903,9.8425131,5.5880380,-24.6564884,-11.8931293,-12.5190840
2940,5.5329719,8.9470863,-6.8425937,0.1068702,0.9236641,3.3358779,-2.0949159,9.9741936,6.2847471,-20.3282452,-10.3129768,-14.0687027
2950,4.8290801,8.7148495,-7.1107426,-4.3282442,-0.1526718,0.0839695,-1.9871773,10.5176744,6.4930420,-13.7709923,-6.6030536,-17.3816795
2960,4.2760224,8.2910776,-7.0844064,-9.8778629,-3.0458016,0.8778626,-2.1643472,10.6804790,6.8521700,-4.2213740,-3.7938931,-19.1068707
2970,4.1754665,7.9798336,-6.5505023,-13.7709923,-5.4885497,3.9770992,-2.2984219,11.0324249,6.6295104,5.2748094,-0.7480916,-20.5877857
2980,4.1706781,7.7021074,-6.1123657,-15.1297712,-7.8396945,8.3740454,-2.5474176,11.0300312,6.4619174,13.3969469,0.1297710,-21.2748089
2990,4.4699516,7.5632443,-5.6215568,-14.9389315,-10.3129768,11.3435116,-2.6503677,11.0180597,6.3039007,19.8320618,-1.6335878,-22.3435116
3000,5.0469513,7.7164726,-5.1546898,-14.0229006,-12.0458012,11.0916033,-2.8658447,11.0060892,5.9304070,24.4580154,-5.7633586,-22.6564884
3010,5.3103123,7.7045016,-4.9847026,-12.9694653,-14.0916033,7.6335878,-3.0358322,10.6828737,5.6646523,27.7480907,-11.4122133,-22.4961834
3020,5.0637107,7.5871863,-5.0876527,-13.0610685,-18.4885502,4.8015265,-3.2656744,10.4099360,5.2887645,29.9160309,-14.8015270,-22.3129768
3030,5.0900469,7.4339581,-4.7548604,-15.2366409,-22.7251911,4.9541984,-3.7014170,10.0196829,4.7811961,29.6335869,-17.8396950,-20.5267181
3040,5.1666608,7.2735476,-4.2018023,-14.7099237,-23.8931293,5.6870227,-3.9097114,9.6821022,4.4196739,27.9389305,-22.6106873,-17.1755733
3050,5.0254035,7.3022780,-3.8570392,-10.2900763,-25.8167934,6.9694657,-4.0940638,9.3612804,3.8881636,23.6259537,-27.8549614,-13.5572519
3060,4.7788019,7.2950954,-3.7780309,-4.7175574,-28.0076332,8.6183205,-4.1347651,8.9806042,3.5122759,17.6564884,-33.6793900,-10.3129768
3070,4.5561423,7.2089043,-4.1395535,0.7251908,-30.0687027,11.6183205,-4.0653338,8.5735922,3.5242469,11.8396950,-37.6793900,-6.8778625
3080,4.5896611,7.3549500,-4.7428894,4.0381680,-32.9618340,13.3969469,-4.0629396,7.9941988,3.4859397,7.2900763,-36.7480927,-4.0305343
3090,4.4938936,7.2663651,-5.5281835,4.5801525,-35.9923668,13.3816795,-3.8498566,7.7188668,3.6463506,4.3358779,-31.4351139,-1.0610687
3100,4.0629396,6.9120250,-6.2991123,-0.4045801,-41.6641235,12.9923668,-3.8307030,7.3429790,3.9719603,1.4656489,-14.3664122,7.2213740
3110,4.0198441,6.7971039,-6.5457139,-3.4351146,-44.5190849,14.8244276,-3.7253587,7.1538382,4.1658897,0.5648855,-8.1526718,11.2366409
3120,3.9575951,6.8425937,-6.7659793,-8.9083967,-44.9083977,17.8702297,-3.4380560,7.1801744,4.1395535,-1.5801526,-4.8396945,13.4351149
3130,4.2353210,6.9982157,-6.6750002,-16.4122143,-39.4274826,21.8702297,-3.0238612,7.0532823,4.2616572,-2.7022901,-4.6412215,15.5419846
3140,4.2257442,7.3717093,-6.3661499,-23.6564884,-31.5801525,26.0534344,-2.5617826,6.9599090,4.0581512,-5.9389315,-5.7328243,15.3511448
3150,4.0533628,7.6398587,-5.7867560,-27.2977104,-26.9770985,28.3129768,-2.1451938,7.0413113,3.9360476,-10.2519083,-7.7251906,11.9847326
3160,3.7516949,7.9247670,-5.4874821,-25.5419846,-27.8854961,29.7480907,-1.8794388,7.0748301,4.0557570,-14.8473282,-10.3511448,8.1908398
3170,3.0549858,8.0612354,-5.6263452,-20.7786255,-36.6564903,32.9618340,-1.7549409,7.3381906,4.0294209,-19.2061062,-11.9770994,3.6870229
3180,2.8682389,8.1067257,-5.7987270,-15.3664122,-47.7480927,37.6335869,-1.7429699,7.5560617,4.4100971,-21.4274807,-11.2137403,-0.0076336
3190,2.8203552,8.1713686,-5.9064655,-10.2977095,-57.3511467,44.5496178,-1.7812769,7.9391322,4.5585365,-22.2671757,-7.8702292,-2.6412213
3200,2.9783716,8.3916340,-6.1865854,-8.0000000,-60.6335869,53.2519073,-1.9847831,8.0995426,4.5800843,-23.7557259,-6.4045801,-4.9160304
3210,3.1579359,8.6478119,-6.4044566,-9.1908398,-56.3358765,61.6641235,-1.8411317,8.6597834,4.6495161,-25.2213745,-6.5725193,-5.0839696
3220,1.8124014,9.3852224,-8.0875721,-0.3664122,-69.3511429,124.6335907,-2.1571648,9.0644016,5.6981707,-10.5114508,1.8091604,-9.9312973
3230,1.1420283,9.1912937,-8.4802189,-2.7251909,-71.3587799,141.7862549,-2.2529323,9.2942438,5.1738434,-7.5572519,-1.6793894,-9.7404585
3240,0.8547257,8.4754305,-8.8177996,-5.4656487,-71.9007645,161.0686951,-2.4708035,9.2846670,4.9272418,-6.4274807,-4.9007635,-10.3206110
3250,1.6328372,7.1083484,-9.0715837,-9.8931293,-72.0839691,175.3664093,-2.6000898,9.3660688,4.4412212,-6.8778625,-7.5648856,-9.3358774
3260,1.3718705,5.9112539,-9.4139528,-21.7251911,-73.2748108,189.4885559,-2.8155668,9.3828287,4.1227942,-10.1526718,-10.0839691,-6.5190840
3270,2.1068866,4.5106530,-8.8585014,-34.8625946,-70.6488571,195.6335907,-2.7533178,9.3325500,4.1874375,-15.0763359,-13.2824430,-4.1984735
3280,3.3925664,1.7046629,-7.3669209,-42.9312973,-75.8015289,191.2061005,-2.5857246,9.2224178,4.2592630,-18.8931293,-16.2137413,-0.2442748
3290,5.0948353,-2.3343346,-5.7364779,-43.1679382,-86.8702316,181.1984711,-2.3151813,9.0260944,4.6447277,-21.4198475,-17.9160309,2.4961832
3300,7.9271612,-7.5584559,-3.8642218,-36.0610695,-93.5954208,168.9084015,-1.9488702,8.8369532,4.7811961,-22.8320618,-19.0458012,3.9236641
3310,10.5344334,-12.8280668,-1.9871773,-21.7938938,-89.5954208,162.4580078,-1.6543850,8.8561068,4.9847026,-23.8396950,-19.7709923,5.0916033
3320,12.5335817,-18.0426121,0.4908088,6.1297708,-65.8549652,173.9541931,-1.3048333,8.8034344,5.2265158,-24.3129768,-20.0839691,6.1145039
3330,14.1041698,-19.6131992,2.4588325,38.5572510,-23.5038166,207.6259613,-1.0103480,8.8393478,5.2241216,-25.0839691,-19.8396950,6.4503818
3340,14.9062233,-17.6739063,1.4963684,60.1145020,37.9847336,250.1297760,-0.4716553,9.0404596,4.9894910,-27.8396950,-20.4122143,6.0687022
3350,17.0609932,-12.0164366,-4.8961172,31.7251911,89.7786255,250.1297760,-0.4333483,8.7268209,5.4491754,-29.3511448,-25.1526718,6.3511453
3360,19.6126022,-4.2568688,-10.2303715,-72.5267181,116.6946564,250.1297760,-0.2370248,8.6789370,5.4467812,-33.4503822,-29.6946564,2.7786260
3370,19.6126022,2.8826041,-7.8720951,-210.2824402,153.7557220,231.2748108,-0.2250538,8.3341732,5.7508430,-35.9389305,-36.6870232,0.5648855
3380,19.6126022,4.5537481,3.0071020,-250.1374054,176.4351196,129.2290039,-0.3974355,7.9822278,6.0237808,-37.1679382,-40.0228996,-5.2824426
3390,19.6126022,4.2161674,12.6868095,-238.8320618,159.4198456,23.4503822,-0.8355721,7.6039457,6.2799587,-35.8778610,-41.4427490,-11.3740454
3400,19.6126022,3.9360476,17.8893833,-124.0534363,138.5572510,-73.5725174,-1.4389079,7.4555058,6.4355812,-33.0381660,-42.1984749,-17.8015270
3410,19.6126022,1.1611819,15.7058830,17.0916023,116.5648880,-159.0992432,-2.2792683,7.3094602,6.6965480,-28.5038166,-40.2977104,-21.5801525
3420,18.1886578,-2.9376705,9.0260944,121.3206100,94.3969498,-221.5877838,-3.0071020,7.1442614,6.5672617,-21.8625946,-36.7251892,-22.0763359
3430,13.6229382,-6.5385313,1.6352314,173.5114441,66.6946564,-249.6259613,-3.6224086,6.8976598,6.4810710,-15.1832066,-30.4045811,-22.6870232
3440,10.9653873,-8.6310530,-4.5393834,180.0458069,40.2977104,-250.1374054,-4.3430595,6.6702118,6.0788469,-8.1984730,-24.0839691,-21.6183205
3450,9.1745338,-9.2152348,-8.8920193,152.4122162,29.0458012,-238.7175598,-4.9080882,6.4427638,5.5832496,-3.5267177,-18.8244267,-18.5877857
3460,8.5376797,-8.4059992,-10.3692341,101.1297684,31.7099228,-221.3740387,-5.3318601,6.6773944,4.9942794,-2.3053436,-16.4503822,-16.3511448
3470,8.9925756,-6.9934273,-8.8345594,52.4045792,47.8091621,-209.4732819,-5.2839761,6.9790621,4.6806402,-4.2824426,-16.8091602,-12.1526718
3480,8.7100611,-5.5497313,-6.4738884,20.7404575,71.3740463,-202.6335907,-4.8673873,7.4052281,4.6878228,-8.0000000,-17.9007626,-6.9541984
3490,8.0444765,-4.2520804,-4.6614871,6.6106873,97.3206100,-192.7633514,-4.2975702,7.4650826,4.9272418,-11.7862597,-18.7404575,-4.4198475
3500,7.1059542,-3.4835455,-3.5745249,8.5954199,122.0610657,-176.6488495,-3.5577655,7.4363523,5.3869262,-12.7633591,-17.0687027,-2.2213740
3510,5.3055239,-1.8578910,-3.5290353,19.8625946,140.6412201,-148.4885559,-3.0980811,7.4650826,5.7029591,-11.0305347,-12.2900763,-2.9312978
3520,4.6399393,0.0263361,-4.0413918,34.9389305,144.2595367,-113.2290039,-2.6048782,7.6254935,6.0932121,-6.1755724,-3.2748091,-3.1755726
3530,5.7316895,1.7238164,-4.6207857,47.5267181,140.9694672,-83.0229034,-2.3894010,7.7164726,6.3039007,0.9541985,7.5496182,-4.3664122
3540,7.8816719,3.3925664,-5.6191626,50.8549614,143.2061005,-62.3358765,-2.3175755,8.0229292,6.1794028,8.8625956,17.8625946,-5.8244276
3550,9.5025377,4.9990678,-6.7899213,41.4122124,156.3282471,-56.1679382,-2.4061604,8.5209198,5.8394279,13.9923668,26.2671757,-6.2366414
3560,10.5080976,6.9790621,-7.5656385,19.2519093,176.2519073,-60.5877876,-2.2888451,8.7220325,5.3821378,16.3740463,28.8625946,-3.7022901
3570,10.3045912,8.1306677,-7.2783360,-5.6183205,193.9923706,-72.1221390,-1.8124014,8.6741486,5.0541339,14.6946564,27.6412220,-3.0763359
3580,8.8201942,8.6118994,-5.9974446,-21.0229015,199.0610657,-81.0381699,-1.3646880,8.7747040,5.2408805,11.7709923,25.3740463,-5.5496182
3590,8.0684185,8.4730368,-4.1180058,-19.8702297,183.6641235,-81.9847336,-1.0438666,9.0620070,5.5018473,9.0916033,23.4732819,-9.0458012
3600,8.1402445,8.1115141,-2.9855542,-8.5038166,158.3282471,-77.8473282,-1.1635761,9.2631187,5.8298512,7.2213740,22.8396950,-12.1374044
3610,9.1912937,8.3485384,-2.7509236,0.0763359,144.1832123,-69.6183243,-1.4101776,9.5216913,6.0644817,4.7328243,21.9923668,-14.1984730
3620,10.5152798,9.7204094,-3.7947903,-1.9694656,150.0458069,-65.9160309,-2.0590029,9.4091644,6.7061248,3.3435113,17.2290077,-14.8778629
3630,10.9342632,10.5679522,-4.4747400,-11.7404585,158.4580078,-78.4122162,-2.7102225,9.4762020,7.1753860,2.1603053,9.9007635,-13.8396950
3640,9.4211359,11.3197279,-3.6319854,-20.6641216,141.0305328,-95.2519073,-3.2034254,9.1817169,7.5656385,2.3969467,2.3969467,-10.5877867
3650,7.6398587,11.5591469,-1.2090657,-15.2366409,103.0305328,-108.1526718,-3.4308734,9.0667953,7.7380204,4.5801525,-3.3053436,-4.3740458
3660,7.6350703,11.1042509,0.0598547,47.5648842,34.8320618,-95.9312973,-2.7652888,8.0444765,7.4339581,15.7328243,-4.3206105,9.2137403
3670,8.4059992,11.0515785,-1.8219782,55.8320618,31.1068707,-97.2748108,-2.6000898,7.8816719,7.0030041,18.1984730,-1.1374046,11.0687027
3680,8.4203644,11.0013008,-3.1435707,54.1374054,29.4961834,-101.4045792,-2.7030399,7.6757712,6.6845770,19.3358784,-1.0763359,10.8625956
3690,8.0540533,10.6972389,-3.6176202,48.1832047,25.5877857,-104.6717529,-2.7844424,7.5464849,6.2847471,18.3358784,-3.5725191,10.3740454
3700,7.3980455,10.3021975,-3.3805954,44.9160309,16.4732819,-105.2290039,-2.9185169,7.3741035,6.0357518,15.9160309,-6.2519083,10.4809160
3710,7.2807302,9.9598284,-2.8897867,45.8549614,3.2595420,-107.3129807,-2.9304879,7.3214312,5.7747850,13.3893127,-7.9083967,10.3511448
3720,7.4387465,9.4762020,-2.4301023,49.2977104,-6.2442746,-113.8549652,-3.0286496,7.2472115,5.7819676,10.3893127,-9.9770994,10.4961834
3730,7.0772243,8.7651272,-2.3822186,53.0458031,-13.6870232,-122.8625946,-2.9903426,7.3238254,5.7053533,7.9694657,-11.1526718,11.5648851
3740,6.1817970,7.9199786,-2.5186872,56.2519073,-23.5267181,-131.6641235,-2.9664006,7.3525558,5.7149301,5.4503818,-11.4274807,12.0610685
3750,4.9679432,7.2543941,-2.5953014,57.7633591,-35.1603050,-138.1832123,-2.8897867,7.3310080,5.5186067,3.3435113,-11.0229006,13.5419846
3760,3.6176202,6.3350253,-2.4779861,58.0992355,-48.6106873,-141.8931274,-2.7413468,7.3190370,5.5018473,1.5419847,-9.4503813,15.2977095
3770,2.3894010,5.5497313,-2.1715298,58.5343513,-61.2366409,-142.3893127,-2.5761478,7.3046722,5.4372044,-0.7480916,-6.8015265,16.3053436
3780,1.1923064,4.9751258,-1.7836711,58.3969460,-69.6335907,-139.6793823,-2.4037662,7.3286138,5.4252334,-3.3358779,-5.3664122,16.2442741
3790,0.0478838,4.0868812,-1.4101776,58.3129768,-73.3435135,-133.0152740,-2.4205256,7.3142486,5.5784616,-5.8702292,-5.0763359,16.2137413
3800,-0.8738791,3.5912843,-1.2162483,56.9007645,-73.2748108,-122.1450348,-2.4013720,7.3190370,5.7197185,-7.9694657,-5.7557254,15.7022905
3810,-1.6831152,3.1387823,-1.2713146,53.3206100,-69.9847336,-108.9847336,-2.3008161,7.2711535,5.8921003,-9.7099237,-7.5496182,15.3816795
3820,-2.1260402,2.9113343,-1.2593436,47.9618340,-65.9847336,-96.0687027,-2.2098370,7.3357964,5.9615316,-10.4961834,-8.6641226,14.4198475
3830,-2.6934631,2.8682389,-1.5466464,39.4122124,-61.3664131,-84.0534363,-2.1691356,7.3717093,5.9950504,-10.6793890,-8.9160309,13.2137403
3840,-2.7365584,2.9161227,-2.0685797,24.3206100,-58.9389305,-73.7404556,-1.9967541,7.4770536,6.0070214,-9.9236641,-7.9541984,13.1374044
3850,-2.9161227,2.7293761,-1.9871773,7.8244276,-56.1755714,-64.9465637,-1.9297167,7.6015515,5.9782910,-9.0229006,-5.7862597,10.9847326
3860,-3.7516949,2.6240315,-1.2473727,0.2442748,-62.1832047,-53.0534363,-1.9416877,7.7882981,5.7795734,-8.9847326,-5.0076337,9.7328243
3870,-4.0389977,2.6934631,-0.4884146,9.6412210,-96.8702316,-42.5725174,-1.9488702,7.9463148,5.7484488,-10.0687027,-5.2595420,9.0000000
3880,-4.0246325,3.2800395,0.6871324,37.5496178,-161.9694672,-38.0610695,-1.7262106,8.2384062,5.5233951,-11.3206110,-6.5038166,8.0992365
3890,-3.9049230,4.1180058,1.2617378,79.4351120,-241.6335907,-36.5954208,-1.4245427,8.6382351,5.4300218,-14.0687027,-8.0992365,7.1679387
3900,-3.5098817,5.3103123,0.7421987,122.8473282,-250.1374054,-33.7938919,-1.2186425,8.9662399,5.5138183,-17.6259537,-10.6106873,5.7404580
3910,-2.6599445,6.5121951,-1.5107336,151.8473358,-250.1374054,-29.0610695,-0.9744351,9.1649570,5.7891502,-21.5114498,-13.2061071,5.8473282
3920,-2.2218077,8.0803890,-4.3717899,155.4503784,-250.1374054,-24.4961834,-0.6967092,9.1194677,6.0405402,-24.1297703,-14.9465647,6.3053436
3930,-2.3678534,9.1817169,-6.8545642,139.0152740,-250.1374054,-14.7022905,-0.4620786,9.0500364,6.7827387,-23.2671757,-15.1450386,5.0076337
3940,-2.4109488,10.1681223,-8.6693602,105.5648880,-226.8854980,3.9770992,-0.4261657,8.9087791,7.1825686,-17.3969460,-14.2671757,1.9770992
3950,-2.7724714,10.9510221,-9.6222477,65.7786255,-152.2366486,25.7938938,-0.4501076,8.8585014,7.2950954,-8.5343513,-12.4198475,-0.3816794
3960,-3.2584918,12.0188313,-9.3349447,33.3053436,-86.5190811,46.9236641,-0.4836263,8.9422979,6.9239960,-0.3358779,-10.6564884,-2.6564887
3970,-3.6535332,12.7706070,-8.4443064,17.2061062,-40.8320618,65.1984711,-0.6105183,9.0883436,6.3206601,5.5801525,-9.8702288,-4.1526718
3980,-3.7612717,13.1010046,-7.6374645,19.7328243,-22.9465656,78.1984711,-0.5003856,9.1434097,5.7005649,8.0763359,-9.0076332,-5.5877862
3990,-3.3111639,13.5295649,-7.0389171,39.4656487,-31.7099228,84.3358765,-0.5578461,9.0404596,5.1642666,7.8854961,-7.5038166,-6.1068702
4000,-2.8921809,13.8671455,-7.4962072,67.4351120,-55.2824440,84.3129807,-0.6895266,8.9973640,4.9942794,5.4656487,-5.6412215,-7.5038166
4010,-2.7940190,13.8623571,-9.0931320,88.0763321,-80.0610657,80.1755753,-0.9433106,8.8345594,4.8889351,1.6564885,-4.0763359,-9.4656487
4020,-3.0094962,13.5535069,-9.8281479,99.0305328,-97.8702316,76.8931274,-1.3718705,8.5999289,5.2432747,-2.6793892,-3.1450381,-11.1145039
4030,-3.3901722,12.7753954,-9.8544836,102.3816757,-103.5267181,77.2595444,-1.8124014,8.5616217,5.6957769,-4.5572519,-3.0916030,-10.5801525
4040,-3.9623835,12.1265697,-9.3229742,104.4580154,-99.8549652,81.7251892,-2.1380112,8.3676920,6.2847471,-3.5190840,-2.1908398,-8.7175570
4050,-4.8554163,11.2814207,-8.7340031,106.4045792,-91.4503784,90.6870193,-2.2409613,8.3581152,6.4643116,-0.4503817,0.0381679,-4.0229006
4060,-5.7388721,10.4314833,-8.6310530,104.5725174,-78.8396912,105.2442780,-2.1906834,8.2982607,6.2871413,2.4732823,2.3893130,0.0305344
4070,-6.8832946,10.1896706,-8.2024927,102.5190811,-70.9312973,123.4580154,-1.8794388,8.3461447,6.1219425,4.0839696,4.3129773,4.9847326
4080,-7.7404146,9.3421268,-7.6901364,100.8625946,-70.8778610,144.5343475,-1.3072275,8.2288294,5.9567432,3.9312978,5.1068702,8.4427481
4090,-7.8505473,8.8273764,-6.7061248,103.0305328,-80.0687027,168.0839691,-0.7805058,8.0732069,5.7412663,2.0992367,5.4427481,8.5190840
4100,-7.3788919,8.7172441,-5.7939386,113.3282471,-88.3206100,188.7099304,-0.5626345,7.9367380,5.7101417,-1.0687023,2.8320611,6.4045801
4110,-7.5225434,8.9638453,-5.7388721,124.7709961,-86.4045792,206.6564941,-0.4094064,7.8337879,5.8250628,-4.4961834,-2.2900763,2.8778627
4120,-7.8720951,8.8968077,-6.1003947,129.9389343,-84.3893127,227.1603088,-0.4644727,7.7452030,6.0429344,-7.2213740,-8.0381680,-1.0381680
4130,-7.0844064,8.5233145,-6.3637557,129.9389343,-75.9465637,245.6488495,-0.5841822,7.6901364,6.1003947,-8.4885492,-12.5572519,-6.4351144
4140,-6.8665352,8.0636301,-6.6342988,128.1068726,-69.5648880,250.1297760,-0.8092360,7.5823979,6.0572991,-9.1908398,-14.2442751,-11.0610685
4150,-6.7875271,6.7587967,-7.3717093,121.7404556,-79.5496216,250.1297760,-1.3455344,7.1705976,6.0189924,-9.0839691,-13.4198475,-15.7404585
4160,-5.4898763,5.1451130,-7.1562324,117.9465637,-114.9160309,250.1297760,-1.8650736,6.8617468,6.0453281,-8.1374044,-12.7480917,-20.2213745
4170,-3.7157819,3.3805954,-6.7947097,122.0457993,-163.1221313,250.1297760,-2.6264257,6.6654234,6.0070214,-6.5419846,-11.3282442,-24.8778629
4180,-1.0271072,-0.0191535,-5.9854736,133.4732819,-218.4885559,250.1297760,-3.4380560,6.4714942,6.0596933,-3.5877862,-9.3282442,-26.5267181
4190,2.5306582,-3.7038112,-4.4914994,153.8396912,-250.1374054,249.7633514,-4.2448978,6.4523406,5.9519548,0.0076336,-8.9618320,-25.0458012
4200,7.8050575,-7.8984308,-2.4444675,186.6106873,-250.1374054,205.1526642,-4.4699516,6.5337429,5.6502872,2.6106870,-7.7709923,-22.5114498
4210,12.3157110,-12.8544035,-1.4963684,219.5572510,-226.8320618,148.3969421,-4.5848727,6.4906478,5.2648225,3.5496182,-7.5114503,-19.0610695
4220,14.1281118,-16.9628315,-3.2920105,228.3282471,-150.0076294,97.7328262,-4.4364328,6.4762826,4.9823084,1.4961832,-8.6946564,-15.6259546
4230,12.8376436,-19.6131992,-5.4970589,209.7786255,-65.1068726,82.2595444,-3.7684543,6.5888095,4.6806402,-1.8549619,-9.4198475,-13.8320608
4240,11.4107065,-19.6131992,-4.6590929,197.2671814,17.8320618,118.4045792,-3.3351059,6.5385313,4.9176650,-4.4427481,-9.5877867,-13.7480917
4250,10.3452930,-19.6131992,-4.4986820,223.6335907,115.0305328,193.2595367,-2.7557120,6.8042865,4.9990678,-5.2519083,-6.6717558,-15.5343513
4260,11.2862091,-17.1160603,-9.8018112,239.2519073,175.6488495,250.1297760,-2.5354466,6.8737178,5.4419928,-2.7709923,-2.6106870,-17.1603050
4270,14.4728756,-9.6629486,-16.1799316,188.1145020,179.3206177,250.1297760,-2.2026544,7.2017217,5.4587522,1.0152671,3.0305343,-18.1221371
4280,19.6126022,-3.3231349,-18.1886578,89.0457993,154.9160309,250.1297760,-2.0278785,7.5321202,5.2887645,4.1374044,8.4045801,-20.2671757
4290,19.6126022,2.1164634,-12.2247314,9.0152674,133.6259613,222.8778687,-1.7956421,7.9941988,4.8673873,5.2748094,12.0763359,-20.6641216
4300,19.6126022,6.5816269,-6.6366930,-16.3816795,127.1145020,85.5038147,-1.6088953,8.5185261,4.6447277,4.2824426,14.3511448,-23.0229015
4310,19.6126022,5.6454988,-7.0700417,-22.3816795,148.8244324,-64.8015289,-1.4820032,8.8177996,4.4555864,1.1145039,15.8015270,-23.7175579
4320,19.6126022,1.1683644,-10.6182299,-48.3358765,197.7328186,-200.0534363,-1.8028246,8.8992023,4.3143296,-4.7099237,15.5038166,-26.0305347
4330,19.6126022,-5.2384863,-14.3507719,-93.1068726,250.1297760,-250.1374054,-2.1212518,8.8441362,4.5824785,-11.8244276,13.1145039,-27.1221371
4340,12.8927097,-11.2431135,-17.3937855,-142.9236603,250.1297760,-250.1374054,-2.7269819,8.8154058,5.0708933,-18.1297703,9.9694653,-26.6564884
4350,6.5888095,-15.1719790,-18.3490677,-186.1297760,250.1297760,-250.1374054,-3.0094962,8.8513184,5.6215568,-22.2061062,7.2900763,-24.2442741
4360,3.0932927,-16.0482521,-16.4863892,-209.9847260,214.5954132,-250.1374054,-3.0621684,8.8441362,6.2536230,-24.1221371,4.6641221,-21.0839691
4370,2.0518203,-15.6101151,-11.1712875,-203.5496216,124.0305328,-250.1374054,-3.1579359,8.6358414,6.8282285,-23.1832066,4.3435116,-17.8015270
4380,3.1507533,-13.7187052,-6.3541789,-171.1908417,48.3282433,-250.1374054,-3.2297616,8.4826136,7.5105724,-20.2366409,5.7404580,-13.9847326
4390,4.1874375,-9.9861641,-3.8426740,-133.0229034,23.9160309,-235.7328186,-3.2393384,8.3652983,7.6901364,-16.0610695,7.9160304,-11.4045801
4400,5.1977854,-5.7532372,-3.8115497,-107.6488571,51.0763359,-218.4503784,-3.3087699,8.1354561,7.8026633,-11.7480917,8.8778629,-8.8473282
4410,6.0285692,-3.3566537,-4.7859845,-99.3816757,103.2213745,-209.0534363,-3.3566537,8.1019373,7.8744893,-7.6641221,8.5954199,-6.1908398
4420,6.0668759,-0.8786675,-6.3134775,-98.7709961,158.8167877,-204.5190887,-3.3231349,8.0325060,7.8337879,-3.9007633,6.8778625,-3.2290077
4430,5.2528515,0.4860204,-7.7882981,-104.4809189,200.5801544,-199.4580078,-3.1507533,8.0947542,7.6973190,-1.4122137,4.7404580,-1.7251909
4440,3.7421181,2.9376705,-8.6573887,-111.4885483,236.5343475,-189.6564941,-3.1531475,7.9534974,7.5225434,-0.4503817,1.2290076,-0.5725191
4450,1.8339491,5.4300218,-8.8489246,-111.5725174,250.1297760,-174.2442780,-2.9280937,7.9271612,7.3621325,-0.4122137,-2.8015268,-0.2671756
4460,-0.0909792,8.2910776,-8.5472565,-104.0076370,240.4656525,-152.0839691,-3.0406206,7.7859039,7.2974896,-0.1221374,-6.6488547,1.0992366
4470,-0.6991033,10.6613255,-7.2735476,-85.6412201,200.4732819,-128.1832123,-2.9903426,7.6781654,7.2328463,0.6259542,-9.7557249,1.1450381
4480,-0.3639168,12.8280668,-6.0453281,-54.3740463,154.4351196,-105.6259537,-2.9137285,7.6230993,7.1945391,1.7709924,-12.2519083,1.9618320
4490,0.6703730,13.8719339,-6.1051831,-21.2595425,116.4732819,-81.3893127,-2.7988074,7.8098459,7.0173693,1.8396946,-13.1832066,2.5954199
4500,2.6862805,14.8798876,-7.7715387,2.9923663,100.9542007,-63.1984749,-2.9687948,7.6638002,6.8521700,1.5954199,-13.4198475,3.6412213
4510,3.8330972,16.1081066,-9.4043760,14.2213745,89.2137375,-50.1603050,-2.7868366,7.7021074,6.7540083,1.7557251,-13.8091602,5.2977099
4520,5.4467812,16.9939575,-10.4937325,15.9007635,77.7862625,-45.7557259,-2.6479735,7.7643566,6.6941538,1.1526718,-13.1221371,6.8244276
4530,6.6558466,16.9843807,-10.9294748,14.5038166,65.2290039,-49.5954208,-2.4564383,7.7284436,6.5528965,0.5343512,-12.5038166,8.4122133
4540,7.4459291,16.4313221,-11.0635490,16.2442741,35.7099228,-60.5267181,-2.2409613,7.6901364,6.5505023,-0.3664122,-11.4427481,8.4198475
4550,7.6350703,15.4688578,-11.1042509,20.0229015,-8.8549614,-76.9160309,-2.0781565,7.6877422,6.6007805,-1.4580153,-10.6870232,8.3358774
4560,7.5895805,13.8719339,-10.6637201,24.0458012,-61.4961815,-96.5648880,-2.1068866,7.6973190,6.6103573,-2.0610688,-11.5801525,7.6412215
4570,7.0724359,12.3324699,-9.9933472,25.4809170,-105.5877838,-114.4809189,-2.0374553,7.5416965,6.7875271,-1.8015267,-12.5190840,6.2519083
4580,6.1674318,10.3548698,-9.1122847,20.2595425,-129.3053436,-126.3435135,-1.9943599,7.4507174,6.6917596,-0.4580153,-13.2061071,5.9312978
4590,4.9416070,8.5735922,-7.7547798,10.9236641,-129.1374054,-128.6183167,-1.9704180,7.4531116,6.6366930,1.4274809,-13.1832066,4.8167939
4600,3.5362179,6.7133074,-6.0046272,0.5801527,-112.7251892,-121.3358765,-1.8578910,7.4555058,6.4930420,3.1221373,-12.9541988,3.1679389
4610,2.5450234,5.4372044,-4.4579806,-8.8931293,-90.0000000,-108.2213745,-1.7980363,7.6063399,6.3469963,4.1908398,-12.4351149,1.3587786
4620,1.5753766,4.2257442,-3.4859397,-17.8854961,-60.3282433,-92.3969498,-1.7453641,7.6973190,6.1291251,4.5267177,-12.0916033,0.6717557
4630,0.5434810,3.1315999,-2.6527619,-29.1450386,-28.9541988,-72.9694672,-1.8004304,7.7140784,5.9687142,3.8015268,-12.1832066,-0.4045801
4640,-0.5339043,2.9424589,-1.9584470,-42.9694672,-7.9847326,-48.0381660,-1.7070571,7.7452030,5.6766233,2.3969467,-11.4580154,-2.0916030
4650,0.0239419,2.5354466,-1.7429699,-62.4961815,13.0687027,-21.9160309,-1.6711442,7.7978749,5.6095858,0.9160305,-9.9312973,-3.4198472
4660,0.4836263,2.3510940,-0.3854645,-79.7633591,43.7786255,-5.7404580,-1.6256547,7.7212610,5.6646523,-0.8473282,-7.2671757,-5.1908398
4670,0.5554519,1.9416877,0.9217629,-90.0000000,71.0381699,11.6717558,-1.6472024,7.7045016,5.7747850,-2.6030533,-5.4961834,-6.6641221
4680,1.6495966,0.3758878,2.2816625,-89.0000000,83.1679382,14.9923668,-1.9177457,7.7188668,5.9902620,-3.8396947,-3.6183207,-8.7404585
4690,2.4277081,0.2609667,3.2991931,-74.3206100,104.0839691,8.5877867,-2.1978660,7.6973190,6.1434903,-3.5801528,-2.4503818,-9.5725193
4700,1.9632354,1.0702027,3.0765336,-59.2977104,113.7328262,4.6259542,-2.3343346,7.6949248,6.3565731,-2.9618320,-2.0610688,-9.6488552
4710,2.3534882,1.3551112,1.9871773,-51.0076332,121.7175598,1.7404580,-2.5043221,7.6853480,6.4212160,-1.9389313,-2.0687022,-9.1908398
4720,2.6719155,1.3359578,1.1899122,-49.6030540,133.7557220,-4.1297708,-2.5617826,7.6039457,6.3733325,-1.1145039,-2.4045801,-9.3282442
4730,3.1052637,1.7740943,0.5746055,-50.4580154,144.0000000,-12.4045801,-2.6814921,7.5895805,6.3517847,-0.6870229,-2.9465649,-9.3740454
4740,2.9664006,2.1811066,-0.3854645,-52.7328262,145.6793823,-22.7633591,-2.8323262,7.6278877,6.1698260,-0.9618320,-4.0458016,-9.7404585
4750,2.8155668,2.7748656,-1.1252691,-54.2595406,137.0992432,-32.0000000,-2.9496415,7.5871863,6.2943239,-1.4809160,-4.9389315,-9.7175570
4760,3.6918402,3.8714044,-1.4676381,-52.0992355,127.0763321,-43.4656487,-3.2273674,7.6230993,6.3829093,-1.9694656,-5.8167939,-9.5038166
4770,3.1244173,5.0230093,-1.7932479,-46.5572510,114.7786255,-58.4503822,-3.2465210,7.7284436,6.3685441,-1.8320611,-5.9312978,-7.0381680
4780,1.7788827,5.8513989,-2.5402350,-42.5038185,95.0152664,-62.8931313,-3.2800395,7.7068958,6.3996682,-1.0687023,-4.8931298,-5.0381680
4790,0.6416427,7.0365229,-3.2225790,-39.3282433,71.7022934,-57.2290077,-3.1292057,7.7499914,6.2129216,-1.1145039,-3.3282442,-2.2213740
4800,0.5458752,8.4538832,-3.5697365,-33.9389305,46.9007645,-44.9083977,-3.0837159,7.7763271,6.2224984,-1.3435115,-1.5801526,-0.5648855
4810,1.5993185,10.7163916,-3.6726866,-28.7557259,29.4580154,-34.9694672,-2.9711890,7.7404146,6.2584114,-1.7633588,-0.3358779,0.7633588
4820,2.7772598,13.0650921,-4.1036406,-25.1679382,28.5954189,-30.7786255,-2.8562679,7.8529415,6.2344694,-2.0076337,0.2366412,1.4427481
4830,2.8514795,14.4752693,-4.9128766,-23.0381680,27.8015270,-30.1145039,-2.7461352,7.8768835,6.1770086,-2.2824428,0.0076336,1.0916030
4840,2.0518203,15.9213600,-5.4491754,-21.3282452,24.9236641,-28.0916023,-2.6120608,7.8673067,6.1506729,-2.6183207,-0.9694657,2.1603053
4850,1.3096216,16.7545376,-5.6526814,-16.0152664,21.1145039,-23.8167934,-2.5258698,7.8337879,6.1746144,-2.9465649,-1.7938931,2.4580152
4860,0.7230452,16.7760849,-5.7005649,-5.9770994,7.2824426,-20.5267181,-2.3534882,7.8170285,6.1027889,-3.3282442,-2.0839694,3.1908398
4870,-0.9217629,16.0267048,-4.4196739,15.9541988,-25.6259537,-25.7175579,-2.1404054,7.7978749,6.1387019,-3.3129771,-1.7175573,2.4122138
4880,-2.3415172,16.1152897,-3.1220231,49.5801544,-64.3206100,-18.2213745,-2.0518203,7.8912482,6.1506729,-3.0305343,-0.5877863,1.9923664
4890,-2.4468615,16.1919041,-3.6224086,88.0992355,-93.0229034,-10.1603050,-2.0374553,7.8577299,6.1315193,-2.8854961,0.3816794,1.1450381
4900,-2.0805507,15.5765963,-5.2504573,118.6183243,-101.2824402,-8.0992365,-2.0422437,7.9463148,6.1147599,-2.9083970,0.8854962,0.9770992
4910,-1.7142396,13.9485474,-7.3453732,131.9236603,-99.1984711,-10.0305347,-2.1643472,7.9630742,6.1315193,-2.9312978,1.5190840,0.3740458
4920,-4.1898317,13.4457684,-8.4467001,135.1984711,-93.4885483,-6.0610685,-2.1451938,7.9630742,6.1698260,-3.0839694,1.8015267,0.2595420
4930,-7.1107426,13.9341822,-9.6461897,126.0152664,-85.5572510,12.4885492,-2.1308286,7.9271612,6.2823529,-3.8091602,1.3893130,0.2137405
4940,-11.2455082,14.1855726,-8.8585014,115.7175598,-73.2213745,65.8320618,-2.0757623,7.8697009,6.4164276,-3.9923663,0.9618320,0.2671756
4950,-10.2782555,11.9757357,-8.6837254,103.2900772,-74.5801544,128.6641235,-1.9488702,7.9032192,6.4762826,-3.5419848,0.4198473,0.0610687
4960,-5.8226686,8.6190825,-7.4938130,93.6870193,-76.7633591,168.1679382,-1.9009864,7.7954807,6.6438756,-2.3969467,-0.0763359,-0.8396947
4970,-3.3662305,8.0277176,-6.0692701,92.1068726,-65.3587799,183.6870270,-1.9033806,7.8768835,6.6678176,-1.0152671,-0.6488550,-2.1679389
4980,-3.4021432,8.0157461,-4.4100971,102.4427490,-47.8473282,193.9084015,-1.7717001,7.8457589,6.6702118,0.6641222,-1.2519084,-3.2900763
4990,-4.0246325,7.5057840,-3.1866663,121.8625946,-38.3282433,206.8015289,-1.6065011,7.7595682,6.5217719,1.8396946,-1.7709924,-4.9770994
5000,-4.5752959,6.7348547,-3.1387823,146.1679382,-35.0992355,226.2137451,-1.5155219,7.7068958,6.3948798,2.3053436,-0.2824427,-7.5038166
5010,-4.1970143,5.8992829,-3.7684543,169.9160309,-31.2061062,244.8931274,-1.6065011,7.7978749,6.3805151,2.0763359,1.0839695,-10.1832066
5020,-1.8746504,6.0094156,-4.0485744,193.6717529,-21.1832066,250.1297760,-1.8866212,7.8936424,6.4116392,2.1297710,0.9083970,-12.6488552
5030,0.1029501,5.9495606,-5.7987270,212.5648804,-15.8854961,247.5801544,-2.0709739,7.9487090,6.4667058,1.6717557,-1.6641221,-13.4885492
5040,1.5418580,6.1602492,-7.8625183,220.0686951,-20.2671757,227.4961853,-2.2265961,8.0301113,6.4762826,1.3740458,-4.5114503,-14.1526718
5050,2.8419030,5.6957769,-8.3533268,214.8091583,-46.5419846,194.2977142,-2.2840567,8.0157461,6.5361371,0.9389313,-7.0534353,-13.9007635
5060,5.4228392,2.9161227,-8.3413563,200.6488495,-93.1679382,145.4045868,-2.2744799,8.0013809,6.4379754,0.6259542,-9.1755724,-14.5877867
5070,8.4490948,-0.3447633,-7.7882981,178.7251892,-137.8549652,79.2671738,-2.1044924,7.9965930,6.4643116,0.2900763,-11.3587790,-15.1450386
5080,17.2764702,-18.0641594,6.5768385,104.0610657,-216.8396912,-78.9847336,-1.9776005,7.8864598,6.4451580,1.2137405,-8.9847326,-17.2442741
5090,19.6126022,15.8543224,3.2106080,-106.4580154,-10.2213745,-174.7404633,-1.7884595,8.3198080,6.5289545,-0.6106870,-15.0229006,-10.2442751
5100,19.6126022,5.7197185,0.4261657,-38.9160309,22.1603050,-250.1374054,-1.6831152,8.3269911,6.4331870,-4.4198475,-20.6412220,-11.9160309
5110,9.7012558,-5.3222833,-7.3717093,1.1679389,-74.8167953,-229.8778687,-2.4013720,7.7882981,7.0868006,-14.6717558,-34.1679382,-18.4274807
5120,10.8265247,-5.3749552,-7.1322904,-2.4351146,-95.5954208,-196.5496216,-2.8658447,7.5776095,7.3453732,-14.6106873,-35.0687027,-18.9847336
5130,11.6213961,-5.2911587,-7.6638002,-12.8854961,-88.9389343,-183.5038147,-3.4117200,7.1993275,7.5919747,-11.5801525,-34.6106873,-19.1603050
5140,11.6309719,-4.4986820,-8.8130112,-37.2900772,-60.5038185,-186.6106873,-3.9456241,6.8306227,7.6278877,-6.2366414,-32.0152664,-17.5648861
5150,10.7834291,-3.2513094,-8.8656836,-75.3129807,-30.1221371,-199.2137451,-4.1012464,6.6055689,7.5345144,0.7099237,-26.1984730,-16.0152664
5160,9.1960821,-1.2832855,-8.4107876,-112.1526718,4.0763359,-201.8473358,-4.2209558,6.3685441,7.1035600,8.3358774,-18.4198475,-13.5038166
5170,7.5225434,-0.2130829,-8.2862902,-146.2519073,47.9923668,-195.0534363,-4.4244623,5.9974446,6.4547348,14.3206110,-7.1908398,-10.4580154
5180,5.9423780,0.5147507,-7.9127960,-174.8396912,95.7633591,-182.6946564,-4.5776901,5.9016771,6.0022330,16.9923668,3.4198472,-8.5496187
5190,4.5537481,2.0087249,-7.9511032,-189.1832123,134.7557220,-166.9313049,-4.8482337,5.9304070,5.4970589,16.8244267,10.3206110,-6.2900763
5200,2.6192431,3.2201848,-9.4355011,-193.8625946,154.9084015,-145.3816833,-4.9463954,5.9280128,5.3869262,13.8854961,11.7480917,-3.9923663
5210,1.7262106,4.4316444,-10.5296450,-196.0076294,166.7328186,-122.6793900,-4.9440012,6.1650376,5.4372044,9.9618320,6.3816795,-1.9694656
5220,1.6519908,5.8585815,-11.1928358,-198.9541931,165.3358765,-105.6564865,-4.7668314,6.4523406,5.5114241,5.7099237,-2.5419848,-0.5954198
5230,1.3646880,7.2735476,-10.9629936,-201.5114441,159.6793823,-95.2137375,-4.3909435,6.6342988,5.6143742,2.4045801,-12.1832066,2.0992367
5240,1.6974803,8.5664101,-10.3428984,-201.0915985,145.5038147,-91.0992355,-3.6774750,6.6055689,5.8561873,1.1603054,-17.7251911,4.0152674
5250,1.8650736,9.8975792,-9.6916790,-198.3358765,129.6106873,-89.3969498,-3.1842721,6.6582408,5.7987270,1.9465649,-18.6335869,4.9236641
5260,1.5059452,11.6477318,-8.2000990,-190.0915985,108.7633591,-87.0229034,-2.6312141,6.7827387,5.6550756,3.1297710,-16.6564884,4.8931298
5270,0.5961532,13.1033993,-7.6039457,-173.9160309,82.4732819,-83.6030502,-2.1188576,6.8665352,5.4635406,3.7633588,-13.3664122,4.7633586
5280,1.3215926,12.8496151,-6.8617468,-154.9465637,68.7938919,-81.8167953,-1.7381816,7.0820122,5.3390427,4.0229006,-7.9541984,3.5419848
5290,1.5394639,12.2319136,-5.5449429,-133.9084015,71.4961853,-80.4961853,-1.4508789,7.2448173,5.1259594,3.4198472,-2.5954199,0.6488550
5300,1.4652439,12.7322998,-5.6526814,-112.7709961,71.9083939,-76.9236679,-1.3215926,7.2807302,5.1403246,2.1526718,2.5190840,-2.6259542
5310,1.3311694,13.3787308,-4.6662750,-95.3893127,72.4274826,-70.2213745,-1.3239868,7.3932571,5.0254035,-0.3206107,6.0229006,-7.0610685
5320,1.2784972,13.2757807,-4.2065907,-80.4198456,72.8015289,-63.7862587,-1.6352314,7.6063399,5.0421629,-4.6717558,6.2900763,-12.0687027
5330,1.2282192,12.7394819,-4.0150557,-68.8167953,66.3358765,-57.6183205,-2.1092808,7.7308378,5.1834202,-10.0687027,4.3893127,-15.7938929
5340,1.2569494,11.7171631,-3.6415622,-58.6183205,54.3053436,-55.4427490,-2.7365584,7.8170285,5.6766233,-14.3129768,0.2900763,-18.2900772
5350,1.2449785,10.7116032,-2.9472473,-48.4580154,37.1068687,-56.7404594,-3.0142846,8.0636301,6.1746144,-16.9541988,-2.8473282,-17.4351139
5360,1.2401901,9.6294298,-1.8554969,-34.8778610,17.7022896,-58.4961815,-3.1268115,8.2431946,6.5505023,-17.8320618,-3.0839694,-15.6564884
5370,1.6615674,8.1713686,-1.0773853,-18.6946564,3.4122138,-62.9465637,-3.4069316,8.2982607,6.8761120,-17.5572510,-2.2748091,-13.8549614
5380,1.6424140,6.8162575,-0.4668669,-0.6641222,4.1068702,-68.2061081,-3.6200144,8.3868456,7.1083484,-17.7404575,-3.2748091,-11.9618320
5390,1.7573351,5.8274570,-0.1364688,17.2137413,20.3587780,-73.9007645,-3.8666160,8.2551651,7.3932571,-16.8091602,-5.9618320,-8.1145039
5400,1.1468167,4.8865409,-0.4189832,28.7251911,46.3435097,-77.0457993,-4.0844874,8.1737623,7.7571740,-15.0152674,-8.6564884,-5.0458016
5410,-0.0766141,3.9192882,-1.0654143,31.4351139,70.1984711,-71.5114517,-4.1611013,8.0995426,8.2072811,-11.4274807,-11.6946564,-0.4503817
5420,-1.5155219,3.2680686,-1.7764885,25.6412220,85.0229034,-54.1603050,-4.1587071,7.9726510,8.2623482,-6.9007635,-12.2290077,5.8549619
5430,-2.2696917,2.9400647,-2.3127871,12.3511448,88.2061081,-30.6488552,-3.8785870,7.9654684,8.2431946,-1.6717557,-10.6488552,11.1145039
5440,-2.2625091,2.9735832,-2.8945751,-7.3435116,79.6335907,-9.0229006,-3.3710186,8.1450329,8.1210909,2.7251909,-8.2213745,14.7709923
5450,-1.2832855,3.1746953,-2.8131726,-30.7557259,68.9160309,5.9618320,-3.0382264,8.1354561,7.9630742,5.9694657,-6.5267177,17.7480907
5460,2.1763182,4.2353210,-2.4995339,-73.5725174,75.8931274,-0.8091603,-2.5569944,8.0444765,7.5847921,6.7328243,-8.1374044,19.7251911
5470,2.3199697,4.0964580,-2.0925217,-92.5725174,88.7633591,-16.1526718,-2.3654592,8.0875721,7.7691450,6.2671757,-10.2213745,19.6335869
5480,2.3079987,4.3095412,-1.6543850,-108.1832047,97.8015289,-30.6030540,-2.2744799,8.0157461,7.9965930,8.0152674,-11.3206110,18.5572510
5490,1.4891858,4.6830344,-1.2737088,-119.0839691,97.0229034,-38.4580154,-2.0829449,8.1665802,8.1306677,11.0381680,-10.1755724,18.8167934
5500,0.7876883,5.3725610,-0.8403605,-124.3587799,91.1526718,-34.5114517,-1.8818330,8.2455883,8.0061693,13.2137403,-8.6641226,18.1221371
5510,1.4484847,6.5193777,-0.4141948,-122.8625946,88.4274826,-25.4427490,-1.6208663,8.5089493,7.8266053,14.1755724,-7.8167939,17.3893127
5520,2.4827745,7.9415264,-0.0742199,-119.0076370,80.9618301,-20.2366409,-1.5681942,8.6933022,7.8481531,13.8320608,-8.3893127,16.0916023
5530,2.9065459,9.0308828,0.2585725,-117.5190811,70.1832047,-21.2519093,-1.5466464,8.7220325,8.0085640,13.6946564,-8.2213745,15.0152674
5540,3.1890604,9.6174593,0.8044477,-118.0076370,55.7862587,-25.8854961,-1.8028246,8.7699156,8.5017672,15.9465647,-8.1603050,13.8015270
5550,3.1723011,10.1561518,1.7094513,-116.2824402,43.1603050,-30.1068707,-2.0685797,8.8010406,8.8273764,20.1755733,-7.1908398,12.4580154
5560,2.6743097,10.8624372,2.7916248,-108.3587799,35.6793900,-29.6717548,-2.1739240,8.8010406,8.9758167,27.0534344,-5.1145039,12.9923668
5570,1.6424140,11.5567522,3.4212968,-93.3435135,24.0687027,-21.9389305,-2.2744799,8.5831690,9.1865053,37.2977104,-2.5038168,13.3893127
5580,0.7972651,12.1792421,3.6224086,-72.8015289,11.2366409,-10.3129768,-2.3127871,8.4179697,8.8297710,48.0305328,0.3511450,12.3435116
5590,0.0622489,12.4856977,3.7971845,-49.2290077,-5.7480917,-0.2442748,-2.4612267,8.2072811,8.3724804,58.3893127,3.1755726,10.5954199
5600,-0.7948709,13.1177645,1.6831152,59.5648842,-53.0228996,23.1908398,-3.1292057,7.3788919,4.7907729,61.4580154,-6.4732823,9.5496187
5610,-1.7836711,12.8998928,1.0582317,79.5419846,-74.9007645,33.8091621,-3.1411765,7.2232695,4.5274124,56.1221390,-10.6641226,11.5725193
5620,-2.4588325,12.6772327,0.5458752,100.7328262,-100.2519073,49.7328262,-2.9376705,6.9168134,4.5513539,51.5648842,-11.4274807,13.6564884
5630,-2.6000898,12.2821922,-0.0837966,122.7251892,-121.3893127,71.7557220,-2.7437410,6.8641410,4.4771342,48.0305328,-9.7938929,16.4274807
5640,-2.1882892,12.0715036,-0.5123565,144.8854980,-135.9770966,90.6335907,-2.5378408,6.6869712,4.4555864,45.3129768,-7.2213740,19.1068707
5650,-1.4197544,11.5950594,-1.2976507,163.4580078,-150.6412201,100.5877838,-2.3103929,6.4547348,4.4651632,43.0916023,-2.2900763,21.9389305
5660,-0.3280039,10.7068148,-2.3247581,180.1755676,-162.0076294,105.0687027,-1.9273225,6.3972740,4.3023586,41.4503822,1.8167939,23.0992374
5670,-0.2561783,9.8185711,-2.7269819,198.0229034,-169.2061005,106.4274826,-1.7405758,6.1913738,4.2712340,40.1679382,4.8091602,24.1068707
5680,-1.6160779,9.3397331,-2.7772598,217.2977142,-183.3664093,112.5877838,-1.5131277,6.2320752,4.0677280,37.8320618,7.0763359,24.1526718
5690,-1.8147956,8.6142941,-2.6360025,240.3587799,-203.3282471,121.4809189,-1.4053892,6.0572991,3.7756367,34.4809151,8.2519083,23.8473282
5700,-2.0015423,8.0348997,-3.3997490,250.1297760,-222.6717529,131.2595367,-1.2856797,6.0525107,3.6870518,30.1068707,6.8625956,22.4961834
5710,-2.8993635,7.4890246,-3.7588775,250.1297760,-242.2977142,146.1297760,-1.0558375,6.1363077,3.3207407,23.8396950,2.3435113,19.9694653
5720,-2.4636209,6.4667058,-4.0940638,250.1297760,-245.4809113,165.8320618,-0.9409165,6.3757267,3.2153964,15.4580154,-6.2290077,17.0839691
5730,-4.2879934,5.2241216,-5.3127065,250.1297760,-234.3282471,196.0686951,-0.8140244,6.5481081,3.2106080,5.4274807,-17.5267181,12.9694653
5740,-5.3701668,4.0006905,-7.0532823,250.1297760,-215.0152740,235.7480927,-0.5889706,6.8162575,3.2273674,-4.2137403,-28.8625946,9.2061071
5750,-5.9136481,3.0956869,-10.2423429,250.1297760,-190.9847260,250.1297760,-0.3567342,6.9527264,3.7828193,-12.2900763,-35.0992355,6.9007635
5760,-4.3215117,2.4348907,-12.9693241,250.1297760,-158.7557220,250.1297760,-0.0454896,7.1394730,4.3981261,-15.5114508,-36.0228996,3.1679389
5770,-3.3398943,2.0925217,-14.6452570,250.1297760,-106.1450348,250.1297760,-0.1125269,7.3980455,4.9559722,-15.0916033,-37.6106873,-1.9007634
5780,-3.2417326,3.5218527,-16.3044300,250.1297760,-64.2595444,250.1297760,-0.4620786,7.5608501,5.6383162,-10.0229006,-39.0610695,-7.9618320
5790,-1.6998745,5.1810260,-17.7481270,214.0458069,-37.1679382,250.1297760,-0.1412572,8.2862902,5.5305777,-3.3358779,-33.6335869,-16.6030540
5800,0.0335187,7.0149751,-18.8805771,156.1984711,-40.0916023,250.1297760,-1.0654143,8.4921904,5.2648225,1.5267175,-32.7557259,-25.6335869
5810,1.5681942,7.5057840,-16.8407288,112.2977066,-63.6793900,237.5725250,-1.6400198,9.2559366,4.7117648,3.2061069,-34.4274826,-29.8320618
5820,3.6319854,6.5959921,-13.5894194,88.5648880,-124.9618301,145.9007568,-2.1930776,9.5623922,4.6064205,4.1374044,-33.6183205,-29.6793900
5830,6.3541789,2.7221935,-8.2503767,87.1450348,-209.1374054,32.9771004,-2.5833304,10.1202393,4.2592630,2.9007633,-32.1297722,-28.8702297
5840,11.9326401,-5.5377603,0.1197095,112.4961853,-250.1374054,-90.0763321,-2.5019281,10.3117743,3.8570392,0.6488550,-31.8778629,-26.4274807
5850,17.3842087,-14.5255470,8.5640154,159.8091583,-250.1374054,-176.9465637,-2.6719155,10.2998028,3.9432299,-1.7786260,-29.1450386,-25.0534344
5860,19.6126022,-19.6131992,14.4680872,223.1679382,-165.7557220,-191.1984711,-2.7221935,10.1824875,4.0677280,-2.3740458,-24.3587780,-21.3969460
5870,19.6126022,-17.8702297,11.2479019,250.1297760,132.0686951,-110.7175598,-2.5306582,10.2782555,4.1156116,-1.6412214,-17.0305347,-16.6335869
5880,19.6126022,-14.6763811,-1.5346755,250.1297760,250.1297760,52.2595406,-2.3223639,10.3141680,4.0054789,-0.8244275,-5.9618320,-14.0458012
5890,15.3323889,-9.1386213,-12.7658186,228.7099304,250.1297760,250.1297760,-2.1571648,10.2734671,3.7780309,-0.8549618,4.8320613,-12.1145039
5900,14.6979294,5.9040713,-19.6131992,72.2977066,250.1297760,250.1297760,-2.2002602,10.1753054,3.8259149,-2.6335878,13.2442751,-9.2061071
5910,19.6126022,17.0705700,-19.6131992,-148.5496216,189.2595367,250.1297760,-2.3103929,9.9861641,3.9001346,-5.1984735,18.7786255,-6.9847326
5920,19.6126022,18.0473995,-15.4137917,-250.1374054,-77.3893127,211.3053436,-2.4827745,9.8042059,4.3119354,-8.2061071,20.5725193,-3.7709923
5930,19.6126022,15.6603928,-2.0733681,-250.1374054,-99.0839691,-41.4198456,-2.3894010,9.6126709,4.6112089,-10.8854961,21.0076332,-0.3053435
5940,19.6126022,9.8568783,1.9776005,-194.5267181,-83.3206100,-250.1374054,-2.4468615,9.2942438,4.8985114,-13.2748089,20.0610695,3.9083970
5950,19.6126022,0.5434810,-0.5243275,-155.6106873,-48.2366409,-250.1374054,-2.2050486,9.0691900,5.1427188,-15.3969469,18.2213745,6.2824426
5960,15.1695843,-8.1091194,-3.2249732,-148.4503784,-12.5419846,-250.1374054,-2.0302727,8.6621771,5.3007355,-17.3435116,15.8320608,7.5496182
5970,7.2735476,-11.2790270,-5.6766233,-160.4122162,1.9694656,-250.1374054,-1.8650736,8.5065556,5.6933827,-17.6946564,12.1832066,9.2595415
5980,4.9272418,-10.4745789,-5.4204450,-164.5954132,-4.9770994,-250.1374054,-1.6136837,8.1498213,5.9423780,-16.6488552,9.3893127,10.1450386
5990,7.2543941,-8.3844519,-4.3382711,-152.1145020,-42.2366409,-205.3969421,-1.6184721,8.1139078,5.8944945,-16.5038166,5.4198475,10.3129768
6000,10.4961262,-6.8449879,-4.5226240,-129.4580078,-74.5114517,-167.4198456,-1.4891858,8.0157461,5.9112539,-16.3664131,-0.6564885,10.8778629
6010,12.5048513,-5.9926562,-4.3502421,-103.7862625,-81.0457993,-167.5267181,-1.1827296,8.0420828,6.0213866,-16.0229015,-5.8320613,12.5343513
6020,14.1041698,-4.7476778,-4.9535780,-86.3740463,-61.8625946,-195.6412201,-0.8068419,7.9750452,5.7939386,-16.0839691,-9.3435116,13.5648851
6030,13.2662039,-3.6463506,-6.6869712,-91.0763321,-24.4503822,-224.2061005,-0.3663110,7.9487090,5.6502872,-17.7862587,-12.1450386,11.5419846
6040,10.4027529,-2.9448531,-8.3916340,-119.7633591,11.5572519,-239.5419922,-0.1244979,8.0348997,5.7723908,-19.6717548,-15.6793890,10.1068707
6050,7.1825686,-1.6639616,-9.9358864,-158.5801544,40.3435097,-237.7480927,-0.0119709,8.0851774,5.7819676,-21.6717548,-18.6030540,9.1526718
6060,3.6535332,-0.2394189,-10.7403336,-196.7251892,47.2671738,-216.7175598,0.2202654,8.1953106,5.8154860,-23.0839691,-19.8854961,8.5954199
6070,1.5155219,0.8882443,-10.7618818,-224.0839691,51.1984749,-189.0229034,0.4429250,8.1402445,5.9208307,-24.8015270,-21.2824421,8.3969469
6080,0.3423691,2.9496415,-9.6677370,-230.3816833,59.9694672,-167.6106873,0.5985473,8.1546097,5.9806852,-25.9618320,-23.4351139,7.0534353
6090,-1.2880739,5.2887645,-9.1481981,-222.0915985,68.8091583,-152.3511505,0.9026094,8.2743187,6.2608056,-25.8625946,-25.8931293,3.7022901
6100,-1.8483143,7.0173693,-9.3995876,-209.6717529,77.8625946,-139.9084015,1.0749911,8.3317795,6.3302369,-24.5877857,-26.2748089,-1.6030535
6110,-1.8147956,8.5472565,-10.1489687,-197.4961853,85.7633591,-133.2442780,1.0702027,8.3509331,6.3230543,-22.8244267,-24.4045811,-7.8625956
6120,-2.9640064,9.6366129,-11.1425581,-189.3893127,85.7328262,-126.9083939,0.8595140,8.1857338,6.3565731,-20.7633591,-20.7786255,-16.2748089
6130,-3.6271970,10.7954006,-11.3604288,-185.7786255,81.1984711,-116.2061081,0.2609667,8.1330614,6.8066807,-16.6412220,-16.4885502,-24.7404575
6140,-4.1826491,11.7770176,-10.1058741,-180.6106873,74.2061081,-102.2900772,-0.5698171,8.2168579,6.8497758,-11.1221371,-10.1755724,-33.5496178
6150,-4.1227942,13.1488886,-8.4874020,-165.5954132,67.8778610,-89.9083939,-1.6902977,8.1330614,6.7420373,-6.8473282,-0.7022901,-38.8778610
6160,-3.1363883,13.9198179,-7.2208753,-143.4198456,59.5648842,-81.5954208,-3.2369442,7.9798336,6.6941538,-3.8702290,6.6564884,-40.8396950
6170,-2.2289903,14.1281118,-6.4571290,-116.3282471,45.3511467,-76.9770966,-4.3622131,7.8337879,6.7899213,-0.2977099,10.1755724,-39.6946564
6180,-1.6998745,14.1161413,-5.8394279,-85.6717529,27.0687027,-72.9083939,-5.1546898,7.7428088,6.8545642,4.9312978,10.6106873,-35.3816795
6190,-0.9241571,13.5678720,-5.1546898,-49.8091621,16.0992374,-72.6259537,-5.4707227,7.5847921,6.7252784,12.1221371,10.5267172,-28.4809170
6200,-0.2849085,12.9980545,-5.1307478,-12.6335878,4.6564884,-75.1450348,-5.5401545,7.4914188,6.3613615,19.7251911,10.6030531,-21.8167934
6210,-0.0023942,12.3612003,-5.1163831,20.2290077,-3.3053436,-78.4809189,-5.3103123,7.4746594,5.5497313,24.1755733,10.5038166,-15.1221371
6220,0.3854645,11.4107065,-5.0972295,46.8320618,-9.2671757,-82.4809189,-4.9463954,7.4674768,4.6950054,22.9160309,9.5954199,-10.2824430
6230,0.4357425,10.7283630,-5.2480631,62.5419846,-14.5801525,-82.8931274,-4.4100971,7.4962072,4.0868812,17.8702297,7.4351144,-6.4427481
6240,0.2609667,9.8209648,-5.2791877,70.3206100,-17.0610695,-81.2977066,-3.9264708,7.5321202,3.9288650,11.0381680,4.9236641,-4.3053436
6250,0.2250538,8.7052727,-5.1379304,71.8167953,-18.3664131,-80.5572510,-3.4715748,7.7619624,4.1180058,4.6030536,2.2824428,-2.9694657
6260,0.1963235,7.5871863,-4.7811961,68.7175598,-16.3358784,-80.6641235,-3.0382264,7.6925306,4.4005203,-1.0076336,-1.4885496,-1.9160305
6270,0.0119709,6.3876977,-4.1443419,63.2137413,-9.8702288,-80.1984711,-2.4372849,7.8601241,4.5154414,-4.4885497,-2.9160306,-1.2900764
6280,-0.4716553,5.2169390,-3.4548154,57.0839691,-0.1679389,-76.6488571,-2.2098370,7.7882981,4.8937230,-6.1068702,-4.0839696,-3.6335878
6290,-1.2976507,4.0078731,-3.2082138,49.4045792,7.7938933,-65.9236679,-2.2026544,7.9271612,5.1403246,-5.1832061,-4.1145039,-5.5572519
6300,-2.0374553,3.1579359,-3.2489152,37.8702278,12.5038166,-48.5419846,-2.1523764,7.9558916,5.1331420,-3.7099237,-2.1984732,-7.4656487
6310,-2.1356170,2.6647329,-2.9879484,21.4503822,15.0000000,-29.1526718,-2.2409613,7.9894104,4.9918852,-3.1221373,2.7709923,-7.3358779
6320,-1.9105632,2.2457497,-2.1643472,4.9847326,17.5419846,-13.7786255,-2.4061604,8.1186962,4.8649931,-3.6488550,8.7328243,-7.7557254
6330,-1.5107336,1.8554969,-1.0797794,-6.4351144,20.0763359,-3.8473282,-2.7030399,7.9726510,4.9320302,-4.9770994,14.4045801,-6.5954199
6340,-1.4891858,1.5562232,-0.2681492,-12.4732828,23.1145039,2.8091602,-2.9400647,8.0612354,5.0493455,-7.1526718,17.3053436,-6.0152674
6350,-1.3287752,1.3359578,0.2944853,-15.5267172,24.4656487,7.6183205,-2.9999194,8.2288294,5.2360926,-10.0381680,17.7328243,-4.8702292
6360,-0.9983770,1.0558375,0.7326220,-18.5190830,22.6335869,7.3893127,-2.9520357,8.2144642,5.6143742,-11.0229006,16.4809170,-4.1450381
6370,-0.7613522,0.7062859,0.5626345,-23.4351139,19.2671757,3.5877862,-2.9711890,8.3988171,6.0477223,-11.8854961,14.2824430,-4.3435116
6380,-1.1635761,0.4165890,-0.1005560,-30.3435116,14.7175570,1.8015267,-2.8419030,8.6334467,6.0142040,-11.5877867,12.2213745,-3.3435113
6390,-1.1539993,0.5458752,-0.5003856,-39.2900772,10.1984730,5.0076337,-2.8969693,8.8273764,6.2129216,-11.0076332,9.7175570,-1.6793894
6400,-0.2873027,1.1228749,-1.1851238,-51.8778610,8.5954199,11.3740454,-2.7772598,8.9183559,6.2703824,-11.1068707,7.6564884,0.9160305
6410,-0.1005560,1.5849534,-1.3359578,-63.2061081,8.2519083,16.4961834,-2.3654592,9.0356712,6.3661499,-11.2977095,5.6717558,3.3435113
6420,-0.2968795,2.0566087,-1.9009864,-69.0839691,6.4580154,22.9847336,-2.0590029,9.2798786,6.5528965,-10.8015270,4.2290077,6.0992365
6430,0.5913648,4.2688398,-2.2218077,-63.1908379,6.7938933,30.1603050,-1.2641320,9.6054878,6.7372489,-10.4809160,1.6030535,12.9847326
6440,0.5410868,5.6766233,-2.7126167,-51.9618340,0.8625954,30.2213745,-0.7948709,9.7060442,6.8689294,-11.4351149,0.1145038,13.9007635
6450,-0.1316804,6.3302369,-3.2944047,-33.8015251,-10.5725193,30.0000000,-0.5219333,9.7754755,7.2208753,-11.9770994,-1.1450381,13.3282442
6460,-1.0558375,6.9168134,-3.9863255,-13.6030531,-28.7022896,39.4656487,-0.4405309,9.7874460,7.6039457,-10.8854961,-2.9770992,12.5343513
6470,-1.8459201,8.1043310,-3.8402798,9.2519083,-46.9465637,57.6488533,-0.2777260,9.9574337,8.0660238,-8.5114508,-3.6106870,12.1374044
6480,-1.9297167,10.0915089,-3.3925664,38.0152664,-65.9923630,75.7633591,-0.1460456,9.9933472,8.6813307,-3.5572519,-2.5496182,11.6641226
6490,-0.7517755,11.7937775,-4.3861551,66.5419846,-74.2671738,81.5572510,-0.1268920,10.0867205,8.9853926,3.3053436,-1.1068702,10.7404585
6500,-0.1891410,12.8256731,-6.4619174,80.2900772,-61.1297722,72.6335907,-0.0814024,10.2806492,9.3133974,13.0229006,0.7938932,9.5038166
6510,-0.3016679,14.1520538,-8.0923605,74.2290039,-34.7022896,61.0076332,-0.2418131,10.2519188,9.5097208,24.2137413,2.6641221,7.2977099
6520,-1.0031654,15.2294388,-9.4833841,56.0763359,-9.7557249,54.0839691,-0.5482694,9.9861641,9.3253679,36.8091621,2.9160306,4.5419846
6530,-1.0773853,15.3659077,-10.5200682,29.6030540,10.1374044,53.3969460,-0.9169745,9.6677370,8.8824425,48.9923668,1.4503816,1.1984733
6540,0.1412572,15.4975882,-10.3835993,6.2977099,24.7938938,52.6641235,-1.3120158,9.3517036,8.0253229,58.7709923,-0.9465649,-1.9618320
6550,2.0542145,15.7130651,-9.9430685,-9.6946564,35.0839691,39.6946564,-1.6017127,9.0404596,6.9982157,63.9160309,-3.8854961,-5.0229006
6560,2.4253139,15.3204184,-9.3995876,-15.8320608,33.7862587,19.7786255,-2.2601149,8.7292147,6.1147599,64.9236679,-4.9236641,-6.1068702
6570,1.8938038,14.6237087,-8.5903521,-11.3816795,19.3816795,3.5801528,-2.6982515,8.3629036,5.3845320,62.4122124,-6.2519083,-4.8778625
6580,1.5753766,13.9748840,-7.6590118,2.6488550,-1.4198474,-7.6488547,-3.1699069,7.8816719,4.8793583,56.6717567,-8.0458012,-5.5572519
6590,1.0749911,12.8017311,-7.3597383,22.7786255,-20.6259537,-14.7938929,-3.6750808,7.5800037,4.7788019,50.3587799,-11.9770994,-3.1450381
6600,0.2753318,11.8440552,-7.5752153,42.8091621,-34.9847336,-15.5343513,-4.0389977,7.2927012,4.7835903,45.1755714,-15.4198475,1.0000000
6610,-0.4908088,11.2598734,-8.2000990,54.6564903,-45.9541969,-10.9923668,-3.9911139,6.9455438,4.9942794,42.4503822,-15.2290077,6.5114503
6620,-1.2377959,10.6804790,-8.9590569,55.6488533,-51.7328262,-4.7633586,-3.6822634,6.4714942,5.2576399,43.4045792,-11.2595415,12.7328243
6630,-2.3271523,9.9406748,-9.5097208,49.4122124,-51.2900772,1.6717557,-3.3614421,6.2296810,5.0397687,45.6335869,-4.6259542,18.0305347
6640,-4.0126615,9.2774839,-9.6485834,44.1450386,-49.2137413,10.2137403,-2.9592183,6.1123657,4.8147149,47.0839691,-0.7022901,20.8320618
6650,-6.1075773,8.2360115,-9.9861641,42.8625946,-55.8167953,24.2061062,-2.4636209,5.9830794,4.4651632,46.9465637,1.1221374,22.6259537
6660,-7.8601241,7.5033898,-9.8975792,46.1755714,-69.7175598,43.5267181,-2.1978660,5.8705525,3.8330972,45.1297722,1.8702290,22.8778629
6670,-9.3157911,6.8593526,-9.9095497,52.7175560,-82.7251892,67.1832047,-1.7884595,5.8442163,3.4332676,42.3435097,0.1145038,23.1603050
6680,-10.2830439,6.3158717,-9.5719690,62.2977104,-85.9770966,92.6030502,-1.5322813,5.7699966,3.0310438,37.5190849,-3.3053436,22.3282452
6690,-11.0491848,5.9064655,-9.3229742,70.0687027,-78.1679382,121.8625946,-1.2162483,5.7963328,2.6862805,31.2671757,-8.1603050,20.6870232
6700,-10.9653873,5.7269011,-8.8872309,75.3053436,-69.1755753,157.8015289,-1.1635761,5.9351954,2.3870070,23.9541988,-12.4198475,17.7709923
6710,-10.5104914,5.2193332,-8.8177996,81.5190811,-56.3358765,195.9236603,-0.9983770,6.0692701,2.0685797,15.8778629,-17.0687027,15.2290077
6720,-10.1178446,4.5992379,-9.1290445,80.9618301,-37.9694672,236.3206177,-0.8259954,6.2440462,1.9440818,7.2290077,-21.6030540,12.4656487
6730,-9.5815458,4.1180058,-9.2631187,76.7022934,-19.5038166,250.1297760,-0.6296718,6.4164276,1.6687500,-3.0381680,-25.1145039,8.4961834
6740,-8.6190825,3.8522508,-9.6054878,68.4961853,-5.1832061,250.1297760,-0.6991033,6.6223278,1.6208663,-13.5572519,-27.5801525,4.0839696
6750,-7.6590118,3.4548154,-9.6414013,56.2366409,1.4045801,250.1297760,-0.6631905,7.0484939,1.7190280,-23.0763359,-28.3129768,0.8778626
6760,-5.9304070,2.4755919,-9.3971939,43.4732819,-3.1068702,250.1297760,-0.6368544,7.2998838,2.1236460,-30.6488552,-25.1221371,-2.5496182
6770,-3.5577655,1.0702027,-8.5975342,32.4045792,-15.3053436,250.1297760,-0.8307837,7.6039457,2.6527619,-35.4045792,-18.2900772,-6.3816795
6780,-0.5099624,-0.4501076,-7.3142486,23.7022896,-26.1374054,250.1297760,-1.2808913,7.8218169,3.4093258,-37.4656487,-11.2748089,-9.4809160
6790,3.2297616,-2.0997043,-5.3893204,17.5954189,-45.3816795,250.1297760,-1.5705882,8.2312231,3.8330972,-38.5725174,-6.0076337,-10.8396950
6800,7.0700417,-4.1970143,-2.6599445,18.6106873,-72.0992355,250.1297760,-1.8124014,8.7220325,3.8785870,-39.4580154,-1.9541985,-11.3587790
6810,12.0260134,-6.2153158,0.3112446,28.5954189,-113.5038147,203.3206177,-2.1020982,8.8848372,4.3167233,-41.4427490,-1.1603054,-13.1068707
6820,19.0002880,-8.4012108,4.7620430,53.1603050,-136.4198456,131.9847260,-2.1643472,9.3732519,4.7045822,-44.2977104,-4.2290077,-13.3435116
6830,19.6126022,-12.3252869,7.3980455,89.5038147,-107.1221390,56.1145020,-1.8674678,9.6797075,5.0684991,-47.6793900,-9.8167934,-12.8778629
6840,19.6126022,-16.0674057,6.1387019,108.5572510,-31.8320618,11.7404585,-1.1923064,9.5552101,5.7867560,-49.7251892,-13.3206110,-12.6564884
6850,19.6126022,-13.8479919,0.7996593,71.2290039,73.7404556,52.8931313,-0.3064562,9.6988611,6.6462698,-47.3511467,-11.7862597,-15.7786255
6860,19.6126022,-5.5664907,-4.4460096,-5.2519083,168.4885559,155.9236603,0.1508339,9.7419567,7.8289995,-37.3740463,-4.9770994,-23.2366409
6870,19.6126022,3.2441268,-3.2225790,-76.3511429,193.7099304,238.7557220,0.2777260,10.0196829,8.5879574,-20.8702297,6.3511453,-32.1984749
6880,19.6126022,11.8512383,-0.5722113,-106.7786255,142.5572510,231.1068726,-0.3423691,10.3045912,8.8537130,-1.1145039,16.8549614,-41.0458031
6890,19.6126022,17.0442352,2.3870070,-98.4351120,44.4122124,118.3282471,-1.2210367,10.6709023,8.2671366,17.0076332,22.5801525,-48.4274826
6900,19.6126022,14.4728756,2.5138988,-85.0381699,-52.0763359,-64.0839691,-2.3175755,11.0300312,6.9838505,29.2671757,23.2442741,-52.2137413
6910,19.6126022,5.3007355,2.1404054,-84.3969498,-64.7022934,-250.1374054,-3.5003049,11.3316984,5.6933827,32.8167953,17.2595425,-51.9389305
6920,19.6126022,-4.5226240,1.8052188,-83.7251892,-13.3664122,-250.1374054,-4.6040263,11.5160513,4.6638808,28.5190830,3.7938931,-46.4198456
6930,14.0850163,-10.0962973,0.0071826,-77.9389343,49.5801544,-250.1374054,-5.3845320,11.4657736,3.8115497,18.1603050,-13.3358774,-36.7480927
6940,3.9599893,-10.2207947,-3.4069316,-69.5725174,83.2290039,-250.1374054,-5.7556314,10.9653873,3.3494711,3.9770992,-27.5114498,-24.0076332
6950,0.6272776,-6.7803445,-4.9966736,-58.0839691,77.9389343,-213.6488495,-4.7165532,10.5128860,4.0030847,-3.3358779,-30.6793900,-8.9236641
6960,4.2616572,-3.5984666,-4.8027439,-43.5954208,55.8396950,-128.7633514,-4.0102673,9.7563219,4.3406653,-9.3511448,-24.7404575,-2.7709923
6970,7.3525558,-0.3639168,-5.7197185,-32.2824440,44.0839691,-111.9770966,-3.8043671,9.1314383,5.0565281,-8.9694653,-19.5419846,6.7862597
6980,7.3525558,2.8155668,-6.3134775,-23.7709923,38.0763359,-134.8244324,-3.1723011,8.8561068,5.4683285,-3.9618320,-8.1374044,15.7022905
6990,5.7676024,4.2832050,-6.7324610,-18.5267181,25.6488552,-160.8091583,-2.7269819,8.3389616,5.3462253,2.0381680,2.0305343,21.1755733
7000,3.4572096,4.5082588,-7.1442614,-16.2442741,11.7633591,-168.0610657,-2.2242019,8.0468712,5.0517397,5.4427481,6.5496182,24.1984730
7010,0.9361281,4.8697815,-6.8569584,-12.2748089,3.9312978,-150.0305328,-1.8387375,7.7882981,4.5274124,4.2442746,5.5190840,23.7786255
7020,-0.0622489,5.3294659,-6.7276726,-5.7328243,1.7328244,-119.5419846,-1.4772149,7.5752153,4.1491303,-0.7480916,-0.7862595,22.0916023
7030,-0.8259954,6.2488346,-7.1394730,3.8015268,2.2137403,-87.9923630,-1.1539993,7.5464849,4.0868812,-6.9694657,-9.0152674,19.8167934
7040,-1.0869620,7.6207051,-7.3693151,14.8702288,3.7938931,-57.5038185,-0.6416427,7.4890246,4.3646073,-12.9083967,-15.1908398,16.8015270
7050,-0.1843526,8.9614515,-7.8577299,25.0076332,11.1832066,-41.6488533,-0.3303981,7.4962072,4.5800843,-17.6106873,-19.5267181,13.7786255
7060,-0.0119709,10.2040358,-8.8992023,30.4198475,16.1755733,-38.8473282,0.0167593,7.6374645,4.9487896,-19.5496178,-20.4961834,11.0992365
7070,-0.3375807,10.6086531,-10.1274214,24.7175579,10.3053436,-42.5343513,0.3567342,7.9104018,5.2025738,-20.0687027,-20.2137413,9.4122133
7080,-0.3256098,10.5511932,-10.0292597,10.2748089,0.4885496,-48.3587799,0.5937590,8.1570034,5.2720051,-20.5190830,-19.9083977,6.9389315
7090,-0.4716553,10.0508070,-9.0236998,-2.7862597,-9.4045801,-54.4732819,0.5769997,8.2982607,5.1666608,-22.0763359,-20.4503822,4.4427481
7100,-1.4484847,9.1481981,-7.9032192,-8.9389315,-21.1679382,-55.6870232,0.4668669,8.3198080,5.1092005,-24.4732819,-22.6335869,1.6488550
7110,-2.4492557,8.3748751,-6.6869712,-5.6870227,-26.9541988,-48.3129768,0.2825144,8.4227581,5.2097564,-27.5190830,-25.3053436,-1.0763359
7120,-3.3518653,8.6549950,-5.8083038,4.7328243,-24.9236641,-32.5419846,-0.0837966,8.3533268,5.3941088,-30.2977104,-28.4351139,-3.4274809
7130,-3.6678982,9.5911226,-5.5808558,16.3740463,-18.3511448,-13.4809160,-0.5961532,8.3509331,5.5042415,-33.1832047,-32.4351158,-5.2442746
7140,-2.9687948,10.0196829,-6.4547348,23.9236641,-11.4198475,0.7099237,-0.9959828,8.2072811,5.6119800,-35.4503822,-36.4885483,-7.1679387
7150,-2.1595588,9.6605549,-7.0700417,28.2977104,-4.0305343,7.0458016,-1.9129574,7.7906923,6.2775645,-34.4961815,-40.3206100,-7.2748094
7160,-1.6256547,9.7275915,-7.4938130,31.1526718,0.8549618,8.4580154,-1.9177457,7.7763271,6.3757267,-30.9465656,-37.6335869,-9.8396950
7170,-1.4029950,9.4259243,-7.9199786,33.7786255,3.1679389,11.1145039,-2.6623387,7.3525558,6.4283986,-25.4427490,-34.0228996,-12.5496187
7180,-1.5155219,9.4762020,-8.0037756,38.7251892,5.7251906,18.4732819,-3.2345500,7.3238254,6.2895355,-17.7557259,-29.5190830,-13.2442751
7190,-0.9169745,10.0077124,-8.2048874,47.5267181,7.4732823,24.2061062,-3.6391680,7.3094602,5.8801293,-10.5343513,-20.7251911,-11.0610685
7200,-0.4884146,10.2279778,-8.5759869,57.3282433,9.6564884,23.0458012,-3.9216824,7.1562324,5.1499014,-7.9236641,-12.4809160,-8.3969469
7210,-0.3471575,10.2591019,-9.3038206,64.7786255,10.9312973,19.0000000,-3.9815371,7.1993275,4.7476778,-11.1526718,-10.7557249,-6.0992365
7220,-0.4620786,10.1657286,-9.9981356,68.7251892,7.4427481,15.9083967,-3.9575951,7.2400289,4.7189474,-16.9694653,-13.1221371,-4.4732823
7230,-0.6919208,10.0867205,-10.7259684,70.1603088,-0.5648855,14.4732828,-3.4763632,7.3669209,5.0661049,-21.2213745,-16.0839691,-1.6793894
7240,-1.0318956,9.7371683,-11.1329813,71.0076370,-11.6717558,14.8015270,-2.8395088,7.3980455,5.6862001,-22.3511448,-17.6641216,-0.9465649
7250,-1.4149660,9.5073261,-11.1329813,74.4885483,-24.7251911,16.3893127,-2.2625091,7.3334022,6.1051831,-19.7175579,-17.3358784,-2.7175572
7260,-2.0135133,9.2008705,-10.8265247,82.4885483,-38.7251892,18.6030540,-1.8147956,7.3764977,6.4188218,-14.1908398,-14.3511448,-6.4045801
7270,-2.9807658,8.7890692,-10.6349897,93.1526718,-47.4885483,25.1068707,-1.7118455,7.5009956,6.2799587,-7.4809160,-8.4122133,-9.3587790
7280,-4.0629396,8.2503767,-11.0204544,102.9312973,-48.2595406,38.3358765,-1.7381816,7.6638002,5.8130918,-1.9618320,0.2595420,-12.4809160
7290,-5.5640965,7.3812861,-11.4298601,107.4885483,-45.2061081,61.6641235,-1.9321109,7.8098459,5.5401545,1.0305344,8.9312973,-13.6946564
7300,-6.7396431,6.4499464,-11.6668854,108.8244247,-37.1068687,96.1221390,-2.2098370,8.0037756,5.2480631,1.7404580,15.9541988,-14.6259546
7310,-6.9814563,6.0022330,-11.6477318,110.1068726,-24.9389305,134.1908417,-2.4324965,8.1210909,5.2720051,1.1374046,20.6946564,-14.1603050
7320,-6.5026188,5.6263452,-11.8464499,108.6793900,-15.1984730,169.1450348,-2.4564383,8.5544386,5.3438311,-1.1450381,23.3664131,-13.3740454
7330,-5.6574697,5.1427188,-11.9015160,104.7328262,-4.7251906,198.1450348,-2.5522060,8.8800488,5.4372044,-3.0381680,22.4045811,-12.2061071
7340,-5.5976148,4.6782460,-12.3109226,100.3282471,13.4198475,222.2213745,-2.5737536,8.9877872,5.4395986,-5.2824426,19.3206100,-10.9389315
7350,-6.1027889,4.5681133,-12.8711624,88.9923630,33.2442741,247.0229034,-2.6216373,9.2176294,5.4467812,-8.8549614,15.4122133,-9.9389315
7360,-5.4731169,4.2257442,-12.7706070,68.4274826,46.3893127,250.1297760,-2.5498118,9.2535419,5.6000090,-12.5801525,11.6564884,-7.9312978
7370,-4.7285242,3.8115497,-12.7586355,45.1908379,61.8167953,250.1297760,-2.5091105,9.1960821,6.0812411,-15.4580154,9.0458012,-5.4198475
7380,-4.3574247,4.6590929,-12.2893744,22.8091602,74.7022934,250.1297760,-2.4301023,9.1074963,6.3924856,-16.0076332,8.2748089,-0.1908397
7390,-3.6750808,6.2105274,-12.1313581,-2.0458016,65.3435135,250.1297760,-2.2098370,8.9973640,6.6079631,-15.5038166,9.1984730,3.8396947
7400,-2.1691356,6.8928714,-11.3556404,-28.0992374,46.0381660,250.1297760,-1.9201399,8.9231443,7.1131368,-13.3129768,9.8320608,8.9236641
7410,-0.9624642,6.6223278,-10.4123297,-55.7251892,8.8854961,250.1297760,-1.7262106,8.8082228,7.2184811,-10.3587790,10.3816795,11.8167934
7420,-0.6464311,4.2496862,-8.9686337,-86.7938919,-44.9847336,203.1679382,-1.1827296,8.6861191,7.2639709,-6.6564884,10.9618320,14.0152674
7430,0.4237715,-0.2873027,-5.8633699,-117.5648880,-111.7862625,157.4351196,-0.9433106,8.5807753,7.3549500,-3.1603053,11.2824430,14.0992365
7440,3.8761928,-6.0549049,-1.5849534,-135.1374054,-178.2213745,119.8854980,-0.8236012,8.5257082,7.2543941,0.0381679,10.0000000,13.0687027
7450,10.1776991,-13.1369171,5.0589223,-122.3053436,-203.6717529,85.7633591,-0.7852941,8.5879574,7.2687593,2.4351146,8.1374044,12.5190840
7460,18.1192265,-17.6379929,10.6062593,-67.7328262,-164.6488495,48.5190849,-0.5985473,8.5664101,7.1059542,3.6030533,5.6183205,11.3206110
7470,19.6126022,-19.0625362,13.2183199,21.7786255,-57.3664131,2.8625953,-0.4692611,8.6765423,6.9646969,3.5190840,2.2977099,10.4198475
7480,19.6126022,-18.5190563,9.4115591,95.3816757,73.5419846,-38.1679382,-0.3256098,8.6933022,6.9982157,2.5190840,-0.9236641,8.0839691
7490,19.6126022,-17.0681763,-1.3934183,88.1526718,157.5877838,-34.3511467,-0.2561783,8.8489246,7.0508881,1.3206106,-4.3969464,4.7786260
7500,16.1344433,-10.0675669,-12.0547438,-31.5038166,212.8244324,44.3587799,-0.3184272,8.9111729,7.1275020,-0.2595420,-7.8320613,0.8396947
7510,13.9413652,2.3534882,-14.4920292,-209.6412201,250.1297760,156.1374054,-0.7134684,9.0117292,7.4626884,0.0229008,-11.5038166,-2.3129771
7520,19.6126022,11.1832590,-2.9280937,-250.1374054,250.1297760,187.3816833,-0.9289455,8.9782104,7.8720951,2.6946564,-13.3053436,-3.2213740
7530,19.6126022,17.0729656,5.7771792,-250.1374054,220.7557220,93.7633591,-1.0797794,8.9375095,7.9846220,8.3129768,-12.4580154,-2.7175572
7540,19.6126022,16.2900658,8.3676920,-210.3816833,171.3129730,-72.9236679,-1.2641320,8.8608952,7.8026633,14.2290077,-10.5419846,-3.4045801
7550,19.6126022,8.0732069,6.6462698,-96.6412201,136.7328186,-250.1374054,-1.4269369,8.7627335,7.3884687,19.1908398,-9.4198475,-2.3587787
7560,19.6126022,-3.2584918,1.6112895,8.6183205,122.5267181,-250.1374054,-1.5729824,8.5831690,7.0460997,21.6793900,-9.1908398,-1.1908396
7570,19.6126022,-12.1600885,-6.9766679,71.4122162,112.6488571,-250.1374054,-1.6112895,8.4706421,6.6414814,22.6641216,-9.5877867,-0.7404580
7580,11.5112629,-13.9078465,-12.0188313,74.6335907,95.2748108,-250.1374054,-1.7908537,8.1953106,6.4619174,22.5114498,-10.1374044,-0.7480916
7590,7.7930865,-11.4633789,-12.8831339,30.4198475,55.4809151,-250.1374054,-1.9967541,7.9487090,6.2512288,22.3511448,-10.7251911,-0.2671756
7600,10.4626083,-7.6494355,-9.6437950,-19.7786255,28.3435116,-229.8396912,-2.0470319,7.6877422,6.1075773,22.1526718,-10.9618320,0.9007633
7610,14.0275564,-4.7788019,-6.5744443,-43.3587799,24.2137413,-219.2977142,-2.1356170,7.4818420,6.1267309,21.9770985,-11.5419846,1.7862595
7620,13.3547888,-3.4619980,-5.4108682,-49.6717567,40.7938919,-248.3129730,-2.1140692,7.2519999,6.0932121,22.4351139,-11.7480917,2.8549619
7630,9.0572186,-2.8754215,-5.5377603,-53.2519073,56.9618340,-250.1374054,-1.9105632,7.1514440,5.7987270,23.2290077,-10.8244276,3.9083970
7640,4.2353210,-1.4652439,-5.0541339,-55.0458031,63.6641235,-250.1374054,-1.6376256,6.9120250,5.5473371,23.6488552,-9.8702288,4.1145039
7650,1.4197544,0.2442073,-4.3023586,-48.7404594,66.3664093,-224.2366486,-1.4556671,6.7204900,5.3222833,23.6564884,-9.2519083,3.6106870
7660,0.6416427,2.5976956,-3.9647777,-31.7709923,74.8473282,-172.2748108,-1.2425843,6.6319046,4.9296360,21.8625946,-8.2519083,2.6946564
7670,1.8076130,5.2313042,-4.7189474,-10.1221371,91.6793900,-128.7862549,-1.1827296,6.5648675,4.7668314,19.8015270,-7.7557254,0.5496183
7680,3.1363883,7.8146343,-6.1267309,6.4809160,120.5954208,-107.6412201,-1.1899122,6.5289545,4.5441718,17.2213745,-7.9236641,-0.5419847
7690,3.3231349,10.0388365,-8.2982607,8.5496187,139.9847260,-106.3587799,-1.0486550,6.5145893,4.3837609,14.4198475,-8.3893127,-1.7022901
7700,2.3534882,11.6812506,-10.8672256,-8.0610685,147.0534363,-113.0305328,-0.8834559,6.5720501,4.1227942,10.6106873,-8.1145039,-3.8015268
7710,1.5801650,12.5383701,-11.6046362,-33.4045792,144.2213745,-117.6564865,-0.8451489,6.6295104,3.8666160,6.0000000,-9.0610685,-5.9236641
7720,1.1563935,12.6006193,-11.4035244,-51.5267181,136.1526642,-113.7404556,-0.8259954,6.8521700,3.7540891,0.5419847,-10.9770994,-8.0305347
7730,0.8259954,13.5678720,-11.0946741,-59.0000000,133.7862549,-103.7557220,-0.8595140,6.9455438,3.7253587,-6.7633586,-14.2748089,-10.9236641
7740,0.6631905,15.1169119,-10.1896706,-63.2061081,131.9770966,-95.7022934,-0.6057299,7.2400289,3.6319854,-13.3511448,-17.4427490,-13.5496187
7750,1.1563935,15.6532106,-9.5001440,-64.9694672,124.6412201,-96.6412201,-0.6823440,7.2807302,4.0581512,-18.9923668,-20.3511448,-17.5114498
7760,1.2569494,15.6364517,-8.3724804,-60.5190849,117.5801544,-103.6183243,-0.8714849,7.6207051,4.2472920,-23.2900772,-19.9618320,-21.1068707
7770,1.2856797,15.4353390,-7.3381906,-49.8625946,106.8091583,-113.3358765,-1.1923064,7.8673067,4.6926112,-24.9923668,-18.4809170,-25.1603050
7780,0.9720409,14.6189203,-6.8880830,-36.1984749,90.2366409,-119.3435135,-1.6065011,7.9367380,5.1044121,-24.6870232,-14.5419846,-27.1984730
7790,0.3974355,13.3212700,-6.6247220,-23.0229015,68.4427490,-119.0534363,-1.8961980,8.1713686,5.4419928,-24.1221371,-9.8167934,-28.6106873
7800,-0.4405309,11.8201132,-6.2320752,-12.2137403,36.9541969,-110.8015289,-2.3726418,8.4251528,5.5042415,-23.7938938,-6.6488547,-29.8931293
7810,-1.3598996,10.9725704,-5.3270717,-0.9083970,3.4045801,-96.5648880,-2.8562679,8.5688038,5.5760674,-24.4274807,-4.7938933,-30.2366409
7820,-1.5346755,10.0962973,-4.3047528,13.2061071,-30.9389305,-84.3129807,-3.3901722,8.7316093,5.6167684,-26.1145039,-4.7938933,-29.5190830
7830,-1.0965388,8.7124557,-3.3375001,30.5419846,-56.6488533,-76.4732819,-3.6295912,8.8848372,5.8466105,-28.0763359,-6.6488547,-27.2290077
7840,-0.9696468,7.5488791,-2.8323262,47.1832047,-68.5114517,-71.7633591,-3.8570392,8.9758167,6.1506729,-29.8931293,-9.7480917,-23.3587780
7850,-1.1156923,6.5121951,-2.6000898,61.2137413,-71.3358765,-67.7709961,-3.8019729,9.0045462,6.5457139,-30.4732819,-11.7786255,-18.6259537
7860,-1.1420283,5.7269011,-2.4157372,70.6030502,-67.5572510,-63.6641235,-3.6056492,8.8537130,6.9958215,-29.8931293,-11.8473282,-14.1908398
7870,-1.0103480,4.9727316,-2.2744799,74.1297684,-58.8320618,-60.0228996,-3.2273674,8.7794924,7.2807302,-27.6564884,-10.8778629,-10.7862597
7880,-0.8523315,4.2377152,-2.4324965,71.3282471,-45.9541969,-57.2137413,-2.8490853,8.6358414,7.3860745,-24.2442741,-7.9541984,-8.1221371
7890,-0.8714849,3.6439564,-2.3510940,63.2824440,-31.2977104,-54.9160309,-2.5665710,8.4778252,7.5847921,-19.7328243,-3.9923663,-6.2137403
7900,-0.9026094,3.1794837,-2.1835008,51.7709923,-15.7480917,-51.8778610,-2.3151813,8.5065556,7.7116842,-14.6259546,0.7099237,-5.0534353
7910,-1.0390782,2.8347204,-1.8578910,38.6030540,-2.6335878,-49.8549614,-2.2194135,8.3940287,7.6853480,-9.4503813,4.2977099,-4.4732823
7920,-1.0773853,2.4851687,-1.7812769,24.8015270,9.2900763,-47.5419846,-2.2170193,8.2527714,7.6422529,-5.6412215,5.0992365,-3.9007633
7930,-1.2090657,2.0566087,-1.8411317,11.1221371,20.1755733,-43.0458031,-2.1954718,8.2815018,7.5991573,-2.8167939,3.5954199,-3.8931298
7940,-1.2258250,1.8339491,-2.0350611,-2.5496182,28.8778629,-37.7709923,-2.1092808,8.2240410,7.4459291,-0.1526718,0.6488550,-3.6488550
7950,-1.0342898,1.7740943,-2.0494261,-17.3740463,34.0000000,-33.0839691,-2.1140692,8.2455883,7.3621325,2.5038168,-2.6564887,-3.9389312
7960,-0.7254394,1.8028246,-1.9704180,-31.0916023,38.6412201,-29.3664131,-2.1906834,8.2982607,7.1322904,4.7251906,-5.5419846,-4.1832061
7970,-0.2394189,2.0781565,-1.8195840,-40.4274826,42.0000000,-28.3816795,-2.2409613,8.3389616,6.8042865,6.4961834,-6.8549619,-2.8625953
7980,-0.2394189,2.3822186,-1.8938038,-44.8244286,41.8473282,-27.6335869,-2.3127871,8.3341732,6.6510582,7.6030536,-7.0000000,-0.9389313
7990,-0.3543400,2.6192431,-2.0087249,-45.9236641,41.1603050,-24.6717548,-2.4109488,8.3676920,6.4475522,8.3435116,-6.9312978,0.9160305
8000,0.3710994,3.5793133,-1.9009864,-44.8015251,42.2977104,-20.1450386,-2.2672975,8.3389616,6.1985564,8.8625956,-6.2290077,3.4274809
8010,1.2952565,4.9775200,-2.0542145,-41.7328262,43.0076332,-19.1221371,-2.2242019,8.2671366,6.0261750,8.9847326,-6.6412215,4.9083967
8020,2.0661855,6.0692701,-2.7461352,-38.1374054,41.8473282,-24.0839691,-2.0326669,8.2671366,5.7532372,8.6412210,-7.1526718,6.3358779
8030,1.4891858,6.5552907,-3.5338237,-34.5114517,40.1221390,-29.0916023,-1.9464760,8.1761570,5.4563580,7.6793895,-7.7709923,6.8702292
8040,0.3375807,7.2950954,-4.6040263,-36.2824440,31.6564884,-28.4732819,-1.7788827,8.0851774,5.2145448,5.7404580,-8.3511448,6.8625956
8050,-1.0965388,8.6813307,-5.0206151,-42.9771004,9.0763359,-19.7633591,-1.7429699,8.0540533,5.1092005,2.4656489,-9.5801525,4.6488547
8060,-1.5873476,9.5719690,-4.5082588,-46.9236641,-17.5572510,-4.6946564,-1.9033806,8.1498213,5.1499014,-1.0610687,-10.1832066,4.5801525
8070,-0.9409165,9.9358864,-3.8211265,-38.0763359,-38.6183205,6.9007635,-2.0135133,8.2312231,5.4204450,-4.0076337,-11.0610685,4.2977099
8080,0.3687052,10.3357162,-3.9121056,-20.4122143,-49.6106873,10.9923668,-2.0518203,8.2838955,5.7245069,-5.0152674,-10.5038166,6.4122138
8090,0.4165890,11.2646618,-4.3478479,-3.3664122,-46.6946564,9.2824430,-1.9105632,8.4467001,5.7340837,-4.8702292,-8.9847326,8.8931293
8100,-0.4237715,11.8201132,-5.1307478,5.2900763,-41.9771004,7.4198475,-1.5897418,8.5257082,5.6502872,-5.4961834,-6.8931298,12.9770994
8110,-1.8602852,12.2869806,-5.8633699,4.1832061,-40.4122124,10.8854961,-1.2545552,8.6310530,5.6502872,-7.1603055,-5.9312978,15.9770994
8120,-3.0238612,12.1385403,-6.1578555,0.5648855,-43.4885483,22.1832066,-0.8307837,8.4299412,5.7005649,-9.4274807,-6.0381680,18.2290077
8130,-3.8977404,11.9661589,-5.9351954,2.1221373,-49.3664131,39.9389305,-0.4764437,8.3150196,5.9639258,-12.2137403,-8.3893127,19.0000000
8140,-4.5154414,11.7219515,-5.6694407,10.7709923,-56.8549614,60.5114517,-0.0981618,8.3126259,6.1889796,-13.8015270,-13.8091602,18.5267181
8150,-4.6686692,11.4538021,-5.6335278,25.0992374,-62.2442741,82.7099228,0.1963235,8.2551651,6.2536230,-14.8931293,-19.2137413,15.2213745
8160,-4.3765783,11.6118193,-5.5904322,43.5648842,-65.3587799,101.5648880,0.5482694,8.3341732,6.3589673,-15.9083967,-24.4656487,11.0229006
8170,-4.2688398,11.6453371,-6.1554613,62.8702278,-64.4809189,114.4274826,0.4668669,8.4131813,6.2320752,-17.5954189,-28.6793900,6.1145039
8180,-5.2384863,11.2215662,-7.1634150,79.1526718,-63.3282433,123.6259537,0.1699875,8.3892403,6.3829093,-19.1984730,-29.6106873,1.8091604
8190,-6.5816269,10.4266949,-8.4874020,90.7633591,-65.4656525,135.9160309,-0.4884146,8.2168579,6.5624733,-19.7557259,-27.7251911,-1.5267175
8200,-7.7859039,9.6390066,-9.2032642,100.4961853,-71.5954208,154.1908417,-1.2066715,8.0229292,6.7324610,-19.7251911,-23.1984730,-3.4122138
8210,-8.1354561,8.6980906,-9.5073261,106.5801544,-79.1068726,178.6793823,-2.0494261,7.7140784,6.9144192,-19.0916023,-17.1984730,-3.5648854
8220,-7.9056134,7.6590118,-9.6677370,111.5267181,-83.1221390,204.5114441,-2.6910689,7.3884687,7.1610208,-17.4961834,-11.2213745,-3.6564887
8230,-7.2280579,7.0820122,-9.6222477,116.0839691,-83.6412201,225.6488495,-3.5960727,7.3717093,7.5201492,-14.1450386,-5.0992365,-2.6870229
8240,-5.6766233,5.9543490,-8.8872309,123.2061081,-78.8320618,250.1297760,-4.6064205,7.1753860,7.3956513,-2.1374047,2.5343511,6.8778625
8250,-4.1395535,4.9296360,-8.0516596,135.6793823,-62.1526718,250.1297760,-4.0174499,6.6965480,5.5976148,-1.4809160,1.3511450,13.8396950
8260,-3.6487448,3.6511390,-7.6997132,141.6793823,-48.6412201,250.1297760,-3.6271970,6.5121951,5.1834202,-8.9083967,-2.4427481,14.2290077
8270,-2.8107784,3.7756367,-7.4626884,148.7862549,-39.5267181,250.1297760,-3.2273674,6.4188218,5.4922705,-17.2290077,-8.5877867,13.8015270
8280,-1.3048333,3.8690102,-7.1849627,156.3816833,-21.2137413,250.1297760,-2.7461352,6.3589673,6.2057390,-22.5114498,-14.0534353,12.5190840
8290,0.2059003,4.1587071,-8.3581152,158.8473358,-12.6030531,250.1297760,-2.2505381,6.3685441,6.8904772,-22.2442741,-16.2290077,11.0229006
8300,2.3415172,5.2432747,-9.0524302,153.9847260,-2.3358779,250.1297760,-1.6519908,6.3493905,7.7021074,-15.6564884,-14.3206110,10.0610685
8310,4.2808108,5.5473371,-10.8049774,135.1755676,-3.5190840,250.1297760,-1.2234308,6.4595232,7.9127960,-5.0687022,-7.6030536,7.1755724
8320,6.2536230,4.8362627,-11.4609852,104.0839691,-27.3053436,250.1297760,-0.7230452,6.7013364,7.4794478,5.9770994,1.3511450,3.0839694
8330,7.4602942,2.5953014,-11.2455082,64.7862625,-84.4198456,250.1297760,-0.4429250,7.0006099,6.9838505,13.8396950,9.7175570,-1.1679389
8340,9.1865053,-0.6919208,-8.7866755,27.5877857,-174.1984711,208.9160309,-0.5315101,7.3262196,6.2153158,18.1221371,16.7786255,-4.3664122
8350,12.8879223,-5.4060798,-5.5305777,-1.3511450,-250.1374054,130.4274750,-0.6368544,7.6087341,5.7676024,19.3129768,22.0916023,-6.8396945
8360,17.9875450,-12.8208847,0.6200951,-9.4045801,-250.1374054,54.3816795,-0.9959828,7.7619624,5.3222833,18.2671757,24.6030540,-8.7557249
8370,19.6126022,-18.4089222,7.2352405,26.7099228,-250.1374054,0.3740458,-0.9744351,7.8960366,5.1092005,14.9770994,25.8473282,-9.5267172
8380,19.6126022,-19.6131992,9.5049324,108.5572510,-172.1984711,-17.0534344,-0.9265513,8.0660238,4.9679432,9.9083967,26.5114498,-10.5114508
8390,19.6126022,-19.6131992,3.3470769,202.9770966,27.3816795,45.1374054,-0.8714849,8.2120695,5.1977854,4.3893127,27.6488552,-10.8244276
8400,16.8670654,-13.3811245,-8.2719250,222.9465637,174.7862549,171.3893127,-0.9289455,8.4586716,5.6790175,-0.1221374,27.6030540,-11.3816795
8410,17.9899387,-4.6519103,-17.2932301,144.5877838,214.8015289,250.1297760,-1.0103480,8.6813307,6.2703824,-3.2900763,26.6870232,-11.1068707
8420,19.6126022,6.1458845,-19.6131992,-21.7862587,175.2671814,250.1297760,-1.1635761,8.7962523,6.7803445,-4.9618320,23.3893127,-8.8702288
8430,19.6126022,13.5247765,-19.4791260,-227.3740387,39.8167953,196.3587799,-1.2306134,8.8273764,7.2807302,-4.5419846,17.6412220,-7.5038166
8440,19.6126022,10.8768024,-4.8602047,-250.1374054,-48.0687027,62.1145020,-1.0031654,8.8824425,7.5752153,-2.3206108,13.3893127,-6.2137403
8450,19.6126022,8.4467001,6.9575148,-250.1374054,10.6259546,-75.0916061,-0.8810617,8.9925756,7.7475972,0.7404580,10.1908398,-5.7175574
8460,19.6126022,5.3222833,9.3373384,-240.5648804,92.9312973,-206.6030579,-0.7757174,9.1122847,7.8697009,4.3129773,7.9312978,-5.0916033
8470,19.6126022,0.2537841,7.5728211,-142.4656525,162.3893127,-250.1374054,-0.8020535,9.2559366,7.6230993,7.4503818,6.5267177,-4.6335878
8480,17.4273052,-5.4467812,1.7262106,-59.6412201,187.5725250,-250.1374054,-0.8547257,9.3133974,7.5680327,9.6641226,4.8015265,-2.1221373
8490,11.5112629,-8.4275465,-4.8673873,-21.8396950,168.9160309,-250.1374054,-0.9504932,9.4067707,7.3788919,9.6946564,1.5190840,-1.0687023
8500,7.7715387,-9.5719690,-9.0644016,-21.9923668,120.5343475,-250.1374054,-0.9864060,9.4355011,7.3908629,8.6259546,-4.6717558,0.1297710
8510,7.0915890,-8.8944139,-9.8903971,-38.7786255,74.7328262,-250.1374054,-0.8547257,9.3732519,7.5536675,7.0610685,-10.9236641,0.2977099
8520,8.2575598,-6.8042865,-8.1665802,-48.3435097,43.8854980,-208.3511505,-0.8092360,9.4762020,7.6925306,6.4656487,-14.6564884,-0.1068702
8530,10.1154509,-4.8913293,-5.9112539,-45.8015251,30.7557259,-190.6564941,-0.6177009,9.5576038,8.0325060,7.5572519,-15.5954199,-0.1984733
8540,10.5751352,-2.6743097,-4.9799142,-39.4503822,40.8473282,-195.3435059,-0.6368544,9.6366129,8.1785507,10.0992365,-14.7022905,0.4274809
8550,9.7754755,-0.5578461,-5.6478930,-39.6564903,62.6717567,-208.0839691,-0.6512195,9.6030941,8.3533268,13.3282442,-12.8625956,0.9083970
8560,8.1498213,0.0287303,-6.8162575,-50.6183205,84.7862625,-213.6183167,-0.7350162,9.6054878,8.5041609,17.1221371,-11.6106873,1.4351145
8570,6.0309634,0.1651991,-8.0372944,-69.6183243,105.3206100,-203.0686951,-0.7350162,9.3732519,8.8824425,22.2595425,-11.5496187,0.8015267
8580,4.9655490,1.1516051,-8.4993725,-88.6335907,116.4656525,-181.1755676,-0.9768293,9.2104464,8.9422979,29.6564884,-11.4045801,-0.7557252
8590,4.6159973,3.0071020,-8.6142941,-101.5267181,120.7404556,-160.3358765,-1.2737088,8.9997578,8.9111729,37.8167953,-11.0610685,-3.9465649
8600,4.3717899,5.4180508,-8.6478119,-106.6564865,129.1068726,-144.9923706,-1.6256547,8.9590569,8.4251528,45.1908379,-11.2366409,-4.6870227
8610,4.5298066,7.2280579,-8.4921904,-107.6335907,132.7557220,-138.9770966,-1.9967541,8.7363977,8.0157461,50.5496178,-10.9694653,-4.5877862
8620,3.7923961,8.3509331,-8.5137377,-110.1297684,129.0992432,-139.9770966,-2.3439114,8.6406298,7.3932571,53.5725174,-10.8396950,-3.8473282
8630,2.1978660,8.9470863,-8.3724804,-114.3206100,120.8702316,-139.0992432,-2.6934631,8.3557215,6.9766679,54.3587799,-11.0381680,-2.4961832
8640,0.7158626,9.5312681,-7.5512733,-115.8778610,115.0229034,-130.6793823,-3.0310438,8.1498213,6.5624733,54.0152664,-10.8244276,0.4198473
8650,0.0861908,10.5320396,-6.5385313,-110.1450348,110.8625946,-113.7022934,-3.1675127,7.9104018,6.4643116,52.9541969,-8.5648851,4.9007635
8660,0.0095768,11.6237898,-5.8059096,-93.5114517,97.0381699,-91.5267181,-3.2967989,7.6063399,6.4499464,52.6870232,-6.4580154,8.7709923
8670,0.2681492,12.8544035,-6.0692701,-72.6335907,83.5877838,-71.2366409,-3.1531475,7.2974896,6.4547348,53.3053436,-4.0763359,13.4427481
8680,2.0518203,14.3627424,-6.3446021,-56.1526718,75.0152664,-61.4885483,-2.7940190,6.9527264,6.1410961,54.8244286,-2.8091602,16.1603050
8690,3.0334380,15.3874559,-6.6127515,-46.3282433,67.7786255,-63.9771004,-2.4444675,6.6750002,5.9136481,56.1297722,-2.4503818,17.7022896
8700,3.8091555,15.9788208,-6.5983863,-41.6488533,60.4503822,-72.1908417,-2.1547706,6.5457139,5.4419928,57.0305328,-2.0687022,18.9694653
8710,4.0916696,15.9764261,-6.5912037,-39.0000000,53.8702278,-79.6641235,-2.2026544,6.3733325,5.1977854,57.3816795,-1.9847329,19.5343513
8720,4.4053087,15.3347836,-6.3805151,-37.0534363,44.5877876,-84.6106873,-1.8794388,6.0956063,4.7764082,57.8015251,-2.0992367,22.0916023
8730,4.0485744,14.6093445,-5.5952206,-32.1221390,28.1679382,-83.9923630,-1.7884595,5.6981707,3.9839313,56.1526718,-3.7251909,24.2137413
8740,3.4619980,14.2310619,-4.9104824,-22.0076332,8.2824430,-78.9847336,-2.0877333,4.6782460,3.1292057,52.3969460,-9.8931293,28.7557259
8750,3.7421181,13.5630836,-4.0844874,-7.2671757,-9.1755724,-76.2061081,-1.6088953,3.6583214,2.0183017,44.0763359,-17.3587780,33.0916023
8760,3.8402798,12.7730007,-3.7181761,6.1679387,-24.2442741,-75.4885483,-0.7062859,3.3782012,1.0678085,31.7938938,-23.6946564,33.7633591
