timestamp,rxacclX,rxacclY,rxacclZ,rxgyroX,rxgyroY,rxgyroZ,txacclX,txacclY,txacclZ,txgyroX,txgyroY,txgyroZ
0,6.1506729,-1.1085097,15.0115681,-10.6793890,-113.1450348,-164.6183167,1.9249283,0.6033357,10.6637201,0.5267175,-3.8015268,-2.2366412
10,4.5729017,-1.1947005,15.0833931,-4.4122138,-102.5114517,-181.5648804,1.9871773,0.5530578,10.6613255,0.8854962,-3.7633588,-1.8702290
20,4.3334827,-1.3431402,15.7537670,4.1068702,-141.3893127,-196.6183167,1.9680238,0.5746055,10.5511932,0.9160305,-3.4351146,-2.0992367
30,4.9655490,-1.6687500,15.7896795,14.0534353,-195.3969421,-217.9084015,1.9057748,0.6248835,10.4937325,0.8320611,-3.4809160,-2.2748091
40,5.9471664,-2.1643472,16.3906212,27.6183205,-232.3969421,-247.6793823,1.8842272,0.5602403,10.4195127,1.0076336,-3.3969467,-2.4351146
50,6.9599090,-2.8490853,16.8191814,49.6488533,-250.1374054,-250.1374054,1.9392935,0.6895266,10.4123297,0.6641222,-3.6793892,-2.4961832
60,8.1761570,-3.9504125,17.9827576,85.1221390,-250.1374054,-250.1374054,1.9464760,0.6177009,10.4721851,0.3740458,-3.7480917,-2.1908398
70,7.6733770,-4.7381010,18.7728386,136.6030579,-250.1374054,-250.1374054,1.9201399,0.6057299,10.4793673,0.0534351,-4.4885497,-1.9312977
80,6.1937680,-6.0501165,18.4663830,207.3435059,-250.1374054,-250.1374054,1.9081690,0.6655847,10.5176744,-0.2442748,-4.3969464,-1.9007634
90,4.4555864,-6.9383612,16.7952385,250.1297760,-250.1374054,-250.1374054,1.9440818,0.6727672,10.5583754,-0.4885496,-4.5954199,-2.2061069
100,3.5122759,-6.4906478,13.9389706,250.1297760,-250.1374054,-250.1374054,2.0087249,0.5913648,10.5487986,-0.7175573,-5.0381680,-2.1603053
110,4.0054789,-5.9280128,10.4434547,250.1297760,-250.1374054,-250.1374054,1.9799947,0.6057299,10.5057030,-0.8702290,-4.9007635,-2.1984732
120,5.2672167,-4.5130472,9.1529865,250.1297760,-250.1374054,-250.1374054,1.8794388,0.6248835,10.7092094,-0.6030535,-4.6412215,-1.6488550
130,4.1874375,-3.6607156,7.8936424,250.1297760,-250.1374054,-250.1374054,1.9345051,0.5650287,10.6732969,-0.2900763,-4.2977099,-1.9007634
140,3.3446827,-3.4117200,5.2743993,250.1297760,-250.1374054,-250.1374054,1.9464760,0.5362985,10.5990763,0.2671756,-4.0839696,-2.4274809
150,0.6536137,-2.0470319,2.7748656,250.1297760,-250.1374054,-250.1374054,1.9680238,0.6823440,10.6469603,0.7251908,-3.7938931,-2.4427481
160,-2.3486998,-1.0295014,0.4548960,250.1297760,-250.1374054,-250.1374054,1.9321109,0.6679789,10.6325951,0.8702290,-3.7175572,-3.0076337
170,-4.2999644,-0.8666966,-0.6368544,250.1297760,-250.1374054,-250.1374054,1.9033806,0.6392486,10.5655584,1.0229008,-3.3129771,-2.7862597
180,-5.5784616,-0.6727672,-0.6296718,250.1297760,-250.1374054,-250.1374054,1.9273225,0.6607963,10.5751352,0.8320611,-3.2671757,-2.6488550
190,-6.2153158,-0.3399749,-0.4836263,244.9770966,-250.1374054,-250.1374054,1.8938038,0.6943150,10.4386663,0.5648855,-3.5267177,-2.0458016
200,-6.8976598,-0.0837966,0.2059003,224.2366486,-250.1374054,-250.1374054,1.9392935,0.6153067,10.5176744,0.2137405,-3.6412213,-1.7557251
210,-9.2726955,0.2274480,0.0359128,202.9007568,-250.1374054,-250.1374054,1.9105632,0.6440369,10.4913378,0.0381679,-3.9389312,-2.1755726
220,-11.8105364,0.6631905,-0.9528874,177.5954132,-250.1374054,-250.1374054,1.9368993,0.6655847,10.5057030,-0.0839695,-4.3206105,-1.9389313
230,-13.8695393,1.7980363,-2.0542145,146.7709961,-250.1374054,-250.1374054,2.0159075,0.6607963,10.5703468,-0.4122137,-4.1145039,-2.5267177
240,-15.9860029,3.0382264,-2.9711890,111.0381699,-250.1374054,-250.1374054,1.9680238,0.5626345,10.6062593,-0.3740458,-3.9847329,-3.0305343
250,-17.1663380,3.9288650,-3.1579359,72.1832047,-243.6106873,-250.1374054,1.9368993,0.5985473,10.6421719,-0.3129771,-3.9007633,-2.5877862
260,-17.4129391,4.5729017,-3.1914546,29.5725193,-206.8625946,-186.2671814,1.9177457,0.6631905,10.6517487,-0.2061069,-4.0229006,-2.2824428
270,-18.2461185,5.0589223,-3.8402798,-15.9847326,-146.7404633,-78.0839691,1.8602852,0.6009415,10.6302013,0.0305344,-3.9160306,-2.4885497
280,-19.2732258,4.7141590,-3.0789278,-65.0839691,-72.4351120,48.2442741,1.9081690,0.6224893,10.5152798,0.2671756,-3.9541984,-2.1908398
290,-19.1104202,4.2185616,-2.9520357,-115.1297684,-5.2824426,179.0534363,1.9081690,0.6272776,10.5080976,0.1755725,-3.8625953,-2.5419848
300,-18.2940025,4.0342093,-3.2177906,-168.7557220,45.1832047,250.1297760,1.7980363,0.6033357,10.5895004,0.1450382,-3.9083970,-1.7938931
310,-16.9819851,3.3351059,-1.7812769,-213.0992432,76.2900772,250.1297760,1.8961980,0.6368544,10.4937325,0.0687023,-4.1297708,-1.8931298
320,-14.7865143,1.8004304,0.4381367,-241.8320618,99.5801544,250.1297760,1.9081690,0.6081241,10.5679522,0.0381679,-4.1450381,-2.3587787
330,-11.9446115,-0.0239419,2.2218077,-250.1374054,107.2748108,250.1297760,1.8866212,0.6081241,10.5200682,-0.0534351,-4.0610685,-2.2671757
340,-8.3126259,-1.9632354,3.4548154,-250.1374054,97.6488571,250.1297760,1.8866212,0.5291159,10.6110477,-0.1374046,-4.4885497,-2.1068702
350,-4.3454537,-2.8251436,4.0030847,-250.1374054,80.3969498,250.1297760,1.8842272,0.6129125,10.5895004,0.1145038,-4.2824426,-2.2671757
360,-0.9121862,-2.7174051,4.6399393,-250.1374054,60.7633591,250.1297760,1.8938038,0.6344602,10.5823174,0.1832061,-4.2519083,-1.9618320
370,2.6455793,-2.7150109,4.9056940,-229.3053436,54.2519073,250.1297760,1.8938038,0.5865764,10.5009146,0.2519084,-4.1221375,-2.1450381
380,5.3270717,-2.7964132,6.9120250,-197.2900696,40.9312973,250.1297760,2.0015423,0.6224893,10.6062593,0.4580153,-4.1068702,-2.3969467
390,9.9143381,-2.8514795,9.1146793,-150.4809113,24.8396950,250.1297760,2.0087249,0.6655847,10.5823174,0.4045801,-4.1984735,-2.6335878
400,16.7784805,-2.1475880,12.0260134,-87.4732819,-3.6564887,250.1297760,1.9752063,0.6631905,10.5416164,0.2061069,-4.1068702,-2.2290077
410,19.6126022,-0.0766141,15.4137917,-1.7404580,-35.6106873,250.1297760,1.9249283,0.6224893,10.4865494,0.0916031,-4.2519083,-2.2595420
420,19.6126022,-0.2873027,14.7577839,87.1755753,-98.1908417,85.3587799,1.9297167,0.6655847,10.4578199,-0.0305344,-4.4732823,-2.0992367
430,19.6126022,-1.9416877,9.5264797,134.4580078,-133.6717529,-211.3816833,1.9488702,0.6584021,10.4506369,-0.3129771,-4.2900763,-2.0229008
440,19.6126022,-2.2553265,7.1682034,138.3587799,-192.2900696,-250.1374054,1.9512644,0.7038917,10.5895004,-0.4274809,-4.2671757,-1.7938931
450,18.7680511,-2.4516499,6.3972740,136.3816833,-198.7175598,-250.1374054,1.9871773,0.6488253,10.6110477,-0.2137405,-4.0076337,-1.6793894
460,12.9789009,-2.5306582,5.6143742,146.8931274,-162.0534363,-250.1374054,1.9560528,0.6967092,10.6397781,-0.2748092,-3.9923663,-2.4122138
470,5.4563580,-2.3223639,4.4747400,162.4274750,-129.3740387,-250.1374054,1.9776005,0.6655847,10.6493549,-0.1603053,-4.0458016,-1.7709924
480,-1.5179161,-1.8746504,2.2481439,170.0458069,-106.4274826,-250.1374054,2.0518203,0.6177009,10.5033092,0.0076336,-4.0152674,-2.8778627
490,-7.5153608,-0.9864060,1.1611819,170.0229034,-87.7480927,-250.1374054,2.0135133,0.6512195,10.6445665,-0.0152672,-3.7099237,-3.1908398
500,-13.9820662,0.7398046,0.3543400,164.9770966,-100.2671738,-250.1374054,2.0039365,0.6392486,10.6373835,0.1908397,-3.6641221,-2.5648854
510,-19.2612534,2.4037662,-0.2968795,156.5954132,-117.6946564,-250.1374054,1.9536586,0.6392486,10.4985209,0.5648855,-3.2900763,-3.4122138
520,-19.6131992,5.5018473,-1.8243724,138.5725250,-107.7099228,-250.1374054,1.8770446,0.6200951,10.5918941,0.6946565,-2.9312978,-3.2595420
530,-19.6131992,8.6430235,-4.0773048,103.4427490,-71.1297684,-250.1374054,1.9129574,0.6105183,10.4889441,0.4961832,-3.3511450,-3.0610688
540,-19.6131992,10.8289185,-6.1794028,49.2519073,-27.4961834,-99.6259537,1.8650736,0.6320660,10.4123297,0.1832061,-3.8015268,-2.7938931
550,-19.6131992,10.7906122,-7.6254935,-20.4885502,15.5725193,95.1297684,1.9728121,0.6296718,10.4769726,-0.0992366,-4.0992365,-2.6488550
560,-19.6131992,8.7387915,-7.4387465,-98.2824402,59.9312973,250.1297760,1.9632354,0.6344602,10.5655584,-0.4274809,-4.1755724,-2.7786260
570,-18.5406036,5.7963328,-5.8178802,-170.7404633,97.8625946,250.1297760,1.9704180,0.6536137,10.4841557,-0.7862595,-4.3358779,-3.0381680
580,-15.4640694,3.0573800,-3.3590479,-224.8091583,114.9083939,250.1297760,1.9273225,0.6727672,10.6014709,-0.8320611,-4.3664122,-3.2595420
590,-12.1241751,0.6057299,-0.9792235,-250.1374054,119.4198456,250.1297760,1.9297167,0.6488253,10.5631638,-0.5877863,-4.2290077,-3.3816793
600,-8.5257082,-1.1061156,1.3359578,-250.1374054,112.8320618,250.1297760,1.9057748,0.6224893,10.6254129,-0.1755725,-4.1908398,-2.4656489
610,-5.0708933,-2.3774302,3.6870518,-250.1374054,92.3511429,250.1297760,1.9153515,0.5841822,10.6182299,-0.1221374,-3.9312978,-2.3206108
620,14.6931410,-2.9783716,6.4714942,33.1679382,-80.5648880,-250.1374054,1.8914096,0.6775556,10.4482431,-0.6641222,-4.3969464,-1.7862595
630,7.2687593,-1.5490406,7.2567883,69.0229034,-67.3282471,-250.1374054,1.8507085,0.5937590,10.6661139,-0.5267175,-4.5725193,-2.2366412
640,-0.0646431,0.9576758,6.7755561,108.1068726,-53.9236641,-250.1374054,1.8961980,0.6129125,10.5823174,-0.5877863,-4.6259542,-1.6412214
650,-6.7587967,2.3247581,4.7381010,133.3969421,-44.2366409,-250.1374054,1.9297167,0.6057299,10.5248566,-0.5190840,-4.4885497,-1.9923664
660,-10.2351599,3.6248028,2.1475880,144.1297760,-39.0687027,-250.1374054,2.0278785,0.6368544,10.5679522,-0.4503817,-4.2977099,-1.8091604
670,-13.5989962,5.4395986,0.1244979,139.7938995,-36.9618340,-250.1374054,1.9536586,0.6416427,10.6421719,-0.4580153,-4.1755724,-1.9923664
680,-15.6460285,8.6669655,-1.9776005,116.1068726,-27.3129768,-250.1374054,1.9847831,0.6224893,10.5559816,-0.1450382,-4.2061067,-2.7633588
690,-19.6131992,11.0204544,-3.1148405,76.4122162,-3.9618320,-208.9084015,1.9847831,0.7014975,10.5392218,-0.1297710,-4.0229006,-1.3969465
700,-19.6131992,11.8991213,-5.2624283,24.0152664,32.9007645,-35.6183205,2.0398495,0.6751614,10.5559816,0.1679389,-3.7251909,-1.7557251
710,-19.6131992,10.9893293,-6.4068508,-38.6335869,71.0076370,151.1221313,2.0063307,0.6512195,10.4626083,-0.0076336,-4.1145039,-2.6641221
720,-19.6131992,8.7699156,-6.2631998,-106.8702316,94.4961853,250.1297760,2.0326669,0.6679789,10.5823174,-0.1984733,-4.2519083,-2.4274809
730,-17.6882725,6.5169835,-4.7692256,-167.5954132,115.7480927,250.1297760,2.0637913,0.6057299,10.5104914,-0.4503817,-4.2519083,-2.4580152
740,-13.9677010,3.8857694,-2.3606708,-208.7709961,134.4427490,250.1297760,1.9464760,0.6440369,10.5368280,-0.7862595,-4.2900763,-2.6183207
750,-10.7642756,1.4748207,-0.2896969,-231.4274750,144.9236603,250.1297760,2.0183017,0.6440369,10.4913378,-0.9160305,-4.5648856,-2.9312978
760,-6.9766679,-0.6009415,2.3510940,-236.6412201,142.4580078,250.1297760,1.9991482,0.6272776,10.5895004,-0.9541985,-4.8015265,-2.7633588
770,-3.0956869,-1.8961980,5.0613165,-223.3664093,133.0458069,250.1297760,1.9249283,0.6775556,10.6086531,-1.1145039,-4.7175574,-2.4198472
780,1.3048333,-2.5665710,7.5776095,-189.9007568,118.9083939,250.1297760,1.8507085,0.5937590,10.5344334,-1.0687023,-4.5343513,-3.1221373
790,7.5584559,-1.5610116,9.8473015,-143.3664093,94.9923630,250.1297760,1.9440818,0.6057299,10.5080976,-0.9694657,-4.5343513,-2.9083970
800,14.8655224,-1.0271072,10.6804790,-93.2061081,48.8778610,250.1297760,1.9680238,0.5458752,10.5152798,-0.9923664,-4.3740458,-2.8396947
810,19.6126022,-0.3471575,10.6756907,-36.9694672,-6.2442746,250.1297760,1.9776005,0.5578461,10.5416164,-1.1145039,-4.3282442,-3.0916030
820,19.6126022,-1.4053892,9.8065996,10.9236641,-57.9236641,114.0534363,1.8961980,0.6512195,10.5200682,-0.8167939,-4.1832061,-3.6870229
830,19.6126022,-2.4540441,8.2384062,35.7022896,-94.1832047,-161.5343475,1.9943599,0.5769997,10.6589317,-0.5954198,-4.1984735,-3.0076337
840,19.6126022,-2.8419030,7.1251078,38.9923668,-140.1603088,-250.1374054,1.9225341,0.6033357,10.6038647,-0.5114504,-3.9694657,-2.8320611
850,19.6126022,-3.3782012,7.0293403,32.6030540,-149.6488495,-250.1374054,1.9249283,0.5722113,10.5272512,-0.6259542,-4.0534353,-2.8091602
860,15.0690289,-3.6439564,7.8337879,39.8167953,-136.0381622,-250.1374054,1.9560528,0.6368544,10.5775290,-0.7328244,-4.4045801,-2.9465649
870,8.7220325,-2.7174051,9.2798786,70.0229034,-122.7633591,-250.1374054,1.9728121,0.5865764,10.5464048,-0.8702290,-4.5572519,-2.9541984
880,3.7780309,-0.7326220,9.8065996,118.1603088,-108.7557220,-250.1374054,1.8961980,0.6057299,10.6685085,-0.7175573,-4.6183205,-2.2290077
890,-0.6488253,0.6943150,8.3629036,165.2671814,-76.9542007,-250.1374054,2.0183017,0.5698171,10.6589317,-0.2442748,-4.1374044,-2.6488550
900,-3.2489152,1.4101776,5.4515696,200.7557220,-20.9618320,-250.1374054,1.8938038,0.5578461,10.5464048,-0.0229008,-3.7938931,-2.2519083
910,-4.7716198,2.6862805,2.3151813,221.2213745,27.3969460,-250.1374054,2.0087249,0.5722113,10.6206245,0.2671756,-3.8167939,-2.2977099
920,-6.1794028,3.8666160,-0.3112446,220.2519073,47.3893127,-250.1374054,1.9153515,0.6105183,10.5631638,0.5877863,-3.6488550,-2.3511450
930,-9.6030941,4.4699516,-2.6024840,203.8854980,42.8396950,-250.1374054,1.9249283,0.5865764,10.5775290,0.4656489,-3.7251909,-2.0763359
940,-14.8487625,5.2839761,-3.9288650,180.8320618,24.7022896,-250.1374054,2.0039365,0.5626345,10.5272512,0.2519084,-4.0534353,-2.2824428
950,-19.6131992,6.4212160,-4.5824785,151.0000000,-2.1450381,-250.1374054,1.9464760,0.5578461,10.5392218,-0.2061069,-4.2595420,-1.8396946
960,-19.6131992,7.6973190,-5.5880380,110.8778610,-15.3282442,-169.3587799,1.9560528,0.6177009,10.5080976,-0.5343512,-4.3740458,-1.5190840
970,-19.6131992,8.8034344,-7.0987716,57.7938919,-6.6870227,-47.6106873,1.9153515,0.6560079,10.4985209,-0.6717557,-4.6564884,-2.0534351
980,-19.6131992,9.2798786,-7.8673067,-3.2366412,23.4122143,67.6793900,1.9680238,0.5626345,10.5224628,-0.5725191,-4.6717558,-1.7862595
990,-18.1431675,8.7435799,-8.1282730,-66.4961853,58.0076332,171.7709961,1.9560528,0.5865764,10.5009146,-0.5190840,-4.5419846,-2.1374047
1000,-17.3889980,6.3541789,-7.1490498,-127.5114517,88.0152664,250.1297760,1.9895715,0.5698171,10.5703468,-0.1297710,-4.1679387,-1.6564885
1010,-16.5103302,4.4388270,-4.9128766,-175.6259613,100.3206100,250.1297760,2.0350611,0.5985473,10.4697905,0.1603053,-3.9770992,-2.2671757
1020,-15.1312771,3.2872221,-2.0877333,-203.8167877,104.4885483,250.1297760,2.0470319,0.5578461,10.5296450,0.1984733,-3.5114503,-2.7633588
1030,-12.8280668,2.8107784,0.3351865,-209.0686951,109.2900772,250.1297760,1.9919657,0.5674229,10.5918941,0.3664122,-3.5496182,-3.0305343
1040,-10.2279778,2.7988074,1.5346755,-200.4351196,114.4809189,250.1297760,1.9943599,0.6200951,10.5727406,0.0000000,-4.0687022,-2.9541984
1050,-7.0389171,2.4540441,1.6926919,-194.2595367,110.9083939,250.1297760,1.9871773,0.6296718,10.5559816,-0.2748092,-4.1374044,-2.6488550
1060,-2.1595588,1.4532729,0.7852941,-201.2213745,88.1068726,250.1297760,2.0230901,0.6464311,10.6230183,-0.3511450,-4.0839696,-2.4732823
1070,2.6216373,1.4293311,0.4836263,-212.8091583,69.8702316,250.1297760,2.0111191,0.6440369,10.6421719,-0.5038168,-4.0152674,-2.3358779
1080,6.6630292,1.1109039,1.2713146,-220.9160309,51.3435097,250.1297760,1.9464760,0.5769997,10.5320396,-0.3969466,-4.1832061,-2.7404580
1090,11.8105364,-0.1221037,3.8330972,-213.1526642,11.2900763,250.1297760,1.9967541,0.6177009,10.5440102,-0.3511450,-4.2290077,-2.1984732
1100,19.6126022,0.3782819,9.3205795,-177.3435059,-44.6106873,250.1297760,1.9488702,0.5913648,10.4673967,-0.1450382,-4.0610685,-2.7786260
1110,19.6126022,0.7302278,14.0371332,-113.9312973,-87.5801544,117.0076370,1.9560528,0.5578461,10.6469603,-0.2824427,-3.8778627,-2.6259542
1120,19.6126022,-1.5466464,14.4297800,-52.6259537,-108.0916061,-114.7633591,1.9608412,0.5698171,10.5248566,-0.2900763,-4.0534353,-2.6793892
1130,19.6126022,-2.9161227,14.3435888,-5.9694657,-112.6793900,-250.1374054,1.9153515,0.5985473,10.4434547,-0.1984733,-4.1679387,-2.9923663
1140,19.6126022,-3.1076579,15.4568872,45.7480927,-122.3816757,-250.1374054,1.9129574,0.5769997,10.4937325,-0.6717557,-3.9083970,-3.0534351
1150,15.4808292,-3.0693510,15.3036594,111.2595444,-135.9847260,-250.1374054,1.9536586,0.5458752,10.5511932,-0.5954198,-4.0839696,-3.0687022
1160,10.0723553,-1.9129574,13.4098549,177.5877838,-132.2900696,-250.1374054,1.9680238,0.6129125,10.5224628,-0.5267175,-4.2290077,-2.2366412
1170,5.3510137,0.2442073,10.1657286,228.8015289,-116.5954208,-250.1374054,1.9392935,0.5793939,10.5583754,-0.6259542,-4.0076337,-2.8931298
1180,2.0661855,1.8124014,6.0405402,250.1297760,-81.7404556,-250.1374054,1.9129574,0.6009415,10.5703468,-0.7022901,-4.1526718,-2.8625953
1190,-0.4788379,3.2297616,2.0326669,250.1297760,-28.4809170,-250.1374054,1.9919657,0.5913648,10.4961262,-0.8702290,-4.2137403,-2.5343511
1200,-2.2050486,4.1826491,-2.0877333,236.5954132,24.4045811,-250.1374054,1.9177457,0.6009415,10.4314833,-0.9083970,-3.7709923,-2.9083970
1210,-4.6351509,4.3598189,-4.5393834,205.8396912,50.8778610,-250.1374054,2.0015423,0.5769997,10.5464048,-0.5648855,-4.1908398,-2.3358779
1220,-9.0356712,4.0437860,-6.2368636,169.4503784,43.7022896,-250.1374054,2.0685797,0.5003856,10.5368280,-0.3206107,-4.4198475,-2.4198472
1230,-14.0634689,3.6822634,-6.6869712,133.2595367,24.7175579,-250.1374054,2.0805507,0.5578461,10.4745789,-0.2519084,-4.2595420,-3.0992367
1240,-17.9205074,4.6040263,-6.0453281,98.3053436,2.2977099,-250.1374054,1.9512644,0.5003856,10.6206245,-0.3664122,-3.8396947,-3.2366412
1250,-19.6131992,6.3230543,-5.5569139,66.5648880,-16.7328243,-212.4809113,2.0422437,0.5674229,10.4673967,0.0076336,-3.4961832,-3.3435113
1260,-19.6131992,7.8625183,-6.0189924,29.5419846,-5.4503818,-135.0076294,1.8818330,0.5769997,10.6373835,0.1832061,-3.3664122,-3.0687022
1270,-19.6131992,7.2232695,-6.4212160,-13.6412210,29.5496178,-43.8549614,1.9177457,0.5913648,10.6086531,0.2290076,-3.6412213,-3.0992367
1280,-19.6131992,6.4451580,-6.9934273,-64.8931274,58.2290077,57.8625946,1.9273225,0.5961532,10.4913378,0.2137405,-3.7099237,-2.5954199
1290,-19.6131992,4.8218975,-6.8425937,-114.6793900,79.6488571,162.3893127,1.8890154,0.6344602,10.5344334,0.1221374,-3.7938931,-2.8320611
1300,-19.6131992,3.9336534,-6.0453281,-155.6946564,100.1221390,250.1297760,1.9488702,0.5722113,10.4937325,-0.1526718,-4.0381680,-2.5801528
1310,-18.3035774,3.4811516,-4.3741841,-187.1145020,125.0381699,250.1297760,1.9823889,0.5985473,10.4841557,0.0076336,-3.9541984,-2.2137403
1320,-15.3754845,2.6551561,-3.3590479,-211.6870270,154.3969421,250.1297760,1.9776005,0.5650287,10.6014709,-0.1755725,-4.0152674,-2.2213740
1330,-11.7913828,1.6304430,-1.6807210,-235.5267181,169.6412201,250.1297760,1.9776005,0.5195391,10.6373835,-0.0076336,-4.0610685,-1.9083970
1340,-8.5209198,1.3838415,-0.9002152,-250.1374054,159.0458069,250.1297760,1.9799947,0.5339043,10.5224628,0.2595420,-3.9160306,-2.2137403
1350,-6.1650376,0.2681492,-0.7350162,-250.1374054,125.7709961,250.1297760,1.9560528,0.5674229,10.6230183,0.7557252,-3.7633588,-1.4732825
1360,-3.9767487,-0.1699875,-0.4046180,-250.1374054,106.1984711,250.1297760,1.9967541,0.5171449,10.5703468,1.0839695,-3.7709923,-2.0610688
1370,-0.5841822,0.1651991,0.6320660,-250.1374054,96.1450348,250.1297760,1.9991482,0.5889706,10.5033092,0.9236641,-3.6641221,-1.7862595
1380,2.7030399,-0.4046180,2.3582766,-250.1374054,82.7938919,250.1297760,2.0159075,0.5889706,10.5392218,0.7480916,-3.6030533,-1.8091604
1390,5.2696109,-2.0805507,4.3670015,-250.1374054,59.8778610,250.1297760,1.9560528,0.6153067,10.5009146,0.4274809,-3.3053436,-2.0229008
1400,10.6134415,-3.1387823,7.5680327,-250.1374054,29.4580154,250.1297760,1.9560528,0.5889706,10.5152798,0.2900763,-3.9923663,-1.8244275
1410,19.6126022,-1.1156923,13.3452120,-247.5343475,13.8549614,250.1297760,1.8985922,0.5722113,10.5918941,0.2213740,-4.3282442,-1.6870229
1420,19.6126022,1.4891858,19.2708302,-160.5725250,16.5267181,160.5725250,1.9368993,0.6057299,10.5511932,0.0000000,-4.1297708,-1.1068702
1430,19.6126022,1.7046629,19.6126022,-57.0610695,-21.2824421,15.6335878,1.9871773,0.5506636,10.6014709,-0.1450382,-4.2519083,-1.6259542
1440,19.6126022,-0.0981618,19.6126022,52.3129768,-85.1145020,-131.3816833,1.9584470,0.5554519,10.6517487,-0.0305344,-4.4274807,-1.9312977
1450,19.6126022,-0.4501076,19.6126022,155.2595367,-130.0076294,-250.1374054,1.9368993,0.5458752,10.6349897,-0.0381679,-4.2137403,-1.7557251
1460,15.6867294,0.2489957,17.3267498,241.1755676,-167.1145020,-250.1374054,1.9345051,0.5362985,10.5679522,-0.0152672,-4.0152674,-1.6335878
1470,11.4202833,0.6392486,12.3372583,250.1297760,-176.9770966,-250.1374054,1.9297167,0.5291159,10.6302013,-0.0687023,-4.0305343,-1.5801526
1480,6.3589673,1.2354017,7.4124107,250.1297760,-165.0915985,-250.1374054,1.9464760,0.5554519,10.4937325,0.0687023,-4.1679387,-1.7251909
1490,1.5897418,2.5330524,3.5170643,250.1297760,-114.0839691,-250.1374054,1.9608412,0.5267217,10.6230183,0.0534351,-3.9618320,-2.0076337
1500,1.6400198,5.7747850,0.7182568,250.1297760,-40.7633591,-250.1374054,1.9345051,0.5003856,10.5703468,0.2137405,-3.7480917,-1.8320611
1510,0.3184272,7.0868006,-1.1132981,250.1297760,20.3282452,-250.1374054,2.0039365,0.6129125,10.5847120,0.3740458,-3.6946564,-1.4961832
1520,0.4979914,6.7109132,-3.0478032,250.1297760,88.4732819,-238.2290039,1.9368993,0.5985473,10.5128860,0.5954198,-3.7022901,-2.5190840
1530,-0.9026094,7.0652533,-3.9671719,250.1297760,129.4656525,-219.1832123,1.9201399,0.6296718,10.5607700,0.3893130,-3.6793892,-1.7633588
1540,-2.2385671,6.2272868,-5.6478930,236.0763397,135.0152740,-215.8625946,1.9656296,0.6344602,10.5416164,0.5419847,-3.5954199,-2.6412213
1550,-4.2520804,5.6478930,-6.4403696,211.8320618,116.1068726,-220.3358765,1.9488702,0.6153067,10.5511932,0.5496183,-3.7862597,-2.0916030
1560,-7.9558916,6.0549049,-6.8641410,184.0152740,59.2061081,-214.7709961,2.0015423,0.6272776,10.4530315,0.2366412,-4.0076337,-2.1221373
1570,-9.7060442,6.3661499,-7.6374645,157.5648804,10.9923668,-203.1984711,1.9536586,0.6320660,10.4889441,-0.1603053,-4.2748094,-1.8015267
1580,-9.1793222,6.9838505,-6.4188218,137.3053436,6.2213740,-184.7938995,1.8985922,0.5626345,10.5344334,-0.1984733,-4.4732823,-1.7480916
1590,-13.6229382,7.9319496,-6.9359670,130.1832123,15.4351149,-161.4122162,1.9943599,0.5219333,10.6014709,-0.2900763,-4.2061067,-2.5801528
1600,-14.6644106,6.6366930,-7.6733770,117.7633591,64.7480927,-114.7404556,1.9895715,0.4596844,10.6086531,-0.2290076,-4.1221375,-2.5343511
1610,-16.0530396,6.8856888,-7.7428088,104.8778610,134.4351196,-56.3664131,1.9680238,0.5386927,10.6110477,-0.1603053,-4.1526718,-2.0076337
1620,-15.2629576,6.8425937,-8.4826136,88.3282471,172.5648804,5.0610685,1.9656296,0.5817881,10.6493549,-0.0610687,-4.0000000,-2.0458016
1630,-14.7529955,6.9263902,-9.1745338,64.8015289,196.7480927,57.2824440,1.9273225,0.5626345,10.5966825,0.2519084,-3.8091602,-1.9312977
1640,-14.3244352,8.4275465,-15.2581692,-27.9847336,120.0000000,82.6183243,2.0063307,0.5889706,10.5918941,0.4809160,-3.7709923,-1.7709924
1650,-12.8017311,8.8249826,-14.2885227,-156.7404633,17.7328243,103.1145020,1.9680238,0.6440369,10.5655584,0.1832061,-3.9160306,-2.3664122
1660,-8.4802189,6.2679882,-8.6933022,-191.0610657,70.3282471,131.9313049,1.9297167,0.6200951,10.6014709,0.2900763,-3.8778627,-1.7099236
1670,-8.8800488,5.5449429,-6.8761120,-214.0152740,135.2671814,154.0992432,1.9033806,0.6416427,10.5272512,0.1832061,-4.2748094,-2.2061069
1680,-8.2838955,5.2073622,-6.0118098,-227.6183167,177.7099304,185.0305328,1.9345051,0.5626345,10.5679522,-0.0610687,-4.5725193,-1.5267175
1690,-8.1570034,5.2384863,-4.5752959,-250.1374054,138.3816833,224.7175598,1.9799947,0.5746055,10.5224628,-0.2671756,-4.5801525,-1.2900764
1700,-4.7213416,3.6200144,-1.9776005,-250.1374054,109.0534363,244.1450348,2.0063307,0.5722113,10.5009146,-0.0992366,-4.6106873,-1.4503816
1710,-2.7389526,3.8259149,0.4740495,-250.1374054,110.3969498,250.1297760,2.0661855,0.5913648,10.6110477,-0.0916031,-4.3893127,-1.7404580
1720,-0.4141948,2.8706331,2.7437410,-250.1374054,87.6946564,250.1297760,2.0087249,0.5746055,10.6062593,0.1603053,-4.1450381,-1.9770992
1730,3.0501974,3.1723011,6.8737178,-241.4045868,35.9312973,250.1145020,2.0159075,0.5722113,10.6038647,0.3664122,-3.9694657,-2.3511450
1740,7.9918046,4.4316444,11.8320847,-188.8396912,-47.5572510,219.6793823,1.9728121,0.5482694,10.6158361,0.7709923,-3.5267177,-2.0458016
1750,13.8144732,6.2919297,16.1128960,-106.5267181,-124.7938919,167.5954132,2.0135133,0.6296718,10.6182299,0.8320611,-3.3893130,-2.2595420
1760,18.2796364,7.8697009,17.0011387,-13.0229006,-164.8015289,94.1526718,1.9656296,0.6105183,10.5583754,0.7709923,-3.3740458,-1.8778626
1770,19.6126022,9.4091644,14.2669754,58.5801544,-170.7404633,11.0305347,1.9752063,0.6177009,10.5224628,0.8778626,-3.4045801,-1.5954199
1780,19.6126022,9.4331064,11.7650471,102.7099228,-155.2061005,-77.6946564,1.9752063,0.6033357,10.5176744,0.5267175,-3.8625953,-1.1221374
1790,18.4951134,8.6286592,9.3205795,136.1221313,-139.1984711,-154.8778687,1.9656296,0.5937590,10.5416164,0.2900763,-3.8244274,-2.2137403
1800,14.0586805,7.6877422,6.9575148,162.1832123,-127.4274826,-208.2748108,1.9177457,0.5578461,10.5344334,0.1832061,-3.8778627,-1.7404580
1810,10.1992474,7.1346846,4.6112089,178.8549652,-115.9083939,-237.5190887,1.9823889,0.5889706,10.5080976,-0.0534351,-4.0763359,-1.9541985
1820,7.2184811,6.7803445,1.9392935,183.9465637,-98.5648880,-250.1374054,1.9656296,0.5865764,10.5296450,-0.0152672,-4.0305343,-1.8854961
1830,4.8386569,6.8258343,0.0646431,177.0839691,-72.0763321,-250.1374054,2.0278785,0.5650287,10.5871058,0.1374046,-4.0610685,-1.3664122
1840,2.4947455,6.8593526,-1.9823889,163.1984711,-38.3969460,-250.1374054,1.9799947,0.5554519,10.5727406,0.1908397,-3.9923663,-1.7633588
1850,0.3687052,6.4475522,-3.0310438,144.3740387,-1.8854961,-250.1374054,1.9776005,0.5195391,10.5631638,0.2900763,-3.8931298,-2.0687022
1860,-1.8387375,6.1698260,-3.8235207,125.6030502,21.9923668,-250.1374054,2.0206959,0.5530578,10.5368280,0.3816794,-3.8244274,-2.0152671
1870,-3.6631098,5.4802995,-4.5824785,110.6641235,52.3129768,-250.1374054,1.9991482,0.6224893,10.6565371,0.4045801,-3.9694657,-2.1068702
1880,-5.7053533,5.3581958,-5.0589223,97.7862625,72.8473282,-239.1297760,2.0374553,0.6009415,10.6086531,0.6030535,-3.9618320,-2.1526718
1890,-7.5009956,4.8961172,-5.7795734,89.5801544,76.8167953,-223.7709961,2.0590029,0.5841822,10.5966825,0.5648855,-3.6335878,-2.1068702
1900,-9.8664551,4.5130472,-6.9862447,81.9542007,77.5725174,-202.5572510,1.9680238,0.5722113,10.5679522,0.7404580,-3.7480917,-2.5725191
1910,-12.1050215,4.8266859,-7.9391322,67.7175598,66.4885483,-174.0076294,1.9560528,0.5865764,10.4937325,0.5038168,-3.4656489,-2.2137403
1920,-14.3316183,4.8314743,-9.2726955,49.3282433,57.7709923,-138.9389343,1.9991482,0.5961532,10.5033092,0.1908397,-2.3740458,-1.9236641
1930,-16.9795914,5.0684991,-10.4793673,25.3816795,53.2671738,-93.7404556,2.0135133,0.5602403,10.5942879,0.5648855,-3.3358779,-1.6259542
1940,-18.8159351,5.2624283,-11.4801388,-3.6870229,41.8320618,-39.2061081,2.0446377,0.5650287,10.5655584,1.0000000,-3.3893130,-2.4809160
1950,-19.6131992,5.5784616,-12.1648769,-37.2366409,30.0381680,19.3129768,2.0135133,0.6344602,10.5918941,1.1603054,-2.7786260,-2.2290077
1960,-19.1654873,5.7460546,-12.0786858,-74.6564865,23.3358784,79.6183243,2.0278785,0.5841822,10.5775290,1.1755725,-2.8015268,-1.6717557
1970,-17.2788658,5.7053533,-11.2981796,-108.1450348,22.3129768,133.1679382,1.9919657,0.6224893,10.6110477,1.5801526,-2.5877862,-2.4503818
1980,-14.7673607,5.5329719,-10.2519188,-137.1526642,16.7251911,177.5877838,1.9680238,0.6224893,10.5583754,1.1832061,-3.5725191,-2.9541984
1990,-12.2893744,5.1690550,-9.2032642,-161.5496216,12.8549614,214.2900696,1.9273225,0.6392486,10.5464048,0.8931298,-2.6946564,-2.7022901
2000,-10.1130562,4.8769641,-8.1186962,-182.1603088,12.9236641,243.2595367,1.8147956,0.6129125,10.4745789,0.5725191,-2.9618320,-2.7633588
2010,-7.8050575,4.4484038,-7.0053983,-199.7938995,15.3587790,250.1297760,1.9153515,0.5793939,10.5320396,0.3664122,-3.6870229,-2.0687022
2020,-6.0525107,3.9192882,-5.8202744,-216.3893127,21.2824421,250.1297760,1.9057748,0.5386927,10.5057030,0.2442748,-3.9160306,-2.7175572
2030,-3.9575951,3.2082138,-4.5561423,-232.5648804,24.1755733,250.1297760,1.9225341,0.5147507,10.6158361,0.1984733,-4.0152674,-2.1145039
2040,-1.8435259,2.5019281,-3.1627243,-245.4656525,23.9465656,250.1297760,1.8914096,0.4932030,10.5511932,0.2977099,-3.8091602,-2.5114503
2050,0.2418131,1.7549409,-1.4700323,-250.1374054,24.4885502,250.1297760,1.9345051,0.4668669,10.6565371,0.5496183,-3.4656489,-2.6488550
2060,2.9089401,1.1851238,1.2856797,-250.1374054,12.5267172,250.1297760,1.9225341,0.5147507,10.5655584,0.7251908,-3.4961832,-1.9694656
2070,6.6247220,1.0247130,5.3653784,-240.5954132,-29.4198475,250.1297760,1.9057748,0.4596844,10.6278067,1.0610687,-3.2824428,-2.2442749
2080,12.1529055,1.9943599,10.4578199,-199.7099304,-107.4809189,250.1297760,1.8818330,0.5027798,10.5751352,1.3358779,-3.1984732,-2.0610688
2090,18.7321377,4.8769641,14.7984848,-137.6717529,-174.9084015,210.4503784,1.9225341,0.4716553,10.6349897,1.4885496,-2.8702290,-1.9160305
2100,19.6126022,6.8521700,16.6228580,-65.9694672,-185.3816833,124.8396912,1.8602852,0.4908088,10.5751352,1.5648855,-2.9923663,-1.3816794
2110,19.6126022,7.8098459,17.3818150,-3.1603053,-153.1679382,25.1450386,1.9321109,0.5506636,10.5895004,1.1908396,-2.6946564,-1.8778626
2120,19.6126022,7.5895805,16.7210197,55.9160309,-112.1908417,-68.9312973,1.9081690,0.4955972,10.6110477,1.3587786,-3.2213740,-2.5190840
2130,19.6126022,6.3613615,14.4824524,109.0229034,-83.3740463,-148.0610657,1.9129574,0.5913648,10.5392218,1.2748091,-3.7480917,-1.9007634
2140,16.2852764,5.6646523,12.0595322,150.2137451,-93.5114517,-197.6564941,1.8674678,0.5817881,10.5368280,1.2519084,-3.5496182,-1.8396946
2150,12.7107515,5.2791877,9.5336628,180.5648804,-101.7022934,-223.2519073,1.8435259,0.5458752,10.5440102,1.1832061,-4.2137403,-1.3129771
2160,9.9933472,5.6981707,6.2560172,195.1221313,-82.6030502,-234.8931274,1.8961980,0.5746055,10.5224628,1.0152671,-4.3053436,-1.4809160
2170,7.7906923,6.2799587,3.6487448,193.8015289,-40.9771004,-238.7175598,1.9632354,0.5530578,10.4793673,0.7175573,-4.3664122,-1.8244275
2180,5.9495606,6.4475522,1.6519908,185.5114441,9.7633591,-239.3053436,1.9991482,0.6895266,10.6685085,0.6564885,-4.6335878,-1.9236641
2190,3.9097114,6.2320752,0.2609667,178.6564941,49.7099228,-238.8549652,2.0685797,0.5602403,10.5033092,0.9847328,-4.5190840,-2.1526718
2200,2.1906834,5.8657641,-1.3503228,175.2748108,68.3206100,-238.7251892,2.0733681,0.6296718,10.5751352,1.0229008,-4.2671757,-2.0152671
2210,0.6991033,5.5305777,-3.2273674,172.6412201,62.5038185,-239.7938995,2.0087249,0.6512195,10.5559816,0.9389313,-4.0458016,-2.8625953
2220,-0.1915352,4.9823084,-5.2193332,168.2213745,45.5648842,-245.1526642,2.0709739,0.6751614,10.5631638,1.1374046,-3.9694657,-3.1297710
2230,-1.4772149,4.5776901,-7.0484939,159.8091583,30.9083977,-250.1374054,2.0446377,0.7134684,10.5751352,0.7862595,-3.8244274,-2.7709923
2240,-2.9137285,4.6279683,-8.5903521,145.6717529,22.1755733,-250.1374054,2.0063307,0.7421987,10.4673967,0.7862595,-4.0916033,-3.0076337
2250,-5.3534074,4.5082588,-9.5576038,127.3053436,23.7404575,-250.1374054,1.9632354,0.7302278,10.4913378,0.4809160,-3.9465649,-2.8549619
2260,-7.8577299,4.4843168,-10.5272512,106.0534363,33.9236641,-250.1374054,2.0709739,0.6895266,10.5703468,0.3358779,-3.9694657,-3.0839694
2270,-11.5687237,4.5633249,-11.1186161,81.6870193,44.2442741,-237.0992432,2.0685797,0.6703730,10.5320396,0.5343512,-3.7786260,-2.7022901
2280,-15.0283270,4.6183915,-11.7698355,54.2366409,55.4198456,-203.5725250,2.1284344,0.7134684,10.5847120,0.3664122,-3.9160306,-4.2977099
2290,-18.8087521,5.0900469,-12.5311880,24.6870232,67.4656525,-154.2671814,2.1308286,0.6631905,10.5727406,0.5114504,-3.2137403,-3.9083970
2300,-19.6131992,5.4802995,-13.0411501,-6.8854961,65.8015289,-93.8702316,2.1140692,0.7086801,10.5655584,1.2213740,-2.9389312,-4.3053436
2310,-19.6131992,5.0445571,-13.5678720,-42.5954208,56.5038185,-24.0458012,1.9847831,0.6823440,10.5368280,1.3282443,-2.3511450,-4.7251906
2320,-19.6131992,5.3103123,-12.7059631,-78.7251892,31.4580154,51.5877876,1.9823889,0.7014975,10.5751352,1.5038168,-1.7175573,-4.6641221
2330,-19.6036224,5.0325861,-11.5998478,-106.9312973,8.3969469,112.2137375,1.9967541,0.6703730,10.5009146,1.3664122,-2.3893130,-4.3435116
2340,-16.4169579,4.8410511,-10.2519188,-129.9160309,-1.2519084,159.5954132,1.9368993,0.6775556,10.4530315,1.2824427,-2.0610688,-4.3511453
2350,-13.8120794,4.5010762,-8.8752604,-147.4427490,-7.0763359,197.5190887,1.8770446,0.6057299,10.6062593,1.1603054,-2.0152671,-4.5038166
2360,-11.3508520,4.3406653,-8.0325060,-161.5114441,-8.6335878,227.8091583,1.7956421,0.6727672,10.5703468,1.4274809,-2.4656489,-4.1526718
2370,-9.2894554,4.0629396,-7.4531116,-175.4274750,-5.4045801,250.1297760,1.8938038,0.5793939,10.5224628,1.4961832,-3.1908398,-3.5496182
2380,-7.3788919,3.8570392,-6.7085190,-190.8167877,0.7328244,250.1297760,1.8507085,0.6344602,10.6062593,1.5801526,-2.3740458,-3.6259542
2390,-5.6957769,3.2273674,-5.8394279,-205.1450348,2.4809160,250.1297760,1.8794388,0.6751614,10.5440102,1.6412214,-2.2824428,-2.7786260
2400,-3.7062054,2.7293761,-4.8769641,-217.1755676,-0.5801527,250.1297760,1.7932479,0.5865764,10.6014709,1.8320611,-3.2442749,-2.4045801
2410,-1.3407460,2.0326669,-3.8187323,-227.9847260,-2.5801528,250.1297760,1.8315549,0.6943150,10.5511932,1.8244275,-3.1297710,-2.1679389
2420,1.1109039,1.4460905,-2.3032103,-236.2900696,-7.3282442,250.1297760,1.9680238,0.6703730,10.6182299,1.6335878,-3.3053436,-1.6412214
2430,4.3239059,1.1539993,0.0526722,-238.9084015,-12.5419846,250.1297760,1.9129574,0.6368544,10.5966825,1.5801526,-2.8854961,-1.9923664
2440,7.5943689,1.4173602,3.4069316,-231.8473358,-30.2595425,250.1297760,1.8722562,0.7230452,10.5559816,1.4809160,-3.2748091,-1.5572519
2450,11.5902710,2.3008161,7.6063399,-207.5419922,-59.3053436,250.1297760,1.8938038,0.6823440,10.5296450,1.5725191,-3.9083970,-1.6870229
2460,16.2445755,3.2872221,11.6525202,-167.1908417,-95.0229034,230.9465637,1.9081690,0.6536137,10.5152798,1.3740458,-3.4274809,-1.5877863
2470,19.6126022,4.6782460,14.9948082,-113.6488571,-126.3053436,163.7328186,1.9321109,0.7182568,10.4626083,1.1526718,-2.8702290,-1.7251909
2480,19.6126022,5.3246775,18.2987900,-52.2137413,-138.3053436,75.1908417,1.8938038,0.6560079,10.5033092,1.0992366,-3.4961832,-1.0076336
2490,19.6126022,4.9870968,19.6126022,14.7786255,-125.1374054,-12.5267172,1.8507085,0.7158626,10.5464048,1.0000000,-3.3816793,-0.9694657
2500,19.6126022,4.5872669,19.6126022,82.2519073,-102.9312973,-86.9694672,1.8483143,0.6105183,10.5799236,1.1450381,-3.5267177,-0.2290076
2510,19.6126022,4.1108232,17.5039196,140.2519073,-88.0534363,-141.4503784,1.8914096,0.6823440,10.6278067,1.1832061,-4.2366414,-0.5038168
2520,17.0873299,3.6702924,14.7889080,184.5572510,-81.1679382,-173.5954132,1.9033806,0.5937590,10.5296450,0.7862595,-4.1526718,-0.4274809
2530,14.2837343,3.8354914,11.1712875,217.9389343,-64.1297684,-194.9694672,1.9201399,0.6416427,10.5871058,0.4809160,-4.1832061,-1.4198474
2540,11.9972830,4.1706781,6.8976598,236.2748108,-32.6793900,-210.5267181,1.9464760,0.6584021,10.5057030,0.1984733,-4.8625956,-1.1450381
2550,10.1082678,4.9823084,2.9927368,240.0000000,0.4503817,-225.3282471,1.9105632,0.5434810,10.5655584,0.0992366,-4.4198475,-0.8625954
2560,8.0875721,5.1594782,-0.0981618,237.2137451,24.5877857,-243.1832123,1.9225341,0.7038917,10.5990763,-0.1603053,-5.0152674,-1.7786260
2570,5.7460546,5.3701668,-3.2465210,231.3129730,30.7251911,-250.1374054,2.0278785,0.7326220,10.6038647,-0.1374046,-5.1984735,-1.9770992
2580,3.2465210,5.0493455,-6.2224984,223.0839691,12.6259546,-250.1374054,1.9871773,0.6440369,10.6086531,0.4809160,-2.7938931,-2.3587787
2590,0.8283895,4.5154414,-8.5903521,213.0076294,-15.6564884,-250.1374054,2.0230901,0.7062859,10.5799236,0.6412213,-4.3358779,-2.9007633
2600,-1.7836711,3.8642218,-10.8552551,197.4351196,-42.8931313,-250.1374054,2.0709739,0.7398046,10.5775290,0.8549618,-3.5496182,-2.9236641
2610,-5.2384863,3.5481887,-12.5982246,171.8015289,-60.2442741,-250.1374054,1.9871773,0.7350162,10.5535870,0.6717557,-2.3816793,-3.2977099
2620,-8.5328913,3.4763632,-13.4864693,138.6412201,-49.2595406,-250.1374054,1.9033806,0.7158626,10.5272512,0.7175573,-2.2519083,-3.0839694
2630,-11.7123747,3.6319854,-13.9365768,99.8320618,-3.4122138,-250.1374054,1.9967541,0.8140244,10.5057030,0.5725191,-3.9618320,-3.5267177
2640,-15.0019913,4.0078731,-14.3124647,55.6106873,52.1755714,-250.1374054,1.9416877,0.7661406,10.5152798,0.1832061,-3.8702290,-3.1297710
2650,-17.8462887,4.2281384,-14.4609041,8.2061071,108.4885483,-205.9923706,1.8890154,0.7254394,10.5511932,-0.0381679,-3.4580152,-3.1603053
2660,-19.6131992,4.0437860,-14.7051115,-33.2900772,153.2213745,-144.2213745,1.8650736,0.7374104,10.4961262,-0.0305344,-3.6412213,-2.5038168
2670,-19.6131992,4.5034704,-14.3627424,-71.2595444,152.6030579,-69.8931274,2.0159075,0.6823440,10.5272512,-0.1679389,-3.6793892,-2.1068702
2680,-19.6131992,4.5944495,-13.2087431,-103.6870193,109.0229034,4.5877862,1.9201399,0.6512195,10.5775290,-0.2900763,-3.7328243,-1.8854961
2690,-19.6131992,4.6040263,-11.7842007,-130.7099304,59.4961815,73.1755753,1.9033806,0.5793939,10.5751352,-0.2290076,-4.0305343,-2.4961832
2700,-19.6131992,4.3789725,-10.2614956,-155.3358765,44.1068687,134.1603088,1.8722562,0.6153067,10.5990763,-0.3435115,-4.1679387,-2.3893130
2710,-16.4097748,4.2185616,-8.4227581,-173.2213745,43.9083977,183.5725250,1.9153515,0.6823440,10.6062593,-0.1297710,-4.3129773,-2.3053436
2720,-13.8312321,3.9360476,-7.3334022,-185.8091583,38.8931313,222.0381622,1.9680238,0.6512195,10.5990763,-0.1374046,-4.0992365,-2.6412213
2730,-11.1066446,3.4045374,-6.3565731,-195.6488495,27.9312973,250.1297760,1.9560528,0.6727672,10.5966825,0.0381679,-4.2519083,-2.1374047
2740,-8.2575598,2.9424589,-5.6335278,-203.9007568,17.7099228,250.1297760,1.9943599,0.7350162,10.5966825,0.2748092,-4.1450381,-2.3893130
2750,-5.6885943,2.3894010,-5.2791877,-213.3206177,16.7251911,250.1297760,1.9871773,0.7469871,10.4219065,0.2900763,-4.1297708,-2.4580152
2760,-3.0717452,2.0063307,-4.6495161,-225.6870270,24.5190830,250.1297760,2.0709739,0.7374104,10.4961262,0.1603053,-3.6717558,-2.3893130
2770,-0.3974355,1.3407460,-3.3398943,-238.8015289,29.9923668,250.1297760,2.0685797,0.7493813,10.5607700,-0.1526718,-3.7709923,-3.1832061
2780,2.7054341,0.6224893,-1.6136837,-246.5648804,22.0534344,250.1297760,2.0183017,0.7541697,10.5104914,-0.2442748,-3.5801528,-3.8778627
2790,7.8002691,0.7685348,1.4556671,-240.2061005,-14.1526718,250.1297760,1.9752063,0.7038917,10.5272512,-0.2519084,-3.4809160,-3.4732823
2800,13.7546186,2.5378408,5.0421629,-217.1145020,-69.9160309,250.1297760,1.9368993,0.6512195,10.5440102,-0.5725191,-3.4122138,-4.2519083
2810,19.6126022,4.8147149,8.4107876,-182.6106873,-102.3740463,212.0000000,1.9009864,0.6272776,10.5416164,-0.4198473,-3.3893130,-3.9541984
2820,19.6126022,6.8138633,11.5806942,-145.3816833,-90.2061081,125.5114517,1.8435259,0.6129125,10.5320396,-0.7022901,-3.5877862,-4.1374044
2830,19.6126022,6.8378053,15.6627874,-107.0457993,-44.8091621,36.0305328,1.8124014,0.5195391,10.6397781,-0.7022901,-3.5419848,-4.1908398
2840,19.6126022,7.9415264,19.5198269,-35.4045792,7.5267177,-55.6106873,1.8004304,0.5530578,10.5559816,-0.8549618,-3.8625953,-3.4351146
2850,19.6126022,7.5560617,19.6126022,55.8091621,-5.6717558,-135.5190887,1.7932479,0.5650287,10.5918941,-0.5114504,-3.9770992,-3.0000000
2860,13.8072910,5.7460546,16.5031471,138.6946564,-61.5190849,-182.9770966,1.8411317,0.6105183,10.6254129,-0.1679389,-4.0610685,-3.1450381
2870,10.1154509,5.7771792,12.2486734,192.4198456,-121.1679382,-198.7099304,1.8363433,0.5913648,10.6709023,-0.0229008,-4.2671757,-2.3435113
2880,8.3198080,5.9375896,7.2472115,217.3435059,-149.5419922,-208.3053436,1.8698620,0.6607963,10.5727406,0.3206107,-4.2061067,-1.7099236
2890,6.2464404,6.5074067,2.4468615,214.6717529,-118.8320618,-215.3053436,1.9057748,0.7206510,10.6014709,0.2824427,-4.2900763,-2.1832061
2900,4.6088147,7.1610208,-0.2298422,191.4503784,-72.6564865,-215.3969421,1.9297167,0.7278336,10.5320396,0.2977099,-4.5725193,-1.4580153
2910,3.5362179,7.1610208,-1.5035510,170.8473358,-16.1908398,-219.5801544,1.9871773,0.7661406,10.4290895,0.1526718,-4.3816795,-1.8854961
2920,1.4580613,6.7300668,-3.0621684,154.6641235,7.9312978,-223.9236603,1.9799947,0.7350162,10.4985209,0.0381679,-4.3282442,-1.8167939
2930,-0.4022238,6.5792327,-4.2927818,142.8015289,10.4427481,-229.3893127,1.9704180,0.7350162,10.4338779,-0.0381679,-4.3511453,-1.6030535
2940,-1.9081690,6.2057390,-5.3318601,132.5801544,-1.4427481,-234.4274750,2.0446377,0.7374104,10.5009146,-0.1526718,-4.0763359,-1.4503816
2950,-3.9144998,5.8753409,-6.6103573,120.7175598,-18.3893127,-235.2137451,2.0183017,0.6727672,10.5559816,-0.0610687,-3.6793892,-2.0610688
2960,-6.0429344,6.0189924,-7.3453732,105.1297684,-18.9541988,-229.7862549,2.0302727,0.7493813,10.4530315,0.0000000,-3.9847329,-1.7862595
2970,-8.2910776,5.9256191,-8.0468712,84.5190811,-11.0152674,-214.0534363,1.9728121,0.6991033,10.6373835,-0.1221374,-3.5801528,-2.6564887
2980,-10.4458485,5.9758968,-8.4538832,62.7633591,13.8015270,-189.3816833,1.9656296,0.6919208,10.5320396,-0.2290076,-3.4580152,-2.9618320
2990,-13.4050665,6.0501165,-9.2176294,39.0076332,37.9771004,-154.2213745,2.0063307,0.6919208,10.5464048,-0.1908397,-3.7480917,-3.2137403
3000,-16.0817699,6.1530671,-9.8281479,14.3053436,35.1908379,-109.3511429,2.0326669,0.6416427,10.5511932,-0.5267175,-3.7480917,-3.4961832
3010,-17.8606529,6.5050125,-10.0986910,-11.1374044,19.5801525,-55.6030540,1.8770446,0.6536137,10.4769726,-0.6030535,-3.8320611,-3.5114503
3020,-18.2772427,6.6869712,-10.4171181,-40.8167953,12.7786255,4.3053436,1.8698620,0.6200951,10.6302013,-0.5801527,-3.9312978,-3.7557251
3030,-17.6164455,6.7061248,-10.0915089,-74.3435135,20.3740463,63.6183205,1.8770446,0.6416427,10.6637201,-0.5496183,-3.8854961,-3.4809160
3040,-15.9213600,6.6295104,-9.1122847,-104.2824402,31.3358784,114.9694672,1.9153515,0.6775556,10.6445665,-0.6183206,-3.6717558,-3.4427481
3050,-13.9772778,6.1722202,-7.9439206,-128.9236603,41.6259537,160.8549652,1.9871773,0.6847382,10.5918941,-0.6412213,-3.6106870,-3.7938931
3060,-11.6477318,5.8418221,-6.9216018,-149.2213745,46.4122124,199.5648804,1.9368993,0.6129125,10.5583754,-0.7175573,-3.4656489,-3.7786260
3070,-9.4355011,5.3127065,-5.7963328,-168.1603088,47.5419846,231.5877838,1.8722562,0.6320660,10.6014709,-0.9007633,-3.4961832,-4.7099237
3080,-6.7635851,4.6854286,-4.5489597,-183.4503784,50.3740463,250.1297760,1.8339491,0.6440369,10.6206245,-0.7633588,-3.4427481,-4.5725193
3090,-4.2927818,4.1994085,-3.2249732,-195.3664093,45.3816795,250.1297760,1.7717001,0.6129125,10.6445665,-0.5572519,-3.8091602,-4.0305343
3100,-0.9504932,3.6894460,-0.8619082,-198.5648804,21.6564884,250.1297760,1.7453641,0.5602403,10.5272512,-0.6946565,-4.0992365,-3.5725191
3110,2.8107784,3.2201848,1.5897418,-188.7404633,-17.3587780,250.1297760,1.7717001,0.6272776,10.5942879,-0.8625954,-4.2671757,-3.4351146
3120,7.4626884,3.7876077,3.9360476,-166.4656525,-64.1374054,250.1297760,1.7214222,0.5698171,10.5464048,-0.7251908,-4.7404580,-2.8015268
3130,12.9956608,5.2289100,6.6750002,-135.9694672,-107.1908417,232.6488495,1.7860653,0.5865764,10.5679522,-0.8625954,-5.1221375,-2.8015268
3140,17.4799767,7.0221577,9.0739784,-100.0916061,-122.5801544,173.1603088,1.8147956,0.5913648,10.5272512,-0.7022901,-5.3664122,-2.0687022
3150,19.6126022,8.3940287,11.7482872,-57.8473282,-125.0839691,99.4732819,1.8291607,0.6057299,10.4913378,-0.6717557,-5.4045801,-1.4351145
3160,19.6126022,9.2415714,13.6444855,-7.9007635,-115.7633591,17.8244267,1.9440818,0.5985473,10.5392218,-0.3893130,-5.2977099,-1.6106870
3170,19.6126022,8.8106174,13.4768925,46.5572510,-106.1450348,-61.5954208,1.9776005,0.6751614,10.5033092,-0.2442748,-5.5114503,-0.9694657
3180,16.9197369,8.1570034,11.4466200,97.7557220,-99.0610657,-122.3893127,1.9728121,0.6703730,10.5583754,0.1374046,-5.1755724,-0.6793893
3190,13.2326851,7.3932571,8.1163025,134.8473358,-102.1832047,-161.9389343,2.0470319,0.7326220,10.5559816,0.4885496,-4.7404580,-0.6488550
3200,10.2184010,7.4148049,5.0254035,153.4122162,-99.8473282,-188.6564941,2.0997043,0.7685348,10.5487986,0.4580153,-4.7633586,-0.6946565
3210,7.6183109,7.6302819,1.9440818,156.6946564,-73.5114517,-203.0305328,2.1571648,0.7829000,10.5703468,0.5648855,-4.2519083,-0.6717557
3220,5.5880380,7.8936424,-0.4477134,149.8931274,-35.4656487,-211.5267181,2.1404054,0.7805058,10.4171181,0.1908397,-4.1603055,-1.0076336
3230,3.3805954,7.8337879,-2.3678534,138.6335907,-6.9083967,-218.4809113,2.1619530,0.7062859,10.4506369,-0.1221374,-3.9923663,-1.4580153
3240,1.0749911,7.8002691,-3.9528067,125.7175598,8.0076332,-224.6030579,2.0925217,0.7398046,10.5057030,-0.6335878,-3.9007633,-1.9847329
3250,-0.9720409,7.5728211,-5.3127065,112.6641235,8.4198475,-230.3664093,2.0398495,0.6775556,10.5272512,-0.6793893,-3.9389312,-2.4732823
3260,-2.9879484,7.0868006,-6.3757267,99.0687027,2.8473282,-233.7862549,2.0206959,0.6751614,10.5751352,-0.9083970,-3.9389312,-2.0992367
3270,-4.8913293,6.6390872,-7.3118544,85.4732819,-3.0229008,-233.3664093,2.0063307,0.6224893,10.5751352,-0.9312977,-4.0534353,-2.9770992
3280,-6.9623032,6.3086891,-8.0779953,68.1679382,-6.1984735,-227.1984711,2.0590029,0.6416427,10.5057030,-0.6259542,-3.7557251,-2.7938931
3290,-9.4857788,6.1099715,-8.3820572,48.0534363,-3.9236641,-212.7862549,1.9895715,0.5530578,10.5727406,-0.6183206,-3.3587787,-3.4122138
3300,-12.0284081,5.8873119,-8.4107876,26.4580154,8.9236641,-187.8549652,1.9776005,0.5841822,10.6230183,-0.4885496,-3.2824428,-3.9389312
3310,-15.2845058,5.7460546,-8.5664101,3.6870229,39.4045792,-147.9694672,1.8890154,0.5530578,10.5272512,-0.5190840,-3.5267177,-3.6488550
3320,-18.0545826,5.7364779,-8.8273764,-21.2366409,69.9618301,-94.4427490,1.8818330,0.6392486,10.5655584,-0.5419847,-3.8473282,-4.3129773
3330,-19.6131992,5.9375896,-8.9518747,-47.4427490,80.8854980,-33.5114517,1.9129574,0.5554519,10.5248566,-0.9847328,-3.9389312,-3.8244274
3340,-19.6131992,5.9711084,-8.8297710,-74.6183243,75.4351120,31.4045811,1.8578910,0.5674229,10.5511932,-1.2900764,-4.1908398,-4.6259542
3350,-19.6131992,5.8346395,-7.9630742,-99.3587799,64.5801544,94.0610657,1.7980363,0.6416427,10.5895004,-1.4198474,-4.3740458,-4.5496182
3360,-17.6379929,5.7819676,-6.6702118,-118.9847336,54.8625946,149.2366486,1.8411317,0.5722113,10.5918941,-1.3053435,-4.3893127,-4.9465647
3370,-15.2677460,5.5976148,-5.5784616,-131.9007568,54.7328262,196.1374054,1.8698620,0.5793939,10.6996326,-0.8320611,-4.1832061,-4.9618320
3380,-12.6892042,5.1618724,-4.4364328,-140.4580078,51.1832047,235.8549652,1.8124014,0.6224893,10.6397781,-0.4961832,-4.0229006,-4.0381680
3390,-10.1824875,4.7979555,-3.7564833,-146.4274750,45.8854980,250.1297760,1.8961980,0.5913648,10.6086531,-0.2213740,-3.7786260,-4.1450381
3400,-7.5225434,4.1826491,-3.1746953,-152.2366486,42.4274826,250.1297760,1.8794388,0.5817881,10.6493549,-0.0229008,-3.8167939,-3.2366412
3410,-4.8961172,3.4524212,-2.6647329,-159.5648804,41.6106873,250.1297760,1.9584470,0.5650287,10.5176744,-0.0076336,-3.5648854,-3.4045801
3420,-2.1332228,2.8347204,-2.2744799,-169.0686951,41.4427490,250.1297760,1.8985922,0.6464311,10.5296450,0.0152672,-3.7557251,-2.7786260
3430,0.7517755,2.1619530,-1.3383518,-178.0305328,39.4427490,250.1297760,1.8938038,0.6224893,10.4865494,-0.0916031,-3.8549619,-2.7862597
3440,4.5920553,1.8842272,0.3591284,-181.2748108,31.5572510,250.1297760,1.8459201,0.6727672,10.5392218,-0.2137405,-4.1755724,-2.5114503
3450,8.5927458,2.1954718,2.8155668,-175.0763397,14.6793890,250.1297760,1.9105632,0.6440369,10.5966825,-0.0152672,-4.5267177,-2.6870229
3460,13.6851873,3.6894460,6.5241661,-154.3664093,-20.7022896,250.1297760,1.8698620,0.6560079,10.6206245,0.1068702,-4.4122138,-1.4885496
3470,18.1527443,5.1762376,9.8473015,-118.6946564,-65.0992355,230.8549652,1.9033806,0.6823440,10.6517487,0.1679389,-4.1755724,-1.2137405
3480,19.6126022,6.5576849,13.2781744,-74.8473282,-104.8549652,155.2671814,1.9728121,0.7661406,10.5966825,0.5572519,-4.0687022,-0.6488550
3490,19.6126022,8.1258793,15.5311069,-23.3206100,-114.5496216,66.0457993,2.0925217,0.7398046,10.6014709,0.6946565,-3.6564887,-0.3740458
3500,19.6126022,9.3038206,15.7992563,31.4351139,-85.7328262,-27.0916023,2.1020982,0.7230452,10.5248566,0.7938932,-3.2595420,-0.7557252
3510,19.6126022,7.9439206,14.0682573,89.6946564,-54.7786255,-111.3053436,2.1499822,0.7326220,10.4290895,0.5648855,-2.9923663,-1.4427481
3520,19.0864792,6.6989422,11.2550850,139.5419922,-59.2290077,-175.3511505,2.0685797,0.6967092,10.5416164,0.4809160,-2.9083970,-1.5419847
3530,14.9277716,5.9351954,8.5233145,175.5648804,-92.3969498,-215.8091583,2.0230901,0.7517755,10.5320396,0.4122137,-2.8320611,-2.0305343
3540,11.5783005,5.9687142,5.0301919,195.3358765,-111.2824402,-242.0763397,1.9656296,0.7158626,10.5368280,0.3816794,-2.3358779,-2.6030533
3550,9.3038206,6.6199336,2.0637913,196.9007568,-103.7862625,-250.1374054,1.8507085,0.6584021,10.6182299,0.5954198,-2.3893130,-1.3435115
3560,7.2256637,6.9527264,-0.7230452,185.9618378,-79.2366409,-250.1374054,1.8195840,0.5458752,10.5009146,0.6946565,-2.1603053,-1.9618320
3570,5.1594782,6.6366930,-3.2560976,169.7404633,-43.7557259,-250.1374054,1.8004304,0.5554519,10.6110477,0.8854962,-2.1832061,-1.5419847
3580,3.1651185,6.2296810,-5.1906028,151.1984711,-18.2824421,-250.1374054,1.7980363,0.4716553,10.6924505,1.0992366,-1.7709924,-1.1068702
3590,1.2162483,5.2432747,-6.5576849,130.5877838,-17.5190830,-250.1374054,1.8387375,0.4094064,10.6876621,1.2366412,-2.5954199,-0.8549618
3600,-0.6009415,4.3047528,-7.7356262,110.5954208,-26.7557259,-250.1374054,1.8195840,0.4405309,10.5942879,1.4198474,-2.5114503,-1.6641221
3610,-3.1435707,3.0071020,-8.4347296,92.4656525,-43.7251892,-250.1374054,1.7190280,0.4261657,10.6254129,1.5496184,-3.2290077,-1.5648855
3620,-5.8274570,2.2553265,-8.0779953,76.1374054,-72.2366409,-250.1374054,1.7381816,0.5099624,10.6206245,1.8015267,-3.2748091,-1.3511450
3630,-9.4259243,1.9392935,-7.5967631,58.2290077,-88.2061081,-250.1374054,1.6567791,0.5913648,10.6948442,1.8549619,-3.5190840,-0.3282443
3640,-13.1225519,1.9033806,-7.6159167,32.7251892,-80.4580154,-250.1374054,1.7286048,0.6057299,10.6158361,1.9083970,-4.1068702,-0.1374046
3650,-16.9436779,2.2146254,-7.3717093,1.5725191,-55.9541969,-250.1374054,1.8028246,0.6727672,10.5751352,2.1984732,-4.3282442,0.6259542
3660,-19.6131992,2.5881188,-5.9639258,-29.4427490,-43.3511467,-235.0458069,1.8890154,0.7278336,10.5799236,2.0839694,-4.5877862,0.8473282
3670,-19.6131992,2.4612267,-4.4412212,-52.7099228,-52.6946564,-183.3587799,2.0254843,0.7374104,10.5464048,1.9694656,-4.5038166,0.5038168
3680,-19.6131992,2.3606708,-2.4971397,-65.7404556,-79.7404556,-126.7557220,1.9967541,0.7852941,10.4769726,1.7175573,-4.5343513,0.6335878
3690,-19.6131992,1.5825592,-1.7070571,-72.5343475,-107.6793900,-48.0458031,2.1499822,0.7948709,10.3668404,1.3587786,-4.5954199,-0.2671756
3700,-19.6131992,1.2808913,-1.5394639,-70.9770966,-107.0457993,45.4580154,2.1451938,0.7924767,10.5392218,0.9312977,-4.2061067,-0.5877863
3710,-18.8111458,1.2832855,-2.4875629,-68.8244247,-69.8854980,149.1908417,2.2050486,0.7805058,10.4817610,0.7404580,-4.1068702,-1.6335878
3720,-14.8032732,1.9584470,-4.2425036,-73.6335907,-9.8320608,245.5190887,2.0853391,0.7230452,10.5128860,0.3893130,-3.7862597,-2.4809160
3730,-10.5799236,3.0166788,-5.4395986,-88.9389343,58.3664131,250.1297760,2.0733681,0.7445929,10.4985209,0.1297710,-3.8320611,-2.9007633
3740,-7.2232695,3.5338237,-6.1626434,-119.5648880,123.0687027,250.1297760,2.0973101,0.6775556,10.5128860,0.2366412,-3.5114503,-3.5114503
3750,-5.5688848,3.5984666,-5.5210009,-161.2519073,154.1526642,250.1297760,2.0302727,0.6440369,10.4913378,0.1679389,-3.2748091,-3.3282442
3760,-4.1156116,2.7485294,-3.9360476,-202.9618378,162.1068726,250.1297760,1.9488702,0.6344602,10.5631638,0.0076336,-3.4122138,-3.9770992
3770,-2.2912393,2.5067163,-1.2377959,-232.6564941,164.8473358,250.1297760,1.9608412,0.5674229,10.5535870,0.2137405,-3.0839694,-4.2900763
3780,0.8762733,2.2553265,1.8626794,-241.9694672,127.2290039,250.1297760,1.9297167,0.6009415,10.5895004,0.3282443,-3.1450381,-4.1832061
3790,4.0150557,1.5801650,4.2089849,-235.0839691,57.5801544,250.1297760,1.8770446,0.6607963,10.5655584,0.4885496,-3.4732823,-4.8244276
3800,9.3660688,2.6264257,7.5129666,-210.7938995,-26.6183205,250.1297760,1.9392935,0.6344602,10.5823174,0.7709923,-3.1526718,-3.9465649
3810,16.6013088,5.5521255,11.7123747,-165.3816833,-95.3435135,250.1297760,1.9823889,0.7230452,10.4937325,0.7557252,-3.2519083,-4.3664122
3820,19.6126022,9.3110027,13.8168669,-107.0763321,-107.1755753,209.9847260,1.9680238,0.6536137,10.4673967,0.4198473,-3.0458016,-3.4427481
3830,19.6126022,11.1952295,10.8576488,69.0152664,-96.1832047,-128.6412201,1.9680238,0.6943150,10.5272512,-0.1221374,-2.8473282,-5.1068702
3840,19.4527893,9.6246414,7.3334022,112.0763321,-111.9694672,-236.7022858,2.0183017,0.6991033,10.6445665,0.1908397,-2.5343511,-5.0992365
3850,14.6189203,7.4914188,4.8266859,141.5725250,-139.4732819,-250.1374054,1.9752063,0.7278336,10.6780853,0.6335878,-1.8549619,-4.8549619
3860,8.9566631,5.7436604,2.4181314,153.6183167,-168.8091583,-250.1374054,2.0159075,0.7086801,10.6206245,1.0000000,-1.5343511,-5.7404580
3870,4.6351509,5.0948353,0.8044477,151.8244324,-175.2748108,-250.1374054,1.9033806,0.6560079,10.5344334,1.3893130,-1.3053435,-5.0152674
3880,2.5785420,4.0844874,-0.8427547,140.7175598,-159.2137451,-250.1374054,1.8938038,0.6871324,10.5440102,1.2442749,-1.4198474,-4.8549619
3890,-0.9217629,4.7021880,-0.1101327,120.2213745,-148.5267181,-250.1374054,1.7429699,0.6967092,10.4745789,0.9083970,-1.6488550,-4.8625956
3900,-3.7971845,4.1850433,-1.4317253,101.7175598,-118.5190811,-250.1374054,1.7597293,0.6177009,10.5655584,0.4580153,-2.6412213,-4.6412215
3910,-6.6055689,3.7277529,-2.6360025,91.0610657,-62.6717567,-250.1374054,1.6902977,0.6703730,10.6086531,-0.1832061,-3.2213740,-4.1068702
3920,-9.1218615,3.1579359,-3.6128318,77.9770966,-28.1526718,-250.1374054,1.7309990,0.6153067,10.5080976,-0.6183206,-4.0687022,-3.6183207
3930,-11.9709473,2.5067163,-4.5585365,57.7022896,-12.5343513,-250.1374054,1.7357874,0.5769997,10.4697905,-0.7786260,-4.1755724,-3.1145039
3940,-15.9093885,1.5849534,-5.1163831,31.9007626,-14.0000000,-250.1374054,1.7405758,0.5889706,10.5727406,-0.8931298,-4.2671757,-3.0000000
3950,-19.5317974,1.6232605,-5.3151007,7.3816795,-17.8702297,-228.3206177,1.7740943,0.5937590,10.6900558,-0.4122137,-4.0458016,-2.8091602
3960,-19.6131992,2.0398495,-5.3988972,-16.0916023,-9.1221371,-139.0686951,1.8578910,0.5362985,10.6421719,0.1145038,-4.0839696,-2.5572519
3970,-19.6131992,2.0230901,-5.9758968,-42.8244286,24.0381680,-31.4122143,1.8267666,0.5650287,10.6110477,0.7862595,-3.8778627,-2.4809160
3980,-19.6131992,2.3630650,-6.2009506,-79.5190811,75.4427490,84.0534363,1.9153515,0.6129125,10.6421719,1.0076336,-3.4274809,-2.6793892
3990,-19.6131992,2.4301023,-6.0980005,-126.9770966,137.3282471,189.1450348,1.8914096,0.6607963,10.5607700,1.3435115,-3.2290077,-2.4580152
4000,-18.8901539,2.0183017,-5.5832496,-182.4122162,191.8931274,250.1297760,1.8483143,0.7014975,10.4745789,1.1984733,-3.3816793,-2.5877862
4010,-16.2565460,1.9967541,-4.1970143,-234.5190887,229.0076294,250.1297760,1.8626794,0.7374104,10.4602137,0.7251908,-3.3587787,-2.1526718
4020,-14.0060081,1.8794388,-2.7054341,-250.1374054,229.2977142,250.1297760,1.8315549,0.7589580,10.5152798,0.7175573,-3.1297710,-1.7480916
4030,-11.9877062,0.6919208,-1.3838415,-250.1374054,206.1603088,250.1297760,1.8435259,0.7086801,10.5344334,0.5419847,-3.6641221,-1.8854961
4040,-10.0101061,0.7805058,-0.8236012,-250.1374054,171.1526642,250.1297760,1.8028246,0.6224893,10.5775290,0.8396947,-4.1450381,-2.3435113
4050,-7.0748301,1.5179161,-0.5195391,-250.1374054,135.0458069,250.1297760,1.8171898,0.7086801,10.5320396,0.6030535,-3.9770992,-2.3129771
4060,-4.2808108,2.2505381,-0.2442073,-250.1374054,104.7786255,250.1297760,1.9009864,0.6177009,10.5799236,0.5114504,-4.0916033,-1.5725191
4070,-1.4987626,2.4516499,0.0335187,-250.1374054,98.7099228,250.1297760,1.7286048,0.6703730,10.6230183,0.5343512,-3.2442749,-1.2442749
4080,0.8834559,2.2625091,4.3334827,-250.1374054,121.5725174,250.1297760,1.7908537,0.6512195,10.5296450,1.0916030,-3.4427481,-0.9847328
4090,0.7158626,2.6551561,4.1180058,-247.1450348,141.0152740,250.1297760,1.7549409,0.6823440,10.7068148,1.3740458,-3.6946564,-0.2824427
4100,2.2936335,1.3982066,4.8314743,-221.1755676,132.5190887,250.1297760,1.8411317,0.6871324,10.5535870,1.5190840,-3.6259542,-0.3664122
4110,5.2863703,0.7972651,7.9223728,-189.7022858,95.4732819,250.1297760,1.8531027,0.6775556,10.5440102,1.4122137,-3.6488550,0.3435115
4120,9.3493099,1.0965388,11.4083128,-144.1755676,13.0458012,250.1297760,1.9799947,0.6560079,10.5224628,1.4580153,-4.0839696,-0.0076336
4130,13.5439301,2.7796540,14.1281118,-85.0687027,-83.8778610,244.8091583,2.0135133,0.7182568,10.6062593,1.4961832,-3.7480917,-0.6793893
4140,17.5829277,4.4771342,16.1009235,-13.9312973,-162.6793823,147.3053436,1.9943599,0.6655847,10.5895004,1.5954199,-3.5496182,-1.0458015
4150,19.6126022,5.3558016,16.2062683,56.1297722,-204.1679382,44.8931313,1.9440818,0.5841822,10.5176744,1.8320611,-2.5648854,-1.1603054
4160,19.6126022,5.8250628,14.8655224,109.8549652,-204.7709961,-43.4198456,2.0063307,0.7014975,10.5559816,1.4122137,-3.9007633,-1.2977099
4170,18.5286331,5.3988972,13.1800127,144.3511505,-183.2748108,-108.7404556,2.0087249,0.8140244,10.6158361,1.0000000,-3.5038168,-1.4122137
4180,17.0298691,5.1403246,13.0722742,167.4122162,-150.6183167,-153.6030579,1.8914096,0.7421987,10.4985209,1.3587786,-3.2595420,-1.3969465
4190,14.6093445,5.2887645,12.3588057,188.8473358,-123.6030502,-179.5496216,2.0206959,0.8140244,10.5296450,1.2671756,-3.5877862,-1.7862595
4200,12.1289635,5.0804701,10.8169479,197.3664093,-114.2748108,-199.1984711,2.0350611,0.8547257,10.4793673,1.1832061,-3.5190840,-2.2366412
4210,10.2758608,5.8394279,9.3588867,191.5114441,-136.8854980,-217.9389343,1.9919657,0.8044477,10.5703468,1.3053435,-2.3587787,-2.0000000
4220,9.3493099,6.1219425,7.8673067,185.6946564,-148.6183167,-236.4885559,2.0254843,0.8595140,10.5895004,1.5801526,-2.2213740,-2.2900763
4230,8.4658537,5.6287394,6.3182659,190.3893127,-119.8244247,-250.1374054,2.0087249,0.7972651,10.4985209,1.5725191,-2.0000000,-1.8854961
4240,6.9120250,5.5808558,4.0198441,195.6564941,-74.6564865,-250.1374054,2.0661855,0.7852941,10.4386663,1.3969465,-1.9389313,-3.2290077
4250,5.2576399,5.6718349,2.0398495,194.9847260,-46.0458031,-250.1374054,2.0733681,0.7541697,10.5535870,1.1145039,-1.8702290,-4.1145039
4260,3.4787574,5.5688848,0.0263361,190.2137451,-30.6488552,-250.1374054,1.9321109,0.7230452,10.5248566,0.7328244,-1.9236641,-4.1145039
4270,1.3120158,5.2432747,-1.8842272,184.0534363,-27.5648861,-250.1374054,1.8315549,0.7398046,10.4314833,0.1450382,-2.3969467,-3.9312978
4280,-1.0079538,5.1163831,-3.2369442,177.6717529,-30.7251911,-250.1374054,1.7477583,0.7685348,10.4386663,-0.2977099,-2.8549619,-4.0000000
4290,-3.4284792,4.5776901,-4.0126615,173.0915985,-41.0000000,-250.1374054,1.7262106,0.7158626,10.5320396,-0.5343512,-3.1221373,-4.0305343
4300,-5.7388721,4.4244623,-4.4220681,169.4351196,-56.9771004,-250.1374054,1.7142396,0.6799498,10.5248566,-0.9007633,-3.5419848,-3.8702290
4310,-8.3437500,4.7357068,-5.5449429,161.8015289,-75.4122162,-250.1374054,1.7118455,0.6655847,10.5679522,-0.9923664,-3.9236641,-3.9923663
4320,-11.0467901,5.3390427,-6.6606350,143.6412201,-86.2748108,-250.1374054,1.7166338,0.6272776,10.6134415,-0.8702290,-4.0000000,-3.8702290
4330,-13.4792862,5.6598639,-7.5752153,116.2824402,-70.6641235,-235.6641235,1.7549409,0.5817881,10.6206245,-0.8167939,-4.3282442,-3.4656489
4340,-15.6891232,5.9471664,-8.2934723,84.8702316,-45.7557259,-194.2213745,1.7764885,0.6368544,10.5799236,-0.4503817,-4.2061067,-3.0381680
4350,-17.5134964,5.8753409,-9.2272062,51.7480927,-7.7557254,-142.2519073,1.8219782,0.6129125,10.6493549,-0.3358779,-4.2442746,-3.4351146
4360,-18.7129841,5.8202744,-9.8832140,12.9694653,32.8244286,-81.8931274,1.7788827,0.6847382,10.5990763,-0.1603053,-3.9389312,-3.2595420
4370,-18.5549679,5.9998388,-9.5647869,-23.5114498,44.6030540,-24.0000000,1.9297167,0.7134684,10.5727406,-0.0076336,-4.0458016,-3.0916030
4380,-17.8367119,5.7269011,-8.8656836,-52.0305328,43.6488533,28.7404575,1.9225341,0.7565638,10.5703468,0.0152672,-3.5877862,-3.6793892
4390,-16.2613354,5.6263452,-7.8912482,-75.8091583,35.5877876,73.4732819,1.9225341,0.7876883,10.5703468,-0.0305344,-3.4503818,-3.4503818
4400,-14.8798876,5.5425487,-7.1275020,-93.6793900,25.5343513,111.0229034,1.9033806,0.7924767,10.6589317,0.0000000,-3.5725191,-3.3358779
4410,-14.0036144,5.4419928,-6.1865854,-104.9542007,30.1221371,148.9007568,1.8147956,0.7829000,10.5487986,0.1450382,-3.5725191,-3.9312978
4420,-12.6915979,5.5377603,-5.9064655,-118.8702316,27.3129768,185.4732819,1.7788827,0.7565638,10.5775290,0.1526718,-3.4732823,-2.7633588
4430,-10.8911676,5.3390427,-5.4802995,-133.7480927,30.9007626,215.6183167,1.8483143,0.7398046,10.6421719,0.2824427,-3.5038168,-2.8549619
4440,-9.7802639,5.3318601,-5.0996237,-149.7709961,43.3282433,243.1221313,1.7286048,0.7206510,10.6014709,0.2137405,-3.5038168,-2.6412213
4450,-8.6502066,4.7165532,-4.5513539,-167.7633514,63.8396950,250.1297760,1.7477583,0.6153067,10.5607700,0.4961832,-3.7175572,-2.1145039
4460,-7.0628591,4.3023586,-3.7277529,-185.6564941,84.4122162,250.1297760,1.7357874,0.7278336,10.6014709,0.6030535,-3.8931298,-2.2671757
4470,-5.3581958,3.7947903,-2.7940190,-201.2748108,98.8778610,250.1297760,1.7740943,0.6991033,10.4362717,0.5419847,-3.7633588,-1.6870229
4480,-3.5362179,2.9376705,-2.1523764,-216.6870270,105.9160309,250.1297760,1.7238164,0.6512195,10.5392218,0.8625954,-3.4580152,-1.5190840
4490,-1.5346755,2.0542145,-1.4843974,-230.8015289,113.0457993,250.1297760,1.7740943,0.7134684,10.6038647,0.9770992,-3.7404580,-1.0076336
4500,0.8738791,1.4077834,0.0574605,-241.0381622,114.6183243,250.1297760,1.7381816,0.7469871,10.5535870,0.8244275,-3.8854961,-0.4885496
4510,3.1387823,1.0199248,2.0518203,-244.4122162,105.0305328,250.1297760,1.8147956,0.7230452,10.5511932,0.5343512,-4.3206105,-0.2977099
4520,6.6103573,0.5769997,5.4300218,-234.5954132,76.2213745,250.1297760,1.8147956,0.7086801,10.4697905,0.3893130,-4.8396945,-0.4656489
4530,11.6357603,1.3287752,9.2272062,-201.0381622,5.2442746,250.1297760,1.8770446,0.7254394,10.5296450,-0.2824427,-5.0992365,-0.8625954
4540,17.5757446,3.7636659,13.1081877,-142.6488495,-87.3129807,211.3435059,1.8674678,0.6847382,10.4673967,-0.4732825,-5.4885497,-0.9694657
4550,19.6126022,6.3733325,15.7705259,-74.8854980,-143.3511505,122.8015289,1.9368993,0.6871324,10.5727406,-0.7480916,-5.6412215,-1.0687023
4560,19.6126022,7.3932571,15.9333305,-20.8625946,-145.7709961,30.5343513,1.9680238,0.7326220,10.5416164,-0.6030535,-5.2977099,-1.6488550
4570,19.6126022,7.5440907,15.9500904,32.0305328,-125.6793900,-65.8015289,1.9847831,0.7613522,10.5200682,-0.0076336,-4.2900763,-1.8320611
4580,19.6126022,6.5768385,14.6524391,85.2977066,-120.0000000,-153.5419922,1.9680238,0.7565638,10.5918941,0.2442748,-4.3587785,-1.6946565
4590,17.2118282,5.8346395,12.7849712,130.6717529,-145.3893127,-214.8931274,2.0398495,0.7493813,10.5152798,0.5267175,-3.6259542,-2.0763359
4600,13.6564569,5.7221127,10.2519188,163.2213745,-163.5572510,-249.2824402,2.0230901,0.7493813,10.6278067,1.0000000,-2.9389312,-2.0458016
4610,11.6477318,5.8130918,7.8002691,181.5190887,-159.1145020,-250.1374054,2.0039365,0.8140244,10.5464048,1.3587786,-2.5725191,-2.8702290
4620,9.8473015,6.5744443,5.0780759,186.4045868,-124.0763321,-250.1374054,2.0949159,0.8619082,10.4817610,1.1526718,-2.2824428,-3.3206108
4630,8.0372944,6.6462698,2.5474176,181.7786255,-72.3053436,-250.1374054,2.0063307,0.8666966,10.4506369,0.8320611,-1.8396946,-3.8473282
4640,6.0309634,6.7300668,0.4118006,172.2137451,-28.3511448,-250.1374054,1.9680238,0.7876883,10.4386663,0.4274809,-2.1068702,-3.4274809
4650,3.8450682,6.4116392,-1.2952565,160.8625946,-1.0534351,-250.1374054,1.8866212,0.8044477,10.5057030,0.2977099,-2.1984732,-4.1984735
4660,1.5298871,6.1075773,-2.4253139,149.3282471,8.5648851,-250.1374054,1.8602852,0.7637464,10.4769726,-0.1145038,-2.3358779,-4.1755724
4670,-0.2561783,5.5712790,-3.2824337,138.9084015,9.5648851,-250.1374054,1.9033806,0.7158626,10.4817610,-0.3129771,-2.4580152,-3.9083970
4680,-2.1068866,5.1929970,-4.0078731,129.2671814,7.0992365,-250.1374054,1.9177457,0.7469871,10.5775290,-0.4503817,-2.7862597,-4.3816795
4690,-3.9168940,4.7165532,-4.5752959,119.7938919,5.8625956,-250.1374054,1.8794388,0.7038917,10.6014709,-0.4274809,-2.6641221,-5.0381680
4700,-6.0309634,4.1563129,-5.0613165,110.8091583,10.3587790,-250.1374054,1.8052188,0.6799498,10.5679522,-0.6335878,-2.4656489,-4.9847326
4710,-8.8393478,3.9336534,-5.6239510,99.3969498,9.3664122,-250.1374054,1.8004304,0.6655847,10.6325951,-0.5190840,-2.5190840,-5.1145039
4720,-11.6812506,3.8642218,-6.2775645,84.4885483,8.1297712,-250.1374054,1.7621235,0.6248835,10.5799236,-0.5954198,-2.4809160,-4.9770994
4730,-14.7122946,3.8211265,-6.8425937,67.5114517,14.8473282,-222.3664093,1.7214222,0.6991033,10.6349897,-0.1450382,-2.2977099,-5.0534353
4740,-18.2269650,4.0150557,-7.8625183,45.1145020,23.6488552,-168.1832123,1.7860653,0.7278336,10.5464048,0.0152672,-2.7786260,-4.8625956
4750,-19.6131992,4.3765783,-8.3916340,17.1297703,30.0229015,-101.3664093,1.8243724,0.7709290,10.6014709,-0.1297710,-2.2977099,-4.9541984
4760,-19.6131992,4.6088147,-8.7028790,-15.9389315,34.2213745,-28.5954189,1.7980363,0.7541697,10.5033092,-0.1679389,-2.5572519,-4.5038166
4770,-19.6131992,4.7692256,-8.2958660,-47.5419846,31.9160309,40.0305328,1.7142396,0.7326220,10.4961262,-0.3282443,-2.3587787,-4.1221375
4780,-18.6363716,4.9870968,-8.0923605,-78.8549652,31.9312973,98.9389343,1.6687500,0.7158626,10.5176744,-0.6412213,-3.7022901,-3.8015268
4790,-16.6779232,5.0900469,-7.1682034,-108.3511429,48.4503822,150.6564941,1.6448082,0.6895266,10.5009146,-1.3053435,-3.4656489,-3.9160306
4800,-14.6213150,4.9966736,-5.9974446,-130.1450348,58.0076332,195.4580078,1.6160779,0.6344602,10.5583754,-1.5190840,-3.5114503,-3.1984732
4810,-12.5599174,4.7213416,-5.2289100,-146.3511505,59.1908379,233.3282471,1.5921360,0.6057299,10.6972389,-1.2519084,-4.0534353,-2.9160306
4820,-10.2447367,4.5393834,-4.6590929,-158.5190887,52.3435097,250.1297760,1.6687500,0.6296718,10.6589317,-0.7480916,-4.0076337,-2.8244274
4830,-8.0133524,4.2712340,-4.4723458,-169.7557220,43.7175560,250.1297760,1.6256547,0.6392486,10.6517487,0.0000000,-3.6717558,-2.2595420
4840,-5.7125359,3.9647777,-3.8450682,-179.6870270,45.4732819,250.1297760,1.6663558,0.5554519,10.6661139,0.5725191,-3.6870229,-1.7175573
4850,-3.6798692,3.2872221,-3.3111639,-189.6259613,57.8549614,250.1297760,1.6208663,0.6368544,10.6828737,1.3282443,-3.6183207,-1.9389313
4860,-1.6065011,3.1387823,-2.8131726,-205.9465637,77.8320618,250.1297760,1.6615674,0.6200951,10.4865494,1.2748091,-4.0458016,-0.8854962
4870,-0.1628049,2.3008161,-1.6783268,-223.2061005,91.6412201,250.1297760,1.6400198,0.7086801,10.4338779,1.0381680,-4.8320613,-0.7786260
4880,1.8052188,1.2306134,0.2322364,-232.9084015,103.6259537,250.1297760,1.6663558,0.7326220,10.4171181,0.5190840,-4.9541984,-0.1374046
4890,4.8745699,0.9145803,3.6104376,-227.5572510,91.5648880,250.1297760,1.6639616,0.7948709,10.5080976,-0.0839695,-5.6870227,0.8091603
4900,8.8225880,1.4939742,7.5297260,-201.5267181,37.2671738,250.1297760,1.7190280,0.7757174,10.5775290,-0.6412213,-6.2290077,1.0763359
4910,13.9988260,3.4117200,11.7746239,-150.7099304,-46.9618340,250.1297760,1.8483143,0.7469871,10.5176744,-1.0000000,-6.8167939,1.0839695
4920,19.6126022,6.2775645,15.5550489,-79.0457993,-126.3740463,177.2824402,1.8961980,0.6775556,10.5368280,-1.0534351,-6.7328243,1.4885496
4930,19.6126022,8.9087791,16.5175133,-5.5496182,-159.0000000,76.4656525,1.9201399,0.7134684,10.6110477,-1.0534351,-6.3969464,0.2671756
4940,19.6126022,9.4450769,15.4353390,53.5954208,-153.2671814,-26.2671757,1.9943599,0.7278336,10.6182299,-0.6717557,-6.0458016,-0.0229008
4950,19.6126022,8.5065556,13.4457684,101.4045792,-145.0305328,-118.5648880,1.9919657,0.6751614,10.5607700,-0.3435115,-5.7175574,-0.1832061
4960,18.0928898,6.9575148,10.5320396,142.4427490,-156.8396912,-191.3893127,1.9871773,0.6727672,10.6182299,-0.0534351,-5.3740458,-0.6717557
4970,14.1807842,5.8250628,8.0803890,172.0381622,-167.5419922,-238.0839691,1.9991482,0.6823440,10.6014709,0.1679389,-4.8549619,-1.0992366
4980,11.0563669,5.6957769,5.6526814,190.9618378,-163.4122162,-250.1374054,1.9416877,0.7278336,10.6158361,0.3358779,-4.5572519,-2.0381680
4990,8.2336178,6.7994981,3.2106080,197.3740387,-146.1221313,-250.1374054,1.9799947,0.7757174,10.5775290,0.2748092,-4.4427481,-1.3511450
5000,6.2847471,7.1897511,0.8858501,188.9236603,-122.9465637,-250.1374054,2.0278785,0.7733232,10.5416164,0.4045801,-4.1755724,-2.2290077
5010,5.0325861,7.3357964,-1.1228749,172.1679382,-90.2977066,-250.1374054,2.0302727,0.7733232,10.5440102,0.5877863,-3.8854961,-1.8549619
5020,3.1675127,7.1298962,-3.0094962,152.8931274,-57.8320618,-250.1374054,2.0709739,0.7972651,10.6014709,0.6717557,-3.9541984,-2.7022901
5030,0.9840119,6.4260044,-4.1395535,133.1297760,-34.8396950,-250.1374054,2.0661855,0.8164186,10.5703468,0.6259542,-3.2366412,-2.6412213
5040,-1.0558375,5.5976148,-4.5944495,119.6564865,-24.1297703,-250.1374054,2.0853391,0.8307837,10.5727406,0.7175573,-2.7938931,-3.7175572
5050,-3.6152260,4.7213416,-4.9918852,114.5343475,-30.0305347,-250.1374054,2.1116750,0.8259954,10.5464048,0.6641222,-2.8091602,-3.9160306
5060,-19.2588596,4.3358769,-6.6606350,20.8931293,-59.9160309,-77.7938919,1.9368993,0.8164186,10.4889441,-0.0916031,-2.3816793,-5.6488547
5070,-19.3474445,4.3358769,-5.4228392,-20.9541988,10.2137403,-8.4503813,1.9823889,0.8092360,10.4123297,-1.0076336,-2.3664122,-6.4732823
5080,-18.7895985,4.1204000,-4.3622131,-46.8320618,62.9465637,55.7557259,1.9345051,0.8092360,10.5320396,-1.1526718,-1.9541985,-7.2213740
5090,-17.1902809,4.4005203,-3.9791429,-60.0763359,89.6488571,112.5190811,1.8938038,0.8283895,10.5727406,-1.3358779,-1.9541985,-6.4961834
5100,-15.5933561,4.8123207,-4.3885493,-69.3969498,93.9847336,156.9541931,1.9416877,0.7757174,10.5559816,-1.3969465,-1.3053435,-6.7557254
5110,-14.0371332,5.2432747,-4.8865409,-79.7786255,94.8244247,197.2213745,1.8961980,0.7421987,10.6182299,-1.1068702,-0.9389313,-6.7557254
5120,-12.3875360,5.2720051,-5.3965030,-92.9312973,97.9160309,235.5038147,1.9656296,0.6368544,10.5966825,-0.6793893,-0.9618320,-7.7938933
5130,-10.3189564,5.4779053,-6.1219425,-111.6641235,106.2595444,250.1297760,1.9033806,0.6560079,10.6278067,-0.5114504,0.3129771,-8.6183205
5140,-8.1474266,5.1068063,-6.3661499,-136.7557220,122.6183243,250.1297760,1.7597293,0.5841822,10.6373835,-0.2442748,0.7480916,-8.7175570
5150,-5.6407104,4.5465660,-6.4355812,-169.9847260,139.2671814,250.1297760,1.5179161,0.5315101,10.5727406,-0.0458015,1.1450381,-8.8778629
5160,-3.1411765,3.8785870,-5.5952206,-207.5572510,158.0915985,250.1297760,1.3766589,0.5650287,10.6685085,0.0916031,0.8015267,-8.0839691
5170,-0.4836263,2.8993635,-3.3805954,-240.7175598,175.1755676,250.1297760,1.1779412,0.5267217,10.6038647,0.3893130,0.0458015,-6.1755724
5180,1.9321109,1.9129574,-0.7685348,-250.1374054,179.8396912,250.1297760,1.1156923,0.4548960,10.5751352,0.2977099,-1.1679389,-4.5038166
5190,5.9040713,1.5705882,2.9256995,-250.1374054,152.1679382,250.1297760,1.0558375,0.4692611,10.6732969,0.0916031,-2.7480917,-3.0381680
5200,12.5144281,3.4428444,9.1051025,-231.0610657,62.9312973,250.1297760,1.1061156,0.4764437,10.6493549,0.0152672,-4.6183205,-1.1068702
5210,19.0553532,6.2320752,13.5774488,-164.2213745,-53.4427490,230.2671814,1.2306134,0.4932030,10.6086531,0.1297710,-6.4809160,-0.0458015
5220,19.6126022,9.4690189,15.3012648,-75.1221390,-135.4122162,122.3740463,1.3191984,0.4381367,10.5847120,-0.2900763,-7.5419846,0.6870229
5230,19.6126022,10.9677820,15.5406837,14.7099237,-173.0839691,-8.4732828,1.4963684,0.5434810,10.5392218,-0.7480916,-8.1145039,1.3893130
5240,19.6126022,10.7570934,13.6708221,85.8473282,-192.4045868,-133.0610657,1.5298871,0.6153067,10.6206245,-0.8931298,-8.9007635,2.3740458
5250,19.6126022,9.3804340,10.2543135,124.4580154,-205.9847260,-215.9160309,1.6687500,0.6033357,10.5847120,-0.8167939,-9.6335878,3.1908398
5260,15.4736462,8.0205345,6.9934273,137.8167877,-211.3282471,-250.1374054,1.8435259,0.7374104,10.6086531,-0.5648855,-9.7862597,3.5419848
5270,12.7921543,7.1777802,5.0780759,142.5190887,-185.9770966,-250.1374054,1.9297167,0.7972651,10.5871058,-0.2442748,-9.2900763,3.9847329
5280,9.2200232,7.0101867,3.0358322,144.2748108,-134.8167877,-250.1374054,1.9967541,0.8188128,10.5703468,0.1221374,-8.9389315,3.7557251
5290,6.2296810,6.7947097,1.2090657,139.8396912,-81.2595444,-250.1374054,2.0805507,0.8666966,10.5751352,0.2442748,-8.2290077,2.3664122
5300,3.8666160,6.6319046,-0.5386927,129.1832123,-40.6870232,-250.1374054,2.0709739,0.8595140,10.5368280,0.7022901,-7.7099237,2.1068702
5310,1.7549409,6.1458845,-1.9129574,117.4045792,-21.7328243,-250.1374054,2.1212518,0.8834559,10.4506369,0.7480916,-6.7404580,1.9618320
5320,-0.3830703,5.0876527,-2.8179610,108.5801544,-20.4351139,-250.1374054,2.1547706,0.9504932,10.4865494,0.3435115,-6.0458016,1.3816794
5330,-2.6192431,4.0246325,-3.7971845,102.3511429,-29.1450386,-250.1374054,2.2170193,0.9409165,10.4506369,0.1603053,-5.4961834,0.9923664
5340,-5.0996237,2.9687948,-4.2520804,100.0992355,-44.9771004,-250.1374054,2.2720859,0.8882443,10.4985209,0.0076336,-5.2900763,0.0152672
5350,-19.6131992,2.7461352,-3.6583214,-73.1297684,123.1221390,162.1221313,1.9345051,0.7230452,10.5583754,0.5954198,-0.7938932,-6.6870227
5360,-17.1519737,2.7652888,-3.2728570,-91.5725174,159.2442780,219.8931274,1.8267666,0.7326220,10.4099360,0.4427481,-0.7633588,-7.5343513
5370,-14.9158001,2.7748656,-3.4883339,-106.3740463,172.5343475,250.1297760,1.7597293,0.7110743,10.5320396,0.0610687,-0.9618320,-7.1068702
5380,-11.5806942,2.8466914,-3.3758070,-118.2442780,183.0076294,250.1297760,1.7669119,0.7230452,10.5535870,-0.4809160,-1.3206106,-6.7557254
5390,-8.5807753,3.5314295,-3.2584918,-129.1374054,191.9236603,250.1297760,1.6902977,0.7350162,10.6110477,-1.0458015,-2.1068702,-7.1679387
5400,-6.0596933,3.8618276,-3.1292057,-141.2366486,198.2366486,250.1297760,1.7190280,0.6560079,10.4769726,-1.2213740,-2.3282442,-6.6412215
5410,-3.4380560,3.7540891,-2.4037662,-155.7251892,202.5114441,250.1297760,1.7070571,0.6320660,10.6158361,-1.2213740,-2.2977099,-6.5190840
5420,-0.3351865,3.5050933,-1.3527170,-170.8015289,195.9694672,250.1297760,1.7788827,0.6033357,10.5751352,-1.1526718,-2.4656489,-6.1068702
5430,3.5601597,4.1634955,0.8499373,-179.6259613,163.4045868,250.1297760,1.6783268,0.6560079,10.6445665,-0.8625954,-2.5725191,-5.9618320
5440,7.3046722,4.9823084,3.2249732,-173.9160309,109.4503784,250.1297760,1.6855093,0.6679789,10.5511932,-0.5954198,-2.9007633,-5.1221375
5450,11.7123747,5.8609757,7.2184811,-146.1145020,44.3358765,250.1297760,1.7286048,0.6560079,10.5296450,-0.6335878,-2.8931298,-5.1297708
5460,15.9812145,7.7954807,10.7906122,-93.2671738,-18.8244267,202.9313049,1.7693061,0.6248835,10.5631638,-0.6259542,-2.8778627,-5.0839696
5470,19.4934902,9.5145092,13.1632538,-23.9083977,-72.5419846,118.3740463,1.7046629,0.6727672,10.6134415,-0.5648855,-2.5267177,-4.6717558
5480,19.6126022,10.1872759,12.8927097,45.8473282,-108.2824402,22.9007626,1.6256547,0.6177009,10.6589317,-0.5038168,-3.0229008,-4.2137403
5490,18.5382080,10.2926207,10.5487986,102.5954208,-140.6793823,-61.3511467,1.6136837,0.6560079,10.6589317,-0.2977099,-3.2137403,-3.5648854
5500,15.9931860,9.6174593,7.8625183,143.6717529,-181.2366486,-129.5572510,1.5227045,0.5817881,10.6086531,-0.0610687,-3.4274809,-3.6412213
5510,13.5271702,8.9566631,3.9144998,172.4198456,-190.3282471,-187.4732819,1.5059452,0.6057299,10.6302013,0.2442748,-3.5267177,-2.4427481
5520,10.8432837,8.5664101,1.4772149,192.9694672,-168.7862549,-235.3053436,1.5083394,0.5650287,10.6756907,0.4732825,-4.0992365,-1.3282443
5530,7.3118544,8.3293848,-1.1947005,200.4809113,-139.3740387,-250.1374054,1.5298871,0.5817881,10.6349897,0.5343512,-4.6335878,-0.7328244
5540,4.7021880,7.9798336,-3.7516949,191.1374054,-109.8320618,-250.1374054,1.5131277,0.5602403,10.6637201,0.6717557,-4.8473282,-0.2595420
5550,2.7126167,7.3334022,-5.2839761,172.9770966,-75.7938919,-250.1374054,1.5274929,0.6272776,10.5128860,0.4503817,-5.3511453,0.4732825
5560,0.8930327,6.5816269,-6.1722202,152.2977142,-51.6946564,-250.1374054,1.5801650,0.6153067,10.5631638,0.3358779,-5.9618320,0.9083970
5570,-1.7333932,5.2959471,-7.3405848,129.5877838,-45.5114517,-250.1374054,1.6448082,0.6129125,10.5918941,0.2137405,-6.6488547,1.2061069
5580,-4.8434453,4.2472920,-8.0971489,106.4045792,-53.1832047,-250.1374054,1.6448082,0.7110743,10.5895004,0.0076336,-7.0610685,2.2824428
5590,-8.3581152,3.6343796,-8.5352850,82.5725174,-74.7328262,-250.1374054,1.7142396,0.7829000,10.5727406,0.1984733,-7.4427481,2.4045801
5600,-12.6868095,3.1507533,-8.6382351,58.0992355,-96.7709961,-250.1374054,1.8722562,0.6919208,10.5248566,0.0152672,-7.2977099,2.3816793
5610,-17.4608231,2.7509236,-8.4682484,32.7862587,-127.5954208,-229.4580078,1.9129574,0.7493813,10.6780853,0.0687023,-7.2213740,2.7099237
5620,-19.6131992,2.7988074,-7.5847921,5.2671757,-155.4961853,-160.0534363,1.9728121,0.7565638,10.6182299,-0.0076336,-6.8244276,1.7862595
5630,-19.6131992,3.3638363,-6.9048424,-21.6793900,-131.8931274,-79.9847336,2.0997043,0.7421987,10.5727406,0.1297710,-6.2900763,1.6488550
5640,-19.6131992,3.8785870,-5.9591374,-49.8473282,-64.4732819,4.5877862,2.1308286,0.7637464,10.5416164,0.1145038,-5.8320613,1.1297710
5650,-19.3761749,3.9144998,-5.7556314,-84.2290039,17.6183205,89.2213745,2.1619530,0.7326220,10.6565371,0.2137405,-5.2748094,-0.0534351
5660,-17.7050304,4.2377152,-5.9184365,-123.2442780,94.5190811,161.2671814,2.1116750,0.7493813,10.6469603,0.4427481,-4.7404580,-0.5572519
5670,-15.5981445,4.4029145,-5.8921003,-165.9618378,154.6183167,219.0534363,2.1667414,0.7948709,10.5272512,0.5725191,-3.9312978,-2.1374047
5680,-13.6253319,4.0413918,-5.4515696,-207.5267181,192.5038147,250.1297760,2.1643472,0.7565638,10.5631638,0.9007633,-3.3129771,-2.9312978
5690,-11.1569233,3.5481887,-4.7117648,-242.2595367,212.0992432,250.1297760,2.1475880,0.8283895,10.4721851,0.5572519,-2.6717558,-3.2900763
5700,-8.6693602,3.1627243,-3.7157819,-250.1374054,226.8091583,250.1297760,2.1236460,0.8044477,10.5751352,0.6106870,-2.3893130,-3.9236641
5710,-6.0429344,2.6767037,-2.1475880,-250.1374054,242.5114441,250.1297760,2.0135133,0.8403605,10.5392218,0.6183206,-2.1984732,-4.4503818
5720,-3.7588775,1.9153515,-0.4046180,-250.1374054,250.1297760,250.1297760,1.9919657,0.7757174,10.5655584,0.3664122,-1.9694656,-5.2824426
5730,-0.6679789,1.1731528,1.9632354,-250.1374054,241.3358765,250.1297760,2.0518203,0.7374104,10.4147243,-0.0992366,-2.0534351,-5.4122138
5740,2.7245877,0.6368544,4.3693957,-250.1374054,200.7938995,250.1297760,2.0637913,0.6847382,10.5440102,-0.2977099,-2.0229008,-6.0610685
5750,8.1665802,1.6472024,8.4562769,-250.1374054,124.4274826,250.1297760,1.9536586,0.6823440,10.5080976,-0.5343512,-1.7175573,-6.3816795
5760,13.9533358,4.5705075,13.9293938,-199.4961853,17.5343513,250.1297760,1.8985922,0.6512195,10.5320396,-0.8244275,-1.5496184,-7.1221375
5770,18.3107605,7.3884687,17.7026367,-101.5648880,-86.5572510,172.1374054,1.7525467,0.6895266,10.6302013,-0.8320611,-1.4198474,-7.3435116
5780,19.6126022,8.9997578,19.1654873,9.5954199,-171.3129730,52.3435097,1.7357874,0.6392486,10.6134415,-0.5725191,-1.5572519,-7.6793895
5790,19.6126022,9.3086090,17.5302544,102.0839691,-224.7786255,-65.5496216,1.7477583,0.6536137,10.5535870,-0.4732825,-1.9389313,-6.8396945
5800,17.6691189,8.8130112,13.8048964,168.4656525,-250.1374054,-169.5419922,1.5873476,0.6200951,10.6278067,-0.3664122,-1.5419847,-6.7557254
5810,13.0626974,8.1282730,9.5264797,201.2671814,-250.1374054,-236.7328186,1.6041069,0.6607963,10.5918941,-0.3129771,-1.5954199,-6.1755724
5820,10.1633339,7.4363523,5.9351954,211.5572510,-250.1374054,-250.1374054,1.6184721,0.6129125,10.5583754,-0.2061069,-1.7938931,-6.6259542
5830,7.7571740,6.8473821,1.7884595,208.0076294,-211.9084015,-250.1374054,1.5945302,0.5841822,10.5487986,-0.1145038,-2.2137403,-5.7480917
5840,5.7173243,6.2512288,-0.8978211,198.0839691,-104.6488571,-250.1374054,1.4867916,0.5650287,10.6565371,-0.1068702,-2.2824428,-5.4503818
5850,3.0885043,6.0381460,-2.3343346,185.3740387,-11.5190840,-250.1374054,1.5083394,0.5626345,10.5535870,-0.0458015,-2.5190840,-5.4503818
5860,0.7278336,5.6167684,-3.8426740,167.5190887,43.5801544,-250.1374054,1.5514348,0.5865764,10.5368280,0.1832061,-3.0152671,-4.7022901
5870,-2.2050486,4.9224534,-5.3558016,144.9923706,67.1755753,-250.1374054,1.5394639,0.5865764,10.6182299,0.2290076,-3.3282442,-3.2671757
5880,-5.6191626,4.2161674,-6.4260044,125.1679382,74.2519073,-250.1374054,1.4867916,0.5841822,10.6637201,0.3740458,-3.5954199,-2.2824428
5890,-9.8281479,4.0509686,-7.3525558,111.6793900,44.5496178,-242.2290039,1.5035510,0.6320660,10.6876621,0.6564885,-3.9847329,-1.4503816
5900,-13.6708221,4.7764082,-7.8457589,100.1145020,-22.9160309,-206.9847260,1.5298871,0.5817881,10.7139978,0.9465649,-4.4885497,-0.9465649
5910,-15.9405136,5.6478930,-8.7076674,88.4961853,-84.6259537,-163.6030579,1.5346755,0.6272776,10.6972389,1.0687023,-5.1679387,0.1221374
5920,-18.0857067,6.0309634,-9.1027079,67.5114517,-106.8702316,-108.4045792,1.5562232,0.7182568,10.5344334,1.3893130,-5.8244276,0.9770992
5930,-18.1886578,6.8354111,-8.3868456,37.8854980,-102.7099228,-40.6946564,1.5825592,0.6679789,10.5535870,1.0152671,-6.4503818,2.1908398
5940,-18.0928898,6.8210459,-8.0756006,7.5343513,-80.8854980,23.3740463,1.6184721,0.7278336,10.6278067,0.5496183,-7.0381680,2.3282442
5950,-16.5175133,6.4188218,-9.1841106,-24.0152664,-19.8473282,74.3740463,1.7118455,0.7350162,10.5559816,0.1679389,-7.5648856,2.6870229
5960,-14.7769375,6.5313487,-8.9949694,-62.5648842,38.7404594,107.7786255,1.8028246,0.7876883,10.5104914,0.1374046,-7.3664122,2.7404580
5970,-12.7730007,6.5959921,-8.0325060,-107.6412201,85.5954208,142.4885559,1.8650736,0.7876883,10.6996326,0.1068702,-7.4122138,3.1603053
5980,-11.3891592,6.2943239,-6.7157016,-142.6564941,117.8778610,172.9084015,1.9009864,0.7876883,10.5871058,-0.0534351,-7.0763359,2.9389312
5990,-9.9741936,5.9016771,-5.5928264,-162.9160309,142.1526642,198.1145020,1.9799947,0.6919208,10.4817610,0.4351145,-6.7404580,2.7786260
6000,-9.1074963,5.7316895,-4.7835903,-178.4656525,160.1145020,219.9160309,2.0398495,0.7110743,10.4961262,0.6030535,-6.1679387,2.0763359
6010,-7.9080076,5.5114241,-3.4619980,-190.8167877,155.2595367,238.4885559,1.9967541,0.7254394,10.6014709,0.6564885,-5.7786260,1.4274809
6020,-6.2464404,4.9104824,-2.0398495,-196.0229034,140.5343475,250.1297760,2.0637913,0.7326220,10.6254129,0.7938932,-5.3053436,1.1068702
6030,-4.2688398,4.3358769,-1.0893562,-193.5877838,137.5343475,250.1297760,2.1332228,0.7781116,10.6038647,0.8854962,-4.9541984,-0.0839695
6040,-2.3032103,3.6607156,-0.2825144,-190.3740387,143.9236603,250.1297760,2.1404054,0.7469871,10.5583754,1.0305344,-4.6641221,-0.6183206
6050,-0.3088504,2.9759774,0.3591284,-193.5954132,149.2671814,250.1297760,2.0877333,0.8140244,10.5847120,0.9007633,-4.0534353,-0.6946565
6060,2.2888451,2.6407909,2.4085546,-201.8167877,131.2213745,250.1297760,2.1044924,0.7733232,10.5152798,1.0152671,-3.6106870,-2.2442749
6070,6.1817970,2.4875629,5.3246775,-198.4198456,85.6717529,250.1297760,2.0925217,0.8212070,10.5655584,0.9923664,-3.0916030,-2.3969467
6080,10.8456783,3.6990228,9.1410151,-171.5496216,15.9618320,244.0915985,2.1164634,0.8068419,10.5009146,0.7480916,-2.5419848,-2.8549619
6090,16.4815998,5.8944945,12.9956608,-118.0152664,-68.7557220,183.2900696,2.0877333,0.7733232,10.5009146,0.7633588,-2.2213740,-3.6030533
6100,19.6126022,7.6973190,15.8638992,-41.0992355,-123.8015289,96.1374054,2.0470319,0.7852941,10.5703468,0.6106870,-1.9083970,-4.5725193
6110,19.6126022,8.4395180,15.7441902,28.9847336,-134.9313049,-1.5419847,2.0326669,0.7589580,10.5033092,0.2595420,-1.6870229,-5.2442746
6120,19.6126022,8.0684185,14.6715927,83.0992355,-116.6106873,-87.3664093,1.9345051,0.7781116,10.4697905,0.0839695,-1.4122137,-5.8320613
6130,17.4416695,7.7475972,12.1361465,130.0305328,-109.9389343,-148.8091583,1.8746504,0.7805058,10.5080976,-0.1679389,-1.5419847,-6.3358779
6140,13.8815107,6.9216018,8.8465300,164.6870270,-114.6717529,-192.6946564,1.8459201,0.7110743,10.4769726,-0.5877863,-1.5877863,-6.1374044
6150,10.8289185,6.5816269,5.2456689,187.1450348,-109.0000000,-223.4809113,1.8147956,0.7541697,10.4865494,-0.6946565,-1.8015267,-6.6030536
6160,8.5137377,6.9623032,1.6831152,195.4274750,-89.8396912,-244.8167877,1.7597293,0.6775556,10.5296450,-1.0152671,-1.6641221,-6.8702292
6170,6.7899213,6.9000540,-0.4836263,188.4732819,-74.8625946,-250.1374054,1.7788827,0.7254394,10.5440102,-0.8167939,-1.9847329,-6.6641221
6180,4.4843168,6.6630292,-2.3463056,175.7480927,-59.6488533,-250.1374054,1.7429699,0.7733232,10.5775290,-1.0534351,-1.9007634,-6.5114503
6190,2.4468615,6.1482787,-3.5338237,161.9541931,-38.1297722,-250.1374054,1.6424140,0.6799498,10.6206245,-0.8854962,-2.0534351,-6.2595420
6200,0.1987177,5.5880380,-3.8905578,150.4503784,-27.3816795,-250.1374054,1.6304430,0.6464311,10.6445665,-0.8854962,-2.1908398,-5.8396945
6210,-2.2529323,4.7788019,-4.3454537,143.5572510,-27.7786255,-250.1374054,1.5634058,0.6560079,10.6110477,-0.8778626,-2.6183207,-5.3893127
6220,-5.3558016,4.3071470,-4.8051381,139.5267181,-30.7099228,-250.1374054,1.6591733,0.6655847,10.5152798,-1.1526718,-2.9465649,-4.4122138
6230,-19.6131992,5.3222833,-10.8815908,29.5954189,-10.7786255,-56.4274826,1.4604555,0.5099624,10.6876621,0.1984733,-4.6335878,-1.1832061
6240,-19.6131992,5.6790175,-11.2814207,-23.3893127,31.3053436,20.7480907,1.5346755,0.5554519,10.6828737,0.6488550,-4.6564884,-0.6717557
6250,-17.9851513,5.9639258,-10.6900558,-77.6412201,76.9694672,88.6564865,1.5011568,0.5841822,10.6685085,1.0992366,-4.8473282,0.6641222
6260,-15.3850613,5.8537931,-9.6318245,-116.9694672,111.4961853,137.1526642,1.6088953,0.6153067,10.6254129,1.1374046,-5.2824426,0.8015267
6270,-13.7498302,5.4826937,-8.6310530,-147.5572510,133.1755676,176.0076294,1.5394639,0.7206510,10.5679522,1.1450381,-6.0763359,1.4503816
6280,-12.0092545,5.2217274,-7.4794478,-173.3282471,147.6870270,210.3893127,1.6663558,0.7350162,10.5823174,0.9083970,-6.8091602,2.4580152
6290,-10.2710724,4.9416070,-6.5241661,-194.2137451,157.8396912,239.6641235,1.7381816,0.7637464,10.4697905,0.4198473,-7.1908398,2.6641221
6300,-8.4945841,4.6854286,-5.4276276,-213.6259613,174.7175598,250.1297760,1.8435259,0.7805058,10.5009146,-0.1221374,-7.5419846,2.9236641
6310,-7.0460997,4.2448978,-4.2951760,-233.6183167,200.0229034,250.1297760,1.9440818,0.8092360,10.5918941,-0.1068702,-7.6641221,3.0763359
6320,-5.2576399,2.8634505,-2.9400647,-250.1374054,250.1297760,250.1297760,1.9943599,0.7733232,10.5176744,-0.4427481,-7.4198475,2.5267177
6330,-3.5194585,1.7645177,-1.8387375,-250.1374054,250.1297760,250.1297760,2.0613971,0.7565638,10.5080976,-0.4809160,-6.9618320,2.1832061
6340,-1.8171898,1.0702027,0.1651991,-250.1374054,250.1297760,250.1297760,2.0159075,0.6751614,10.6373835,-0.2900763,-6.7251906,1.2748091
6350,1.0199248,0.6464311,3.5817075,-250.1374054,250.1297760,250.1297760,2.0997043,0.7110743,10.5727406,-0.0992366,-5.8854961,0.3511450
6360,5.2265158,0.9121862,9.0404596,-250.1374054,250.1297760,250.1297760,2.0805507,0.7134684,10.4865494,-0.0992366,-5.5801525,-0.2671756
6370,9.7036495,2.9568241,14.7673607,-250.1374054,159.3129730,235.2366486,2.0853391,0.6751614,10.5487986,-0.1068702,-4.9923663,-1.2519084
6380,13.3332415,4.0940638,18.9332504,-190.9541931,42.3282433,165.9770966,2.0925217,0.7278336,10.6182299,0.0534351,-4.4885497,-1.7480916
6390,17.2094345,6.2895355,19.6126022,-75.5343475,-68.0381699,83.8473282,2.0254843,0.7517755,10.5655584,0.4122137,-3.9083970,-2.5496182
6400,18.2868195,6.9718795,19.6126022,37.4503822,-146.2442780,0.1832061,2.0470319,0.7805058,10.6804790,0.4503817,-3.6106870,-2.9465649
6410,16.4744167,7.0006099,18.4927197,130.3053436,-186.4503784,-70.3893127,2.0302727,0.7733232,10.5368280,0.4274809,-3.0381680,-3.1984732
6420,13.4816809,6.7803445,13.9078465,193.0839691,-205.0992432,-119.7251892,2.0805507,0.6991033,10.4793673,0.5038168,-2.6106870,-4.0687022
6430,11.1904411,6.8689294,9.7323799,227.8778687,-216.7557220,-147.3129730,2.0518203,0.8355721,10.5080976,0.5572519,-2.2977099,-4.6335878
6440,9.6030941,7.2807302,5.9328012,243.4122162,-220.6717529,-163.9313049,2.0422437,0.8140244,10.5631638,0.1832061,-2.1450381,-5.1526718
6450,8.5400734,7.6350703,2.8945751,244.1832123,-213.5954132,-181.8549652,2.0542145,0.6871324,10.5607700,0.1450382,-1.8167939,-5.7633586
6460,7.2639709,7.9056134,-0.2466015,232.8091583,-190.8396912,-204.7557220,1.9704180,0.7374104,10.5727406,0.0839695,-1.5954199,-6.4809160
6470,5.9088597,8.1617918,-1.9632354,213.9084015,-168.6488495,-229.9694672,1.9033806,0.7613522,10.5775290,0.1068702,-1.2824427,-6.3816795
6480,4.4962878,8.0085640,-2.7892308,194.9313049,-146.5877838,-250.1374054,1.8076130,0.7805058,10.5320396,0.1145038,-1.2977099,-6.2824426
6490,2.8945751,7.2903070,-3.5218527,179.3816833,-116.3740463,-250.1374054,1.7597293,0.7038917,10.5990763,0.0458015,-1.6717557,-6.0992365
6500,0.9361281,6.4427638,-4.0222383,166.4427490,-90.9007645,-250.1374054,1.6735384,0.6847382,10.5895004,-0.2061069,-2.0992367,-5.1832061
6510,-1.1947005,5.5688848,-4.5537481,156.9618378,-86.5114517,-250.1374054,1.6184721,0.6775556,10.5224628,-0.4885496,-2.3664122,-4.5343513
6520,-3.8354914,4.5681133,-4.8314743,150.9923706,-94.8702316,-250.1374054,1.6831152,0.6440369,10.6996326,-0.5725191,-2.7175572,-4.9083967
6530,-7.3286138,4.0294209,-5.5688848,144.7022858,-104.5190811,-250.1374054,1.6735384,0.7302278,10.6182299,-0.9160305,-3.1832061,-4.3511453
6540,-10.6254129,4.3909435,-6.3541789,136.2748108,-115.0687027,-250.1374054,1.6448082,0.6344602,10.6924505,-1.0610687,-3.2366412,-3.1603053
6550,-13.7067347,4.4819226,-7.9487090,120.3358765,-109.3129807,-214.3435059,1.6543850,0.5506636,10.5775290,-1.0916030,-3.6030533,-3.0000000
6560,-17.7122135,5.3366485,-11.6525202,66.8702316,-87.4580154,-155.2442780,1.7166338,0.5003856,10.6852674,-0.9465649,-4.0229006,-2.7480917
6570,-19.2444954,5.8226686,-12.4569674,-13.5954199,-75.6793900,-80.1068726,1.6041069,0.5554519,10.6397781,-0.6793893,-4.1832061,-2.7175572
6580,-17.5781384,6.1746144,-12.7921543,-86.0305328,-25.7557259,-5.6335878,1.6639616,0.5099624,10.6852674,-0.3816794,-4.1374044,-2.0763359
6590,-16.7784805,5.6646523,-12.9669304,-158.5801544,68.5114517,60.7862587,1.6472024,0.5937590,10.6732969,-0.3358779,-4.7175574,-2.5267177
6600,-15.4113979,4.5729017,-10.9510221,-220.6030579,161.5725250,124.3435135,1.6400198,0.6344602,10.5344334,-0.0534351,-5.0305343,-1.4809160
6610,-14.4920292,3.6966286,-7.9774394,-250.1374054,208.5648804,179.8931274,1.5107336,0.6536137,10.5679522,-0.2061069,-5.1374044,-1.2748091
6620,-13.3284531,3.3638363,-5.5353661,-250.1374054,209.1221313,223.1221313,1.6280488,0.6631905,10.6278067,-0.1526718,-5.5419846,-0.7633588
6630,-11.2957859,3.0621684,-3.0382264,-250.1374054,183.8625946,250.1297760,1.6759326,0.6392486,10.6828737,-0.2519084,-5.8778625,-0.0229008
6640,-9.4091644,2.9544299,-1.1659702,-250.1374054,149.8396912,250.1297760,1.7717001,0.7086801,10.6254129,-0.0458015,-6.0610685,-0.1832061
6650,-7.2472115,2.7389526,0.4022238,-250.1374054,125.9389343,250.1297760,1.9225341,0.6775556,10.6182299,0.0229008,-5.6870227,0.2824427
6660,-4.8841467,2.1188576,1.4460905,-250.1374054,120.4503784,250.1297760,1.8626794,0.7230452,10.6254129,0.2595420,-5.2671757,0.0000000
6670,-2.4612267,1.6495966,2.7078283,-250.1374054,118.3053436,250.1297760,1.9680238,0.7541697,10.5727406,0.6259542,-5.2061067,0.3358779
6680,0.1005560,1.0749911,3.7564833,-250.1374054,113.2900772,250.1297760,2.0398495,0.7733232,10.5942879,0.7480916,-4.7099237,-0.0610687
6690,3.1483591,0.6991033,5.6814117,-232.1755676,100.5954208,250.1297760,2.0613971,0.7374104,10.5152798,0.9312977,-4.2977099,-0.4427481
6700,6.8521700,1.4963684,8.4682484,-199.7786255,51.6106873,250.1297760,1.9680238,0.7254394,10.5296450,0.7633588,-3.8854961,-1.0381680
6710,12.0619268,3.1723011,11.4490137,-150.3129730,-37.5877876,250.1297760,1.8961980,0.7086801,10.5272512,0.3206107,-3.6946564,-2.0076337
6720,18.0402184,6.7564025,14.5590658,-83.3358765,-143.3358765,184.6030579,1.9392935,0.7445929,10.4314833,0.1297710,-3.5954199,-2.2061069
6730,19.6126022,9.5001440,15.5694141,-8.1603050,-214.5496216,85.5038147,1.8938038,0.7086801,10.4865494,0.0916031,-3.6946564,-2.1450381
6740,19.6126022,9.8185711,14.4537220,56.1908379,-225.6870270,-18.0229015,1.7333932,0.6727672,10.5847120,-0.0916031,-3.7938931,-2.5267177
6750,18.3155499,9.2559366,12.1744537,108.9389343,-208.6106873,-102.0457993,1.8147956,0.6871324,10.5775290,-0.1603053,-4.0534353,-1.6564885
6760,13.1129761,9.1481981,8.6358414,146.9160309,-193.1374054,-149.4351196,1.7357874,0.6153067,10.5559816,-0.2061069,-4.1145039,-1.9770992
6770,9.7204094,9.1170731,5.6383162,169.5648804,-181.0915985,-171.8931274,1.8483143,0.6153067,10.6661139,-0.1984733,-4.2977099,-1.1908396
6780,7.1514440,9.0691900,2.3534882,177.6641235,-158.6259613,-182.2290039,1.8507085,0.5578461,10.5966825,0.2824427,-4.3435116,-1.2137405
6790,4.9200592,9.1362267,0.0454896,173.2290039,-133.5190887,-183.7557220,1.8818330,0.6129125,10.6254129,0.2442748,-4.3358779,-1.7786260
6800,2.5737536,9.2032642,-1.9895715,158.5801544,-116.6793900,-176.6641235,1.8674678,0.6392486,10.6445665,0.2824427,-4.0229006,-1.8778626
6810,0.7158626,9.0452480,-3.3614421,137.8320618,-100.1450348,-164.9923706,1.8794388,0.6416427,10.5799236,0.3816794,-3.8091602,-2.2824428
6820,-0.4764437,9.1290445,-3.9432299,117.3053436,-80.2900772,-150.2442780,1.8507085,0.6847382,10.6134415,0.3893130,-3.5038168,-1.8931298
6830,-1.3048333,8.8585014,-4.4651632,99.9770966,-54.3206100,-131.7175598,1.8698620,0.7733232,10.6685085,0.4656489,-3.6183207,-2.1679389
6840,-1.6711442,8.9087791,-4.8841467,80.2290039,-22.7099228,-118.7251892,1.9656296,0.7445929,10.5176744,0.4656489,-3.3282442,-2.2290077
6850,-2.5043221,9.0835552,-4.5369892,60.7251892,2.1603053,-105.0534363,1.9919657,0.7517755,10.4243011,0.4885496,-3.2366412,-2.4732823
6860,-3.2465210,8.8752604,-4.0342093,43.0992355,22.2519093,-86.6870193,1.9632354,0.7517755,10.4889441,0.2213740,-3.3587787,-2.4732823
6870,-4.0078731,8.6956959,-3.8690102,28.8396950,34.3816795,-68.2213745,1.9225341,0.7326220,10.5559816,-0.0458015,-3.8549619,-2.8702290
6880,-4.4005203,8.5616217,-3.4835455,17.9160309,39.2595406,-51.4732819,1.8124014,0.7182568,10.4290895,-0.2366412,-3.8091602,-3.0152671
6890,-4.9056940,8.4826136,-3.3015873,10.1297712,35.8625946,-33.3664131,1.8578910,0.6847382,10.5272512,-0.3511450,-4.0916033,-2.8473282
6900,-5.0373745,8.3629036,-3.2680686,4.3969464,34.1068687,-12.9618320,1.8842272,0.6272776,10.4290895,-0.5648855,-4.1984735,-2.3282442
6910,-4.9870968,8.4538832,-3.2704628,-1.6564885,32.8854980,8.0458012,1.8985922,0.6488253,10.4673967,-0.6335878,-4.0229006,-2.8931298
6920,-4.6638808,8.4514885,-3.1866663,-9.5725193,35.9007645,28.6030540,1.9943599,0.6967092,10.5487986,-0.7251908,-3.8244274,-3.3282442
6930,-4.4340386,8.5568333,-3.5434003,-20.2900772,46.4809151,47.6946564,1.9823889,0.6679789,10.6062593,-0.6259542,-3.6641221,-3.5496182
6940,-4.1778607,8.5400734,-3.7062054,-34.2061081,66.0076370,68.1297684,1.9225341,0.7038917,10.5847120,-0.6106870,-3.3740458,-4.3435116
6950,-3.9456241,8.5257082,-3.5793133,-49.9771004,80.6946564,87.9160309,1.9584470,0.6919208,10.5607700,-0.6030535,-2.9923663,-4.8702292
6960,-3.5410061,8.3174143,-3.3375001,-64.7557220,90.4427490,106.7709961,1.9057748,0.7278336,10.5966825,-0.4198473,-2.8473282,-4.8473282
6970,-3.1603301,8.1617918,-3.0765336,-77.7862625,97.0000000,124.0687027,1.8985922,0.7134684,10.6349897,-0.6335878,-2.6488550,-5.1603055
6980,-2.6240315,7.9319496,-2.6719155,-90.1755753,108.3893127,141.7099304,1.7597293,0.7134684,10.6972389,-0.5801527,-2.6183207,-5.6335878
6990,-1.9584470,7.5584559,-2.1954718,-101.2900772,126.3129807,158.7022858,1.8267666,0.7014975,10.6014709,-0.5343512,-2.3511450,-4.7938933
7000,-1.3168042,7.2448173,-1.4365137,-108.7786255,151.2061005,174.6488495,1.7262106,0.5817881,10.5655584,-0.7404580,-2.2290077,-4.7404580
7010,-0.9840119,7.0868006,-0.7637464,-119.0000000,169.3358765,190.4427490,1.6711442,0.5865764,10.5679522,-0.6259542,-2.4961832,-4.3969464
7020,-0.2035061,6.6750002,0.3447633,-130.0763397,188.6259613,204.8320618,1.6615674,0.5650287,10.7882175,-0.5572519,-2.7404580,-4.4732823
7030,0.4429250,6.2895355,1.4293311,-139.5343475,208.1450348,216.1984711,1.6112895,0.5602403,10.6445665,-0.4580153,-3.1832061,-4.0229006
7040,1.2641320,5.7771792,2.1835008,-149.1374054,221.7175598,224.7557220,1.5729824,0.5123565,10.6828737,-0.0916031,-3.1450381,-3.3358779
7050,2.6982515,5.6359220,3.0142846,-158.0076294,221.0229034,228.5648804,1.5562232,0.5123565,10.6852674,0.2061069,-3.7404580,-3.8167939
7060,4.3670015,5.7939386,4.0820932,-158.7404633,205.2290039,222.0610657,1.5705882,0.4788379,10.5703468,0.3053435,-4.2061067,-2.7404580
7070,6.8282285,6.1147599,5.5976148,-146.6030579,163.7862549,203.7175598,1.5945302,0.5961532,10.5727406,0.4198473,-4.3129773,-1.5038168
7080,9.1505919,6.2655940,7.5081782,-118.8931274,86.4351120,172.2977142,1.5921360,0.6512195,10.5487986,0.4961832,-4.8015265,-1.5419847
7090,11.7865944,6.5481081,9.7587166,-74.6717529,-18.2137413,127.3893127,1.6184721,0.6991033,10.6541433,0.5419847,-5.2213740,0.1145038
7100,14.3531656,7.3070664,11.1712875,-17.2213745,-115.3358765,76.4656525,1.7286048,0.7206510,10.5631638,0.4580153,-5.7175574,0.7022901
7110,15.6819410,7.7763271,11.0132713,42.1679382,-182.7328186,21.4122143,1.7286048,0.7062859,10.5751352,0.4198473,-5.8015265,0.8931298
7120,15.3706961,8.1091194,9.6102762,93.0839691,-210.5496216,-28.3664131,1.8315549,0.6392486,10.5416164,0.0152672,-6.0305343,1.4045801
7130,14.3603487,8.0229292,8.0301113,129.0229034,-206.5877838,-65.3969498,1.8890154,0.7565638,10.5440102,0.1450382,-5.9770994,1.5725191
7140,12.5192165,8.2264347,6.7061248,155.1603088,-192.5496216,-94.2061081,1.8842272,0.7110743,10.4338779,0.2290076,-5.9541984,0.9007633
7150,11.0611553,8.7842808,5.3103123,171.1068726,-195.0534363,-110.0229034,1.9345051,0.7326220,10.6397781,0.4045801,-5.8244276,1.0458015
7160,10.2399483,8.9590569,3.2704628,175.9465637,-210.2595367,-121.8778610,2.0111191,0.6919208,10.6373835,0.3587786,-5.5190840,0.8091603
7170,9.9215212,9.0955257,1.0917504,170.4274750,-223.9694672,-136.0000000,1.9752063,0.6727672,10.5990763,0.4198473,-5.0534353,0.6106870
7180,9.7395630,9.0739784,-0.0023942,159.7786255,-224.6412201,-154.0152740,1.9632354,0.6679789,10.5464048,0.4656489,-4.8396945,0.0305344
7190,8.7483683,9.0117292,-1.7166338,145.9847260,-203.4885559,-171.3435059,2.0063307,0.7469871,10.5679522,0.5648855,-4.9160304,-0.0916031
7200,7.4195933,8.9782104,-3.3351059,130.4274750,-147.4885559,-183.5801544,2.0063307,0.7350162,10.5655584,0.3969466,-4.6335878,0.4656489
7210,6.1865854,8.7723103,-3.5697365,119.8625946,-90.2824402,-190.3206177,1.9776005,0.6296718,10.5535870,0.1755725,-4.6641221,-0.5954198
7220,4.2784166,8.4658537,-3.7014170,114.2137375,-50.5725174,-189.0992432,1.9991482,0.6943150,10.5487986,0.0229008,-4.7175574,-0.8091603
7230,2.7437410,8.0277176,-3.7900019,111.0076370,-24.7099228,-182.4961853,1.9991482,0.6464311,10.5703468,0.3053435,-4.5190840,-1.1603054
7240,1.4939742,7.6925306,-4.4531922,106.3282471,-11.5419846,-175.5419922,2.0757623,0.7445929,10.5823174,0.2061069,-3.9160306,-1.7786260
7250,0.7158626,7.6039457,-5.7771792,90.8396912,-20.2977104,-177.7938995,2.0206959,0.7206510,10.5296450,0.5114504,-3.5954199,-2.0916030
7260,-0.3567342,7.8697009,-6.9335728,65.2748108,-48.9007645,-189.7786255,2.0302727,0.6655847,10.6637201,0.8549618,-3.2061069,-2.3358779
7270,-1.9368993,7.9319496,-7.0700417,42.1145020,-69.9312973,-191.4961853,2.0590029,0.7757174,10.5703468,1.0458015,-3.0076337,-2.7251909
7280,-2.8730273,7.8936424,-6.5241661,27.1145039,-76.4885483,-176.1297760,1.9752063,0.7757174,10.5631638,1.0992366,-2.5648854,-3.1679389
7290,-3.9815371,7.8289995,-6.2655940,17.7786255,-73.0610657,-153.7786255,2.0494261,0.7876883,10.4865494,0.7099237,-2.5801528,-3.5725191
7300,-4.7428894,8.0708122,-6.3613615,2.6870229,-58.9312973,-127.5190811,2.0111191,0.7924767,10.4338779,0.3587786,-2.4656489,-3.6259542
7310,-5.4036856,8.3245964,-6.3781209,-15.2595415,-39.7786255,-102.3664093,2.0302727,0.7565638,10.4458485,-0.2595420,-2.8778627,-4.3053436
7320,-5.9328012,8.3964224,-6.2847471,-37.2977104,-15.9160309,-74.0534363,2.0733681,0.7398046,10.3716288,-0.7175573,-2.6259542,-5.1755724
7330,-6.2033448,8.5328913,-6.2560172,-62.9923668,9.6106873,-46.0305328,2.0326669,0.7565638,10.4865494,-1.0687023,-2.6183207,-6.1832061
7340,-6.7420373,8.6190825,-6.3015065,-88.5419846,42.5954208,-16.2061062,1.9464760,0.6967092,10.5775290,-1.1221374,-2.3511450,-6.4656487
7350,-7.0437055,8.3437500,-6.1075773,-112.3740463,79.0534363,16.5648861,1.9297167,0.7230452,10.5679522,-1.2366412,-2.0610688,-6.6870227
7360,-7.2735476,8.1905222,-5.6574697,-136.2595367,108.7862625,51.7938919,1.8411317,0.6488253,10.6062593,-1.5190840,-2.0687022,-6.6335878
7370,-6.9287844,7.9534974,-4.9918852,-160.6335907,130.0305328,87.3969498,1.8195840,0.6320660,10.5152798,-1.3435115,-1.8854961,-7.1526718
7380,-6.1458845,7.6901364,-4.1204000,-183.1755676,149.1679382,121.1679382,1.7932479,0.5698171,10.5751352,-1.4198474,-1.8931298,-7.0000000
7390,-4.8314743,7.3357964,-2.7174051,-199.3969421,173.5038147,150.5572510,1.6160779,0.5506636,10.6110477,-1.2977099,-2.0305343,-7.5725193
7400,-3.9935081,6.8856888,-1.2210367,-209.2137451,183.8091583,174.8625946,1.6088953,0.5339043,10.6397781,-1.3587786,-2.0687022,-6.3053436
7410,-2.6695213,6.1315193,0.0239419,-212.8549652,179.2290039,192.3129730,1.6759326,0.5793939,10.6206245,-1.2366412,-2.2290077,-6.3969464
7420,-0.7781116,5.6311336,1.1468167,-209.6030579,164.3053436,200.9618378,1.5921360,0.5913648,10.6182299,-1.0763359,-2.5801528,-5.5877862
7430,1.4149660,5.2121506,2.4684093,-200.7175598,138.2595367,199.3129730,1.5873476,0.5793939,10.6206245,-0.6030535,-3.7480917,-5.5267177
7440,3.8402798,5.1834202,4.4507980,-183.1984711,98.3053436,186.7404633,1.5586174,0.6153067,10.5080976,-1.1755725,-3.9541984,-4.3435116
7450,7.1729918,5.9998388,7.6326761,-149.4885559,34.5190849,160.2824402,1.6328372,0.6153067,10.6038647,-1.6259542,-3.2366412,-3.4961832
7460,10.8480721,6.9814563,10.7403336,-96.8931274,-43.7175560,114.7786255,1.5921360,0.5195391,10.5392218,-1.1068702,-4.2748094,-2.4427481
7470,13.3619709,8.2647419,12.4162664,-32.8778610,-102.6793900,55.0381660,1.6160779,0.5099624,10.5655584,-1.4732825,-4.3587785,-2.9160306
7480,14.6644106,8.5161324,12.7897596,31.5877857,-134.2748108,-10.6412210,1.6304430,0.5817881,10.6062593,-1.2290076,-4.1297708,-2.2137403
7490,14.0562859,8.7603388,12.3564119,90.1450348,-153.1221313,-70.8320618,1.5849534,0.5722113,10.5918941,-0.6488550,-4.2977099,-1.3435115
7500,11.8871508,8.1689749,10.5942879,139.2137451,-157.8931274,-119.5038147,1.5346755,0.5650287,10.7139978,-0.1450382,-4.8244276,-0.2290076
7510,9.0644016,7.6877422,8.6573887,177.7251892,-154.3129730,-150.0000000,1.6112895,0.5602403,10.6254129,0.0305344,-4.7786260,0.5114504
7520,6.5169835,7.1466556,6.9431496,206.3587799,-146.7633514,-163.7557220,1.5681942,0.5937590,10.7283630,0.3969466,-4.9083967,1.2748091
7530,4.4244623,6.7300668,5.2169390,226.3969421,-135.2671814,-164.7328186,1.6160779,0.6488253,10.7044210,1.0229008,-5.1603055,2.1526718
7540,3.0118904,6.6438756,2.6647329,236.4656525,-112.8396912,-158.9847260,1.5705882,0.6560079,10.6421719,1.1374046,-5.6106873,3.2213740
7550,2.3271523,6.9814563,0.3208214,235.0229034,-82.1297684,-151.7709961,1.6950861,0.6967092,10.6589317,1.3587786,-6.0916033,3.3664122
7560,2.3439114,7.0221577,-2.4157372,220.1221313,-56.9007645,-146.7709961,1.7740943,0.6368544,10.5583754,1.2671756,-6.3893127,3.8396947
7570,2.4923513,7.2831244,-4.6351509,194.3587799,-32.3282433,-147.5343475,1.8267666,0.6655847,10.5487986,1.0076336,-6.6259542,4.5038166
7580,2.1763182,7.7021074,-6.1434903,163.2519073,-5.4809160,-145.5496216,1.9009864,0.6751614,10.4985209,0.5954198,-6.9847326,4.3664122
7590,1.6304430,7.6829538,-6.5433197,134.2290039,26.3664131,-139.4961853,2.0063307,0.6464311,10.4961262,0.3587786,-7.1603055,3.6641221
7600,1.1228749,7.6997132,-7.0676475,108.7022934,55.4580154,-132.5190887,1.9752063,0.5746055,10.5727406,-0.0763359,-6.9465647,3.3358779
7610,0.4333483,7.8481531,-7.2448173,86.5877838,76.5343475,-130.8396912,2.1260402,0.6631905,10.5009146,-0.1297710,-6.9160304,2.4122138
7620,-0.3998296,7.7140784,-7.3836803,68.7786255,83.9465637,-132.1145020,2.1404054,0.6991033,10.5559816,0.0839695,-6.2977099,1.5496184
7630,-1.4987626,7.6661944,-7.3405848,58.9771004,68.5114517,-135.0763397,2.1308286,0.6560079,10.5871058,0.3664122,-5.7633586,0.7328244
7640,-2.6288199,7.3597383,-7.5919747,54.7938919,37.8244286,-131.3053436,2.0829449,0.7206510,10.5823174,0.5725191,-4.6488547,-0.6488550
7650,-3.9216824,7.3884687,-7.5393028,51.3053436,8.2290077,-121.5190811,2.1547706,0.6967092,10.5392218,1.0305344,-4.0229006,-1.3053435
7660,-4.8482337,7.7930865,-8.1139078,46.4732819,-20.3053436,-112.6641235,2.0805507,0.7254394,10.5631638,1.1755725,-3.2442749,-1.6641221
7670,-6.1123657,7.8625183,-8.6118994,38.0228996,-45.8396950,-100.3740463,2.1427996,0.7709290,10.5320396,1.0534351,-3.1145039,-2.3511450
7680,-7.3717093,7.7906923,-9.6773138,22.8549614,-61.4122124,-80.4580154,2.1643472,0.7230452,10.5487986,1.0152671,-2.7709923,-2.6030533
7690,-8.1258793,7.8744893,-10.2303715,0.6641222,-62.4732819,-56.5267181,2.1475880,0.6679789,10.4626083,0.8396947,-2.6870229,-3.2824428
7700,-9.1841106,7.9606800,-10.6709023,-29.2366409,-51.6183205,-27.8320618,2.0637913,0.6799498,10.6589317,0.4885496,-2.6564887,-4.3206105
7710,-9.8185711,7.8242111,-11.2311430,-69.4122162,-31.8854961,6.3282442,2.0925217,0.7086801,10.5392218,0.4045801,-2.3435113,-4.7022901
7720,-9.8161764,7.5823979,-11.1042509,-110.3893127,-3.5267177,40.7480927,2.1116750,0.7230452,10.5607700,0.3664122,-2.0458016,-5.2061067
7730,-9.5336628,7.4195933,-9.8209648,-145.2213745,20.7175579,72.8091583,1.9871773,0.7350162,10.5583754,0.2442748,-1.6030535,-5.3206105
7740,-9.1074963,7.1801744,-8.0708122,-170.2748108,33.4961815,103.9083939,1.9440818,0.7134684,10.5799236,0.1297710,-1.4885496,-5.8091602
7750,-8.3676920,6.8354111,-6.6821828,-187.1755676,42.4961815,133.7022858,1.9416877,0.6607963,10.5152798,0.0992366,-1.2213740,-6.0381680
7760,-7.4171991,6.4954362,-5.4755111,-199.3969421,48.1374054,162.3664093,1.9033806,0.7038917,10.5823174,-0.0916031,-1.1679389,-6.1984735
7770,-6.0333576,5.9639258,-4.6399393,-208.5190887,53.4503822,186.5954132,1.8531027,0.6344602,10.4171181,-0.3282443,-1.4656489,-6.3893127
7780,-4.6351509,5.5377603,-3.9552009,-218.2137451,58.7862587,207.3587799,1.7788827,0.6440369,10.5607700,-0.5190840,-1.7786260,-6.4503818
7790,-3.2321558,5.0948353,-3.0789278,-227.8702240,68.8167953,228.5419922,1.6615674,0.6871324,10.4817610,-1.3511450,-2.0763359,-6.3893127
7800,-1.7908537,4.3765783,-1.8818330,-236.4732819,90.0610657,246.6335907,1.7070571,0.6440369,10.4889441,-2.2595420,-2.3282442,-5.9541984
7810,-0.6057299,3.7636659,-0.5578461,-243.3969421,118.3969498,250.1297760,1.5777708,0.5458752,10.4697905,-3.3129771,-3.6717558,-6.5190840
7820,0.6153067,3.1866663,1.1947005,-247.4351196,146.7404633,250.1297760,1.6639616,0.5075682,10.5631638,-3.6641221,-4.7480917,-5.3206105
7830,2.0278785,2.8395088,3.3710186,-243.4732819,160.4809113,250.1297760,1.6088953,0.4405309,10.5727406,-4.0916033,-5.3511453,-5.4427481
7840,4.3095412,3.0166788,6.3781209,-225.2595367,142.2061005,250.1297760,1.5993185,0.4668669,10.7259684,-3.9541984,-5.7709923,-4.8778625
7850,8.1905222,4.3215117,10.2016411,-184.9160309,80.0992355,216.8244324,1.7022687,0.5267217,10.6709023,-3.4885497,-5.4427481,-4.1374044
7860,12.2462788,6.1410961,13.4721041,-127.7709961,2.1145039,164.3511505,1.6184721,0.5362985,10.7403336,-2.7251909,-4.9923663,-3.4198472
7870,16.1057129,8.0109577,16.4121685,-55.5648842,-66.7251892,92.5038147,1.6232605,0.4955972,10.8384953,-1.7938931,-4.0534353,-2.7862597
7880,18.1431675,8.5735922,17.9971218,19.6259537,-112.0152664,12.0458012,1.6711442,0.5482694,10.8720140,0.3664122,-4.1374044,-1.9007634
7890,17.9683914,7.7116842,17.0131111,91.0381699,-119.7862625,-64.4503784,1.7405758,0.6033357,10.7954006,1.6412214,-4.2061067,-1.3435115
7900,14.7769375,6.8330169,14.2382450,152.7786255,-103.0229034,-124.4580154,1.7501525,0.5937590,10.5200682,1.8396946,-4.0381680,-1.0763359
7910,11.2359314,6.3326311,11.4274664,201.2671814,-85.1526718,-158.6641235,1.6879035,0.6224893,10.5942879,1.3206106,-4.7633586,-0.4885496
7920,7.7643566,5.8513989,8.5496502,233.7709961,-79.5877838,-166.7022858,1.5969244,0.6512195,10.4793673,0.4198473,-6.3816795,-0.0076336
7930,5.9136481,5.7628140,5.3103123,250.1297760,-85.6870193,-159.5190887,1.6615674,0.6416427,10.4219065,-1.1374046,-7.7633586,0.7175573
7940,5.0086441,6.3829093,1.9273225,250.1297760,-100.9923630,-148.3740387,1.6687500,0.6464311,10.3907824,-2.2748091,-9.0839691,1.3664122
7950,4.9056940,6.9599090,-0.8092360,245.1145020,-123.0916061,-143.3969421,1.8195840,0.5243275,10.4913378,-2.6793892,-9.7557249,1.5648855
7960,5.0038562,7.2687593,-2.9640064,224.1679382,-135.7938995,-149.1526642,1.8124014,0.5027798,10.8193426,-2.6564887,-9.4961834,1.2748091
7970,4.8817525,7.7954807,-4.4603748,198.4274750,-124.3969498,-162.2900696,1.9536586,0.4429250,10.8480721,-1.2900764,-7.9923663,1.7862595
7980,4.6590929,8.1139078,-4.8913293,172.6488495,-98.8473282,-177.3282471,2.0494261,0.4525018,10.9103212,0.6106870,-6.1832061,1.6717557
7990,3.3925664,8.0875721,-5.1403246,152.0152740,-69.5496216,-191.1908417,2.0135133,0.4261657,10.8983507,2.3053436,-4.5572519,0.7099237
8000,2.0733681,7.5081782,-4.9727316,137.9770966,-42.6946564,-202.8244324,2.0135133,0.5410868,10.6756907,3.6183207,-3.3587787,0.4351145
8010,0.3088504,7.1203194,-4.7835903,130.8702240,-27.1526718,-211.0076294,1.9823889,0.6009415,10.5583754,4.1603055,-2.5648854,0.4274809
8020,-1.6519908,6.5098009,-5.1834202,128.3358765,-32.2366409,-213.5648804,1.9464760,0.6416427,10.6206245,3.9236641,-2.5114503,0.2442748
8030,-3.4883339,6.0453281,-5.7316895,125.4198456,-47.5343513,-211.4885559,1.9584470,0.7374104,10.4290895,3.5877862,-2.8625953,-0.2824427
8040,-5.6359220,6.0501165,-6.6414814,117.9694672,-68.0152664,-202.3206177,1.9153515,0.7398046,10.4003592,2.5267177,-3.3129771,-0.5038168
8050,-7.7523856,6.1363077,-7.7260494,102.2442780,-85.7251892,-183.3129730,1.9081690,0.8068419,10.3381100,1.6106870,-2.8931298,-0.0305344
8060,-8.9470863,6.2153158,-8.8800488,81.0076370,-89.9389343,-157.2366486,1.9943599,0.7493813,10.5104914,0.8549618,-4.6793895,-0.0381679
8070,-10.2950144,6.5576849,-9.6414013,56.3129768,-78.2748108,-125.5877838,2.0781565,0.7876883,10.3093796,0.6412213,-3.9236641,0.0534351
8080,-11.4178896,6.7324610,-10.5176744,26.2824421,-57.5190849,-87.7251892,2.1978660,0.7517755,10.4841557,0.4198473,-4.5496182,-0.5572519
8090,19.6126022,8.1737623,14.6979294,-10.8167934,-65.9312973,-26.3511448,1.6950861,0.5698171,10.7211800,0.0992366,-3.3511450,-3.6793892
8100,17.1400032,7.4986014,14.7960911,49.0992355,-118.1755753,-96.8396912,1.7142396,0.5482694,10.7714586,0.6183206,-3.7557251,-2.8167939
8110,13.6205435,6.3637557,12.9836893,103.9923630,-171.9541931,-147.1603088,1.7094513,0.5817881,10.5416164,0.7709923,-3.4122138,-3.1526718
8120,10.1130562,6.1147599,10.6038647,145.4656525,-221.1068726,-180.2137451,1.7190280,0.6177009,10.6469603,1.0610687,-3.3511450,-2.0152671
8130,8.5664101,6.0716643,8.8130112,171.0610657,-250.1374054,-206.0381622,1.6639616,0.5961532,10.6134415,0.9465649,-3.8702290,-1.0534351
8140,7.4531116,6.3062949,6.5816269,181.8015289,-250.1374054,-231.6870270,1.5514348,0.6368544,10.6206245,0.9312977,-4.3435116,-0.5648855
8150,6.3589673,6.4236102,4.2496862,178.5648804,-250.1374054,-250.1374054,1.5681942,0.6584021,10.5823174,0.5801527,-5.0229006,0.0305344
8160,4.6207857,6.3326311,1.6184721,165.4656525,-250.1374054,-250.1374054,1.6950861,0.6823440,10.4769726,0.5114504,-5.4961834,0.7862595
8170,2.2864509,5.5640965,-0.1268920,149.2213745,-213.9084015,-250.1374054,1.7669119,0.6296718,10.5320396,0.3511450,-5.8091602,1.0916030
8180,0.5602403,4.9847026,-0.9744351,136.4198456,-170.9770966,-250.1374054,1.8195840,0.6320660,10.5775290,0.1603053,-6.0381680,1.1984733
8190,-1.0606259,4.7237358,-1.5801650,124.3664093,-146.3435059,-250.1374054,1.8985922,0.6009415,10.5535870,0.0992366,-5.8244276,0.6641222
8200,-2.7557120,4.6207857,-2.5809362,112.2671738,-125.2442780,-250.1374054,1.8985922,0.5889706,10.5871058,0.3053435,-5.7709923,0.8778626
8210,-3.8737986,4.5848727,-2.9879484,101.5877838,-101.9312973,-250.1374054,1.9823889,0.6177009,10.5344334,0.4885496,-5.5572519,0.7786260
8220,-5.5042415,4.9176650,-3.3375001,88.2137375,-79.6412201,-250.1374054,1.9225341,0.5698171,10.5847120,0.6335878,-5.2366414,0.4427481
8230,-7.2089043,5.2839761,-3.6702924,69.6946564,-60.1984749,-244.7404633,1.9249283,0.6129125,10.6110477,0.8244275,-4.8702292,0.1984733
8240,-9.0667953,5.7532372,-4.0389977,46.0381660,-39.8854980,-214.4656525,1.9512644,0.6033357,10.5009146,1.1068702,-4.8625956,-0.4198473
8250,-10.6685085,6.2153158,-3.9719603,25.4503822,-15.1297712,-176.5496216,1.9321109,0.6584021,10.5416164,1.1832061,-4.5038166,0.0839695
8260,-11.8392668,6.6510582,-3.8330972,11.4580154,6.1145039,-131.7709961,1.9416877,0.7086801,10.6325951,1.2442749,-4.0458016,-0.2519084
8270,-12.7993364,6.8425937,-3.8163381,2.4503818,15.5954199,-84.9083939,2.1140692,0.7469871,10.5918941,1.0763359,-3.8702290,0.1450382
8280,-12.7969427,7.0796180,-4.0988522,-4.8396945,10.3053436,-38.5038185,2.1284344,0.6895266,10.5583754,1.1603054,-3.5648854,-1.0305344
8290,-12.1241751,7.2950954,-4.2281384,-12.1832066,-6.3435116,1.8320611,2.1236460,0.7517755,10.5727406,0.7328244,-3.2519083,-1.4351145
8300,-11.1497402,7.5632443,-4.4651632,-22.0000000,-25.3435116,38.5648842,2.1164634,0.7900825,10.5080976,0.7099237,-2.7938931,-2.5877862
8310,-10.2423429,7.8625183,-5.0804701,-38.5190849,-25.6717548,71.5114517,2.0925217,0.7805058,10.5775290,0.5038168,-2.1374047,-2.7862597
8320,-9.2176294,7.8601241,-5.2289100,-59.7404594,12.3664122,102.9694672,2.0829449,0.7398046,10.5942879,0.5038168,-1.4122137,-3.6030533
8330,-8.1258793,7.9008250,-4.4460096,-77.1450348,71.2137375,133.8549652,1.9488702,0.7469871,10.6804790,0.7022901,-0.8091603,-3.9312978
8340,-7.2950954,7.8361821,-3.6056492,-89.6717529,126.8244247,163.4198456,1.9656296,0.7852941,10.5535870,1.0000000,-1.5038168,-4.4122138
8350,-6.4834652,7.7643566,-3.0166788,-101.0076370,173.4961853,191.5572510,1.8387375,0.7350162,10.4602137,0.6335878,-1.5496184,-4.3358779
8360,-5.7508430,7.5369086,-2.7724714,-113.7404556,208.8473358,218.0915985,1.8100072,0.6584021,10.3979645,0.1450382,-1.4503816,-4.3664122
8370,-4.7524662,7.0341287,-2.5426292,-128.3740387,235.7251892,240.8625946,1.7669119,0.6296718,10.4793673,-0.6259542,-2.0076337,-4.7862597
8380,-3.6559272,6.5265603,-2.2385671,-143.8778687,248.6870270,250.1297760,1.6041069,0.5817881,10.5368280,-0.9160305,-2.5267177,-4.5114503
8390,-2.5450234,5.8777351,-1.9440818,-159.0915985,250.1297760,250.1297760,1.6136837,0.5315101,10.6637201,-0.9694657,-3.1984732,-3.7480917
8400,-1.3120158,4.8985114,-1.0678085,-173.3511505,250.1297760,250.1297760,1.6112895,0.4716553,10.6900558,-0.6488550,-3.4351146,-2.2213740
8410,0.5003856,4.4316444,0.3423691,-182.6412201,236.7938995,250.1297760,1.6663558,0.4812321,10.7930059,-0.0839695,-3.3282442,-2.1832061
8420,2.3798244,4.0605454,2.0805507,-181.5954132,205.4427490,250.1297760,1.6926919,0.5195391,10.7068148,0.4274809,-3.4045801,-2.2977099
8430,5.1953912,4.2520804,4.2353210,-169.0076294,157.3435059,250.1297760,1.7405758,0.4692611,10.6852674,1.2213740,-3.3282442,-2.2977099
8440,9.8377247,5.5401545,7.5776095,-137.8167877,68.8091583,228.4732819,1.8387375,0.5219333,10.6709023,1.3358779,-3.3969467,-2.7938931
8450,14.6213150,7.1203194,10.7475166,-86.8625946,-52.0381660,161.1145020,1.7333932,0.6512195,10.6014709,1.3969465,-3.1984732,-2.5496182
8460,18.8350887,9.2104464,12.6078014,-22.0687027,-178.1221313,64.0457993,1.6687500,0.6416427,10.5727406,1.4274809,-3.4580152,-2.2977099
8470,19.6126022,10.0939026,12.1600885,39.2748108,-250.1374054,-44.3282433,1.6759326,0.6919208,10.5272512,1.3206106,-3.9389312,-2.0076337
8480,18.1431675,9.8927908,10.4386663,85.7633591,-250.1374054,-144.9160309,1.7214222,0.7757174,10.5224628,0.9770992,-4.3435116,-0.6946565
8490,14.1065645,9.4666252,7.8697009,117.0610657,-250.1374054,-213.6870270,1.7597293,0.6967092,10.6421719,0.6946565,-4.6717558,-0.3893130
8500,11.0898857,9.4809904,4.6902170,135.0076294,-250.1374054,-250.1374054,1.7549409,0.7206510,10.5583754,0.4580153,-4.9160304,-0.4427481
8510,8.9446917,9.2319946,2.3439114,145.6870270,-250.1374054,-250.1374054,1.8315549,0.7302278,10.4578199,0.2900763,-5.0229006,0.1603053
8520,6.9503322,8.5783806,0.2442073,151.0534363,-224.7022858,-250.1374054,1.8698620,0.6655847,10.5942879,0.0534351,-5.3053436,-0.0763359
8530,4.4316444,7.8457589,-1.7501525,150.3435059,-167.1603088,-250.1374054,1.8674678,0.6224893,10.6110477,0.1145038,-5.2671757,-0.4274809
8540,2.2409613,7.5512733,-3.0932927,144.9389343,-123.4503784,-250.1374054,1.9153515,0.7445929,10.4937325,0.0534351,-5.1221375,-0.4198473
8550,0.9073978,7.5632443,-3.6343796,138.7862549,-87.0992355,-250.1374054,1.8722562,0.6440369,10.5823174,0.0610687,-4.7175574,-1.3740458
8560,0.0502780,6.5696559,-2.9640064,139.1526642,-54.2213745,-250.1374054,1.8411317,0.5674229,10.5224628,0.4122137,-4.9618320,-1.3740458
8570,-1.7788827,4.9032998,-2.3199697,149.6488495,-19.1450386,-250.1374054,1.8602852,0.6584021,10.5942879,0.3358779,-4.7786260,-1.2366412
8580,-5.5617023,3.1890604,-2.3247581,166.3358765,13.2748089,-250.1374054,1.9345051,0.5722113,10.5607700,-0.0305344,-4.5114503,-2.0763359
8590,-10.1441803,2.3391230,-3.8929520,182.7022858,33.3129768,-250.1374054,1.9009864,0.6344602,10.6062593,-0.1679389,-5.0381680,-2.5648854
8600,-17.1687317,2.7940190,-6.5720501,189.6106873,40.8854980,-250.1374054,1.9129574,0.6344602,10.6732969,-0.4351145,-4.8549619,-2.4809160
8610,-19.6131992,3.8474624,-10.0555954,173.2290039,50.4580154,-204.6641235,1.9129574,0.6344602,10.6349897,-0.5267175,-4.7404580,-3.0839694
8620,-19.6131992,4.5920553,-13.2326851,113.3816757,42.3053436,-69.7480927,1.9608412,0.6943150,10.6517487,-0.5496183,-4.2442746,-3.3206108
8630,-19.6131992,4.6183915,-14.7984848,40.9007645,6.5572519,60.9694672,2.0278785,0.7158626,10.6852674,0.0229008,-3.9007633,-3.0381680
8640,-15.1217003,7.0844064,-14.6332855,-39.9083977,-6.2824426,149.8244324,2.0757623,0.6847382,10.6230183,0.3893130,-3.4122138,-3.6030533
8650,-8.9901810,7.0915890,-12.9860840,-114.8625946,45.5496178,184.7251892,2.0805507,0.7589580,10.4985209,0.6183206,-2.5725191,-3.7251909
8660,-5.9208307,5.9902620,-10.2662840,-174.7328186,117.1297684,203.2671814,1.9608412,0.7948709,10.5655584,0.7786260,-2.2900763,-4.3206105
8670,-4.5561423,5.2815819,-7.9271612,-218.5114441,181.2595367,220.5267181,2.0206959,0.7948709,10.5224628,0.6488550,-2.1145039,-4.4427481
8680,-4.0964580,4.0940638,-6.0644817,-250.1374054,232.9389343,237.0381622,1.8866212,0.7326220,10.5200682,0.3129771,-1.9770992,-4.6564884
8690,-2.6671271,4.5537481,-4.2688398,-250.1374054,250.1297760,250.1297760,1.7693061,0.7421987,10.5440102,0.0534351,-2.0000000,-4.3893127
8700,-1.4843974,3.8618276,-2.5976956,-250.1374054,250.1297760,250.1297760,1.7070571,0.6488253,10.6254129,-0.3893130,-2.4580152,-4.2748094
8710,-0.3327923,2.6048782,-1.0654143,-250.1374054,250.1297760,250.1297760,1.6687500,0.6224893,10.5703468,-0.6717557,-3.0305343,-3.8091602
8720,0.9145803,1.9345051,1.1970947,-250.1374054,250.1297760,250.1297760,1.6160779,0.5674229,10.5823174,-0.9312977,-3.4274809,-3.3511450
8730,2.8442972,1.3934183,4.0485744,-250.1374054,230.9694672,244.4045868,1.6065011,0.5722113,10.7092094,-0.9236641,-4.0534353,-2.7862597
8740,6.3110833,2.2625091,8.0636301,-250.1374054,143.0076294,213.7786255,1.6065011,0.5650287,10.6493549,-0.7328244,-4.4961834,-1.7557251
8750,9.6892843,4.8793583,12.0571384,-248.6564941,25.0534344,157.1297760,1.6807210,0.5195391,10.6709023,-0.6412213,-4.7175574,-2.0992367
8760,12.2965574,7.3693151,15.5119534,-177.9236603,-69.9083939,87.5267181,1.6902977,0.5339043,10.6828737,-0.2442748,-4.9083967,-1.2824427
8770,13.2422619,8.0588417,18.5669384,-91.8473282,-145.2671814,11.9083967,1.7860653,0.5578461,10.7211800,0.0229008,-4.8778625,-1.1450381
