timestamp,rxacclX,rxacclY,rxacclZ,rxgyroX,rxgyroY,rxgyroZ,txacclX,txacclY,txacclZ,txgyroX,txgyroY,txgyroZ
0,-3.2513094,-0.3591284,4.7835903,185.8167877,-165.0763397,-250.1374054,-2.2529323,-2.0590029,9.5073261,11.3664122,-2.5801528,63.5877876
10,-3.4165084,0.1628049,4.6136031,179.7480927,-181.6717529,-250.1374054,-2.0398495,-1.0869620,9.7395630,7.1679387,-29.4732819,57.6488533
20,-4.2927818,0.6943150,4.3095412,168.8167877,-174.0229034,-250.1374054,-1.8004304,-0.2537841,9.4498653,4.1984735,-61.2366409,52.3969460
30,-4.7093706,0.8403605,4.1898317,159.9923706,-172.9389343,-250.1374054,-1.8387375,0.1675933,9.9167328,4.0076337,-88.1221390,47.3129768
40,-4.6638808,1.2737088,3.2656744,145.0076294,-163.1145020,-250.1374054,-1.3910241,0.1460456,9.5504217,6.9541984,-107.3053436,41.9771004
50,-5.3605900,1.4269369,2.7868366,125.6717529,-151.6259613,-250.1374054,-0.7829000,-0.3950413,10.0747490,12.5038166,-123.8473282,36.3282433
60,-5.1929970,1.6376256,2.2529323,99.5725174,-123.5267181,-250.1374054,0.1963235,0.9313397,11.2622671,-7.2137403,-158.4809113,40.0305328
70,-5.6119800,1.5586174,2.3606708,73.5267181,-88.9312973,-233.8549652,1.6926919,-0.5602403,14.6787758,-15.2442751,-44.6412201,35.0381660
80,-6.1075773,1.0965388,2.2337787,52.1603050,-49.5801544,-213.4961853,-0.4285599,-2.0422437,11.0491848,-25.9541988,35.2213745,31.9847336
90,-6.7851329,0.6823440,2.1140692,31.6641216,-2.1526718,-192.0229034,0.0119709,-3.4452386,9.7898407,-28.1908398,36.6641235,26.2824421
100,-7.8409705,0.1532281,2.0087249,11.8091602,30.0534344,-171.0229034,-0.2705434,-4.0078731,9.4953556,-28.6259537,9.6717558,16.7709923
110,-8.8225880,-0.3495516,2.6431851,-4.2595420,45.5419846,-150.8549652,-0.2729376,-3.1699069,10.3261395,-29.3129768,-6.4045801,0.7786260
120,-10.0268650,-1.1803354,3.6295912,-11.1755724,59.0687027,-124.5877838,0.3471575,-3.8354914,10.1824875,-28.7175579,-1.4885496,-15.2824430
130,-11.3460636,-1.9967541,4.3334827,-7.9618320,80.7251892,-86.9312973,-0.2729376,-3.0932927,9.8927908,-25.6183205,-0.2748092,-24.9389305
140,-12.5910425,-2.3223639,4.1994085,-3.3893130,97.2748108,-44.3587799,-0.1628049,-2.4468615,10.0555954,-19.8931293,4.8320613,-34.4809151
150,-14.1209297,-2.5833304,3.8977404,-3.1374047,111.1679382,3.0381680,-0.2226596,-2.1427996,10.1968527,-15.5343513,6.8320613,-42.3053436
160,-15.5765963,-2.4899571,3.6295912,-7.8015265,123.1068726,55.7862587,-0.4908088,-2.2074428,10.9582052,-12.3129768,12.1068707,-45.1068687
170,-17.8391056,-2.5306582,2.6407909,-19.3664131,134.0763397,117.4580154,-0.7517755,-2.1978660,11.1760759,-8.8778629,31.6717548,-42.1603050
180,-19.6131992,-3.0549858,1.9847831,-37.8702278,131.0915985,195.0915985,-1.4604555,-2.0733681,11.4202833,-3.0000000,59.8167953,-29.5572510
190,-19.6131992,-4.9392128,1.9752063,-56.2366409,142.0458069,250.1297760,-1.8890154,-1.5634058,11.0420017,4.2519083,92.4351120,-9.4198475
200,-19.6131992,-7.1945391,2.1643472,-77.6641235,177.9313049,250.1297760,-2.1116750,-1.1875180,10.4338779,9.8473282,115.7786255,11.0763359
210,-19.6131992,-9.9909525,2.1284344,-110.1374054,219.2900696,250.1297760,-2.6048782,-1.1156923,10.0244713,12.2290077,124.2061081,30.0076332
220,-19.6131992,-13.6923695,3.0406206,-155.4122162,250.1297760,250.1297760,-2.3319404,-1.4772149,9.7826586,11.3129768,116.4961853,42.4580154
230,-19.6131992,-19.6131992,5.1522956,-213.6564941,250.1297760,250.1297760,-2.3558824,-2.3606708,9.6892843,5.9770994,103.3053436,44.6564903
240,-14.3411951,-19.6131992,8.5688038,-250.1374054,250.1297760,250.1297760,-2.0254843,-2.4851687,9.2703018,1.5114504,85.9007645,39.9541969
250,-1.5107336,-19.6131992,12.2079716,-228.4885559,68.1374054,250.1297760,-2.0015423,-2.5785420,9.6940727,0.4351145,67.3206100,29.2366409
260,16.7808743,-19.6131992,16.9748039,-146.0000000,-57.9083977,250.1297760,-1.4317253,-2.3678534,9.7491398,1.4961832,55.2748108,17.9618320
270,19.6126022,-19.6131992,18.5741215,-71.8473282,-130.9847260,250.1297760,-1.6567791,-2.0733681,9.4091644,-0.6106870,35.0687027,6.7633586
280,19.6126022,-19.6131992,19.6126022,17.1221371,-250.1374054,250.1297760,-1.8028246,-1.6519908,9.9526453,-2.5572519,17.1526718,0.5114504
290,19.6126022,-9.7730818,14.6332855,193.9770966,-250.1374054,250.1297760,-2.1356170,-1.5729824,9.8712435,0.2519084,11.3053436,-2.2900763
300,19.6126022,-0.0167593,-19.6131992,250.1297760,-48.8244286,250.1297760,-2.6240315,-1.6184721,10.0651722,-0.0534351,7.5114503,-0.1450382
310,19.6126022,11.1353750,-16.4744167,250.1297760,-100.3664093,-128.0229034,-2.4612267,-2.0135133,10.3069859,2.3816793,14.6183205,1.5267175
320,18.9380379,4.2688398,-19.6131992,141.0076294,-250.1374054,-243.7175598,-2.6192431,-1.8985922,10.0915089,4.4503818,19.8625946,1.4045801
330,10.6038647,-1.9656296,-11.7889891,-34.6946564,-250.1374054,-178.4122162,-2.3750360,-2.1978660,9.9694052,5.6870227,18.6717548,-2.2900763
340,9.6198530,-0.6200951,1.2282192,-85.1832047,-250.1374054,-88.5877838,-2.0494261,-2.3750360,9.7587166,7.1755724,14.2900763,-9.5190840
350,10.4171181,0.7421987,5.3773494,-63.9694672,-55.3969460,8.2900763,-1.6783268,-2.5091105,9.8520899,11.0992365,15.1603050,-15.1832066
360,11.9230633,3.3422885,5.2432747,-33.2748108,167.6564941,89.8167953,-1.5203103,-2.2816625,10.1800938,17.5877857,24.9465656,-18.6030540
370,13.9413652,4.4412212,3.7708483,-11.6717558,250.1297760,123.0839691,-1.6998745,-2.1499822,9.9670105,21.6564884,32.9083977,-18.5267181
380,14.0826225,4.6471219,1.7980363,-1.6259542,250.1297760,115.0000000,-2.5809362,-1.8554969,9.8544836,19.8396950,28.3587780,-17.1755733
390,13.2374735,4.7548604,0.4979914,-1.0610687,250.1297760,100.9389343,-1.9823889,-1.6831152,10.2184010,15.5877867,14.8244276,-15.9160309
400,11.7698355,4.0078731,-0.3136388,-9.0076332,250.1297760,83.0534363,-1.8818330,-1.8698620,9.8209648,13.6183205,9.7633591,-21.9083977
410,9.9430685,3.3255291,0.2442073,-12.6946564,250.1297760,69.2366409,-2.8921809,-2.1044924,9.8808203,15.2137403,7.9389315,-25.8091602
420,9.0165176,3.0597742,0.7158626,-12.5496187,207.3969421,57.3587799,-2.7197993,-1.7238164,10.3213511,16.4427490,5.5267177,-25.4885502
430,9.1912937,2.9855542,1.4173602,-12.0916033,126.0992355,38.8396950,-3.6439564,-1.4460905,10.4362717,17.4885502,6.8931298,-24.7022896
440,9.7299862,2.6838863,1.7286048,-11.2290077,55.4503822,16.0992374,-4.1634955,-1.1348459,10.9294748,20.8167934,8.4351149,-17.5114498
450,9.8209648,2.3798244,1.8483143,-13.4580154,0.1297710,-5.2137403,-4.3909435,-0.6775556,11.1641054,23.8931293,20.7862587,-7.5954199
460,10.1298151,2.4708035,1.9847831,-19.2595425,-38.9389305,-23.1908398,-4.8434453,-0.6847382,11.6309719,26.8473282,32.8625946,0.3053435
470,11.2095947,2.5258698,2.0111191,-27.9007626,-56.4045792,-42.8244286,-5.3414369,-0.8020535,11.7865944,29.3358784,43.0381660,5.2213740
480,11.2670555,2.4229198,2.4636209,-32.3282433,-50.3511467,-62.9007645,-5.1499014,-0.5315101,12.1553001,30.2748089,41.4351158,10.3053436
490,9.1625633,2.3247581,2.9256995,-35.4580154,-42.2366409,-60.4885483,-5.3581958,-1.2593436,11.0898857,28.4885502,39.5496178,13.1221371
500,9.6342182,2.4755919,3.0047078,-40.8091621,-22.8931293,-40.2442741,-4.7979555,-2.2481439,10.4530315,22.9236641,37.4122124,13.8625956
510,8.4562769,2.0590029,2.8227494,-62.6183205,71.3206100,47.8931313,-2.8179610,-1.6519908,9.2248116,6.2595420,14.7022905,-1.8702290
520,7.5704269,1.4341195,2.4181314,-74.2061081,103.6717529,73.8244247,-2.1763182,-2.4420733,8.3365679,-4.6030536,-2.3206108,-15.7328243
530,7.1634150,0.9145803,2.0877333,-87.7022934,126.2824402,93.7099228,-1.9225341,-2.1954718,8.1761570,-12.8473282,-2.8625953,-33.7251892
540,6.9838505,0.7924767,2.6695213,-100.7022934,146.6183167,113.1145020,-1.8028246,-1.1947005,8.5759869,-18.3435116,-47.8320618,-38.4656487
550,7.8146343,1.3742647,4.2161674,-109.5572510,146.0000000,124.5954208,-0.4955972,-3.0023136,7.2615767,-18.1221371,-47.7099228,-50.1755714
560,10.4171181,3.5625539,6.0980005,-111.1526718,143.6564941,120.1374054,-1.7357874,-0.9480990,9.7539282,-14.0229006,-53.1908379,-57.9007645
570,10.1250277,1.9440818,7.8768835,-99.0610657,155.5954132,102.4274826,-1.9057748,-0.2561783,8.6597834,-9.7175570,-78.9923630,-52.1526718
580,10.8983507,1.2665262,9.5360565,-76.3816757,151.0458069,87.7175598,-2.3223639,0.2633608,10.1681223,2.7099237,-100.8473282,-47.7709923
590,11.7411051,0.3854645,10.8624372,-48.4732819,128.9313049,70.3358765,-2.7389526,-0.4189832,9.6102762,14.4198475,-102.9542007,-42.1679382
600,12.9142580,-0.3399749,11.3388815,-18.3893127,104.3511429,46.9694672,-2.4061604,-0.8738791,9.9382801,24.7786255,-92.2671738,-36.8854980
610,13.8048964,-0.4644727,10.5942879,9.2900763,87.8549652,18.3587780,-2.1643472,-1.7046629,9.6198530,30.2748089,-82.7328262,-34.0228996
620,14.5734310,-0.0526722,9.5647869,25.0687027,80.6946564,-9.9007635,-2.2481439,-2.2385671,9.4259243,28.9312973,-74.3206100,-33.4427490
630,14.9660778,-0.3064562,8.8154058,33.2977104,71.7557220,-36.3206100,-2.5115047,-2.4061604,9.5576038,22.5419846,-72.8702316,-33.9236641
640,15.5861731,0.3998296,8.6502066,31.4351139,61.0458031,-62.7480927,-2.9424589,-2.3223639,9.6677370,12.7480917,-75.2213745,-30.3893127
650,15.9022064,0.5985473,8.6071110,23.5496178,35.7099228,-90.9694672,-3.3183465,-1.9704180,10.1872759,2.5267177,-74.3435135,-24.0000000
660,16.1799316,1.2330076,8.6310530,16.3206100,-8.3129768,-120.3511429,-3.3710186,-1.6376256,10.8983507,-3.4427481,-69.0839691,-15.2900763
670,16.3594971,1.5514348,8.2503767,7.8396945,-45.2442741,-154.3129730,-3.3135581,-1.4580613,11.4346485,-2.3740458,-61.7557259,-7.3511453
680,16.0338860,1.1204807,7.7452030,-3.0610688,-65.7709961,-192.5419922,-3.0932927,-1.4436963,11.7219515,4.1374044,-53.5038185,-0.0687023
690,14.9804430,0.3758878,7.7116842,-12.6183205,-85.9389343,-228.5190887,-2.9687948,-1.5155219,11.8272963,13.0992365,-45.0534363,6.3511453
700,14.0275564,0.1005560,7.9104018,-20.5038166,-97.0457993,-250.1374054,-2.6120608,-1.5705882,11.9589767,23.6183205,-40.8549614,12.9694653
710,13.3236647,-0.4740495,7.9415264,-22.5267181,-95.1984711,-250.1374054,-2.2864509,-1.5945302,11.7099810,34.5877876,-34.6412201,17.4885502
720,12.8113079,-0.5482694,7.8122401,-18.0534344,-96.8778610,-250.1374054,-2.2888451,-1.4532729,11.4585905,42.9083977,-25.1068707,20.6488552
730,12.0284081,-0.2681492,7.4195933,-18.3816795,-101.8091583,-250.1374054,-2.1643472,-1.2545552,10.9869356,48.1450386,-18.2061062,24.5267181
740,10.9318695,-0.1556223,7.0149751,-22.3435116,-111.3358765,-250.1374054,-1.8411317,-1.2473727,10.9941177,51.4580154,-11.1297712,27.5725193
750,10.4578199,-0.0550664,6.7037306,-30.8854961,-123.6641235,-250.1374054,-1.7070571,-1.2138541,10.8983507,53.9160309,-5.6793895,30.4885502
760,10.9342632,-0.0837966,6.5912037,-40.0305328,-129.7404633,-250.1374054,-1.6543850,-1.1899122,10.9677820,56.6793900,-1.1832061,31.2595425
770,10.9701757,-0.3327923,6.4451580,-47.4198456,-124.0229034,-250.1374054,-1.6376256,-1.1037214,11.0156660,58.8702278,3.5496182,33.0458031
780,10.9821472,-1.6376256,6.8090749,-51.4198456,-110.3129807,-250.1374054,-1.5681942,-1.0127422,11.1497402,61.3816795,2.9847329,33.4809151
790,10.4578199,-2.6240315,7.1442614,-46.7786255,-71.4732819,-250.1374054,-1.5969244,-0.8666966,11.1784706,64.3511429,-1.7862595,32.8931313
800,7.5297260,-1.9967541,8.2072811,-30.7862587,-47.3129768,-250.1374054,-1.6615674,-0.7493813,11.2167778,67.7938919,-10.0992365,32.1908379
810,6.1339135,-1.5921360,9.0739784,-11.1450386,-63.9083977,-250.1374054,-1.7645177,-0.5793939,11.3005743,71.6641235,-20.2671757,31.3816795
820,4.9559722,-2.0518203,9.3900108,5.4656487,-93.4732819,-250.1374054,-1.9943599,-0.2011119,11.3700056,75.6793900,-31.2748089,31.3816795
830,3.3135581,-2.1475880,9.3636751,23.3511448,-117.3358765,-250.1374054,-2.2720859,-0.0335187,11.2167778,80.8015289,-47.0152664,31.7633591
840,1.9440818,-1.8124014,8.9662399,42.8854980,-131.9770966,-250.1374054,-2.2840567,0.1747758,10.9198980,84.6412201,-66.7175598,33.1832047
850,1.1037214,-1.3383518,8.8800488,56.5572510,-146.8091583,-250.1374054,-2.3008161,0.2178712,11.2383251,86.7480927,-72.5572510,36.1374054
860,0.2825144,-0.8547257,8.6980906,69.3282471,-157.5954132,-250.1374054,-2.0206959,0.2346306,11.3316984,87.9694672,-62.6870232,42.1908379
870,-0.7014975,-0.5650287,7.8840661,79.3969498,-152.5114441,-250.1374054,-1.5346755,0.0646431,10.8959560,89.2595444,-57.0152664,47.2213745
880,-1.8076130,-0.1221037,6.7468257,82.0610657,-138.1145020,-250.1374054,-1.2545552,-0.1484398,10.3596573,89.1679382,-57.6106873,50.2290077
890,-2.6862805,0.3495516,6.2057390,78.2290039,-123.2061081,-250.1374054,-0.8810617,-0.2418131,9.8832140,86.1679382,-64.1603088,51.4274826
900,-3.4979107,0.7278336,5.6574697,72.7709961,-107.0000000,-250.1374054,-0.5267217,-0.2609667,9.4785957,85.7786255,-75.2748108,51.8320618
910,-4.1156116,1.1827296,5.4252334,67.7328262,-87.1908417,-250.1374054,-0.3327923,0.0047884,9.3325500,82.7175598,-90.4198456,51.4885483
920,-4.9056940,1.4963684,5.1642666,62.8396950,-64.8473282,-247.3511505,-0.0550664,0.4357425,9.1888990,79.4961853,-106.5572510,51.1755714
930,-5.9615316,1.7501525,4.7261300,58.6641235,-38.7633591,-222.0076294,0.1101327,0.9840119,9.4163475,76.8473282,-113.9389343,51.7786255
940,-6.8018923,2.1380112,4.6495161,54.3282433,-14.9007635,-193.3664093,0.5578461,1.3335636,9.6629486,75.0229034,-111.7480927,52.7786255
950,-7.6566176,2.4779861,4.4651632,51.9465637,3.5114503,-161.8167877,1.1683644,1.3311694,9.6509781,72.1908417,-96.4427490,53.6259537
960,-8.2647419,2.6575503,4.1419477,51.4809151,13.4656487,-129.4427490,1.7094513,1.2641320,9.3900108,66.6183243,-72.9618301,51.8702278
970,-8.6693602,2.7030399,3.7804251,50.9465637,19.7862587,-97.3358765,1.7740943,1.3982066,9.1194677,59.3587799,-48.2213745,51.3816795
980,-9.7132263,2.3582766,3.4739690,51.0381660,26.0687027,-61.1374054,2.2409613,0.7685348,9.2296000,52.5572510,-12.9770994,48.8244286
990,-11.5160513,1.8315549,3.4835455,51.0000000,38.4503822,-12.5267172,2.1188576,1.1420283,9.7108326,47.5343513,33.6488533,44.9312973
1000,-12.6269550,1.9057748,3.3590479,53.6564903,56.4122124,47.1145020,1.1994889,2.1475880,10.7977943,43.3206100,53.1832047,45.4885483
1010,-14.3052816,1.9057748,1.9584470,48.6870232,97.6564865,110.8015289,0.5075682,2.5593886,10.7882175,39.2977104,40.1526718,49.7022896
1020,-17.4823723,1.5227045,0.3782819,29.4198475,131.3587799,183.2213745,0.9576758,1.6232605,10.6110477,37.1755714,51.4503822,49.5648842
1030,-19.6131992,0.7829000,0.5362985,-4.0000000,161.8854980,250.1297760,0.7517755,1.9129574,10.6828737,36.8167953,62.7328262,46.8625946
1040,-19.6131992,-1.6639616,2.0039365,-35.1679382,202.4122162,250.1297760,0.2777260,2.2696917,10.7738523,36.1603050,57.5343513,45.8091621
1050,-19.6131992,-6.4714942,4.7093706,-54.8015251,222.4198456,250.1297760,0.1915352,2.2409613,10.7259684,36.0916023,40.9236641,44.4274826
1060,-19.6131992,-13.2063494,8.7387915,-57.9160309,225.2061005,250.1297760,0.2609667,1.9081690,10.4386663,36.2061081,25.1984730,42.2900772
1070,-19.6131992,-19.6131992,14.2813396,-44.8931313,250.1297760,250.1297760,0.2801202,1.7717001,10.0220766,36.7022896,11.0076332,39.1984749
1080,-13.9748840,-19.6131992,18.8159351,-21.9694653,250.1297760,250.1297760,0.1580165,1.7597293,9.7443514,36.7175560,-15.3740454,37.3435097
1090,0.4189832,-19.6131992,19.6126022,13.9847326,250.1297760,250.1297760,0.0454896,1.8794388,9.4355011,34.6259537,-54.4045792,36.6030540
1100,19.6126022,-19.6131992,19.6126022,64.3053436,250.1297760,250.1297760,0.2609667,2.5330524,9.2248116,29.8091602,-88.5419846,37.0458031
1110,19.6126022,-19.6131992,19.6126022,139.4198456,250.1297760,250.1297760,0.9792235,3.3518653,9.1769285,21.1374054,-98.0992355,38.8778610
1120,19.6126022,-19.6131992,19.6126022,250.1297760,203.3893127,250.1297760,1.5897418,4.3933377,9.6150646,9.3282442,-77.6717529,39.6335869
1130,19.6126022,4.9440012,3.9408360,250.1297760,25.7709923,250.1297760,1.5418580,4.4986820,10.1346035,1.4122137,-53.2290077,40.0381660
1140,19.6126022,12.3324699,-19.6131992,250.1297760,-250.1374054,-127.5114517,1.0462608,3.6631098,10.4865494,0.2137405,-42.1679382,40.7633591
1150,19.6126022,4.7117648,-19.6131992,22.5190830,-250.1374054,-250.1374054,1.3000449,3.6463506,10.9701757,2.6106870,-37.5648842,40.1374054
1160,10.2040358,-5.2624283,-6.1410961,-155.0152740,-250.1374054,-216.3435059,1.6495966,3.0932927,11.2263546,7.8244276,-28.7938938,37.0152664
1170,11.0946741,-3.6056492,9.2631187,-167.4961853,-250.1374054,-65.8091583,1.9656296,3.0430148,11.2646618,11.8854961,-14.6793890,31.7022896
1180,14.3052816,1.6352314,15.0474806,-107.7862625,41.1908379,36.9465637,1.8195840,2.5306582,11.4322548,12.9312973,6.1603055,30.6183205
1190,13.3763361,4.2472920,13.6516685,-25.3664131,235.8625946,72.9160309,2.0997043,2.8179610,11.8727856,15.1526718,24.6183205,27.9160309
1200,11.7291346,5.0230093,7.9965930,39.5801544,250.1297760,83.3664093,1.9895715,2.8466914,12.0834742,20.3358784,36.6106873,23.2595425
1210,11.7195578,5.3414369,2.0422437,70.7709961,218.8778687,78.1908417,1.5634058,2.1739240,11.7387114,24.9847336,45.3740463,17.3740463
1220,12.0284081,5.5329719,-2.6024840,66.1832047,168.3740387,62.7633591,1.3000449,2.5929072,11.5854826,29.3511448,44.0687027,14.4503813
1230,11.9326401,5.5688848,-4.3981261,37.6488533,143.8396912,45.8015251,0.9576758,3.6080434,11.4226780,30.0687027,36.0687027,12.6106873
1240,10.1346035,5.2696109,-3.7109938,0.7633588,135.1297760,29.2213745,1.1037214,4.3574247,11.5232334,30.9007626,27.8549614,10.7709923
1250,7.6398587,3.9839313,-1.2593436,-29.5114498,113.5419846,21.5648861,0.7924767,4.4220681,11.2095947,29.3740463,21.6259537,9.2900763
1260,6.2703824,2.2792683,2.9975252,-37.6106873,50.9847336,33.3664131,-0.0407012,3.7756367,10.6014709,24.5496178,-20.6717548,12.4961834
1270,7.6039457,2.2146254,3.9144998,-25.6564884,28.0000000,39.4885483,0.5506636,3.9384418,10.3045912,22.5954189,-41.0839691,12.5267172
1280,9.1194677,2.2170193,4.2568688,-13.2366409,20.0076332,38.9771004,1.2018831,3.7253587,9.6868906,19.9007626,-50.9312973,10.5267172
1290,11.0803089,2.6312141,3.4524212,-2.9160306,26.1832066,23.9160309,1.5801650,3.8785870,8.3389616,8.5648851,-64.4198456,4.6183205
1300,11.1401634,2.5498118,2.5330524,-8.8702288,40.0000000,14.5954199,2.1858950,4.0102673,8.1282730,1.5496184,-65.5877838,1.7786260
1310,10.8145542,2.5258698,1.9847831,-21.8854961,63.4045792,7.8549619,1.6855093,3.6966286,6.5864153,-10.0229006,-67.9694672,-1.6717557
1320,10.3333216,2.4947455,2.0637913,-38.7480927,86.9542007,4.6793895,2.5641768,4.0150557,6.6750002,-23.2671757,-60.4427490,-7.1908398
1330,9.7922344,2.3056045,2.2577207,-53.9236641,105.4351120,2.6946564,2.7796540,4.1515245,6.9192076,-34.6335869,-55.2595406,-13.9160309
1340,9.2343884,2.2433555,2.6431851,-66.7175598,118.9312973,2.4427481,3.5218527,4.6973996,8.1593981,-34.9312973,-48.0610695,-24.9236641
1350,8.9590569,2.0757623,2.8706331,-77.8931274,130.2671814,4.6259542,1.4796091,4.0294209,7.0389171,-28.9770985,-31.7251911,-34.9160309
1360,9.2511482,1.8746504,3.2441268,-89.3053436,141.2748108,7.2977099,-0.1747758,2.9256995,5.8322453,-16.8854961,3.5114503,-39.8702278
1370,9.8042059,1.7908537,3.6391680,-102.2595444,156.5877838,9.3740454,1.3383518,4.3478479,8.2264347,1.9312977,45.7251892,-37.9083977
1380,10.7427282,1.7381816,4.0892754,-115.4885483,173.0458069,8.5648851,1.8100072,4.7069764,10.7594872,15.4885492,75.8625946,-25.3358784
1390,11.4035244,1.7070571,4.5920553,-128.0915985,186.7251892,3.4427481,-0.7757174,2.6767037,7.4459291,29.3816795,105.3816757,-13.7633591
1400,12.0571384,1.4772149,5.2097564,-143.1145020,197.1221313,-7.9007635,-0.6991033,2.2792683,7.6398587,39.2061081,120.5725174,-3.1221373
1410,12.6963863,1.3431402,6.0525107,-156.5343475,203.0305328,-23.9083977,-1.3742647,1.9752063,6.9335728,39.7633591,139.0000000,3.5801528
1420,12.8328552,1.0773853,7.4171991,-164.1450348,204.6488495,-41.4045792,-0.4644727,3.0693510,6.5145893,27.6870232,141.2748108,13.9083967
1430,13.2159262,0.4860204,8.8465300,-161.6564941,190.4580078,-65.2137375,0.1556223,3.2656744,6.3446021,0.4732825,119.6870193,14.0381680
1440,13.9653072,0.6368544,9.5336628,-149.8015289,169.9160309,-85.1374054,0.0526722,3.2010312,6.6702118,-24.6488552,73.4045792,-0.2748092
1450,15.1121235,-0.0478838,9.9861641,-132.2595367,146.6183167,-111.6870193,-0.9935886,2.3295465,7.2591825,-46.1297722,25.3282452,-12.6717558
1460,16.3499203,-0.5985473,11.0731258,-111.1603088,100.2061081,-152.4503784,-1.5586174,2.0350611,8.1713686,-61.4045792,-6.8625956,-12.5954199
1470,17.0394459,-1.2018831,12.9142580,-89.2442780,27.5877857,-207.1679382,-1.3407460,2.3056045,9.0644016,-72.0229034,-28.2366409,-4.9770994
1480,16.7760849,-2.1380112,14.3866844,-67.9389343,-47.8625946,-250.1374054,-0.5722113,2.5210814,10.4386663,-76.3664093,-53.7480927,-0.6946565
1490,16.0602226,-2.9735832,15.1217003,-47.1755714,-113.9923630,-250.1374054,-0.0526722,1.4604555,10.6589317,-80.2290039,-73.0916061,-3.1450381
1500,14.8248215,-3.6008608,15.0833931,-23.6488552,-153.0305328,-250.1374054,0.4764437,0.7805058,9.5695753,-83.0763321,-35.7557259,-8.1526718
1510,13.4864693,-4.2736282,15.0235386,1.6793894,-173.9007568,-250.1374054,-0.1843526,2.5258698,12.6892042,-76.1832047,-35.2671738,-2.6870229
1520,12.5934362,-4.2544746,14.3028879,25.8320618,-188.9007568,-250.1374054,0.3232156,0.3926471,11.8320847,-63.4503822,0.6335878,5.2442746
1530,12.6030130,-3.8737986,14.2502155,46.7404594,-204.8167877,-250.1374054,0.0837966,0.5027798,12.0020714,-48.7938919,58.9694672,5.0152674
1540,12.7370882,-3.9528067,13.0603037,64.5648880,-220.7786255,-250.1374054,-0.0837966,0.6775556,13.8360205,-22.3816795,56.9007645,11.4885492
1550,12.1337519,-4.3263001,11.4514084,74.3206100,-219.1679382,-250.1374054,-0.2274480,-0.2585725,11.8679972,-8.4732828,117.0916061,13.4656487
1560,10.5224628,-4.4531922,10.4602137,79.4885483,-204.6717529,-250.1374054,-0.4908088,1.0175306,12.2462788,4.8320613,133.2748108,15.3129768
1570,8.7363977,-4.4819226,9.5911226,82.3893127,-187.8167877,-250.1374054,-5.2169390,1.7118455,13.9748840,3.3893130,60.8015251,23.2366409
1580,7.1035600,-4.1012464,9.0811605,83.0229034,-180.2977142,-250.1374054,-4.9607606,2.0159075,13.0291786,-34.2213745,-51.8167953,29.4122143
1590,5.7556314,-3.7253587,8.8249826,80.8778610,-183.5801544,-250.1374054,-1.4245427,3.1962428,14.1544485,-81.7251892,-33.1145020,27.0152664
1600,4.8625989,-3.4548154,8.4850073,74.2366409,-183.9389343,-250.1374054,0.0430954,3.0861101,17.1519737,-64.7022934,26.2824421,21.0305347
1610,3.7229645,-3.1531475,7.8625183,65.7862625,-173.1679382,-250.1374054,-0.3806761,1.6352314,16.9963512,-7.8854961,60.1145020,23.7480907
1620,2.5857246,-3.1603301,7.3717093,59.8320618,-143.6412201,-250.1374054,-0.0071826,0.5626345,13.7809544,44.9923668,95.0305328,28.6870232
1630,1.1707586,-2.7820482,7.2950954,56.4580154,-107.1832047,-250.1374054,0.3710994,0.8690908,10.3764172,68.9007645,102.7709961,29.2366409
1640,0.0000000,-2.4157372,6.9958215,54.6412201,-70.1297684,-250.1374054,0.9768293,2.5881188,8.5711985,58.0152664,70.6030502,20.9312973
1650,-1.2018831,-1.9057748,6.9503322,53.6183205,-44.3435097,-250.1374054,0.6296718,3.1890604,7.8720951,32.9312973,27.0687027,3.0839694
1660,-2.0422437,-1.6112895,6.9024482,55.5954208,-21.9083977,-250.1374054,-0.3016679,3.3518653,7.6254935,15.8473282,-2.8091602,-10.9160309
1670,-3.2608860,-1.0989330,6.7851329,58.1526718,-8.9236641,-250.1374054,-1.3024391,3.0262554,7.3214312,5.6106873,-24.7557259,-15.9770994
1680,-4.1371593,-0.5722113,6.3517847,58.6488533,-7.6564884,-250.1374054,-1.6687500,2.5785420,6.6486640,-6.3664122,-43.3816795,-12.3511448
1690,-4.8673873,-0.0718257,5.7436604,57.7786255,-2.3358779,-250.1374054,-1.7166338,2.7150109,6.1913738,-24.2442741,-54.2137413,-7.7404580
1700,-5.4491754,0.1939293,5.7316895,58.9923668,8.5954199,-235.7480927,-1.7788827,3.0645626,6.2129216,-44.6564903,-59.0992355,-5.0229006
1710,-6.1387019,0.3136388,5.6239510,61.5954208,20.6335869,-212.1221313,-1.8507085,3.3446827,6.8713236,-65.1908417,-58.2290077,0.1832061
1720,-6.6271162,0.4357425,5.1882086,64.3511429,32.7633591,-185.5190887,-1.4748207,3.2584918,8.5807753,-85.6946564,-46.6641235,9.6564884
1730,-7.1705976,0.5698171,4.6710634,66.0992355,46.4351158,-157.6717529,-0.4932030,2.1643472,10.6996326,-93.8549652,-14.5190840,17.4961834
1740,-7.6254935,0.5147507,4.4603748,67.2977066,58.4427490,-129.7404633,0.1388630,1.1085097,12.0571384,-83.5725174,25.0381680,17.5267181
1750,-8.3868456,0.3974355,3.9982965,69.3587799,75.3587799,-100.5954208,0.2729376,0.8164186,12.5479469,-66.8625946,56.7709923,14.4809160
1760,-9.5863342,0.3567342,3.6966286,71.5725174,97.9694672,-66.3129807,-0.3782819,1.0749911,13.3069048,-49.1450386,86.7328262,13.2442751
1770,-11.7602587,0.4501076,3.1052637,75.0076370,131.0992432,-24.0152664,-0.7230452,1.2761030,13.3715477,-32.9618340,110.7480927,16.4961834
1780,-15.7609491,0.5003856,1.9033806,74.2977066,174.7709961,33.8091621,-1.1587877,1.1228749,13.5343533,-18.9389305,121.8244247,18.8244267
1790,-19.6131992,0.7302278,1.5346755,64.7938919,214.3129730,117.9847336,-1.2713146,1.1420283,13.0507269,-9.0534353,120.5954208,20.2748089
1800,-19.6131992,-0.1412572,2.0566087,50.7022896,247.5343475,231.2671814,-1.4029950,1.1204807,12.7107515,-0.6259542,108.9465637,21.6183205
1810,-19.6131992,-2.5258698,2.9304879,37.1374054,250.1297760,250.1297760,-1.5562232,1.0773853,12.3396521,5.4351144,92.2213745,22.0916023
1820,-19.6131992,-5.5521255,3.8402798,28.7328243,250.1297760,250.1297760,-2.1858950,1.7812769,12.6006193,10.7404585,57.8625946,22.6793900
1830,-19.6131992,-10.7954006,4.9320302,25.2061062,250.1297760,250.1297760,-1.8219782,1.4508789,12.4402084,18.8244267,-7.7938933,20.5343513
1840,-12.8927097,-15.7441902,5.5449429,25.4961834,250.1297760,250.1297760,-1.0486550,1.5586174,11.0874910,20.1221371,-21.7786255,13.3587790
1850,-4.3286943,-19.6131992,6.5720501,20.6183205,250.1297760,250.1297760,-0.9888002,2.0709739,10.2782555,19.3053436,-11.6259546,9.0992365
1860,3.0094962,-19.6131992,7.3190370,0.6717557,250.1297760,250.1297760,-1.3215926,2.1667414,9.5336628,17.2366409,1.9160305,9.9770994
1870,12.0523500,-19.6131992,7.3405848,-37.3664131,250.1297760,250.1297760,-1.5849534,1.9895715,9.5097208,15.0229006,10.4427481,11.3129768
1880,19.6126022,-19.6131992,4.5441718,-75.4351120,250.1297760,250.1297760,-1.7549409,1.9201399,9.5049324,11.8549614,9.3969469,11.6793890
1890,19.6126022,-19.6131992,0.3591284,-98.0763321,250.1297760,250.1297760,-1.6735384,1.8794388,9.4905672,7.7099237,0.1221374,10.8473282
1900,19.6126022,-3.7493007,3.8905578,-104.1068726,250.1297760,250.1297760,-1.6902977,1.8650736,9.6605549,2.4122138,-9.9389315,9.5801525
1910,19.6126022,5.3558016,13.3092995,-86.9542007,250.1297760,250.1297760,-1.5203103,1.8339491,9.7994175,-1.6870229,-18.3282452,6.1450381
1920,19.6126022,2.0087249,16.1847210,-56.9694672,250.1297760,33.9541969,-1.4891858,1.6256547,9.9550400,-3.6412213,-22.9312973,4.9312978
1930,19.6126022,-1.4652439,12.4234495,-4.3969464,-107.3129807,-250.1374054,-1.4891858,1.4915800,10.2399483,-4.4885497,-25.6946564,4.3969464
1940,12.8520088,-3.2584918,12.4545736,35.5877876,-250.1374054,-250.1374054,-1.7022687,1.3575054,10.5823174,-4.1679387,-30.2519093,2.6488550
1950,6.9239960,-2.3223639,12.9645357,66.7099228,-250.1374054,-250.1374054,-1.5442522,1.4101776,10.9222927,-2.9541984,-36.0687027,0.3282443
1960,7.0101867,0.2609667,10.5128860,97.0076370,-250.1374054,-221.2366486,-1.2425843,1.4891858,10.7235746,-1.1374046,-34.2748108,-1.9847329
1970,7.4626884,2.5282640,6.6582408,121.5267181,-250.1374054,-139.6946564,-1.2593436,1.5729824,10.6349897,0.3358779,-27.2977104,-3.5572519
1980,7.8122401,5.3893204,2.5067163,113.7862625,-64.9160309,-48.2519073,-1.2952565,1.5466464,10.7187862,2.6412213,-21.0229015,-5.3816795
1990,8.2791071,6.3015065,-0.1077385,83.3358765,124.0916061,21.4732819,-1.2186425,1.5658000,10.6110477,4.4274807,-15.5190840,-5.7709923
2000,8.5472565,6.0309634,-0.3926471,44.5954208,217.4427490,59.0000000,-1.1013272,1.6017127,10.6876621,5.6564884,-12.4809160,-6.5038166
2010,8.5017672,5.6119800,-0.2992737,4.2290077,245.6412201,75.3435135,-1.0031654,1.5203103,10.6349897,6.0076337,-11.8778629,-8.3664122
2020,8.2934723,5.6790175,-0.2849085,-31.2671757,250.1297760,82.3435135,-1.0414724,1.5298871,10.8169479,7.0229006,-12.1145039,-8.9312973
2030,7.7691450,5.2576399,-0.0550664,-59.1297722,249.9160309,85.9542007,-1.0510491,1.5753766,10.9318695,9.0000000,-10.1832066,-10.0534353
2040,7.3477674,4.7213416,0.3112446,-77.2442780,233.8702240,86.5572510,-1.1851238,1.6184721,11.1952295,12.6946564,-6.2061067,-9.1374044
2050,7.2208753,4.2018023,1.5227045,-82.0076370,194.4045868,83.5496216,-1.3407460,1.7118455,11.6118193,17.9389305,-1.6870229,-8.9847326
2060,7.7260494,3.8737986,2.7413468,-73.7480927,131.4045868,73.3893127,-1.1611819,1.5921360,12.0331964,25.6106873,6.3893127,-7.5114503
2070,8.7914639,3.5841017,4.0294209,-56.4045792,63.0076332,54.1374054,-0.9959828,1.7333932,12.0978394,34.5267181,16.1145039,-7.8015265
2080,9.7036495,3.3662305,4.4340386,-38.1755714,5.0687022,26.7099228,-1.1132981,1.6328372,11.8967276,42.9160309,23.8702297,-9.1068707
2090,9.8018112,3.2967989,4.4412212,-26.4732819,-37.6641235,1.9923664,-1.4197544,1.7238164,11.6836443,48.9160309,25.4351139,-11.3664122
2100,9.6892843,3.3638363,4.1515245,-20.8625946,-61.4503822,-15.4198475,-1.7405758,1.7286048,11.5184450,52.9007645,16.8473282,-11.8625956
2110,9.2846670,3.3207407,4.0366035,-20.5725193,-70.1221390,-24.0916023,-1.8674678,1.7645177,11.5591469,56.6335869,1.1755725,-13.6030531
2120,8.8680773,3.1315999,3.7516949,-25.5343513,-65.3358765,-23.2748089,-1.8794388,2.0278785,11.1688938,58.9847336,-9.5572519,-12.7862597
2130,8.4706421,2.9041519,3.3135581,-34.6641235,-49.6641235,-17.0076332,-1.9416877,2.1619530,10.7379398,59.8396950,-15.3358774,-12.0152674
2140,8.0157461,2.5689652,3.0094962,-45.3053436,-26.1526718,-4.5496182,-2.1523764,2.3510940,10.7451220,60.4885483,-15.1145039,-10.4961834
2150,7.8433647,2.5761478,2.9759774,-57.1908379,3.1908398,12.5954199,-2.3630650,2.4875629,10.6421719,63.1145020,-13.2595415,-6.1068702
2160,7.7236552,2.5474176,2.8227494,-70.4045792,31.8931293,31.4809170,-2.3582766,2.5019281,10.4889441,64.8320618,-15.6564884,-3.8091602
2170,7.9151902,2.4540441,2.6695213,-87.4045792,58.5877876,50.0610695,-2.1356170,2.6790979,10.3045912,65.8473282,-12.2519083,-0.6564885
2180,8.1378498,2.1715298,2.7078283,-108.0457993,84.8396912,67.5114517,-2.1691356,2.7700772,10.1369982,66.9770966,-2.2442749,2.7709923
2190,8.2623482,1.7573351,3.0597742,-127.5496216,98.5725174,82.5267181,-2.1044924,2.5881188,10.5272512,68.8549652,-9.6412210,5.4427481
2200,8.4538832,1.4820032,3.5266411,-147.0839691,98.8167953,95.2671738,-1.7381816,2.5953014,10.5368280,70.6106873,-18.7404575,6.0992365
2210,9.1481981,0.6488253,3.9695661,-166.1068726,90.7328262,104.9694672,-1.3335636,2.9975252,10.0891142,72.7633591,-11.5419846,5.4045801
2220,9.8496952,0.1436514,4.9032998,-179.6183167,77.4274826,108.4351120,-1.4460905,3.1459649,10.0125008,75.2824402,-1.7404580,7.6412215
2230,10.6038647,0.2729376,5.3198891,-185.1526642,69.1145020,111.3740463,-1.4556671,3.2273674,9.8089943,76.5801544,1.9465649,10.6488552
2240,12.5048513,0.5386927,6.9024482,-180.2213745,74.4351120,109.7099228,-1.4867916,3.2800395,9.8089943,76.2671738,-1.9236641,12.8473282
2250,12.9166517,-0.1747758,8.3078375,-157.3969421,88.5572510,106.9236679,-1.4436963,3.3949606,9.8496952,75.0610657,-10.0305347,13.2290077
2260,14.9062233,-1.1587877,8.4299412,-128.9923706,100.8473282,94.6946564,-1.2114599,3.4691806,10.1178446,74.5114517,-22.8778629,12.3587790
2270,15.9453020,-1.4987626,8.3820572,-104.5496216,113.6412201,66.4198456,-0.8834559,3.3159523,10.4865494,75.4198456,-38.9694672,10.3816795
2280,16.3858318,-1.3527170,8.0253229,-89.9389343,97.0076370,28.7480907,-0.3088504,3.5721307,10.8696203,77.9160309,-50.3740463,6.0916033
2290,16.7258072,-1.0606259,7.9367380,-86.2900772,50.5954208,-16.8854961,0.1005560,3.6511390,11.0013008,82.5038147,-52.8167953,0.8091603
2300,17.2621059,-1.2880739,7.8122401,-89.9923630,-8.8320608,-71.0152664,0.2681492,3.6870518,11.1353750,89.8931274,-47.1526718,-4.7938933
2310,17.4057579,-1.7908537,7.4722652,-97.4274826,-55.3129768,-127.6106873,0.4309541,3.8211265,11.3197279,96.2137375,-35.2442741,-10.3206110
2320,16.8455162,-2.4540441,7.6518297,-98.1832047,-79.2977066,-179.0763397,0.4596844,3.9719603,11.0204544,104.3587799,-20.3511448,-15.2595415
2330,16.1559906,-3.0047078,8.3964224,-88.0076370,-80.0152664,-221.7633514,0.1723816,4.0844874,10.5847120,111.1679382,-7.7709923,-20.2366409
2340,15.8758707,-3.3805954,9.4283180,-68.2442780,-81.5190811,-250.1374054,-0.2849085,4.2448978,10.3117743,117.3893127,3.9312978,-27.6183205
2350,16.0961361,-3.3279233,9.4187412,-50.5038185,-94.2824402,-250.1374054,-0.5841822,4.2041965,9.8951855,119.4580154,23.1221371,-21.8167934
2360,16.0578289,-3.4380560,9.0404596,-38.5496178,-106.2977066,-250.1374054,-0.5841822,4.3670015,9.6701307,122.8396912,34.7251892,-21.4656487
2370,15.8734760,-3.7828193,8.4897957,-29.0000000,-114.8625946,-250.1374054,0.2035061,5.1139889,9.9837704,126.6183243,44.5725174,-23.9083977
2380,15.6053267,-3.8666160,7.5488791,-21.9160309,-123.2748108,-250.1374054,0.6775556,5.7747850,10.6828737,130.1450348,64.6564865,-29.5954189
2390,14.8128500,-3.8307030,7.3669209,-16.2213745,-128.9160309,-250.1374054,0.4070122,5.4108682,11.4490137,135.2977142,78.7709961,-37.6030540
2400,14.2238798,-3.9647777,7.6590118,-9.4656487,-140.8167877,-250.1374054,0.1412572,5.0110383,12.2510672,143.5725250,78.7175598,-45.9694672
2410,13.3523941,-4.2999644,7.6877422,-2.3969467,-155.2061005,-250.1374054,-0.2489957,5.0206151,13.1153698,153.0992432,74.3587799,-53.3587799
2420,12.1576939,-4.3047528,7.0891948,1.9160305,-168.3435059,-250.1374054,-1.0390782,4.6112089,13.4553452,165.2748108,58.4274826,-61.9083977
2430,10.4338779,-3.8690102,5.9351954,1.7251909,-172.8778687,-250.1374054,-2.2720859,3.9863255,12.5814657,178.0534363,33.8320618,-66.3206100
2440,8.7244263,-3.5434003,4.8458395,-4.1603055,-168.6412201,-250.1374054,-2.8538737,3.0023136,10.9941177,189.3206177,5.0076337,-67.1984711
2450,6.8880830,-3.3925664,4.1994085,-15.0687027,-163.0229034,-250.1374054,-3.4500270,2.5857246,8.5903521,199.7099304,-17.9618320,-69.9542007
2460,4.7931671,-3.1746953,3.7564833,-27.7328243,-156.5801544,-250.1374054,-4.0581512,3.6200144,4.9511838,204.4656525,-28.5190830,-70.1145020
2470,3.2656744,-2.7844424,3.8402798,-37.9389305,-149.1068726,-250.1374054,-4.3646073,5.6838059,0.8714849,191.5267181,-25.5877857,-61.4885483
2480,2.0757623,-2.3295465,4.3191175,-45.1145020,-136.8320618,-250.1374054,-3.8283088,7.7691450,-2.7078283,155.5954132,-8.7099237,-49.8549614
2490,1.4125718,-1.8100072,4.8793583,-48.3282433,-116.4809189,-250.1374054,-3.0621684,8.8034344,-4.2401094,105.3053436,14.5954199,-41.9389305
2500,0.7374104,-1.5370697,5.4683285,-47.2595406,-91.9694672,-250.1374054,-2.3558824,8.7914639,-4.0222383,56.2290077,25.7862587,-38.7099228
2510,-0.0790083,-1.7525467,5.6694407,-45.7404594,-67.1832047,-250.1374054,-1.2593436,8.4227581,-3.3207407,11.7175570,41.6335869,-41.6183205
2520,-1.2282192,-2.2888451,5.7077475,-48.0305328,-47.2900772,-250.1374054,-0.7517755,7.8122401,-1.7405758,-26.5343513,65.9007645,-48.3664131
2530,-2.3894010,-2.5138988,6.1985564,-54.0228996,-36.2824440,-250.1374054,-0.6536137,6.6893654,0.4501076,-53.2290077,93.3893127,-57.8396950
2540,-3.2920105,-2.6838863,7.0413113,-56.5725174,-25.2137413,-250.1374054,-0.5219333,5.9423780,1.8961980,-69.3664093,117.0152664,-68.2748108
2550,-4.7811961,-2.8610563,7.8697009,-52.0763359,-4.0610685,-250.1374054,-0.7589580,4.9894910,3.0861101,-83.3969498,149.0000000,-85.0687027
2560,-7.0580707,-2.3870070,8.8800488,-39.7099228,21.8244267,-246.6183167,-0.6536137,4.7500720,3.8690102,-90.0152664,166.8702240,-102.9236679
2570,-9.6006994,-1.6974803,9.5480280,-23.9618320,48.4122124,-197.0915985,-2.0183017,4.5082588,4.2760224,-87.1603088,147.0458069,-116.3435135
2580,-12.7849712,-1.0534433,9.6892843,-8.2366409,83.3816757,-130.3358765,-3.1794837,4.5489597,4.2448978,-84.1832047,102.6870193,-125.9389343
2590,-16.3906212,-0.5315101,10.0651722,4.2824426,117.0763321,-42.0610695,-4.3981261,4.7668314,3.5481887,-85.0763321,63.2748108,-133.0000000
2600,-19.6131992,-0.7206510,11.0659437,22.3129768,131.4961853,66.3282471,-5.1858144,5.5425487,2.3870070,-92.3740463,32.1450386,-134.3740387
2610,-19.6131992,-2.1691356,12.7251167,54.7862587,133.7022858,204.9541931,-5.7197185,6.3230543,0.7541697,-110.5496216,-4.3816795,-132.9465637
2620,-19.6131992,-4.6758518,13.6516685,103.6717529,161.7328186,250.1297760,-6.4882536,6.2129216,-0.2753318,-138.6106873,-45.4656487,-130.8396912
2630,-19.6131992,-7.7021074,13.2111378,150.9236603,218.1679382,250.1297760,-6.9742737,5.8944945,-0.5674229,-172.2213745,-94.5496216,-124.2977066
2640,-18.8015690,-13.8862991,11.7602587,182.0992432,250.1297760,250.1297760,-7.5201492,5.4779053,0.3591284,-204.7404633,-148.1603088,-110.4809189
2650,-14.0179796,-19.6131992,10.7307568,196.4809113,250.1297760,250.1297760,-8.0756006,4.3406653,1.6974803,-235.2290039,-175.3816833,-86.5725174
2660,-4.1443419,-19.6131992,7.9654684,198.3969421,250.1297760,250.1297760,-6.2248926,3.9647777,5.3749552,-250.1374054,-156.3664093,-62.1679382
2670,8.9135675,-19.6131992,2.2433555,182.2366486,250.1297760,250.1297760,-7.4842362,0.2154770,3.9911139,-250.1374054,-105.0992355,-43.3587799
2680,19.6126022,-19.6131992,-3.6176202,127.9923630,250.1297760,250.1297760,-4.2855992,4.2975702,9.1122847,-250.1374054,-55.7404594,-36.0000000
2690,19.6126022,-19.6131992,-1.8315549,34.7786255,250.1297760,250.1297760,-5.3103123,4.8338685,13.3787308,-250.1374054,-44.5954208,-20.1221371
2700,19.6126022,-17.5039196,13.0842457,-56.4045792,250.1297760,250.1297760,-6.8090749,1.8674678,10.5583754,-250.1374054,-44.0610695,-8.6870232
2710,19.6126022,-7.9104018,19.6126022,-68.0152664,250.1297760,250.1297760,-5.2432747,0.7613522,11.4274664,-245.4274750,-64.5725174,3.8854961
2720,19.6126022,-8.2671366,19.6126022,12.7099237,250.1297760,247.4656525,-3.7636659,0.5291159,11.4945040,-236.7099304,-41.7022896,11.6183205
2730,19.6126022,-6.4355812,19.6126022,115.9160309,-98.9770966,-85.3816757,-3.7133877,0.7398046,12.4162664,-231.2366486,-1.7480916,14.6564884
2740,18.2102051,-5.4372044,11.2670555,179.3435059,-250.1374054,-250.1374054,-4.1826491,0.5937590,13.0387554,-219.4274750,21.5572510,17.7786255
2750,8.3629036,-2.7796540,5.6143742,171.7709961,-250.1374054,-250.1374054,-4.9679432,0.1939293,13.5870247,-202.8320618,29.5114498,22.2595425
2760,6.8785062,-0.4908088,2.6671271,118.8473282,-250.1374054,-245.8091583,-5.7125359,-0.5434810,14.1831779,-184.6335907,26.0000000,32.1679382
2770,6.4355812,1.9728121,0.8547257,60.9618340,-250.1374054,-126.5267181,-5.6311336,-0.8236012,14.5638542,-165.3358765,6.4885497,43.9847336
2780,5.6215568,2.8083842,0.4620786,25.8396950,-66.2137375,-11.1603050,-5.1044121,-0.7996593,14.9780493,-142.8549652,-25.9312973,48.6870232
2790,5.7699966,3.0334380,1.8818330,17.2824421,69.4351120,75.5801544,-4.7021880,-0.6416427,14.8176384,-117.3893127,-59.8625946,47.3053436
2800,8.0325060,2.9975252,3.1268115,24.7099228,126.4503784,119.6106873,-4.1730723,-0.2585725,13.8815107,-93.6106873,-89.9465637,44.1984749
2810,9.7323799,2.9975252,2.9472473,35.0076332,155.7328186,127.2366409,-3.3542595,0.1580165,12.3803539,-77.1374054,-110.3587799,42.6793900
2820,9.7946291,2.8897867,2.7940190,41.7251892,160.5190887,117.7175598,-2.4181314,0.5243275,11.5783005,-70.3435135,-100.3129807,44.4198456
2830,9.4235296,2.4492557,2.9687948,45.2824440,143.3358765,105.2671738,-2.2696917,0.6153067,11.7674408,-65.6412201,-68.8625946,51.4580154
2840,9.0596132,1.9967541,2.8538737,47.6564903,118.3664093,93.5267181,-2.9113343,0.3303981,12.2582502,-52.6641235,-39.8854980,60.2061081
2850,8.9853926,1.6376256,2.3343346,47.9847336,97.3282471,84.5267181,-4.0868812,0.1795642,12.8137016,-32.7862587,-20.8854961,65.3053436
2860,9.0213060,1.5250987,1.6112895,44.0152664,85.2977066,79.9160309,-5.4826937,0.5027798,12.6868095,-10.3740454,-18.6946564,72.3664093
2870,9.2870607,1.4053892,1.3048333,35.5496178,72.7938919,75.2748108,-6.5768385,0.2489957,11.6381550,6.7404580,-21.9160309,84.8167953
2880,9.9191265,1.1827296,1.4987626,26.7480907,59.2595406,68.4656525,-6.7444315,0.1675933,10.7259684,16.6259537,-23.2900772,102.2900772
2890,10.7116032,1.0462608,1.9680238,17.7709923,45.2137413,56.3129768,-6.2703824,0.2154770,10.0292597,22.5496178,-23.9007626,118.8778610
2900,11.1569233,1.0773853,2.5162930,7.1984735,32.8625946,42.6946564,-5.6838059,0.2968795,10.5104914,28.0534344,-17.4427490,133.5801544
2910,11.3340931,0.9816177,3.0597742,-5.6717558,21.7709923,31.2137413,-4.9463954,0.0670373,11.3939476,36.6793900,0.8931298,146.1374054
2920,11.0779142,0.8954269,3.6798692,-19.0076332,9.0000000,21.2213745,-4.0868812,-0.1149211,12.1505117,48.7480927,19.9541988,155.5954132
2930,10.8217363,0.6416427,4.2712340,-26.8549614,-0.2366412,13.8320608,-3.7109938,-0.3327923,12.8160963,62.8778610,38.7633591,159.3816833
2940,10.3548698,0.5674229,4.6136031,-27.5343513,2.5343511,13.1603050,-3.3015873,-0.5937590,13.6660337,81.4961853,54.2824440,161.8244324
2950,9.8377247,0.5769997,4.6112089,-26.7022896,14.7251911,20.4274807,-2.3151813,-1.3383518,14.3986549,105.1908417,74.5725174,160.4732819
2960,9.9550400,0.5602403,4.6159973,-27.8320618,29.5725193,30.3893127,-1.6256547,-1.4652439,15.4927998,134.3664093,99.3435135,153.0534363
2970,10.5464048,0.6655847,4.5992379,-30.4198475,47.1221390,38.5877876,-1.2689204,-1.3814473,16.8359394,169.2213745,117.7480927,142.6870270
2980,11.0443964,0.5482694,4.5776901,-35.5725174,68.4885483,45.1297722,-1.5849534,-1.2354017,17.6379929,211.2137451,125.8778610,133.2061005
2990,11.4873209,0.3088504,4.6303625,-42.6946564,93.1908417,51.7633591,-2.3367288,-1.1923064,17.7792511,250.1297760,127.8931274,125.1755753
3000,12.1074162,-0.0933734,4.9703374,-49.3893127,116.3358765,57.7633591,-2.4229198,-1.9799947,16.4193516,250.1297760,106.9618301,114.6564865
3010,13.4098549,-0.4525018,5.1858144,-53.4580154,127.6335907,55.0152664,-2.0757623,-2.0685797,14.5710373,250.1297760,63.9465637,95.9007645
3020,15.3683023,-0.7685348,5.5808558,-57.4961815,110.0381699,33.2977104,-0.7445929,-1.6304430,11.5998478,250.1297760,0.5954198,64.0610657
3030,17.8031921,-0.7086801,6.3398137,-63.1984749,59.8778610,-10.0687027,-0.1005560,-0.1316804,9.2439651,250.1297760,-57.2290077,19.3358784
3040,19.6126022,-0.6991033,7.2400289,-69.0000000,-13.6030531,-76.2137375,-0.6919208,1.3814473,7.6829538,250.1297760,-95.9923630,-21.3435116
3050,19.6126022,-1.1300575,8.3461447,-69.9694672,-85.0457993,-148.6564941,-2.4899571,2.4875629,7.7212610,250.1297760,-127.6259537,-50.6335869
3060,19.4863071,-1.2928623,8.7555504,-63.4732819,-136.4351196,-208.6793823,-3.6942344,2.2026544,7.8409705,246.4274750,-158.2290039,-68.2366409
3070,17.5805340,-1.7214222,8.2695303,-55.4198456,-158.1068726,-250.1374054,-4.6662750,1.9680238,7.6111283,242.9007568,-180.4503784,-82.2900772
3080,15.7633438,-2.3582766,7.6446471,-47.6412201,-162.7709961,-250.1374054,-5.3222833,2.4037662,6.8521700,242.1526642,-186.9618378,-91.3129807
3090,14.8320036,-2.3822186,7.0101867,-42.8625946,-158.7862549,-250.1374054,-5.5904322,3.3829896,5.4395986,240.6870270,-171.7251892,-93.0000000
3100,15.9644556,-2.1619530,6.7803445,-43.2290077,-166.2977142,-250.1374054,-5.7340837,4.9009056,3.3829896,233.7709961,-135.1526642,-87.4351120
3110,14.4058380,-1.5490406,8.1426382,-43.0916023,-191.4122162,-250.1374054,-5.5832496,6.1195483,1.4676381,218.9465637,-67.5343475,-76.0381699
3120,13.3069048,-1.3048333,7.8289995,-19.2442741,-202.4809113,-250.1374054,-5.2839761,6.7180958,-0.4836263,200.3206177,-1.9770992,-58.5190849
3130,15.4113979,-0.8164186,6.2368636,-18.6488552,-186.5190887,-250.1374054,-4.9751258,7.4411407,-1.9057748,175.1984711,46.6335869,-41.3435097
3140,14.9541073,-1.0199248,6.5481081,-16.8015270,-201.9160309,-250.1374054,-4.4627690,7.9056134,-2.8658447,144.6183167,77.1679382,-28.6030540
3150,8.7962523,-1.6304430,6.0596933,-15.0992365,-213.2519073,-250.1374054,-3.9791429,8.3102312,-3.2177906,111.0229034,92.8244247,-23.2748089
3160,11.4753504,-0.6991033,4.2089849,-22.7404575,-204.0992432,-250.1374054,-4.0246325,8.6765423,-3.1914546,77.9083939,90.9542007,-20.9847336
3170,9.8113880,-0.7158626,4.1275826,-24.4656487,-196.9694672,-250.1374054,-4.3981261,8.7483683,-3.0478032,44.8396950,73.4732819,-17.9923668
3180,6.6510582,-0.7709290,3.9025288,-13.7938929,-165.7099304,-250.1374054,-4.3861551,8.5903521,-2.5162930,13.9389315,54.7938919,-16.5954189
3190,5.2384863,-0.0526722,2.5306582,-24.7022896,-154.7709961,-250.1374054,-4.4460096,8.4107876,-1.8578910,-15.9618320,38.4427490,-17.6259537
3200,4.2736282,0.7350162,3.1411765,-37.4809151,-171.7175598,-250.1374054,-4.7716198,8.3269911,-0.8475431,-42.8091621,22.8091602,-17.7251911
3210,3.9121056,0.9457048,3.2321558,-46.0152664,-178.9007568,-250.1374054,-5.1594782,8.0636301,0.4477134,-61.9465637,9.9618320,-15.1603050
3220,2.8826041,1.3287752,4.0533628,-48.8549614,-185.4503784,-250.1374054,-5.5904322,7.7260494,1.5107336,-74.1068726,-2.5038168,-8.9541988
3230,1.8746504,1.6065011,4.0820932,-47.7175560,-184.6030579,-250.1374054,-5.6742291,7.6302819,2.5689652,-82.5190811,-10.5267172,-1.4732825
3240,0.4381367,1.8866212,4.2377152,-44.9160309,-173.0229034,-250.1374054,-5.7125359,7.4363523,3.6607156,-87.0000000,-15.3816795,6.5114503
3250,-1.0247130,2.3654592,4.2257442,-41.8396950,-159.8396912,-250.1374054,-5.5425487,7.2567883,4.3047528,-88.9083939,-19.1374054,14.2442751
3260,-1.8028246,2.8658447,4.2496862,-36.4351158,-145.3664093,-250.1374054,-5.2887645,7.0676475,4.7357068,-90.0457993,-25.0992374,20.4122143
3270,-2.4013720,2.8275378,4.0366035,-27.9160309,-120.9923630,-250.1374054,-4.9080882,6.9048424,4.9320302,-91.7633591,-36.6183205,23.2061062
3280,-3.4236910,2.8059900,3.8043671,-21.3206100,-87.8167953,-228.4580078,-4.4124913,6.7540083,5.1451130,-93.7938919,-52.5648842,23.4885502
3290,-4.3263001,2.6240315,3.7780309,-18.3664131,-53.7022896,-193.3587799,-3.9049230,6.7516141,5.3773494,-96.3435135,-68.1068726,22.6564884
3300,-4.3765783,2.7820482,4.4675574,-18.6106873,-40.5267181,-164.6030579,-3.5338237,6.6917596,5.5329719,-99.6717529,-81.2977066,20.2595425
3310,-4.6638808,2.6192431,5.2336984,-16.3511448,-34.5267181,-141.2290039,-3.1459649,6.8114691,5.6287394,-103.1374054,-88.9465637,17.7328243
3320,-5.3581958,2.5162930,5.9711084,-9.8702288,-29.7022896,-117.1984711,-2.7078283,6.7348547,5.7245069,-107.2137375,-91.8854980,15.3206110
3330,-5.6024032,2.3989778,6.6271162,1.2671756,-28.1908398,-91.1526718,-2.1835008,6.3924856,5.5832496,-111.9236679,-89.6183243,12.3435116
3340,-5.3845320,2.3127871,7.1322904,14.3893127,-27.0229015,-66.4961853,-1.5418580,5.9304070,5.5329719,-118.7099228,-83.5954208,8.3816795
3350,-4.9727316,2.3846128,7.1969333,25.2519093,-20.2824421,-41.6717567,-1.1156923,5.5018473,5.8825235,-127.0763321,-70.3969498,4.7480917
3360,-4.4723458,2.4301023,7.6470413,38.7404594,-1.8320611,-18.3740463,-1.0558375,5.1307478,6.5648675,-134.9389343,-46.6717567,3.0534351
3370,-4.7788019,1.9009864,7.8792777,55.8396950,36.0381660,11.3206110,-1.2210367,4.9152708,7.7595682,-139.3053436,-18.5725193,1.2213740
3380,-5.8944945,1.2258250,8.1402445,79.0839691,88.4274826,50.7862587,-1.7022687,5.0206151,8.5879574,-136.5114441,1.9694656,0.7328244
3390,-7.6135225,0.9792235,8.8776541,111.4122162,166.4961853,106.0763321,-2.0278785,4.6399393,9.1170731,-128.8931274,9.4198475,0.5190840
3400,-12.1241751,-0.0550664,11.3269100,157.0229034,250.1297760,182.5343475,-1.9847831,4.4938936,8.8824425,-123.1374054,5.3511453,0.4351145
3410,-17.9276905,-2.1906834,14.8942528,226.7251892,250.1297760,250.1297760,-1.9297167,4.4555864,8.3652983,-122.0152664,-6.2519083,-1.6488550
3420,-19.6131992,-3.8570392,15.8782644,250.1297760,250.1297760,250.1297760,-1.5418580,4.4843168,7.4650826,-125.5496216,-24.2519093,-5.7251906
3430,-19.6131992,-9.5695753,10.6349897,250.1297760,250.1297760,250.1297760,-1.3000449,4.3310885,6.5481081,-134.1068726,-42.9389305,-12.6412210
3440,-8.3652983,-19.6131992,0.3088504,250.1297760,250.1297760,250.1297760,-1.1085097,4.2496862,6.1171541,-149.4885559,-56.5114517,-15.4503813
3450,14.4513273,-19.6131992,-10.9390516,250.1297760,250.1297760,250.1297760,-0.9361281,4.0725164,6.1817970,-171.1450348,-57.1297722,-13.7709923
3460,19.6126022,-19.6131992,-17.2860470,250.1297760,250.1297760,250.1297760,-0.9935886,3.7947903,7.2448173,-190.1755676,-40.8702278,-11.2977095
3470,19.6126022,-13.9892492,-19.0385952,203.4503784,250.1297760,250.1297760,-1.2425843,3.1004753,8.2000990,-199.5725250,-24.9465656,-10.8702288
3480,19.6126022,-3.1292057,-12.4473906,51.3969460,250.1297760,250.1297760,-1.3168042,2.0853391,9.1434097,-200.7404633,-13.2671757,-12.0076332
3490,19.6126022,1.6304430,-1.7645177,-146.4427490,250.1297760,250.1297760,-1.3862357,1.1731528,10.2231894,-196.2061005,-1.9389313,-14.4122133
3500,19.6126022,0.0670373,11.4633789,-105.5648880,88.1984711,11.9923668,-1.5203103,0.7086801,11.1593170,-183.9923706,12.5419846,-15.8015270
3510,19.6126022,-3.6104376,10.9390516,-25.6488552,-183.6030579,-224.7175598,-1.8147956,0.4620786,12.0068598,-167.0076294,24.2366409,-16.2977104
3520,11.8512383,-3.7109938,6.1099715,6.3893127,-250.1374054,-250.1374054,-4.5178356,0.5195391,14.2286682,-152.0381622,-14.0839691,-16.6030540
3530,3.3422885,-1.6472024,4.3334827,16.1297703,-250.1374054,-198.8702240,-3.6271970,1.1444225,14.6452570,-154.6870270,-66.8625946,-17.0076332
3540,2.7796540,-1.0055596,2.7964132,28.2519093,-246.8015289,-83.8015289,-3.6726866,0.7805058,16.2541523,-156.0000000,-74.2671738,-16.0305347
3550,5.3988972,1.3359578,1.0007712,38.5343513,-106.8549652,28.5267181,-4.8434453,0.1795642,18.1742916,-142.4656525,-112.6259537,-18.9618320
3560,9.5432396,2.8562679,0.1197095,40.5190849,33.7404594,102.2290039,-4.2329268,0.0742199,18.3179436,-120.8702316,-137.7557220,-16.0381680
3570,13.0770626,3.0023136,0.7805058,38.8091621,120.7709961,119.4274826,-2.6886747,-0.6248835,16.5486374,-86.0152664,-115.7786255,-10.7022905
3580,13.2446556,2.4971397,1.7357874,46.5343513,145.1374054,101.0381699,-1.1468167,-0.5722113,14.4537220,-39.3053436,-82.0457993,-9.1221371
3590,10.8145542,1.6567791,1.9033806,61.1374054,110.5038147,77.3816757,-0.8164186,-0.1101327,12.7777891,0.9007633,-32.9312973,-4.9312978
3600,8.2886839,1.5490406,0.1556223,78.2671738,-44.4503822,30.8015270,-2.0997043,1.2569494,10.8815908,38.5114517,36.5190849,10.4656487
3610,8.6071110,1.7525467,-0.6799498,76.5954208,-104.9847336,12.5114508,-2.5617826,1.5586174,10.6325951,37.8015251,36.3587799,17.9160309
3620,9.2726955,1.8650736,-1.1923064,71.8320618,-139.1068726,0.1374046,-2.2529323,1.5179161,10.3883877,31.6641216,28.8396950,21.5801525
3630,9.7275915,1.9608412,-1.9368993,66.6793900,-154.9923706,-5.6946564,-1.6591733,1.4532729,10.4578199,27.1679382,31.3206100,21.6793900
3640,10.5344334,2.3175755,-3.1531475,55.3435097,-151.4122162,-5.3893127,-1.3479286,1.3120158,10.4602137,26.5190830,35.9312973,19.3969460
3650,11.3149395,2.4348907,-4.3454537,39.5114517,-125.9312973,0.2595420,-1.2449785,1.0534433,10.6182299,29.3969460,35.3511467,14.5038166
3660,11.3436699,2.3391230,-4.6255741,24.7175579,-91.0152664,7.6793895,-1.3718705,0.8906385,11.0635490,35.6717567,32.3816795,8.2213745
3670,10.5775290,2.1260402,-4.6183915,13.0076332,-54.3511467,17.9389305,-1.5873476,0.9480990,11.3149395,44.0610695,32.4732819,1.1374046
3680,10.4051476,2.1308286,-4.3263001,5.1679387,-25.8396950,26.2213745,-1.8842272,1.1252691,11.1856527,52.8396950,37.0534363,-3.8931298
3690,10.2806492,1.7932479,-3.7612717,1.7480916,-14.3129768,27.9389305,-2.1284344,1.3455344,10.7211800,59.1297722,47.1068687,-8.1908398
3700,10.0699606,1.4029950,-3.5003049,4.8854961,-20.0458012,24.8625946,-2.7150109,1.5849534,10.3189564,61.7022896,57.7175560,-10.9541988
3710,10.2064295,1.7070571,-3.9192882,11.1908398,-31.9770985,22.0229015,-3.2297616,1.9967541,10.0771437,61.6564903,63.2824440,-12.0763359
3720,11.0563669,1.7836711,-4.9655490,16.7022896,-41.9312973,18.6259537,-3.6798692,2.2505381,10.1346035,61.7251892,68.1221390,-12.0229006
3730,12.3899307,2.3127871,-6.6845770,14.7938929,-39.6030540,13.1526718,-4.0366035,2.3271523,10.1298151,63.7328262,70.6641235,-8.6259546
3740,13.1081877,2.7652888,-8.0899658,5.2748094,-28.4122143,5.9541984,-4.1850433,2.3103929,10.1106625,66.6259537,69.5648880,-4.6412215
3750,13.7330704,2.9687948,-9.3900108,-11.7557249,-15.6946564,-1.4351145,-4.0749106,2.3798244,10.0220766,69.3206100,66.9694672,-3.1450381
3760,14.5997677,3.1292057,-10.7499104,-36.4122124,0.7175573,-9.0534353,-4.0413918,2.5330524,10.0436249,71.1297684,67.4198456,-1.5343511
3770,15.1887379,2.9903426,-11.3819771,-65.9465637,23.6412220,-16.7633591,-4.2185616,2.7078283,10.0843258,71.7099228,71.1832047,0.1221374
3780,15.5718079,2.6767037,-11.3771887,-96.4122162,50.3282433,-26.5419846,-4.2161674,2.6455793,10.2136126,71.3664093,72.4580154,2.3893130
3790,16.0458584,2.3894010,-10.8193426,-127.5038147,67.0534363,-38.4198456,-4.1563129,2.7916248,11.1066446,73.7022934,77.0229034,2.7633588
3800,16.9532547,2.4157372,-10.2255831,-156.2366486,87.1679382,-54.8091621,-2.8969693,2.0278785,11.8440552,84.2977066,93.4809189,0.8931298
3810,17.4799767,2.1212518,-9.9837704,-182.9770966,110.4885483,-74.8091583,-1.9273225,1.3311694,12.4617558,98.5572510,104.6259537,-5.3511453
3820,18.1479568,1.6759326,-9.6749191,-213.4656525,127.1450348,-99.7786255,-1.8722562,2.1763182,13.7187052,116.3435135,122.0152664,-13.7480917
3830,18.2532997,1.0103480,-8.6262646,-246.4885559,138.6641235,-133.2595367,-2.7006457,2.9185169,14.6045561,137.5267181,153.0534363,-17.8473282
3840,17.6379929,-0.3758878,-6.9838505,-250.1374054,143.5114441,-171.6717529,-3.2321558,2.8107784,14.1305065,157.7251892,185.8091583,-16.7328243
3850,16.1248665,-1.3287752,-4.9056940,-250.1374054,131.4351196,-206.9084015,-3.7564833,2.0757623,13.4194317,176.2442780,205.5648804,-10.4580154
3860,13.6205435,-2.1858950,-3.0956869,-250.1374054,111.1068726,-233.6412201,-4.6016321,1.7381816,12.7969427,193.1755676,197.1450348,-0.1755725
3870,11.7267399,-2.8945751,-0.7374104,-250.1374054,70.1221390,-250.1374054,-5.1786318,1.6376256,12.2534618,211.1450348,172.0686951,10.0381680
3880,11.4968977,-3.3375001,1.4532729,-250.1374054,12.4656487,-250.1374054,-6.4140334,1.9608412,11.3556404,229.3435059,141.4503784,19.2824421
3890,12.1169930,-2.9975252,2.9137285,-250.1374054,-31.9236641,-250.1374054,-6.9144192,2.2529323,9.6916790,242.1145020,108.8167953,30.1908398
3900,11.9517937,-2.2672975,3.5793133,-248.5801544,-44.7328262,-250.1374054,-6.6726060,3.0262554,8.2503767,248.3435059,63.5496178,35.6564903
3910,11.1832590,-2.0446377,4.1754665,-225.2213745,-36.9083977,-250.1374054,-6.3876977,2.8490853,6.8689294,250.1297760,13.4503813,36.6564903
3920,9.9670105,-2.2265961,5.2313042,-201.4580078,-40.8244286,-250.1374054,-6.3062949,3.4117200,6.5026188,250.1297760,-52.3358765,30.3129768
3930,8.3748751,-1.8531027,6.1961622,-181.7175598,-62.2977104,-250.1374054,-5.7819676,3.0501974,5.7340837,250.1297760,-149.7480927,13.3358774
3940,6.8066807,-1.7597293,6.5265603,-167.9923706,-86.6106873,-250.1374054,-5.4012914,3.0573800,5.0852585,250.1297760,-250.1374054,-11.0534353
3950,5.6024032,-1.3622938,6.9718795,-156.9236603,-107.3206100,-250.1374054,-5.1522956,3.6607156,3.8594334,250.1297760,-250.1374054,-33.8778610
3960,4.4603748,-1.1204807,7.6470413,-144.2442780,-119.2213745,-250.1374054,-5.3031297,4.4914994,2.8012016,229.5877838,-250.1374054,-41.6564903
3970,3.4380560,-0.9888002,7.8457589,-131.0610657,-118.8396912,-250.1374054,-4.1204000,6.5169835,0.4668669,178.0610657,-250.1374054,-39.4961815
3980,2.1356170,-0.3854645,7.9247670,-116.8625946,-100.9847336,-250.1374054,-4.3622131,7.2208753,0.2466015,132.0915985,-216.2366486,-34.9236641
3990,0.8451489,-0.0454896,8.3964224,-102.9923630,-73.5419846,-250.1374054,-4.6854286,7.1873569,0.5075682,112.3740463,-207.6106873,-39.9236641
4000,0.0646431,0.2705434,8.3964224,-87.1374054,-37.6717567,-240.9541931,-4.6590929,6.7204900,-0.0359128,86.9160309,-205.1679382,-48.6183205
4010,-0.5961532,0.2442073,8.3916340,-71.5725174,7.4427481,-220.4732819,-4.6303625,6.5792327,-0.4333483,60.2900772,-194.7480927,-48.5038185
4020,-1.6112895,-0.0861908,8.4586716,-57.8015251,38.7480927,-201.9618378,-4.4603748,6.9790621,-0.4692611,35.0839691,-182.7557220,-44.1832047
4030,-2.7772598,-0.1771700,8.4467001,-44.9007645,58.3969460,-183.2519073,-4.3909435,6.9694853,-0.2322364,14.6030531,-170.5343475,-37.6870232
4040,-3.8498566,-0.1460456,8.2120695,-32.1984749,83.7709961,-160.6183167,-4.1084290,6.8306227,-0.1556223,-6.4580154,-157.7480927,-32.2137413
4050,-5.0589223,0.1771700,8.0085640,-18.7328243,126.5877838,-130.0839691,-3.9695661,6.5864153,-0.0814024,-29.3740463,-152.3587799,-29.2748089
4060,-7.5704269,0.8475431,6.9072366,-8.3282442,209.1908417,-83.5343475,-3.7493007,6.5792327,0.1604107,-54.4122124,-154.6641235,-31.3664131
4070,-11.5399933,0.7589580,5.1379304,-9.4045801,250.1297760,-17.2137413,-3.8666160,6.4427638,0.4022238,-79.2748108,-159.2977142,-35.0458031
4080,-14.7841196,0.3303981,3.9528067,-24.9236641,250.1297760,59.8778610,-4.3502421,6.5313487,0.6440369,-104.2366409,-164.0305328,-35.6946564
4090,-17.0178986,0.5051740,4.5417776,-38.4961815,250.1297760,127.0229034,-4.9248476,6.5888095,1.0845678,-130.3129730,-167.3740387,-30.8244267
4100,-19.3594151,0.9864060,6.1195483,-32.7099228,250.1297760,195.3282471,-5.2720051,6.5792327,1.8124014,-155.8320618,-168.9236603,-22.2442741
4110,-19.6131992,1.0510491,6.7611909,-11.6641226,172.7175598,250.1297760,-5.4108682,6.3254485,2.9400647,-177.5801544,-168.2061005,-9.3053436
4120,-19.6131992,-0.2537841,6.7516141,12.0610685,61.1679382,250.1297760,-5.3581958,6.1698260,4.2257442,-192.3129730,-164.8702240,4.2824426
4130,-19.6131992,-4.6040263,5.5401545,33.0763359,-4.9007635,250.1297760,-5.1666608,5.7915444,5.2791877,-200.4122162,-156.0152740,18.7328243
4140,-19.6131992,-12.1983957,5.3917146,50.2442741,4.2595420,250.1297760,-4.6088147,5.4276276,6.2248926,-205.3969421,-139.2671814,32.8244286
4150,-13.4505568,-19.6131992,5.2600341,48.2366409,97.7633591,250.1297760,-4.1706781,5.1307478,7.1466556,-208.7022858,-117.6564865,46.0687027
4160,-4.6351509,-19.6131992,4.5058646,26.2366409,223.2900696,250.1297760,-3.7421181,4.6878228,8.2431946,-207.0229034,-92.4961853,58.1221390
4170,10.2399483,-19.6131992,3.7229645,-31.6488552,250.1297760,250.1297760,-3.0454090,4.0461802,9.2104464,-199.5496216,-64.8396912,66.5877838
4180,19.6126022,-19.6131992,7.7284436,-105.1221390,250.1297760,250.1297760,-2.4636209,3.6080434,9.7156210,-188.7480927,-38.8320618,73.3587799
4190,19.6126022,-19.6131992,19.6126022,-149.5496216,250.1297760,250.1297760,-2.2840567,3.2991931,9.9310980,-178.1450348,-17.2213745,80.3435135
4200,19.6126022,-10.0915089,19.6126022,-121.5267181,250.1297760,250.1297760,-2.0206959,2.9879484,10.0436249,-170.1603088,2.1145039,87.0534363
4210,19.6126022,-7.6470413,19.6126022,30.8549614,250.1297760,250.1297760,-1.4365137,2.7078283,10.1250277,-164.9084015,22.7099228,91.8167953
4220,19.6126022,-8.2599535,19.6126022,211.0152740,250.1297760,-24.6412220,-1.1013272,2.4157372,10.7810354,-159.6030579,40.9694672,92.8091583
4230,16.8838234,-6.4451580,13.5870247,250.1297760,-145.2519073,-194.8244324,-0.7398046,1.9345051,11.2359314,-151.2748108,53.2748108,91.9694672
4240,3.7780309,-4.6926112,6.4882536,250.1297760,-250.1374054,-250.1374054,-0.7541697,1.6759326,11.5495701,-141.8549652,61.2290077,90.5419846
4250,-0.3567342,-2.8730273,4.0413918,223.0686951,-250.1374054,-222.9084015,-0.6105183,1.4891858,11.5543585,-133.5419922,67.2824402,88.1832047
4260,0.7852941,-0.3687052,3.2584918,174.5419922,-250.1374054,-127.6412201,-0.7469871,1.4460905,11.6190014,-127.6717529,67.7862625,85.5114517
4270,3.3997490,1.3479286,3.5098817,129.1221313,-196.4961853,-24.8473282,-0.5578461,1.3670821,11.6429434,-125.6030502,60.9771004,81.2137375
4280,5.8011212,2.1427996,3.6726866,89.9542007,-25.3206100,55.2061081,-0.4596844,1.1061156,12.2510672,-126.4198456,45.9847336,74.5572510
4290,8.3245964,2.0757623,3.8163381,66.2442780,91.9083939,101.1221390,0.0981618,0.6296718,12.7490587,-130.9389343,5.1450381,62.8549614
4300,9.7251978,2.1882892,4.2616572,58.2748108,149.8778687,119.1450348,1.0582317,0.1484398,13.2781744,-128.1221313,-7.2671757,46.6641235
4310,10.8241301,2.5474176,3.7636659,52.6488533,150.0229034,120.8320618,0.6296718,-0.0430954,15.8447456,-121.8702316,-72.7022934,32.5496178
4320,11.9709473,2.8897867,3.0597742,47.1908379,135.8320618,106.3587799,2.1475880,-0.4189832,16.2206345,-111.7786255,-97.3435135,18.1145039
4330,12.0427732,3.1627243,2.7174051,40.1908379,118.9007645,80.2748108,2.5881188,-0.9169745,15.6987000,-85.0610657,-90.3816757,-1.5267175
4340,11.2072010,3.3063757,2.3486998,29.9312973,92.8702316,51.4198456,2.4444675,-1.0223188,14.9876261,-52.1832047,-64.6183243,-17.1755733
4350,10.2543135,2.8897867,1.9799947,18.5114498,63.2748108,22.4656487,1.4724265,-0.4836263,14.3842907,-18.8778629,-32.3053436,-26.1984730
4360,8.4467001,2.4851687,2.9256995,-3.9389312,-6.4427481,-18.5343513,-0.8068419,0.5339043,12.7777891,26.6106873,16.3053436,-15.9007635
4370,7.8385763,2.3822186,3.7277529,-13.2824430,-49.9618340,-28.6030540,-1.2737088,1.0031654,11.8967276,36.2213745,31.4809170,-7.3816795
4380,7.8673067,2.0733681,4.4675574,-20.2366409,-87.3053436,-37.0763359,-1.4269369,1.3335636,10.8217363,40.2290077,42.3435097,-1.6335878
4390,7.7691450,1.8890154,5.2767935,-25.3740463,-120.7328262,-40.0076332,-1.6160779,1.5394639,10.1657286,39.5877876,45.1603050,2.1832061
4400,7.9319496,1.7956421,6.3086891,-23.0610695,-134.5801544,-40.3206100,-1.7357874,1.5705882,9.7371683,35.5877876,43.0916023,5.4122138
4410,7.9511032,1.5777708,6.9239960,-17.4885502,-137.5648804,-36.8244286,-1.6831152,1.7453641,9.4450769,29.6488552,38.0610695,7.6946564
4420,8.0061693,1.2928623,7.2232695,-10.9770994,-133.2824402,-31.0916023,-1.4891858,1.7836711,9.3876171,22.9083977,31.9618320,8.3969469
4430,8.2767134,1.0462608,7.2759418,-5.1374044,-125.9007645,-22.9160309,-1.4029950,1.7740943,9.4043760,15.7709923,27.1145039,7.4580154
4440,8.8872309,1.0917504,7.2472115,-3.1068702,-120.1221390,-13.7938929,-1.3790531,1.7549409,9.5767574,9.0152674,22.5954189,5.9312978
4450,10.1322098,1.0127422,7.2136927,-3.5190840,-109.0839691,-4.9770994,-1.2784972,1.7118455,9.8832140,4.1526718,17.8091602,3.3358779
4460,14.5039997,1.3742647,9.4259243,-7.3893127,-110.3969498,0.2824427,-1.3910241,1.5993185,10.4769726,-1.4885496,4.8244276,-2.1908398
4470,16.8383350,1.1851238,10.6014709,-0.3053435,-132.9541931,-25.2748089,-1.5083394,1.5945302,10.6254129,-0.2595420,3.8396947,-2.3129771
4480,18.7991753,1.0342898,12.1529055,12.6412210,-171.3206177,-69.0992355,-1.7860653,1.6543850,10.5248566,1.9160305,2.2519083,-2.7404580
4490,19.6126022,0.7685348,13.3356352,34.0305328,-217.5114441,-121.5038147,-1.7932479,1.7836711,10.3620520,3.1068702,0.8549618,-2.1297710
4500,19.4934902,0.3016679,13.5247765,62.2900772,-250.1374054,-170.5267181,-1.7836711,1.8459201,10.3524752,3.1297710,-0.2977099,-1.2519084
4510,18.2389355,-0.2585725,12.5263996,92.9694672,-250.1374054,-208.0000000,-1.6831152,1.7645177,10.2088242,2.2290077,0.0076336,-0.0687023
4520,16.4648399,-0.2705434,10.8935623,118.6183243,-250.1374054,-234.7404633,-1.4963684,1.7812769,10.0723553,0.7709923,-1.2519084,-0.8625954
4530,14.7075062,-0.3591284,9.1601686,135.9847260,-250.1374054,-250.1374054,-1.5011568,1.7908537,10.0699606,-0.7938932,-3.7786260,-2.3816793
4540,13.6061783,-0.4165890,8.0612354,148.4961853,-250.1374054,-250.1374054,-1.3407460,1.6591733,10.1824875,-2.4274809,-6.3511453,-4.3358779
4550,12.2271252,-0.3687052,6.6726060,160.9770966,-236.2595367,-250.1374054,-1.3982066,1.6376256,10.3812056,-3.2290077,-7.7938933,-5.9541984
4560,10.1130562,-0.2801202,5.3893204,171.9160309,-227.1145020,-250.1374054,-1.3694763,1.5322813,10.5487986,-2.7480917,-7.6106873,-7.4732823
4570,8.3222027,-0.3160330,3.5912843,176.8625946,-228.6793823,-250.1374054,-1.4700323,1.4987626,10.3548698,-1.5496184,-4.8015265,-8.0076332
4580,7.5440907,0.3663110,1.8052188,175.9160309,-235.6641235,-250.1374054,-1.7597293,1.6232605,10.2327662,-2.0305343,-2.9847329,-7.3511453
4590,7.0676475,0.9720409,-0.9313397,167.5572510,-246.1221313,-250.1374054,-1.8938038,1.6328372,10.1106625,-4.0916033,-4.0916033,-6.3358779
4600,6.0668759,1.7309990,-3.2776453,148.3587799,-250.1374054,-250.1374054,-1.8578910,1.5083394,10.1729107,-6.3587785,-6.3129773,-5.5267177
4610,4.3861551,1.9632354,-4.9823084,116.8473282,-250.1374054,-250.1374054,-1.9129574,1.4317253,10.2088242,-8.4503813,-9.4732828,-4.8931298
4620,3.3279233,2.2936335,-5.2480631,78.9618301,-250.1374054,-250.1374054,-1.7908537,1.3766589,10.1992474,-9.4045801,-10.3053436,-4.3664122
4630,2.3941894,2.1427996,-4.1874375,45.4656487,-250.1374054,-250.1374054,-1.8435259,1.4006008,10.4266949,-10.2977095,-11.4580154,-3.3664122
4640,0.9002152,2.1691356,-3.0765336,21.9847336,-250.1374054,-250.1374054,-1.8818330,1.3670821,10.2519188,-11.0534353,-13.1832066,-2.3511450
4650,-0.7254394,2.1044924,-2.7868366,4.2519083,-250.1374054,-250.1374054,-1.8961980,1.3742647,10.2231894,-12.5496187,-15.0076332,-2.0992367
4660,-2.1356170,1.9009864,-2.9711890,-13.2748089,-250.1374054,-250.1374054,-1.7142396,1.3910241,10.2184010,-14.4656487,-15.2824430,-0.4503817
4670,-2.7820482,1.8052188,-2.4205256,-31.8702297,-250.1374054,-250.1374054,-1.5873476,1.4029950,10.2638903,-15.4961834,-14.4809160,-0.2442748
4680,-3.5170643,2.1068866,-1.6088953,-49.4122124,-229.9770966,-247.5190887,-1.5059452,1.3934183,10.3883877,-16.3664131,-14.6030531,-0.5801527
4690,-2.7509236,1.6184721,-1.4077834,-64.3282471,-182.7862549,-227.5648804,-1.5466464,1.3622938,10.3261395,-17.2671757,-16.5496178,-0.5801527
4700,-2.9568241,1.4891858,-0.6631905,-61.8091621,-103.5038147,-219.7022858,-1.4245427,1.4125718,10.3285332,-18.2366409,-17.1145039,-0.5877863
4710,-4.6758518,0.9385223,-0.2466015,-48.5572510,-33.2595406,-209.0992432,-1.2689204,1.4125718,10.3309278,-19.9083977,-20.0610695,-1.6183206
4720,-7.2424231,0.4501076,0.1771700,-35.5954208,4.1297708,-190.2442780,-1.2808913,1.3287752,10.4865494,-20.3511448,-20.3969460,-2.8549619
4730,-10.4985209,0.3423691,0.1747758,-23.4961834,7.5267177,-161.5038147,-1.2689204,1.2737088,10.5703468,-19.3435116,-19.5343513,-2.6183207
4740,-13.3452120,0.2394189,0.0143651,-8.0839691,-19.9847336,-124.5267181,-1.2880739,1.3024391,10.6110477,-17.8549614,-21.4885502,-3.1679389
4750,-14.6691990,0.4189832,0.1101327,11.7099237,-68.9312973,-80.5801544,-1.1300575,1.3168042,10.7403336,-17.0610695,-21.1832066,-3.0000000
4760,-14.5542774,1.1396341,-0.0885850,33.6335869,-106.6641235,-34.2137413,-0.9768293,1.4125718,10.7235746,-15.8396950,-18.5877857,-2.8778627
4770,-13.5846310,1.5466464,-0.5434810,53.0076332,-111.9007645,14.4274807,-1.0845678,1.3694763,10.7618818,-13.8625956,-14.5648851,-3.8854961
4780,-12.9142580,1.8507085,-1.0749911,63.0916023,-73.6183243,66.3893127,-0.9983770,1.2473727,10.8313131,-11.2519083,-12.4503813,-3.5496182
4790,-14.4752693,1.9321109,-1.5298871,60.2137413,-8.0839691,133.4580078,-0.9672526,1.3718705,10.8025827,-9.3435116,-9.2595415,-2.7022901
4800,-16.9963512,1.1396341,-0.6895266,48.5725174,84.8473282,228.1832123,-1.0486550,1.3575054,10.8121595,-6.7786260,-5.8702292,-2.4045801
4810,-19.6131992,-1.8602852,0.2992737,40.3511467,202.6717529,250.1297760,-1.0917504,1.3359578,10.6828737,-4.5419846,-0.9541985,-1.1450381
4820,-19.2037945,-5.5760674,1.0630201,39.6335869,250.1297760,250.1297760,-1.2330076,1.0893562,10.7163916,-2.5038168,3.3053436,0.6641222
4830,-11.1329813,-9.9622221,1.2210367,38.1297722,250.1297760,250.1297760,-1.0390782,1.0773853,10.6565371,-0.8015267,4.6259542,1.3969465
4840,-0.8666966,-12.9621420,-0.2059003,23.9160309,250.1297760,250.1297760,-1.0271072,1.0773853,10.6828737,0.8167939,5.4580154,1.4732825
4850,8.5999289,-15.1887379,-1.6376256,-12.8244276,250.1297760,250.1297760,-1.0797794,0.9744351,10.6637201,1.7862595,5.5648856,-0.2290076
4860,17.2190113,-13.7354650,-3.5649481,-62.8854980,250.1297760,250.1297760,-1.2090657,0.8595140,10.4793673,2.4122138,3.9923663,-0.6641222
4870,19.6126022,-9.4378948,-0.1867468,-116.4809189,250.1297760,250.1297760,-1.6807210,1.1132981,10.4745789,2.5114503,6.3053436,-1.2519084
4880,19.6126022,-4.8147149,8.0636301,-153.6641235,250.1297760,250.1297760,-1.7166338,1.0821736,10.4434547,1.9007634,3.5267177,-0.1145038
4890,19.6126022,4.2448978,17.5182838,-125.7328262,250.1297760,250.1297760,-1.6639616,0.9528874,10.4650021,1.2366412,1.5648855,1.1603054
4900,19.6126022,3.3853838,15.5765963,-40.6641235,249.7328186,155.2137451,-1.6280488,0.9193687,10.4290895,0.7709923,0.8625954,1.9923664
4910,19.6126022,0.0646431,7.5991573,14.8931293,-3.2213740,-131.9389343,-1.4748207,0.9289455,10.5511932,0.5496183,-1.0687023,2.1984732
4920,10.2974091,-1.1396341,3.1244173,6.3511453,-242.8244324,-218.3816833,-1.3886299,0.8978211,10.5104914,0.0916031,-1.4351145,1.9923664
4930,3.1052637,-1.2617378,2.7772598,-34.0687027,-250.1374054,-173.0610657,-1.2713146,0.9073978,10.5464048,-0.1450382,-3.0152671,1.1603054
4940,6.3900914,0.3950413,4.7788019,-54.1755714,-250.1374054,-96.4045792,-1.1539993,0.8906385,10.6397781,0.2366412,-3.0763359,1.5801526
4950,9.0332766,1.9776005,5.9663200,-39.7404594,-193.5496216,-23.2595425,-1.0797794,0.9648584,10.6972389,0.6030535,-1.6870229,0.6259542
4960,7.2711535,3.2321558,4.3167233,11.1526718,75.0763321,73.3206100,-1.3072275,1.1396341,10.7283630,1.8091604,2.4351146,1.7938931
4970,7.0341287,2.8562679,2.9664006,34.1526718,102.3282471,89.0229034,-1.0893562,1.0941446,10.7163916,2.0610688,1.1832061,2.5572519
4980,7.9295554,3.1435707,1.5011568,47.8702278,94.9236679,90.6106873,-0.9169745,1.1779412,10.6158361,2.8931298,2.4122138,0.7251908
4990,13.3260584,2.4372849,-1.1994889,-38.4961815,98.4732819,75.4351120,-2.1284344,1.2952565,10.1561518,-4.4274807,-6.7175574,-1.7328244
5000,13.8072910,2.3510940,-0.7637464,-50.6946564,95.0229034,67.9389343,-2.0350611,1.2042773,10.2088242,-6.5038166,-8.9160309,0.0687023
5010,14.3723192,1.4293311,-0.1987177,-60.8244286,94.1145020,58.3664131,-1.9297167,1.0414724,10.3141680,-7.6641221,-10.9465647,1.0534351
5020,15.1097298,1.3598996,0.9768293,-66.5954208,93.9236679,46.7175560,-2.0159075,1.0247130,10.5559816,-7.5648856,-13.1755724,1.5038168
5030,15.6915178,1.1587877,2.2313845,-65.4885483,89.8549652,32.4122124,-2.1308286,1.0247130,10.5248566,-7.0076337,-16.2290077,2.3206108
5040,16.0793762,1.0630201,2.8754215,-60.8396950,87.1984711,17.2366409,-2.2529323,1.0318956,10.2231894,-6.0763359,-12.2824430,4.2442746
5050,16.4552650,0.9457048,2.9496415,-55.1832047,91.9694672,2.7862597,-3.0573800,1.4556671,10.4003592,-5.3206105,-10.5419846,6.9847326
5060,16.7952385,0.8882443,2.6958573,-51.8702278,99.7786255,-10.1374044,-3.1723011,1.3455344,10.4434547,-5.7786260,-14.7862597,13.3511448
5070,17.4225159,1.0342898,2.2864509,-52.1145020,104.7404556,-22.4656487,-3.0789278,1.3263810,10.2950144,-4.8396945,-15.8549614,17.6030540
5080,18.4089222,1.3072275,1.8842272,-55.6870232,107.7022934,-37.9847336,-3.1914546,1.4867916,10.2136126,-3.8473282,-15.8320608,20.2137413
5090,19.1726685,1.4053892,1.4891858,-62.6564903,109.6793900,-60.0152664,-3.5314295,1.5203103,10.1010857,-3.5267177,-16.6564884,21.3358784
5100,19.3977222,1.5203103,1.0582317,-70.8931274,101.9923630,-87.0916061,-4.4914994,1.6065011,10.1896706,-2.8244274,-24.1145039,21.1297703
5110,18.9954987,1.4293311,1.0103480,-81.6946564,78.1526718,-121.6412201,-6.0357518,1.9680238,10.1465750,-1.1984733,-38.8473282,22.0916023
5120,18.4759598,0.9480990,1.1228749,-93.4351120,40.7862587,-161.4656525,-7.1825686,2.1787124,9.8161764,-1.3053435,-50.1908379,32.3969460
5130,17.9995155,0.5386927,1.2162483,-105.1221390,-9.5190840,-203.5572510,-7.4076223,2.5378408,9.6342182,-2.6717558,-51.0381660,51.5572510
5140,18.1000729,0.1388630,1.7333932,-114.8473282,-63.0152664,-249.8854980,-7.2041159,2.6383967,9.4690189,-4.7633586,-43.2671738,78.1297684
5150,17.5757446,-0.6344602,2.4803803,-122.0839691,-107.5114517,-250.1374054,-6.2488346,2.4803803,9.6509781,-6.6641221,-30.5419846,104.5801544
5160,16.6994705,-1.0510491,3.2034254,-127.3282471,-141.5648804,-250.1374054,-4.7716198,2.0925217,9.9047613,-7.6870227,-22.8854961,123.3587799
5170,15.9429073,-1.4173602,3.7636659,-129.0992432,-162.0686951,-250.1374054,-3.2920105,1.4580613,10.1058741,-8.5343513,-19.4045811,134.8396912
5180,15.0786057,-1.7836711,3.7564833,-126.9465637,-169.9847260,-250.1374054,-1.9871773,0.8547257,10.2471304,-9.7328243,-16.9160309,139.5267181
5190,13.4888630,-2.1212518,3.6080434,-124.6183243,-170.4656525,-250.1374054,-0.7206510,0.4740495,10.3357162,-10.6412210,-16.6030540,140.2519073
5200,11.7961712,-2.3008161,3.5457945,-125.6488571,-171.7862549,-250.1374054,0.4309541,0.2777260,10.4482431,-12.1068707,-20.7175579,138.7633514
5210,10.1010857,-2.3439114,3.7636659,-127.5419846,-167.6412201,-250.1374054,1.6136837,-0.0981618,10.4219065,-13.8396950,-25.8473282,133.5725250
5220,1.0702027,1.2856797,7.9918046,-63.4885483,-147.3206177,-250.1374054,4.2377152,-1.0151364,11.2119894,-20.0610695,-23.9923668,26.3511448
5230,0.3950413,1.7046629,8.5831690,-46.6412201,-143.1908417,-250.1374054,4.2568688,-0.9888002,11.3029680,-18.1755733,-22.4351139,16.6183205
5240,-1.8914096,1.6879035,7.0820122,-5.1145039,-175.9694672,-250.1374054,4.0030847,-0.3040621,11.3819771,-2.2137403,-0.6183206,-12.4656487
5250,-3.8618276,1.8147956,6.7755561,1.9465649,-167.1221313,-215.9236603,1.8195840,0.6177009,11.6860390,6.4503818,31.9847336,-25.7099228
5260,-4.0701222,2.1499822,6.5313487,11.6183205,-137.8854980,-173.8091583,0.7062859,0.8092360,11.6764622,12.2137403,43.5190849,-26.7480907
5270,-4.1084290,2.6527619,5.9782910,18.6641216,-101.0229034,-126.8854980,-0.0837966,1.0127422,11.7554703,18.8091602,53.0076332,-26.2977104
5280,-4.2377152,2.8778157,5.5832496,21.4809170,-57.3740463,-81.3358765,-0.7900825,1.1204807,11.2479019,24.9465656,59.7404594,-25.5877857
5290,-4.4747400,2.8514795,5.3079181,18.7480907,-10.3129768,-38.6259537,-1.2784972,1.2689204,10.6469603,29.0458012,62.6641235,-24.2290077
5300,-5.2600341,2.7102225,5.0996237,11.6335878,38.5190849,5.7709923,-1.9919657,1.4006008,10.4602137,30.7557259,63.1450386,-23.1984730
5310,-6.4236102,2.1068866,5.1642666,2.5343511,88.0839691,54.9618340,-2.4181314,1.5849534,10.0579901,29.9083977,59.0610695,-20.7099228
5320,-8.2743187,1.2401901,5.1738434,-7.0458016,135.5877838,110.6030502,-2.3151813,1.5777708,9.9334917,26.7786255,45.3358765,-18.3740463
5330,-10.0172882,0.1915352,5.5832496,-16.9694653,170.8244324,175.4122162,-2.1858950,1.3335636,9.4762020,21.6183205,24.0381680,-18.0305347
5340,-12.5623121,-1.1037214,7.2687593,-21.5343513,197.4503784,249.8091583,-2.2744799,1.4987626,9.1290445,14.6259546,9.1908398,-18.4274807
5350,-15.6292686,-3.0023136,9.1553802,-15.3435116,213.3587799,250.1297760,-2.3223639,1.4915800,9.1529865,5.6412215,-3.3282442,-17.3129768
5360,-16.6563759,-6.2536230,11.8153248,7.6870227,224.4045868,250.1297760,-2.5162930,1.5610116,9.4450769,-2.5496182,-11.7022905,-14.3282442
5370,-15.6053267,-10.8265247,13.6684275,44.7175560,250.1297760,250.1297760,-2.6479735,1.5538290,9.9167328,-7.9770994,-13.8396950,-10.6335878
5380,-10.6709023,-17.2740765,14.3938665,81.5419846,250.1297760,250.1297760,-2.3870070,1.4820032,10.3189564,-9.9465647,-16.2061062,-3.8244274
5390,-4.4436154,-19.6131992,14.1712074,101.8244247,250.1297760,250.1297760,-1.8507085,1.2401901,10.6804790,-9.6412210,-17.7557259,0.8320611
5400,8.2886839,-19.6131992,11.7602587,107.8015289,250.1297760,250.1297760,-1.0606259,1.1061156,10.9222927,-7.3282442,-17.6793900,4.2442746
5410,19.6126022,-19.6131992,8.9973640,107.5954208,250.1297760,250.1297760,-0.6105183,1.0007712,10.8911676,-4.7328243,-15.1603050,4.1068702
5420,19.6126022,-19.6131992,10.5152798,105.8320618,250.1297760,250.1297760,-0.2561783,1.0199248,10.7858238,-3.1068702,-12.5190840,3.5954199
5430,19.6126022,-16.5582142,16.8981895,137.1374054,178.3587799,250.1297760,-0.1963235,1.0654143,10.8648319,-1.8015267,-9.5801525,2.2519083
5440,19.6126022,-1.4628497,16.6587696,203.1297760,31.4351139,250.1297760,-0.0167593,1.1156923,10.7403336,-1.0000000,-6.6793895,0.8854962
5450,19.6126022,4.7117648,8.2120695,250.1297760,-34.6717567,110.5114517,-0.1556223,1.1109039,10.6900558,0.3969466,-3.5114503,0.1221374
5460,19.6126022,1.7094513,0.5339043,250.1297760,-97.8625946,-86.0076370,-0.2801202,1.0917504,10.6900558,1.2671756,-1.3664122,-1.7022901
5470,19.6126022,-0.0550664,-0.9169745,223.6488495,-175.3358765,-148.5419922,-0.4070122,1.1707586,10.6302013,1.7862595,0.8167939,-2.9389312
5480,12.6700506,0.4381367,-1.1875180,177.1374054,-204.3206177,-142.6106873,-0.5865764,1.2042773,10.6637201,2.1374047,2.0610688,-4.1679387
5490,8.8585014,1.8818330,-1.2952565,139.6564941,-125.5725174,-102.3206100,-0.8643024,1.1468167,10.5607700,2.7557251,2.8167939,-4.2061067
5500,6.6869712,4.0629396,-1.1300575,108.2519073,-42.8015251,-31.7404575,-1.0007712,1.1875180,10.5847120,3.5343511,4.2137403,-3.9236641
5510,9.6868906,4.9392128,-1.0462608,13.1526718,148.0076294,80.3893127,-1.0534433,1.3431402,10.5176744,2.6335878,1.0458015,-7.0687022
5520,9.3540983,3.2034254,0.6847382,-11.3358774,45.6335869,42.7022896,-0.5769997,1.1827296,10.4243011,3.9541984,-2.1755726,-2.1221373
5530,10.0986910,2.6527619,0.6033357,-21.6641216,20.5267181,28.9007626,-0.5985473,1.3934183,10.4793673,1.7251909,1.1526718,-4.7251906
5540,10.5464048,2.5354466,0.9433106,-31.2595425,22.2442741,25.2442741,-0.7900825,1.3694763,10.4290895,1.3816794,1.4045801,-5.2824426
5550,10.4458485,2.2696917,1.3838415,-42.2442741,28.7404575,24.0076332,-0.7757174,1.3000449,10.3907824,1.8473282,1.0076336,-5.2671757
5560,10.4195127,2.1260402,2.0661855,-52.2137413,37.7938919,24.7938938,-0.7637464,1.2521610,10.4458485,1.6488550,-0.2442748,-5.3053436
5570,10.6086531,1.9009864,3.0238612,-57.7404594,53.5343513,25.7709923,-0.7158626,1.2018831,10.4434547,1.8015267,-0.6335878,-6.2366414
5580,10.6445665,1.7860653,3.9528067,-58.2824440,67.4885483,26.7557259,-0.8834559,1.1611819,10.4697905,1.4351145,-0.3816794,-7.5954199
5590,10.7738523,1.7118455,5.0852585,-54.7251892,73.3740463,25.5114498,-0.8283895,1.1420283,10.5535870,1.0763359,-1.5190840,-8.9694653
5600,10.7355452,1.7597293,5.7364779,-47.2442741,69.5801544,22.4885502,-0.9696468,1.0055596,10.5320396,1.4351145,-1.8931298,-9.0229006
5610,11.0108776,1.5586174,6.1937680,-39.0916023,59.7251892,19.0916023,-1.0582317,1.0534433,10.6589317,1.8473282,-1.1450381,-9.6259546
5620,11.7482872,1.5945302,6.2033448,-31.8854961,50.5038185,14.1374044,-1.1516051,0.9385223,10.6637201,2.9847329,-0.2977099,-9.1068707
5630,14.3268299,1.9512644,5.2049680,-27.3053436,42.7328262,-7.0687022,-1.3072275,1.0199248,10.6732969,3.8931298,1.2595420,-7.6946564
5640,14.8415804,2.0566087,4.9152708,-30.0534344,46.0228996,-21.4427490,-1.3072275,1.0725969,10.5368280,4.0534353,0.5801527,-6.9618320
5650,15.5742025,2.0853391,5.0684991,-35.4732819,43.1526718,-37.4656487,-1.2856797,1.1061156,10.4985209,3.8625953,0.4045801,-6.2824426
5660,16.0937424,2.0997043,5.3917146,-42.2900772,35.1908379,-56.3282433,-1.1803354,1.1252691,10.4673967,3.4809160,-1.8320611,-5.4809160
5670,16.5701847,2.0302727,5.7723908,-49.6793900,23.3664131,-77.9236679,-1.1587877,1.2473727,10.3716288,2.8244274,-2.2748091,-5.1908398
5680,17.1974621,1.8052188,5.8633699,-56.6106873,11.5648851,-102.9312973,-1.1180865,1.3168042,10.3452930,2.1297710,-3.5190840,-5.1221375
5690,17.6547527,1.8052188,6.5121951,-61.4427490,-20.7404575,-135.3358765,-1.0773853,1.4413021,10.4266949,1.1068702,-3.4122138,-4.8778625
5700,18.9308567,1.4293311,7.2280579,-64.4503784,-81.2671738,-181.0076294,-1.0558375,1.4891858,10.4626083,0.7328244,-3.1984732,-3.5572519
5710,19.6126022,1.3191984,8.1402445,-62.4351158,-161.1984711,-245.9923706,-1.0678085,1.4796091,10.4386663,0.7175573,-2.7709923,-3.8015268
5720,19.6126022,0.1221037,8.3389616,-58.5648842,-250.1374054,-250.1374054,-0.9409165,1.4460905,10.5200682,0.9083970,-3.1374047,-3.5572519
5730,18.6746769,-0.7493813,8.1785507,-58.7099228,-250.1374054,-250.1374054,-1.0079538,1.5538290,10.4985209,0.9007633,-1.0305344,-3.7786260
5740,17.0609932,-0.7900825,7.5895805,-59.3053436,-250.1374054,-250.1374054,-1.2761030,1.5514348,10.5727406,0.9160305,0.2290076,-3.6641221
5750,14.5973730,-0.8307837,6.8761120,-59.7251892,-250.1374054,-250.1374054,-1.2737088,1.5562232,10.5057030,1.0687023,0.5877863,-2.0305343
5760,12.5910425,-0.3136388,5.7269011,-56.7022896,-250.1374054,-250.1374054,-1.2976507,1.4843974,10.3668404,1.3969465,-0.1603053,-0.7404580
5770,11.5830889,0.4022238,4.4651632,-53.3511467,-250.1374054,-250.1374054,-1.2234308,1.2880739,10.3405046,0.8167939,-1.1221374,-0.9007633
5780,11.3077564,1.0749911,2.9448531,-57.4809151,-249.9694672,-250.1374054,-1.0773853,1.2617378,10.3764172,-0.3893130,-2.2900763,-1.9694656
5790,12.1026278,1.7884595,1.8722562,-68.6717529,-228.0534363,-250.1374054,-1.0630201,1.1659702,10.3859940,-1.5572519,-3.3816793,-2.6259542
5800,12.0475616,1.7262106,1.9967541,-83.7633591,-215.0458069,-250.1374054,-1.2713146,1.0151364,10.4410601,-1.7938931,-5.1679387,-3.8244274
5810,10.7020273,1.3024391,2.6024840,-93.3358765,-191.1603088,-250.1374054,-1.2856797,1.0462608,10.4865494,-1.6564885,-6.9694657,-3.8015268
5820,9.0835552,1.2234308,3.4596038,-97.9007645,-180.4351196,-250.1374054,-1.3000449,1.0055596,10.5440102,-2.0000000,-7.7557254,-3.3587787
5830,7.6398587,0.7254394,4.5322008,-95.8931274,-172.0305328,-250.1374054,-1.2569494,0.9457048,10.6182299,-1.5496184,-8.1755724,-2.4045801
5840,5.9328012,0.5362985,5.3773494,-89.1450348,-163.8167877,-250.1374054,-1.2114599,0.9840119,10.6062593,-1.5725191,-8.4427481,-2.7404580
5850,4.6255741,0.3902529,6.1817970,-78.8625946,-158.8091583,-250.1374054,-1.1085097,0.9528874,10.5966825,-1.7633588,-8.5038166,-2.2824428
5860,3.2106080,0.1508339,6.4499464,-67.9770966,-152.5801544,-250.1374054,-0.9337339,1.0199248,10.6349897,-1.0687023,-8.0992365,-2.6412213
5870,1.9033806,0.3351865,6.4475522,-58.3129768,-135.1603088,-250.1374054,-1.0127422,1.0941446,10.6349897,-0.5572519,-6.6488547,-2.5267177
5880,0.6033357,0.7326220,6.5864153,-49.8702278,-107.6717529,-250.1374054,-0.8571198,1.1635761,10.6852674,0.0381679,-5.1297708,-2.2519083
5890,-0.0383070,0.9265513,6.9144192,-41.7175560,-77.4045792,-240.6106873,-0.9145803,1.3335636,10.6852674,1.1145039,-3.1221373,-2.1908398
5900,-1.0007712,1.5777708,6.7157016,-35.9465637,-44.9160309,-207.5038147,-0.8714849,1.4197544,10.6709023,2.1755726,-1.9236641,-2.1297710
5910,-1.2737088,1.6208663,6.3565731,-35.6793900,-13.9541988,-176.2290039,-0.8882443,1.5131277,10.6110477,3.2213740,-0.6870229,-1.5725191
5920,-1.4245427,1.6783268,6.2272868,-38.4961815,16.4732819,-150.3435059,-0.7134684,1.6543850,10.4793673,3.3587787,0.3435115,-2.1297710
5930,-1.6687500,1.5705882,6.3206601,-40.5877876,43.4045792,-130.5648804,-0.7326220,1.6615674,10.3644457,3.2290077,-0.1679389,-2.3511450
5940,-1.9057748,1.4748207,6.4403696,-41.8396950,61.3740463,-116.4198456,-0.7613522,1.6519908,10.3213511,2.2213740,-0.7786260,-2.9007633
5950,-2.3295465,1.3215926,6.8378053,-39.5954208,68.1221390,-105.8167953,-0.9241571,1.5179161,10.2854376,1.0152671,-2.7099237,-3.2977099
5960,-2.6838863,1.1994889,6.9383612,-32.4961815,67.3282471,-98.9923630,-1.0295014,1.4221486,10.3812056,-0.3740458,-5.0229006,-4.5648856
5970,-3.2656744,1.1109039,6.8306227,-23.3664131,55.8854980,-96.8702316,-1.2258250,1.2282192,10.3812056,-1.6717557,-6.9465647,-4.1374044
5980,-3.0980811,0.6751614,7.1179252,-14.3053436,36.1755714,-100.9542007,-1.2306134,1.0917504,10.5464048,-2.8625953,-7.6870227,-3.0458016
5990,-3.7373297,0.6272776,7.7763271,-1.1221374,20.2900772,-105.8167953,-1.1779412,0.8379663,10.6062593,-2.6412213,-6.9923663,-1.9160305
6000,-4.8913293,0.2585725,8.2886839,16.0763359,9.6106873,-100.4809189,-1.1420283,0.8571198,10.7163916,-1.2671756,-4.8396945,-1.6106870
6010,-6.7252784,0.2202654,8.7842808,34.7480927,7.5801525,-79.9236679,-1.1324517,0.8547257,10.8313131,0.6564885,-2.6641221,-0.5954198
6020,13.8647509,-19.6131992,-0.1436514,250.1297760,250.1297760,250.1297760,-0.3591284,1.6424140,10.4386663,2.4732823,-1.5114504,-4.2595420
6030,19.6126022,-19.6131992,-8.5999289,230.7862549,250.1297760,250.1297760,-0.3974355,1.5921360,10.3907824,1.6030535,0.8931298,-5.7328243
6040,19.6126022,-19.6131992,-8.7244263,140.2442780,250.1297760,250.1297760,-0.6081241,1.5298871,10.6302013,1.2442749,0.8320611,-6.8854961
6050,19.6126022,-3.1794837,0.6272776,21.4351139,250.1297760,250.1297760,-0.5458752,1.4963684,10.5296450,1.8473282,0.8015267,-7.1679387
6060,19.6126022,12.7275114,10.3500814,-51.3740463,250.1297760,250.1297760,-0.6105183,1.4029950,10.6397781,2.0992367,-0.0076336,-8.6106873
6070,19.6126022,3.7540891,10.7283630,-32.1908379,250.1297760,189.3435059,-0.5985473,1.3263810,10.4745789,2.0610688,-0.9618320,-10.3358774
6080,19.6126022,-2.4277081,5.6981707,36.8778610,235.9313049,-62.0228996,-0.8499373,1.2114599,10.5272512,1.5343511,-2.5267177,-12.5725193
6090,13.5295649,-3.4955165,3.0885043,86.6030502,-92.2366409,-154.8778687,-0.9050036,1.0534433,10.5440102,1.1068702,-3.4045801,-13.9541988
6100,8.2862902,-1.7022687,3.6343796,84.9389343,-250.1374054,-156.5038147,-1.2210367,0.9792235,10.5009146,0.6259542,-2.6717558,-14.8931293
6110,11.4370432,1.6328372,5.3988972,46.2290077,-250.1374054,-119.7022934,-1.4317253,0.9935886,10.6038647,0.7099237,-1.4045801,-14.8702288
6120,16.8910065,3.8594334,6.1482787,10.7557249,-250.1374054,-86.4885483,-1.6974803,0.8714849,10.6924505,1.5190840,0.5801527,-14.0229006
6130,17.1160603,4.8362627,5.9136481,0.0000000,-106.6564865,-68.3435135,-1.8626794,0.8619082,10.5966825,2.6793892,1.6030535,-13.1755724
6140,12.3468351,4.1778607,4.5130472,8.2290077,43.3893127,-41.5801544,-1.9560528,0.9002152,10.5655584,3.8244274,2.0076337,-11.5114508
6150,8.2910776,3.7133877,-0.2106887,15.5267172,132.9160309,69.5419846,-2.6719155,1.2737088,10.3692341,2.8931298,-0.1221374,-2.6412213
6160,8.7651272,3.9743545,-0.1843526,10.2290077,126.5190811,71.7480927,-2.1523764,1.1492109,10.1824875,2.4503818,-4.7862597,0.2595420
6170,9.2224178,3.8714044,0.0478838,1.7175573,111.5114517,67.0687027,-1.5873476,1.3072275,10.2088242,1.4274809,-8.2213745,0.5267175
6180,9.5001440,3.7876077,0.3447633,-6.2366414,95.5801544,57.7862587,-1.1899122,1.3622938,10.3524752,-0.4961832,-10.3740454,0.8091603
6190,9.5695753,3.7756367,0.6847382,-12.7404585,78.4122162,47.1908379,-1.0510491,1.3263810,10.4099360,-1.6564885,-11.1908398,0.3435115
6200,9.5767574,3.4715748,0.8858501,-17.0992374,64.1526718,37.6030540,-0.9050036,1.4029950,10.5751352,-1.9465649,-11.0076332,-0.3053435
6210,9.4690189,3.3279233,1.0007712,-22.8396950,53.1526718,28.1755733,-0.5099624,1.4676381,10.5655584,-1.1297710,-7.7938933,-0.7862595
6220,9.4594421,3.0358322,1.4053892,-31.3435116,40.8320618,18.0000000,-0.6153067,1.3431402,10.7451220,-0.4503817,-7.0000000,-0.8167939
6230,9.3684635,2.7485294,1.7022687,-41.5190849,29.5038166,9.6106873,-0.3687052,1.3622938,10.6924505,-0.7022901,-8.4961834,-1.9160305
6240,8.9375095,1.6543850,2.8778157,-71.0381699,15.1832066,5.4961834,-1.1372399,1.7118455,10.5703468,2.7251909,1.1374046,-1.2213740
6250,9.1434097,1.4915800,3.4835455,-78.5267181,22.8244267,7.8931298,-1.2449785,1.7357874,10.6158361,3.2824428,2.8854961,-0.4961832
6260,10.4817610,0.7972651,4.6255741,-100.7709961,55.8091621,16.1603050,-1.2473727,1.4508789,10.2543135,1.2366412,-0.8931298,-1.8549619
6270,10.8241301,0.6967092,5.0445571,-112.4351120,65.4122162,18.4732819,-1.4484847,1.3215926,10.2950144,0.1450382,-2.7251909,-1.7480916
6280,10.9725704,0.1747758,5.9280128,-123.1145020,74.7022934,21.5267181,-1.5155219,1.3000449,10.4482431,-0.6793893,-4.1908398,-1.4503816
6290,11.1617117,0.0909792,6.5672617,-130.1297760,77.9542007,30.4580154,-1.4796091,1.2641320,10.4578199,-1.0992366,-5.0763359,-1.3969465
6300,12.1768475,-0.0335187,6.1650376,-136.7404633,71.9770966,30.5038166,-1.5203103,1.2090657,10.4865494,-1.3206106,-5.2137403,-0.9541985
6310,12.9860840,0.0311245,5.7580256,-151.2061005,43.1068687,21.2824421,-1.4101776,1.1396341,10.6254129,-0.8625954,-5.1221375,-0.6106870
6320,14.6763811,0.0095768,5.1427188,-171.8702240,11.9923668,7.9007635,-1.3287752,1.1324517,10.6349897,0.1908397,-4.7709923,0.4732825
6330,16.4265347,0.1197095,5.3797436,-186.4122162,4.2977099,-13.9923668,-1.1468167,1.1803354,10.6541433,1.0763359,-3.7862597,0.6641222
6340,16.8311520,-0.0861908,6.4140334,-188.0381622,24.9083977,-41.1603050,-1.0534433,1.1947005,10.6373835,1.7557251,-2.7099237,0.3664122
6350,16.2517586,-1.0414724,7.0341287,-177.4122162,34.3740463,-66.8473282,-1.0079538,1.2521610,10.5751352,2.8091602,-1.5954199,-0.0381679
6360,18.9140968,-1.4772149,7.9439206,-163.3969421,22.9770985,-105.4961853,-1.0438666,1.3072275,10.4745789,3.1832061,-1.4503816,-0.6641222
6370,19.6126022,-1.7309990,9.0883436,-147.2061005,-0.3282443,-169.1450348,-0.9983770,1.3335636,10.6206245,2.8702290,-0.4580153,-1.5419847
6380,19.6126022,-3.4811516,10.7499104,-120.7328262,-25.5190830,-235.7633514,-1.0486550,1.4580613,10.3596573,2.5648854,-0.4656489,-1.7175573
6390,19.0697193,-4.8721757,10.5679522,-88.2290039,-37.1679382,-250.1374054,-1.1994889,1.4006008,10.3261395,2.3358779,-1.1145039,-1.7557251
6400,17.9252968,-5.3701668,9.6102762,-60.6335869,-38.8778610,-250.1374054,-1.1324517,1.4580613,10.3716288,1.3969465,-1.7633588,-2.0152671
6410,16.0626163,-4.7883787,8.4371233,-40.5877876,-42.1755714,-250.1374054,-1.1899122,1.3359578,10.3883877,0.3664122,-2.7709923,-2.4732823
6420,14.8870697,-4.8314743,6.6773944,-32.6183205,-50.1679382,-250.1374054,-1.2282192,1.3838415,10.4099360,0.0992366,-3.5038168,-3.3358779
6430,14.5686426,-4.5992379,5.8537931,-31.8244267,-56.1603050,-250.1374054,-1.2856797,1.2449785,10.4913378,-0.4427481,-4.2213740,-4.1832061
6440,14.0107965,-4.4124913,5.6478930,-32.0916023,-60.7099228,-250.1374054,-1.3048333,1.2784972,10.5224628,-0.0687023,-4.3282442,-4.3664122
6450,12.8280668,-4.2903876,5.5736732,-31.8778629,-61.6106873,-250.1374054,-1.2713146,1.2569494,10.5464048,0.4351145,-4.2366414,-4.1221375
6460,11.1257982,-4.0294209,5.9926562,-30.3358784,-64.7099228,-250.1374054,-1.3383518,1.2066715,10.6397781,0.7480916,-3.7099237,-3.9083970
6470,9.4283180,-4.1802549,6.2296810,-25.4580154,-69.4503784,-250.1374054,-1.2497669,1.2713146,10.5918941,1.0229008,-3.5648854,-4.0381680
6480,7.7092900,-4.0844874,6.1722202,-19.3206100,-76.3740463,-250.1374054,-1.4053892,1.2425843,10.5440102,1.0534351,-3.3358779,-4.2595420
6490,6.4355812,-3.4260850,6.0118098,-11.7175570,-80.1374054,-250.1374054,-1.3814473,1.3072275,10.5248566,1.1755725,-4.1374044,-3.8549619
6500,4.9894910,-2.7557120,5.4252334,-6.0687022,-76.6412201,-250.1374054,-1.4173602,1.3263810,10.4937325,0.7480916,-4.5954199,-3.8091602
6510,3.5218527,-2.3917952,4.7668314,-6.1221375,-71.1374054,-250.1374054,-1.3479286,1.3670821,10.4147243,0.2442748,-5.0000000,-3.1603053
6520,2.2170193,-2.0997043,4.4436154,-9.8625956,-69.8396912,-250.1374054,-1.1109039,1.2761030,10.5104914,0.2748092,-7.2061067,-2.8931298
6530,1.5107336,-1.8028246,4.5968437,-12.4274807,-66.3740463,-250.1374054,-0.9073978,1.2976507,10.4338779,-0.2595420,-7.7328243,-3.6717558
6540,0.2370248,-1.5011568,5.0780759,-11.5954199,-61.7938919,-250.1374054,-1.1899122,1.4700323,10.6445665,-0.1832061,-5.9923663,-4.1374044
6550,-0.7709290,-1.2665262,5.7053533,-12.1374044,-71.5801544,-250.1374054,-1.3000449,1.4724265,10.5535870,0.0992366,-4.1755724,-3.0610688
6560,-1.2976507,-1.2401901,6.1578555,-13.3129768,-85.5648880,-250.1374054,-1.5059452,1.5322813,10.5823174,1.3664122,-2.0305343,-1.3816794
6570,-1.8435259,-1.2258250,6.6893654,-13.3816795,-87.8931274,-250.1374054,-1.4891858,1.5370697,10.5511932,2.5343511,-1.2671756,0.9618320
6580,-2.9280937,-1.1587877,7.3860745,-12.5725193,-87.8854980,-250.1374054,-1.0917504,1.5418580,10.4434547,3.1221373,-1.5343511,2.3053436
6590,-3.7181761,-1.3455344,7.9846220,-10.2824430,-88.5496216,-250.1374054,-0.8690908,1.4724265,10.1178446,1.8625954,-3.7709923,0.8473282
6600,-4.7141590,-1.2521610,8.9183559,-4.4122138,-88.5954208,-250.1374054,-0.9959828,1.6041069,10.1633339,-0.3435115,-4.9618320,-0.9007633
6610,-5.9088597,-0.9504932,9.2439651,5.4503818,-76.6793900,-237.0000000,-1.1587877,1.5466464,10.1322098,-2.7328243,-5.4809160,-2.1374047
6620,-7.4555058,-0.5339043,9.8880024,18.0152664,-60.6335869,-195.3206177,-1.2569494,1.4389079,10.3716288,-3.5572519,-6.5801525,-2.4351146
6630,-8.8010406,-0.2705434,10.1537571,30.3587780,-39.6412201,-143.0305328,-1.2737088,1.3958124,10.5104914,-3.4122138,-6.8167939,-1.8015267
6640,-10.8265247,-0.0574605,10.4602137,43.6488533,-7.7328243,-72.5496216,-1.1994889,1.3335636,10.5296450,-3.2671757,-7.0610685,-3.1145039
6650,-12.3013458,-0.2585725,10.5224628,54.9465637,31.1145039,10.9694653,-1.2784972,1.2784972,10.5679522,-2.9160306,-6.4503818,-3.2213740
6660,-13.2685976,-0.9409165,10.0508070,65.5267181,87.4503784,102.5801544,-1.3551112,1.1947005,10.6038647,-2.1450381,-5.7022901,-3.3435113
6670,-13.7210999,-1.6065011,9.7419567,75.0305328,150.7404633,205.0763397,-1.3431402,1.2449785,10.6924505,-1.1755725,-4.9618320,-3.3587787
6680,-13.1488886,-3.1962428,9.6844959,84.0534363,205.7786255,250.1297760,-1.3742647,1.1779412,10.5679522,-0.2748092,-4.9083967,-3.2442749
6690,-11.7937775,-5.4084740,9.5049324,94.6335907,250.1297760,250.1297760,-1.4101776,1.1947005,10.4171181,0.0381679,-5.8015265,-2.4809160
6700,-10.8744087,-7.6614060,8.9207497,106.6106873,250.1297760,250.1297760,-1.4436963,1.1252691,10.5176744,0.2213740,-6.4503818,-3.0152671
6710,-9.8880024,-10.6948442,8.4826136,120.0534363,250.1297760,250.1297760,-1.3383518,1.1444225,10.4482431,-0.0534351,-7.4427481,-1.7938931
6720,-7.9032192,-14.3100700,7.9104018,134.6030579,250.1297760,250.1297760,-1.2545552,1.2090657,10.5416164,-0.5114504,-7.3435116,-0.7022901
6730,-5.5688848,-18.5477848,7.1490498,147.0534363,250.1297760,250.1297760,-1.1875180,1.1994889,10.5895004,0.1679389,-7.0381680,-0.3664122
6740,-2.6072724,-19.6131992,6.6534524,156.8396912,250.1297760,250.1297760,-1.0558375,1.2832855,10.6397781,1.1679389,-5.8549619,-0.4580153
6750,1.7693061,-19.6131992,6.1387019,171.6259613,250.1297760,250.1297760,-0.8547257,1.2928623,10.6493549,2.4122138,-3.3129771,-0.3282443
6760,11.0060892,-19.6131992,4.7668314,185.7633514,250.1297760,250.1297760,-0.6296718,1.1444225,10.5487986,2.0076337,-6.2137403,-1.2671756
6770,19.6126022,-19.6131992,4.6016321,181.6488495,250.1297760,250.1297760,-0.5339043,1.4532729,10.5344334,2.1755726,-3.6106870,-2.9160306
6780,19.6126022,-19.6131992,9.5647869,157.8167877,250.1297760,250.1297760,-0.6536137,1.4700323,10.6517487,2.0916030,-2.0076337,-3.6564887
6790,19.6126022,-9.4546537,19.6126022,109.4732819,250.1297760,250.1297760,-0.9217629,1.6184721,10.5559816,2.7633588,0.6946565,-2.7328243
6800,19.6126022,-12.4282379,19.6126022,94.6641235,250.1297760,250.1297760,-1.1348459,1.7836711,10.5703468,3.2671757,3.6030533,-2.7480917
6810,19.6126022,-12.0906563,19.6126022,153.2977142,250.1297760,215.6641235,-1.4029950,1.8626794,10.5200682,3.6641221,4.0229006,-0.8244275
6820,19.6126022,-8.8728657,11.6381550,210.4351196,221.6412201,55.6564903,-1.3168042,1.9536586,10.3261395,3.8702290,5.2671757,-0.0687023
6830,7.7452030,-2.7868366,7.3118544,242.8625946,118.7633591,24.2519093,-1.1659702,1.8842272,10.2567072,3.6641221,3.7328243,1.3969465
6840,4.8506279,-0.1292862,3.7876077,223.5419922,-31.5877857,45.9389305,-0.4716553,1.4652439,10.2710724,2.2061069,-5.2213740,-0.2900763
6850,9.5145092,-0.5506636,0.6943150,172.5877838,-103.8854980,53.0992355,-0.4764437,1.4939742,9.7467451,-0.2442748,-4.8015265,-4.7022901
6860,13.9270000,1.5442522,-0.5027798,103.8320618,-132.8396912,32.4580154,-0.9504932,1.5993185,10.3859940,-3.2595420,-6.5114503,-6.8854961
6870,16.3140068,3.3686244,0.7948709,37.1374054,-143.4198456,-5.0152674,-1.1348459,1.2377959,10.5416164,-4.5801525,-7.6641221,-7.2519083
6880,15.6843348,3.2489152,3.0980811,-1.2900764,-133.3816833,-44.2366409,-1.2090657,1.2162483,10.6517487,-3.4732823,-8.7862597,-7.4198475
6890,13.1081877,2.4755919,5.0493455,-8.2137403,-119.5419846,-66.6793900,-1.2306134,1.1109039,10.6158361,-1.9465649,-6.8167939,-7.6335878
6900,11.2407198,2.3008161,5.1044121,1.6106870,-104.2900772,-71.2900772,-1.4197544,1.1468167,10.6828737,-0.9541985,-4.0534353,-7.8549619
6910,10.6373835,2.4324965,3.4691806,8.7099237,-77.3053436,-68.6870193,-1.6136837,1.0366840,10.6445665,0.7099237,-1.5114504,-7.2061067
6920,8.6526003,1.6831152,1.0271072,-17.3053436,-12.0534353,-55.2442741,-2.2074428,1.1468167,10.4697905,3.1450381,2.9007633,-4.9160304
6930,6.3589673,0.7206510,2.1427996,-44.0152664,23.6412220,-17.9694653,-1.9416877,1.2114599,10.3764172,3.5572519,-2.3511450,-0.6488550
6940,6.7971039,-0.1340746,3.2824337,-53.0839691,35.8091621,9.0916033,-1.2066715,1.3383518,10.1705170,-0.0229008,-6.8854961,-1.3435115
6950,7.2160869,-0.1556223,3.5984666,-57.1603050,38.5496178,16.3053436,-0.9624642,1.2737088,10.3141680,-1.9847329,-8.2213745,-2.2824428
6960,8.0899658,-0.2202654,4.1323709,-62.1679382,39.8244286,15.5267172,-0.9050036,1.2449785,10.4290895,-2.8625953,-9.1679392,-3.2442749
6970,8.7531567,-0.5865764,4.6519103,-68.0076370,36.0076332,7.4885497,-0.8954269,1.3263810,10.5344334,-2.7022901,-8.9160309,-4.1908398
6980,9.1649570,-0.9648584,5.2935529,-72.6183243,29.2977104,-2.8015268,-0.9504932,1.3646880,10.7187862,-1.8549619,-7.4198475,-5.4885497
6990,9.3277617,-0.9624642,5.6143742,-74.7786255,24.8473282,-11.5877867,-1.0462608,1.4173602,10.7882175,-0.7404580,-5.4427481,-5.7328243
7000,9.3445215,-1.0031654,5.8992829,-75.0457993,24.6641216,-18.7557259,-1.1635761,1.4221486,10.7738523,0.5725191,-3.7022901,-4.8167939
7010,9.6222477,-0.9385223,6.3853035,-74.4427490,25.8091602,-25.3053436,-1.2521610,1.4125718,10.5368280,1.0839695,-2.9312978,-4.3969464
7020,9.5408449,-1.3503228,6.3613615,-73.3053436,29.1908398,-30.6870232,-1.2401901,1.4652439,10.4769726,1.3740458,-2.2900763,-4.0763359
7030,9.6773138,-1.3455344,6.5696559,-69.6564865,39.0152664,-34.5572510,-1.2282192,1.4891858,10.3333216,1.2519084,-1.9389313,-4.1374044
7040,9.5360565,-1.4843974,6.6462698,-65.7786255,49.5496178,-35.6106873,-1.2737088,1.4867916,10.4290895,0.9083970,-2.4503818,-3.6259542
7050,9.4307127,-1.6567791,6.7085190,-63.0534363,61.0305328,-35.5572510,-1.2713146,1.4413021,10.3835993,0.3740458,-3.2824428,-4.2061067
7060,9.2798786,-1.7333932,6.8737178,-60.5572510,70.6488571,-34.9007645,-1.1923064,1.4173602,10.4578199,-0.0610687,-4.2213740,-2.5114503
7070,9.1098909,-1.8195840,7.1083484,-56.3129768,77.3206100,-34.6641235,-1.3000449,1.4125718,10.4841557,0.0381679,-4.1450381,-3.2213740
7080,9.2200232,-1.8602852,7.2065101,-52.0228996,76.8702316,-36.1603050,-1.3000449,1.4053892,10.6732969,0.0458015,-4.0381680,-2.2748091
7090,9.5025377,-1.6448082,7.3070664,-48.5954208,73.4427490,-41.0381660,-1.2186425,1.4317253,10.6278067,0.8702290,-3.5801528,-1.7022901
7100,9.8161764,-1.5250987,7.1490498,-46.7557259,67.1603088,-49.8931313,-1.2210367,1.4987626,10.5823174,1.7099236,-2.8015268,-0.9770992
7110,10.1585455,-1.3359578,7.0772243,-49.3435097,50.7709923,-62.5190849,-1.0845678,1.4269369,10.4841557,2.3587787,-1.8320611,-0.1755725
7120,10.6206245,-1.3335636,7.1825686,-52.9465637,29.7862587,-79.8625946,-1.0606259,1.5370697,10.5966825,2.6641221,-0.8931298,0.4045801
7130,11.2694502,-1.1994889,7.3334022,-53.1526718,18.9694653,-99.5343475,-1.0749911,1.5322813,10.4697905,2.4427481,-0.4885496,0.4809160
7140,11.5759058,-1.0295014,7.5177550,-51.2213745,9.4885492,-120.2366409,-0.9672526,1.5705882,10.3883877,1.7786260,-0.6106870,-0.2213740
7150,11.6932211,-1.1827296,7.5321202,-48.4885483,0.5801527,-141.3740387,-1.0558375,1.5466464,10.2614956,1.2442749,-1.2442749,-0.4732825
7160,11.6501255,-1.1516051,7.8816719,-43.9618340,-10.8854961,-160.8702240,-1.1516051,1.6088953,10.2255831,0.6106870,-1.8244275,-0.8396947
7170,11.9541883,-1.2066715,8.2336178,-38.8091621,-28.4122143,-177.6412201,-1.1707586,1.5227045,10.2543135,-0.3053435,-3.0839694,-0.7709923
7180,12.5958309,-1.0414724,8.2958660,-32.2137413,-52.8091621,-193.7099304,-1.2545552,1.4604555,10.3333216,-1.1450381,-3.9694657,-0.2213740
7190,13.2709923,-1.1899122,8.5017672,-27.5419846,-84.0076370,-214.8625946,-1.3048333,1.3862357,10.3596573,-1.8167939,-4.6488547,-1.1450381
7200,14.2478218,-1.3072275,8.6238708,-27.5343513,-111.3053436,-237.9847260,-1.4029950,1.2545552,10.5248566,-2.2290077,-4.9847326,-0.7328244
7210,15.0474806,-1.4532729,8.7555504,-27.6564884,-122.9312973,-250.1374054,-1.4053892,1.1396341,10.4721851,-1.9770992,-5.3053436,-0.5343512
7220,15.6795464,-1.7812769,9.1960821,-24.3587780,-121.0534363,-250.1374054,-1.4604555,1.0390782,10.6397781,-1.4122137,-4.8473282,-1.2442749
7230,15.2270451,-2.0087249,9.8209648,-13.7251911,-109.1984711,-250.1374054,-1.4436963,1.0749911,10.6924505,-0.3129771,-4.6259542,-1.1374046
7240,14.3052816,-1.9440818,10.2351599,-4.0000000,-103.5954208,-250.1374054,-1.3407460,0.9911944,10.6230183,0.3816794,-4.2366414,-1.4580153
7250,12.8113079,-2.1523764,10.3261395,0.3664122,-112.2824402,-250.1374054,-1.3790531,1.0702027,10.5942879,1.2290076,-3.5190840,-1.6793894
7260,11.7051926,-2.2122312,9.9574337,-4.5572519,-139.6183167,-250.1374054,-1.4891858,1.1324517,10.4961262,1.2748091,-3.9618320,-1.4961832
7270,11.6237898,-2.3151813,9.4570484,-8.1374044,-149.1068726,-250.1374054,-1.4341195,1.1156923,10.4721851,0.9694657,-4.4809160,-1.0763359
7280,11.6405487,-2.0518203,9.6414013,-5.1374044,-155.8396912,-250.1374054,-1.3910241,1.2832855,10.3357162,0.5190840,-4.8625956,-0.7633588
7290,11.5016861,-2.1595588,9.9334917,2.5725191,-151.1221313,-250.1374054,-1.2282192,1.3790531,10.5080976,0.3358779,-5.1679387,-0.9847328
7300,10.5057030,-2.3151813,10.0268650,10.9618320,-147.5038147,-250.1374054,-0.9313397,1.3479286,10.3835993,0.6030535,-2.3511450,-0.6717557
7310,9.0500364,-2.0997043,10.3644457,22.5190830,-148.0000000,-250.1374054,-0.7972651,1.2689204,10.5942879,0.1297710,-7.7633586,-1.5343511
7320,7.1466556,-2.1260402,9.6318245,34.5343513,-152.3664093,-250.1374054,-0.9888002,1.5777708,10.6182299,0.6030535,-5.3587785,-2.6717558
7330,5.8992829,-2.3894010,8.6573887,44.8320618,-156.3664093,-250.1374054,-0.8882443,1.5969244,10.4697905,0.9465649,0.0534351,-2.5572519
7340,4.5393834,-1.8459201,7.7356262,49.4809151,-163.3358765,-250.1374054,-0.8882443,1.4891858,10.5057030,1.5190840,-3.9389312,-2.1297710
7350,3.3542595,-1.3934183,7.1227136,47.4656487,-169.7786255,-250.1374054,-0.9720409,1.8219782,10.4937325,2.0076337,-1.2290076,-2.2900763
7360,2.0949159,-0.8331779,6.9814563,41.8320618,-175.1526642,-250.1374054,-1.1611819,1.8291607,10.4578199,1.7328244,1.1526718,-3.0305343
7370,1.3958124,-0.4692611,7.2615767,35.4122124,-181.8549652,-250.1374054,-1.3168042,1.7238164,10.2638903,1.7480916,0.1832061,-1.7251909
7380,1.1037214,-0.6823440,7.7332320,33.3282433,-185.0534363,-250.1374054,-1.2952565,1.8052188,10.1944590,1.1526718,-0.7175573,-1.7633588
7390,0.1723816,-0.7565638,8.0756006,34.5267181,-180.9465637,-250.1374054,-1.1779412,1.6926919,10.0962973,-0.4580153,-2.5419848,-2.1221373
7400,-0.8307837,-0.7972651,8.4562769,37.7633591,-167.6793823,-250.1374054,-1.1563935,1.6017127,10.2926207,-2.2900763,-4.0992365,-2.7938931
7410,-2.0542145,-0.8236012,8.6693602,43.3511467,-147.2595367,-250.1374054,-1.2042773,1.4700323,10.3189564,-3.9541984,-5.6030536,-3.5038168
7420,-3.2824337,-0.5626345,9.1314383,52.8396950,-121.2061081,-250.1374054,-1.1923064,1.4006008,10.3907824,-4.8091602,-4.6106873,-3.2442749
7430,-3.8522508,-0.0670373,9.2319946,63.3511467,-99.9770966,-250.1374054,-1.2641320,1.3263810,10.4769726,-4.5801525,-1.2671756,-2.3969467
7440,-5.7149301,0.2777260,8.3844519,73.7709961,-79.6488571,-250.1374054,-1.5179161,1.1994889,10.7235746,-4.0000000,0.6106870,-2.4045801
7450,-6.4427638,0.6536137,7.1059542,79.9770966,-56.7786255,-211.0458069,-1.5179161,1.1683644,10.8049774,-2.7786260,1.1603054,-0.6870229
7460,-7.4842362,1.3455344,3.9025288,78.3282471,28.1832066,-115.5114517,-1.3862357,1.0318956,10.6852674,-0.4427481,-0.2213740,-1.1068702
7470,-8.3198080,2.0997043,2.1044924,70.0534363,88.3129807,-64.7786255,-1.3766589,1.0031654,10.7259684,0.7557252,-1.6717557,-1.1679389
7480,-8.9446917,1.8818330,1.0654143,56.7938919,143.1374054,-15.7404585,-1.3766589,1.0702027,10.5990763,1.0992366,-2.6717558,-2.1221373
7490,-9.8736372,1.8985922,0.9169745,41.4656487,192.1603088,35.3435097,-1.5203103,1.1396341,10.5344334,1.6259542,-3.9465649,-3.1450381
7500,-11.8009596,1.7309990,1.4460905,29.2824421,244.0839691,90.9160309,-1.6112895,1.3263810,10.5272512,1.9541985,-5.1526718,-2.5114503
7510,-17.5661678,2.1930776,3.4356618,22.5954189,250.1297760,169.0686951,-1.5921360,1.3407460,10.4362717,2.4656489,-5.8931298,-2.1603053
7520,-19.6131992,1.0055596,6.1626434,23.5190830,250.1297760,250.1297760,-1.7094513,1.4700323,10.4075413,2.1297710,-6.3511453,-1.2900764
7530,-19.6131992,-1.1228749,8.4610653,33.2061081,250.1297760,250.1297760,-1.5035510,1.4604555,10.3668404,1.5954199,-7.0534353,-0.2900763
7540,-19.6131992,-6.5433197,9.6246414,38.1221390,250.1297760,250.1297760,-1.3311694,1.4724265,10.3859940,1.1984733,-7.3587785,0.8091603
7550,-19.6131992,-14.6500454,9.4259243,15.2366409,250.1297760,250.1297760,-1.2018831,1.4891858,10.4482431,0.8931298,-7.4503818,1.0992366
7560,-12.0140429,-19.6131992,7.7930865,-51.9618340,250.1297760,250.1297760,-0.9624642,1.4915800,10.5200682,0.3893130,-7.2442746,0.1755725
7570,1.8722562,-19.6131992,5.4707227,-143.5877838,250.1297760,250.1297760,-0.8714849,1.4293311,10.4602137,0.0916031,-6.7633586,0.5267175
7580,16.1320477,-19.6131992,5.2696109,-233.9618378,250.1297760,250.1297760,-0.8331779,1.5274929,10.5392218,-0.0076336,-5.9618320,-0.6641222
7590,19.6126022,-19.6131992,15.8184099,-250.1374054,250.1297760,250.1297760,-0.7757174,1.4724265,10.4266949,0.0152672,-2.6259542,-0.9541985
7600,19.6126022,-19.6131992,19.6126022,-250.1374054,250.1297760,250.1297760,-0.9935886,1.2976507,10.5918941,-0.1603053,-4.2748094,-1.0992366
7610,19.6126022,-5.5545197,19.6126022,-37.8167953,218.8931274,250.1297760,-1.0606259,1.3838415,10.6445665,-0.0076336,-3.3664122,-2.5419848
7620,19.6126022,0.8499373,19.6126022,185.3587799,6.2213740,46.8015251,-1.1683644,1.4891858,10.6517487,0.9389313,-2.9083970,-2.9465649
7630,19.6126022,2.4708035,6.0142040,242.8854980,-250.1374054,-226.8396912,-1.2928623,1.5250987,10.5679522,1.8931298,-1.7862595,-2.2977099
7640,16.0697994,3.4739690,-3.3279233,147.4274750,-250.1374054,-250.1374054,-1.3239868,1.6088953,10.5224628,2.0152671,-0.9618320,-2.0534351
7650,10.5033092,0.2226596,-1.0366840,37.6412201,-250.1374054,-250.1374054,-1.3096216,1.5993185,10.3405046,1.7404580,-1.9847329,-1.9618320
7660,7.6566176,0.4596844,2.8395088,-22.1679382,-250.1374054,-217.6564941,-1.2425843,1.5681942,10.3045912,0.7633588,-3.0610688,-1.8473282
7670,6.3948798,2.6312141,3.0645626,-56.9312973,-189.9313049,-118.7709961,-1.1827296,1.5873476,10.2686787,-0.4198473,-4.5648856,-2.2213740
7680,7.0748301,3.7277529,3.6655040,-69.9923630,-27.7251911,-35.0610695,-1.0510491,1.4796091,10.3596573,-1.6183206,-5.7938933,-2.5801528
7690,7.7452030,4.2137733,3.4308734,-70.2900772,77.4732819,18.3435116,-1.0510491,1.4125718,10.5296450,-2.0152671,-6.1984735,-3.1984732
7700,8.4730368,4.3095412,3.0310438,-66.4732819,134.7404633,47.8167953,-1.0103480,1.3622938,10.6637201,-1.5114504,-5.6030536,-4.2671757
7710,8.9734221,4.2233500,2.8538737,-64.3816757,154.2519073,58.7709923,-1.0725969,1.3383518,10.8121595,0.0916031,-4.0763359,-5.0687022
7720,9.0979195,3.8761928,2.8897867,-63.1374054,152.7862549,56.9465637,-1.1659702,1.2737088,10.7977943,1.6335878,-2.1068702,-4.8167939
7730,9.0428534,3.5745249,3.2106080,-60.4045792,149.8473358,48.9771004,-1.1755470,1.2545552,10.7092094,2.3893130,-0.9770992,-4.9923663
7740,8.2815018,3.3183465,3.6511390,-56.6488533,144.1221313,40.6870232,-1.2473727,1.3048333,10.5416164,3.2900763,-0.1755725,-5.1068702
7750,7.5464849,2.8658447,3.7445123,-54.0534363,133.8244324,36.2061081,-1.3287752,1.3527170,10.3644457,3.2748091,0.0610687,-5.3053436
7760,7.1586266,2.5162930,3.7277529,-52.6870232,117.2213745,35.4961815,-1.4006008,1.3407460,10.3141680,1.9923664,-0.8167939,-4.8778625
7770,7.3094602,2.3247581,3.8091555,-51.4580154,94.4656525,35.2824440,-1.4365137,1.3670821,10.3668404,0.5114504,-2.3435113,-4.3053436
7780,7.6278877,2.1356170,3.9839313,-50.3893127,68.8549652,33.0992355,-1.5035510,1.3215926,10.3069859,-0.4961832,-3.7862597,-3.9847329
7790,8.2767134,1.9009864,4.1491303,-49.3816795,43.4809151,27.9007626,-1.5250987,1.3455344,10.3117743,-1.1374046,-4.8473282,-3.8167939
7800,9.0189114,2.0853391,4.5298066,-47.4961815,25.6335869,19.9160309,-1.5107336,1.3551112,10.4745789,-1.6259542,-5.2671757,-2.6335878
7810,9.8520899,2.2936335,4.8625989,-44.3206100,22.2061062,11.9236641,-1.4460905,1.2641320,10.6014709,-1.5343511,-5.2977099,-2.7709923
7820,10.2040358,2.5857246,5.2241216,-40.6412201,31.8702297,5.1526718,-1.4604555,1.2808913,10.6086531,-0.8625954,-5.5954199,-2.2671757
7830,10.8815908,3.0525916,5.3414369,-37.1297722,55.0839691,0.8549618,-1.3886299,1.2689204,10.6206245,-0.2977099,-5.3129773,-2.1603053
7840,11.1521349,2.9951310,5.5114241,-32.5572510,89.0839691,2.0687022,-1.4508789,1.2689204,10.5009146,-0.0839695,-4.8396945,-1.5572519
7850,11.4968977,3.2297616,5.5377603,-29.2824421,132.8931274,3.6641221,-1.3694763,1.3359578,10.4721851,-0.0229008,-4.7709923,-1.2977099
7860,10.9534168,3.0023136,5.8825235,-30.3206100,169.8702240,5.5648856,-1.3694763,1.3598996,10.6254129,-0.0305344,-4.8549619,-0.8625954
7870,8.1570034,3.4141142,6.6917596,-75.2671738,45.2213745,16.2137413,-1.2449785,1.3790531,10.5009146,0.2213740,-4.8167939,-0.5267175
7880,11.8177195,2.7988074,5.6885943,-100.0534363,25.3129768,20.1908398,-1.1707586,1.4963684,10.4817610,0.5419847,-4.2519083,-0.5190840
7890,12.9980545,2.4348907,7.5919747,-108.9312973,24.2977104,12.6106873,-1.1444225,1.5370697,10.5344334,0.8396947,-4.3435116,-0.2900763
7900,14.8343983,2.0997043,8.1426382,-110.0839691,31.2595425,-4.4809160,-1.0797794,1.5945302,10.4314833,1.3587786,-3.6564887,-0.0229008
7910,16.7210197,1.9081690,8.9111729,-111.1984711,19.2824421,-33.4274826,-1.0295014,1.6017127,10.3644457,1.2900764,-3.4656489,-0.7251908
7920,18.9188843,1.8890154,10.4219065,-112.7786255,6.8625956,-81.7404556,-1.0438666,1.6567791,10.4314833,1.1679389,-3.0000000,0.1755725
7930,19.6126022,1.0295014,12.3635941,-92.6488571,18.4274807,-143.6641235,-1.0797794,1.7046629,10.2471304,0.5419847,-2.8015268,-0.0763359
7940,19.6126022,-0.2011119,13.9126348,-53.5725174,22.2671757,-199.9389343,-1.0702027,1.6160779,10.4099360,-0.0305344,-2.7480917,-0.4427481
7950,18.6220055,-1.3144100,14.2071199,-1.7175573,11.6717558,-249.5114441,-1.1085097,1.5945302,10.3309278,-0.5648855,-3.3053436,-0.6870229
7960,16.3930149,-2.0685797,12.9405937,43.2137413,-19.5725193,-250.1374054,-1.1252691,1.5634058,10.3620520,-1.3435115,-4.1755724,-0.8320611
7970,14.4656925,-2.1643472,11.2886028,70.4580154,-68.3740463,-250.1374054,-1.2114599,1.4317253,10.3524752,-2.4122138,-4.8854961,-1.1450381
7980,12.1409349,-1.0079538,9.8233595,80.6183243,-127.1832047,-250.1374054,-1.2234308,1.3790531,10.4841557,-2.8854961,-5.6412215,-2.2595420
7990,12.4904861,-1.3551112,9.0452480,74.6870193,-179.7404633,-250.1374054,-1.2162483,1.2665262,10.5320396,-3.0610688,-6.2748094,-2.8091602
8000,13.0483322,-1.6136837,8.8010406,59.2213745,-193.1068726,-250.1374054,-1.3407460,1.1635761,10.4961262,-2.6946564,-6.2977099,-2.9389312
8010,13.2015610,-1.8722562,9.0260944,52.0763359,-180.8091583,-250.1374054,-1.3958124,1.1324517,10.5727406,-2.0916030,-5.8702292,-3.1526718
8020,11.9853125,-2.3343346,8.4203644,50.0458031,-170.3587799,-250.1374054,-1.4963684,1.0725969,10.5487986,-1.4427481,-5.4656487,-3.3358779
8030,9.9287033,-2.7365584,7.5800037,44.6030540,-166.6717529,-250.1374054,-1.5586174,1.0558375,10.4769726,-0.9007633,-5.3358779,-3.3053436
8040,8.0803890,-2.8299320,7.0652533,37.7480927,-156.0000000,-250.1374054,-1.4796091,1.0247130,10.4889441,-0.4580153,-5.1755724,-3.2290077
8050,6.4978304,-2.7389526,6.7947097,31.4809170,-149.5725250,-250.1374054,-1.4700323,1.1013272,10.4769726,-0.2213740,-5.6564884,-2.7404580
8060,5.0086441,-2.3870070,7.1370788,28.3511448,-145.2290039,-250.1374054,-1.3910241,1.1731528,10.5176744,-0.1908397,-5.5114503,-2.4503818
8070,3.5745249,-2.0350611,7.3046722,28.8778629,-138.8549652,-250.1374054,-1.3646880,1.1731528,10.5727406,0.1603053,-5.2137403,-2.4961832
8080,2.1260402,-1.6950861,7.3118544,31.4427490,-133.1145020,-250.1374054,-1.3551112,1.2689204,10.5631638,0.7862595,-5.1297708,-1.5877863
8090,0.6248835,-1.2689204,7.2879128,33.6564903,-123.2137375,-250.1374054,-1.3407460,1.3072275,10.5751352,1.2824427,-5.4045801,-1.8015267
8100,-0.5171449,-0.6560079,7.4219875,36.6641235,-108.2824402,-250.1374054,-1.2497669,1.4101776,10.5535870,1.6412214,-4.7175574,-1.4045801
8110,-1.6424140,0.2633608,7.5847921,41.0228996,-91.7862625,-250.1374054,-1.2952565,1.5083394,10.4937325,2.2900763,-4.4656487,-0.7557252
8120,-2.5186872,0.9241571,7.6183109,49.4351158,-78.0457993,-250.1374054,-1.1563935,1.6160779,10.3764172,1.8244275,-4.4732823,-0.4198473
8130,-3.4117200,1.2880739,7.1466556,59.2519073,-63.8167953,-250.1374054,-0.7326220,1.5274929,9.8712435,1.4961832,1.5954199,-0.3740458
8140,-4.3023586,2.0183017,6.6941538,67.6106873,-50.9618340,-250.1374054,-1.3096216,1.6328372,10.3668404,0.1145038,-5.7328243,0.1984733
8150,-4.7572546,2.2337787,5.6622581,74.3511429,-44.9618340,-235.2213745,-0.9816177,1.7070571,10.5416164,-1.6335878,-7.2290077,0.4122137
8160,-4.9655490,2.5330524,4.5393834,75.9083939,-44.5648842,-215.4809113,-0.8451489,1.6783268,10.4171181,-1.6030535,-6.9541984,0.1374046
8170,-5.2145448,2.8323262,3.8091555,71.5877838,-46.8854980,-195.4503784,-0.8906385,1.6184721,10.5080976,-1.4427481,-5.4656487,-0.4503817
8180,-5.4587522,2.8083842,3.4691806,66.7633591,-41.7328262,-176.0305328,-0.9145803,1.5514348,10.4554253,-1.6106870,-4.6488547,-0.9694657
8190,-5.5473371,2.6527619,3.5194585,63.7251892,-30.3129768,-156.2900696,-1.0151364,1.4796091,10.6086531,-1.1679389,-4.6870227,-1.7480916
8200,-5.8274570,2.6096666,3.2991931,60.4656487,-14.1755724,-136.5877838,-1.0271072,1.4101776,10.5009146,-0.7099237,-4.3740458,-2.8015268
8210,-6.1698260,2.5019281,3.1052637,55.2824440,4.7633586,-116.4885483,-1.2473727,1.3646880,10.5511932,-0.6259542,-3.7786260,-3.2442749
8220,-6.4547348,2.5186872,2.9472473,48.3358765,30.5648861,-95.3435135,-1.3407460,1.3239868,10.5200682,-0.2595420,-3.1755726,-3.8167939
8230,-6.9503322,2.4444675,2.7413468,40.3206100,58.6106873,-73.3893127,-1.4053892,1.3479286,10.4793673,-0.1755725,-3.5190840,-2.4198472
8240,-7.6111283,2.4564383,2.9256995,31.8473282,85.2366409,-51.0305328,-1.5298871,1.2761030,10.5272512,-0.1679389,-3.7786260,-2.1374047
8250,-8.4179697,2.3271523,3.2417326,28.1984730,100.1679382,-28.0916023,-1.3455344,1.3239868,10.5296450,-0.5343512,-4.3893127,-2.0381680
8260,-9.4307127,1.9273225,3.1699069,29.6106873,110.6488571,-1.1450381,-1.2737088,1.2282192,10.4243011,-0.8015267,-4.9618320,-1.9847329
8270,-11.3101511,1.8866212,2.4372849,30.7404575,119.2824402,34.6412201,-1.2162483,1.1851238,10.4626083,-0.9541985,-5.2748094,-2.3587787
8280,-13.5487185,1.6160779,1.8387375,28.3893127,133.9618378,85.1984711,-1.0893562,1.2665262,10.4889441,-0.6946565,-4.6488547,-1.8854961
8290,-15.4497042,1.0510491,1.5777708,19.5954189,147.0000000,147.9618378,-0.9959828,1.2593436,10.5918941,-0.0076336,-3.3053436,-2.0610688
8300,-17.5518036,0.8906385,1.9033806,8.5496187,151.8320618,223.8778687,-0.9457048,1.3000449,10.7858238,1.3435115,-1.2366412,-2.3206108
8310,-19.0912666,0.0311245,2.5019281,2.4198472,155.6030579,250.1297760,-0.9744351,1.4293311,10.7427282,3.0687022,0.3358779,-2.6793892
8320,-18.9667683,-1.1779412,3.5721307,3.2977099,162.8320618,250.1297760,-0.9696468,1.5562232,10.6230183,3.9160306,1.0992366,-2.7709923
8330,-16.3834381,-3.8091555,4.0030847,7.7709923,184.0458069,250.1297760,-1.0055596,1.5705882,10.4195127,3.6564887,1.8854961,-3.0152671
8340,-13.1488886,-6.3326311,4.4172797,5.6335878,230.1374054,250.1297760,-1.0965388,1.6352314,10.2112179,2.8167939,1.3893130,-3.3816793
8350,-9.2798786,-10.1034794,4.4843168,-5.4274807,250.1297760,250.1297760,-1.1420283,1.6543850,10.2279778,1.3740458,0.7328244,-2.9541984
8360,-2.7844424,-14.0826225,5.1355362,-26.2213745,250.1297760,250.1297760,-1.2737088,1.6376256,10.1848822,-0.4885496,-1.0763359,-2.4198472
8370,6.5720501,-17.6164455,4.0437860,-56.3358765,250.1297760,250.1297760,-1.1827296,1.6065011,10.4099360,-1.9923664,-4.3969464,-2.3587787
8380,17.2692890,-19.6131992,0.4429250,-127.8167953,250.1297760,250.1297760,-1.0893562,1.4413021,10.4099360,-2.6335878,-6.1145039,-3.5114503
8390,19.6126022,-18.3658276,-2.7437410,-239.3129730,250.1297760,250.1297760,-1.0414724,1.4532729,10.5344334,-2.3206108,-6.7404580,-3.8778627
8400,19.6126022,-8.1713686,3.4979107,-250.1374054,250.1297760,250.1297760,-0.9433106,1.3790531,10.7235746,-1.7175573,-5.9770994,-4.9847326
8410,19.6126022,-0.0215477,13.2255030,-250.1374054,250.1297760,250.1297760,-0.9935886,1.3742647,10.6302013,-0.5038168,-3.9236641,-5.6412215
8420,19.6126022,3.2225790,19.6126022,-250.1374054,154.0458069,171.0458069,-1.1037214,1.2617378,10.6685085,1.4656489,-0.7480916,-6.3511453
8430,19.6126022,1.8866212,19.6126022,-229.7633514,35.5954208,-56.8396950,-1.3646880,1.2761030,10.6493549,2.9312978,2.0610688,-6.3053436
8440,19.6126022,-0.7014975,19.6126022,-119.0992355,-23.3511448,-164.5648804,-1.6687500,1.2713146,10.4865494,3.6106870,3.3053436,-5.7099237
8450,13.2470503,-1.3168042,19.6126022,-22.0916023,-63.9007645,-189.0839691,-1.8531027,1.3215926,10.4841557,3.6335878,2.7328243,-4.5038166
8460,5.9232249,-0.8307837,18.1479568,43.7099228,-80.6641235,-154.6870270,-1.3886299,1.1516051,10.3093796,2.8931298,-1.9083970,-3.9389312
8470,2.7748656,0.7852941,13.0004492,73.4732819,-77.7480927,-94.6946564,-1.4245427,1.2282192,10.1322098,1.7099236,-2.0992367,-4.3511453
8480,2.6982515,2.4540441,9.1434097,71.3206100,-50.7633591,-36.3053436,-1.6328372,1.3191984,10.1896706,-0.2442748,-2.9770992,-3.9312978
8490,5.5928264,3.9001346,6.0213866,22.0229015,54.6106873,37.2442741,-1.5873476,1.2018831,10.5607700,-0.8931298,-4.4580154,-0.8473282
8500,5.9854736,3.5721307,6.1698260,3.9923663,104.2137375,52.7480927,-1.4436963,1.2162483,10.6182299,0.4503817,-4.5801525,0.3969466
8510,5.8657641,3.0071020,6.3158717,-4.0000000,138.6946564,62.3740463,-1.3742647,1.2473727,10.6517487,0.8625954,-4.1832061,-0.1221374
8520,5.6191626,2.6503677,6.3733325,-5.4122138,149.2061005,68.8167953,-1.2377959,1.3168042,10.5248566,1.0763359,-4.1068702,-0.6717557
8530,5.8897061,2.5402350,6.2703824,-3.2290077,132.6335907,70.9312973,-1.1348459,1.3479286,10.4865494,0.9618320,-4.6564884,-1.4122137
8540,6.2895355,2.4923513,6.3398137,0.9389313,99.3587799,67.2366409,-1.1683644,1.3814473,10.4578199,0.7175573,-5.1297708,-2.0305343
8550,7.9726510,3.2632802,5.1786318,-2.6259542,-17.4122143,35.5267181,-1.2593436,1.3263810,10.4626083,-1.6335878,-7.3969464,-3.4732823
8560,8.0803890,3.2058196,5.1666608,-11.8396950,-12.6030531,34.4427490,-1.2521610,1.3144100,10.6278067,-1.1832061,-6.3206105,-3.7328243
8570,8.4538832,3.4715748,4.9511838,-22.5267181,0.0305344,36.7022896,-1.2114599,1.2569494,10.5847120,-0.2671756,-5.3206105,-3.8702290
8580,8.9327211,3.6726866,4.6543045,-36.2442741,13.0152674,40.0076332,-1.1492109,1.3263810,10.4386663,0.4122137,-4.9236641,-3.8702290
8590,9.9598284,3.5697365,4.6112089,-52.3358765,21.1068707,39.3740463,-1.1276633,1.3168042,10.5152798,0.7709923,-4.0458016,-3.8015268
8600,11.1784706,3.4572096,4.7955613,-68.8702316,25.6488552,30.7786255,-1.2114599,1.4006008,10.4554253,1.1297710,-3.9770992,-3.9618320
8610,11.7411051,3.4093258,5.2696109,-85.1755753,24.9389305,17.4427490,-1.2306134,1.4460905,10.4147243,0.8244275,-4.0229006,-3.7557251
8620,12.4713326,3.0382264,5.6622581,-102.5190811,25.8778629,0.1450382,-1.1947005,1.5155219,10.4889441,0.9312977,-4.0000000,-4.2519083
8630,12.8567972,2.6360025,6.4499464,-118.8167953,34.0152664,-22.1984730,-1.2090657,1.6088953,10.4290895,1.2290076,-3.7480917,-3.8396947
8640,12.3707771,2.0350611,7.6422529,-131.2442780,36.7862587,-43.6564903,-1.1492109,1.6232605,10.5679522,1.4580153,-3.4351146,-3.1374047
8650,12.0475616,1.3694763,8.7818871,-138.7251892,31.8320618,-62.7251892,-1.1420283,1.6711442,10.5009146,1.6488550,-2.9083970,-2.7251909
8660,11.8536320,1.0749911,10.0412302,-140.3740387,19.6106873,-80.4427490,-1.0127422,1.6974803,10.5487986,1.9236641,-1.9618320,-2.4045801
8670,11.7267399,0.7038917,11.0922794,-136.3664093,10.9160309,-98.4809189,-0.9073978,1.6448082,10.4721851,1.8549619,-1.3816794,-2.6564887
8680,11.8344784,0.0957676,12.1457233,-123.4274826,14.4045801,-118.4274826,-0.8643024,1.5993185,10.4721851,1.4656489,-1.2595420,-2.7480917
8690,11.3987360,-0.0694315,13.4194317,-100.5038147,18.3358784,-138.4274750,-0.9241571,1.5945302,10.3764172,0.9007633,-1.1984733,-3.0458016
8700,10.8720140,-0.3639168,14.5063934,-67.7404556,13.1221371,-156.6870270,-0.9959828,1.6519908,10.4985209,0.8702290,-1.3893130,-3.3816793
