timestamp,rxacclX,rxacclY,rxacclZ,rxgyroX,rxgyroY,rxgyroZ,txacclX,txacclY,txacclZ,txgyroX,txgyroY,txgyroZ
0,4.2281384,9.0117292,-5.1163831,-56.8396950,24.7328243,8.7175570,-0.0335187,9.2559366,5.6622581,24.2824421,10.8702288,-0.5496183
10,3.7421181,9.6246414,-3.9049230,-42.2366409,12.2671757,-1.9770992,-0.3447633,9.9622221,6.4379754,27.4351139,-2.4656489,-3.0381680
20,3.2393384,9.4522600,-4.2472920,-39.7557259,9.8931293,0.8702290,-0.4237715,10.1010857,6.5696559,31.8778629,-2.6335878,-2.5114503
30,2.8466914,9.4091644,-4.7788019,-40.6793900,5.3282442,6.2671757,-0.5195391,10.1513634,6.8234401,37.8244286,-2.4961832,-0.4961832
40,2.7820482,9.3517036,-4.7357068,-41.2595406,-1.0610687,11.3816795,-0.5865764,10.2136126,6.9000540,44.8015251,-2.1221373,1.8091604
50,2.3917952,9.3181858,-4.5441718,-38.8854980,-10.7328243,16.9389305,-0.5267217,10.2064295,6.6630292,52.1145020,-1.5190840,3.0229008
60,1.9464760,9.3181858,-4.6040263,-33.7251892,-22.5572510,25.4656487,-0.4381367,10.2399483,6.4499464,58.5877876,-0.9236641,5.4885497
70,2.0877333,9.4450769,-5.0349803,-29.9465656,-30.9236641,34.2366409,-0.3806761,10.2423429,6.2967181,64.1297684,0.2366412,6.8473282
80,2.0542145,9.6126709,-5.6718349,-29.2519093,-34.6488533,40.9618340,-0.3591284,10.3428984,6.0094156,68.9007645,1.6030535,6.9694657
90,1.3407460,9.8353300,-6.8114691,-33.1297722,-40.1984749,48.7404594,-0.4237715,10.3812056,5.8274570,74.2900772,4.2290077,7.9083967
100,1.2018831,10.0196829,-7.5129666,-44.3053436,-47.0076332,57.4045792,-0.5626345,10.3548698,5.5952206,79.0457993,7.1221375,9.9083967
110,1.3694763,10.1441803,-7.1514440,-55.2213745,-54.6870232,62.2900772,-0.7469871,10.3596573,5.3941088,82.9236679,8.7938929,12.9541988
120,1.3144100,10.0532017,-6.6486640,-59.3511467,-66.0610657,65.4122162,-0.8595140,10.3357162,5.0661049,85.7022934,8.5419846,16.3511448
130,1.6376256,10.0172882,-6.3158717,-60.8702278,-71.7022934,69.2442780,-0.8858501,10.1800938,4.5393834,86.8702316,6.7938933,19.9312973
140,1.7884595,10.1896706,-5.3821378,-56.8854980,-68.4656525,70.3358765,-0.7565638,10.0412302,4.2568688,86.3816757,4.2519083,24.0305347
150,1.0175306,10.4410601,-5.2360926,-46.4122124,-66.3358765,72.0076370,-0.6248835,9.9119444,3.9312592,84.3053436,1.5343511,26.0381680
160,-0.1173153,10.5033092,-6.9407554,-42.2748108,-62.8244286,79.4274826,-0.4548960,9.5599985,3.6678982,81.4045792,-1.0534351,28.2061062
170,-0.8068419,10.7690639,-8.2240410,-48.2061081,-55.8320618,90.0305328,-0.3519458,9.4331064,3.3614421,77.9389343,-4.8091602,28.3969460
180,-2.3199697,10.7139978,-9.1936874,-60.2748108,-51.2519073,104.3129807,-0.2035061,9.2296000,3.2489152,74.6793900,-8.8549614,29.4580154
190,-3.7804251,10.5871058,-9.1098909,-71.3511429,-54.5114517,127.8625946,-0.1484398,8.9303265,2.9448531,71.3435135,-12.2290077,29.7938938
200,-4.9224534,10.0771437,-8.3796635,-74.4809189,-68.8549652,159.6030579,0.0550664,8.6645718,2.7461352,67.2900772,-14.9465647,30.5496178
210,-5.0254035,9.3110027,-8.0875721,-74.0610657,-84.9694672,192.8778687,0.2274480,8.3222027,2.3917952,62.6641235,-17.4122143,30.1450386
220,-3.8259149,8.9279327,-6.8330169,-68.0992355,-95.4961853,223.8702240,0.4022238,8.0492649,2.2553265,57.7480927,-19.2061062,30.5954189
230,-2.2194135,8.3293848,-5.9112539,-55.4961815,-98.1908417,243.8625946,0.6153067,7.7356262,2.0326669,52.6335869,-19.9236641,28.7251911
240,-1.6735384,7.6183109,-5.5281835,-41.2519073,-92.9923630,250.1297760,0.7948709,7.5033898,2.0733681,48.3206100,-19.8091602,27.2824421
250,-1.0749911,6.9311786,-6.3350253,-36.4351158,-78.9465637,250.1297760,0.9097920,7.2711535,2.0350611,45.0305328,-19.4961834,25.0229015
260,0.0670373,6.0716643,-6.5888095,-39.4274826,-56.2671738,250.1297760,1.0678085,6.9958215,1.9488702,43.1374054,-18.6870232,23.1832066
270,1.3168042,5.6119800,-6.6414814,-44.3816795,-34.6870232,250.1297760,1.2354017,6.8473821,1.9368993,41.6717567,-17.6488552,21.2442741
280,2.7533178,5.2408805,-6.3829093,-48.3587799,-20.2900772,250.1297760,1.3455344,6.7420373,1.6328372,40.1526718,-17.1679382,17.9541988
290,4.0294209,5.1020179,-6.0453281,-49.9541969,-13.6030531,250.1297760,1.4269369,6.7085190,1.2330076,37.6335869,-16.6564884,14.5419846
300,5.0852585,4.5800843,-5.8274570,-50.9236641,-14.2900763,250.1297760,1.4891858,6.7994981,0.9337339,34.0228996,-15.2442751,10.6106873
310,6.0549049,3.5146701,-6.0836353,-57.2366409,-15.6793890,250.1297760,1.5442522,7.0197635,0.8259954,28.9541988,-13.5572519,7.0305343
320,6.6941538,1.9871773,-5.9830794,-69.3893127,-17.1145039,244.2824402,1.2856797,7.2041159,0.5841822,22.7557259,-11.8625956,3.0076337
330,7.1083484,-0.1197095,-5.7436604,-85.9007645,-20.3740463,220.6946564,0.9624642,7.4626884,0.5674229,15.7862597,-11.5954199,-0.2137405
340,8.3269911,-3.3710186,-4.9918852,-103.7709961,-27.8091602,192.3206177,0.7014975,7.7643566,0.5243275,7.7786260,-13.3816795,-0.7862595
350,10.2279778,-7.1466556,-3.7780309,-120.4885483,-40.2748108,155.9465637,0.5243275,7.9822278,0.7302278,-0.2137405,-16.0839691,-1.2442749
360,12.7873659,-11.9374285,-2.2601149,-136.3435059,-53.0458031,110.9770966,0.3471575,8.2264347,0.8044477,-7.3740458,-18.7175579,-1.4580153
370,16.0674057,-16.6013088,0.2992737,-150.6488495,-68.2900772,59.9541969,0.2849085,8.4395180,1.1492109,-12.7709923,-21.2442741,-2.4045801
380,19.6126022,-19.6131992,5.5808558,-150.2671814,-78.0687027,8.9236641,0.3710994,8.7579451,1.5035510,-15.5419846,-22.3129768,-2.9465649
390,19.6126022,-19.6131992,10.6613255,-133.0992432,-70.9465637,-26.7786255,0.4884146,9.0380650,1.6663558,-16.0687027,-21.5648861,-4.3206105
400,16.0841656,-19.6131992,9.2104464,-126.6641235,-26.9541988,1.9541985,0.4453192,9.2966375,1.8435259,-14.4580154,-19.7786255,-6.0458016
410,7.6254935,-15.4616756,8.3724804,-151.8931274,57.5343513,134.9465637,0.4955972,9.5767574,1.9728121,-11.2748089,-16.2900772,-8.3358774
420,8.4299412,-4.5178356,13.3140879,-158.2290039,125.7938919,250.1297760,0.5027798,9.9119444,1.9345051,-6.7786260,-13.1450386,-10.3587790
430,19.6126022,0.6512195,19.6126022,-99.4885483,121.5954208,250.1297760,0.3687052,10.2112179,1.9009864,-2.9923663,-9.4045801,-10.9618320
440,19.6126022,6.5289545,19.6126022,22.6106873,84.4961853,250.1297760,0.2801202,10.4913378,1.7645177,-0.3053435,-5.7099237,-10.0458012
450,19.6126022,10.6397781,19.6126022,156.1908417,41.8473282,129.5190887,0.1819584,10.6637201,1.6902977,0.9541985,-2.7938931,-9.9160309
460,19.6126022,10.0508070,11.1928358,245.2366486,-18.1755733,-81.0687027,0.2370248,10.8193426,1.6232605,0.6870229,-0.9694657,-9.2519083
470,19.6126022,4.2640514,-0.5698171,250.1297760,-28.7022896,-250.1374054,0.2513899,10.9222927,1.6280488,-0.3664122,-0.2977099,-8.3587790
480,19.6126022,-3.4189026,-9.6030941,191.0381622,5.7480917,-250.1374054,0.1795642,11.0827026,1.7669119,-1.9007634,-0.9694657,-7.1374044
490,19.0074692,-10.0316534,-13.3571825,81.1450348,51.7480927,-250.1374054,0.1077385,11.1329813,1.8339491,-3.7251909,-2.6564887,-4.9847326
500,13.7378588,-12.6987810,-11.8177195,-31.9618320,101.7862625,-250.1374054,0.1795642,11.1425581,2.0183017,-4.9923663,-4.9083967,-3.4809160
510,10.4841557,-11.8656025,-5.3773494,-101.1145020,125.2442780,-250.1374054,0.1819584,10.9989061,2.2816625,-5.4732823,-6.7022901,-1.7099236
520,9.6174593,-10.2399483,0.9983770,-115.1755753,111.6793900,-250.1374054,0.1891410,10.8528605,2.3917952,-4.8320613,-7.9923663,-0.4732825
530,9.9191265,-8.6693602,6.5074067,-90.7557220,73.7175598,-250.1374054,0.1053443,10.7690639,2.6240315,-3.0992367,-7.9312978,0.5267175
540,10.4721851,-6.9886389,9.7323799,-41.4732819,49.9465637,-250.1374054,0.0095768,10.4721851,2.8299320,-0.1755725,-6.3053436,3.1603053
550,9.6868906,-5.5569139,9.3133974,19.1374054,70.2595444,-250.1374054,-0.0766141,10.3381100,2.8251436,3.9312978,-4.7175574,4.7022901
560,7.6925306,-4.7452836,6.9670911,70.7786255,105.1679382,-250.1374054,-0.0335187,10.1393919,2.7868366,7.6183205,-3.0687022,6.7175574
570,5.7723908,-4.3167233,3.2177906,102.5190811,127.6717529,-250.1374054,0.0383070,9.8903971,2.7293761,10.8167934,-0.8396947,8.1679392
580,5.1882086,-2.6862805,0.0167593,116.8015289,135.3053436,-243.0686951,0.0742199,9.6701307,2.5498118,12.7709923,1.2748091,8.5419846
590,5.8777351,-0.6105183,-1.5538290,119.9236679,138.3358765,-211.9465637,0.0383070,9.4857788,2.2481439,13.8244276,2.1297710,10.5877867
600,5.4683285,2.0685797,-3.1675127,121.4732819,139.5190887,-195.1984711,0.2537841,9.2535419,2.0925217,13.7557249,1.1984733,12.1068707
610,3.6080434,5.2983413,-5.3390427,113.1526718,132.4656525,-183.8473358,0.4237715,9.0644016,1.9440818,12.1755724,0.7404580,13.0916033
620,1.9057748,8.5304966,-7.1107426,87.4732819,120.7480927,-172.9541931,0.7517755,8.7986460,1.7046629,9.7862597,0.3358779,12.8473282
630,1.4532729,9.9167328,-7.5847921,51.9694672,98.2366409,-165.5343475,0.9744351,8.6765423,1.5059452,6.5801525,-1.0229008,11.6717558
640,1.9704180,10.0651722,-6.3015065,23.6641216,80.1068726,-163.0610657,1.3359578,8.4993725,1.4508789,3.3511450,-1.9007634,9.1908398
650,-0.2896969,11.2526903,-4.6399393,5.0152674,85.4809189,-145.4351196,1.6112895,8.4347296,1.2162483,-3.1755726,-1.0458015,2.0152671
660,-0.9241571,12.4473906,-4.4484038,4.1450381,95.5038147,-127.1679382,1.6759326,8.5304966,1.1851238,-6.4961834,0.6488550,-1.3053435
670,-1.5083394,13.6540623,-4.1706781,6.1755724,105.0916061,-109.2213745,1.5849534,8.5185261,1.1923064,-9.5190840,3.2748091,-4.8015265
680,-2.0853391,14.7529955,-3.4260850,15.6564884,104.4885483,-94.1450348,1.3982066,8.6047173,1.2641320,-12.3816795,5.5267177,-7.0381680
690,-2.0111191,14.9852314,-3.3710186,29.5343513,88.2061081,-80.9923630,1.3335636,8.6238708,1.4317253,-13.6259546,7.5267177,-8.1832066
700,-1.6088953,15.3730907,-4.0366035,42.6412201,71.8167953,-69.0763321,1.1994889,8.7842808,1.6088953,-14.3206110,8.1755724,-9.2824430
710,-0.9217629,15.5765963,-4.1874375,53.0152664,54.8854980,-59.8396950,1.2282192,8.9279327,1.4604555,-14.5496187,9.3740454,-8.9160309
720,-0.4477134,15.8998117,-4.4579806,59.9771004,38.9694672,-50.1908379,1.2473727,9.2391768,1.3598996,-15.7862597,9.9770994,-9.4351149
730,-0.3974355,15.8279867,-5.0038562,63.0610695,28.8549614,-37.0839691,1.1635761,9.4355011,1.3144100,-18.2824421,10.6412210,-10.0916033
740,0.1436514,15.7178535,-5.2456689,61.9541969,26.5954189,-21.0152664,1.0223188,9.6318245,1.3694763,-21.3893127,10.5114508,-9.6412210
750,1.0223188,15.4401274,-4.4340386,63.0839691,29.2900772,-9.1297712,1.0271072,9.7730818,1.5562232,-24.3740463,10.1526718,-9.7328243
760,1.6519908,15.0043850,-3.8330972,69.4122162,30.2366409,-1.1450381,1.0151364,10.0268650,1.7381816,-26.4885502,8.8931293,-8.9694653
770,2.6240315,14.3962612,-3.2537034,78.3587799,26.2290077,4.4961834,0.9959828,10.1561518,2.0757623,-27.5496178,7.9541984,-9.3358774
780,3.8929520,13.4936514,-2.9041519,90.2137375,15.9007635,3.4274809,0.7924767,10.3117743,2.2792683,-26.6564884,7.8931298,-8.5419846
790,5.2648225,12.7490587,-2.8059900,100.6641235,3.2671757,-6.1679387,0.8188128,10.3835993,2.5210814,-24.5190830,8.5877867,-7.5877862
800,5.8011212,11.9039097,-3.3422885,109.0992355,-9.1374044,-22.7404575,0.7589580,10.4338779,2.6910689,-22.2595425,9.7404585,-7.2900763
810,5.4324160,10.9917240,-4.2832050,108.9236679,-21.7862587,-42.6030540,0.6871324,10.4673967,2.7796540,-19.9083977,10.4580154,-6.5572519
820,4.4484038,10.1800938,-4.8003497,99.4809189,-32.9312973,-59.6793900,0.7709290,10.5344334,2.8490853,-17.2671757,11.0916033,-6.1145039
830,3.5410061,9.0883436,-4.4723458,84.5114517,-42.8702278,-69.8091583,0.8236012,10.5655584,2.8921809,-14.8625956,12.0534353,-6.2290077
840,3.0142846,8.1929159,-3.9192882,70.9847336,-49.7328262,-76.5496216,0.7302278,10.5559816,2.9783716,-12.6183205,12.9083967,-6.4351144
850,2.5881188,7.2543941,-3.0597742,61.2213745,-52.7328262,-82.5267181,0.5698171,10.5464048,3.2776453,-10.3435116,12.4961834,-7.0458016
860,1.8219782,6.3086891,-2.2529323,54.8549614,-54.9007645,-85.8854980,0.3734936,10.6230183,3.3470769,-7.9541984,10.7175570,-6.2366414
870,1.1587877,5.6359220,-1.3694763,53.0534363,-57.6030540,-84.9542007,0.2082945,10.6230183,3.4189026,-5.2366414,8.8015270,-4.5725193
880,0.6416427,4.8242917,-0.5913648,55.7175560,-60.1984749,-80.9236679,0.2322364,10.5679522,3.5817075,-2.4503818,7.2366414,-2.5801528
890,0.4740495,4.3430595,-0.2849085,61.3893127,-62.5877876,-74.4809189,0.2681492,10.4314833,3.5386121,0.3893130,6.2595420,-1.0381680
900,-0.1699875,3.5074875,-0.4022238,65.7099228,-61.3969460,-56.0381660,0.3950413,10.2806492,3.6511390,6.0916033,5.5419846,1.0992366
910,1.0797794,4.0916696,-1.5825592,7.7251906,15.6106873,-12.5267172,0.5315101,9.6509781,3.1387823,7.6946564,-0.0381679,7.7175574
920,1.1420283,4.4843168,-2.3678534,-4.6488547,30.7480907,-14.9847326,0.6177009,9.5552101,3.1746953,6.4045801,-1.2977099,8.5114508
930,0.3902529,8.4012108,-4.7069764,-68.3587799,72.2519073,8.7938929,0.9289455,9.3445215,3.1675127,3.9007633,-5.8931298,8.1068707
940,1.1372399,9.3947992,-4.4986820,-72.1297684,65.6106873,6.6564884,1.0342898,9.3636751,2.9735832,3.6183207,-6.7480917,7.4885497
950,-0.1915352,10.9582052,-3.2728570,-48.6641235,-8.5572519,0.9389313,1.1563935,9.3708572,2.6479735,-0.7099237,-11.6946564,7.8244276
960,-0.2633608,10.8935623,-2.9879484,-41.3129768,-19.7557259,9.6641226,1.3479286,9.4498653,2.6240315,-1.0305344,-11.9694653,7.1450381
970,-0.0430954,10.8456783,-2.6958573,-34.6488533,-24.1832066,19.4122143,1.4843974,9.5073261,2.4516499,-1.1526718,-11.9847326,5.3893127
980,0.2059003,10.7523050,-2.3606708,-28.7099228,-25.3587780,28.4885502,1.5873476,9.5815458,2.3774302,-1.2824427,-12.1984730,4.9923663
990,0.3088504,10.7044210,-2.2577207,-24.2671757,-24.4045811,36.4656487,1.6567791,9.6342182,2.3056045,-1.8778626,-12.2061071,3.9083970
1000,0.4572902,10.5799236,-1.9297167,-21.2290077,-21.6717548,42.7099228,1.7429699,9.6653433,2.1930776,-1.7709924,-12.3816795,2.9923663
1010,0.7302278,10.4721851,-1.4915800,-18.2671757,-17.8167934,47.0458031,1.6735384,9.7563219,2.2577207,-1.9541985,-12.2824430,1.9007634
1020,0.9720409,10.2998028,-1.1324517,-13.6106873,-13.9465647,49.5114517,1.6472024,9.7970228,2.1284344,-1.9694656,-12.3816795,1.5801526
1030,1.0845678,10.2710724,-0.9145803,-7.3816795,-11.5877867,49.9694672,1.5969244,9.7587166,2.1763182,-2.3511450,-12.8549614,1.3129771
1040,0.8427547,10.2447367,-1.2761030,-3.0152671,-13.8320608,49.4274826,1.6065011,9.7826586,2.1427996,-3.0305343,-13.5419846,1.0687023
1050,0.6224893,10.1729107,-1.4293311,-1.0687023,-16.5496178,49.7633591,1.6280488,9.7491398,2.0590029,-3.8549619,-13.5343513,0.9007633
1060,0.6631905,10.0436249,-1.5825592,0.3893130,-18.6564884,50.0839691,1.6041069,9.7060442,2.1427996,-4.9160304,-13.6335878,0.5954198
1070,0.9840119,9.5576038,-2.4205256,-0.7099237,-17.8625946,54.0916023,1.6328372,9.6030941,2.3941894,-6.5572519,-15.3893127,1.4045801
1080,1.5322813,9.4355011,-2.6455793,-3.4656489,-15.0000000,55.6335869,1.8243724,9.5671806,2.5450234,-7.4732823,-16.7633591,1.7709924
1090,2.0039365,9.3636751,-2.4229198,-3.0458016,-13.3893127,54.6335869,1.9799947,9.5671806,2.5330524,-8.1145039,-18.5419846,0.3129771
1100,2.1691356,9.3493099,-2.6743097,0.7786260,-14.9465647,52.5114517,2.1427996,9.6414013,2.6431851,-8.9007635,-20.2290077,-1.0229008
1110,2.0685797,9.4163475,-3.0980811,5.2671757,-17.3129768,51.8473282,2.1691356,9.7180147,2.7293761,-10.2748089,-22.0229015,-2.3587787
1120,1.8985922,9.6485834,-3.9049230,7.0534353,-19.7633591,51.8931313,2.2002602,9.7275915,2.9137285,-11.6488552,-24.2824421,-4.2977099
1130,1.6519908,9.8999729,-4.6686692,4.3587785,-21.5419846,51.4732819,2.2002602,9.7802639,2.9209111,-13.8167934,-26.1832066,-6.6870227
1140,1.3311694,9.8329363,-5.4635406,-2.3969467,-22.0458012,52.0839691,2.2337787,9.8233595,3.0382264,-16.0152664,-27.5190830,-9.0687027
1150,0.7972651,9.8664551,-6.3805151,-14.1603050,-21.2748089,56.0000000,2.0566087,9.6773138,3.3279233,-15.0534353,-27.6488552,-10.5114508
1160,0.3926471,9.9454632,-6.6726060,-28.8854961,-18.9083977,62.7099228,2.0590029,9.7299862,3.4859397,-13.9007635,-25.3206100,-13.6564884
1170,0.2849085,9.8903971,-6.2296810,-39.7938919,-14.6564884,70.3740463,1.4604555,9.3133974,3.8761928,-8.5725193,-22.8473282,-14.5572519
1180,0.0478838,9.9622221,-5.4204450,-44.1450386,-10.4732828,79.8396912,1.4676381,9.5959110,3.5649481,-4.8167939,-19.2061062,-18.5343513
1190,0.2178712,10.5009146,-5.4228392,-44.1832047,-8.3053436,89.7480927,0.9145803,9.2248116,3.5481887,-1.0152671,-17.2366409,-23.3435116
1200,0.1987177,10.7523050,-6.5600791,-47.0381660,-8.9618320,97.0229034,0.0694315,8.9877872,4.0413918,8.5114508,-11.9465647,-24.2213745
1210,-0.3327923,10.8983507,-8.4993725,-62.5954208,-10.1297712,105.9542007,-0.3471575,8.9255381,4.0485744,20.8854961,-1.0916030,-25.5572510
1220,-0.8834559,11.1138277,-9.6533718,-91.1832047,-7.4656487,120.6183243,-0.9504932,8.6885138,3.4452386,33.5572510,10.6412210,-27.8167934
1230,-1.9680238,10.5918941,-9.7539282,-123.8625946,-6.9541984,141.4198456,-1.7429699,8.6238708,2.7724714,42.9771004,19.4503822,-28.4656487
1240,-1.9177457,10.0771437,-6.3685441,-143.4351196,-9.9694653,168.0992432,-2.3678534,8.7603388,2.1475880,48.6564903,24.5801525,-26.2290077
1250,-1.1803354,10.6182299,-1.0917504,-117.0000000,-28.0916023,190.2519073,-2.4995339,8.9590569,1.5466464,49.8091621,24.3969460,-22.9236641
1260,-0.6775556,10.7403336,2.5617826,-48.2748108,-69.1221390,206.4503784,-2.9209111,8.9662399,0.8379663,45.7175560,19.9465656,-15.7480917
1270,-0.1173153,10.7954006,2.2146254,30.0381680,-111.3740463,218.6717529,-2.6719155,8.9997578,-0.0023942,36.3282433,7.5038166,-5.0000000
1280,0.5578461,11.5783005,-1.1085097,88.1755753,-134.7633514,224.3129730,-1.6591733,9.1505919,-0.9337339,20.9389305,-7.1297708,5.4045801
1290,1.1923064,11.6333666,-5.7939386,104.4732819,-139.0763397,223.9084015,-0.6727672,8.9877872,-1.3718705,0.2900763,-25.0152664,14.3740454
1300,2.0302727,11.6716738,-8.7890692,84.8244247,-118.0000000,217.5114441,0.7829000,8.9303265,-1.4748207,-19.4961834,-39.9618340,19.3893127
1310,2.9280937,10.8744087,-9.7060442,45.7786255,-81.3511429,204.2137451,2.3510940,8.8944139,-1.2162483,-37.9847336,-48.0992355,18.9694653
1320,2.2170193,9.7994175,-8.6765423,8.4961834,-50.9771004,191.7786255,3.5026991,8.6166878,-0.8020535,-53.3969460,-48.9083977,13.2595415
1330,0.8259954,8.7699156,-6.4954362,-11.5725193,-43.8931313,188.3969421,4.0389977,8.3724804,-0.0167593,-63.4045792,-44.5267181,3.3664122
1340,-0.2106887,7.6470413,-4.5561423,-10.4885492,-56.6564903,194.4809113,3.9480183,8.3269911,1.0031654,-66.4122162,-35.9847336,-9.0458012
1350,-0.6919208,5.9256191,-3.4476328,3.8854961,-74.9160309,207.7786255,3.4069316,8.4083929,2.3894010,-60.9312973,-25.1603050,-18.4656487
1360,-1.1037214,4.3957319,-3.7852135,20.0610695,-89.7328262,227.4351196,2.7054341,8.5544386,3.2177906,-49.0305328,-13.5267172,-23.8854961
1370,-1.1492109,3.3470769,-5.3749552,25.5496178,-93.1450348,250.1297760,2.0470319,8.7579451,3.5529771,-34.8778610,-1.4503816,-26.8320618
1380,-0.9169745,2.7341642,-6.3900914,17.2519093,-94.5419846,250.1297760,1.5849534,8.8824425,3.3638363,-22.1984730,7.9389315,-26.3129768
1390,0.0981618,1.5681942,-6.2608056,0.7709923,-98.8473282,250.1297760,1.1396341,8.9470863,2.9831600,-13.0000000,12.7175570,-25.9923668
1400,1.4389079,0.0023942,-4.5058646,-11.8625956,-101.6106873,250.1297760,1.0941446,9.2990322,2.4660151,-8.1145039,15.6106873,-24.5038166
1410,3.9192882,-1.8076130,-1.7333932,-10.7404585,-107.3893127,250.1297760,0.9792235,9.5623922,1.8004304,-8.6335878,19.1145039,-24.5343513
1420,7.6302819,-3.6583214,0.4213773,6.7251906,-120.6488571,250.1297760,0.6272776,9.5552101,1.3575054,-14.4503813,21.3664131,-25.2366409
1430,11.7554703,-6.4164276,1.9392935,32.7786255,-138.1984711,212.6641235,0.1915352,9.6821022,1.4963684,-22.6641216,20.5496178,-24.0534344
1440,17.3794212,-9.9837704,4.4555864,65.1450348,-156.9007568,131.6870270,-0.0718257,9.8377247,1.9464760,-30.4656487,16.3893127,-22.2061062
1450,19.6126022,-14.7194767,6.9311786,98.7328262,-171.1068726,23.4351139,-0.1197095,9.9406748,2.4253139,-36.0152664,10.2977095,-18.2061062
1460,19.6126022,-19.6131992,6.1722202,115.7557220,-156.9465637,-88.9770966,0.2202654,10.0436249,2.6551561,-40.3664131,4.6106873,-15.1450386
1470,19.6126022,-19.6131992,-3.2489152,55.6030540,-101.9007645,-124.1145020,0.6248835,10.3452930,2.9376705,-44.4656487,-0.1908397,-11.3587790
1480,11.2646618,-19.6131992,-8.5376797,-77.0076370,84.7404556,0.4732825,0.8666966,10.3620520,3.1962428,-48.2519073,-3.2290077,-8.6335878
1490,8.3988171,-10.8001890,-2.5354466,-176.7404633,243.4809113,170.7328186,0.9337339,10.4793673,3.6511390,-51.0534363,-5.0381680,-6.2290077
1500,13.4912577,-0.5674229,7.7835097,-218.8091583,250.1297760,250.1297760,0.9816177,10.4602137,4.0294209,-52.6106873,-5.2595420,-3.1984732
1510,19.6126022,9.5336628,19.4575768,-174.1145020,154.5572510,250.1297760,1.0606259,10.3357162,4.3717899,-52.6793900,-4.5725193,-1.4427481
1520,19.6126022,13.5942078,19.6126022,-34.5419846,43.1679382,226.2519073,1.1827296,10.4027529,4.8697815,-50.8473282,-3.2671757,-0.3816794
1530,19.6126022,11.8296900,19.6126022,139.7938995,-6.8396945,66.5954208,1.2258250,10.5104914,5.3031297,-47.1755714,-0.8473282,0.8549618
1540,19.6126022,6.7827387,12.3420467,250.1297760,-41.3282433,-141.0076294,1.2737088,10.6565371,5.6718349,-42.2824440,1.8931298,1.5343511
1550,19.6126022,-0.6416427,-1.9560528,250.1297760,-57.2595406,-250.1374054,1.3287752,10.7666702,5.9328012,-36.5267181,3.7709923,1.6183206
1560,19.6126022,-6.3613615,-13.5247765,231.0076294,-39.0992355,-250.1374054,1.1516051,10.9175043,6.3422079,-31.1221371,4.1832061,2.1755726
1570,15.8160152,-10.4051476,-19.3737812,79.0610657,2.5343511,-250.1374054,1.1587877,11.1353750,6.5959921,-26.0992374,2.5114503,2.3282442
1580,12.2869806,-11.4178896,-14.6452570,-59.7404594,41.8396950,-250.1374054,1.2306134,11.3436699,7.0197635,-19.8396950,-0.9923664,1.9541985
1590,12.0068598,-11.0850973,-7.0173693,-132.0458069,48.9160309,-250.1374054,1.1037214,11.4729557,7.3645267,-12.6488552,-4.7938933,0.8473282
1600,12.2893744,-10.2375546,-0.9959828,-145.3511505,40.2671738,-250.1374054,0.9768293,11.5759058,7.5776095,-3.8396947,-8.7328243,0.0534351
1610,11.0850973,-9.5192976,3.1244173,-124.8396912,24.0458012,-250.1374054,0.7038917,11.7506819,7.7475972,6.7480917,-13.0839691,-1.9465649
1620,10.1968527,-8.7603388,4.4436154,-86.4122162,20.1221371,-250.1374054,0.0454896,11.8392668,7.7882981,19.2519093,-17.6030540,-2.0534351
1630,8.5616217,-7.3884687,3.1363883,-46.5038185,47.6793900,-250.1374054,-0.7086801,12.0116482,7.3884687,32.7557259,-22.1297703,0.8702290
1640,6.3829093,-5.5640965,1.2713146,-20.9312973,81.7557220,-250.1374054,-1.1539993,12.1265697,6.9359670,45.2519073,-25.7328243,7.6259542
1650,3.5170643,-3.2752512,-0.9002152,-6.4809160,107.0152664,-226.7328186,-1.3383518,12.2271252,6.0285692,55.4503822,-26.0534344,18.0763359
1660,3.0621684,-0.6320660,-1.8794388,6.2290077,115.8473282,-186.9389343,-1.3886299,12.0619268,5.1475072,61.1297722,-23.3282452,28.8015270
1670,3.5960727,1.0271072,-2.7365584,22.9083977,105.9007645,-155.2824402,-1.3598996,11.8751793,4.5130472,63.0992355,-19.2442741,39.5419846
1680,5.6933827,2.3846128,-3.6583214,36.5114517,88.6488571,-135.2900696,-1.3144100,11.4705620,4.0174499,62.9771004,-13.0839691,48.6106873
1690,7.4076223,3.8426740,-4.7309184,45.2061081,76.4427490,-130.0305328,-0.8738791,11.0898857,3.8259149,60.8320618,-4.2213740,55.5267181
1700,7.7882981,5.8873119,-6.6582408,42.5114517,80.2137375,-136.4809113,-0.8595140,10.8097658,3.9144998,57.7480927,2.2900763,58.8931313
1710,6.2655940,8.0181408,-9.7347746,20.3129768,90.5496216,-147.7557220,-1.1683644,10.2878323,4.0964580,55.6259537,3.0839694,61.9618340
1720,4.4077029,9.1769285,-11.8105364,-20.2900772,92.6793900,-155.7633514,-1.1707586,9.7874460,4.2544746,54.6335869,-0.9083970,66.3358765
1730,3.2177906,9.7395630,-11.6429434,-64.4656525,83.4732819,-158.5038147,-0.9361281,9.2224178,4.0773048,54.5114517,-6.4122138,71.0076370
1740,2.8419030,9.2942438,-9.1601686,-94.8015289,57.4885483,-157.0305328,-0.3854645,8.6837254,3.7756367,53.7175560,-11.7328243,72.7251892
1750,2.9161227,8.8177996,-6.2775645,-105.2442780,36.1984749,-149.8702240,0.0814024,8.1139078,3.3279233,52.1068687,-15.9389315,71.7633591
1760,2.3079987,9.3708572,-4.3741841,-99.7480927,33.6564903,-136.9236603,0.5027798,7.4555058,2.8371146,49.5419846,-19.3740463,70.3129807
1770,1.5227045,10.7882175,-3.6439564,-89.0152664,39.7099228,-121.8854980,1.0414724,7.0317345,2.5761478,46.3053436,-22.6183205,67.5801544
1780,1.0678085,11.9589767,-3.8235207,-80.1526718,42.6641235,-111.7099228,1.4125718,6.5816269,2.2601149,42.8167953,-24.3740463,64.1145020
1790,1.0486550,12.9358053,-3.8115497,-77.6717529,40.8854980,-105.6259537,1.8650736,6.2991123,1.9081690,39.6106873,-24.3358784,59.5877876
1800,1.1875180,13.3667593,-3.4596038,-77.7175598,39.0916023,-102.1908417,2.3175755,6.0429344,1.7764885,36.5038185,-23.1908398,54.1221390
1810,1.0055596,13.0770626,-3.3877780,-75.1679382,36.5572510,-101.4351120,2.6312141,5.8585815,1.3934183,33.4274826,-21.0763359,47.6564903
1820,0.3184272,13.2518387,-3.2944047,-73.7099228,31.6717548,-97.9694672,2.8395088,5.7173243,1.1228749,29.3435116,-19.0458012,40.7633591
1830,-0.4429250,13.3045111,-2.6910689,-71.1221390,30.6335869,-90.5343475,3.0454090,5.6670465,0.9480990,24.3053436,-17.2671757,34.1832047
1840,-1.1683644,13.2183199,-1.9871773,-63.5114517,29.6717548,-81.4656525,3.2704628,5.6574697,0.7206510,18.6030540,-15.5572519,26.5038166
1850,-1.7525467,12.9094696,-1.1516051,-52.0076332,22.1679382,-70.0457993,3.3375001,5.8178802,0.6871324,12.1068707,-14.0305347,18.5114498
1860,-1.9895715,12.7107515,-0.3806761,-37.1984749,13.2366409,-53.5877876,3.4524212,6.0237808,0.7757174,5.6030536,-13.6717558,9.1526718
1870,-1.8866212,12.3013458,0.2394189,-20.7175579,3.2290077,-36.4656487,3.2991931,6.3015065,0.7062859,-0.6870229,-13.6030531,-0.6030535
1880,-1.3096216,11.8249016,1.0151364,-2.2213740,-8.7557249,-21.5572510,3.0071020,6.7085190,0.8068419,-6.8549619,-13.1984730,-7.7022901
1890,-0.8068419,11.2838144,1.7405758,19.9541988,-24.4198475,-10.4961834,2.5138988,7.1490498,1.0199248,-11.6259546,-12.6488552,-11.1603050
1900,-0.2801202,10.7116032,1.7238164,42.4198456,-39.0152664,-3.4122138,2.0446377,7.8744893,1.2354017,-14.2442751,-11.3587790,-11.4580154
1910,0.5841822,10.2782555,1.0893562,59.1984749,-48.7404594,0.1068702,1.8100072,8.4730368,1.4125718,-15.4427481,-9.5954199,-8.9618320
1920,1.5322813,9.9765873,0.4429250,68.0457993,-48.7328262,-2.1374047,1.6711442,8.9566631,1.4724265,-15.6717558,-7.3969464,-4.8015265
1930,2.3319404,9.5384512,-0.2944853,70.0610657,-41.5343513,-11.2290077,1.6950861,9.3780403,1.6591733,-15.1450386,-4.9007635,0.0992366
1940,2.6383967,9.1793222,-1.2425843,64.3893127,-30.1526718,-24.0000000,1.8531027,9.6916790,1.7477583,-13.3587790,-2.7786260,5.0839696
1950,2.3558824,8.9614515,-2.0973101,50.4351158,-15.5648851,-35.9694672,2.4684093,9.9119444,1.9536586,-9.8244276,-0.1297710,7.3511453
1960,1.8507085,8.4203644,-2.7820482,29.0839691,1.2137405,-43.7480927,3.0549858,10.1848822,1.9105632,-4.8167939,3.3435113,4.8778625
1970,1.2808913,8.0468712,-2.5282640,8.8854961,16.4732819,-47.0687027,3.5410061,10.6948442,1.9297167,0.0458015,7.3816795,-0.1984733
1980,0.5913648,7.6446471,-1.7429699,-6.2290077,24.5419846,-47.5648842,3.5841017,10.9797525,1.7693061,2.8396947,11.2061071,-6.0000000
1990,0.0359128,7.2304521,-0.9073978,-13.1374044,22.5114498,-44.3740463,3.3279233,11.2933912,1.5945302,2.8320611,12.2977095,-10.5419846
2000,-0.0694315,7.0628591,-0.0981618,-12.5190840,13.3435116,-40.1832047,2.8131726,11.3221216,1.6280488,0.6946565,10.8396950,-11.9541988
2010,0.1364688,6.9239960,-0.1580165,3.1832061,-2.9847329,-29.4809170,2.3654592,11.0300312,2.3199697,-7.1297708,-4.4503818,-14.8854961
2020,0.0766141,7.0772243,-0.6416427,0.8091603,-4.4885497,-25.2824421,2.1763182,10.7690639,2.5354466,-7.8244276,-8.3129768,-15.8320608
2030,0.1771700,7.1658092,-0.8259954,-4.5954199,-4.0000000,-22.1603050,1.9560528,10.4171181,2.8682389,-6.0610685,-9.2137403,-15.9923668
2040,0.2370248,7.2663651,-0.7757174,-11.5038166,-0.3969466,-19.4045811,1.8650736,10.1058741,3.3159523,-1.7328244,-7.0000000,-15.8244276
2050,0.3280039,7.5321202,-0.7206510,-18.3282452,6.5877862,-14.1145039,1.8291607,9.8329363,3.3327117,4.2137403,-3.6106870,-15.6488552
2060,0.4333483,7.9463148,-0.7469871,-22.6030540,13.2061071,-8.3816795,1.9057748,9.5839405,3.4691806,10.5343513,-0.5190840,-15.4045801
2070,0.5698171,8.3652983,-0.8954269,-25.8702297,14.9160309,-3.8091602,1.7501525,9.2966375,3.3231349,15.9618320,0.8702290,-14.5648851
2080,1.4580613,9.7323799,-0.7637464,-28.5725193,9.1374044,4.9465647,1.6543850,8.8776541,2.4133430,20.7938938,0.0839695,-10.6641226
2090,1.8890154,10.3309278,-0.3423691,-24.6412220,10.1984730,0.8549618,1.8147956,8.6334467,1.9297167,14.5725193,-2.3206108,-8.0305347
2100,1.7717001,10.6230183,-0.3830703,-21.9541988,12.1450386,-0.9312977,1.9153515,8.6645718,1.8626794,10.3893127,-3.6488550,-7.5572519
2110,1.4173602,10.6493549,-0.3495516,-19.4809170,11.9465647,-1.1145039,1.8746504,8.6502066,1.7453641,6.0381680,-5.0000000,-7.3969464
2120,1.1492109,10.7044210,0.0023942,-15.8854961,7.7328243,1.9618320,1.9416877,8.6382351,1.7836711,1.5114504,-6.2137403,-7.2824426
2130,1.1276633,10.7379398,0.2418131,-9.3816795,3.4274809,7.1450381,1.9680238,8.8034344,1.8291607,-2.7251909,-7.1832061,-7.4503818
2140,1.6998745,10.6661139,0.4022238,12.7862597,-5.6183205,19.8167934,1.8339491,8.9494801,1.9847831,-13.6793890,-6.3435116,-8.4274807
2150,2.0015423,10.6062593,0.0526722,17.2595425,-4.2595420,20.5419846,1.7357874,9.0907373,2.1811066,-16.0687027,-5.7251906,-8.6335878
2160,2.3223639,10.5152798,-0.1963235,18.0687027,-2.7175572,20.0381680,1.6687500,9.2511482,2.3391230,-17.3816795,-4.8473282,-7.7709923
2170,2.5115047,10.4147243,-0.1077385,16.8244267,-2.5954199,18.7175579,1.6519908,9.4019823,2.1595588,-18.5801525,-3.8244274,-6.7251906
2180,2.7126167,10.2710724,0.0957676,17.0687027,-2.7328243,15.3206110,1.6567791,9.6198530,2.1284344,-20.1755733,-2.9465649,-5.7404580
2190,1.4748207,8.7866755,0.1125269,15.2900763,-17.9236641,7.3740458,1.9871773,9.6725254,2.6383967,-37.0534363,-4.3893127,4.0076337
2200,1.6663558,9.1098909,0.3663110,15.5419846,-9.0839691,32.2290077,2.9711890,9.5456333,3.8522508,-31.3435116,-10.5114508,-3.0687022
2210,2.2313845,9.5240860,0.3567342,21.8244267,-9.6488552,33.7251892,2.9592183,9.6821022,3.9935081,-13.4198475,-5.1603055,-10.8549614
2220,2.1475880,9.7180147,0.2657550,28.4580154,-16.3969460,33.3816795,2.7844424,9.7850523,3.7660601,-4.7938933,-1.2366412,-12.0992365
2230,0.5315101,10.9941177,-1.1803354,38.6946564,-18.7404575,47.1679382,2.4779861,10.0148945,2.6240315,9.6488552,4.9312978,-10.0305347
2240,-1.5466464,14.4848461,-2.1835008,55.0534363,18.5801525,75.7633591,2.5713594,9.8425131,2.2888451,3.3664122,-1.0992366,-10.8244276
2250,-0.7350162,14.6141329,-2.5785420,65.9465637,18.8320618,79.2900772,2.5330524,9.8233595,2.4013720,0.7175573,-3.2595420,-9.5954199
2260,1.2737088,13.6540623,-4.2185616,91.4809189,-2.8702290,67.2519073,2.7940190,9.7994175,2.3894010,-3.0458016,-5.0076337,-7.2595420
2270,1.1803354,13.2039547,-5.3653784,95.6259537,-15.7633591,58.6183205,2.9496415,9.7946291,2.3463056,-5.3969464,-5.5496182,-6.3129773
2280,0.6631905,12.4210548,-6.0620875,94.3053436,-27.9160309,51.0076332,3.1363883,9.7874460,2.3391230,-8.1679392,-6.7709923,-4.8778625
2290,-0.1340746,11.5639353,-6.7324610,87.6870193,-36.8320618,47.1755714,3.1124463,9.7898407,2.5067163,-11.6946564,-8.5648851,-2.9770992
2300,-0.9457048,10.3548698,-7.4148049,75.3053436,-32.7022896,51.1450386,3.3255291,9.7180147,2.7174051,-15.3206110,-11.7938929,-1.8167939
2310,-1.8387375,9.3684635,-7.6757712,60.4580154,-14.0839691,64.3587799,3.3590479,9.6653433,2.7581062,-18.6564884,-15.4198475,-1.0992366
2320,-2.6838863,8.5735922,-7.4435349,47.4427490,2.5267177,83.5954208,3.5673423,9.6270361,2.9065459,-22.2366409,-19.0992374,-3.2977099
2330,-3.6295912,7.7667508,-7.4770536,37.6793900,8.7633591,107.1603088,3.6104376,9.7419567,3.0693510,-23.6564884,-19.7862587,-4.7633586
2340,-4.0940638,7.1251078,-7.0341287,30.0534344,10.3511448,134.3816833,3.1435707,9.2583303,3.6607156,-24.1068707,-19.9236641,-8.3893127
2350,-4.1611013,6.6869712,-6.4810710,25.5190830,9.7938929,163.8091583,2.7772598,9.1888990,4.1084290,-20.5648861,-16.4961834,-10.1145039
2360,-4.2137733,6.1650376,-5.8059096,24.7328243,7.0458016,194.9084015,2.6312141,9.2367830,4.3071470,-15.6564884,-11.6106873,-14.4503813
2370,-4.3119354,5.8561873,-5.5329719,27.1145039,1.3206106,227.7480927,2.1404054,9.0883436,4.4388270,-9.2442751,-6.1755724,-19.8244267
2380,-4.1802549,5.4491754,-5.9687142,27.5725193,-3.3893130,250.1297760,1.5155219,9.1122847,4.5202298,-1.9160305,0.2671756,-23.6412220
2390,-2.7796540,5.0780759,-6.0525107,25.1221371,-1.9618320,250.1297760,0.8523315,8.9590569,4.3885493,5.6717558,9.1297712,-27.5343513
2400,-1.3670821,5.2743993,-6.3086891,21.8320618,7.2519083,250.1297760,0.0143651,8.5352850,4.7764082,16.7251911,14.8473282,-30.5801525
2410,-0.6679789,5.7436604,-6.6175399,17.2900772,19.1450386,250.1297760,-0.8643024,8.3844519,4.5058646,29.1755733,21.0992374,-30.1603050
2420,-0.0790083,6.1746144,-7.3860745,6.9389315,31.5801525,250.1297760,-1.4029950,8.6478119,3.7923961,40.1908379,24.0152664,-27.8396950
2430,0.4596844,7.2448173,-8.1306677,-9.0916033,45.4656487,250.1297760,-1.7238164,8.0540533,3.5362179,50.1908379,24.1526718,-26.0916023
2440,1.6136837,7.4650826,-8.3700867,-27.3511448,51.1374054,250.1297760,-1.8243724,8.3485384,2.4468615,54.0687027,23.7251911,-21.1984730
2450,3.3997490,6.5552907,-8.7196379,-48.8854980,48.5114517,250.1297760,-1.4173602,8.7148495,1.0295014,46.6870232,16.4045811,-18.3893127
2460,5.7029591,4.3622131,-8.4179697,-72.4427490,36.2290077,231.0915985,-0.8547257,8.7292147,0.0885850,32.5725174,4.7786260,-13.8396950
2470,8.1402445,1.1587877,-6.5959921,-91.4274826,0.0305344,160.3969421,0.0287303,8.7986460,-0.4908088,13.8931293,-7.0687022,-9.0076332
2480,10.5631638,-4.1060348,-4.3670015,-103.1526718,-65.0534363,87.8015289,1.0845678,8.8010406,-0.4908088,-4.2519083,-18.7633591,-6.2213740
2490,15.4473104,-11.0228481,0.0263361,-107.3969498,-153.1984711,19.5343513,2.3391230,8.9375095,-0.5530578,-20.6259537,-25.7480907,-5.1068702
2500,19.6126022,-19.6131992,8.1258793,-95.4732819,-241.3206177,-35.3969460,3.3135581,8.9135675,-0.2944853,-35.2519073,-26.6412220,-8.6488552
2510,19.6126022,-19.6131992,12.0523500,-63.1603050,-250.1374054,-59.8167953,3.7756367,8.8585014,0.4764437,-45.0687027,-22.5572510,-14.0687027
2520,19.6126022,-19.6131992,10.6445665,-34.7099228,-108.7633591,0.5801527,3.4596038,8.6693602,1.5705882,-48.0992355,-16.1145039,-19.6335869
2530,7.7619624,-19.6131992,8.4490948,-33.1450386,92.0457993,172.1450348,3.0525916,8.7316093,2.5929072,-43.2824440,-9.1679392,-23.8473282
2540,5.0589223,-1.9943599,8.1474266,-66.2900772,198.6564941,250.1297760,2.6623387,8.9063845,2.9951310,-33.6793900,-1.9236641,-27.3511448
2550,17.0801468,3.4500270,11.8464499,-103.6335907,215.8473358,250.1297760,2.2361729,9.0404596,3.0023136,-23.4732819,5.9389315,-27.6641216
2560,19.6126022,5.3869262,18.5310268,-84.6564865,179.7251892,250.1297760,1.9081690,9.1577749,2.6695213,-15.9007635,11.9083967,-27.9007626
2570,19.6126022,10.3812056,19.6126022,17.9923668,126.9236679,200.2824402,1.7381816,9.1194677,2.3415172,-11.6717558,15.6335878,-27.3206100
2580,19.6126022,9.1434097,19.6126022,167.8320618,77.1832047,5.7480917,1.6112895,9.3205795,1.8650736,-11.4732828,18.4885502,-25.6564884
2590,19.6126022,4.2688398,10.1226330,250.1297760,29.9312973,-175.0686951,1.8124014,9.5671806,1.6208663,-15.5572519,19.4427490,-24.3435116
2600,19.6126022,-2.0733681,-1.0630201,250.1297760,-3.2824428,-250.1374054,1.7357874,9.6198530,1.6065011,-21.4961834,19.1679382,-23.2824421
2610,19.6126022,-7.2711535,-9.4115591,226.3587799,-8.1908398,-250.1374054,1.5035510,9.8233595,1.7669119,-28.8320618,18.5419846,-21.9618320
2620,17.2022514,-11.2000179,-13.3715477,108.5114517,7.1221375,-250.1374054,1.4460905,9.8233595,1.9967541,-36.4809151,16.3587780,-19.0763359
2630,13.8192616,-12.3109226,-11.9781294,-15.4961834,54.7404594,-250.1374054,1.2354017,9.6581602,2.5019281,-44.0458031,13.4732828,-15.4656487
2640,10.7331514,-12.3468351,-7.1083484,-99.7175598,93.0839691,-250.1374054,1.3096216,9.5815458,2.9592183,-50.0687027,8.7786255,-13.4732828
2650,8.4395180,-11.2072010,-1.5993185,-130.6106873,104.7862625,-250.1374054,1.5203103,9.5576038,3.4165084,-54.2671738,4.6259542,-12.1679392
2660,6.7971039,-9.6366129,3.1411765,-117.5190811,95.9083939,-250.1374054,1.6543850,9.6366129,3.8690102,-56.8396950,2.0229008,-10.3664122
2670,5.9711084,-7.6087341,5.3869262,-73.5114517,82.2748108,-250.1374054,1.8267666,9.7275915,4.3239059,-58.1679382,0.5648855,-9.0458012
2680,5.8274570,-5.7819676,4.8458395,-15.4198475,92.1755753,-243.7633514,1.8626794,9.6294298,4.7069764,-58.0458031,-0.1526718,-7.7404580
2690,6.0357518,-4.3981261,2.7437410,33.4045792,110.9618301,-206.9084015,1.8698620,9.7706871,4.9847026,-56.6259537,0.8396947,-7.8854961
2700,6.1985564,-2.7413468,-0.3280039,60.7557259,118.5801544,-173.2442780,1.6974803,9.7850523,5.3869262,-54.6870232,2.5648854,-6.8320613
2710,6.2584114,-0.4333483,-4.1515245,64.9465637,124.6412201,-143.9465637,1.5466464,9.7611103,5.6622581,-52.2290077,5.0687022,-6.0916033
2720,7.0484939,2.2864509,-6.7635851,48.5038185,133.3893127,-125.4961853,1.3910241,9.8042059,6.0764527,-49.0076332,7.4198475,-4.5801525
2730,7.1849627,5.1977854,-8.3030491,23.4656487,131.0458069,-118.8320618,1.2234308,9.8544836,6.5193777,-44.6259537,8.0916033,-4.4122138
2740,6.3685441,7.1753860,-8.6789370,-6.8778625,106.2977066,-122.7251892,1.1611819,10.0484133,6.7779503,-39.4122124,7.0610685,-4.4503818
2750,5.2600341,8.4467001,-7.7619624,-33.2671738,69.1068726,-128.4732819,1.1180865,10.2974091,6.9766679,-34.0610695,4.9312978,-3.5419848
2760,4.7668314,8.7004843,-6.2584114,-49.2213745,35.2595406,-129.0381622,0.9289455,10.3381100,7.1658092,-29.2366409,3.0381680,-3.1526718
2770,4.8649931,8.1761570,-5.2815819,-59.1832047,21.0229015,-126.4503784,0.8044477,10.3716288,7.4267755,-24.2748089,0.4580153,-2.2137403
2780,4.5274124,7.7475972,-4.9870968,-68.3664093,18.6259537,-118.6564865,0.7517755,10.4817610,7.4962072,-19.1984730,-3.4198472,-0.8091603
2790,3.6200144,8.7172441,-4.7285242,-77.9694672,27.9847336,-104.3664093,0.8236012,10.4578199,7.6111283,-12.9541988,-7.3969464,-1.2824427
2800,2.5378408,10.5847120,-4.6614871,-89.7709961,41.1755714,-88.7557220,0.8259954,10.4865494,7.6661944,-5.2519083,-10.5267172,-1.0687023
2810,1.8578910,12.7682123,-4.2544746,-104.3587799,45.0076332,-77.8473282,0.7924767,10.3979645,7.7404146,3.8625953,-12.9847326,-1.7251909
2820,2.2289903,13.3883076,-2.8706331,-114.8702316,32.4885483,-77.2137375,0.7230452,10.3165627,7.6350703,14.0610685,-13.8854961,-2.7938931
2830,2.6527619,13.4170380,-0.7398046,-115.8244247,10.1679392,-86.1984711,0.6129125,10.3021975,7.4698710,24.8473282,-13.7633591,-2.8091602
2840,2.8873925,13.0100250,1.0630201,-107.1603088,-10.0152674,-94.9694672,0.4237715,10.1633339,7.0341287,35.5877876,-13.1832066,-2.5343511
2850,2.1451938,12.3971128,2.0135133,-91.4274826,-18.5725193,-96.8091583,0.2849085,10.0675669,6.7324610,45.6335869,-11.1679392,-1.9923664
2860,0.5985473,12.4042959,2.0661855,-74.6946564,-14.1374044,-89.0687027,0.2705434,10.0986910,6.1674318,53.8015251,-7.4198475,-0.3969466
2870,-1.1109039,13.2494440,1.7094513,-59.1145020,-2.2442749,-70.3358765,0.1316804,10.0651722,5.6742291,60.2290077,-3.9694657,2.1526718
2880,-1.9560528,14.0491037,0.7637464,-48.4503822,6.4885497,-46.6946564,0.0383070,10.0005293,5.2336984,64.1221390,-0.9541985,4.6412215
2890,-1.3072275,14.5997677,0.3567342,-45.5877876,2.9083970,-26.8244267,-0.0359128,9.8496952,4.9080882,66.4198456,1.3206106,7.5725193
2900,0.0814024,14.7170830,1.0917504,-44.1526718,-11.4045801,-14.3893127,-0.1412572,9.6366129,4.4914994,67.5725174,3.9160306,10.5343513
2910,1.1013272,14.6739874,2.4205256,-36.6793900,-35.1374054,-7.0610685,-0.0909792,9.4331064,4.0318151,67.4656525,6.2137403,13.6335878
2920,2.0685797,14.5231533,3.6463506,-19.4122143,-60.3053436,-5.4885497,-0.0191535,9.2176294,3.6774750,66.3282471,6.7328243,15.9083967
2930,2.9568241,13.8551741,4.6399393,26.4732819,-97.5190811,-12.9770994,0.2226596,8.6956959,3.1914546,61.6641235,4.8473282,20.4427490
2940,3.1435707,13.4840746,4.3717899,46.7480927,-98.7709961,-16.9007626,0.4644727,8.4275465,2.8419030,57.9160309,3.4885497,21.3053436
2950,3.3470769,13.0411501,3.7062054,58.2595406,-92.5343475,-19.7404575,0.8140244,8.2264347,2.4420733,53.6488533,1.4885496,20.2671757
2960,3.5721307,12.6125898,3.2130022,62.4885483,-84.3587799,-22.1145039,1.0414724,7.9582858,2.2529323,48.4656487,-0.6717557,19.5877857
2970,3.7493007,12.2295198,3.1411765,62.1603050,-77.3893127,-22.1679382,1.1947005,7.8050575,2.0853391,43.3435097,-2.5877862,17.5114498
2980,4.4364328,11.9877062,3.3734128,62.3435097,-68.1603088,-22.5038166,1.4460905,7.6278877,1.9608412,38.0076332,-3.6030533,15.8396950
2990,5.2145448,11.4921093,3.5003049,65.5496216,-56.8320618,-28.9618320,1.6065011,7.5297260,1.7333932,32.5496178,-4.1832061,13.1068707
3000,5.6000090,10.8145542,3.6152260,70.1297684,-50.6488533,-41.8396950,1.7286048,7.3190370,1.5873476,26.4122143,-4.2748094,10.1755724
3010,5.5617023,10.4578199,3.3925664,75.2061081,-48.3206100,-56.0687027,1.8267666,7.2879128,1.6160779,20.1908398,-4.1145039,8.1526718
3020,3.9911139,8.8920193,2.3079987,80.8396912,-50.5114517,-76.0457993,2.1188576,7.1610208,1.3575054,7.4351144,-3.2824428,0.0000000
3030,2.8059900,7.6350703,1.5777708,78.1679382,-49.4427490,-83.4580154,2.0709739,7.4459291,1.6567791,-5.5648856,-1.9847329,-12.2977095
3040,2.0613971,6.9646969,1.1875180,75.5954208,-45.8854980,-84.7328262,1.7286048,7.6590118,1.7980363,-10.6717558,-2.0687022,-16.3664131
3050,1.3862357,6.5098009,0.5410868,71.1679382,-39.6870232,-82.7328262,1.5179161,8.0085640,2.1236460,-14.3740454,-2.5038168,-18.5496178
3060,0.5793939,6.1051831,0.0143651,64.8778610,-33.1908379,-78.4122162,1.3048333,8.3317795,2.2840567,-17.0534344,-3.0839694,-20.0916023
3070,-0.0742199,5.7867560,-0.3974355,56.9389305,-30.1297703,-72.2290039,1.2401901,8.6358414,2.3917952,-19.0152664,-3.0763359,-22.2213745
3080,-0.6320660,5.5617023,-0.5219333,49.1526718,-29.7633591,-64.2595444,1.0773853,8.8896255,2.5881188,-21.1450386,-3.4427481,-24.2519093
3090,-1.0151364,5.4874821,-0.3950413,43.4503822,-30.5267181,-55.6259537,0.8978211,9.3157911,2.7293761,-22.7022896,-4.1526718,-25.8473282
3100,-1.0486550,5.4395986,-0.3806761,39.2900772,-32.6030540,-47.8778610,0.6536137,9.5839405,2.9113343,-23.4198475,-3.8091602,-26.4885502
3110,-1.0414724,5.2911587,-0.2226596,36.6259537,-34.0763359,-40.7175560,0.4333483,9.8880024,3.0908985,-23.2137413,-3.5038168,-26.2366409
3120,-1.0510491,5.3151007,-0.0718257,35.3969460,-35.8167953,-33.4122124,0.0885850,10.1896706,3.3638363,-22.1526718,-2.4198472,-25.1145039
3130,-0.9457048,5.5042415,-0.1101327,35.1221390,-37.7022896,-26.8625946,-0.0694315,10.4338779,3.5242469,-20.2595425,-1.1450381,-24.1068707
3140,-0.8140244,5.7532372,-0.4381367,34.8320618,-38.2442741,-20.8702297,-0.2154770,10.5368280,3.6702924,-17.6717548,-0.2595420,-22.9007626
3150,-0.6823440,6.0453281,-0.9121862,31.6259537,-35.0228996,-13.5267172,-0.3040621,10.7139978,3.8666160,-14.2061071,0.7251908,-21.1374054
3160,-0.3950413,6.6079631,-1.4628497,23.2977104,-28.6412220,-5.6564884,-0.4836263,10.8624372,3.9264708,-9.9236641,1.7022901,-19.3893127
3170,0.3926471,7.1993275,-1.7262106,11.7633591,-17.6717548,2.1221373,-0.6392486,10.8791971,3.8761928,-5.9083967,1.9618320,-15.5877867
3180,2.0087249,8.0037756,-1.8028246,-4.7709923,1.7022901,6.9847326,-0.4716553,10.8624372,3.7804251,0.8015267,2.7404580,-8.5877867
3190,2.4444675,8.6358414,-1.8674678,-9.6030531,7.0534353,4.6106873,-0.3543400,10.8001890,3.5553713,3.1908398,4.3206105,-5.9083967
3200,1.4652439,10.0962973,-2.9137285,-19.8625946,9.6259546,-4.6412215,0.1556223,10.4530315,3.2082138,7.3129773,8.5038166,0.1526718
3210,1.3287752,10.5080976,-2.9568241,-22.3740463,2.5801528,-3.5114503,0.1819584,10.3644457,3.0573800,8.5725193,9.9007635,2.4809160
3220,1.3742647,10.8504667,-2.9161227,-22.0152664,-3.3358779,-1.5801526,0.2011119,10.1585455,3.1866663,9.3587790,11.3206110,4.5038166
3230,1.1755470,11.0491848,-2.9711890,-18.6259537,-6.8167939,-0.9007633,0.2896969,10.0053177,2.9855542,9.5419846,12.4274807,6.6106873
3240,0.9265513,11.3053627,-3.1435707,-13.8091602,-7.9236641,0.1984733,0.3327923,9.8401184,3.1028695,9.5267172,13.2519083,9.3893127
3250,0.5051740,11.5687237,-3.2680686,-7.3129773,-6.9847326,3.3740458,0.4764437,9.6318245,3.0023136,9.0992365,14.0076332,11.5648851
3260,0.2633608,11.8009596,-3.5912843,0.9007633,-3.2977099,6.4732823,0.5913648,9.4977493,2.9855542,8.1603050,14.4809160,12.8167934
3270,0.0837966,12.1026278,-4.3382711,8.6030531,4.0916033,9.6488552,0.7038917,9.3852224,3.0765336,6.8778625,15.1908398,13.4045801
3280,0.9552816,13.0626974,-11.0132713,20.2290077,11.2748089,-0.4427481,0.9385223,9.0380650,3.5649481,-5.2061067,6.1526718,12.0000000
3290,0.9097920,13.1129761,-11.3484583,5.8320613,-30.2748089,-8.5114508,1.0510491,9.0691900,3.7301471,-6.1755724,5.1832061,11.9312973
3300,0.6488253,12.4737272,-10.1465750,-11.1145039,-59.0228996,-22.6564884,1.0654143,9.0452480,3.8594334,-6.7175574,3.9618320,11.0152674
3310,-0.3327923,11.6620970,-8.6693602,-24.8625946,-73.8625946,-30.7328243,1.0414724,9.1122847,4.0174499,-6.7709923,1.8091604,10.2519083
3320,-1.7070571,10.7762470,-7.4555058,-32.3893127,-80.7099228,-26.5343513,1.0702027,9.0548248,3.8737986,-7.2824426,-0.0076336,9.9389315
3330,-2.8610563,10.2207947,-6.3350253,-32.7480927,-81.7251892,-14.2213745,0.9983770,9.0308828,4.0174499,-7.5419846,-1.5801526,8.7938929
3340,-4.0796990,9.4690189,-6.1410961,-29.3358784,-83.3587799,3.7938931,1.1372399,9.0260944,4.0102673,-7.7175574,-3.0916030,8.2900763
3350,-5.4635406,9.2535419,-6.6989422,-26.0381680,-89.7862625,29.9160309,1.0390782,8.9422979,4.1850433,-7.5877862,-5.3282442,7.3969464
3360,-6.3182659,9.4019823,-7.6326761,-28.5267181,-100.7099228,59.5877876,1.0366840,8.9566631,4.0916696,-7.6183205,-7.8015265,7.0229006
3370,-6.4714942,9.6006994,-7.9750452,-36.7786255,-114.2442780,88.6717529,1.2018831,8.9351149,3.9623835,-7.6564884,-11.0687027,7.6030536
3380,-6.0357518,9.2774839,-7.3549500,-46.4274826,-126.5343475,113.2366409,1.4772149,8.9829988,3.8211265,-8.6412210,-14.2977095,6.9847326
3390,-5.5640965,8.6071110,-6.7540083,-53.4427490,-130.3893127,136.1068726,1.7190280,9.1505919,3.8929520,-10.1603050,-17.8549614,6.4351144
3400,-5.3103123,7.9558916,-6.4954362,-61.2290077,-125.2519073,159.9160309,1.9081690,9.3157911,3.9959023,-11.2519083,-21.3587780,5.2366414
3410,-5.4587522,7.4052281,-6.2488346,-69.0152664,-119.3358765,184.2900696,1.9033806,9.4426832,4.1515245,-11.6564884,-24.2900772,5.7404580
3420,-5.4300218,6.8234401,-6.3206601,-77.8244247,-113.8244247,211.4274750,1.9584470,9.6557665,4.1802549,-11.6717558,-26.3893127,7.1068702
3430,-4.7524662,6.2943239,-6.0956063,-87.0610657,-111.5725174,235.8778687,1.8770446,9.5815458,4.1802549,-11.6335878,-28.6259537,9.1450386
3440,-3.2537034,5.6622581,-5.7771792,-96.3587799,-116.6488571,250.1297760,2.0613971,9.5049324,4.2209558,-10.8854961,-31.2519093,10.8396950
3450,-0.8762733,4.9128766,-4.9344244,-110.8778610,-130.7709961,250.1297760,2.1882892,9.2942438,4.2544746,-10.0534353,-33.5496178,11.8625956
3460,1.9273225,3.0358322,-3.3398943,-130.2977142,-139.8015289,249.0076294,2.3798244,9.1266499,4.3478479,-8.4656487,-34.3435097,12.0763359
3470,4.9104824,0.9169745,-1.4341195,-147.0610657,-111.8931274,240.5190887,2.5330524,8.8992023,4.3286943,-6.4045801,-34.2442741,10.2290077
3480,7.4459291,-0.6943150,-0.2346306,-154.3893127,-76.5496216,216.7786255,2.6048782,8.8369532,4.3406653,-3.8702290,-34.8320618,4.9923663
3490,8.0396881,-3.1842721,-0.0574605,-157.9694672,-63.3358765,190.0229034,2.5953014,8.8944139,4.4627690,0.0916031,-34.7480927,-3.2748091
3500,9.7323799,-6.8282285,0.4405309,-162.1603088,-64.5114517,171.7022858,2.3654592,9.0308828,4.4412212,5.9007635,-32.3587799,-12.3053436
3510,12.1529055,-10.6397781,1.8459201,-168.2137451,-75.7938919,156.2900696,1.9799947,9.2655134,4.5705075,14.5038166,-26.5496178,-21.1145039
3520,15.7801027,-15.3802729,3.8809812,-187.6183167,-68.2977066,154.1679382,1.2617378,9.5599985,4.4795284,23.9770985,-19.5496178,-26.7022896
3530,17.7361546,-17.7098198,7.5177550,-197.6946564,-61.8702278,158.5572510,0.4477134,9.9023676,4.3023586,32.7938919,-12.6793890,-27.3053436
3540,18.5549679,-16.7593269,10.8624372,-190.5114441,-24.3969460,174.2366486,-0.2370248,10.2399483,3.8378856,39.6183205,-6.7786260,-22.9541988
3550,17.5518036,-12.3037395,11.9541883,-180.6259613,26.5496178,216.6106873,-0.3854645,10.3859940,3.0813217,42.5648842,-2.7328243,-15.0458012
3560,19.0625362,-5.3869262,13.3571825,-171.2595367,77.6030502,250.1297760,-0.1771700,10.4290895,2.3463056,40.4503822,-0.9007633,-7.5419846
3570,19.6126022,2.5976956,16.4025917,-162.5496216,99.8244247,250.1297760,0.0574605,10.3428984,1.6998745,33.0839691,-0.8931298,0.2290076
3580,19.6126022,9.9741936,18.9978924,-147.5801544,104.8931274,224.3664093,0.5482694,10.0388365,1.3934183,23.4580154,-4.6412215,6.2900763
3590,19.6126022,15.0211449,19.6126022,-105.7480927,75.2900772,118.1908417,1.0630201,9.7132263,1.1348459,12.3053436,-11.0000000,10.3206110
3600,19.6126022,14.2478218,19.6126022,-28.4427490,21.9389305,-20.3053436,1.7286048,9.3038206,1.3575054,3.8625953,-19.7404575,12.8320608
3610,19.6126022,7.6877422,19.6126022,65.7175598,-2.4503818,-156.1832123,2.5522060,9.1912937,1.2832855,-2.8167939,-27.9236641,14.0992365
3620,19.6126022,1.4748207,16.5414543,146.2900696,24.1755733,-250.1374054,3.5026991,9.1888990,1.1731528,-8.7175570,-34.9083977,12.1145039
3630,14.9948082,-2.8610563,9.1266499,183.6335907,61.5954208,-250.1374054,4.2832050,9.3612804,1.0127422,-15.3740454,-40.6641235,7.7557254
3640,11.2215662,-5.7316895,4.2018023,179.0610657,76.3740463,-250.1374054,4.7261300,9.5911226,0.7733232,-23.6488552,-43.8244286,3.2442749
3650,8.5831690,-6.8880830,0.9552816,151.3893127,79.5267181,-242.8931274,4.9392128,9.7922344,0.7206510,-33.0992355,-41.8931313,-1.7328244
3660,7.5512733,-5.5114241,-0.2059003,113.2748108,75.3893127,-215.5954132,4.6375451,9.7922344,1.0486550,-41.9007645,-35.1908379,-4.9618320
3670,7.7547798,-3.2608860,0.3806761,74.1832047,73.6946564,-198.1832123,3.7540891,9.6390066,2.1667414,-47.1832047,-26.4961834,-8.0534353
3680,8.4993725,-2.5402350,2.1427996,48.2977104,79.2900772,-196.8091583,2.7174051,9.4115591,3.3183465,-46.6030540,-16.0992374,-10.0916033
3690,8.1450329,-1.7309990,3.5290353,37.9541969,93.6106873,-202.6183167,2.2289903,9.3684635,4.1826491,-40.8549614,-0.8244275,-14.1450386
3700,7.1418672,-0.8762733,3.8881636,37.9771004,114.1908417,-202.9389343,1.2425843,9.2822723,5.1115947,-31.8091602,15.3282442,-19.5648861
3710,5.7053533,0.0023942,3.5721307,43.5267181,138.3129730,-193.0381622,-0.2394189,9.1912937,5.9615316,-18.5648861,26.9618320,-23.8015270
3720,4.5489597,1.5083394,2.7581062,51.5038185,149.3206177,-176.7633514,-1.6519908,9.0380650,6.6893654,-0.4961832,32.6183205,-22.3435116
3730,3.4021432,3.3925664,2.0925217,59.5801544,148.4122162,-158.3206177,-2.8012016,8.6980906,6.8880830,21.1755733,33.2900772,-18.2671757
3740,2.2194135,5.4898763,1.7381816,69.8931274,138.8549652,-139.6335907,-3.1196289,8.5640154,6.2919297,43.0076332,30.9465656,-13.7938929
3750,1.5586174,6.9072366,1.4700323,81.0000000,112.4045792,-123.1068726,-3.0908985,8.4012108,5.1379304,60.6488533,29.0839691,-10.7175570
3760,1.6974803,7.6566176,1.1252691,89.9083939,78.4274826,-110.5954208,-2.9664006,8.6023226,3.5553713,69.4809189,29.3816795,-8.5496187
3770,2.7533178,8.1043310,0.8523315,95.0152664,47.3511467,-103.5801544,-2.8514795,8.6214762,2.1451938,67.0763321,27.6183205,-4.8931298
3780,3.6056492,8.3581152,0.8331779,97.2748108,28.9541988,-103.3664093,-2.8251436,8.6813307,1.1420283,58.4274826,20.2824421,3.1984732
3790,3.9504125,8.8082228,0.2944853,95.5419846,31.1450386,-107.2900772,-2.1451938,8.7747040,0.0239419,42.0534363,12.2442751,15.3587790
3800,3.1196289,9.4738073,-0.7110743,85.6870193,51.1450386,-109.3511429,-0.6320660,8.7363977,-1.0247130,18.7099228,-3.3129771,22.2213745
3810,0.9840119,10.7139978,-1.7717001,70.3206100,83.8396912,-108.9007645,1.1683644,8.3629036,-1.0917504,-4.4274807,-21.0534344,20.3206100
3820,-1.0582317,11.5998478,-2.3606708,49.3969460,103.7938919,-104.2290039,2.3989778,8.1785507,-1.0031654,-26.7786255,-32.6412201,15.7404585
3830,-2.3750360,12.2917690,-2.5474176,25.8167934,107.2671738,-95.3511429,3.7229645,8.3317795,-0.9361281,-46.3816795,-37.7099228,9.0076332
3840,-2.4660151,12.6724443,-1.9321109,9.3053436,107.9770966,-86.4427490,4.1132174,8.2168579,0.1651991,-59.8167953,-36.9771004,-1.2213740
3850,-1.8483143,12.8687687,-0.9888002,4.0534353,104.2671738,-79.1374054,3.7876077,8.2192526,1.2689204,-65.9083939,-34.2595406,-11.3664122
3860,-1.4413021,13.0172081,-0.4596844,9.9083967,101.0457993,-75.0381699,3.1028695,8.3964224,2.3750360,-63.4427490,-31.9236641,-18.6183205
3870,-2.2050486,13.4649220,-0.9193687,19.7099228,111.8320618,-67.2061081,2.6695213,8.5065556,3.0813217,-54.4274826,-26.2061062,-22.7633591
3880,-2.7365584,14.1712074,-1.6711442,31.1221371,124.3206100,-51.2977104,2.4899571,8.7244263,3.4548154,-41.9694672,-14.2519083,-23.9618320
3890,-2.6719155,14.9325600,-2.5234756,42.9694672,127.0305328,-33.7480927,2.2385671,8.8752604,3.3494711,-29.6946564,-0.2748092,-24.0458012
3900,-2.3319404,15.4497042,-3.6200144,52.4427490,113.1755753,-20.1145039,1.8890154,9.0955257,3.3351059,-18.7480907,12.5114508,-24.3511448
3910,-2.1499822,15.9213600,-4.4388270,55.4427490,88.5725174,-6.8854961,1.6448082,9.2750902,3.1387823,-10.0839691,23.0381680,-24.1908398
3920,-2.0446377,16.3164005,-4.2472920,57.0992355,64.7938919,6.6793895,1.2952565,9.6054878,2.9592183,-4.0152674,31.5877857,-22.7099228
3930,-1.6759326,16.6037045,-3.5481887,62.0839691,42.6717567,17.2290077,1.1755470,9.9574337,2.5785420,-4.8473282,35.3740463,-22.2442741
3940,-0.7206510,16.4432926,-2.7317703,72.6641235,23.1603050,21.5114498,0.6560079,9.9047613,2.4133430,-8.6335878,33.8778610,-21.1908398
3950,0.7661406,15.5478659,-1.7357874,87.3893127,8.4198475,18.3587780,0.4453192,10.1609402,2.2289903,-18.1374054,30.6259537,-17.2061062
3960,1.8171898,14.6931410,-1.1755470,102.5877838,-0.0534351,12.2442751,0.2585725,10.1753054,2.2361729,-29.8396950,24.2137413,-11.6183205
3970,2.4851687,13.5702658,-0.8786675,114.9770966,-5.8549619,6.1679387,0.4764437,10.0053177,2.5378408,-42.1374054,15.9312973,-8.3053436
3980,2.8251436,12.4928808,-0.9768293,123.6030502,-5.2366414,-0.1297710,0.8044477,9.8760319,3.0693510,-52.5648842,7.8549619,-4.5114503
3990,2.8586621,11.5423870,-1.1132981,129.1984711,-1.6335878,-7.5267177,1.0941446,9.7419567,3.6080434,-61.0152664,2.5572519,-1.8244275
4000,2.3510940,10.6589317,-1.2401901,132.3129730,0.3053435,-14.8320608,1.3239868,9.5743637,4.2496862,-66.2977066,-1.5725191,0.0000000
4010,1.3934183,9.8185711,-1.4915800,134.0152740,-5.0458016,-20.1679382,1.3359578,9.2870607,4.9894910,-68.1603088,-6.3435116,0.7022901
4020,0.4620786,8.8608952,-1.3670821,133.1679382,-15.4656487,-21.7786255,1.4867916,9.1122847,5.5233951,-66.4580154,-9.0687027,1.0000000
4030,0.0622489,7.9894104,-1.4484847,131.7328186,-26.0839691,-19.0076332,1.6567791,9.0093346,5.8944945,-61.9236641,-9.8091602,2.8931298
4040,0.0407012,7.2879128,-1.3862357,129.6030579,-34.1984749,-13.8015270,2.0613971,8.9183559,6.0237808,-55.5038185,-9.4274807,3.8244274
4050,-0.0478838,6.6869712,-0.9552816,128.2824402,-41.4045792,-8.4427481,2.6024840,9.0117292,5.9351954,-49.1297722,-8.2061071,3.0076337
4060,0.3495516,6.2344694,-0.4453192,132.2748108,-43.5954208,-5.7633586,3.0382264,9.0979195,5.8968887,-43.7480927,-5.9465647,1.2213740
4070,0.4525018,5.7292953,-0.7182568,136.7328186,-41.7938919,-6.6717558,2.9376705,9.2798786,5.8178802,-40.7480927,-3.3587787,-1.0152671
4080,0.7086801,5.6167684,-1.4580613,135.2519073,-35.3664131,-9.0229006,2.9209111,9.5001440,5.6191626,-40.3740463,-2.4503818,-2.8015268
4090,0.8906385,5.6024032,-2.3032103,126.3358765,-24.9312973,-12.7862597,2.5522060,9.4785957,5.8346395,-41.5190849,-4.1221375,-4.6946564
4100,1.0773853,5.6095858,-2.8490853,111.9923630,-11.3664122,-19.7175579,2.2601149,9.5001440,6.1506729,-42.4274826,-7.3206105,-5.2519083
4110,1.2808913,5.7628140,-3.3542595,93.0610657,4.4580154,-30.5801525,2.1404054,9.4331064,6.5169835,-41.6412201,-10.7328243,-5.2824426
4120,1.4508789,5.7891502,-4.0366035,67.2595444,25.6106873,-43.2290077,2.2313845,9.4211359,6.7180958,-39.2366409,-14.1068707,-5.7099237
4130,1.6376256,5.7245069,-4.5657191,36.0228996,52.8320618,-55.3282433,2.2289903,9.3253679,6.8641410,-35.5190849,-16.1984730,-7.1832061
4140,1.8507085,5.8897061,-4.8769641,2.9694657,84.9389343,-68.2595444,2.1571648,9.3253679,7.1275020,-31.0610695,-17.3206100,-8.0687027
4150,1.3886299,5.9447722,-5.0613165,-27.8396950,111.4732819,-81.3435135,2.1164634,9.4331064,7.3166428,-26.0458012,-18.5496178,-10.1145039
4160,0.5530578,6.0740585,-4.5441718,-53.7786255,129.0763397,-90.5725174,2.0709739,9.4833841,7.4842362,-19.8473282,-19.0916023,-11.5648851
4170,0.3136388,6.1913738,-3.7780309,-70.1832047,134.2366486,-95.6564865,2.0685797,9.6222477,7.7308378,-12.8091602,-18.0381680,-14.8625956
4180,0.8307837,6.4092450,-3.3710186,-77.8778610,133.3816833,-101.4885483,1.7645177,9.7251978,7.8649125,-4.7862597,-15.5725193,-17.1297703
4190,1.3048333,6.2991123,-3.0861101,-79.5038147,127.5877838,-111.2824402,1.3215926,9.8640604,8.0420828,3.9312978,-13.1908398,-19.1679382
4200,1.4173602,6.1650376,-2.6743097,-78.0763321,121.4885483,-120.7404556,0.8188128,9.9646168,8.1857338,14.0229006,-11.5954199,-19.0839691
4210,0.9145803,6.0189924,-2.0685797,-70.1221390,115.6564865,-124.6030502,0.3782819,10.0244713,8.2838955,24.5190830,-10.9923668,-17.9923668
4220,0.0478838,6.2081332,-2.2098370,-57.8320618,116.6564865,-120.2366409,0.1699875,10.1968527,8.0181408,35.3893127,-11.0687027,-16.8015270
4230,-1.0678085,6.0285692,-3.0478032,-48.2519073,111.8320618,-108.8854980,0.0263361,10.2926207,7.6661944,44.9389305,-10.9007635,-15.0381680
4240,-1.2737088,5.6143742,-4.2903876,-43.9465637,88.4580154,-96.9465637,-0.1197095,10.3812056,7.3405848,52.5801544,-9.5725193,-13.2442751
4250,-1.9560528,7.9774394,-5.6981707,-42.7251892,85.3740463,-86.6412201,-0.2106887,10.4003592,7.0221577,58.9083977,-8.9541988,-11.6412210
4260,-3.7157819,9.9191265,-6.5169835,-41.7633591,78.7786255,-70.3511429,-0.3303981,10.3333216,6.7731619,64.4198456,-7.8702292,-10.0992365
4270,-6.1027889,10.1729107,-6.7037306,-36.8320618,61.0076332,-42.5877876,-0.4429250,10.3668404,6.5912037,70.4122162,-6.5343513,-8.7557249
4280,-7.3741035,10.1058741,-5.4395986,-21.8167934,18.2824421,-6.7938933,-0.5841822,10.1226330,6.5481081,76.3129807,-7.7251906,-8.0076332
4290,-6.7971039,10.9031391,-4.6375451,5.8549619,-29.9007626,27.2595425,-0.5027798,9.7395630,6.3805151,83.8091583,-12.4503813,-10.8778629
4300,-5.5688848,11.5256281,-4.5298066,40.1984749,-75.6183243,55.8702278,-0.7733232,9.4977493,6.2655940,92.5419846,-15.7938929,-14.8473282
4310,-3.8977404,11.4274664,-4.0916696,73.1984711,-107.7633591,77.6564865,-0.6344602,9.3038206,6.2871413,103.2595444,-18.3282452,-18.9312973
4320,-1.7501525,11.1641054,-4.0222383,101.6030502,-125.2595444,90.8549652,-0.7134684,9.1266499,5.7699966,112.6564865,-23.3587780,-18.8931293
4330,0.0909792,10.8121595,-4.6327567,122.0000000,-129.1374054,93.1603088,-0.6416427,9.2463598,4.9104824,119.4961853,-23.4274807,-15.5267172
4340,0.9145803,10.7738523,-6.3254485,125.9923630,-120.0000000,85.1984711,-0.5267217,9.1625633,3.6487448,120.9465637,-19.9007626,-8.0076332
4350,1.2330076,10.6996326,-7.6614060,112.0610657,-103.0076370,71.3969498,-0.4740495,9.0763721,2.5641768,117.1755753,-13.8778629,-1.0610687
4360,0.8762733,10.5703468,-8.8321648,83.8473282,-83.8854980,54.4809151,-0.0383070,8.8992023,1.4915800,109.1984711,-7.0992365,6.1297708
4370,0.2178712,10.3117743,-9.3900108,49.9007645,-66.5343475,39.4732819,0.2489957,8.7172441,0.7829000,97.6564865,0.5114504,11.2748089
4380,-0.5650287,9.5911226,-9.3636751,12.5725193,-51.2137413,27.6259537,0.4716553,8.3916340,0.1460456,83.4961853,5.0458016,15.7099237
4390,-0.8403605,8.8896255,-7.9295554,-14.8473282,-43.1755714,18.7709923,0.8523315,8.2360115,0.2011119,68.6793900,6.8702292,18.3969460
4400,-0.8427547,8.2479830,-5.9304070,-24.7022896,-41.2442741,9.6030531,1.1420283,7.9965930,0.2633608,55.6183205,5.0916033,19.7251911
4410,-1.6831152,7.5847921,-4.7907729,-18.1068707,-40.5572510,5.4351144,1.3958124,7.6278877,0.4740495,44.7404594,1.8625954,19.7251911
4420,-2.9831600,7.2041159,-4.7117648,-3.8473282,-43.9694672,11.8396950,1.6472024,7.3932571,0.5267217,35.4961815,-1.5648855,18.0305347
4430,-4.0796990,6.9814563,-5.0230093,12.4198475,-51.9236641,26.8244267,1.7573351,7.2974896,0.5578461,27.0610695,-4.6488547,16.0534344
4440,-4.2688398,6.9599090,-5.6119800,29.3282452,-62.8854980,45.1068687,1.9345051,7.2663651,0.4165890,18.2519093,-6.3664122,13.3740454
4450,-3.9695661,6.8689294,-6.5409255,42.3282433,-73.6259537,60.6946564,1.9321109,7.3597383,0.2801202,9.3893127,-6.0992365,11.2977095
4460,-3.8618276,7.0365229,-10.0867205,37.1984749,-83.0687027,92.2366409,1.6902977,7.4124107,0.6224893,-6.3206105,-0.8473282,8.7633591
4470,-2.8514795,7.0341287,-10.2351599,22.0839691,-93.2366409,100.8473282,1.5035510,7.4890246,0.6751614,-13.5648851,3.4198472,6.7862597
4480,-1.4460905,7.0125809,-9.3110027,11.0763359,-102.5114517,98.1679382,1.4101776,7.4555058,0.9935886,-19.1374054,5.2290077,5.0610685
4490,-1.1085097,6.9024482,-8.4227581,5.4885497,-107.3129807,87.5801544,1.4006008,7.5512733,1.7118455,-22.6564884,3.7862597,0.3129771
4500,-2.0470319,6.7803445,-8.1570034,5.4656487,-104.4351120,77.5954208,1.3263810,7.8457589,2.0374553,-24.0152664,3.5572519,-4.7633586
4510,-3.6391680,6.6606350,-8.6789370,4.2061067,-102.0457993,76.6641235,1.0773853,8.0923605,2.2672975,-23.8702297,4.9083967,-8.8625956
4520,-5.0421629,6.3398137,-9.6222477,0.3435115,-101.7328262,84.8778610,0.7038917,8.4419117,2.6719155,-22.8473282,6.4274807,-10.4732828
4530,-6.4499464,5.5473371,-11.0324249,-8.0381680,-102.2595444,101.4809189,0.2298422,8.7938576,2.6455793,-21.7938938,6.1145039,-11.8091602
4540,-7.3932571,5.2983413,-12.5766773,-23.6488552,-103.4885483,125.6259537,0.1723816,9.1362267,2.6958573,-21.4045811,4.2595420,-11.4274807
4550,-7.3046722,4.8458395,-13.8360205,-47.4732819,-108.0916061,152.4351196,0.1077385,9.4187412,2.6599445,-21.7099228,1.9770992,-11.4885492
4560,-6.6965480,4.2401094,-14.3148584,-74.8854980,-117.7862625,173.5801544,0.0885850,9.7060442,2.6479735,-22.2061062,-0.5877863,-10.7557249
4570,-6.8378053,3.3398943,-14.4992113,-102.9618301,-133.8167877,196.6717529,0.1795642,9.9047613,2.7365584,-23.0152664,-1.8091604,-10.9160309
4580,-6.5050125,2.3798244,-13.8360205,-127.2137375,-164.6564941,224.8396912,0.2250538,10.1633339,2.9400647,-23.8854961,-3.3206108,-11.1984730
4590,-5.2121506,1.2330076,-12.1720591,-141.9618378,-201.2824402,250.1297760,0.1149211,10.3548698,2.9735832,-23.8167934,-4.2519083,-11.3129768
4600,-3.7421181,-0.2729376,-10.4841557,-145.4961853,-236.1221313,250.1297760,0.1340746,10.4769726,3.3183465,-22.8549614,-4.4809160,-11.3587790
4610,-1.8459201,-2.0829449,-9.1505919,-145.1603088,-250.1374054,250.1297760,0.0311245,10.5368280,3.3566537,-20.8854961,-4.4656487,-11.0534353
4620,0.7493813,-3.5817075,-7.6398587,-145.1297760,-250.1374054,250.1297760,-0.0742199,10.6709023,3.6319854,-18.2137413,-3.6488550,-9.4656487
4630,3.7564833,-5.1522956,-5.9447722,-148.0992432,-236.3053436,250.1297760,-0.1939293,10.7163916,3.7540891,-14.8091602,-2.6946564,-8.1984730
4640,6.7276726,-6.9575148,-4.6495161,-161.1603088,-190.7786255,250.1297760,-0.2537841,10.7068148,3.7421181,-11.2213745,-1.2595420,-4.8091602
4650,10.7307568,-8.4945841,-3.0908985,-197.0152740,-126.2213745,250.1297760,-0.1963235,10.6732969,3.6918402,-7.7786260,0.3969466,-1.8091604
4660,15.2749290,-9.1122847,-2.0829449,-250.1374054,-44.5343513,250.1297760,-0.0981618,10.6014709,3.8354914,-4.9770994,1.6030535,1.4885496
4670,18.5597572,-10.4458485,-1.2976507,-250.1374054,65.9312973,250.1297760,0.1340746,10.4841557,3.6990228,-2.8549619,2.9389312,3.8549619
4680,19.6126022,-12.8496151,3.1723011,-250.1374054,189.2824402,250.1297760,0.2346306,10.3500814,3.6391680,-1.0076336,4.0152674,6.3282442
4690,19.6126022,-15.3898497,10.9151096,-250.1374054,250.1297760,250.1297760,0.2968795,10.2231894,3.6702924,0.3053435,4.5419846,7.3969464
4700,17.9707851,-15.7298250,19.6126022,-250.1374054,144.5954132,250.1297760,0.3639168,10.0747490,3.5673423,1.7404580,4.6106873,9.0076332
4710,19.6126022,-12.0499554,19.6126022,-250.1374054,-130.1526642,250.1297760,0.4668669,9.9861641,3.6798692,3.4198472,4.6870227,10.2977095
4720,19.6126022,-3.6726866,19.6126022,-250.1374054,-188.6106873,250.1297760,0.5793939,9.8329363,3.5338237,5.2366414,4.8473282,10.8854961
4730,19.6126022,1.2856797,19.6126022,-47.9236641,-114.6564865,239.2137451,0.7589580,9.7491398,3.4189026,7.0916033,4.4961834,11.1068707
4740,19.6126022,3.8785870,19.6126022,144.3053436,-21.7251911,71.0839691,0.7517755,9.6773138,3.1220231,8.8167934,5.6793895,10.7557249
4750,19.6126022,2.9520357,19.6126022,250.1297760,50.1526718,-103.6870193,0.8116302,9.5935173,3.1124463,9.7938929,6.4503818,9.8244276
4760,19.6126022,0.1915352,13.3116932,250.1297760,38.3740463,-235.8625946,0.7589580,9.6821022,2.8993635,10.5419846,6.6412215,9.2290077
4770,18.2700596,-3.5434003,3.3542595,250.1297760,22.0229015,-250.1374054,0.7421987,9.6581602,2.8395088,10.8015270,7.7862597,9.2748089
4780,11.0204544,-6.6103573,-3.3015873,227.0763397,40.4274826,-250.1374054,0.8044477,9.7156210,2.5593886,10.0076332,7.7557254,9.9236641
4790,5.6478930,-6.7420373,-4.0437860,164.9160309,56.8244286,-250.1374054,0.8762733,9.6198530,2.4324965,7.4427481,7.5114503,11.9465647
4800,3.4428444,-4.7979555,-3.6559272,101.9160309,59.8473282,-250.1374054,1.0079538,9.5216913,2.2242019,4.3816795,7.1145039,13.4045801
4810,3.1986370,-2.6072724,-1.5825592,49.3969460,54.5648842,-227.8702240,1.2282192,9.4881725,2.2960277,0.7862595,5.7557254,13.8473282
4820,5.1283536,-1.0438666,1.0678085,20.0992374,62.4274826,-195.9084015,1.4939742,9.4211359,2.4540441,-2.3816793,4.1450381,13.9694653
4830,6.5816269,0.3830703,2.8730273,10.4427481,102.2900772,-197.8396912,2.0877333,9.3373384,2.7126167,-6.7557254,-0.3129771,11.4656487
4840,5.5138183,1.1851238,2.7772598,14.7251911,132.2290039,-207.8320618,2.2625091,9.2894554,2.8275378,-7.8473282,-2.0152671,10.0000000
4850,3.4811516,1.8890154,2.3606708,18.9389305,153.0686951,-211.0229034,2.4229198,9.2918491,2.7868366,-8.2519083,-3.0687022,8.6335878
4860,1.6687500,2.6264257,1.9847831,22.7862587,161.5648804,-203.1221313,2.5186872,9.2200232,2.9161227,-8.4122133,-3.7786260,6.1450381
4870,-1.6567791,6.7444315,0.6009415,45.8015251,157.9007568,-116.0076370,2.4827745,9.2128410,3.0094962,-7.5343513,-4.9389315,2.1526718
4880,-1.1779412,12.3588057,-2.5091105,-9.1679392,95.7251892,-48.6564903,1.1731528,9.4594421,3.9456241,-3.6870229,-4.9389315,-11.5343513
4890,-2.5833304,12.5910425,-3.1387823,-23.8702297,114.4732819,-37.0839691,0.6584021,9.3325500,3.9887197,-0.7633588,-2.8931298,-11.1145039
4900,-2.7485294,17.0609932,2.6623387,-6.4809160,87.5343475,42.8625946,-0.9552816,9.3349447,2.4420733,12.2671757,-2.4732823,7.0076337
4910,7.3788919,12.5479469,3.1986370,85.3740463,20.4274807,38.6030540,1.6088953,8.5831690,1.0773853,-13.8396950,-20.1068707,27.1374054
4920,7.4339581,11.9541883,2.3486998,91.4045792,18.0992374,22.7938938,2.7006457,8.7483683,0.9433106,-21.7862587,-25.1908398,24.8167934
4930,6.6271162,11.2191715,1.6041069,91.2671738,11.5954199,3.7633588,3.6631098,8.6502066,0.8427547,-29.5190830,-26.2977104,22.5038166
4940,5.3342543,10.5416164,0.7326220,84.3129807,3.6106870,-15.3587790,4.6016321,8.6310530,1.2330076,-35.6183205,-23.1221371,14.6106873
4950,4.2975702,9.7946291,-0.0550664,69.1374054,-4.0992365,-29.1526718,4.8769641,8.5161324,1.7525467,-39.0381660,-17.8244267,2.6106870
4960,3.4907281,9.0620070,-0.3208214,48.6183205,-1.9923664,-36.8244286,4.6638808,8.5831690,2.8945751,-36.7557259,-12.4045801,-10.6946564
4970,3.0118904,8.3389616,-0.2753318,27.4809170,8.1984730,-40.2442741,3.9767487,8.8273764,3.5745249,-29.0000000,-6.0839696,-20.1832066
4980,2.7317703,8.1282730,0.2059003,9.8320608,20.8396950,-40.7480927,3.3279233,9.1817169,3.8402798,-19.5267181,-0.2137405,-24.9618320
4990,1.9632354,7.6661944,2.0829449,-0.2519084,37.9541969,-37.6717567,1.3287752,10.0939026,3.0597742,-2.0229008,11.4274807,-32.6488533
5000,1.6088953,7.5919747,2.0709739,9.7099237,30.5801525,-35.5572510,0.8451489,10.1753054,3.3566537,-2.9618320,11.3358774,-30.1908398
5010,1.0007712,7.7284436,1.7908537,21.2061062,17.9465656,-33.1755714,0.4309541,10.2447367,3.3375001,-4.5954199,10.0534353,-25.9007626
5020,0.4836263,7.9175844,0.6033357,33.7786255,-1.7022901,-24.7099228,0.0646431,10.0843258,3.6822634,-8.9236641,3.3129771,-14.4122133
5030,0.5075682,8.2264347,0.2681492,33.9007645,-3.4122138,-19.8396950,0.2130829,10.0460186,3.7708483,-10.3587790,0.2061069,-9.8244276
5040,0.6607963,8.7914639,-0.1939293,30.3893127,-1.2366412,-13.5572519,0.5554519,9.9478569,3.9408360,-10.9389315,-1.6564885,-5.9923663
5050,1.1348459,9.4307127,-1.0462608,19.3282452,5.3129773,1.3511450,0.8643024,9.7228031,4.3286943,-9.9083967,-1.2977099,-1.1832061
5060,1.8483143,9.8089943,-1.1731528,15.6641226,7.9236641,1.8015267,0.9480990,9.5480280,4.4148855,-7.9465647,-1.1908396,0.2290076
5070,2.1571648,10.0795374,-1.3096216,12.6870232,3.7175572,-2.6106870,1.0917504,9.4139528,4.3239059,-5.2595420,-0.2213740,1.3358779
5080,2.1020982,10.2543135,-1.0271072,13.2137403,-5.3969464,-8.0992365,1.2904681,9.2966375,4.1012464,-3.7175572,0.6717557,1.9160305
5090,1.9847831,10.2878323,-0.5147507,18.5648861,-19.6717548,-11.6641226,1.1755470,9.2703018,3.9671719,-3.9923663,0.7099237,2.3435113
5100,2.0087249,10.4314833,-0.3184272,25.3893127,-32.5572510,-11.9541988,1.2832855,9.3062143,3.8259149,-5.8473282,-0.3129771,2.3206108
5110,2.1643472,10.4913378,-0.4908088,30.4961834,-38.4580154,-12.6183205,1.4987626,9.3852224,3.7516949,-9.1450386,-2.5267177,2.3969467
5120,2.0613971,10.4769726,-0.8666966,29.3129768,-39.9771004,-14.0076332,1.6687500,9.4522600,3.8235207,-13.1374044,-5.1908398,1.7938931
5130,1.8626794,10.6732969,-0.8283895,21.2366409,-41.9389305,-14.3816795,1.6902977,9.4570484,3.9456241,-15.9083967,-7.5725193,0.1374046
5140,1.8890154,10.5535870,-0.1221037,13.8625956,-43.2900772,-15.3282442,1.7118455,9.3469152,4.2951760,-16.3435116,-9.4656487,-1.9770992
5150,1.7860653,10.3524752,0.6775556,9.1603050,-45.3282433,-17.6106873,1.7429699,9.3517036,4.4507980,-14.1450386,-10.6641226,-4.1297708
5160,1.5179161,10.3093796,1.6376256,7.6793895,-47.5038185,-18.5877857,1.8507085,9.5073261,4.7213416,-10.6946564,-10.4656487,-5.9923663
5170,1.3311694,10.3045912,2.2672975,7.6717558,-48.4503822,-18.1526718,1.8291607,9.6964674,4.6758518,-7.5496182,-10.5343513,-7.7328243
5180,1.4221486,10.4123297,2.9999194,8.6106873,-47.3358765,-17.8091602,1.9823889,9.9861641,4.8099265,-6.0381680,-12.8091602,-8.6793890
5190,1.4867916,10.4290895,3.8857694,12.0916033,-40.3282433,-22.0305347,2.0613971,10.1920643,4.9200592,-4.6335878,-15.7786255,-9.7938929
5200,1.2066715,10.1274214,4.1658897,16.7938938,-28.5648861,-26.5725193,2.3463056,10.3333216,5.2049680,-1.7862595,-18.7328243,-11.4656487
5210,0.3830703,9.9646168,4.1922259,21.8854961,-17.1984730,-28.4122143,2.2720859,10.3548698,5.7747850,4.3435116,-21.0687027,-16.4045811
5220,-0.5841822,10.0148945,4.2616572,28.6335869,-14.5419846,-27.2595425,2.1140692,10.3979645,6.2368636,14.5038166,-22.2442741,-20.5572510
5230,-1.0534433,9.7251978,4.2927818,36.6641235,-15.2595415,-25.9236641,1.8052188,10.4769726,6.5098009,28.4732819,-22.7022896,-24.7709923
5240,-1.4293311,9.3133974,4.0605454,45.1221390,-12.0381680,-24.7099228,1.4700323,10.6278067,6.4475522,45.1450386,-20.9541988,-28.3358784
5250,-2.2481439,9.0284882,3.6319854,53.0152664,-3.1984732,-19.8320618,1.1109039,10.6278067,5.9998388,61.2442741,-17.3893127,-30.0229015
5260,-3.5026991,9.0907373,2.9592183,59.2137413,8.3511448,-7.8244276,0.6751614,10.6828737,5.4419928,75.6488571,-12.0992365,-30.7404575
5270,-4.5561423,9.3828287,2.5976956,64.7251892,16.5954189,10.5190840,0.2082945,10.8672256,4.5537481,85.8167953,-5.9541984,-29.5572510
5280,-5.0828643,9.6461897,2.6551561,73.5877838,15.7786255,31.3053436,-0.3375807,10.8672256,3.8905578,90.9312973,-0.0229008,-24.9770985
5290,-5.5138183,9.7323799,2.8083842,91.4732819,6.8702292,52.8702278,-0.8619082,10.9534168,3.3734128,90.3587799,3.6183207,-17.8091602
5300,-5.4707227,9.8808203,3.2656744,117.9847336,-10.2671757,76.3511429,-1.2545552,10.8121595,2.8826041,89.3587799,4.9694657,-8.7633591
5310,-4.6973996,10.3165627,4.3693957,154.6183167,-26.0687027,95.4274826,-1.4197544,10.5583754,2.5857246,84.5190811,4.3664122,0.7328244
5320,-3.4332676,9.8616667,4.8242917,205.8396912,-35.7862587,107.4580154,-1.2928623,10.2854376,2.2050486,78.9770966,1.8854961,10.3358774
5330,-2.4348907,9.1122847,3.5074875,250.1297760,-42.2977104,110.1145020,-1.0271072,9.9670105,2.1284344,72.1297684,-1.5496184,17.6488552
5340,-2.4277081,8.7268209,0.4453192,250.1297760,-53.0916023,111.0381699,-0.6727672,9.5839405,2.0566087,64.4122162,-6.1068702,22.5267181
5350,-2.7317703,8.6334467,-4.0988522,250.1297760,-66.0229034,114.3053436,-0.4596844,9.2104464,1.9608412,57.2290077,-12.5190840,26.0458012
5360,-2.3343346,8.6549950,-7.7308378,250.1297760,-74.5114517,115.2519073,-0.1963235,8.8345594,2.0853391,51.9618340,-19.1832066,30.6030540
5370,-1.6304430,8.6023226,-11.0060892,250.1297760,-69.9312973,112.0457993,0.0071826,8.4203644,2.0590029,48.1679382,-24.5038166,34.4045792
5380,-1.4939742,8.3820572,-12.7610302,220.8778687,-48.0000000,106.8396912,0.5841822,7.9846220,1.8746504,45.8473282,-28.2595425,36.0305328
5390,-2.0326669,7.8146343,-12.8735571,164.6488495,-13.6488552,104.7938919,1.2162483,7.5991573,1.5514348,43.7633591,-29.6641216,35.7175560
5400,-3.1268115,6.9000540,-11.2886028,121.3206100,21.2519093,112.9465637,1.7070571,7.3525558,1.2114599,41.4809151,-28.3435116,32.9083977
5410,-3.9168940,5.7795734,-9.3684635,96.9083939,48.5343513,128.7557220,2.0278785,7.0987716,0.9241571,38.5343513,-24.2977104,28.5572510
5420,-4.8793583,4.8697815,-8.7818871,87.9542007,66.0610657,149.8167877,2.2744799,6.9168134,0.6248835,35.3969460,-19.6259537,24.8244267
5430,-4.6303625,4.6303625,-8.0851774,88.9083939,70.2442780,173.6183167,2.2888451,6.8066807,0.3591284,31.6183205,-14.7404585,20.3511448
5440,-3.9121056,4.9847026,-7.2065101,104.4961853,65.8320618,190.3358765,2.4061604,6.7851329,0.1460456,26.5572510,-10.1374044,16.3969460
5450,-2.6958573,5.3965030,-7.5512733,125.8931274,57.2137413,198.2137451,2.2936335,6.8090749,-0.1268920,19.7099228,-7.0076337,12.6870232
5460,-1.4484847,6.0501165,-8.7340031,142.5877838,52.4732819,198.9847260,2.2649033,6.8689294,-0.3878587,11.1450386,-6.0152674,9.5343513
5470,-0.6727672,6.5074067,-10.3237448,142.8320618,55.0610695,193.5419922,2.3008161,6.9096308,-0.5841822,0.9618320,-6.7175574,6.5954199
5480,-0.2274480,6.9886389,-11.6644907,127.6335907,62.2671738,186.2061005,2.3271523,7.1011658,-0.6991033,-11.1984730,-8.2824430,1.8931298
5490,-0.1987177,7.4076223,-12.2678270,100.9236679,75.5954208,181.7480927,2.3319404,7.2376347,-0.7637464,-24.9007626,-11.8549614,-2.5419848
5500,-0.0239419,7.5009956,-12.0930510,70.9542007,89.1755753,180.3740387,2.3103929,7.3980455,-0.6368544,-39.0076332,-16.5725193,-8.1297712
5510,0.0502780,7.1993275,-11.5208397,43.6564903,103.4122162,179.9236603,2.0135133,7.7715387,-0.3567342,-51.1526718,-18.9770985,-14.8625956
5520,0.0909792,6.5098009,-10.8384953,20.3893127,113.1908417,182.9694672,1.9776005,8.1617918,0.2394189,-59.6335869,-21.0610695,-20.1526718
5530,0.5291159,6.2703824,-10.0292597,4.5343513,114.3893127,186.2519073,1.4867916,8.6621771,0.7469871,-62.7328262,-19.9541988,-24.2671757
5540,0.4668669,5.7292953,-9.5695753,-10.0458012,111.7175598,193.7175598,1.0989330,9.1769285,1.4556671,-61.7175560,-17.3435116,-27.0381680
5550,0.9313397,4.9631548,-9.0308828,-22.8854961,103.1755753,198.8167877,0.6200951,9.6653433,1.6041069,-58.4427490,-13.4961834,-28.4503822
5560,1.4628497,4.5465660,-8.4610653,-32.6030540,96.7786255,198.6641235,0.3806761,10.1585455,1.7764885,-55.6259537,-11.1297712,-28.6183205
5570,1.8171898,4.1994085,-8.2120695,-42.6717567,91.0534363,191.8320618,-0.1292862,10.5104914,1.8411317,-53.6717567,-6.6946564,-27.4503822
5580,3.0214672,2.8275378,-7.9151902,-62.5267181,63.0305328,177.0534363,-0.3591284,10.8265247,1.8842272,-51.4885483,-3.1450381,-25.0839691
5590,5.4300218,0.8714849,-7.0915890,-96.2900772,5.4427481,145.5725250,-0.7230452,11.1042509,2.2337787,-48.1450386,1.4580153,-20.3969460
5600,10.2112179,-3.4524212,-5.1163831,-131.6870270,-76.2900772,91.4122162,-0.7517755,11.3269100,2.4755919,-44.0916023,5.6717558,-14.9923668
5610,18.1862640,-10.4841557,-1.8650736,-165.4427490,-160.1526642,8.4503813,-0.6129125,11.4514084,2.6551561,-39.0152664,9.7175570,-11.2977095
5620,5.5186067,13.8862991,8.3126259,-99.4732819,250.1297760,240.1374054,-0.4596844,11.9086981,2.5976956,-5.3511453,22.8244267,6.2977099
5630,19.6126022,0.8116302,18.4089222,118.8854980,69.3511429,-242.1297760,0.3303981,10.8744087,2.8442972,-9.4351149,28.4045811,30.6870232
5640,19.6126022,-4.6255741,10.9677820,218.5954132,19.7480907,-250.1374054,0.6105183,10.5440102,2.9592183,-10.9083967,27.8778629,34.6030540
5650,19.6126022,-9.8999729,3.5026991,250.1297760,-26.9541988,-250.1374054,0.9888002,10.1369982,3.2465210,-12.3053436,26.3129768,37.7480927
5660,17.4249115,-13.2015610,-3.1603301,225.0458069,-71.4885483,-250.1374054,1.2976507,9.7467451,3.3997490,-12.9618320,24.1450386,39.4732819
5670,14.6284971,-12.3755655,-7.6135225,142.5954132,-73.0152664,-250.1374054,1.6591733,9.4091644,3.5912843,-12.9389315,21.5572510,41.4427490
5680,12.1624823,-9.8257532,-9.1769285,39.0152664,-27.5190830,-250.1374054,2.0374553,9.1338329,3.7157819,-12.7328243,19.3358784,41.7786255
5690,9.4450769,-7.9726510,-8.4706421,-52.6030540,42.1832047,-250.1374054,2.4205256,8.8896255,3.7397239,-12.7633591,17.6106873,40.1832047
5700,7.2735476,-7.1155310,-5.7245069,-114.7480927,91.9236679,-250.1374054,2.7892308,8.7794924,3.6535332,-12.5801525,16.9923668,37.6030540
5710,5.5138183,-5.0421629,-3.3782012,-137.0763397,117.4351120,-250.1374054,2.9759774,8.5831690,3.6870518,-12.9160309,17.5419846,35.4809151
5720,3.1507533,-2.8682389,-2.4301023,-130.0915985,129.0458069,-250.1374054,3.1052637,8.4921904,3.8570392,-13.4122133,17.5114498,32.3435097
5730,2.4061604,-0.2442073,-2.4133430,-107.8778610,136.6488495,-244.0229034,3.0765336,8.3317795,4.0820932,-13.0000000,16.0305347,28.9847336
5740,2.0470319,3.2225790,-3.9599893,-85.3282471,152.9618378,-212.7251892,3.2417326,8.2336178,4.1802549,-11.8167934,14.1068707,24.9465656
5750,2.3127871,5.7556314,-5.9495606,-72.8167953,175.2900696,-193.1526642,3.3398943,8.2312231,4.2329268,-9.8549614,12.4351149,21.0610695
5760,1.0127422,8.1713686,-9.0572186,-79.0076370,198.2137451,-180.5114441,3.4715748,8.1905222,4.2975702,-8.0000000,10.2671757,16.1755733
5770,-0.7158626,9.4570484,-10.9534168,-100.6259537,192.7633514,-173.8396912,3.4189026,8.2264347,4.1227942,-6.6870227,7.3893127,10.8244276
5780,-3.4596038,11.2000179,-11.1521349,-124.6030502,155.0915985,-164.5877838,3.4021432,8.3629036,4.1467361,-5.3053436,4.2442746,5.3206105
5790,-4.8506279,12.5431585,-9.6677370,-135.8778687,86.5419846,-143.7786255,3.3853838,8.4419117,4.0150557,-4.6564884,2.0381680,-0.1145038
5800,-4.5274124,13.4816809,-7.3693151,-133.8244324,17.7709923,-114.1450348,3.3135581,8.5807753,4.0868812,-3.9389312,0.4122137,-5.0229006
5810,-3.6726866,14.8439751,-5.1092005,-119.3511429,-17.9236641,-84.4045792,2.9879484,8.6645718,4.1658897,-3.1832061,-1.4045801,-8.7862597
5820,-2.1332228,15.9692440,-2.4875629,-101.1145020,-26.5267181,-66.5496216,2.5761478,8.7818871,4.2496862,-2.4198472,-2.5877862,-11.9847326
5830,-1.3024391,18.9093075,-3.0525916,-76.6030502,-14.9007635,-63.4580154,2.1020982,8.9614515,4.2616572,-1.1450381,-3.9389312,-14.1145039
5840,-0.5434810,19.6126022,-4.0246325,-72.7175598,-10.5114508,-78.4274826,1.9799947,8.8393478,4.2640514,0.2442748,-5.5648856,-15.1603050
5850,-0.3926471,19.2325230,-3.6104376,-78.0687027,-13.7175570,-99.0610657,1.7788827,8.9925756,4.1251884,1.5725191,-7.8625956,-15.3740454
5860,-1.4317253,17.9085369,-2.5306582,-84.3282471,-16.2442741,-108.2366409,1.7190280,9.0620070,4.0030847,3.0076337,-11.2366409,-15.0687027
5870,-3.2249732,17.4608231,-0.9241571,-84.9770966,-13.0687027,-99.3740463,1.8219782,9.0715837,3.8330972,4.4122138,-14.5954199,-14.1984730
5880,-4.6543045,17.3913918,0.9193687,-74.2519073,-9.5877867,-79.1908417,1.9752063,9.0308828,3.6032550,5.5114503,-17.1374054,-14.4274807
5890,-5.3869262,17.4129391,2.3774302,-54.6641235,-17.4732819,-52.6793900,2.3127871,9.1338329,3.3255291,5.7480917,-18.0152664,-15.4809160
5900,-4.9152708,17.4249115,4.1658897,-27.2061062,-36.5343513,-25.5801525,2.2912393,9.1625633,3.1387823,5.7709923,-18.4961834,-17.8244267
5910,-3.7085996,16.8814297,5.8729467,7.0839696,-60.1603050,-5.1755724,2.3654592,9.3349447,2.9687948,6.0152674,-18.9389305,-20.9007626
5920,-2.1116750,15.9524841,7.1849627,47.7862587,-81.4885483,6.9389315,2.2074428,9.5169029,2.8035958,6.4274807,-18.2900772,-21.7175579
5930,-0.2825144,15.2581692,7.9558916,91.6717529,-97.7480927,12.3053436,2.0542145,9.6701307,2.7197993,6.1526718,-16.4885502,-21.8702297
5940,1.4293311,14.2621870,7.6638002,135.0686951,-102.6488571,9.6641226,1.9680238,9.8449068,2.6407909,4.9847326,-14.9465647,-20.8702297
5950,2.5306582,13.0555153,6.1315193,171.8778687,-95.6488571,-1.0305344,1.9057748,9.9885588,2.5929072,3.0000000,-14.5877867,-19.4580154
5960,2.4205256,11.8751793,3.6271970,194.7938995,-88.7099228,-15.8320608,1.9536586,10.1226330,2.5785420,0.0458015,-14.7557249,-18.3435116
5970,1.8698620,11.1952295,1.3479286,200.3816833,-83.2900772,-28.8015270,1.8363433,10.2136126,2.5689652,-2.9770992,-14.2671757,-17.6030540
5980,1.3072275,10.1489687,-0.7421987,192.8473358,-79.6488571,-40.3053436,1.3838415,10.1154509,2.9233053,-4.9236641,-13.6106873,-15.8473282
5990,0.5985473,9.2296000,-2.1212518,176.1679382,-77.4656525,-50.4274826,1.3335636,10.2040358,3.0717452,-6.4351144,-12.9541988,-15.6259546
6000,-0.1316804,8.6621771,-2.9185169,154.2442780,-76.0610657,-54.1832047,1.0510491,10.0101061,3.2991931,-6.2137403,-12.9618320,-14.2900763
6010,-0.4237715,8.0133524,-2.5546002,134.4274750,-76.4809189,-54.3206100,0.6775556,9.8784256,3.6104376,-3.2290077,-11.5419846,-13.2366409
6020,-0.3998296,7.1969333,-1.8746504,122.0992355,-79.7022934,-55.1068687,0.3830703,9.6533718,3.9408360,2.4580152,-8.2213745,-11.9465647
6030,-0.2035061,6.2823529,-1.4724265,113.2442780,-82.2519073,-55.7328262,0.0814024,9.4594421,3.9192882,10.6106873,-5.3587785,-11.1908398
6040,-0.2346306,5.5760674,-1.2210367,107.6641235,-80.4580154,-55.8091621,-0.1316804,9.2463598,3.6343796,19.7251911,-2.6106870,-8.7328243
6050,-0.5075682,4.8458395,-0.8810617,103.8244247,-77.6946564,-55.0992355,-0.0143651,8.8944139,3.0813217,28.9007626,0.0534351,-7.5877862
6060,-0.8403605,4.4531922,-0.8068419,100.1908417,-79.0381699,-52.8625946,0.0239419,8.9590569,2.8969693,36.4274826,4.4809160,-8.3206110
6070,-1.1707586,4.2209558,-0.6679789,95.2900772,-84.1068726,-47.9847336,0.0335187,9.4259243,1.3886299,34.6793900,10.6106873,-3.2137403
6080,-1.3000449,3.8785870,-0.6200951,89.3511429,-87.2519073,-40.8931313,0.3327923,9.2200232,0.8379663,30.3206100,6.6870227,-3.5190840
6090,-1.2162483,3.6176202,-0.4812321,82.5114517,-88.2442780,-34.7557259,0.2226596,9.0332766,0.8020535,24.4427490,4.3969464,-0.3206107
6100,-1.0271072,3.3494711,-0.3280039,74.2366409,-88.2748108,-30.0687027,0.4884146,9.3014259,0.1268920,17.1068707,2.7480917,7.2137403
6110,-0.9528874,3.0023136,-0.0574605,66.4122162,-86.6717529,-25.4122143,1.1779412,9.1793222,-0.3830703,5.1832061,-0.4961832,13.1755724
6120,-1.2306134,2.8131726,-0.1077385,58.0687027,-82.8015289,-18.4274807,1.9392935,9.0667953,-0.8714849,-10.3435116,-7.7404580,15.9847326
6130,-1.0917504,2.9448531,-0.0550664,46.8015251,-76.6488571,-9.6564884,2.6982515,9.0189114,-0.8307837,-27.0610695,-15.3435116,15.6717558
6140,-0.7541697,3.0454090,0.1891410,35.3893127,-65.4503784,-2.8244274,3.6798692,8.9039907,-0.5482694,-43.5190849,-18.1984730,15.3206110
6150,-0.4333483,3.3279233,0.5362985,24.3053436,-51.6106873,-1.0839695,4.2975702,8.7579451,0.2944853,-56.2977104,-16.7099228,10.6870232
6160,-0.3399749,3.5338237,0.8283895,15.6412210,-31.5496178,-3.2748091,4.7237358,8.8082228,1.0414724,-64.4809189,-13.5114508,3.1145039
6170,0.0047884,3.8570392,0.6584021,8.5801525,-9.3435116,-7.8702292,4.4675574,8.5137377,2.1188576,-66.7328262,-9.8931293,-4.5496182
6180,-0.2873027,4.2281384,-0.0383070,1.9083970,10.6793890,-12.6106873,4.0605454,8.5424681,3.0334380,-63.6106873,-6.8167939,-11.2442751
6190,-1.2234308,4.3286943,-1.3455344,-7.3358779,27.9847336,-12.3969469,3.8570392,8.5735922,3.6487448,-56.8167953,-2.6641221,-16.7938938
6200,-2.1787124,4.8195033,-2.8969693,-22.9160309,39.2213745,-5.2137403,3.5362179,8.6956959,4.3885493,-48.9312973,1.8015267,-23.0152664
6210,-2.4444675,5.6478930,-3.7684543,-40.8091621,43.9160309,7.4732823,3.1723011,8.8704720,4.6902170,-40.8854980,5.2061067,-28.5419846
6220,-2.6623387,6.5912037,-4.0892754,-52.5954208,45.0610695,19.3435116,2.6647329,8.9183559,4.7189474,-33.3969460,7.6564884,-33.3969460
6230,-2.9879484,7.5225434,-4.1587071,-56.6564903,40.3282433,28.8931293,2.3079987,9.1841106,5.0158267,-26.9083977,9.9923668,-38.5954208
6240,-2.4133430,9.4474716,-4.3239059,-55.4351158,31.5038166,33.7633591,1.7022687,9.4283180,5.2600341,-21.1755733,13.0229006,-43.7328262
6250,-1.7645177,10.4817610,-3.8929520,-49.6259537,24.7099228,34.3511467,0.7230452,9.6725254,5.4324160,-16.5496178,15.3969469,-45.9771004
6260,-1.4915800,11.2048063,-3.9671719,-37.1832047,26.2442741,36.9541969,-0.3399749,9.8784256,5.5904322,-12.1526718,14.5572519,-44.2137413
6270,-2.3343346,12.7706070,-3.8091555,-24.1679382,39.3435097,47.9618340,-0.9888002,10.0196829,5.7628140,-7.7557254,10.7099237,-37.5801544
6280,-3.4931223,14.1400833,-3.9982965,-10.8625956,52.8625946,58.7480927,-1.1779412,10.0723553,5.7029591,-3.6946564,5.4503818,-29.2519093
6290,-4.1826491,14.8272152,-3.7109938,7.5267177,42.9847336,70.2061081,-0.8810617,9.9885588,5.3246775,-0.7557252,0.9312977,-21.3664131
6300,-3.4739690,15.0953646,-3.5577655,33.1755714,18.5572510,81.5267181,-0.2944853,9.8712435,5.0062504,0.8549618,-1.5877863,-17.4274807
6310,-2.0063307,14.9924145,-3.6128318,59.1450386,-6.8091602,89.3740463,0.1221037,9.6461897,4.7931671,1.3969465,-2.7175572,-15.4274807
6320,-0.0814024,14.4992113,-3.8809812,82.0305328,-26.1145039,89.1526718,0.2418131,9.5647869,4.5393834,1.0000000,-3.9618320,-15.5954199
6330,1.7333932,13.7641954,-4.0820932,101.9542007,-33.4656487,77.1297684,0.3639168,9.5025377,4.3861551,0.6259542,-5.7938933,-16.1297703
6340,2.0302727,12.7299051,-4.5681133,113.2595444,-35.1832047,58.1145020,0.4189832,9.4570484,4.3047528,0.8702290,-7.6030536,-14.8778629
6350,1.2761030,11.8536320,-5.2313042,116.3511429,-33.5419846,41.7938919,0.6847382,9.3301563,4.0318151,1.7557251,-8.0687027,-13.8854961
6360,0.3950413,10.6014709,-5.5664907,109.9389343,-28.7709923,30.1297703,0.9050036,9.3038206,3.6702924,1.6641221,-7.2824426,-13.5267172
6370,-0.0454896,9.3205795,-5.4395986,98.4045792,-21.9541988,23.9007626,1.0917504,9.2703018,3.4452386,1.3282443,-6.0916033,-13.0229006
6380,-0.1747758,8.0756006,-5.1714492,85.8091583,-8.3511448,19.1984730,1.1875180,9.2056589,3.4069316,0.5572519,-4.4274807,-13.3358774
6390,-0.3567342,7.0221577,-4.8625989,73.6030502,9.1679392,14.0305347,1.1779412,9.2894554,3.1938488,-1.0839695,-2.2137403,-13.0381680
6400,-0.9289455,5.9495606,-4.8721757,61.6946564,27.0229015,10.9007635,0.8475431,9.4642305,3.4212968,-3.6335878,-0.9465649,-13.0305347
6410,-1.4628497,5.2959471,-4.7237358,49.7786255,39.0381660,11.3053436,0.6847382,9.5863342,3.5386121,-6.1755724,-1.9541985,-11.0458012
6420,-1.3670821,5.1522956,-4.3215117,39.9847336,42.4580154,13.6183205,0.5602403,9.6270361,3.7564833,-7.5954199,-3.7862597,-8.6793890
6430,-1.2617378,5.0421629,-4.5226240,36.6412201,36.8015251,14.2061071,0.5578461,9.7084379,3.8690102,-7.8778625,-4.0000000,-6.0381680
6440,-1.4269369,4.6878228,-5.5377603,32.3206100,27.4656487,13.1450386,0.5769997,9.8664551,3.7780309,-8.2748089,-2.7404580,-2.7099237
6450,-1.6615674,4.5537481,-6.5935979,22.2290077,17.2442741,14.6335878,0.5027798,9.8544836,3.6894460,-9.0076332,-0.4656489,-0.9847328
6460,-2.0542145,4.7093706,-7.2136927,8.5496187,9.4198475,20.8320618,0.5339043,9.7922344,3.8594334,-9.9236641,2.6870229,1.8396946
6470,-2.2792683,4.7045822,-7.4698710,-5.7557254,5.4274807,31.5877857,0.4405309,9.8042059,3.9839313,-10.4580154,5.6717558,3.5801528
6480,-2.4229198,4.9009056,-7.8936424,-20.0381680,8.3511448,47.6793900,0.2513899,9.6461897,4.2879934,-9.7251911,8.9007635,5.0839696
6490,-2.5091105,5.3941088,-8.0301113,-31.1374054,17.9618320,65.5267181,0.1173153,9.5743637,4.3574247,-7.8625956,11.5954199,5.4427481
6500,-1.9464760,6.6630292,-8.2791071,-35.8778610,26.9236641,82.7022934,-0.1173153,9.4594421,4.5705075,-4.5954199,13.0763359,6.0229006
6510,-1.3335636,7.3214312,-8.6358414,-33.8167953,28.3206100,95.0992355,-0.3327923,9.3852224,4.6040263,-0.8167939,13.4045801,6.7480917
6520,-0.7757174,8.8058290,-10.4889441,-36.7709923,28.1603050,101.7786255,-0.3974355,9.2750902,4.5968437,3.1755726,12.3435116,8.5877867
6530,-0.6416427,9.2319946,-11.8751793,-48.8091621,23.0687027,102.8244247,-0.2370248,9.2152348,4.2377152,6.7099237,10.9618320,10.1145039
6540,-0.9433106,9.8903971,-11.9972830,-62.9541969,9.4122133,102.4503784,0.1963235,9.2272062,3.9935081,8.8244276,11.1832066,10.6641226
6550,-1.4365137,10.6517487,-10.8983507,-67.7404556,-7.7480917,101.7175598,0.3687052,9.2487535,3.6774750,9.2137403,11.8549614,9.4198475
6560,-1.7621235,10.9773588,-9.9765873,-60.0076332,-24.2137413,100.0076370,0.5482694,9.1721401,3.3111639,7.8778625,12.2748089,8.4656487
6570,-2.0206959,10.9414454,-9.2319946,-44.9160309,-38.5114517,98.2519073,0.6344602,9.1745338,3.3303175,5.4274807,12.0305347,7.6564884
6580,-2.7605004,10.8121595,-8.8561068,-24.8549614,-47.8015251,95.5648880,0.7326220,9.2248116,3.0286496,2.1068702,10.7862597,6.3664122
6590,-3.7109938,10.5607700,-8.9399033,-2.7022901,-53.6717567,98.3511429,0.7038917,9.2583303,3.0837159,-1.9847329,9.1297712,4.6717558
6600,-4.4148855,9.9191265,-9.6246414,16.0000000,-56.9465637,105.8091583,0.7158626,9.1721401,3.1387823,-6.1526718,6.9923663,2.7557251
6610,-4.7979555,9.5935173,-10.3141680,26.3129768,-47.8549614,119.7480927,0.7182568,9.2080526,3.3231349,-9.5725193,5.1145039,1.0839695
6620,-5.3294659,9.0476418,-10.4003592,29.2290077,-32.7480927,139.8549652,0.5626345,9.1434097,3.5649481,-10.5038166,4.4198475,-0.7633588
6630,-5.6646523,8.4538832,-9.9382801,30.5267181,-19.0381680,164.4274750,0.5219333,9.0308828,3.6583214,-10.3969469,5.1526718,-0.3893130
6640,-5.8083038,7.2950954,-9.7539282,31.8091602,-11.4732828,193.0152740,0.6631905,9.0667953,3.8594334,-8.8015270,7.0992365,-0.8778626
6650,-5.4779053,6.5648675,-10.2016411,29.9847336,-6.3893127,225.4809113,0.7326220,9.0404596,3.9073172,-6.1908398,9.6259546,-1.3969465
6660,-4.5130472,5.8250628,-10.5655584,23.1603050,-0.5496183,250.1297760,0.7278336,9.0787668,3.9839313,-3.2671757,12.5038166,-2.6793892
6670,-2.5665710,5.3917146,-10.3476868,14.7480917,2.9541984,250.1297760,0.7517755,9.1960821,3.9599893,-0.2061069,14.3053436,-4.9541984
6680,-0.2106887,4.4460096,-9.9933472,9.5648851,4.2366414,250.1297760,0.6224893,9.2511482,3.9001346,2.1145039,15.1832066,-6.5267177
6690,1.9009864,3.7014170,-9.8784256,4.5801525,3.5038168,250.1297760,0.4596844,9.4067707,3.7469065,3.8778627,14.9694653,-7.7175574
6700,4.4436154,3.0597742,-9.6701307,-6.2900763,2.2900763,250.1297760,0.4261657,9.5743637,3.5314295,4.2824426,14.6564884,-8.2671757
6710,7.2232695,3.1507533,-10.1322098,-32.7099228,10.1145039,250.1297760,0.4525018,9.7970228,3.4619980,3.7099237,14.4656487,-7.8015265
6720,8.8297710,2.2672975,-9.5169029,-60.1068687,14.1984730,245.5801544,0.2801202,9.8736372,3.3877780,1.9847329,15.2061071,-7.3206105
6730,11.4657736,0.6081241,-8.4227581,-106.7099228,-5.8244276,191.3053436,0.2178712,9.9622221,3.3758070,-0.3740458,14.9312973,-4.7099237
6740,14.6428623,-2.6838863,-5.2169390,-158.1145020,-41.4351158,122.7480927,0.2106887,10.0436249,3.4332676,-2.1450381,14.4427481,-2.7480917
6750,19.0433826,-8.3317795,0.2657550,-208.7404633,-69.1145020,39.1603050,0.2202654,10.1298151,3.6391680,-3.6793892,15.0229006,0.2519084
6760,19.6126022,-15.1169119,6.7707677,-250.1374054,-78.6870193,-36.0458031,0.4381367,10.1800938,3.8235207,-5.2366414,15.1603050,2.3816793
6770,19.6126022,-19.6131992,15.3778791,-250.1374054,-55.8854980,-72.5801544,0.4860204,10.2327662,4.0677280,-6.4732823,15.8473282,4.4122138
6780,19.6126022,-19.6131992,19.6126022,-250.1374054,44.3053436,-37.7633591,0.6344602,10.1250277,4.4029145,-6.9083967,16.7557259,7.5648856
6790,11.3484583,-13.3811245,19.6126022,-250.1374054,214.8244324,88.0076370,0.6416427,9.9717989,4.7404952,-5.7404580,20.0381680,10.6183205
6800,5.2839761,-2.5905130,19.6126022,-250.1374054,250.1297760,250.1297760,0.7374104,9.8616667,5.3103123,-2.1450381,26.3129768,14.1908398
6810,10.9127159,3.1268115,19.6126022,-165.2366486,199.6106873,250.1297760,0.8714849,9.6198530,5.7628140,3.8473282,34.5114517,18.1755733
6820,19.6126022,8.2886839,19.6126022,0.1450382,74.4885483,250.1297760,0.8595140,9.4163475,6.1698260,11.9618320,42.4503822,21.1984730
6830,19.6126022,12.1457233,19.6126022,207.6412201,-9.0000000,250.1297760,0.9552816,9.2655134,6.4714942,21.3129768,47.4503822,22.7099228
6840,19.6126022,10.6014709,18.7967815,250.1297760,-98.4885483,41.1450386,0.9337339,9.2511482,6.3326311,29.2900772,45.7557259,23.2213745
6850,19.6126022,4.9847026,5.2432747,250.1297760,-153.4809113,-197.4809113,1.0414724,9.0835552,5.9112539,34.0381660,38.8244286,23.5801525
6860,19.6126022,-1.6974803,-5.7292953,250.1297760,-144.9923706,-250.1374054,1.2856797,9.0452480,5.3797436,35.7175560,29.1374054,21.6412220
6870,17.6715126,-5.9711084,-11.0036945,185.9236603,-118.3664093,-250.1374054,1.5107336,9.0141230,5.0828643,34.8015251,18.7099228,18.5648861
6880,12.1289635,-7.1346846,-10.1202393,40.2213745,-62.1221390,-250.1374054,1.4532729,8.9710283,4.3861551,31.6717548,8.8625956,15.1832066
6890,9.1673517,-7.4579000,-3.3303175,-41.0458031,-35.9083977,-250.1374054,1.5801650,9.0979195,4.0820932,27.5496178,-0.2977099,12.0152674
6900,8.7747040,-7.3621325,1.6112895,-59.6641235,-49.8854980,-250.1374054,1.6136837,9.1960821,3.6894460,22.0916023,-7.2519083,10.1450386
6910,9.4977493,-6.8832946,5.0062504,-40.8778610,-70.6183243,-250.1374054,1.4724265,9.1912937,3.5314295,16.3893127,-11.7557249,9.9236641
6920,9.5169029,-6.6893654,5.3318601,-4.4427481,-67.2900772,-250.1374054,1.4293311,9.1434097,3.4141142,11.5877867,-15.9312973,9.4961834
6930,8.5017672,-6.5720501,3.2680686,26.9923668,-45.4045792,-250.1374054,1.4221486,9.1338329,3.2369442,7.4122138,-20.1221371,10.0000000
6940,6.9910331,-5.2624283,0.7350162,39.7557259,-16.9770985,-250.1374054,1.5801650,9.0787668,3.2369442,3.6793892,-23.0763359,9.9541988
6950,5.1738434,-2.9544299,-1.7381816,39.7251892,17.4274807,-250.1374054,1.7525467,9.1434097,3.2058196,0.2519084,-25.1145039,9.5954199
6960,2.2146254,-0.3495516,-4.7955613,30.6870232,54.8167953,-248.5572510,1.9129574,9.2152348,3.1603301,-2.6335878,-25.8320618,8.4122133
6970,-0.6584021,1.9105632,-7.8050575,10.7709923,78.1679382,-225.3282471,1.9153515,9.2583303,3.4596038,-4.8702292,-25.6946564,7.0992365
6980,-2.3295465,3.5218527,-9.4522600,-16.6106873,76.2519073,-193.7938995,1.8339491,9.3229742,3.5074875,-6.4809160,-25.1221371,7.9007635
6990,-1.6160779,4.5202298,-10.0915089,-41.9160309,63.4656487,-165.2671814,1.7884595,9.2966375,3.7349355,-7.3740458,-25.8854961,8.0687027
7000,-0.9648584,5.0613165,-9.9215212,-61.1755714,41.9389305,-148.3816833,1.8507085,9.3517036,3.9504125,-7.5572519,-27.3435116,7.9465647
7010,-0.9265513,6.3469963,-9.9837704,-75.2213745,29.1221371,-139.3206177,1.7693061,9.4474716,4.2568688,-7.2900763,-28.0000000,5.9007635
7020,-1.9153515,8.5783806,-10.3213511,-93.4198456,42.7709923,-130.2671814,1.5705882,9.4929609,4.5776901,-5.5114503,-27.7557259,3.4809160
7030,-4.1156116,10.6230183,-10.0436249,-112.9007645,62.9236641,-120.2595444,1.2808913,9.5528164,5.0565281,-1.1068702,-25.8702297,2.3587787
7040,-5.6670465,11.5543585,-9.2559366,-125.1068726,63.0458031,-110.4122162,0.7254394,9.7275915,5.2911587,5.6412215,-22.8702297,0.8854962
7050,-6.2392578,11.7865944,-7.3693151,-124.0152664,38.2213745,-99.3282471,0.0574605,9.9287033,5.4563580,12.9541988,-18.8091602,2.1068702
7060,-5.9016771,11.8320847,-5.4970589,-110.4732819,6.1984735,-84.2595444,-0.5315101,9.9670105,5.3773494,19.9160309,-14.2137403,6.3587785
7070,-4.9080882,12.0403786,-4.0198441,-90.5419846,-9.7404585,-65.3511429,-0.7541697,9.9574337,5.1690550,25.2137413,-10.3893127,9.8702288
7080,-3.5481887,12.9142580,-3.5266411,-69.9389343,-8.7099237,-50.3435097,-0.8379663,9.9358864,4.9751258,28.0763359,-8.0152674,13.6717558
7090,-3.1531475,14.0993814,-3.4021432,-50.0000000,12.3893127,-41.6717567,-0.8068419,9.9023676,4.6854286,29.1374054,-6.9312978,15.7099237
7100,-3.4212968,14.8272152,-4.4148855,-33.7099228,38.1526718,-38.2519073,-0.8212070,9.7922344,4.5417776,28.8625946,-8.6412210,18.3053436
7110,-4.7907729,15.2222567,-6.6510582,-30.8473282,47.8625946,-28.2595425,-0.7206510,9.7204094,4.4364328,28.9312973,-12.6793890,19.3435116
7120,-4.9248476,16.2445755,-7.1801744,-40.7022896,40.8396950,-4.7709923,-0.3902529,9.6749191,4.1108232,28.8015270,-17.0076332,20.4732819
7130,-3.4596038,16.5270901,-5.8537931,-48.4274826,39.1145020,22.2213745,0.0622489,9.6246414,3.6224086,28.7480907,-20.8167934,21.4885502
7140,-1.9680238,16.3618908,-4.0581512,-43.2671738,32.7251892,43.6564903,0.5817881,9.6126709,3.1244173,28.7328243,-23.3129768,21.9618320
7150,-0.0742199,16.6587696,-2.0278785,-23.0229015,17.7328243,57.6641235,1.1539993,9.5671806,2.8490853,29.1297703,-24.2213745,22.3129768
7160,2.9065459,17.0777531,-0.5051740,10.9770994,-5.5725193,60.5343513,1.5921360,9.5001440,2.5019281,30.2366409,-22.9312973,23.0076332
7170,5.3079181,16.8598824,-0.0574605,50.7862587,-28.1526718,49.7251892,2.1763182,9.4762020,2.0398495,30.9923668,-19.0763359,23.1832066
7180,6.7252784,16.5055428,-0.5626345,83.5725174,-40.7709923,29.2977104,2.5043221,9.3828287,1.6519908,30.1984730,-14.8244276,24.4122143
7190,6.4978304,15.8375635,-1.5514348,101.4351120,-48.7099228,3.5801528,2.9233053,9.3157911,1.3144100,27.7480907,-11.8167934,23.7938938
7200,5.7221127,15.0642405,-2.0278785,103.9694672,-53.3435097,-19.6641216,3.2752512,9.2056589,1.1061156,23.9541988,-11.2977095,22.9007626
7210,5.0014620,14.0347385,-1.8315549,102.5572510,-47.9923668,-41.5801544,3.6966286,9.1721401,0.8236012,19.5419846,-11.2442751,20.2290077
7220,3.7421181,12.8591919,-1.4389079,98.7404556,-44.3129768,-59.5038185,4.0892754,9.0667953,0.6991033,14.6946564,-11.5419846,15.9312973
7230,2.5210814,12.1002331,-1.2641320,93.7557220,-41.2595406,-67.4885483,4.2185616,8.9758167,0.6655847,9.6488552,-11.5267172,11.4427481
7240,1.7238164,11.1018562,-0.6895266,92.6870193,-41.8854980,-70.8167953,4.2712340,8.9590569,0.6991033,4.4503818,-11.5725193,7.3511453
7250,1.0725969,10.1561518,-0.3974355,93.4809189,-46.0458031,-69.9542007,4.0844874,8.8489246,0.9169745,0.0687023,-11.2748089,3.9847329
7260,1.3048333,9.3157911,-0.3591284,100.3816757,-39.3206100,-69.4198456,3.7900019,8.6047173,1.1252691,-3.2366412,-10.7480917,2.2671757
7270,1.8866212,8.9853926,-0.2992737,110.7022934,-34.7480927,-70.3664093,3.7876077,8.3892403,1.2737088,-6.2061067,-13.1832066,2.9465649
7280,1.5394639,8.4586716,-1.0773853,121.8091583,-33.3435097,-70.0457993,4.3047528,8.4706421,1.3407460,-10.2977095,-17.5725193,3.3511450
7290,0.6943150,7.3645267,-2.2242019,126.8473282,-33.2061081,-67.5725174,4.5106530,8.2815018,1.9273225,-12.2519083,-22.3282452,2.6564887
7300,0.1987177,7.1897511,-2.7269819,123.4503784,-34.8015251,-67.0381699,5.4348102,8.8225880,1.5083394,-17.1679382,-23.7709923,-0.8931298
7310,0.0790083,7.3238254,-3.4380560,115.9542007,-38.3664131,-74.4885483,5.4874821,8.9494801,1.5418580,-21.9618320,-26.0229015,-8.2366409
7320,-0.2035061,6.2129216,-4.2281384,102.5572510,-48.0000000,-82.4198456,5.2528515,9.0189114,2.3989778,-23.6870232,-23.7862587,-16.1374054
7330,-0.5817881,4.9296360,-4.8218975,82.1679382,-52.7862587,-86.7862625,4.4484038,9.1984758,2.9592183,-21.3969460,-18.1679382,-24.3969460
7340,-1.3407460,4.4507980,-4.8195033,58.9083977,-45.7251892,-87.1145020,3.4308734,9.2607250,3.2034254,-18.1832066,-12.6488552,-35.1450386
7350,-2.2026544,4.1395535,-4.4938936,37.7175560,-35.1908379,-83.5343475,2.2625091,9.3540983,3.3422885,-16.2748089,-5.9847326,-46.5954208
7360,-2.7174051,3.7612717,-3.9623835,20.9923668,-29.4732819,-76.9312973,0.1460456,9.3780403,4.1587071,-12.6335878,-1.7862595,-52.9771004
7370,-2.9065459,3.4045374,-3.1770895,12.2061071,-31.4427490,-69.9007645,-2.2768741,9.3110027,4.8793583,-4.8778625,0.0763359,-51.3816795
7380,-2.8347204,3.2153964,-2.3582766,10.0763359,-35.1297722,-61.1526718,-3.6319854,9.1314383,5.2743993,7.8396945,-2.9694657,-42.9847336
7390,-2.7126167,2.9855542,-1.9273225,11.4809160,-32.3435097,-49.6335869,-4.2568688,8.9734221,5.3151007,25.1603050,-5.1984735,-31.1755733
7400,-2.8107784,2.8179610,-1.6495966,15.3282442,-21.3358784,-34.5725174,-3.9719603,8.9949694,4.4795284,39.4198456,-3.2900763,-19.7938938
7410,-2.5330524,3.2991931,-1.9249283,19.6030540,-6.7175574,-15.9847326,-3.1770895,9.0883436,3.0454090,46.3358765,0.4045801,-13.5114508
7420,-1.1827296,4.9128766,-3.5290353,14.7938929,10.4503813,5.7404580,-2.6527619,8.6190825,1.6879035,41.7328262,-0.6183206,-1.2519084
7430,-0.5913648,5.5066357,-4.4603748,4.1984735,13.0763359,6.5954199,-2.2289903,8.7747040,0.7254394,31.4732819,-4.4122138,9.3740454
7440,-0.1484398,5.9160423,-5.1762376,-9.4427481,15.2442751,3.4961832,-0.8978211,8.7890692,-0.0933734,14.1450386,-16.0763359,17.1221371
7450,-0.2729376,6.3015065,-5.8011212,-24.5725193,19.0000000,-0.4656489,0.6823440,8.1306677,0.2178712,0.6106870,-28.3893127,15.7557249
7460,-0.5985473,6.8880830,-6.2488346,-40.5648842,24.7862587,-3.0687022,1.9704180,8.0013809,0.2681492,-10.3511448,-32.2366409,13.5648851
7470,-1.2306134,7.4124107,-6.1865854,-51.7022896,27.8473282,-1.7709924,2.9280937,7.8768835,0.2585725,-18.4427490,-30.0687027,10.0534353
7480,-1.6807210,8.1426382,-6.2679882,-58.9312973,26.8320618,3.8244274,3.7564833,7.8505473,0.2202654,-26.4580154,-25.8778629,2.5877862
7490,-1.8124014,8.6861191,-6.4092450,-62.9694672,27.5496178,11.4122133,3.9144998,7.7619624,0.3447633,-32.9923668,-20.9694653,-3.5877862
7500,-1.6711442,9.0141230,-6.5217719,-63.2519073,30.1374054,16.4885502,3.8690102,7.9798336,0.8978211,-37.0152664,-15.3206110,-11.5038166
7510,-1.8195840,9.2343884,-6.5816269,-60.0610695,31.5343513,18.1984730,3.7756367,8.2000990,1.2593436,-38.8167953,-9.6870232,-17.8244267
7520,-2.0254843,9.5935173,-6.4427638,-54.1145020,29.6412220,18.5190830,3.6391680,8.5304966,1.6280488,-38.3511467,-4.7709923,-23.2366409
7530,-2.0733681,9.6868906,-6.1817970,-45.5419846,23.4122143,18.2213745,3.3614421,8.8465300,1.8914096,-36.8015251,-0.3587786,-27.0763359
7540,-1.7573351,9.6868906,-6.3062949,-34.2137413,16.7786255,16.3893127,2.9711890,9.1194677,2.1811066,-34.8244286,4.8625956,-29.1984730
7550,-1.6376256,9.4426832,-6.7444315,-24.2061062,9.0152674,11.5419846,2.5857246,9.2439651,1.9656296,-34.3969460,9.4732828,-30.2824421
7560,-1.8076130,9.1888990,-7.3693151,-21.0992374,-1.7862595,6.6183205,2.2984219,9.3588867,2.2146254,-33.2595406,11.8091602,-31.6030540
7570,-2.0374553,8.9614515,-7.6997132,-25.1297703,-13.8854961,5.8931298,2.0925217,9.6054878,2.2050486,-33.3969460,15.3816795,-28.9160309
7580,-2.1619530,8.4658537,-7.3525558,-32.6946564,-25.7786255,10.7328243,2.0637913,9.7132263,2.2672975,-36.0228996,17.5954189,-27.0381680
7590,-2.0230901,8.0372944,-6.2057390,-37.4427490,-37.1603050,18.4274807,1.8531027,9.7682934,2.4731977,-39.3282433,17.0381680,-25.5267181
7600,-1.7717001,7.8098459,-5.1068063,-37.2824440,-45.5725174,26.8015270,1.7309990,9.9574337,2.9544299,-42.7633591,14.6412210,-24.9847336
7610,-1.4173602,7.5225434,-4.2448978,-34.0839691,-51.1755714,34.5267181,1.6543850,10.0340481,3.2201848,-46.0992355,11.7862597,-24.4580154
7620,-1.1204807,7.4962072,-3.5290353,-28.3664131,-52.9847336,41.4656487,1.4053892,10.1154509,3.5912843,-48.5038185,8.2213745,-23.7251911
7630,-1.1539993,7.5297260,-3.3279233,-21.4656487,-50.7633591,47.4656487,1.2090657,10.1609402,4.0701222,-49.7251892,3.6564887,-21.7633591
7640,-1.1851238,7.6470413,-3.8402798,-17.1603050,-43.8931313,54.6412201,0.9504932,10.0508070,4.4699516,-49.8854980,-1.6641221,-20.0687027
7650,-1.0534433,7.9511032,-5.0277977,-20.2137413,-35.3969460,60.4503822,0.7972651,9.8065996,5.0661049,-44.6183205,-7.6412215,-13.7709923
7660,-0.9169745,8.1210909,-6.2009506,-31.0534344,-25.2519093,61.8549614,2.2050486,10.6230183,4.7093706,-42.7251892,-7.4503818,-9.6030531
7670,-1.5035510,8.0875721,-7.6159167,-45.8091621,-13.2977095,64.2061081,2.6647329,10.2902260,4.4077029,-42.0076332,-8.6641226,-10.3816795
7680,-2.5905130,8.1689749,-8.8968077,-66.4351120,-2.4961832,71.8625946,2.5282640,10.3309278,4.7093706,-43.1984749,-9.4198475,-7.4503818
7690,-3.2776453,8.7675219,-9.4163475,-87.3206100,-2.0839694,81.7633591,2.6623387,10.6613255,5.1403246,-44.4732819,-10.5648851,-3.9389312
7700,-3.8235207,9.3756456,-9.0332766,-101.2595444,-11.9694653,89.0457993,2.6958573,10.8001890,5.6167684,-45.2900772,-11.0610685,-2.6641221
7710,-4.7692256,9.5887289,-8.3964224,-103.5801544,-30.8549614,96.4045792,2.6743097,10.8241301,6.1913738,-44.9771004,-14.1526718,-3.3740458
7720,-6.0668759,9.3445215,-7.7978749,-93.7099228,-61.5877876,109.3358765,2.7437410,11.0204544,6.7300668,-42.7480927,-18.0381680,-5.5725193
7730,-7.6757712,9.2655134,-6.6558466,-67.9542007,-104.5496216,132.8702240,2.6120608,11.0898857,7.0197635,-39.0992355,-19.9923668,-7.0610685
7740,-8.7268209,8.9303265,-6.1099715,-28.1679382,-158.9541931,166.5725250,2.3032103,11.2287483,7.5033898,-33.9236641,-21.0381680,-9.0916033
7750,-9.5935173,8.1809454,-6.8066807,14.4732828,-204.0229034,210.1832123,1.9943599,11.5208397,8.1929159,-26.0839691,-22.6183205,-10.4656487
7760,-10.9127159,7.3693151,-7.4507174,53.2671738,-237.8396912,250.1297760,1.3646880,11.6668854,8.6190825,-15.2290077,-24.9465656,-9.4198475
7770,-10.5942879,7.4076223,-7.0341287,88.5496216,-250.1374054,250.1297760,0.9528874,11.9613705,9.0548248,-1.5038168,-27.3206100,-8.7099237
7780,-7.5297260,8.2336178,-6.5193777,118.9465637,-250.1374054,250.1297760,0.7493813,12.3468351,9.3469152,14.4045801,-28.7099228,-6.4351144
7790,-4.6973996,6.9623032,-6.9048424,138.3664093,-229.4427490,250.1297760,0.5650287,12.5359764,9.3014259,31.8549614,-28.9465656,-3.5419848
7800,-0.8666966,7.5584559,-7.6661944,143.6641235,-170.3740387,250.1297760,0.5123565,12.5431585,9.1888990,50.3511467,-25.9847336,-0.6946565
7810,1.1372399,8.3700867,-8.9829988,125.5038147,-96.2595444,250.1297760,0.3280039,12.4186611,8.9135675,69.9389343,-20.5648861,1.2748091
7820,2.8107784,8.2599535,-9.6198530,89.9542007,-31.6946564,250.1297760,-0.0335187,12.2702208,8.2384062,89.9847336,-14.0534353,2.7557251
7830,4.7452836,8.3605099,-8.8608952,53.9541969,10.6183205,250.1297760,-0.4141948,11.9901009,7.4052281,107.1603088,-10.3969469,5.0229006
7840,6.1099715,8.4131813,-7.9678626,29.9770985,41.1908379,250.1297760,-0.4285599,11.6764622,6.3350253,122.2290039,-6.6946564,8.4351149
7850,6.3565731,7.5584559,-7.9343438,16.1297703,60.1832047,250.1297760,-0.0335187,11.5783005,5.0397687,133.5343475,-0.0381679,11.3740454
7860,6.4762826,6.2392578,-8.4850073,2.2442749,57.8702278,250.1297760,0.0837966,11.4322548,3.7349355,139.0458069,8.5267172,14.3358774
7870,7.1155310,4.5657191,-8.6166878,-20.2366409,39.0534363,233.8167877,-0.1053443,11.2215662,2.6096666,138.6946564,13.5725193,19.6717548
7880,8.7579451,2.4995339,-7.0460997,-45.6030540,13.2290077,193.5572510,-1.0151364,11.0994625,1.6352314,132.9084015,16.5190830,28.9312973
7890,11.5950594,-0.1747758,-4.2832050,-64.4198456,-29.0152664,140.6412201,-3.0956869,11.3005743,0.5243275,122.7404556,14.8931293,46.9847336
7900,15.3874559,-3.7277529,-0.4716553,-75.2977066,-76.4809189,74.3282471,-4.6614871,11.2167778,-0.2513899,108.2061081,9.8396950,77.1450348
7910,19.6126022,-7.8074517,3.6487448,-84.2900772,-117.8244247,-5.7786260,-4.6782460,10.5727406,-1.4293311,88.6946564,4.4885497,115.3740463
7920,19.6126022,-13.9581242,6.9527264,-100.7099228,-153.6641235,-85.5572510,-2.8059900,9.3588867,-2.0135133,64.2442780,-1.5114504,147.9313049
7930,19.6126022,-19.6131992,8.4490948,-144.2595367,-153.9694672,-127.6717529,0.1987177,8.1378498,-1.8722562,41.6412201,-1.9770992,161.4503784
7940,19.6126022,-19.6131992,10.4075413,-196.2900696,-49.4580154,-80.3358765,3.2321558,6.8569584,-1.1563935,24.1679382,4.7480917,155.2290039
7950,11.0156660,-17.2046452,13.5008345,-208.9313049,145.5190887,59.3358765,5.0014620,6.1339135,-0.1484398,13.1297712,15.2595415,135.3893127
7960,3.7780309,-4.0892754,14.2980995,-180.7633514,250.1297760,241.6564941,5.6000090,5.5712790,0.7613522,7.1297708,24.7404575,108.8244247
7970,7.7835097,4.0126615,15.6316633,-126.0916061,250.1297760,250.1297760,5.2863703,5.2193332,1.9991482,5.6564884,24.9694653,83.1374054
7980,19.5294037,8.8680773,17.3243542,-48.3587799,191.1221313,250.1297760,4.5274124,5.0900469,2.5641768,6.4809160,15.4122133,59.5648842
7990,19.6126022,12.6030130,16.2709122,50.0152664,83.9618301,250.1297760,3.7301471,5.0158267,2.6599445,7.0687022,1.5343511,42.1068687
8000,19.6126022,14.1544485,12.8855276,157.7022858,5.8549619,171.6793823,3.3686244,4.8362627,2.5402350,6.4198475,-11.5190840,29.9083977
8010,19.6126022,12.0212250,7.8146343,233.1221313,-86.7022934,-18.6030540,3.5984666,4.6566987,2.0566087,3.2900763,-20.5801525,19.7328243
8020,19.6126022,7.3764977,1.2162483,250.1297760,-143.8549652,-177.6641235,4.0653338,4.4268565,1.9273225,-0.5267175,-25.3816795,8.2137403
8030,19.6126022,2.7581062,-3.7923961,223.2671814,-163.2442780,-250.1374054,4.3215117,4.2377152,2.1140692,-3.6183207,-27.4122143,-6.4427481
8040,16.9125538,-1.8267666,-7.6374645,142.0152740,-148.8702240,-250.1374054,4.1658897,4.1730723,2.2122312,-3.9160306,-26.8015270,-20.1145039
8050,14.9493189,-6.0142040,-8.1354561,44.9160309,-112.0381699,-250.1374054,3.7900019,4.1658897,2.2936335,-1.4503816,-24.0000000,-32.4580154
8060,14.0682573,-7.5608501,-6.3948798,-45.1526718,-65.3282471,-250.1374054,3.0023136,4.4579806,2.2960277,2.7099237,-21.3282452,-40.4885483
8070,13.2638092,-7.5225434,-2.5737536,-105.5190811,-33.8549614,-250.1374054,2.2361729,4.9703374,1.9752063,5.6259542,-21.2519093,-44.3816795
8080,11.3125448,-6.4475522,0.4620786,-129.3969421,-12.6335878,-250.1374054,1.8698620,5.8777351,1.4460905,6.5954199,-23.2213745,-44.1755714
8090,9.7467451,-5.6215568,1.8602852,-133.2442780,6.3206105,-250.1374054,1.9608412,6.4738884,1.0103480,4.9007635,-25.9541988,-41.9618340
8100,7.7380204,-4.6088147,2.5498118,-126.6106873,30.4198475,-250.1374054,2.0326669,7.3262196,0.8116302,2.4045801,-26.7022896,-41.0000000
8110,6.2727766,-3.8139439,2.3103929,-113.8320618,65.9847336,-249.7099304,2.1044924,8.0372944,0.8595140,0.8320611,-26.5038166,-41.9389305
8120,4.1060348,-1.0917504,1.6687500,-91.6030502,112.5648880,-229.4122162,1.9680238,8.7818871,0.8355721,1.6183206,-24.6259537,-43.3816795
8130,0.9050036,1.7669119,0.2035061,-70.6717529,157.9618378,-199.8396912,1.8914096,9.5216913,0.7565638,4.3664122,-21.2137413,-44.3969460
8140,-0.9480990,4.9056940,-1.7429699,-61.2213745,184.3358765,-159.3358765,1.8171898,10.1968527,0.7038917,8.4198475,-17.2366409,-45.9847336
8150,-0.5602403,6.8761120,-1.4269369,-48.7328262,175.0229034,-121.6335907,1.6232605,11.0348196,0.6847382,13.1984730,-12.6717558,-48.8473282
8160,1.3431402,7.3884687,-0.5961532,-20.3740463,126.2442780,-98.3740463,1.2330076,11.7363167,0.6512195,17.6106873,-9.0381680,-50.3435097
8170,3.5074875,7.3597383,-0.7733232,11.7480917,69.9542007,-92.9542007,0.6584021,12.3252869,0.8547257,21.3282452,-8.2748089,-48.3129768
8180,5.2504573,7.4028339,-1.6519908,35.9389305,32.1526718,-103.0534363,0.0478838,12.7442703,0.7254394,24.0534344,-9.1145039,-43.7099228
8190,4.9799142,7.9534974,-3.0214672,41.3664131,19.0000000,-118.5038147,-0.3926471,13.0004492,0.6727672,24.0000000,-8.6717558,-37.2595406
8200,3.0478032,9.6557665,-4.5393834,28.5572510,35.5954208,-121.2442780,-0.4596844,13.0196018,0.7637464,22.3587780,-8.6030531,-30.5572510
8210,2.2265961,10.7738523,-5.1331420,8.6335878,52.7862587,-113.1450348,-0.2561783,12.8735571,0.8738791,21.0076332,-4.1297708,-23.1832066
8220,1.9632354,10.2758608,-5.1810260,-9.8015270,58.3664131,-109.6335907,0.3567342,12.5958309,1.1731528,21.5877857,2.6641221,-19.0305347
8230,2.1475880,9.8927908,-4.9176650,-24.2137413,57.5496178,-112.4427490,0.8858501,12.3420467,1.3958124,23.5725193,11.5267172,-16.0839691
8240,2.1380112,10.2543135,-4.4077029,-33.5725174,57.9465637,-116.8015289,1.1037214,11.8775740,1.4604555,26.5725193,21.7938938,-13.7480917
8250,1.7238164,11.1928358,-4.2544746,-38.2519073,73.1145020,-121.1526718,1.3479286,11.4083128,1.5801650,29.6793900,31.8854961,-10.1908398
8260,0.2035061,11.8153248,-4.6327567,-41.6335869,99.0229034,-126.3053436,1.5394639,10.7762470,1.8794388,33.4885483,40.4885483,-6.6030536
8270,-1.4963684,12.2055779,-5.2648225,-47.1603050,119.2137375,-126.2977066,1.7860653,10.2088242,2.0063307,37.0458031,47.3664131,-2.5419848
8280,-2.4277081,12.6485033,-5.7077475,-53.0534363,135.9770966,-118.9236679,2.0685797,9.5791521,2.0949159,40.7862587,52.2213745,1.4961832
8290,-3.6391680,12.5144281,-6.1602492,-55.1908379,148.5419922,-102.9389343,2.3439114,9.0404596,2.1547706,42.9541969,55.1374054,2.2671757
8300,-4.8602047,13.1153698,-6.9646969,-57.3740463,152.1526642,-77.8702316,2.6360025,8.5328913,2.0613971,43.3969460,57.1374054,1.3893130
8310,-5.2193332,14.6452570,-7.3597383,-61.3664131,153.3282471,-45.1374054,2.6192431,8.2096758,2.0733681,42.1679382,56.8167953,-1.4503816
8320,-4.8171091,16.5031471,-6.3637557,-60.1984749,157.6946564,-13.6183205,2.5426292,7.9582858,2.0015423,39.5877876,53.4045792,-3.2290077
8330,-2.9065459,17.5901108,-4.7620430,-43.8778610,155.0000000,4.6335878,2.4947455,7.6709828,2.0326669,35.4503822,47.4351158,-3.9312978
8340,-0.5889706,17.6978493,-3.4524212,-17.2061062,138.0686951,16.1755733,2.6048782,7.3956513,1.7764885,29.8549614,40.5267181,-4.5496182
8350,2.8873925,17.6619358,-2.2553265,12.4198475,116.6488571,29.1068707,2.7892308,7.2472115,1.7764885,23.2213745,34.1984749,-4.9083967
8360,6.7540083,17.1807041,-1.3670821,44.0305328,93.9083939,34.8244286,2.9879484,7.1945391,1.7908537,15.6030531,28.8702297,-6.1755724
8370,10.0819321,16.4432926,-0.9959828,76.9923630,75.0610657,24.3816795,3.0214672,7.1873569,1.9919657,8.8473282,23.7175579,-8.2213745
8380,10.9629936,15.2150736,-1.5155219,104.8244247,61.3206100,0.0610687,2.9400647,7.2927012,2.0159075,3.6488550,17.6946564,-9.6488552
8390,9.0260944,14.4202032,-2.6623387,121.3282471,37.3893127,-32.1374054,2.9520357,7.5273318,2.1140692,0.2824427,11.0152674,-10.5801525
8400,5.6933827,13.4673157,-3.3494711,123.5954208,1.1068702,-59.9465637,3.1723011,7.6015515,2.0063307,-0.8549618,5.4045801,-12.9312973
8410,3.0142846,12.4665442,-3.3255291,113.5419846,-45.6870232,-72.9160309,3.2345500,7.8242111,1.7597293,-1.3206106,1.7175573,-18.2137413
8420,1.7238164,11.2550850,-2.2218077,98.9542007,-80.1755753,-74.1908417,3.0908985,8.0372944,1.6280488,0.2824427,-0.5038168,-23.0992374
8430,1.7717001,10.0005293,-0.5722113,86.3282471,-98.7862625,-73.4351120,2.9448531,8.2838955,1.3024391,3.0458016,-0.5343512,-28.8167934
8440,0.8810617,6.2584114,1.7262106,84.8167953,-29.6259537,-75.2824402,1.9536586,9.9598284,-0.2968795,7.8931298,23.0534344,-38.1221390
8450,0.3567342,5.8992829,1.1109039,86.8549652,-2.8702290,-66.4427490,1.6065011,10.3045912,-0.6943150,-0.2519084,27.0610695,-33.1526718
8460,-0.2106887,5.2839761,0.5171449,88.0229034,20.5267181,-58.5419846,1.5107336,10.5368280,-0.9959828,-13.4809160,27.8702297,-27.0534344
8470,-0.5889706,4.8266859,-0.2274480,86.7633591,33.7557259,-53.1603050,1.5466464,10.6469603,-1.0223188,-30.5496178,27.6106873,-19.5877857
8480,-0.9097920,4.5322008,-1.3335636,81.7480927,40.7709923,-47.7328262,1.8052188,10.7475166,-0.4572902,-48.3511467,23.2061062,-12.3587790
8490,-1.2545552,4.3382711,-2.1787124,72.7938919,44.7251892,-41.8015251,1.9847831,10.5727406,0.4141948,-63.1832047,16.3893127,-6.9312978
8500,-1.2282192,4.3670015,-2.7102225,61.4045792,44.0228996,-34.8167953,2.1092808,10.3021975,1.3383518,-72.2213745,7.1450381,-5.0076337
8510,-1.2377959,4.3191175,-2.9807658,50.2671738,42.7099228,-27.5343513,2.2601149,10.3021975,2.3199697,-74.4885483,-1.6564885,-7.1374044
8520,-1.0247130,4.2592630,-3.0669568,42.0839691,40.7404594,-21.6412220,2.2744799,10.3357162,3.1603301,-71.2900772,-7.7938933,-8.7480917
8530,-0.7565638,4.2903876,-3.2321558,35.7557259,38.1297722,-18.3282452,2.1523764,10.2279778,3.6128318,-64.0610657,-11.5190840,-9.0076332
8540,-0.6464311,4.4388270,-3.4165084,30.8778629,33.1145020,-16.4045811,2.1691356,10.1800938,3.6846576,-55.9771004,-13.8473282,-8.3740454
8550,-0.6488253,4.5561423,-3.4045374,28.3587780,29.0534344,-16.6335869,2.3151813,10.2375546,3.6200144,-48.0534363,-15.6030531,-7.4122138
8560,-0.9026094,4.6351509,-4.2089849,23.2900772,30.8015270,-15.0305347,2.5569944,10.3452930,3.7636659,-40.4656487,-15.6946564,-7.6793895
8570,-1.0342898,4.9727316,-5.0397687,10.9389315,33.2824440,-8.5725193,2.6336083,10.3309278,3.6894460,-32.6717567,-15.1068707,-8.0076332
8580,-0.7062859,5.4898763,-5.4994531,-5.3816795,38.7557259,-1.1755725,2.6024840,10.3500814,3.7469065,-24.8625946,-15.2213745,-7.6717558
8590,-0.5602403,5.8083038,-5.9040713,-22.2061062,44.2748108,4.4045801,2.7437410,10.3644457,3.6559272,-17.1603050,-17.3282452,-7.7328243
8600,-0.4141948,6.3158717,-5.9950504,-37.7251892,46.2671738,8.8625956,2.9903426,10.4410601,3.3470769,-10.7709923,-21.3969460,-9.4961834
8610,-0.3519458,7.0365229,-6.0046272,-50.6335869,41.8625946,10.4580154,3.1100521,10.5895004,3.0382264,-6.2290077,-24.6564884,-11.6717558
8620,-0.5769997,7.5919747,-5.5808558,-59.7709923,30.9160309,11.5267172,3.1172347,10.5823174,2.8251436,-3.9923663,-27.2595425,-13.5954199
8630,-0.8978211,8.2455883,-4.9966736,-63.0610695,15.1984730,13.4351149,2.9496415,10.6517487,2.8849983,3.0534351,-28.1145039,-9.4961834
8640,-1.2090657,8.7962523,-4.4005203,-62.0610695,1.9389313,16.5114498,3.2656744,10.9629936,1.9752063,0.9770992,-29.6412220,-10.6030531
8650,-1.0318956,9.6916790,-3.7301471,-57.3435097,-2.9007633,20.4809170,2.8562679,10.5033092,1.8554969,-1.7328244,-34.8778610,-10.1755724
8660,-0.8619082,10.3812056,-3.5074875,-49.0000000,3.6183207,21.4274807,2.7078283,10.5344334,2.1475880,-4.3664122,-39.6717567,-8.9236641
8670,-0.8475431,10.6182299,-3.9839313,-41.9007645,16.9083977,20.5038166,2.6479735,10.3955708,2.4875629,-2.0839694,-40.5190849,-8.3206110
8680,-1.3982066,10.8169479,-4.9440012,-37.2900772,35.4274826,22.0916023,2.3199697,10.2064295,2.6886747,2.6717558,-38.0687027,-6.8625956
8690,-1.9943599,11.2742386,-5.5329719,-34.6717567,50.3282433,28.5038166,2.1571648,9.9143381,2.5330524,8.4580154,-35.3282433,-6.0839696
8700,-2.5905130,11.4274664,-6.1434903,-31.9465656,57.5877876,36.6564903,2.0637913,9.7132263,2.3151813,14.5419846,-31.8625946,-7.2290077
8710,-2.8323262,11.3915539,-6.7109132,-28.9770985,57.8778610,45.2366409,1.8339491,9.2679071,2.1332228,21.2519093,-26.1832066,-9.1908398
8720,-2.6719155,11.3843708,-7.1825686,-27.2290077,53.8320618,53.5572510,1.5825592,8.7938576,1.7501525,27.4885502,-19.3435116,-12.4427481
8730,-2.2792683,11.4561968,-7.6494355,-25.7404575,49.3282433,60.2442741,1.2330076,8.1857338,1.2114599,33.5572510,-12.5190840,-17.0763359
8740,-2.1954718,11.7387114,-7.9056134,-24.5038166,45.7709923,63.2671738,0.7900825,7.7763271,0.8858501,39.9923668,-5.4961834,-23.6106873
8750,-2.4827745,12.1433287,-8.1043310,-23.2366409,38.9312973,62.0305328,0.3878587,7.6470413,0.6871324,46.4122124,2.6946564,-31.0076332
8760,-2.9664006,12.4641504,-8.4897957,-25.2900772,28.0839691,59.6870232,-0.4501076,7.7763271,0.3208214,51.6641235,10.9389315,-35.9389305
8770,-3.5074875,12.3899307,-8.3676920,-30.9847336,18.0229015,60.2595406,-1.1970947,8.0277176,-0.1604107,53.3358765,15.1450386,-36.0839691
8780,-4.2520804,11.9805241,-8.1378498,-35.4961815,10.7175570,66.0076370,-1.9512644,8.5233145,-0.7517755,49.3435097,13.3816795,-30.4580154
8790,-6.0429344,10.6924505,-9.0213060,-40.0152664,6.2061067,86.2061081,-2.0590029,9.1074963,-1.6615674,37.2748108,5.1374044,-20.4351139
8800,-8.0612354,9.3445215,-10.7259684,-52.9847336,5.5267177,131.9694672,-1.7429699,9.5121145,-2.4612267,17.1374054,-8.7633591,-8.7557249
8810,-9.3325500,8.5520449,-10.9438400,-73.9236679,3.9618320,198.6412201,-1.1396341,9.7060442,-2.9233053,-9.1068707,-23.6106873,2.8778627
