timestamp,rxacclX,rxacclY,rxacclZ,rxgyroX,rxgyroY,rxgyroZ,txacclX,txacclY,txacclZ,txgyroX,txgyroY,txgyroZ
0,-1.0797794,6.1841912,2.5641768,50.9694672,-42.1450386,-13.0534353,1.1037214,3.2920105,10.0484133,-0.3358779,-1.5114504,-1.9389313
10,-1.6735384,5.7436604,2.1643472,51.6488533,-66.8473282,1.9694656,0.9552816,3.3207407,10.1178446,-0.0229008,-0.5343512,-1.6946565
20,-1.6352314,5.3079181,1.9201399,47.5114517,-84.3206100,18.3816795,0.9935886,3.3542595,10.0939026,-0.0992366,0.0076336,-1.5572519
30,-1.4484847,5.3869262,1.7980363,43.6564903,-94.1984711,36.0763359,0.9097920,3.3231349,10.1489687,-0.0458015,0.4122137,-1.2824427
40,-0.9935886,5.6071916,1.4484847,37.3206100,-93.9160309,52.9465637,0.9672526,3.3183465,10.1657286,-0.2061069,-0.7022901,-1.9618320
50,-0.6655847,6.0094156,0.9026094,28.5725193,-91.1221390,69.3206100,0.9217629,3.3015873,10.1202393,0.0152672,-1.4351145,-1.9694656
60,0.1867468,6.5074067,-0.0287303,15.8091602,-88.7328262,82.7022934,0.9097920,3.2944047,10.1729107,0.1145038,-1.6030535,-1.8320611
70,2.0685797,7.1322904,-0.9672526,-2.5801528,-77.8167953,85.4351120,0.8762733,3.3566537,10.1681223,0.4732825,-1.3664122,-1.9236641
80,2.5857246,7.9127960,-1.3215926,-19.3358784,-82.6030502,84.9618301,0.9361281,3.2991931,10.1082678,0.4885496,-1.7938931,-2.6183207
90,3.4931223,8.3030491,-1.2138541,-33.7480927,-100.6412201,83.0534363,0.8379663,3.2944047,10.0867205,0.4503817,-2.3664122,-2.7328243
100,4.5537481,8.5879574,-0.6368544,-44.8396950,-111.8396912,81.2748108,0.8954269,3.3398943,10.0316534,0.4351145,-2.4961832,-2.4274809
110,5.3486195,8.8561068,-0.0287303,-53.2061081,-117.6106873,79.0381699,0.9169745,3.3183465,10.0412302,0.3358779,-2.5267177,-2.3816793
120,5.3510137,9.4426832,0.6416427,-58.0152664,-118.2595444,78.0457993,0.8690908,3.3183465,10.1058741,0.0458015,-2.8396947,-1.8931298
130,5.3270717,9.5384512,1.3024391,-60.6030540,-117.5801544,79.9847336,0.8619082,3.3375001,10.2279778,-0.2595420,-3.0000000,-1.6106870
140,5.7484488,9.6725254,1.6759326,-59.3435097,-111.7175598,83.4961853,0.7900825,3.3446827,10.1202393,-0.3282443,-3.3358779,-1.1908396
150,5.9256191,9.8568783,2.1978660,-54.1450386,-108.6793900,88.6106873,0.8762733,3.3111639,10.1657286,-0.3435115,-3.3969467,-1.1145039
160,6.2584114,10.1034794,2.0973101,-46.4885483,-107.4503784,96.0152664,0.9002152,3.3279233,10.2160063,-0.0687023,-3.2900763,-0.8931298
170,6.6726060,10.5057030,1.6974803,-40.0228996,-106.2671738,101.0687027,0.9289455,3.3805954,10.0915089,0.1603053,-3.5419848,-1.5114504
180,7.1969333,11.5567522,1.8746504,-33.5038185,-96.9542007,103.1526718,0.9696468,3.3183465,10.2423429,0.3511450,-3.5190840,-1.6412214
190,8.3964224,12.0834742,1.2593436,-25.9312973,-93.0152664,100.2900772,0.9361281,3.2872221,10.1441803,0.5496183,-3.4427481,-1.3282443
200,7.3741035,12.2295198,0.5410868,-20.5419846,-103.1145020,97.4885483,0.9840119,3.3638363,10.1944590,0.4580153,-3.5648854,-2.4580152
210,6.3374195,11.8057480,0.2944853,-17.5038166,-124.2442780,101.6488571,0.9026094,3.3063757,10.0915089,0.4122137,-3.5267177,-1.3893130
220,5.4108682,11.9302464,0.2130829,-12.0610685,-134.1450348,110.6870193,1.0031654,3.3997490,10.1106625,0.5114504,-3.3511450,-2.0381680
230,4.9176650,12.1624823,-0.3256098,-4.4198475,-137.3282471,122.3435135,0.9528874,3.3375001,10.2543135,0.7633588,-2.8320611,-1.6335878
240,5.6957769,12.5934362,-0.3782819,5.1526718,-148.4045868,127.8702316,0.8595140,3.3782012,10.2088242,1.1679389,-3.1374047,-1.7709924
250,6.2751703,13.2255030,-0.5219333,17.2442741,-165.7480927,124.7633591,0.6751614,3.4045374,10.3213511,2.0076337,-3.8549619,-0.1755725
260,6.5145893,13.5463238,-1.4173602,29.6030540,-182.6641235,118.2671738,0.8595140,3.2920105,10.3285332,2.4351146,-5.4045801,-0.3969466
270,6.2560172,13.7594070,-3.5625539,34.8702278,-194.1374054,111.5267181,1.0199248,3.2201848,10.3333216,2.1603053,-6.6641221,-0.3587786
280,6.8521700,13.8958759,-4.9966736,24.8091602,-191.4045868,106.1450348,1.0702027,3.1890604,10.3333216,2.0076337,-4.8473282,-1.1221374
290,6.3110833,14.1927547,-5.3869262,12.0152674,-184.5114441,100.3969498,1.1037214,3.0597742,10.4506369,2.8396947,-2.1450381,-1.3129771
300,5.0469513,14.2861280,-5.1211715,1.1145039,-194.8549652,99.3053436,0.9935886,3.0573800,10.6900558,5.1297708,0.1068702,-1.0992366
310,4.1946201,13.7210999,-4.6136031,-2.2748091,-212.8778687,104.5801544,1.1899122,2.8993635,10.6349897,9.1984730,5.8015265,-0.4274809
320,3.8259149,12.9501705,-4.5896611,0.8778626,-229.4198456,116.4503784,1.3862357,3.0358322,10.7954006,14.4198475,10.3969469,-0.1297710
330,3.7804251,12.0475616,-4.8530221,5.2595420,-236.3129730,131.4198456,1.7381816,3.2920105,10.7427282,20.2977104,14.6793890,-2.4351146
340,3.8498566,11.2215662,-5.1546898,7.9312978,-228.0381622,147.9770966,1.6639616,3.1220231,10.4578199,25.1603050,18.2366409,-5.3816795
350,3.9552009,10.1848822,-5.2360926,8.7175570,-204.6641235,166.9084015,1.1923064,3.0837159,10.0699606,27.6717548,20.6030540,-5.8167939
360,3.3063757,9.1027079,-5.4515696,7.2519083,-166.9389343,190.1297760,0.6631905,3.1675127,9.4738073,25.9770985,20.9389305,-6.4961834
370,3.2584918,8.2503767,-6.2224984,-6.1221375,-140.1221313,211.4503784,0.0454896,3.2584918,9.0165176,16.9923668,15.7175570,-6.2671757
380,3.3327117,6.5217719,-5.2097564,-12.0687027,-120.5496216,230.9389343,-0.4596844,3.4500270,8.5759869,-1.1832061,2.0229008,-4.3587785
390,3.6822634,4.9487896,-5.0565281,-15.0381680,-101.9542007,244.8854980,-0.3758878,4.3263001,8.4131813,-27.9312973,-13.5190840,-5.1755724
400,4.3622131,3.3758070,-5.3701668,-20.4122143,-92.4351120,250.1297760,-1.1516051,3.7229645,8.1067257,-63.9694672,-22.0152664,-5.2519083
410,5.3653784,0.9648584,-5.5593081,-32.3206100,-72.5114517,244.6106873,0.5339043,2.9520357,8.3485384,-109.9465637,-45.5725174,0.2519084
420,5.6024032,-1.7046629,-5.8106980,-50.7022896,-53.9236641,229.6870270,2.1691356,2.2218077,10.0292597,-148.3282471,-71.9007645,-2.0992367
430,6.7492199,-4.7907729,-5.4395986,-71.1068726,-42.0305328,200.1068726,2.9328821,1.5729824,13.3859129,-166.4885559,-86.7786255,-8.2290077
440,7.8050575,-9.0260944,-4.7764082,-86.2213745,-24.3740463,158.0763397,3.0406206,1.2569494,17.7529144,-159.2977142,-75.5954208,-11.8091602
450,8.0061693,-14.5590658,-3.6774750,-100.2900772,0.3053435,113.0610657,2.2146254,0.9217629,19.6126022,-126.3435135,-51.2900772,-13.3816795
460,8.7914639,-19.6131992,-1.1468167,-99.2366409,29.6106873,70.3435135,2.4133430,0.2011119,19.0242290,-85.0229034,-13.2519083,-21.6335869
470,7.3310080,-19.6131992,-0.5817881,-86.6259537,63.6717567,49.9083977,2.5234756,0.4285599,18.0378227,-44.4961815,-24.3511448,-37.2137413
480,4.4172797,-19.6131992,-2.6024840,-97.6488571,95.9542007,75.1832047,1.5945302,0.0502780,18.3682213,-0.7251908,-31.1221371,-41.0610695
490,3.4260850,-19.6131992,-2.2912393,-137.6183167,133.9923706,143.8931274,0.8714849,0.6679789,17.8031921,41.1908379,-31.5877857,-34.9312973
500,6.6558466,-19.6131992,2.6383967,-176.7557220,153.9694672,225.7557220,0.7517755,1.4460905,17.5206776,77.4351120,-34.7099228,-27.0763359
510,14.5710373,-13.2374735,11.5615406,-169.7862549,111.0457993,250.1297760,1.0558375,1.9368993,16.1392307,104.3435135,-35.0763359,-19.7938938
520,19.6126022,-6.3230543,19.6126022,-87.1374054,24.0687027,227.6564941,1.2784972,1.9919657,14.8535509,122.8320618,-36.5954208,-16.9083977
530,19.6126022,0.5410868,19.6126022,46.0916023,-20.6335869,138.9465637,1.3479286,2.2242019,13.5511122,134.6564941,-32.2213745,-16.4122143
540,19.6126022,2.4923513,17.7122135,156.9084015,0.8091603,16.0916023,1.4580613,2.8466914,12.4737272,140.5801544,-21.1297703,-17.7175579
550,19.6126022,1.5250987,8.1689749,201.6183167,65.0305328,-118.0457993,1.1611819,3.2752512,12.0116482,142.6106873,-13.0687027,-18.2519093
560,19.6126022,-4.0485744,-0.2920911,191.7175598,173.7404633,-227.8320618,0.8259954,3.5529771,11.5352049,140.9618378,-5.3664122,-16.7175579
570,19.6126022,-10.1058741,-5.3390427,154.4045868,250.1297760,-250.1374054,0.4189832,3.7062054,11.1186161,138.2137451,-6.0992365,-12.0610685
580,16.4983597,-14.8559456,-6.5385313,120.8396912,250.1297760,-250.1374054,0.2873027,3.7636659,11.0755205,135.3740387,-8.7862597,-6.2595420
590,10.0460186,-18.1838684,-4.8195033,109.4122162,250.1297760,-250.1374054,0.2849085,3.8977404,10.7331514,133.1908417,-13.6030531,-1.5190840
600,6.0213866,-19.1152077,-2.2960277,121.4351120,204.5343475,-250.1374054,0.3351865,3.7660601,10.6397781,131.5725250,-18.7480907,1.5038168
610,4.7788019,-18.1503506,-0.1484398,145.1450348,124.7099228,-250.1374054,0.5051740,3.7277529,10.4314833,130.6412201,-21.9236641,3.1526718
620,5.3581958,-16.2278156,0.6895266,166.2595367,63.8091621,-250.1374054,0.8092360,3.7636659,10.3333216,130.5419922,-26.4656487,3.9312978
630,5.6622581,-14.0658627,0.2394189,172.6335907,43.9007645,-250.1374054,1.1180865,3.7157819,10.0939026,132.9084015,-31.3358784,2.9541984
640,4.9416070,-11.8009596,-0.1987177,165.0915985,60.6717567,-250.1374054,1.2737088,3.7349355,9.9167328,138.1908417,-35.2977104,1.1908396
650,4.0006905,-9.3157911,-1.3910241,151.8473358,101.3816757,-250.1374054,1.5514348,3.7038112,9.4642305,145.5648804,-38.3511467,-1.4427481
660,3.2369442,-6.1554613,-2.3606708,138.8625946,135.1755676,-244.2213745,1.6950861,3.6535332,8.9734221,153.9313049,-40.0076332,-3.3206108
670,2.8059900,-3.7493007,-3.4236910,126.0916061,152.5648804,-220.1068726,1.9105632,3.6798692,8.1330614,162.1374054,-39.3969460,-5.0152674
680,3.3111639,-1.3766589,-4.6758518,108.4503784,164.2519073,-193.4961853,2.0494261,3.8043671,7.1969333,168.5877838,-36.7328262,-7.5648856
690,4.8673873,1.1180865,-5.4372044,86.2977066,176.5877838,-174.7328186,2.2601149,3.9528067,6.5074067,171.9694672,-30.7404575,-9.0992365
700,5.7795734,3.6343796,-5.5401545,64.2824402,188.8778687,-165.8854980,2.2936335,4.1012464,5.8777351,173.0305328,-24.5343513,-10.5038166
710,6.3900914,6.3829093,-5.5712790,39.8778610,202.5267181,-164.6106873,2.3271523,4.2472920,5.0397687,171.3816833,-21.7938938,-11.3740454
720,6.6007805,7.9678626,-5.6526814,15.8244276,211.2519073,-171.1145020,2.4253139,4.3191175,4.4699516,167.3740387,-20.5572510,-11.5267172
730,5.4802995,9.1338329,-5.3845320,-3.1984732,200.4045868,-180.9389343,2.7030399,4.5034704,3.7397239,160.9389343,-19.7709923,-12.3740454
740,3.6822634,10.0268650,-4.4460096,-19.8473282,171.0381622,-184.3969421,2.7485294,4.5729017,3.2345500,152.2900696,-18.2748089,-14.1221371
750,2.8419030,10.9031391,-3.6128318,-33.9618340,140.8931274,-180.8473358,2.8490853,4.8745699,2.5210814,140.9847260,-12.3969469,-16.5419846
760,5.3294659,12.8472204,-2.7293761,-44.3816795,118.1526718,-183.7633514,2.9472473,5.1906028,2.0805507,127.6106873,-6.7022901,-17.9541988
770,0.3327923,14.6596222,-1.7405758,-50.6030540,102.0534363,-183.5496216,2.8849983,5.4156566,1.8339491,111.0534363,-2.9694657,-19.6106873
780,-2.4324965,13.8910875,-0.1843526,-51.4427490,93.0610657,-168.4580078,2.6168492,5.6622581,1.9009864,93.2824402,-3.1221373,-21.2824421
790,-0.1197095,15.8327751,-0.0766141,-54.1068687,73.5877838,-162.6412201,2.2768741,5.9088597,1.9201399,75.7175598,-7.1526718,-21.4198475
800,-1.0797794,16.5175133,1.9847831,-43.3206100,50.7175560,-153.0763397,1.8722562,6.2608056,2.0901275,57.0228996,-15.1450386,-21.4198475
810,-3.2393384,15.9931860,3.5457945,-24.1603050,30.4656487,-132.5801544,1.5274929,6.6199336,2.1260402,36.4427490,-30.0152664,-22.7557259
820,-2.0422437,16.1607780,3.0334380,-2.8931298,24.0305347,-103.0610657,1.4006008,7.0844064,2.1068866,12.2442751,-48.8473282,-25.0458012
830,1.0318956,16.6922894,2.7054341,17.6259537,23.9618320,-99.9007645,1.5729824,7.7691450,1.9991482,-16.6870232,-74.6946564,-29.6030540
840,-0.2011119,17.3004131,2.2313845,33.3053436,29.3587780,-89.1297684,1.6879035,7.8050575,1.8554969,-49.8625946,-103.2900772,-35.1679382
850,-2.4779861,19.5820751,2.1978660,48.5725174,41.7938919,-56.2061081,1.8650736,7.9582858,2.1164634,-83.1908417,-134.1526642,-41.6564903
860,-0.3950413,18.8063583,1.0582317,56.0534363,41.2442741,-28.4732819,1.9560528,8.0492649,3.0214672,-112.8320618,-162.9541931,-48.8473282
870,0.0335187,18.3562508,0.9385223,60.8244286,45.1908379,-6.3664122,1.8818330,8.0947542,4.3933377,-132.6259613,-182.7709961,-52.1755714
880,2.0685797,14.3938665,1.6424140,68.5648880,34.4656487,9.5343513,1.7286048,8.2216463,6.0453281,-139.2213745,-190.9236603,-51.0916023
890,2.9233053,12.9070749,1.5298871,81.0839691,18.2748089,12.0000000,1.9776005,8.1067257,7.1322904,-133.2671814,-185.0763397,-48.1755714
900,2.8849983,12.0284081,1.5705882,93.7404556,3.9389312,14.4122133,2.2146254,8.1426382,8.1953106,-116.3282471,-163.0610657,-43.3816795
910,2.7389526,10.5583754,1.0318956,103.2595444,-9.3053436,14.5267172,2.3127871,8.0348997,8.8776541,-91.4885483,-129.9923706,-37.1450386
920,2.6551561,9.6653433,0.6943150,107.7175598,-25.5954189,13.8931293,2.4061604,7.9846220,9.4019823,-61.3969460,-91.0381699,-31.4122143
930,2.8514795,9.4019823,0.1292862,109.1526718,-42.0228996,11.0763359,2.2864509,8.0636301,9.7467451,-27.6793900,-50.4045792,-24.3129768
940,3.2345500,8.8225880,-0.4381367,104.1450348,-52.8244286,5.2213740,2.1380112,8.1210909,9.9095497,6.7175574,-12.2061071,-17.5343513
950,3.6248028,8.0827837,-0.6392486,91.9542007,-56.4809151,-4.0305343,1.8650736,8.1450329,9.6821022,38.1832047,20.2519093,-12.8854961
960,3.8235207,7.5177550,-0.0622489,78.8015289,-55.4656487,-13.9312973,1.6256547,8.3054428,9.1434097,62.8702278,43.0228996,-8.4274807
970,3.6319854,7.0101867,0.3184272,66.8778610,-54.5954208,-23.3969460,1.5298871,8.3581152,8.3006544,79.1679382,58.7786255,-4.7938933
980,3.5529771,6.3326311,1.0558375,58.6946564,-51.8625946,-32.1297722,1.3072275,8.5640154,7.6518297,87.2061081,65.8473282,-1.4351145
990,2.1739240,4.2999644,2.6958573,58.7786255,-21.8015270,-62.1145020,0.8212070,8.0181408,6.6079631,47.0610695,17.1679382,10.0916033
1000,1.6376256,4.7189474,-1.9249283,29.0916023,58.8167953,-74.3129807,2.1811066,6.6151457,6.8401995,52.4198456,-3.6335878,13.8244276
1010,0.2873027,4.7045822,-1.4628497,6.4045801,64.2442780,-72.6870193,2.4755919,6.4643116,6.4667058,59.2748108,1.2442749,13.8015270
1020,-0.3806761,5.1499014,-1.1204807,-9.7251911,66.7938919,-65.6870193,2.8610563,6.3158717,5.9280128,66.1221390,9.7786255,12.7633591
1030,-0.5769997,5.2935529,-0.7948709,-19.9923668,71.1679382,-52.5343513,3.1411765,6.2919297,5.3701668,72.0992355,20.2748089,12.3053436
1040,-0.2322364,5.6311336,-0.2896969,-26.4580154,67.6259537,-42.0763359,3.2608860,6.4236102,4.7692256,75.1908417,31.5190830,10.4809160
1050,-0.4764437,10.9582052,-1.9991482,-32.7404594,10.0687027,-24.7709923,2.9233053,7.2041159,3.5026991,40.9694672,42.2748108,-1.7099236
1060,-0.4118006,12.1768475,-2.1595588,-41.4656487,-18.6183205,-23.5801525,2.6767037,7.4986014,3.6104376,29.5648861,36.5343513,-3.2442749
1070,-1.3431402,13.0004492,-1.8147956,-55.8625946,-27.7633591,-23.0687027,2.6240315,7.7188668,3.8474624,18.3969460,30.3740463,-4.2748094
1080,-1.7788827,12.7897596,-0.7757174,-69.0839691,-27.3129768,-17.0000000,2.6072724,7.7619624,3.9911139,8.2900763,24.3511448,-7.0839696
1090,-1.9368993,12.1098099,0.6895266,-69.6488571,-24.9389305,-7.3435116,2.5234756,7.9582858,4.2975702,-0.2900763,19.6412220,-10.6946564
1100,-1.8291607,11.7770176,1.7932479,-59.8396950,-23.3511448,4.0763359,2.2984219,8.2862902,4.8386569,-7.1908398,15.6488552,-13.2366409
1110,-1.4077834,11.7075863,2.2265961,-45.1832047,-18.4961834,14.1221371,2.1427996,8.5304966,4.9942794,-12.4274807,12.4503813,-16.7709923
1120,-1.0103480,11.6860390,2.3079987,-29.9694653,-14.8625956,23.5877857,1.7333932,8.7675219,5.3174949,-15.9312973,10.3358774,-18.0229015
1130,-0.6177009,11.3029680,2.0326669,-15.1374044,-16.0000000,27.9389305,1.3383518,9.1290445,5.7053533,-18.4274807,8.3129768,-16.3053436
1140,-0.2370248,11.3484583,1.3215926,-4.7709923,-24.2824421,29.5190830,1.1923064,9.5240860,5.8274570,-20.5954189,8.0687027,-13.8473282
1150,1.2042773,11.1784706,0.7613522,-0.5572519,-34.3664131,26.3435116,0.9409165,9.7706871,6.1123657,-21.8778629,8.7404585,-8.1603050
1160,3.6487448,10.7954006,1.1228749,4.9083967,-47.4656487,1.5190840,0.6368544,10.0723553,6.4547348,-24.0458012,7.9389315,5.4961834
1170,3.2920105,10.7092094,0.8690908,10.1755724,-46.9771004,-12.0763359,0.8164186,10.0699606,6.5409255,-25.3664131,5.4274807,12.8549614
1180,2.6120608,10.7762470,0.4429250,13.5419846,-44.6335869,-15.8931293,1.1587877,9.9574337,6.8138633,-27.1832066,-0.2213740,19.3893127
1190,1.4652439,11.1066446,0.5578461,14.7557249,-32.7175560,-8.2366409,1.5873476,9.8975792,6.8832946,-28.7862587,-6.5419846,23.6030540
1200,0.5291159,11.4370432,0.7302278,14.1221371,-15.1908398,10.6030531,2.1835008,9.5863342,6.8713236,-30.2595425,-12.5114508,23.0229015
1210,-0.0454896,11.4250717,0.5147507,10.2824430,0.9465649,37.1145020,2.5857246,9.4762020,7.0484939,-30.8473282,-18.0458012,21.2366409
1220,0.1963235,10.2974091,0.8068419,3.4809160,-0.7480916,60.2137413,2.8730273,9.2583303,7.3860745,-28.8854961,-22.0687027,18.2137413
1230,1.5873476,9.5887289,1.0414724,-2.9160306,-0.6641222,69.4961853,3.1148405,9.0859489,7.5967631,-22.9618320,-24.0534344,14.3511448
1240,2.2529323,9.6725254,1.6017127,-4.7633586,0.6488550,66.4122162,3.3303175,8.8441362,7.6949248,-14.0076332,-25.8549614,9.7099237
1250,2.4612267,10.0579901,1.9321109,-1.7786260,1.7251909,59.7099228,3.4787574,8.6933022,7.5273318,-3.8396947,-22.0687027,6.6564884
1260,2.3726418,10.0268650,1.8866212,2.3129771,-0.8625954,53.4122124,3.3398943,8.5304966,7.1346846,6.8931298,-17.9465656,5.4427481
1270,2.4181314,10.3381100,1.4652439,7.2213740,-5.8091602,49.4351158,3.4260850,8.3676920,6.6582408,17.1679382,-13.2442751,4.2824426
1280,1.9943599,10.7355452,1.0486550,11.4122133,-5.5190840,48.9541969,3.6511390,8.3174143,6.1794028,25.6641216,-7.4045801,0.7862595
1290,1.1372399,10.9917240,0.3016679,12.0381680,-6.7404580,57.4198456,3.7205703,8.2384062,5.6287394,31.4580154,1.3282443,-1.6412214
1300,1.3694763,11.6070309,-1.1755470,-1.4045801,-20.4885502,78.0381699,3.1507533,8.3317795,2.7078283,32.8702278,34.1068687,-3.6870229
1310,1.3096216,12.3564119,-1.3814473,-9.6183205,-27.5877857,76.7175598,2.7269819,8.1258793,3.5505829,25.3053436,41.6946564,0.7480916
1320,0.8738791,12.7801828,-1.0654143,-13.0687027,-33.0152664,77.2519073,3.0861101,8.8082228,4.8482337,22.5725193,46.6717567,4.1374044
1330,1.0295014,13.7306767,-0.2944853,-8.3282442,-35.2213745,83.0381699,2.9424589,8.7316093,4.9152708,20.2824421,48.1755714,2.2671757
1340,0.4477134,14.2933111,-0.5003856,20.3893127,-42.1374054,79.9542007,2.0877333,8.2384062,5.1714492,12.5267172,32.0992355,1.8549619
1350,-0.1580165,15.3108416,-0.7398046,36.4274826,-57.9312973,79.9770966,1.9177457,8.2407999,5.2624283,9.1679392,23.6030540,3.2213740
1360,-0.9720409,14.7697544,-1.5586174,55.6641235,-81.7404556,82.2519073,1.7740943,8.2144642,5.4898763,7.2290077,16.9923668,6.3435116
1370,-1.7070571,14.1161413,-2.2936335,76.7709961,-106.8320618,86.8702316,1.8147956,8.2336178,5.5880380,6.0916033,11.1832066,10.0000000
1380,-2.2074428,13.8527803,-3.0142846,97.8167953,-132.3358765,92.9770966,1.9464760,8.1378498,5.5952206,5.1755724,4.6946564,13.2824430
1390,-3.0741394,13.0459385,-3.7923961,116.1450348,-158.8320618,99.7099228,2.0326669,7.9295554,5.7699966,6.0229006,-0.1068702,16.1221371
1400,-4.1946201,12.2726154,-4.6207857,129.6564941,-179.9313049,113.7938919,2.3343346,7.7787213,5.8250628,9.0610685,-2.8320611,17.7709923
1410,-5.2145448,11.3676119,-4.9607606,137.5496216,-189.8167877,137.4580078,2.8634505,7.8002691,5.2169390,9.9389315,-4.4732823,18.5954189
1420,-6.6797886,9.0979195,-3.7085996,147.6946564,-180.8320618,170.6717529,3.0837159,7.5536675,4.7069764,8.1526718,-7.1832061,17.1450386
1430,-9.3828287,7.5488791,-4.6351509,161.2061005,-181.7557220,216.4351196,3.2513094,7.5177550,4.6207857,5.9007635,-9.7709923,16.2137413
1440,-9.2224178,5.7269011,-4.8745699,170.0381622,-200.2442780,250.1297760,3.4045374,7.6853480,4.5250182,3.2290077,-11.2519083,15.0229006
1450,-6.1243367,4.6902170,-4.6806402,181.5038147,-216.7251892,250.1297760,3.4428444,7.8242111,4.3406653,-0.6641222,-11.6793890,12.7099237
1460,-1.5394639,5.2767935,-5.2863703,191.3282471,-211.4427490,250.1297760,3.4596038,7.7906923,4.0198441,-6.2519083,-10.9770994,11.2290077
1470,2.3439114,5.6646523,-6.0094156,192.3358765,-180.3282471,250.1297760,3.3135581,7.7811155,4.1323709,-12.8167934,-11.2137403,10.8778629
1480,5.2193332,5.9328012,-7.1586266,179.9770966,-131.3282471,250.1297760,3.2776453,7.9558916,4.1299767,-19.6412220,-9.7862597,8.5496187
1490,6.0572991,5.2600341,-8.0061693,157.3511505,-77.7251892,250.1297760,2.9376705,7.8409705,4.6973996,-23.8396950,-7.9847326,6.9770994
1500,5.7173243,4.9775200,-8.3748751,129.7786255,-34.9160309,250.1297760,2.6312141,7.7835097,5.0756817,-25.4198475,-3.5267177,6.6412215
1510,4.6662750,4.4699516,-8.1617918,101.1984711,-15.1221371,250.1297760,2.2146254,7.5488791,5.4826937,-25.2824421,0.7938932,5.4427481
1520,3.8163381,3.2776453,-7.5847921,79.7786255,-12.6870232,250.1297760,2.1164634,7.4555058,5.6838059,-21.7175579,7.5801525,3.6641221
1530,4.4100971,1.3431402,-6.9910331,66.1297684,-25.4122143,244.0534363,1.6543850,7.3597383,5.8513989,-18.6030540,12.5572519,0.3282443
1540,5.8729467,-1.3646880,-5.8059096,60.8396950,-37.5267181,221.3053436,1.1204807,7.1921453,6.1770086,-14.2748089,17.8396950,-4.1603055
1550,6.7899213,-3.3758070,-4.8386569,56.8244286,-45.8396950,194.0763397,0.1628049,7.0724359,6.4068508,-9.1374044,23.9160309,-6.7938933
1560,8.8177996,-5.9184365,-3.7516949,61.4580154,-73.4580154,163.5190887,-0.6464311,7.1777802,6.6989422,-2.7938931,27.4885502,-5.2977099
1570,12.1217813,-9.1074963,-1.9081690,62.2061081,-68.0763321,113.1832047,-1.1827296,7.2998838,6.5121951,2.9160306,27.7557259,-2.8015268
1580,14.5638542,-13.3021164,-0.6129125,57.0839691,-63.1221390,52.2442741,-1.5322813,7.3334022,5.9854736,4.6564884,21.6564884,1.7480916
1590,15.9716377,-17.5925045,-0.7517755,47.3816795,-55.2977104,6.2977099,-1.5274929,7.2615767,5.6359220,2.8091602,11.4198475,7.0381680
1600,16.4935703,-19.6131992,-2.0949159,26.0687027,-40.6717567,-10.4427481,-1.1947005,7.3381906,5.0828643,-2.8473282,0.3740458,14.2442751
1610,14.5734310,-18.8590298,-4.2425036,-27.4885502,-4.6259542,12.0610685,-0.4572902,7.4004397,4.5585365,-11.9770994,-9.1679392,21.0000000
1620,14.5447006,-14.4872408,-2.2170193,-108.7022934,17.8015270,60.5725174,0.6296718,7.2879128,4.2496862,-21.9389305,-18.0458012,27.0687027
1630,18.2580891,-9.3349447,1.9440818,-179.4274750,68.8320618,103.7938919,1.7214222,7.1753860,4.2951760,-30.8854961,-24.2595425,28.0152664
1640,18.4975071,-1.1947005,8.5831690,-215.6259613,107.1603088,132.4427490,2.7628946,7.1586266,4.6710634,-35.7862587,-24.6717548,26.6412220
1650,19.3665981,7.5273318,14.1281118,-200.3740387,65.4351120,145.0686951,3.7277529,7.0580707,4.9344244,-36.8854980,-19.1297703,23.0458012
1660,19.6126022,10.8169479,17.0753593,-144.9618378,19.6335869,115.9083939,4.3119354,7.2735476,5.3534074,-33.6412201,-9.4961834,17.0534344
1670,9.5983057,-11.7147694,-3.0454090,-87.2748108,120.4503784,-250.1374054,2.5857246,8.3820572,7.0820122,-7.5496182,-1.4809160,-16.0534344
1680,7.7068958,-9.8592720,-3.1651185,-70.2290039,101.9694672,-250.1374054,2.8969693,8.5951405,7.2711535,-6.2366414,-18.1297703,-16.2671757
1690,5.9950504,-7.4339581,-3.7612717,-54.8244286,96.4198456,-250.1374054,3.1172347,8.8034344,6.8497758,-4.4427481,-26.8244267,-13.5343513
1700,4.3191175,-4.8865409,-4.3310885,-45.4122124,89.7175598,-250.1374054,3.3710186,8.9207497,6.3996682,-3.5038168,-24.7709923,-8.5496187
1710,1.7812769,-1.6974803,-5.3917146,-39.8473282,91.6259537,-250.1374054,3.5888901,8.9877872,6.0956063,-3.8320611,-18.4503822,-3.0076337
1720,-0.4405309,1.2090657,-5.7580256,-37.4732819,84.2519073,-239.3282471,3.8522508,9.0021524,6.0142040,-5.9541984,-12.0381680,1.1755725
1730,-0.7733232,3.9384418,-5.9926562,-40.0763359,65.7633591,-208.4045868,4.0940638,8.9422979,6.1937680,-8.1374044,-7.4580154,3.9847329
1740,-0.3734936,5.9447722,-6.3086891,-42.9541969,68.4351120,-185.2213745,4.2951760,8.7794924,6.4834652,-9.9160309,-4.6488547,6.1984735
1750,-0.5027798,7.1634150,-7.1011658,-43.5038185,84.5801544,-170.1450348,4.3670015,8.7363977,6.9646969,-9.4809160,-2.3282442,8.6335878
1760,-2.7796540,8.5257082,-10.2160063,-52.0687027,103.4656525,-148.8244324,4.5729017,8.5999289,7.4291697,-7.0000000,-0.8091603,9.8320608
1770,-4.3933377,11.3436699,-12.0978394,-82.6870193,109.7328262,-116.2061081,5.0613165,8.4371233,7.6087341,-2.4580152,0.6335878,9.7022905
1780,-5.3294659,14.3411951,-12.2750092,-122.3587799,95.4503784,-90.9160309,5.3988972,8.3078375,7.8266053,2.2595420,2.9465649,6.5877862
1790,-4.8075323,15.4975882,-10.1154509,-152.7175598,69.1145020,-79.2748108,5.6431046,8.2719250,7.9439206,7.6183205,5.7557254,0.8549618
1800,-3.1411765,15.4808292,-7.3022780,-162.0229034,36.7938919,-77.8091583,5.7412663,8.4490948,8.1139078,13.3435116,9.0305347,-7.1374044
1810,-1.8100072,15.7537670,-4.6543045,-153.1679382,24.3740463,-78.4351120,5.4802995,8.6238708,8.2982607,19.1297703,12.0458012,-14.6106873
1820,-0.8259954,16.5941277,-2.8993635,-134.2213745,31.3587780,-76.6488571,5.0780759,8.8537130,8.3174143,23.2519093,14.6488552,-21.9618320
1830,-0.0981618,17.5254669,-2.1404054,-111.5877838,47.5114517,-72.2671738,4.6423335,9.2296000,8.2551651,25.7786255,14.3206110,-27.9847336
1840,0.1915352,18.3275204,-2.1715298,-94.3282471,67.6793900,-65.2442780,4.0796990,9.4307127,8.1570034,25.8702297,12.3129768,-32.5496178
1850,-0.1053443,19.2636490,-2.8514795,-89.1755753,80.0610657,-56.8702278,3.6846576,9.5312681,8.4251528,25.7709923,10.5038166,-35.3511467
1860,-0.4213773,19.6126022,-2.7126167,-94.9694672,77.8625946,-40.5648842,3.2058196,9.4785957,8.8992023,27.3664131,9.7786255,-38.1145020
1870,0.6368544,19.6126022,-0.7062859,-96.7328262,60.2366409,-22.6335869,2.8634505,9.6509781,9.4498653,32.5801544,10.9236641,-40.4198456
1880,2.6886747,19.6126022,2.2265961,-83.6488571,31.1374054,-10.2137403,2.3846128,9.6054878,9.9933472,42.3893127,12.4503813,-41.9160309
1890,5.0900469,19.4408188,4.6471219,-54.9083977,-3.4580152,-10.4809160,1.9823889,9.5456333,10.2998028,55.6106873,12.6564884,-42.6335869
1900,7.2711535,18.2652721,6.5912037,-15.4122133,-38.0228996,-21.8091602,1.5298871,9.5240860,10.4027529,70.9160309,12.1450386,-42.6335869
1910,8.3293848,16.6755295,7.2328463,30.0687027,-58.2442741,-42.8854980,1.0318956,9.5384512,9.9478569,85.8778610,11.1908398,-42.3129768
1920,8.3916340,14.8272152,6.9168134,72.7862625,-64.7938919,-71.2671738,0.5578461,9.5528164,9.3947992,99.0457993,11.6488552,-38.3129768
1930,7.0365229,12.7825775,5.8490047,105.3206100,-70.7709961,-101.0229034,0.1675933,9.4785957,8.6669655,109.1526718,10.9541988,-33.5877876
1940,5.3677726,11.5064745,5.0158267,123.8473282,-81.3206100,-123.7175598,-0.0454896,9.2918491,7.7859039,116.7862625,10.0687027,-26.9007626
1950,3.7277529,9.7084379,4.0078731,136.5496216,-85.1603088,-140.1526642,-0.3591284,9.2056589,6.9838505,121.2213745,9.1145039,-20.4122143
1960,2.5378408,7.9822278,2.9735832,142.0686951,-80.9923630,-151.6564941,-0.4477134,8.9710283,5.9208307,122.6488571,8.4351149,-12.5343513
1970,1.3598996,6.5505023,1.8100072,138.8015289,-70.1755753,-159.6259613,-0.5075682,8.6502066,5.2504573,121.0916061,5.3282442,-3.9007633
1980,-0.1675933,5.2336984,0.8738791,129.5038147,-55.8473282,-163.0458069,-0.3327923,8.2623482,4.6519103,118.7099228,1.6488550,3.8854961
1990,-1.9799947,3.8905578,-0.2011119,117.3053436,-42.3740463,-160.1068726,-0.0430954,7.9941988,4.0844874,116.4122162,-0.1755725,10.0305347
2000,-3.4500270,3.3255291,-0.8403605,101.7786255,-32.4580154,-148.9007568,0.2466015,7.7188668,3.5338237,112.5267181,-0.7938932,14.2366409
2010,-4.6638808,3.0047078,-1.3287752,82.8015289,-26.2595425,-129.7099304,0.6153067,7.4219875,2.6958573,106.1145020,-0.8396947,17.5496178
2020,-5.2121506,2.7317703,-1.4221486,64.3206100,-22.0916023,-107.9160309,0.9337339,7.0987716,2.1020982,97.5801544,-1.3816794,19.1450386
2030,-5.3869262,2.4827745,-0.9361281,51.5190849,-18.7709923,-88.1221390,1.0582317,6.9072366,1.7262106,87.9542007,-2.3358779,20.3816795
2040,-5.3534074,2.1116750,-0.6224893,44.1603050,-16.9389305,-70.0457993,1.1516051,6.5624733,1.5131277,76.9007645,-3.1679389,19.9770985
2050,-5.4922705,1.9823889,-0.4596844,40.7404594,-15.6564884,-49.8396950,1.3120158,6.3781209,1.4652439,65.6641235,-3.1526718,19.1221371
2060,-5.5425487,2.1619530,-0.5027798,38.6641235,-13.7557249,-27.3664131,1.3814473,6.1913738,1.4963684,55.5954208,-2.5190840,17.3893127
2070,-5.2600341,2.4731977,-0.4118006,35.7557259,-15.4885492,-5.5725193,1.3024391,6.0764527,1.7286048,46.8091621,-3.3511450,15.0000000
2080,-4.4077029,2.9256995,-0.2944853,33.3435097,-14.2671757,12.6870232,1.2784972,5.8442163,1.8267666,39.2366409,-6.5038166,12.7938929
2090,-3.4835455,3.3255291,-0.4644727,31.2290077,-7.5267177,23.6870232,1.3503228,5.7101417,1.8267666,32.4809151,-10.2519083,11.5648851
2100,-2.5929072,3.9647777,-0.8044477,25.5190830,2.0000000,29.6412220,1.3622938,5.5138183,1.6902977,25.8244267,-12.6259546,10.1832066
2110,-1.6663558,5.0325861,-1.2689204,16.2977104,13.0076332,27.9618320,1.3838415,5.4180508,1.5993185,18.7786255,-13.8931293,8.6870232
2120,-0.7158626,7.6087341,-3.3686244,-32.2366409,57.5496178,11.9923668,2.2433555,5.5760674,1.0151364,-8.6717558,-10.4732828,0.1832061
2130,-1.4413021,9.1027079,-3.9168940,-60.0305328,75.1068726,12.8625956,2.4492557,5.8011212,1.0366840,-19.1679382,-10.6564884,-5.5419846
2140,-1.6208663,10.9893293,-3.8977404,-92.8396912,95.5801544,20.0076332,2.3247581,6.1817970,1.3598996,-28.4274807,-12.3282442,-13.6106873
2150,-1.5801650,12.4761209,-3.3255291,-118.5877838,119.6946564,31.3969460,2.0829449,6.7923155,1.6663558,-36.0228996,-13.1679392,-19.5572510
2160,-1.2138541,13.1871958,-2.3056045,-127.8625946,131.1374054,42.7022896,1.6687500,7.3262196,1.8554969,-41.9083977,-14.8854961,-23.4961834
2170,-0.2154770,13.5918131,-1.4173602,-118.1679382,118.0992355,49.9694672,1.5729824,7.7404146,2.0374553,-45.5190849,-14.6412210,-25.1603050
2180,0.9744351,14.0131912,-0.7589580,-90.3435135,83.5496216,50.2061081,1.4915800,8.4251528,2.2840567,-47.5267181,-12.7175570,-26.9618320
2190,2.1116750,14.0419216,-0.3208214,-51.2442741,42.5419846,39.7557259,1.4101776,9.1194677,2.4277081,-48.0687027,-8.9541988,-28.1984730
2200,2.4540441,13.8432035,-0.6416427,-8.6106873,2.2900763,21.1145039,1.1779412,9.8018112,2.5450234,-49.3206100,-4.1832061,-27.1450386
2210,-1.4604555,5.3797436,-0.9480990,29.4732819,-10.6564884,42.4656487,0.4860204,9.5360565,6.1410961,-20.2290077,0.7175573,1.5572519
2220,-2.2265961,5.1929970,-2.3415172,-2.7251909,30.0152664,45.0610695,0.5315101,9.0667953,5.7652082,-6.2595420,9.6259546,4.7938933
2230,-2.5953014,5.0541339,-2.8395088,-23.9236641,45.6030540,52.3511467,0.5434810,8.9063845,5.5976148,-0.4732825,13.6106873,6.4961834
2240,-0.9265513,7.1490498,-2.8131726,-88.8244247,79.4198456,73.3587799,1.4628497,8.9279327,4.7859845,7.5267177,20.0992374,10.3740454
2250,-0.0047884,8.2982607,-2.5306582,-97.9236679,83.2595444,77.2442780,1.4317253,8.9351149,4.6016321,5.7557254,20.1603050,11.1374044
2260,1.5274929,9.6198530,-2.0925217,-100.3664093,87.2213745,72.7175598,1.5370697,8.9829988,4.5896611,4.1603055,21.0000000,12.9160309
2270,2.2074428,10.5847120,-2.1427996,-98.2900772,85.9160309,58.8854980,1.4532729,8.9015961,4.6782460,2.3664122,21.0763359,15.0076332
2280,1.7549409,11.5783005,-2.3774302,-96.6259537,77.4732819,43.0152664,1.6711442,8.8992023,4.7237358,0.3893130,19.9541988,16.1603050
2290,0.5410868,12.5479469,-2.3606708,-94.6183243,62.2595406,33.7786255,1.8914096,9.0332766,4.9583664,-1.5496184,18.3206100,16.1297703
2300,-0.3591284,12.7634239,-2.1380112,-91.6259537,45.9465637,33.8549614,1.9512644,9.1122847,4.9918852,-3.5954199,16.9465656,15.6335878
2310,-0.8690908,12.9669304,-1.6184721,-86.9770966,32.7938919,40.5343513,1.9129574,9.1601686,4.9990678,-5.7633586,15.2900763,16.5954189
2320,-1.0702027,13.1871958,-0.9433106,-78.0000000,22.6412220,49.1450386,1.8578910,9.2798786,5.1929970,-8.1068707,12.4885492,14.9312973
2330,-1.2569494,13.3260584,-0.2657550,-64.4503784,17.1374054,56.9771004,1.8243724,9.3397331,5.3988972,-10.2977095,8.2671757,14.4045801
2340,-2.0805507,13.6085730,-0.4357425,-49.3282433,12.4045801,65.4961853,1.7046629,9.4378948,5.5281835,-11.8091602,4.0992365,15.9083967
2350,-2.6000898,13.6684275,-0.6751614,-36.9465637,2.4122138,74.7099228,1.7573351,9.3756456,5.6215568,-13.0000000,-0.2061069,17.0763359
2360,-2.9041519,13.6301203,-0.4860204,-25.4351139,-10.7557249,84.0076370,1.8961980,9.2942438,5.8681583,-13.9083967,-3.6641221,17.4045811
2370,-2.9089401,13.4457684,0.2633608,-9.9083967,-25.3816795,93.0229034,2.2218077,9.3157911,5.8226686,-14.1526718,-6.6412215,17.8091602
2380,-2.7006457,13.3739424,0.8714849,9.3129768,-38.1526718,102.1297684,2.3726418,9.2966375,6.1123657,-12.8167934,-8.1755724,18.0992374
2390,-2.1691356,13.2255030,1.3742647,26.5877857,-44.7633591,112.7938919,2.6767037,9.2008705,6.1817970,-9.6335878,-8.9007635,18.1145039
2400,-1.2186425,13.2757807,1.5969244,42.6030540,-42.4045792,124.6259537,2.9616125,9.1888990,6.2799587,-4.5725193,-8.8854961,15.3587790
2410,-0.5554519,13.4888630,1.6687500,58.6870232,-33.8091621,134.5267181,3.1818779,9.1434097,6.2512288,0.5419847,-8.1603050,12.7633591
2420,-0.4381367,13.4170380,0.9911944,75.0992355,-26.5190830,141.3893127,3.3494711,9.1841106,6.0213866,5.7404580,-7.2213740,10.3587790
2430,-0.7924767,13.4026728,-0.2777260,90.7175598,-26.3435116,150.6183167,3.4883339,9.1649570,5.9399838,10.0687027,-6.6183205,7.7022901
2440,-1.5250987,13.1033993,-1.9345051,102.0381699,-33.3358765,162.7786255,3.5481887,9.0691900,5.8466105,14.4809160,-7.3053436,3.8778627
2450,-2.3199697,12.5120344,-3.3279233,108.1832047,-44.3969460,180.0763397,3.4596038,9.0356712,5.6167684,18.8320618,-9.3511448,0.2900763
2460,-2.7772598,11.5352049,-4.4412212,110.1450348,-58.9236641,202.0458069,3.3662305,8.9758167,5.3246775,22.8396950,-11.0763359,-3.7099237
2470,-2.8490853,10.3165627,-5.2121506,108.5343475,-71.0076370,227.7328186,3.1699069,9.0859489,4.9032998,25.0687027,-10.3511448,-7.1832061
2480,-2.3247581,8.7890692,-5.6024032,103.5419846,-79.5114517,250.1297760,2.8730273,9.1170731,4.5992379,25.8778629,-8.7404585,-9.8167934
2490,-1.3527170,6.7276726,-5.7939386,98.3816757,-84.0763321,250.1297760,2.5593886,9.2008705,4.2712340,24.1984730,-7.8015265,-9.7786255
2500,0.3232156,4.8386569,-6.2177100,89.1374054,-87.2748108,250.1297760,2.3056045,9.1122847,4.0629396,20.7404575,-7.5725193,-9.5954199
2510,2.4061604,2.5067163,-6.5409255,78.1145020,-85.7557220,250.1297760,2.0518203,8.9829988,3.9839313,15.9389315,-8.2442751,-7.2366414
2520,4.3909435,0.0550664,-6.8234401,61.2977104,-83.7709961,250.1297760,2.0637913,9.0763721,3.8043671,9.9236641,-8.9770994,-5.8473282
2530,6.4499464,-2.5857246,-6.8665352,37.8549614,-80.8625946,250.1297760,1.5514348,8.6310530,4.2161674,1.9770992,-13.6717558,-6.3282442
2540,8.7579451,-5.3055239,-6.3685441,11.4045801,-82.1145020,250.1297760,1.4293311,8.4562769,5.1331420,3.3206108,-12.5267172,-3.5114503
2550,11.2335367,-8.3557215,-5.0589223,-13.7404585,-92.0839691,246.0915985,1.6376256,8.5424681,5.0589223,5.6488547,-10.8396950,-0.7099237
2560,13.2374735,-11.9901009,-3.9599893,-36.3740463,-109.3282471,214.2824402,1.9225341,8.4251528,4.5968437,5.5648856,-11.2977095,-0.8244275
2570,17.0035343,-15.8519287,-2.0733681,-64.9312973,-116.2061081,189.4809113,2.0302727,8.3389616,4.7476778,5.3664122,-12.7862597,0.1984733
2580,19.6126022,-19.1678810,0.5410868,-106.2061081,-104.3511429,177.5801544,2.3415172,8.5448618,4.6112089,5.8931298,-11.7175570,1.7862595
2590,19.6126022,-19.0409889,5.1427188,-142.9923706,-87.3969498,195.4122162,2.6982515,8.4682484,4.3550305,4.8625956,-12.0534353,2.5114503
2600,19.6126022,-13.3356352,11.5423870,-135.5572510,-79.1832047,211.8931274,2.9735832,8.2982607,4.1850433,2.5343511,-14.0381680,2.5572519
2610,19.6126022,-4.7237358,18.7800217,-72.2748108,-85.6412201,192.9007568,3.5481887,8.4874020,4.0054789,-0.7709923,-15.7099237,0.2442748
2620,19.6126022,1.8291607,19.6126022,22.9770985,-97.8091583,127.4732819,3.6655040,8.4993725,3.9528067,-5.5038166,-18.8091602,-2.3587787
2630,19.6126022,3.7971845,17.3219604,110.0687027,-87.2137375,21.7480907,3.6487448,8.5640154,4.0366035,-9.8015270,-22.4122143,-4.5038166
2640,19.6126022,2.4253139,10.9653873,148.6259613,-50.1832047,-102.4045792,3.5625539,8.5257082,4.2161674,-13.0839691,-24.8778629,-7.2442746
2650,19.6126022,-1.2425843,3.3494711,134.1984711,17.5190830,-214.4656525,3.7133877,8.5640154,4.3047528,-16.8320618,-27.4961834,-11.9465647
2660,19.2875900,-5.5281835,-2.2864509,80.2748108,97.7099228,-250.1374054,3.4404502,8.4347296,4.5968437,-18.2595425,-29.7633591,-16.5725193
2670,13.9006643,-8.6334467,-5.0062504,13.0610685,158.5496216,-250.1374054,3.1292057,8.5017672,4.7859845,-18.4885502,-30.9847336,-20.5572510
2680,8.9351149,-10.0508070,-4.7021880,-35.6335869,184.8015289,-250.1374054,2.8155668,8.3652983,5.1499014,-15.7709923,-30.0534344,-23.7862587
2690,7.4363523,-9.6366129,-2.3798244,-48.7862587,175.9541931,-248.8931274,2.4636209,8.3150196,5.1714492,-11.3816795,-25.0381680,-27.0000000
2700,8.9829988,-8.5568333,-0.7781116,-28.8702297,152.6335907,-217.0763397,2.0230901,8.3820572,4.9607606,-8.5114508,-18.7099228,-29.6870232
2710,11.4035244,-7.5536675,-1.4245427,4.6412215,132.5648804,-208.3129730,1.3742647,8.1857338,4.9511838,-5.6030536,-12.0076332,-31.3969460
2720,11.9948893,-6.4930420,-3.7900019,29.2977104,128.0686951,-218.2824402,0.6512195,8.1570034,4.8578105,-1.8015267,-4.2977099,-31.2671757
2730,10.5344334,-4.8937230,-6.4044566,33.4351158,132.6412201,-231.5648804,-0.1723816,7.9415264,4.7859845,1.8015267,1.6259542,-28.5419846
2740,7.8313937,-2.6264257,-8.5089493,16.7709923,141.5496216,-234.6183167,-0.6799498,7.8074517,4.7668314,6.7709923,6.6717558,-25.9923668
2750,5.5808558,-0.6368544,-9.4450769,-9.6106873,148.1679382,-226.0610657,-1.0510491,7.7739329,4.5705075,11.4732828,12.5648851,-23.3969460
2760,4.7045822,0.6727672,-9.3253679,-35.7404594,144.6106873,-210.0915985,-1.2665262,7.9032192,4.0988522,13.9007635,15.1908398,-19.9007626
2770,5.1403246,2.0183017,-8.4347296,-54.5954208,139.7938995,-195.2137451,-1.5155219,7.8864598,3.7397239,14.2290077,13.4732828,-15.8473282
2780,5.4324160,3.3398943,-7.8218169,-65.1679382,141.4885559,-182.4656525,-1.2138541,8.0684185,3.1339941,10.1755724,7.3358779,-9.5725193
2790,5.5952206,5.7556314,-7.8936424,-73.0076370,152.2519073,-171.5572510,-0.6560079,8.2455883,2.6575503,2.2671757,-2.0916030,-4.4503818
2800,4.5920553,8.4993725,-8.9925756,-84.4961853,166.6870270,-162.6717529,0.3208214,8.5616217,2.2864509,-8.1603050,-11.5725193,-2.0076337
2810,2.3295465,10.0005293,-10.4937325,-108.3358765,160.5801544,-148.1374054,1.4029950,8.7435799,2.1595588,-19.4351139,-19.5114498,-0.6793893
2820,0.2298422,13.1225519,-10.2399483,-147.8396912,130.3435059,-127.6030502,2.2313845,8.8177996,2.4277081,-28.3282452,-21.4427490,-1.5648855
2830,0.8690908,14.0467091,-6.7396431,-176.9847260,77.2519073,-112.8473282,2.6096666,8.7435799,2.7748656,-33.8244286,-17.7251911,-3.6946564
2840,2.3439114,13.2350798,-3.1818779,-177.4961853,36.5114517,-110.2366409,2.7916248,8.6765423,3.2967989,-35.3206100,-10.8473282,-7.3435116
2850,2.4085546,13.2231083,-0.7924767,-158.1068726,29.1984730,-109.0152664,2.6216373,8.6454182,3.9552009,-31.5419846,-1.9160305,-10.2519083
2860,1.2808913,14.3651371,0.0837966,-132.7175598,42.1450386,-99.3435135,2.4037662,8.8177996,4.4962878,-24.7633591,7.3740458,-12.1221371
2870,0.6129125,16.1559906,0.0454896,-111.3358765,54.9083977,-84.4274826,2.1380112,8.9614515,4.4795284,-17.4503822,16.0305347,-12.2137403
2880,0.2609667,17.1328201,-0.4716553,-99.0076370,61.0534363,-70.3816757,1.9464760,9.0667953,4.2640514,-11.9389315,21.7786255,-12.6259546
2890,-0.6105183,18.4208927,-0.7757174,-96.6717529,57.6488533,-52.9541969,1.8961980,9.1003141,4.2999644,-9.1526718,25.2977104,-13.3129768
2900,-0.5602403,19.3474445,0.0550664,-99.9770966,41.1526718,-30.5419846,1.8267666,9.3277617,4.1323709,-8.3511448,27.2595425,-14.9847326
2910,1.6543850,19.3354740,3.0047078,-94.2137375,17.5648861,-11.0152674,1.5514348,9.5216913,4.0030847,-10.0534353,29.5572510,-15.6564884
2920,4.3981261,18.3323078,5.6646523,-70.6793900,-9.7404585,0.8091603,1.2665262,9.5480280,4.0509686,-14.0152674,30.6641216,-13.7709923
2930,6.4667058,17.2812595,7.3597383,-36.9083977,-33.5343513,6.9312978,1.1994889,9.6078825,4.2377152,-18.6030540,27.8396950,-11.7404585
2940,9.0859489,15.8950233,8.0827837,35.9160309,-58.5496178,1.7022901,1.3383518,9.5480280,4.6590929,-27.7938938,20.9389305,-4.7557254
2950,9.3900108,15.3706961,7.3190370,61.8167953,-61.4732819,-15.8167934,1.7525467,9.2104464,4.7165532,-33.2290077,16.8778629,-0.9923664
2960,8.8513184,14.1712074,6.2440462,75.4580154,-65.6106873,-38.7328262,2.0901275,8.8369532,5.0972295,-37.9236641,11.8778629,0.9389313
2970,7.6207051,12.6580801,5.3725610,78.3969498,-68.0076370,-59.1221390,2.3846128,8.5975342,5.5880380,-40.9618340,8.6641226,0.6641222
2980,6.4714942,11.1641054,4.8697815,74.1526718,-65.9007645,-74.6717529,2.6838863,8.5281029,6.0357518,-40.9236641,7.2290077,-1.2442749
2990,5.1762376,9.8496952,4.6088147,66.0152664,-56.9541969,-86.1908417,2.8826041,8.5903521,6.6151457,-37.9541969,6.2442746,-4.1755724
3000,4.1323709,8.6262646,4.4029145,58.1984749,-41.5725174,-95.1526718,3.0597742,8.7292147,6.8904772,-34.1526718,5.1679387,-5.7175574
3010,2.9280937,7.3884687,4.4986820,55.0228996,-26.9007626,-103.1374054,3.2608860,8.8920193,7.1945391,-29.3969460,3.4198472,-8.1603050
3020,1.7381816,6.2272868,4.5705075,55.8549614,-17.0763359,-108.3435135,3.4021432,8.9614515,7.1921453,-25.3587780,3.7099237,-10.5572519
3030,0.3136388,5.2624283,4.3670015,59.6946564,-14.4274807,-107.0992355,3.2680686,8.9949694,7.3741035,-22.2824421,3.5419848,-11.4198475
3040,-1.0366840,4.5106530,3.8235207,67.1526718,-13.5190840,-98.7328262,3.1052637,8.9327211,7.4914188,-19.8015270,2.7404580,-11.7862597
3050,-1.9225341,3.9982965,2.9544299,73.9007645,-13.1068707,-85.8396912,3.0166788,8.9279327,7.7045016,-17.7633591,1.5648855,-13.0381680
3060,-2.4253139,3.8354914,2.2218077,76.8549652,-15.6183205,-71.2824402,2.8251436,8.8441362,7.9247670,-15.3664122,-0.5496183,-15.1984730
3070,-2.7197993,3.8139439,1.3527170,75.9083939,-19.2061062,-57.2137413,2.4851687,8.9135675,8.2407999,-11.9694653,-3.4961832,-16.6793900
3080,-2.6958573,3.8283088,0.5961532,71.9542007,-22.1984730,-46.1297722,2.2840567,9.0500364,8.3724804,-8.6564884,-7.5648856,-17.2748089
3090,-2.5617826,3.8187323,0.0837966,65.7099228,-23.9236641,-37.4885483,2.0997043,9.0524302,8.6669655,-5.1984735,-12.6335878,-18.3129768
3100,-2.4803803,3.8187323,-0.1747758,54.5419846,-27.0534344,-28.6030540,1.9057748,9.1266499,8.9590569,-0.1679389,-17.1908398,-20.4198475
3110,-2.4157372,3.8618276,-0.1268920,40.9083977,-28.7709923,-17.3969460,1.6065011,9.2583303,9.2152348,6.8473282,-19.9389305,-21.9007626
3120,-2.1260402,4.0820932,0.4525018,30.7557259,-30.6259537,-5.4961834,1.2354017,9.3588867,9.5432396,15.9236641,-21.9007626,-22.1908398
3130,-2.0422437,4.1467361,0.8882443,25.9923668,-31.4961834,4.8549619,0.8140244,9.4259243,9.5983057,25.8549614,-23.6717548,-20.6946564
3140,-1.9704180,4.2760224,0.9480990,23.4503822,-28.0381680,15.9389315,0.5410868,9.5216913,9.4498653,36.8396950,-25.1450386,-18.6717548
3150,-1.8722562,4.8482337,0.5530578,19.2748089,-21.9541988,27.9618320,0.2801202,9.4666252,9.0955257,47.6870232,-25.4961834,-15.3358774
3160,-1.4173602,5.4132624,0.0383070,8.6564884,-16.3358784,41.7099228,0.1197095,9.5264797,8.6597834,57.0534363,-24.7633591,-12.2977095
3170,-0.6344602,5.8585815,-0.1580165,-1.5496184,0.1526718,52.6488533,-0.1197095,9.4091644,8.1115141,64.3511429,-23.1221371,-9.7786255
3180,0.1436514,6.1506729,-0.2561783,-9.2137403,16.3358784,58.0839691,-0.2681492,9.3277617,7.5536675,69.8167953,-21.6564884,-6.4580154
3190,0.6368544,6.6917596,-0.8643024,-16.2290077,34.7251892,62.3511467,-0.4237715,9.2367830,7.0365229,73.2595444,-20.5954189,-3.5572519
3200,0.5243275,7.2855186,-1.3814473,-25.4503822,53.3816795,69.1603088,-0.5219333,9.0979195,6.7923155,75.8549652,-18.9160309,-0.0152672
3210,0.3567342,8.0564480,-1.7094513,-38.4045792,67.4503784,80.0916061,-0.5315101,8.9375095,6.1961622,78.8091583,-16.3511448,3.5954199
3220,0.5482694,8.7675219,-2.0566087,-55.1221390,71.0916061,89.2442780,-0.4692611,8.4754305,5.8537931,82.4809189,-16.0458012,4.5877862
3230,1.4125718,9.2319946,-2.5186872,-74.4885483,78.2519073,97.6259537,-0.0718257,8.3245964,5.4515696,85.6564865,-19.1297703,2.6335878
3240,2.0183017,9.9813757,-2.1715298,-90.9083939,82.1984711,104.8167953,0.3184272,8.1186962,4.9942794,87.2671738,-20.7862587,2.7786260
3250,2.6120608,11.4418316,-1.6855093,-99.9923630,72.7786255,104.4045792,0.5195391,7.8816719,4.1898317,87.0916061,-19.7709923,4.0305343
3260,3.7277529,12.6006193,-0.6105183,-101.0076370,51.3969460,96.1145020,0.9026094,7.8385763,3.4979107,84.0076370,-18.6564884,5.4656487
3270,5.2791877,13.2638092,0.0359128,-95.5190811,34.0763359,81.4961853,1.1372399,7.6973190,2.9233053,79.5190811,-17.0229015,6.1908398
3280,6.0118098,11.4035244,2.3175755,-42.0839691,-20.4580154,43.9541969,1.6687500,7.2041159,1.6304430,57.5648842,-15.3511448,4.8320613
3290,6.3541789,10.3716288,2.0254843,-20.6183205,-9.8396950,43.4656487,1.7070571,6.9814563,1.5179161,49.5190849,-13.2366409,3.6335878
3300,6.1387019,9.7467451,1.6448082,-3.0076337,-2.6183207,39.1374054,1.9129574,6.8904772,1.3239868,41.8778610,-11.2519083,2.3511450
3310,5.8274570,9.7275915,1.2234308,3.8549619,-5.0305343,33.7862587,1.8985922,6.8785062,1.2018831,34.4122124,-9.1679392,0.4503817
3320,6.3541789,9.6054878,0.8212070,3.6030533,-2.4122138,26.7480907,2.1020982,6.9599090,0.4668669,22.1145039,-7.3511453,-2.8091602
3330,3.4165084,8.5879574,1.8147956,-46.6641235,-18.3129768,-26.1145039,1.6567791,8.5233145,1.2617378,-17.0534344,-15.6335878,-37.4427490
3340,2.7605004,8.7459745,2.0494261,-44.5496178,-20.7709923,-24.1374054,1.0031654,9.0691900,1.5370697,-24.9770985,-18.1526718,-40.6412201
3350,2.4851687,8.9087791,1.9512644,-41.0152664,-23.1297703,-20.7633591,0.7661406,9.9526453,1.9967541,-32.5954208,-22.0076332,-41.1450386
3360,2.4277081,9.3421268,2.1140692,-36.3282433,-27.1450386,-16.9160309,0.7398046,10.5559816,2.3151813,-39.5343513,-25.6870232,-39.9236641
3370,2.4971397,9.7395630,2.1260402,-29.3358784,-31.3358784,-12.3511448,0.5961532,11.1210098,3.3566537,-42.7099228,-26.9465656,-38.5572510
3380,2.2960277,10.0436249,1.9632354,-22.5419846,-30.0381680,-4.9847326,0.6943150,11.5663290,4.2712340,-41.8549614,-24.5343513,-38.2900772
3390,2.0350611,10.7331514,1.6112895,-16.4732819,-25.5343513,7.1832061,0.3782819,11.9877062,5.1499014,-36.1908379,-18.8015270,-38.4656487
3400,2.2170193,11.5016861,1.0199248,-11.5496187,-22.3969460,18.4427490,-0.1628049,12.3324699,6.0908179,-26.4656487,-12.9007635,-36.3664131
3410,2.5210814,12.1337519,0.5985473,-7.1145039,-21.3893127,24.7175579,-0.6296718,12.5192165,6.6965480,-13.7099237,-8.1221371,-31.2061062
3420,2.7868366,12.8041248,-0.1029501,-2.9694657,-21.2137413,25.8320618,-1.0318956,12.6101961,6.9670911,-0.3435115,-4.7328243,-25.6259537
3430,2.3870070,12.9046812,-0.7661406,2.0839694,-25.4809170,25.3816795,-1.2665262,12.4593620,6.9982157,11.7709923,-3.3282442,-19.6335869
3440,1.5921360,12.7275114,-1.5011568,8.6335878,-32.5190849,30.7328243,-1.2425843,12.3372583,6.8114691,22.2366409,-2.9541984,-12.6335878
3450,0.8116302,12.5599174,-2.1595588,15.0076332,-36.6641235,45.7862587,-1.2306134,12.0355902,6.4020624,29.4198475,-4.2213740,-6.3969464
3460,0.4070122,12.2534618,-3.0286496,19.6564884,-37.1450386,69.2748108,-1.0773853,11.5375986,6.1410961,35.7633591,-6.8473282,-0.4809160
3470,0.6440369,12.4282379,-3.8594334,21.5343513,-35.5572510,91.4656525,-0.7876883,10.9151096,5.7843618,40.6564903,-9.9618320,4.2977099
3480,0.8906385,12.8280668,-4.9080882,17.1297703,-35.7938919,103.8778610,-0.4189832,10.4362717,5.4252334,45.5267181,-11.9465647,7.9770994
3490,0.9050036,13.5559006,-5.4036856,5.9083967,-42.7480927,108.9083939,-0.1053443,10.0316534,5.0972295,49.6335869,-14.0076332,11.0763359
3500,0.9073978,13.9413652,-5.3031297,-8.7862597,-61.9236641,112.6564865,0.2322364,9.4307127,4.5441718,52.5267181,-15.8931293,14.0839691
3510,0.4118006,13.4050665,-4.6040263,-17.9007626,-81.4351120,126.7786255,0.4979914,9.0093346,4.0964580,54.5343513,-17.0610695,15.8320608
3520,0.7637464,12.7394819,-4.0006905,-19.7938938,-96.6946564,147.5267181,0.8499373,8.4490948,3.5793133,54.9160309,-17.0229015,17.1984730
3530,1.1420283,11.9302464,-4.3239059,-18.0763359,-110.1755753,170.1374054,1.0295014,8.0540533,3.1651185,53.8778610,-15.0458012,16.5267181
3540,0.9073978,11.4107065,-4.5489597,-16.6870232,-116.0381699,196.3053436,1.1803354,7.7380204,2.7868366,52.0687027,-11.7633591,14.5877867
3550,-1.1396341,10.4195127,-4.0437860,-14.8778629,-99.2748108,238.5648804,1.2593436,7.3310080,2.6527619,49.5190849,-9.2977095,11.6564884
3560,4.9487896,11.1545286,-6.1817970,-22.8625946,-109.8320618,250.1297760,1.1875180,7.2400289,2.4851687,46.0763359,-7.3435116,8.9541988
3570,8.3485384,9.9694052,-7.8912482,-39.7175560,-120.6488571,241.9618378,1.0582317,7.1705976,2.1284344,42.0381660,-5.9618320,6.1755724
3580,9.5552101,8.0516596,-8.8537130,-71.4045792,-105.3816757,218.0305328,0.9073978,6.8330169,2.0015423,37.9541969,-5.0916033,4.5343513
3590,10.2686787,5.8106980,-9.5169029,-115.6030502,-84.9542007,192.8625946,0.9504932,6.8473821,2.0039365,32.6106873,-4.9694657,2.0839694
3600,10.9701757,2.5330524,-9.5240860,-165.2748108,-65.2061081,161.3587799,0.9073978,6.8617468,1.8698620,27.0687027,-5.1908398,-0.3816794
3610,12.2079716,-2.1763182,-8.3006544,-217.2213745,-44.0076332,123.6183243,0.7110743,7.0125809,1.6855093,21.1832066,-4.9618320,-3.8702290
3620,12.5455532,-7.2543941,-6.9623032,-250.1374054,-23.1450386,82.3358765,0.3734936,7.0652533,1.6783268,15.2824430,-3.9923663,-6.6717558
3630,12.3157110,-12.8089132,-4.7045822,-250.1374054,-10.3587790,43.2900772,0.1053443,7.2567883,1.7214222,9.1526718,-2.5877862,-8.5801525
3640,12.4569674,-17.4967365,-1.3359578,-250.1374054,-4.8091602,10.6183205,-0.1125269,7.4195933,1.7166338,3.0763359,-1.1603054,-9.3740454
3650,12.8567972,-19.6131992,3.7876077,-250.1374054,-0.1221374,-9.7938929,-0.3375807,7.5704269,1.7214222,-3.2824428,-0.0152672,-10.1374044
3660,11.6237898,-19.6131992,9.3277617,-250.1374054,26.8167934,-8.9236641,-0.5362985,7.8697009,1.5921360,-9.2595415,1.5114504,-10.0229006
3670,7.5704269,-19.6131992,15.1911325,-250.1374054,50.0000000,27.8549614,-0.4955972,8.1905222,1.8339491,-14.4198475,4.3587785,-8.9312973
3680,5.5856438,-19.6131992,17.5637741,-250.1374054,53.5114517,93.8244247,-0.6105183,8.4730368,1.8363433,-19.3435116,7.1908398,-7.7328243
3690,5.6502872,-15.2916880,19.6126022,-250.1374054,33.4351158,165.0458069,-0.7421987,8.8082228,1.7669119,-24.4503822,9.7022905,-6.1526718
3700,9.7012558,-8.8728657,19.6126022,-185.7938995,18.6793900,206.3740387,-0.8475431,9.0356712,1.8890154,-30.9618320,11.2977095,-3.2061069
3710,16.4432926,-3.2848279,19.6126022,-72.6870193,20.6641216,194.3129730,-0.8547257,9.3612804,1.8890154,-38.0228996,11.3893127,-0.5190840
3720,19.6126022,-0.1675933,19.6126022,51.4809151,42.2290077,118.5419846,-0.7326220,9.4642305,2.0015423,-45.9083977,10.2824430,3.0229008
3730,19.6126022,0.9528874,19.6126022,150.5114441,70.4045792,17.6870232,-0.4955972,9.5863342,2.0542145,-54.2748108,9.0229006,6.7404580
3740,19.6126022,-0.3375807,15.8495340,202.4198456,108.0534363,-69.1832047,-0.1699875,9.6174593,2.3343346,-62.0305328,7.6106873,9.4656487
3750,17.2477417,-4.1156116,9.3756456,217.3511505,142.6030579,-128.7786255,0.0981618,9.4881725,2.9185169,-67.5343475,5.7251906,12.1679392
3760,14.8990412,-7.3166428,5.2025738,208.2748108,169.1679382,-163.4961853,0.6272776,9.5145092,3.6894460,-69.4580154,5.1755724,11.5114508
3770,13.3476067,-9.7108326,2.6479735,186.0076294,189.4580078,-179.7862549,1.0271072,9.5192976,4.3263001,-66.0152664,6.6488547,10.1526718
3780,12.1792421,-11.5902710,1.8219782,162.7862549,207.6717529,-188.0152740,1.1683644,9.5432396,4.9152708,-58.2824440,9.2748089,7.0839696
3790,11.1545286,-11.8967276,1.8818330,147.3435059,220.1221313,-193.0229034,1.3215926,9.8042059,5.2528515,-47.8167953,12.3969469,4.1755724
3800,9.9909525,-11.0204544,2.1475880,139.9847260,230.4732819,-197.0305328,1.3790531,10.0891142,5.3486195,-35.6259537,16.2824421,1.4580153
3810,8.2048874,-9.2224178,1.9201399,140.6183167,238.4885559,-199.1221313,1.3646880,10.3405046,5.2289100,-24.0381680,19.2519093,-0.6641222
3820,6.5768385,-7.0030041,1.1156923,140.7633514,241.5648804,-197.5267181,1.4676381,10.5990763,4.9104824,-15.0458012,21.5496178,-2.2900763
3830,4.7261300,-4.9272418,-0.2537841,132.4656525,238.8396912,-189.1297760,1.6232605,10.7331514,4.3574247,-9.2366409,22.5496178,-1.7786260
3840,3.1579359,-2.9400647,-0.9026094,115.9542007,236.3587799,-173.0534363,1.7357874,10.8241301,4.0461802,-6.2748094,22.1984730,-2.8396947
3850,1.4245427,-0.4955972,-1.6184721,96.5954208,231.1603088,-149.2977142,1.7932479,10.8600435,3.9671719,-5.2748094,20.8702297,-3.2900763
3860,-0.4429250,2.4205256,-2.2265961,70.1297684,225.1603088,-119.6717529,1.9297167,10.7762470,3.7660601,-5.7786260,19.2213745,-4.9389315
3870,-1.3982066,6.0357518,-1.8483143,37.3282433,219.4427490,-87.0152664,1.9536586,10.7642756,3.8307030,-5.7328243,17.2366409,-7.1374044
3880,-1.0534433,8.3222027,-0.6105183,9.2290077,204.0458069,-61.4122124,1.9440818,10.7020273,4.0844874,-4.4122138,15.8931293,-8.5419846
3890,-0.6560079,9.2391768,1.1947005,-5.1832061,177.0229034,-47.8244286,1.9368993,10.7307568,4.1419477,-1.9389313,15.5954199,-9.1603050
3900,-0.3615226,9.8951855,2.5689652,-5.7251906,148.6717529,-40.8244286,1.9153515,10.7139978,3.8714044,0.3511450,15.1221371,-7.9312978
3910,-1.5131277,11.1712875,3.3782012,-0.8473282,132.4274750,-28.2900772,1.9680238,10.4099360,3.9312592,1.6335878,15.2290077,-5.7175574
3920,-3.6176202,16.6156750,3.3087699,3.4427481,144.3358765,46.7404594,1.9823889,10.2471304,3.7229645,1.5572519,10.5496187,-3.3206108
3930,-1.4963684,18.3059731,3.2537034,-0.7099237,134.8091583,89.1450348,2.1212518,10.1202393,3.8546450,1.5038168,5.2748094,-1.3358779
3940,1.5466464,18.8135414,3.4763632,-7.8320613,105.0152664,117.3435135,2.2098370,10.0101061,3.7205703,0.6946565,-0.7938932,0.3129771
3950,5.9711084,19.3570213,5.1163831,-11.5954199,51.9541969,126.3282471,2.3894010,9.9478569,3.6104376,-0.6870229,-7.1450381,2.3282442
3960,10.0172882,19.6126022,7.3884687,-4.7099237,-13.5419846,108.6183243,2.6695213,9.8496952,3.2848279,-3.4503818,-13.5267172,4.4580154
3970,12.2797976,19.6126022,9.6940727,14.2595415,-74.1526718,69.5954208,2.7916248,9.7730818,3.0645626,-7.6793895,-19.4351139,4.1679387
3980,12.2965574,19.6126022,11.6501255,38.8549614,-120.5954208,26.6412220,2.8634505,9.6653433,3.0549858,-13.0458012,-23.6412220,5.0610685
3990,11.9254580,19.1583042,12.6269550,62.0000000,-132.6564941,-7.1450381,2.8299320,9.4785957,3.1818779,-18.7786255,-27.4503822,4.5190840
4000,11.2981796,17.5206776,12.4521790,78.5114517,-122.5419846,-31.5419846,2.5857246,9.3062143,3.2297616,-24.2519093,-30.4809170,3.2290077
4010,10.4290895,15.9141769,11.8320847,87.2290039,-95.5496216,-46.6412201,2.3199697,9.1410151,3.6128318,-28.3358784,-32.5572510,0.7175573
4020,9.6198530,14.4704809,11.2622671,92.2137375,-61.7022896,-52.9236641,1.8746504,8.9566631,3.9695661,-30.8015270,-32.9847336,-0.8244275
4030,9.2798786,13.1010046,10.5392218,96.3511429,-36.2290077,-58.3587799,1.3335636,8.7603388,4.3550305,-31.4045811,-31.7786255,-3.1068702
4040,8.8585014,11.9996777,9.9574337,103.0000000,-29.0229015,-71.7251892,0.7445929,8.5520449,4.9176650,-30.1297703,-28.4656487,-5.1679387
4050,8.1091194,10.6948442,9.1865053,114.1068726,-32.0381660,-93.6946564,0.0191535,8.2982607,5.2815819,-27.0916023,-22.9541988,-6.6793895
4060,7.1155310,9.0811605,8.2479830,125.0610657,-39.2977104,-121.4427490,-0.6895266,8.0085640,5.5042415,-22.1908398,-15.7709923,-6.9389315
4070,5.3103123,7.1035600,7.0604649,133.1832123,-47.9236641,-147.0839691,-1.2689204,7.6661944,5.8442163,-14.7099237,-7.6641221,-5.7175574
4080,3.3734128,5.8442163,6.2177100,137.8702240,-55.2213745,-161.1984711,-1.8411317,7.4626884,5.9830794,-5.1374044,-0.2824427,-3.1679389
4090,1.8291607,4.9655490,5.4084740,140.7938995,-55.2366409,-164.4045868,-2.0470319,7.4171991,5.6885943,5.6717558,5.4809160,-0.4122137
4100,0.7469871,4.1180058,4.6088147,142.1679382,-50.9389305,-162.7633514,-2.1212518,7.4555058,5.2624283,15.2824430,8.2977095,3.7175572
4110,-0.2035061,3.4739690,3.9073172,140.9847260,-46.3587799,-156.8549652,-1.7118455,7.7356262,4.1563129,18.4122143,6.1755724,7.1068702
4120,-0.8595140,2.9544299,3.2704628,137.3358765,-39.8396950,-147.0763397,-1.1324517,7.9151902,3.3734128,16.5877857,1.2442749,9.4503813
4130,-1.3168042,2.7533178,2.9927368,132.7175598,-32.8549614,-136.3969421,-0.6464311,8.1210909,2.3822186,9.1679392,-5.4580154,10.1755724
4140,-1.7142396,2.5330524,2.5522060,126.3740463,-25.9541988,-126.1755753,-0.0047884,8.2767134,1.8411317,-1.3206106,-12.1679392,10.5267172
4150,-2.4708035,2.1691356,1.7286048,116.4045792,-18.5419846,-111.3511429,0.3878587,8.4299412,1.4867916,-13.5801525,-18.3358784,11.1908398
4160,-3.0621684,2.2433555,0.9864060,102.6335907,-10.9694653,-93.2977066,0.9888002,8.5903521,1.4748207,-26.6030540,-25.3358784,11.2900763
4170,-3.5529771,2.2457497,0.7900825,88.0457993,-5.8625956,-73.6335907,1.7597293,8.8345594,1.6041069,-37.8396950,-30.4961834,10.6488552
4180,-3.5290353,2.3870070,0.7781116,77.0916061,-3.7022901,-56.5725174,2.2481439,8.7818871,2.0206959,-46.6259537,-31.3969460,8.7709923
4190,-3.4428444,2.4301023,0.7206510,68.7633591,-1.9770992,-40.8244286,2.6048782,8.7818871,2.4875629,-52.7480927,-28.8549614,4.7099237
4200,-3.2967989,2.5809362,0.3758878,61.2061081,1.0992366,-26.3206100,2.7413468,8.6310530,3.1052637,-55.8167953,-24.7862587,-0.4427481
4210,-3.1579359,2.6647329,-0.0885850,51.8778610,6.2519083,-14.1450386,2.4947455,8.4874020,3.7109938,-55.6488533,-19.4580154,-7.8854961
4220,-2.9592183,3.1938488,-0.3351865,41.8702278,15.0458012,-3.2519083,2.2050486,8.5017672,4.3382711,-52.4198456,-13.9312973,-14.0610685
4230,-3.0142846,3.4428444,-0.5626345,30.0381680,27.3282452,9.3587790,1.6591733,8.6645718,4.9559722,-46.2824440,-7.7404580,-18.8473282
4240,-2.9185169,4.2161674,-0.9600700,17.0916023,42.0534363,22.2748089,1.2880739,8.8225880,5.3103123,-37.7022896,-1.1145039,-21.7557259
4250,-2.5378408,4.9416070,-0.8212070,5.4351144,59.8091621,32.9847336,1.0725969,9.0189114,5.4228392,-29.0381680,5.6564884,-21.7099228
4260,-2.0374553,5.5497313,-1.2904681,-7.3282442,78.4045792,40.1297722,0.8930327,9.0644016,5.4132624,-20.7938938,11.4656487,-21.6030540
4270,-2.0278785,6.2967181,-2.1787124,-23.5801525,93.0839691,44.1679382,0.6368544,9.1242561,5.2169390,-14.5801525,16.7557259,-21.6488552
4280,-1.9776005,7.3262196,-3.0358322,-44.4732819,94.1603088,49.2290077,0.4740495,9.2966375,4.9870968,-10.6335878,21.1908398,-19.9083977
4290,-1.5705882,8.6837254,-3.3375001,-67.5954208,86.4351120,54.0839691,0.3758878,9.2846670,4.8865409,-9.3740454,24.7709923,-17.1450386
4300,-0.6631905,9.4785957,-2.6264257,-89.4732819,74.7328262,54.2824440,0.4165890,9.2415714,4.7764082,-10.2061071,26.7251911,-13.8320608
4310,0.2992737,10.5559816,-0.9409165,-105.1221390,61.0000000,52.5801544,0.7374104,9.2559366,4.6638808,-12.9160309,25.0763359,-11.6641226
4320,1.5562232,11.8823624,1.1851238,-107.8320618,47.9618340,46.9312973,1.0725969,9.2750902,4.7452836,-17.0458012,21.0610695,-10.5114508
4330,3.1794837,12.8711624,2.9855542,-96.2213745,24.6488552,35.6335869,1.2449785,9.2535419,4.7620430,-21.3358784,15.4427481,-9.1068707
4340,3.7588775,13.3547888,4.0916696,-76.9160309,-6.8396945,21.6259537,1.4436963,9.2296000,4.8697815,-26.3206100,9.0992365,-8.2519083
4350,3.5577655,13.4721041,5.1475072,-56.1145020,-31.7175579,12.3816795,1.8195840,9.1984758,4.8913293,-31.0916023,2.2290077,-7.6488547
4360,3.2608860,13.4433737,5.7412663,-37.6106873,-33.4122124,12.7175570,2.1643472,9.2248116,5.1235652,-35.2595406,-4.3816795,-7.5954199
4370,3.0980811,13.0914278,5.9280128,-23.7175579,-18.9541988,20.2442741,2.2361729,9.0787668,5.4348102,-37.9541969,-8.5267172,-7.2519083
4380,3.3351059,13.2231083,5.8250628,-13.7633591,-2.3282442,30.0000000,2.5138988,9.0404596,5.7699966,-39.4198456,-11.7862597,-7.3435116
4390,3.6295912,13.1464939,5.5233951,-4.1374044,5.7709923,36.5343513,2.7652888,9.1625633,6.1410961,-39.3587799,-13.4351149,-7.2442746
4400,3.7923961,12.2031832,5.5353661,18.0229015,-8.6335878,35.8473282,3.0071020,9.3564920,6.6271162,-37.0228996,-13.4961834,-8.6183205
4410,3.1890604,11.4131012,5.4755111,31.7099228,-18.4885502,32.9923668,2.9472473,9.4857788,6.9790621,-35.0534363,-14.5038166,-8.2671757
4420,2.2864509,10.5966825,4.9751258,44.9389305,-26.4045811,32.4961815,2.9424589,9.6366129,7.1298962,-32.8473282,-16.3435116,-8.2290077
4430,1.4006008,9.9454632,4.1587071,54.2290077,-31.5572510,34.2595406,2.9256995,9.8209648,7.5632443,-30.4274807,-18.6870232,-7.5496182
4440,0.6081241,9.2726955,3.3686244,58.9923668,-36.9312973,39.1221390,2.8035958,9.9023676,7.7045016,-27.5038166,-20.7404575,-7.2519083
4450,0.2250538,8.7675219,2.9304879,59.3816795,-40.3893127,44.1374054,2.4660151,9.9430685,8.0971489,-23.6870232,-21.6641216,-7.2061067
4460,-0.1484398,8.3509331,2.6743097,59.4656487,-42.4122124,48.1526718,2.1380112,9.8329363,8.5041609,-18.7786255,-21.2061062,-7.7404580
4470,-0.4141948,7.9846220,2.1284344,59.2061081,-44.6946564,52.0992355,1.6998745,9.7443514,8.8680773,-12.7099237,-19.2824421,-8.7480917
4480,-0.6655847,7.7619624,1.5490406,57.4122124,-48.0305328,56.1374054,1.0989330,9.7299862,9.2846670,-4.6870227,-16.5801525,-9.0687027
4490,-1.0079538,7.4171991,0.8307837,53.3053436,-52.7175560,60.4045792,0.4836263,9.6198530,9.7012558,5.5572519,-16.1450386,-8.0839691
4500,-1.2449785,7.1179252,-0.1819584,45.0916023,-59.6335869,65.7862625,-0.1244979,9.6437950,9.8185711,18.0916023,-17.7633591,-4.1679387
4510,-1.4029950,6.7947097,-0.9959828,31.7709923,-59.1145020,73.1755753,-0.5291159,9.5959110,9.7228031,31.9618320,-21.4656487,0.0763359
4520,-1.0438666,6.5002246,-1.5035510,12.2595415,-47.0610695,82.3435135,-0.4453192,9.4881725,9.1745338,44.0763359,-25.1908398,4.3969464
4530,-0.7900825,6.8401995,-2.2170193,-9.2595415,-33.1068687,89.7404556,-0.1436514,9.4259243,8.3341732,52.5877876,-27.4732819,6.7022901
4540,-0.7829000,7.5129666,-3.4069316,-35.0992355,-21.5954189,92.9694672,0.2322364,9.4043760,7.5991573,57.1526718,-27.7328243,7.6335878
4550,-0.8331779,7.9726510,-4.5896611,-67.0305328,-12.1679392,96.1755753,0.1939293,9.3397331,7.0077925,59.3587799,-26.7709923,7.9770994
4560,-0.9959828,7.8577299,-5.4731169,-104.8244247,0.4885496,102.2824402,0.3064562,9.1673517,6.6199336,60.8244286,-25.3435116,8.7251911
4570,-0.9361281,7.5369086,-6.4475522,-148.6030579,25.1221371,110.2213745,0.3567342,9.0667953,6.1554613,62.4961815,-23.2213745,10.9236641
4580,-0.2442073,7.6661944,-7.6997132,-202.4503784,59.9389305,121.7251892,0.3327923,8.8776541,5.8178802,63.7786255,-21.3740463,12.3435116
4590,1.3072275,8.0803890,-5.5257893,-249.6259613,94.9160309,131.6641235,0.4955972,8.5783806,5.4419928,64.3206100,-19.6030540,14.1068707
4600,3.3518653,10.5679522,0.6703730,-238.9160309,76.4885483,117.2900772,0.6727672,8.2743187,4.9847026,64.3587799,-17.8091602,13.4885492
4610,5.9471664,12.3300753,6.2153158,-177.2442780,23.3816795,90.7404556,0.9217629,8.0372944,4.5800843,62.9312973,-17.1832066,12.6946564
4620,7.2208753,11.5567522,4.8338685,-110.4961853,-33.0763359,70.2061081,1.0702027,7.8337879,4.2688398,60.6717567,-17.4503822,11.0000000
4630,8.4730368,12.1696653,0.5578461,-72.2748108,-53.8625946,55.5801544,1.1516051,7.6590118,3.7588775,57.7709923,-17.8778629,8.7709923
4640,9.0620070,13.3380299,-2.8873925,-75.6183243,-64.6641235,40.3282433,1.3024391,7.5369086,3.5625539,54.3129768,-18.1450386,6.1832061
4650,9.2631187,13.0794573,-3.9312592,-100.2290039,-63.9771004,32.6030540,1.3407460,7.4171991,3.2297616,50.5572510,-18.9923668,3.3969467
4660,9.4019823,13.2302914,-2.8634505,-125.1526718,-53.8167953,29.9465656,1.4556671,7.1801744,3.0501974,46.0916023,-19.9770985,0.4885496
4670,9.7802639,13.5151997,-0.9816177,-140.6183167,-42.6412201,27.6335869,1.3838415,7.0724359,2.7365584,40.5343513,-20.7938938,-2.5419848
4680,9.7874460,13.7689838,0.9073978,-141.0152740,-37.6183205,22.4122143,1.4077834,7.1203194,2.6360025,34.3511467,-21.0992374,-5.6259542
4690,9.5001440,14.0491037,2.2074428,-131.5648804,-43.8778610,15.2748089,1.3646880,7.0939832,2.4348907,28.0076332,-21.1908398,-7.8015265
4700,9.1074963,14.2597923,2.4875629,-117.5648880,-57.4274826,7.8931298,1.4245427,7.0628591,2.4229198,21.0610695,-20.0763359,-11.0763359
4710,7.9846220,14.0443153,2.0901275,-107.5114517,-76.7404556,1.7099236,1.4891858,7.1394730,2.4085546,14.0687027,-18.9007626,-13.9160309
4720,6.0501165,13.7234936,1.4436963,-100.2900772,-103.6335907,2.7251909,1.4365137,7.2998838,2.5569944,8.5343513,-15.9160309,-17.3511448
4730,5.0684991,13.4792862,1.0534433,-96.7022934,-133.5190887,12.1374044,0.9528874,7.3022780,2.8849983,3.3053436,-13.1908398,-20.2366409
4740,4.5465660,12.5742826,1.2569494,-101.1450348,-153.2366486,27.8778629,0.8595140,7.4219875,3.0956869,0.9389313,-12.6335878,-21.2519093
4750,4.3358769,11.2909975,1.8411317,-105.1679382,-154.3053436,49.3206100,0.3998296,8.1306677,3.2656744,-2.0763359,-9.9923668,-20.7480907
4760,4.5537481,9.7658987,1.1635761,-106.8549652,-145.2213745,73.2366409,0.2873027,8.2671366,3.1962428,-5.1374044,-10.0229006,-19.5954189
4770,4.6136031,8.7699156,-0.5961532,-112.7480927,-139.8244324,92.9083939,0.2968795,8.3557215,3.2489152,-8.2824430,-10.2748089,-18.4885502
4780,4.6543045,7.2663651,-2.8227494,-129.5954132,-138.9313049,110.8320618,0.2178712,8.6190825,3.4380560,-12.1221371,-11.0000000,-18.6030540
4790,5.6574697,4.8769641,-4.3023586,-154.6030579,-140.4580078,122.1145020,0.1436514,8.8608952,3.4500270,-14.9847326,-11.1984730,-17.8931293
4800,7.2256637,1.8291607,-5.3318601,-188.2290039,-141.8320618,121.9618301,0.2513899,9.2032642,3.4787574,-17.3816795,-11.1068707,-16.2519093
4810,9.2080526,-2.5689652,-5.7652082,-227.3053436,-148.8625946,109.1679382,0.1005560,9.3828287,3.5434003,-19.6717548,-11.5572519,-14.7404585
4820,11.4250717,-8.7627335,-4.8889351,-250.1374054,-177.9007568,91.0229034,0.1939293,9.5169029,3.6846576,-21.5801525,-12.1145039,-14.1221371
4830,18.2724533,-1.6926919,19.6126022,-20.2442741,-131.6488495,80.7633591,0.6009415,9.4211359,5.4108682,-27.4732819,-17.8931293,2.3282442
4840,19.6126022,0.2705434,19.6126022,73.9389343,-80.3511429,29.7099228,0.5937590,9.3421268,5.9064655,-27.2900772,-19.2519093,-0.1068702
4850,19.6126022,0.8595140,19.6126022,131.1068726,-9.7175570,-34.1984749,0.3758878,9.1793222,6.4499464,-21.3282452,-14.8549614,0.2671756
4860,19.6126022,-0.3327923,12.7562418,150.0534363,61.1221390,-95.5343475,0.3423691,9.0644016,6.8593526,-10.9770994,-8.5419846,2.0000000
4870,16.8646698,-3.1794837,7.9367380,150.7022858,119.2671738,-137.7022858,0.4381367,8.9925756,6.8785062,1.4732825,-2.1984732,6.6488547
4880,14.1041698,-6.6750002,4.5537481,149.1984711,149.8702240,-156.2977142,0.6320660,8.9111729,6.4978304,13.3893127,4.1374044,8.1221371
4890,12.5168228,-9.1434097,2.0494261,151.2900696,151.5038147,-163.9313049,0.7996593,8.8561068,5.6862001,21.8854961,9.0152674,9.1068707
4900,11.7578640,-10.7977943,0.1005560,151.4503784,138.9007568,-168.4809113,0.9361281,8.8656836,5.1570840,26.2671757,12.2213745,9.4351149
4910,11.8440552,-11.5711174,-0.6943150,150.3893127,119.4732819,-178.4198456,1.1013272,9.0045462,4.5154414,26.5954189,13.6183205,9.0687027
4920,11.5998478,-11.0156660,-1.2090657,144.0686951,104.4427490,-195.2442780,1.1396341,9.0356712,4.1132174,24.4122143,14.5648851,8.5954199
4930,10.3644457,-10.0029240,-1.3862357,135.3435059,92.7099228,-213.3435059,1.1923064,9.0213060,3.7947903,21.0916023,15.1374044,7.9770994
4940,8.1210909,-8.8441362,-2.2888451,123.9542007,81.4045792,-223.5343475,1.1923064,9.0811605,3.8642218,18.1145039,15.2290077,8.9007635
4950,5.6718349,-6.4260044,-2.7150109,107.1374054,68.0839691,-220.4351196,1.2593436,9.1434097,3.7612717,15.4198475,14.6564884,9.0152674
4960,4.6159973,-4.1419477,-2.2864509,90.5038147,58.3740463,-208.3282471,1.4029950,9.1888990,3.5864959,11.9083967,13.6183205,8.8549614
4970,4.5561423,-1.5107336,-1.9273225,73.8015289,61.5725174,-196.2137451,1.4556671,9.2056589,3.6152260,7.8244276,11.5190840,9.0152674
4980,4.8171091,1.0127422,-1.1444225,54.3816795,75.4122162,-186.1908417,1.4891858,9.2224178,3.6846576,3.3893130,8.7251911,8.9389315
4990,4.9966736,2.8706331,-0.9337339,33.7709923,100.4351120,-179.2519073,1.6112895,9.2319946,3.7181761,-0.8091603,5.6793895,9.2442751
5000,4.6495161,4.1084290,-0.3710994,14.1221371,124.7175598,-177.6259613,1.8339491,9.1984758,3.8953462,-3.8091602,2.6793892,7.8320613
5010,1.1420283,5.2911587,0.6775556,-10.3511448,135.2824402,-163.1679382,2.1140692,9.2296000,4.3167233,-6.4732823,-2.4961832,5.1984735
5020,-0.6536137,7.4866304,1.5897418,-17.9083977,131.7786255,-139.7862549,2.3726418,9.3732519,4.5106530,-6.4351144,-3.5038168,2.9541984
5030,-2.5857246,10.2662840,2.5689652,-21.0229015,122.3206100,-113.4961853,2.4588325,9.5288744,4.5681133,-5.7786260,-3.4885497,0.7099237
5040,-3.3734128,12.1505117,3.5625539,-19.7022896,101.8931274,-84.1450348,2.6719155,9.8664551,4.7764082,-4.7633586,-2.2290077,-1.1374046
5050,-2.1547706,13.0794573,4.3957319,-13.3664122,82.6870193,-61.9007645,2.8227494,10.3021975,5.0325861,-4.1679387,-0.8931298,-2.2213740
5060,-0.6320660,13.6325150,4.9703374,-4.3664122,72.9770966,-47.2137413,2.9759774,10.5655584,5.0780759,-5.3358779,1.8473282,-2.5267177
5070,1.9608412,15.5885677,4.9272418,4.0839696,103.8091583,-24.9160309,2.1715298,10.4961262,5.6550756,-14.6870232,5.8778625,-3.1068702
5080,2.7269819,16.3164005,4.5992379,1.2824427,122.3893127,-22.7709923,1.5083394,10.0412302,6.3254485,-18.7709923,0.6335878,-2.8625953
5090,2.4516499,16.6491928,4.5537481,-5.0687022,133.6717529,-24.6641216,1.1132981,9.6150646,6.9263902,-18.5877857,-8.3053436,-2.0458016
5100,1.6328372,16.3618908,5.1642666,-11.1297712,127.5877838,-23.3282452,0.8547257,9.0979195,7.3980455,-13.0992365,-17.9389305,-0.3969466
5110,1.6376256,15.8327751,6.6247220,-11.5954199,107.1984711,-15.4656487,1.0223188,8.6430235,7.7547798,-1.8854961,-27.4732819,1.4503816
5120,2.8035958,15.2797174,10.1034794,16.4427490,53.6641235,2.7022901,2.1523764,8.0588417,6.6726060,30.0839691,-36.2442741,-1.3740458
5130,3.9671719,14.8750992,11.6644907,39.9160309,38.6106873,10.4885492,2.6767037,7.8912482,5.6263452,43.9847336,-34.8931313,-5.7786260
5140,5.3773494,14.0299501,12.7418766,69.9083939,36.0305328,14.1603050,2.9233053,8.1258793,4.4029145,51.7480927,-31.5801525,-11.2442751
5150,6.8114691,13.0124197,12.2965574,101.8091583,46.0763359,13.4122133,3.0597742,8.3916340,3.3087699,53.4503822,-27.5114498,-13.8473282
5160,7.8577299,12.1792421,11.1736822,127.1755753,60.5419846,8.0000000,2.9831600,8.7004843,2.4827745,49.2366409,-23.8854961,-16.4427490
5170,8.3724804,11.3771887,9.7156210,145.0305328,78.4580154,-0.8854962,2.8203552,8.9135675,1.9392935,40.4656487,-22.4885502,-16.5801525
5180,8.7196379,10.8169479,8.1139078,156.4885559,98.1908417,-13.2213745,2.5905130,9.0572186,1.7214222,28.8244267,-24.2824421,-16.4045811
5190,8.6621771,10.2471304,6.4379754,160.7175598,113.9542007,-30.5114498,2.3343346,9.0644016,1.9225341,16.8167934,-27.2977104,-16.9389305
5200,7.6302819,9.5791521,4.3286943,156.9007568,121.4351120,-50.1679382,2.1619530,8.9782104,2.2433555,6.7862597,-29.9236641,-17.1374054
5210,6.4164276,9.0883436,3.0885043,148.1908417,116.5877838,-68.5496216,1.9009864,8.8393478,2.8921809,0.9465649,-31.2061062,-19.2137413
5220,5.3127065,8.2479830,2.7557120,142.0152740,101.8167953,-85.8625946,1.4436963,8.5664101,3.5673423,-0.2366412,-29.3206100,-20.4656487
5230,4.0820932,7.1227136,3.0214672,138.9847260,75.3435135,-100.1145020,1.0534433,8.4802189,3.6846576,1.7709924,-25.3511448,-22.3282452
5240,3.2680686,6.2655940,3.9168940,143.4580078,44.7709923,-107.7633591,0.6464311,8.4059992,3.9623835,5.8702292,-19.6335869,-24.2519093
5250,2.8921809,5.7556314,4.7764082,158.2290039,20.7633591,-111.8854980,0.2035061,8.2743187,4.0246325,11.2442751,-13.5877867,-26.2671757
5260,2.4301023,5.2839761,4.8625989,177.7633514,2.5801528,-114.1068726,-0.3639168,8.2791071,3.8666160,17.4732819,-5.6183205,-28.2748089
5270,2.1427996,4.8314743,3.8977404,196.8244324,-2.3816793,-116.0610657,-0.8571198,8.2791071,3.7708483,23.4961834,2.9389312,-29.2595425
5280,1.8746504,4.2377152,2.5186872,209.1145020,2.9618320,-118.5877838,-1.4389079,8.2264347,3.5505829,28.9541988,9.4274807,-29.2290077
5290,1.1372399,4.1778607,1.3670821,214.4732819,11.0305347,-123.0000000,-2.0111191,8.1809454,3.3111639,33.9312973,15.8778629,-27.6259537
5300,0.4070122,4.5369892,-0.2968795,206.2061005,10.9312973,-121.9923630,-2.5258698,8.1737623,3.0334380,38.3740463,21.4351139,-24.9160309
5310,-0.0311245,4.3358769,-1.2449785,189.8015289,16.8702297,-118.5267181,-2.7940190,8.2695303,2.5905130,41.0839691,26.5801525,-19.6335869
5320,-0.2202654,4.3837609,-1.8842272,168.4427490,24.6106873,-115.3587799,-2.9017577,8.2527714,2.2672975,41.5572510,28.6946564,-14.1297712
5330,-0.6512195,4.6255741,-1.8147956,147.5572510,32.2213745,-112.6717529,-2.6647329,8.3724804,1.5610116,39.8091621,28.8167934,-7.2519083
5340,-0.7565638,4.6112089,-1.9584470,126.7633591,45.1755714,-107.3282471,-2.2361729,8.7172441,0.8283895,32.8549614,23.4809170,-0.4885496
5350,-1.0941446,4.5848727,-2.1547706,108.4656525,62.8015251,-102.1374054,-1.3551112,9.0260944,0.1675933,20.2900772,14.8854961,6.7099237
5360,-1.5825592,4.7021880,-2.8682389,90.3282471,80.3893127,-95.7480927,-0.4381367,9.1936874,-0.2633608,2.8320611,4.2366414,12.4198475
5370,-2.0661855,4.9296360,-3.3614421,72.7022934,87.8549652,-88.4809189,0.3854645,9.0859489,-0.4979914,-17.9923668,-8.2748089,15.7709923
5380,-0.9600700,6.2560172,-3.8354914,52.7404594,72.1679382,-85.9160309,1.2641320,9.0955257,-0.2489957,-38.3587799,-20.8625946,16.4885502
5390,1.6304430,7.2112985,-3.4236910,43.3129768,55.5725174,-102.0839691,2.0470319,8.8177996,0.3399749,-55.1221390,-29.3053436,13.6335878
5400,2.7676830,7.1107426,-3.2920105,47.0228996,27.9465656,-137.4427490,2.5857246,8.6669655,1.1156923,-65.8549652,-31.9618320,9.0152674
5410,2.1547706,6.1985564,-3.0956869,57.1450386,-5.7786260,-180.2137451,2.9927368,8.5544386,2.0829449,-69.9236679,-28.4809170,3.1145039
5420,-0.3375807,5.6071916,-2.8107784,65.5267181,-33.5496178,-212.9389343,3.1890604,8.6454182,2.9951310,-67.7251892,-19.2213745,-4.7862597
5430,-3.3446827,5.3390427,-2.9089401,63.0687027,-50.4045792,-224.9618378,2.9831600,8.7100611,3.7133877,-60.0687027,-8.1221371,-11.4045801
5440,-7.6590118,5.1858144,-2.9304879,50.1221390,-48.9847336,-205.6870270,2.7748656,8.9638453,4.4124913,-48.2366409,3.6183207,-18.2519093
5450,-10.0220766,5.4419928,-2.7581062,39.4198456,-19.2748089,-162.7175598,2.4037662,9.3229742,4.6399393,-35.3664131,15.5343513,-23.1450386
5460,-11.2024126,5.7699966,-2.7078283,33.3435097,7.1603055,-109.9236679,1.8914096,9.5576038,4.4938936,-24.1068707,25.5038166,-27.1832066
5470,-10.5248566,6.9790621,-3.1603301,27.6870232,17.5877857,-58.1526718,1.4532729,9.8257532,4.2185616,-17.1374054,32.4122124,-29.6641216
5480,-9.0787668,7.8912482,-3.4739690,23.0152664,10.9236641,-18.2671757,0.8379663,10.0843258,3.9815371,-14.2137403,37.2671738,-31.1755733
5490,-7.1658092,8.4443064,-3.1220231,23.9007626,-2.4274809,3.8091602,0.4788379,10.3452930,3.8785870,-14.2290077,39.8091621,-31.4198475
5500,-5.9735026,8.6190825,-2.4971397,33.1908379,-15.8778629,7.4503818,0.2154770,10.8408899,4.0342093,-15.7328243,40.1832047,-32.4122124
5510,-5.0924411,9.1553802,-2.2361729,50.9618340,-22.9389305,0.5801527,-0.0215477,11.3724003,4.2353210,-16.7938938,40.7786255,-34.5190849
5520,-5.0541339,8.8896255,-2.5138988,69.1679382,-21.3435116,-11.5954199,-0.5147507,11.7434988,4.5298066,-15.6946564,42.9465637,-36.2061081
5530,-5.8921003,8.6597834,-3.0142846,87.2290039,-18.4427490,-13.4961834,-1.2976507,11.9565821,5.0182209,-11.4274807,46.4274826,-36.8549614
5540,-6.8210459,8.8585014,-4.0581512,100.3053436,-19.7175579,-4.2213740,-2.1427996,12.0978394,5.5305777,-3.0000000,51.0000000,-34.9923668
5550,-6.9910331,8.7914639,-5.4084740,101.7099228,-26.5648861,12.5954199,-2.8873925,12.1816359,5.9663200,9.8931293,55.4656487,-29.6412220
5560,-6.7133074,8.5137377,-6.3637557,98.0000000,-28.4274807,32.4580154,-3.3518653,12.0523500,6.0644817,25.2290077,60.5648842,-22.2671757
5570,-6.3661499,8.4203644,-6.9216018,85.6946564,-23.4045811,53.1908379,-3.3398943,11.9805241,5.6909885,40.4732819,65.2061081,-14.0839691
5580,-5.2456689,8.5999289,-6.9359670,68.9465637,-15.9160309,67.7404556,-2.8706331,12.1217813,5.1451130,52.8473282,70.1755753,-4.8396945
5590,-4.7333126,9.3995876,-6.9646969,51.0458031,-1.9465649,75.3969498,-2.3894010,12.1529055,4.3837609,58.9083977,75.7938919,2.0305343
5600,-4.8099265,9.7754755,-6.7300668,31.1908398,15.5343513,76.7786255,-2.0613971,12.1026278,3.5649481,55.9618340,78.6717529,10.1755724
5610,-4.9727316,9.8951855,-6.8186517,10.2748089,39.0534363,73.9923630,-1.7908537,11.8775740,3.0430148,46.0916023,77.7709961,18.3206100
5620,-5.7316895,9.9430685,-7.2855186,-13.8854961,65.8244247,69.1603088,-1.6041069,11.6501255,3.1292057,32.1679382,74.3435135,26.4656487
5630,-6.9742737,9.9358864,-7.2591825,-37.2442741,85.1221390,66.2290039,-1.3455344,11.1353750,3.3351059,17.2366409,68.8244247,34.9312973
5640,-7.7859039,9.4785957,-5.5329719,-49.6335869,87.3969498,65.1145020,-0.9600700,10.6230183,4.0557570,4.9160304,61.2442741,41.2213745
5650,-8.8010406,8.7627335,-3.2728570,-38.2900772,77.3129807,68.2442780,-0.5075682,10.0771437,4.8961172,-2.9312978,53.5496178,45.8931313
5660,-10.2998028,7.5105724,-2.2625091,-3.4809160,60.8244286,83.3435135,-0.2106887,9.5312681,5.5449429,-5.6488547,46.1755714,49.9771004
5670,-11.8296900,6.5600791,-3.0717452,42.4503822,33.1297722,111.9542007,0.2609667,9.1817169,6.1051831,-3.8778627,41.0381660,52.8778610
5680,-12.8544035,5.9830794,-4.3239059,87.4809189,-4.3129773,147.6259613,0.7158626,8.8393478,6.6438756,1.0610687,37.4045792,54.6030540
5690,-12.4090843,5.7125359,-5.3438311,125.6946564,-42.0381660,183.7404633,0.9983770,8.4395180,6.9120250,8.2519083,36.6946564,55.4351158
5700,-10.8672256,5.3869262,-6.4930420,150.0076294,-60.9007645,213.7557220,1.1468167,8.1450329,7.0341287,17.5725193,35.9541969,55.1526718
5710,-9.6102762,5.2887645,-7.7643566,155.1374054,-57.8549614,238.0000000,1.3694763,7.9726510,6.9407554,27.2137413,36.0152664,53.2748108
5720,-9.0596132,5.4731169,-7.8146343,144.0686951,-44.8473282,250.1297760,1.4604555,7.7452030,6.6271162,35.8091621,36.8320618,50.3816795
5730,-8.3245964,5.5425487,-7.3142486,134.9084015,-38.0610695,250.1297760,1.2641320,7.6422529,6.0884237,41.1603050,37.3969460,47.7251892
5740,-8.6430235,4.4364328,-7.4866304,131.3664093,-46.1221390,250.1297760,1.1970947,7.6374645,5.6335278,43.1297722,36.8167953,46.2977104
5750,-10.3979645,2.6958573,-7.9894104,133.3740387,-89.8015289,250.1297760,1.1276633,7.6015515,5.1092005,41.2900772,34.6335869,44.4961815
5760,-9.7778702,2.1068866,-6.6869712,146.6870270,-161.5343475,250.1297760,1.0510491,7.5895805,4.6638808,36.6946564,30.0839691,45.2748108
5770,-4.8051381,2.1236460,-4.3119354,173.9618378,-205.8854980,250.1297760,1.0654143,7.5871863,4.3622131,30.5801525,23.6488552,44.5343513
5780,2.2505381,1.9416877,-2.6599445,211.0076294,-192.0763397,250.1297760,1.0486550,7.5919747,4.1371593,23.8396950,15.9389315,45.8244286
5790,6.9790621,3.1339941,-2.8778157,240.0076294,-132.7175598,250.1297760,1.2976507,7.4770536,3.9336534,16.9007626,8.4274807,46.3053436
5800,9.7108326,5.1211715,-4.2736282,247.9007568,-58.3053436,250.1297760,1.5921360,7.3693151,3.7109938,10.1068707,0.6412213,46.6488533
5810,10.3021975,6.0860295,-6.2416520,241.9465637,-2.5801528,250.1297760,1.8674678,7.2376347,3.5721307,3.7251909,-5.3893127,44.6335869
5820,9.4115591,5.1690550,-8.4179697,233.1526642,17.6641216,250.1297760,2.1978660,7.1490498,3.3973548,-1.7938931,-9.5801525,40.6641235
5830,6.4499464,2.9927368,-11.4897156,215.0305328,20.3816795,222.5725250,2.4684093,7.0820122,3.4332676,-6.3282442,-12.0839691,36.0763359
5840,2.9185169,1.1324517,-12.9022865,180.6106873,7.0839696,198.0686951,2.6647329,7.4938130,2.9448531,-13.3358774,-14.9847326,28.6717548
5850,2.8083842,-1.1923064,-11.1856527,144.3816833,-26.1755733,195.4427490,2.7724714,7.1035600,3.6798692,-14.7557249,-18.9007626,23.8244267
5860,4.4005203,-4.1204000,-8.0732069,127.2824402,-51.8244286,191.5343475,3.0932927,7.7619624,3.7181761,-17.6946564,-18.1908398,21.2442741
5870,6.0285692,-6.1315193,-4.9104824,129.0992432,-65.3358765,182.9770966,3.2225790,8.1115141,3.2345500,-23.3129768,-18.9923668,20.7175579
5880,8.4443064,-6.9383612,-1.7501525,143.8244324,-74.3587799,169.0839691,3.3542595,8.2192526,3.3135581,-31.3664131,-20.9618320,24.8625946
5890,12.3181047,-8.4227581,1.2114599,171.5114441,-63.7099228,144.9084015,3.4189026,8.6166878,3.3973548,-42.6259537,-21.8931293,32.7938919
5900,12.4234495,-10.8672256,0.2322364,194.2977142,-42.5725174,128.8320618,3.4619980,8.2862902,3.3422885,-58.1526718,-23.2977104,43.4885483
5910,11.5567522,-11.5495701,-2.9233053,187.0915985,-13.2671757,139.0839691,3.5505829,7.7116842,3.2010312,-76.6641235,-28.7251911,56.1832047
5920,11.8847561,-11.7051926,-6.0046272,146.1374054,36.8473282,176.1068726,3.8857694,6.8186517,3.5673423,-94.7557220,-37.7022896,67.2595444
5930,15.9668493,-10.1393919,-7.8242111,87.8625946,94.1145020,213.0763397,4.8051381,6.0860295,4.4675574,-105.8702316,-46.2213745,70.5190811
5940,19.2277355,-7.0053983,-9.4355011,25.2519093,146.7709961,222.6335907,6.0884237,5.5186067,5.5808558,-106.3206100,-52.9923668,61.9007645
5950,19.6126022,-1.5418580,-11.0539722,-52.0763359,171.4580078,200.8778687,6.9838505,5.3988972,6.7994981,-94.7862625,-56.2671738,41.0839691
5960,19.0409889,4.7979555,-9.8353300,-144.9236603,151.8931274,150.6946564,7.2089043,5.3581958,7.4602942,-72.8549652,-51.5419846,12.7633591
5970,17.2477417,7.8385763,-4.5345950,-220.5038147,99.5572510,84.6717529,6.7444315,5.7867560,7.8385763,-45.0152664,-41.4503822,-15.3893127
5980,18.1024666,7.4195933,3.9839313,-239.8931274,63.7480927,19.0152664,5.8202744,6.8904772,7.2735476,-17.3358784,-30.3511448,-41.5572510
5990,18.7034073,6.7707677,9.6964674,-196.6183167,59.4198456,-37.0381660,4.8697815,7.7404146,6.5121951,6.0381680,-24.5572510,-62.7480927
6000,18.9404335,4.9655490,8.9135675,-116.6488571,90.0687027,-79.4045792,3.6200144,8.7459745,5.8083038,23.9236641,-23.8396950,-79.3587799
6010,18.6076412,2.6431851,4.4124913,-35.6641235,112.6870193,-111.4427490,2.0949159,9.8233595,4.6351509,34.6641235,-28.2977104,-90.3740463
6020,16.0314922,0.4692611,-2.1787124,18.6641216,97.9923630,-132.5725250,0.4381367,10.7092094,3.8211265,41.6412201,-34.6870232,-93.4885483
6030,13.7785606,-1.6160779,-7.0796180,36.3358765,54.3129768,-141.0000000,-1.0606259,11.6094246,2.9352763,41.3358765,-41.7938919,-90.6870193
6040,13.4314032,-3.4021432,-9.9239149,27.6717548,-8.5114508,-144.7099304,-2.0518203,12.2223368,2.2194135,38.6717567,-46.4503822,-84.6183243
6050,13.5391417,-4.7213416,-11.1880474,4.8625956,-61.7099228,-143.6717529,-2.8059900,12.7897596,1.9416877,34.2519073,-45.7099228,-76.8320618
6060,13.9653072,-5.5760674,-10.4051476,-25.9465656,-98.7786255,-151.2900696,-3.1938488,13.0626974,1.6687500,30.2748089,-40.6717567,-67.9236679
6070,13.6684275,-5.4252334,-8.2072811,-60.7099228,-109.9007645,-170.1679382,-3.3590479,13.2183199,1.6160779,27.4503822,-31.9007626,-58.4045792
6080,13.2231083,-4.9799142,-5.9256191,-95.1603088,-91.1908417,-196.4580078,-3.6583214,13.2638092,1.8195840,26.4045811,-21.0381680,-48.6564903
6090,11.1497402,-4.4771342,-3.3758070,-115.7862625,-39.8778610,-226.0534363,-3.8187323,12.9453821,2.0997043,27.4274807,-13.5572519,-36.9160309
6100,7.8074517,-3.7325413,-1.7357874,-117.3282471,22.6030540,-244.1908417,-3.5242469,12.9693241,2.1308286,29.7099228,-3.5877862,-25.0152664
6110,4.8482337,-2.9328821,-1.3479286,-100.2213745,67.4580154,-237.8244324,-3.2776453,12.8448267,2.0925217,31.2671757,5.1832061,-12.1908398
6120,3.9504125,-2.7748656,-2.7964132,-75.5648880,92.5877838,-214.1221313,-2.7413468,12.4354200,1.8890154,30.3740463,11.1526718,-0.5190840
6130,4.8027439,-2.3678534,-4.5776901,-53.1526718,107.8396912,-189.1679382,-2.0925217,11.8488436,1.7549409,26.3664131,14.7862597,9.7786255
6140,6.3517847,-0.9002152,-6.6295104,-38.7862587,123.1374054,-174.0610657,-1.4772149,11.3436699,1.8171898,20.6259537,16.2748089,18.2519093
6150,7.1969333,0.6296718,-9.4402885,-38.5725174,144.2137451,-171.3053436,-0.9097920,10.6206245,1.9728121,15.0381680,16.8625946,24.1221371
6160,7.2089043,1.5969244,-11.8703909,-60.0076332,169.0458069,-178.3664093,-0.3878587,9.9765873,2.2888451,9.8931293,17.2061062,28.0000000
6170,6.6941538,2.3965836,-13.6564569,-96.9389343,189.9923706,-190.1526642,0.4572902,9.4043760,2.7293761,6.0534353,18.2061062,30.3053436
6180,6.1434903,2.7293761,-13.4553452,-134.7938995,199.1679382,-201.3511505,1.0103480,8.9399033,3.1100521,4.1450381,19.4580154,31.0534344
6190,5.5832496,3.5026991,-11.5112629,-158.9618378,193.5343475,-211.7862549,1.5346755,8.4275465,3.4811516,3.8931298,20.6183205,29.6717548
6200,5.5904322,3.6295912,-9.1290445,-163.1679382,165.6412201,-224.7938995,1.9608412,7.8720951,3.7253587,4.1984735,21.4656487,25.5038166
6210,5.4443870,3.7540891,-6.8354111,-151.9770966,125.6183243,-237.9694672,2.3008161,7.6829538,3.8402798,4.6106873,21.2671757,20.5496178
6220,4.2041965,4.3023586,-5.3893204,-131.1908417,88.5954208,-246.6106873,2.4803803,7.6135225,3.8570392,4.5496182,21.1297703,15.2366409
6230,1.8339491,4.8123207,-4.7452836,-110.0992355,52.5419846,-242.3969421,2.2888451,7.5608501,3.9073172,3.6030533,21.3893127,12.4198475
6240,-1.6974803,6.3110833,-4.8961172,-96.8931274,25.0229015,-219.5648804,1.9847831,7.6326761,3.8618276,0.9312977,19.3740463,11.0763359
6250,-3.5577655,8.0923605,-4.2496862,-89.0305328,6.6793895,-185.7328186,1.0007712,7.8337879,3.8498566,-3.4351146,14.1679392,14.7862597
6260,-3.1531475,8.7028790,-3.7277529,-81.0610657,-1.0839695,-161.3053436,0.0718257,8.3605099,3.7133877,-10.5725193,5.6335878,24.8320618
6270,-1.9728121,8.8273764,-3.8977404,-73.9312973,0.8244275,-149.7328186,-0.3734936,8.8800488,3.6176202,-19.4732819,-4.5954199,39.6717567
6280,-1.8363433,9.2631187,-4.6040263,-69.9618301,9.0839691,-144.0305328,0.0311245,9.2176294,3.8259149,-30.4274807,-13.8473282,56.9618340
6290,-2.3582766,9.6701307,-5.7628140,-70.3587799,22.1297703,-136.8778687,0.8978211,9.3349447,3.7588775,-43.3435097,-19.3206100,73.5801544
6300,-3.6798692,10.4266949,-7.6757712,-80.5267181,36.0916023,-120.9542007,1.9488702,9.2631187,3.7157819,-58.2519073,-20.7099228,86.2595444
6310,-5.0948353,11.8775740,-8.7890692,-100.2519073,44.0610695,-93.9542007,3.0932927,9.0380650,4.0054789,-74.5496216,-19.4580154,93.8091583
6320,-4.9104824,12.1672707,-9.0045462,-118.9160309,40.4274826,-65.9312973,3.8785870,8.4036045,4.7045822,-89.4351120,-17.3435116,95.9618301
6330,-4.2927818,13.5989962,-8.0636301,-127.3587799,32.4351158,-48.9541969,4.5226240,7.7930865,5.5497313,-99.3664093,-15.7251911,93.8091583
6340,-2.9448531,14.4154148,-6.2464404,-118.7633591,12.5954199,-39.5419846,5.1068063,7.2615767,6.7755561,-101.4809189,-15.6793890,86.0992355
6350,-2.0781565,14.5614605,-5.5401545,-97.0305328,-11.1145039,-30.8625946,5.5521255,6.7899213,7.8146343,-95.0305328,-19.3435116,74.1450348
6360,-1.2330076,14.3555603,-5.8513989,-77.9923630,-28.9312973,-20.0763359,5.9830794,6.6510582,8.6885138,-79.7022934,-25.3053436,58.4351158
6370,1.0510491,15.5957499,-4.5705075,-61.2213745,-54.2595406,-8.7099237,6.5481081,6.5624733,9.3205795,-35.1450386,-39.1068687,17.3893127
6380,2.2337787,16.2062683,-2.6431851,-50.4045792,-57.4809151,-17.7022896,6.5528965,6.8904772,8.9901810,-10.4961834,-41.4198456,-2.9465649
6390,3.0118904,15.7944679,-0.5674229,-33.3129768,-54.8625946,-32.8396950,6.2775645,7.2328463,8.4850073,14.0916033,-40.6717567,-22.2824421
6400,3.2752512,14.3483772,0.9097920,-9.9389315,-43.3969460,-50.4351158,5.9902620,7.5584559,7.7667508,35.4351158,-36.4656487,-38.1297722
6410,2.1739240,12.7059631,1.3407460,13.0687027,-30.8854961,-60.3587799,5.5640965,7.8361821,6.9503322,53.7862587,-31.6717548,-53.3282433
6420,0.4165890,11.4178896,1.3431402,34.2748108,-22.7862587,-55.4351158,4.9368186,8.2144642,6.2344694,68.6030502,-27.4274807,-67.2519073
6430,-0.6033357,10.4123297,0.9193687,52.2366409,-20.8854961,-41.2824440,3.9408360,8.4036045,5.5545197,79.7633591,-25.6564884,-76.6870193
6440,-1.0989330,9.8042059,0.4141948,65.2595444,-22.4580154,-27.4427490,2.8945751,8.6382351,4.6327567,86.3282471,-25.7709923,-83.1068726
6450,-1.0773853,9.2080526,0.3758878,76.1068726,-26.4885502,-16.9694653,1.9632354,8.9566631,3.6535332,88.1374054,-26.6412220,-83.9923630
6460,0.0167593,8.9015961,0.5123565,87.9542007,-31.1145039,-14.1297712,1.3287752,9.3349447,2.9185169,84.4580154,-26.1068707,-82.2595444
6470,1.4939742,8.6262646,0.1173153,97.6641235,-32.5343513,-21.2442741,0.8738791,9.6174593,2.1164634,76.5648880,-26.2671757,-76.7557220
6480,1.9584470,8.2719250,-0.6392486,99.1374054,-27.2748089,-38.8091621,0.4213773,9.7180147,1.7860653,66.4045792,-28.0000000,-70.1374054
6490,1.3622938,7.6877422,-1.4125718,92.9389343,-22.6259537,-56.2213745,0.0981618,9.7706871,1.7884595,56.5267181,-29.7938938,-62.9694672
6500,0.3351865,7.1155310,-1.8387375,81.0229034,-18.4885502,-65.2748108,-0.1053443,9.6485834,1.8100072,47.7175560,-31.5114498,-54.8091621
6510,-0.5027798,6.4020624,-1.9823889,68.4885483,-15.4656487,-67.2137375,-0.0239419,9.5192976,1.8004304,41.3053436,-34.4274826,-46.9923668
6520,-1.6855093,5.7340837,-2.0590029,56.5801544,-15.8625956,-62.7328262,0.4477134,9.4953556,1.9249283,37.3587799,-35.7557259,-40.4122124
6530,-2.1164634,5.3605900,-1.8842272,47.5877876,-14.0458012,-52.8549614,0.9672526,9.5983057,1.8602852,33.7099228,-34.6870232,-36.1526718
6540,-2.1523764,4.9080882,-1.1444225,43.6793900,-10.9312973,-41.9694672,1.3575054,9.4594421,1.8124014,29.8396950,-32.3893127,-33.8320618
6550,-2.3247581,4.5465660,-0.9696468,45.8320618,-7.3435116,-32.7633591,1.5059452,9.3373384,1.6136837,24.9007626,-31.0381680,-32.7862587
6560,-2.5450234,4.3598189,-1.0031654,50.3664131,-5.4122138,-24.8702297,1.6280488,9.4594421,1.4508789,19.3206100,-31.1679382,-31.8854961
6570,-2.4612267,4.3885493,-1.3766589,53.0458031,-0.2213740,-17.2824421,1.8411317,9.4690189,1.5107336,14.2519083,-30.1221371,-30.9618320
6580,-2.4109488,4.3933377,-2.0446377,51.1450386,8.2900763,-9.9770994,1.8483143,9.5288744,1.7309990,8.7022905,-27.8854961,-29.5343513
6590,-2.5785420,4.6782460,-3.0693510,44.1374054,16.7786255,-2.6106870,1.9416877,9.5552101,1.8219782,4.3053436,-24.6641216,-27.7709923
6600,-2.5689652,4.9847026,-3.9144998,32.7175560,20.8396950,4.6946564,1.8363433,9.5288744,2.0853391,1.0305344,-21.1984730,-26.5801525
6610,-2.7174051,5.3127065,-4.9870968,17.5877857,22.3511448,14.2519083,1.6663558,9.5264797,2.3103929,-0.6335878,-18.7328243,-24.6183205
6620,-2.8275378,5.7771792,-5.9304070,-3.2061069,24.0229015,27.3435116,1.3718705,9.4426832,2.5905130,-0.7175573,-15.6335878,-22.8473282
6630,-2.1619530,6.7252784,-5.9567432,-26.5343513,26.9389305,39.7328262,1.3646880,9.3708572,2.6072724,0.5801527,-10.7938929,-22.6106873
6640,-1.0869620,7.2041159,-4.9703374,-41.1832047,29.9923668,47.2213745,1.1300575,9.1529865,2.7221935,2.0152671,-6.5038166,-23.7099228
6650,-0.8236012,7.7811155,-4.0006905,-42.3282433,30.4198475,50.4503822,0.8954269,8.9877872,2.8419030,5.0992365,-1.9389313,-25.0076332
6660,-0.4668669,8.4275465,-4.0892754,-37.4961815,25.3969460,53.5572510,0.4860204,9.0236998,3.0047078,10.1526718,3.9770992,-25.1908398
6670,-0.2322364,8.9734221,-4.3957319,-33.0610695,20.6412220,56.6870232,0.1795642,9.0955257,2.8371146,15.2519083,9.0458012,-27.2290077
6680,0.3639168,9.5863342,-4.3286943,-30.0534344,14.7175570,56.8091621,-0.2250538,9.1218615,2.6719155,18.8702297,12.8091602,-27.3969460
6690,0.4788379,9.9430685,-4.5298066,-26.2519093,6.3816795,54.4656487,-0.8044477,9.2224178,2.4708035,21.1297703,14.3816795,-25.3816795
6700,0.6177009,10.1561518,-4.9176650,-25.0305347,-2.4427481,51.6106873,-1.1444225,9.3014259,2.1332228,21.0534344,14.0610685,-21.6106873
6710,0.7230452,10.4865494,-4.8913293,-28.3053436,-6.5190840,48.3587799,-1.3551112,9.3325500,1.8219782,18.8625946,11.7480917,-15.1450386
6720,0.9911944,10.4362717,-4.4340386,-31.7251911,-8.1526718,42.3206100,-1.2928623,9.4570484,1.3694763,14.3053436,7.3206105,-8.2290077
6730,-0.2106887,9.7539282,-4.7548604,-44.7862587,5.4045801,33.8396950,0.2035061,9.4355011,0.7805058,-18.2977104,-15.3664122,14.7480917
6740,-1.0725969,9.2032642,-4.5824785,-54.2519073,15.7022905,35.9312973,1.1156923,9.3014259,1.0342898,-30.0992374,-22.8854961,19.0916023
6750,-2.1547706,8.9422979,-4.5968437,-65.0457993,33.5954208,46.9312973,1.9895715,8.9877872,1.5250987,-38.7404594,-28.5496178,18.7099228
6760,-3.3901722,8.4538832,-5.0900469,-77.9389343,51.3129768,69.5267181,2.7102225,8.8752604,1.9536586,-44.7480927,-31.4274807,16.4122143
6770,-4.9727316,7.7930865,-5.1020179,-92.5419846,59.4732819,103.0076370,3.4093258,8.6741486,2.5737536,-45.8167953,-31.0152664,12.2213745
6780,-5.8322453,7.1897511,-4.7500720,-103.7099228,51.0992355,146.9007568,3.9288650,8.7028790,3.3183465,-41.7709923,-25.9923668,3.7938931
6790,-5.7771792,6.7611909,-3.7493007,-107.9847336,30.7557259,192.8320618,4.2089849,8.9039907,3.8450682,-33.4580154,-18.8396950,-7.6870227
6800,-4.2520804,7.2903070,-1.7453641,-101.0687027,10.7709923,233.2213745,4.0366035,9.0979195,4.0413918,-22.5877857,-9.3969469,-19.9007626
6810,-0.7948709,8.3461447,0.3926471,-77.9770966,-0.0534351,250.1297760,3.2201848,9.5599985,4.0389977,-12.4198475,-1.6717557,-29.4274807
6820,3.1076579,9.0931320,1.8100072,-43.1908379,-3.5648854,250.1297760,2.4636209,9.9358864,3.9863255,-3.4351146,4.2824426,-34.3129768
6830,7.3070664,10.5918941,1.8339491,32.0687027,12.3893127,201.1679382,1.0630201,10.2399483,3.2393384,3.2137403,9.5419846,-36.0687027
6840,6.2248926,11.3604288,0.5889706,59.2213745,26.9770985,163.9770966,0.3734936,10.2806492,2.9903426,1.5343511,8.9465647,-33.1832047
6850,3.7277529,11.7650471,-1.5274929,73.5725174,34.2748108,140.3816833,-0.0981618,10.3237448,2.8035958,-2.2366412,6.8854961,-28.0916023
6860,1.8411317,11.9039097,-3.2896163,76.3816757,38.1068687,132.5725250,-0.1364688,10.3189564,2.6575503,-6.5954199,4.9694657,-21.5877857
6870,0.2370248,11.5471754,-4.3215117,73.0534363,37.9236641,134.4580078,0.0646431,10.2758608,2.8538737,-11.1068707,4.1603055,-15.8396950
6880,-1.5107336,11.3700056,-4.9607606,65.0839691,28.4961834,145.6106873,0.2489957,10.1585455,3.0358322,-14.1679392,5.3358779,-11.5801525
6890,-2.1763182,10.5775290,-4.5465660,54.4732819,12.8625956,170.2977142,0.2513899,9.9885588,3.3925664,-15.1908398,7.5725193,-9.2900763
6900,-1.0893562,9.7563219,-3.2584918,50.7251892,2.9312978,204.0915985,0.0909792,9.7204094,3.8211265,-14.1832066,8.6030531,-7.8702292
6910,6.4331870,10.7307568,-5.5449429,115.6183243,-5.3206105,244.0229034,1.2641320,9.6270361,3.1914546,-12.8320608,2.4656489,-3.8167939
6920,6.6414814,10.4673967,-8.2599535,113.2824402,-13.4885492,235.1755676,1.3383518,9.5288744,3.3039815,-16.2061062,0.8396947,-5.6564884
6930,6.1267309,9.7419567,-10.9797525,93.3511429,-27.5725193,228.2061005,1.3598996,9.4043760,3.5649481,-18.9465656,-0.6564885,-6.9160304
6940,5.9471664,8.7196379,-12.2031832,60.1908379,-48.5725174,222.9160309,1.2737088,9.4355011,3.8474624,-20.1450386,-2.5725191,-7.9694657
6950,6.2057390,7.1418672,-11.8847561,26.8320618,-65.5496216,219.7633514,1.1899122,9.5863342,3.9863255,-19.7709923,-4.6259542,-8.4656487
6960,5.8322453,5.3701668,-10.9797525,-0.7022901,-73.1526718,217.8702240,1.1539993,9.6773138,4.1515245,-18.4427490,-6.4961834,-8.4503813
6970,5.0134325,3.5098817,-10.0460186,-20.2366409,-71.9389343,222.4656525,1.1611819,9.8377247,4.1587071,-16.9694653,-7.6717558,-8.0076332
6980,4.5489597,1.0510491,-9.1074963,-36.2290077,-62.8015251,235.7099304,1.1324517,9.9215212,4.0270267,-16.2595425,-8.7328243,-6.7480917
6990,4.9583664,-1.4532729,-8.5304966,-50.8396950,-48.1068687,250.1297760,1.2976507,9.8640604,4.0318151,-16.1526718,-9.1068707,-5.1679387
7000,6.4116392,-3.9240766,-8.0229292,-68.9160309,-26.8625946,250.1297760,1.4700323,9.8089943,4.2855992,-16.0687027,-7.4503818,-4.0839696
7010,8.1881275,-6.6055689,-7.9463148,-93.6564865,-8.2290077,250.1297760,1.4508789,9.5935173,4.7620430,-13.1297712,-3.5954199,-4.6488547
7020,10.5057030,-9.3517036,-7.7571740,-124.6259537,2.5725191,245.4351196,1.4317253,9.6126709,5.5449429,-5.7328243,4.8702292,-5.9770994
7030,13.6325150,-12.5000629,-6.9718795,-162.8244324,15.2061071,212.0076294,1.1420283,9.7323799,5.9543490,5.1526718,14.2748089,-6.5877862
7040,16.1966915,-15.0714226,-5.7269011,-204.6030579,29.6030540,165.8473358,0.5937590,9.7275915,5.9232249,17.0916023,21.3664131,-5.2748094
7050,17.7577038,-18.1168308,-3.6918402,-250.1374054,48.3664131,115.8854980,0.2968795,9.9670105,5.6311336,27.0763359,25.2671757,-1.4274809
7060,17.8534698,-19.6131992,-0.6488253,-250.1374054,65.0381699,76.2061081,0.1221037,9.9813757,5.0062504,32.8244286,26.1526718,3.8244274
7070,16.5414543,-19.6131992,3.8737986,-250.1374054,82.8549652,54.5267181,0.0023942,9.9239149,4.4484038,33.1526718,24.3893127,7.0610685
7080,13.7163115,-17.2237988,9.9933472,-250.1374054,84.0076370,49.5038185,-0.0766141,9.7515335,4.0581512,29.4961834,21.5572510,9.8702288
7090,9.2583303,-9.7994175,19.6126022,-250.1374054,11.6335878,60.0916023,-0.1053443,9.7395630,3.7852135,24.2748089,18.0763359,12.8778629
7100,9.5671806,-2.1571648,19.6126022,-198.9694672,-80.4122162,90.3969498,-0.0526722,9.6677370,3.8187323,19.0534344,14.4885492,13.7480917
7110,16.5630035,-1.1276633,19.6126022,-67.7099228,-118.4427490,115.6564865,0.0837966,9.6342182,3.7852135,14.9923668,10.8778629,14.8244276
7120,19.6126022,-1.4676381,19.6126022,71.9847336,-24.2519093,62.2748108,0.0191535,9.4809904,3.8761928,11.5114508,6.4656487,16.0229015
7130,19.6126022,-2.0302727,10.8193426,165.5038147,55.7022896,-6.6335878,0.2920911,9.4091644,3.8905578,8.9618320,2.6259542,17.6946564
7140,19.6126022,-2.3127871,2.6575503,202.7022858,88.9160309,-51.3893127,0.4405309,9.3157911,3.7253587,7.0076337,-0.3816794,18.9389305
7150,17.7696743,-3.6918402,-3.6678982,208.1832123,82.6335907,-83.5038147,0.6009415,9.2272062,3.6631098,5.6183205,-1.8167939,19.3129768
7160,17.5829277,-6.6438756,-7.2041159,192.2824402,43.4198456,-124.9083939,0.7972651,9.0380650,3.6152260,3.8854961,-3.6641221,19.6259537
7170,16.7018661,-9.3421268,-9.1673517,160.9618378,12.8473282,-174.9465637,0.9624642,8.8800488,3.4165084,2.3740458,-5.5419846,19.7786255
7180,15.0762110,-11.1521349,-10.3524752,117.3893127,16.3587780,-217.0992432,1.1132981,8.8225880,3.3135581,0.7557252,-7.4122138,19.2137413
7190,13.2757807,-11.3963413,-9.3732519,68.3893127,19.9847336,-243.2595367,1.3383518,8.8106174,3.3327117,-0.5419847,-8.3969469,18.3053436
7200,11.7387114,-11.6405487,-6.7180958,20.1679382,16.0687027,-250.1374054,1.4987626,8.6502066,3.2417326,-1.9694656,-9.5419846,16.6641216
7210,9.1912937,-10.7882175,-3.8618276,-13.5267172,22.2213745,-250.1374054,1.7262106,8.9782104,3.0166788,-4.4580154,-9.1145039,13.9312973
7220,7.0724359,-9.7228031,-1.2521610,-27.3435116,36.1145020,-250.1374054,1.4820032,7.7811155,3.5194585,-7.8702292,-14.6259546,13.7022905
7230,4.8530221,-8.2958660,0.9528874,-19.7099228,55.1679382,-250.1374054,1.8890154,8.5999289,3.6008608,-5.3053436,-12.1145039,11.5114508
7240,3.2249732,-6.7133074,1.6136837,4.1755724,68.8167953,-250.1374054,2.0039365,8.8321648,3.1411765,-9.1145039,-13.8167934,8.3816795
7250,2.8586621,-4.8937230,1.1324517,38.1526718,79.6183243,-238.3358765,1.9632354,8.4706421,3.1244173,-9.9465647,-15.6793890,6.1374044
7260,3.7349355,-3.6248028,-0.9624642,64.9694672,86.7480927,-210.9694672,2.2218077,8.7747040,3.3135581,-11.2824430,-16.1908398,3.3587787
7270,5.1068063,-2.1236460,-3.0573800,76.7099228,99.4503784,-192.9160309,2.1356170,8.7555504,3.3518653,-11.2061071,-16.8854961,-0.5343512
7280,5.1714492,0.9600700,-5.2456689,71.5267181,125.0534363,-183.9160309,2.1930776,8.6454182,3.4548154,-9.9923668,-16.2290077,-4.0000000
7290,3.0118904,4.0006905,-7.0891948,49.6946564,147.0763397,-172.5801544,2.1212518,8.8704720,3.5984666,-9.0916033,-15.5267172,-6.3816795
7300,1.3048333,6.7372489,-7.9415264,16.5877857,154.5038147,-149.6946564,1.9321109,8.9686337,3.5673423,-8.3206110,-14.7404585,-8.1297712
7310,1.9680238,8.6813307,-7.2424231,-15.6641226,140.6641235,-123.7022934,1.8315549,9.0260944,3.4691806,-7.1374044,-14.2595415,-9.4351149
7320,4.1371593,8.9279327,-5.6454988,-35.4961815,116.3129807,-110.3358765,1.6615674,9.1410151,3.6631098,-5.1908398,-13.4045801,-10.3587790
7330,5.8609757,8.8082228,-4.1658897,-40.9007645,105.9389343,-113.4274826,1.6352314,9.1170731,3.8091555,-2.3358779,-13.2290077,-12.0687027
7340,5.7819676,10.0627785,-3.2584918,-37.8931313,118.9007645,-116.2595444,1.7286048,9.1601686,3.9767487,1.9389313,-12.8473282,-14.4503813
7350,5.1163831,11.9493999,-2.6144550,-32.0152664,134.6641235,-114.6183243,1.9033806,9.2870607,4.3286943,8.3358774,-9.4885492,-18.2366409
7360,4.4747400,13.1632538,-2.7820482,-28.2824421,133.0534363,-111.2213745,1.8411317,9.3014259,4.5274124,15.8320608,-4.7251906,-19.8015270
7370,4.7788019,13.8575687,-3.1699069,-31.9160309,110.5801544,-107.2900772,1.6232605,9.4498653,4.3454537,23.6793900,-0.3587786,-21.0992374
7380,5.1906028,14.1089582,-3.6990228,-43.5648842,88.2595444,-103.4045792,1.5897418,9.5025377,3.9982965,30.4274807,3.0458016,-21.6641216
7390,5.2863703,14.3914728,-3.2489152,-55.1755714,72.6335907,-101.8625946,1.3598996,9.6797075,3.8570392,35.1068687,4.3969464,-22.3893127
7400,5.7484488,14.5016060,-2.1811066,-58.1221390,60.8473282,-104.9923630,1.1037214,9.9502516,3.4452386,37.7328262,4.2061067,-21.3664131
7410,5.3462253,14.7506008,-1.4772149,-53.1145020,62.0152664,-110.2290039,0.8283895,10.2040358,3.0286496,37.6030540,4.2900763,-18.9923668
7420,4.3837609,15.3659077,-1.0917504,-44.9618340,70.5114517,-109.6641235,0.6129125,10.2519188,2.7221935,35.2671738,3.4580152,-15.1755724
7430,3.8163381,16.1224709,-0.4812321,-35.2213745,77.5343475,-101.2748108,0.5003856,10.3285332,2.4947455,31.4580154,1.0305344,-11.3893127
7440,4.3598189,16.5773678,0.4381367,-21.6870232,82.7862625,-89.1221390,0.5578461,10.3309278,2.4253139,27.0534344,-1.2900764,-8.3893127
7450,5.5976148,16.0841656,1.2377959,-3.7786260,82.5114517,-78.2748108,0.3998296,10.3812056,2.3271523,22.7557259,-2.2900763,-6.9541984
7460,7.5105724,14.8296099,1.3527170,14.2824430,69.8320618,-70.5343475,0.3495516,10.2399483,2.4827745,19.2442741,-3.2442749,-5.5496182
7470,8.8201942,13.9700956,1.4820032,32.0152664,45.3664131,-67.6946564,0.2681492,10.4913378,2.5905130,15.6106873,-3.2290077,-3.0000000
7480,9.3421268,13.2302914,1.5274929,49.2824440,9.1603050,-70.4351120,0.0047884,10.3357162,2.6144550,13.0610685,-3.5954199,-0.5190840
7490,9.1553802,12.6221666,1.4484847,64.1526718,-32.4885483,-78.5419846,0.0095768,10.1154509,2.6383967,9.9465647,-4.3893127,1.8549619
7500,8.6095057,11.9422169,1.4389079,72.7938919,-74.9618301,-88.8244247,0.1101327,10.0148945,2.5258698,7.7251906,-5.5190840,4.3816795
7510,7.7930865,11.4538021,1.3790531,74.3740463,-105.6335907,-98.5267181,0.0430954,9.9670105,2.7437410,6.0610685,-6.2137403,6.0152674
7520,7.2735476,10.5942879,1.5729824,70.9312973,-119.6412201,-109.4656525,0.1221037,9.9717989,2.7628946,5.0305343,-5.2366414,8.2366409
7530,6.6989422,9.5384512,1.8650736,63.7557259,-123.1526718,-122.9236679,0.2489957,9.7204094,2.8945751,4.2824426,-4.5190840,11.1755724
7540,6.0213866,8.6118994,2.1260402,53.1374054,-114.7251892,-135.6793823,0.3423691,9.6174593,2.7652888,3.2137403,-4.3816795,13.5343513
7550,5.0517397,7.8385763,2.6647329,41.2900772,-96.4809189,-142.6335907,0.4381367,9.5121145,2.7437410,2.3664122,-4.5267177,15.5725193
7560,4.0413918,7.1993275,3.3805954,34.3740463,-69.9847336,-143.2671814,0.6105183,9.5001440,2.6982515,1.1679389,-4.2366414,17.2366409
7570,3.0549858,6.8928714,3.9815371,35.4045792,-42.8396950,-141.7099304,0.8116302,9.4139528,2.7054341,-0.4427481,-3.6488550,18.6564884
7580,2.0326669,6.6199336,3.9887197,41.9847336,-20.1297703,-139.2137451,1.0869620,9.3373384,2.6312141,-2.6717558,-3.6870229,19.5801525
7590,0.9959828,6.2368636,3.7062054,51.2137413,-8.3511448,-135.9847260,1.3503228,9.3157911,2.5450234,-4.9618320,-4.3893127,19.2366409
7600,0.1316804,6.0357518,3.4619980,62.3053436,-7.9770994,-131.8854980,1.6615674,9.2535419,2.6527619,-7.2213740,-5.4351144,18.8473282
7610,-0.5506636,5.8729467,3.4165084,74.2748108,-12.2519083,-127.6335907,1.8890154,9.2224178,2.6647329,-9.3129768,-5.8167939,17.7709923
7620,-0.9217629,5.5760674,3.2680686,87.9923630,-16.3893127,-123.0229034,2.1092808,9.3421268,2.7676830,-10.8702288,-5.3969464,16.4427490
7630,-1.5681942,5.2432747,2.6503677,102.2671738,-17.6564884,-116.2061081,2.2625091,9.3277617,2.8610563,-11.7557249,-4.4580154,13.8778629
7640,-2.3822186,4.8410511,1.9584470,113.9847336,-21.5801525,-104.9389343,2.1715298,9.2798786,3.0765336,-12.0381680,-3.6641221,11.6183205
7650,-3.3255291,4.6327567,1.0893562,123.5954208,-24.5801525,-88.8091583,2.0063307,9.2774839,3.3087699,-11.3740454,-2.2061069,8.3969469
7660,-3.6415622,4.6136031,-0.0885850,125.8320618,-19.7633591,-68.0992355,1.9536586,9.2966375,3.3973548,-9.8702288,-0.1145038,6.6183205
7670,-3.2489152,4.8051381,-0.9169745,123.0229034,-7.4198475,-47.1755714,1.8339491,9.2798786,3.5960727,-7.3664122,2.2213740,5.8396945
7680,-1.9608412,4.9918852,-1.6543850,117.5954208,16.8854961,-32.7175560,1.6639616,9.2415714,3.6487448,-4.9541984,4.1755724,5.0152674
7690,-0.6560079,4.9894910,-3.4141142,105.7862625,59.0534363,-26.8396950,1.4245427,9.2224178,3.6248028,-2.5572519,5.6641221,4.4198475
7700,2.6455793,6.2129216,-6.1602492,55.3511467,167.8778687,-28.2213745,1.5083394,9.3612804,3.4548154,0.3893130,6.5343513,4.4198475
7710,4.3670015,7.3884687,-6.0716643,28.1984730,219.1221313,-41.8778610,1.6304430,9.4139528,3.3925664,0.6870229,6.1221375,3.7786260
7720,4.9224534,7.8098459,-5.7819676,6.7480917,250.1297760,-67.6335907,1.6424140,9.4355011,3.2177906,0.4732825,4.8396945,3.3435113
7730,3.9911139,7.9439206,-6.0118098,-10.2290077,250.1297760,-92.8320618,1.7022687,9.3636751,3.1339941,-0.9465649,3.8320611,2.3511450
7740,2.4708035,8.6526003,-5.9591374,-22.3206100,250.1297760,-105.4351120,1.6400198,9.2583303,3.0980811,-1.7709924,3.0687022,1.1679389
7750,1.4460905,9.8808203,-5.6383162,-27.1068707,250.1297760,-106.1755753,1.6831152,9.2152348,3.2393384,-1.7175573,2.3587787,-0.5114504
7760,0.3687052,10.6589317,-5.9064655,-27.7099228,250.1297760,-99.4885483,1.7860653,9.2343884,3.2177906,-0.5801527,1.2519084,-1.3587786
7770,-1.1013272,11.3963413,-6.4762826,-25.1832066,243.2213745,-84.4656525,1.9368993,9.2607250,3.1651185,0.9465649,0.3587786,-2.3587787
7780,-1.9991482,12.1433287,-6.5792327,-22.6870232,178.3664093,-64.4580154,2.0302727,9.2942438,3.0334380,2.4503818,-0.1679389,-3.1450381
7790,-2.0374553,12.4641504,-6.1722202,-19.2366409,105.8167953,-45.6564903,2.1619530,9.3517036,2.4971397,2.8473282,-1.4351145,-4.0458016
7800,-1.7286048,12.2965574,-5.0325861,-12.3816795,40.4580154,-30.1526718,2.4899571,9.3469152,2.3295465,1.8167939,-3.8931298,-5.3587785
7810,-1.1587877,11.8057480,-3.6248028,0.6641222,-9.7328243,-17.1068707,2.4779861,9.6078825,1.8531027,-3.4274809,-6.5419846,-6.3740458
7820,-0.7757174,11.3269100,-2.4875629,17.5877857,-48.2442741,-4.3282442,2.6120608,9.7084379,1.8363433,-8.6793890,-10.3664122,-6.2671757
7830,-0.4381367,10.9701757,-2.2242019,33.4274826,-73.4274826,6.5496182,2.8395088,9.8089943,2.0039365,-13.3206110,-11.0916033,-6.7175574
7840,-0.0622489,10.4889441,-2.4779861,44.4809151,-87.6030502,15.0381680,2.7461352,9.8257532,2.0111191,-18.2442741,-11.1832066,-7.5877862
7850,0.3998296,10.0891142,-2.5761478,49.7480927,-97.4885483,19.4656487,2.5019281,9.7443514,2.3391230,-22.0916023,-10.6335878,-7.5190840
7860,0.4381367,9.5767574,-2.4540441,51.8702278,-104.9694672,20.3282452,2.2553265,9.7036495,2.6767037,-25.0992374,-10.9007635,-6.7099237
7870,0.3710994,9.1362267,-2.6096666,52.2061081,-108.7099228,19.8625946,2.0973101,9.6198530,3.0525916,-26.5190830,-11.1908398,-4.8091602
7880,0.3519458,8.6430235,-2.6790979,50.3282433,-108.3435135,19.5496178,1.9752063,9.6126709,3.5074875,-26.1221371,-9.6564884,-3.0076337
7890,0.2777260,8.1881275,-2.5929072,47.3664131,-105.6412201,19.2061062,1.8890154,9.4235296,3.7205703,-24.9465656,-7.2595420,-1.4274809
7900,0.1891410,7.7715387,-2.5426292,45.1755714,-101.1526718,18.4198475,1.6615674,9.3229742,4.1299767,-23.7786255,-4.3129773,-0.7175573
7910,0.1005560,7.5057840,-2.8466914,43.4351158,-95.4732819,17.6793900,1.2665262,9.1649570,4.3358769,-21.8244267,-1.4961832,-1.4198474
7920,-0.0478838,7.1753860,-3.1196289,41.6259537,-90.7328262,18.0000000,0.9097920,9.1649570,4.6040263,-19.1526718,1.3664122,-1.3511450
7930,-0.0718257,7.0772243,-3.6846576,37.5877876,-88.1374054,18.5496178,0.5650287,9.0236998,4.8985114,-14.4656487,3.3969467,-1.7328244
7940,-0.2035061,6.9575148,-3.9911139,31.2442741,-87.9007645,17.6946564,0.1723816,9.0620070,5.0469513,-8.5572519,5.1297708,-1.2290076
7950,-0.2274480,6.8689294,-4.2448978,22.3053436,-86.1526718,16.7175579,-0.0023942,8.9782104,5.1163831,-1.8549619,6.3969464,-0.9770992
7960,-0.2489957,6.7468257,-4.0198441,2.7786260,-80.9389343,14.2213745,-0.1747758,8.7651272,4.5465660,8.9236641,7.6488547,1.5343511
7970,-0.3710994,6.6726060,-4.0796990,-5.6030536,-78.4732819,14.0916033,-0.1292862,8.6693602,4.0102673,10.3129768,8.3893127,1.2137405
7980,-0.1891410,6.5385313,-4.1634955,-12.2671757,-75.6030502,14.2824430,-0.1101327,8.7124557,3.6224086,9.0152674,7.0458016,0.0534351
7990,-0.0790083,6.4164276,-4.3239059,-17.5572510,-71.1450348,14.5801525,-0.0215477,8.7004843,3.1842721,5.3816795,3.3206108,-0.8931298
8000,-0.1005560,6.3517847,-4.7548604,-24.3740463,-64.0000000,16.6564884,0.1556223,8.6573887,3.2082138,1.2519084,-3.0381680,-1.7328244
8010,0.2418131,6.5959921,-5.2217274,-32.7099228,-54.8244286,21.1068707,0.4213773,8.6765423,3.0406206,-2.9160306,-11.0000000,-2.5496182
8020,1.4772149,7.1801744,-5.7628140,-39.4885483,-46.0228996,22.3282452,0.7493813,8.5209198,2.9041519,-5.7480917,-17.8625946,-3.3511450
8030,2.4492557,7.7978749,-6.1746144,-41.0839691,-41.0228996,15.9618320,1.0821736,8.4850073,3.0693510,-6.7862597,-22.6870232,-5.9236641
8040,2.3343346,8.0971489,-7.3381906,-41.6183205,-50.6412201,6.1068702,1.5514348,8.7052727,3.0813217,-6.0458016,-25.9160309,-9.5877867
8050,1.1444225,8.4203644,-9.1793222,-49.1679382,-76.0534363,-0.3358779,2.0135133,8.9901810,2.8778157,-3.2137403,-27.2900772,-13.1297712
8060,0.0502780,8.5185261,-10.1393919,-66.5114517,-112.1297684,-1.2671756,2.4037662,9.2583303,2.7748656,-0.0610687,-25.4045811,-15.7404585
8070,-0.5817881,8.5400734,-9.2631187,-82.3893127,-144.9084015,5.8091602,2.5378408,9.6198530,2.5737536,3.4656489,-19.4732819,-18.3282452
8080,-1.9105632,8.4131813,-7.0604649,-86.8854980,-168.5648804,21.8244267,2.5785420,9.9526453,2.3391230,6.8015265,-12.0610685,-21.7328243
8090,-2.5929072,8.8465300,-4.7333126,-77.6488571,-185.2442780,46.7175560,2.1595588,10.1058741,2.2912393,8.8244276,-4.1068702,-23.7022896
8100,-2.9903426,9.7730818,-3.2082138,-59.3740463,-190.2748108,72.2671738,1.6160779,10.2231894,2.2481439,10.6183205,3.0076337,-21.8015270
8110,-2.9616125,10.8361015,-3.1172347,-44.1908379,-180.8091583,90.6106873,1.2018831,10.3381100,2.1356170,11.4732828,8.9312973,-18.0000000
8120,-2.8059900,11.8344784,-3.6607156,-43.0152664,-150.7709961,99.9312973,0.9457048,10.4219065,2.0925217,10.9312973,12.2671757,-13.1450386
8130,-2.7365584,12.6844158,-3.7085996,-48.2595406,-109.0992355,102.8396912,1.0199248,10.4458485,1.9584470,8.1603050,13.2213745,-7.4274807
8140,-2.4588325,13.4170380,-4.8386569,-59.6183205,-64.9542007,97.5343475,1.1132981,10.3979645,1.8100072,3.7557251,12.4580154,-3.3206108
8150,-2.7221935,13.9629126,-6.2153158,-78.1297684,-23.9007626,87.4045792,1.3096216,10.2782555,1.9201399,-1.5419847,10.3893127,-0.3053435
8160,-4.2281384,13.9557304,-6.8090749,-96.5801544,-9.1908398,75.5648880,1.3168042,10.0244713,2.0973101,-7.2977099,8.5343513,-0.6870229
8170,-6.6558466,13.3188763,-5.7292953,-99.7862625,-33.4580154,74.8320618,1.2330076,9.8449068,2.4348907,-11.7862597,7.8320613,0.7175573
8180,-8.0851774,12.2151546,-4.4029145,-85.8396912,-77.4045792,87.1679382,1.0199248,9.5911226,2.8873925,-14.8549614,6.5801525,1.7557251
8190,-8.6142941,10.7930059,-2.3750360,-58.6641235,-127.1068726,107.8778610,0.9385223,9.3493099,3.1675127,-15.9007635,6.2366414,5.4198475
8200,-8.9710283,9.7635050,-0.8714849,-15.5267172,-166.2519073,138.6335907,0.9433106,9.0165176,3.5170643,-15.4198475,5.8549619,8.9007635
8210,-9.5408449,8.6813307,-1.7621235,25.9618320,-184.2061005,178.2595367,1.2473727,8.7818871,3.8354914,-14.5648851,5.4427481,12.2061071
8220,-9.4115591,8.1234846,-3.2369442,55.0534363,-189.0305328,224.3282471,1.5466464,8.6190825,3.6774750,-14.6030531,5.7480917,13.0305347
8230,-9.1314383,7.1562324,-4.8721757,70.9923630,-184.8625946,250.1297760,1.8171898,8.3940287,3.7804251,-15.0992365,4.9083967,13.0534353
8240,-8.3485384,5.8681583,-6.2464404,77.1068726,-172.8244324,250.1297760,2.0613971,8.4610653,3.7133877,-16.4580154,4.2748094,12.7557249
8250,-5.6431046,4.6327567,-6.5265603,79.9542007,-155.6717529,250.1297760,1.9752063,8.4514885,3.8546450,-17.9007626,3.6030533,11.9770994
8260,-1.2042773,3.9097114,-6.4858594,87.4732819,-136.3740387,250.1297760,2.1835008,8.6047173,3.8690102,-19.1526718,4.2290077,11.9389315
8270,2.6383967,3.9456241,-6.9239960,100.5725174,-117.9007645,250.1297760,2.2433555,8.6358414,3.9695661,-20.9770985,5.4045801,12.4427481
8280,5.0996237,4.2999644,-8.6693602,105.0763321,-104.5801544,250.1297760,2.2505381,8.5903521,3.8330972,-23.7709923,6.0687022,12.9618320
8290,6.4044566,3.8187323,-10.2878323,94.2519073,-100.4885483,250.1297760,2.4468615,8.5304966,3.7876077,-26.7480907,6.2671757,12.7862597
8300,7.6135225,2.9137285,-10.8025827,71.4809189,-103.4732819,250.1297760,2.5785420,8.4083929,3.7876077,-31.5496178,3.2290077,11.2671757
8310,9.1697454,1.4628497,-10.0412302,42.1755714,-108.7022934,250.1297760,2.8107784,8.4443064,3.8857694,-36.5114517,-1.5038168,8.4580154
8320,10.3141680,-0.6200951,-8.4395180,12.5954199,-114.5267181,243.8702240,2.8849983,8.5759869,4.1227942,-41.4809151,-9.0610685,3.4885497
8330,11.9901009,-3.2441268,-5.7436604,-14.8778629,-120.2977066,191.2213745,2.9185169,8.8130112,4.4603748,-46.2977104,-17.4961834,-0.6412213
8340,15.1815557,-6.0860295,-1.7764885,-35.1908379,-121.3511429,128.3129730,3.1315999,9.1146793,4.7069764,-47.8473282,-20.8244267,-6.8549619
8350,18.7465038,-9.3828287,2.6383967,-49.4274826,-118.0457993,57.5496178,3.0980811,9.1817169,5.3055239,-46.3816795,-22.1984730,-12.0000000
8360,19.6126022,-12.9358053,7.7428088,-62.9236641,-95.7328262,-12.8091602,3.1196289,9.2703018,5.6885943,-42.2824440,-22.3053436,-16.9083977
8370,19.6126022,-15.1983147,11.7794123,-79.7557220,-25.8244267,-66.1374054,3.2345500,9.5456333,5.8777351,-36.4122124,-20.4351139,-21.5114498
8380,19.6126022,-12.5982246,12.7251167,-101.9160309,127.8091583,-80.6793900,3.0837159,9.8880024,5.9280128,-32.6564903,-16.7480907,-24.6183205
8390,16.9053726,-6.2009506,9.0189114,-142.4427490,250.1297760,-53.4885483,2.7150109,9.8568783,5.5281835,-30.9847336,-19.0687027,-29.1221371
8400,10.8073711,0.1651991,6.1794028,-196.7099304,250.1297760,10.3740454,2.3846128,9.7898407,5.7029591,-29.6259537,-24.7862587,-36.5190849
8410,8.7962523,6.1985564,9.0883436,-240.6412201,250.1297760,79.6946564,1.8459201,9.4809904,6.0884237,-30.1068707,-41.5725174,-46.1755714
8420,9.5983057,12.2797976,14.2262735,-238.0381622,250.1297760,128.4732819,1.4700323,9.3588867,6.4427638,-32.4351158,-75.1984711,-58.6335869
8430,17.6643295,13.4529505,17.3195667,-174.9541931,250.1297760,132.5648804,1.1180865,9.7299862,6.7420373,-35.0610695,-104.9694672,-66.7328262
8440,16.3882275,16.6060982,19.6126022,-52.3053436,180.9770966,81.1603088,0.8164186,10.1537571,6.8761120,-33.4961815,-114.6183243,-67.5267181
8450,17.8630466,14.1664190,19.6126022,102.7786255,42.2061081,-9.8702288,0.2298422,10.6014709,6.9024482,-27.5038166,-101.4503784,-59.7404594
8460,19.6126022,5.5952206,16.1488075,237.9694672,-58.3282433,-123.3511429,-0.3016679,10.5751352,6.8569584,-18.6412220,-77.8167953,-45.2137413
8470,19.6126022,-0.5171449,9.3876171,250.1297760,-133.1984711,-250.1374054,-0.3687052,10.3644457,6.6151457,-6.9923663,-50.8931313,-28.7633591
8480,19.4503956,-2.6383967,3.1483591,250.1297760,-166.7022858,-250.1374054,-0.2944853,10.0196829,6.3039007,5.4961834,-26.3587780,-13.9312973
8490,16.4624462,-2.8778157,-2.2577207,174.8625946,-137.2061005,-250.1374054,0.0933734,9.7730818,6.0046272,15.7175570,-8.1297712,-3.6030533
8500,14.6141329,-2.9520357,-4.1634955,58.7862587,-38.8931313,-250.1374054,0.4333483,9.6868906,5.6790175,24.5954189,6.7557254,3.4580152
8510,13.4481621,-3.5601597,-2.7772598,-44.7709923,63.0000000,-250.1374054,0.6655847,9.4235296,5.4802995,31.7099228,16.5114498,7.1221375
8520,12.8113079,-4.0653338,-1.0295014,-124.5954208,142.1221313,-250.1374054,1.0031654,9.2296000,5.1139889,36.2213745,15.5343513,5.6412215
8530,11.1377697,-4.3119354,1.1109039,-171.0152740,218.2595367,-250.1374054,0.9864060,9.1960821,4.7716198,38.8320618,10.7938929,3.1526718
8540,8.8273764,-4.1060348,1.4413021,-186.6717529,250.1297760,-250.1374054,0.8643024,9.1601686,4.5585365,41.0305328,9.5572519,2.0839694
8550,5.3270717,-2.4755919,0.5793939,-186.6030579,250.1297760,-250.1374054,0.7398046,9.1984758,4.2305326,43.4732819,11.7862597,3.9770992
8560,0.1628049,-0.5099624,-0.8355721,-178.3740387,250.1297760,-250.1374054,0.5841822,9.2559366,4.0437860,46.1526718,19.3740463,7.8320613
8570,-4.9870968,0.8858501,-1.6998745,-161.6793823,250.1297760,-250.1374054,0.5219333,9.2319946,3.7062054,47.8854980,27.7328243,11.2671757
8580,-8.1115141,2.8969693,-1.5394639,-142.1450348,250.1297760,-250.1374054,0.5602403,9.1122847,3.4643922,48.5038185,34.2213745,16.3664131
8590,-8.0995426,5.3390427,-0.1436514,-117.8244247,250.1297760,-175.0992432,0.5027798,9.0069408,3.3542595,47.9694672,37.6183205,20.8396950
8600,-5.5257893,7.7428088,1.5634058,-89.5801544,202.9541931,-112.8702316,0.5578461,8.7435799,3.2800395,46.7328262,37.7786255,24.0763359
8610,-2.6240315,9.5695753,2.2098370,-59.6564903,175.6106873,-78.8320618,0.8499373,8.6310530,3.0789278,44.4427490,36.0305328,25.7557259
8620,-0.7541697,11.0443964,1.8626794,-29.4274807,178.5801544,-70.9160309,1.1947005,8.3844519,2.9879484,41.5343513,31.1526718,25.8015270
8630,-1.2306134,12.2151546,0.3136388,-6.5267177,185.1450348,-78.5190811,1.4149660,8.2120695,2.8538737,38.1832047,28.2519093,24.8167934
8640,-3.0789278,13.1393118,-1.4101776,3.7633588,176.3816833,-83.2519073,1.7094513,8.0923605,2.9304879,34.7328262,27.3587780,21.7709923
8650,-4.6758518,13.8408089,-2.5953014,1.3969465,145.6412201,-76.8167953,1.7286048,7.9941988,2.8730273,31.3435116,26.7099228,19.6870232
8660,-4.9487896,14.0921993,-2.8586621,-8.0152674,112.0839691,-61.1755714,1.8554969,7.9654684,2.8323262,28.2748089,26.7022896,17.2442741
8670,-5.4779053,14.4489336,-2.7892308,-14.7328243,98.4427490,-42.1068687,1.9081690,7.8289995,2.7676830,25.7022896,25.7328243,14.8473282
8680,-6.0429344,15.2892942,-2.3391230,-16.0152664,97.4580154,-19.2977104,1.9847831,7.8888540,2.7796540,23.1526718,24.1832066,11.8320608
8690,-5.5856438,16.6132812,-2.3486998,2.7938931,106.3816757,18.6641216,2.3439114,8.1617918,2.8538737,17.5954189,19.5725193,3.7862597
8700,-5.7939386,18.0785236,-3.1675127,14.5648851,113.8473282,26.5725193,2.3391230,8.3245964,2.7126167,13.7938929,16.7862587,-1.2213740
8710,-6.7755561,19.6126022,-4.2137733,20.4351139,113.6564865,32.2213745,2.2864509,8.5664101,2.7197993,9.5496187,13.9389315,-6.3740458
8720,-7.4579000,19.6126022,-4.2425036,18.5725193,94.8320618,45.2900772,2.2050486,8.7842808,2.8059900,5.4045801,10.7938929,-11.0916033
8730,-6.8617468,19.6126022,-2.2816625,13.9618320,44.6335869,71.3053436,1.8219782,9.0596132,2.7700772,1.5725191,7.4580154,-14.8625956
8740,-3.7540891,18.6627064,1.4604555,15.7557249,-13.4656487,104.2213745,1.5394639,9.2918491,2.9640064,-3.2290077,4.0458016,-19.0000000
8750,-0.0430954,17.8438931,4.9224534,33.5954208,-50.1450386,125.2290039,1.1492109,9.4139528,3.3207407,-5.0763359,0.1679389,-20.6030540
8760,4.4244623,17.0633888,8.0947542,67.3206100,-57.6412201,126.2061081,0.9002152,9.8568783,3.2321558,-8.0763359,-1.0763359,-20.9312973
8770,6.9120250,16.0745888,8.8656836,107.1603088,-47.2137413,103.4809189,0.5434810,9.9550400,3.4260850,-8.3435116,-2.7786260,-19.5496178
8780,6.9479380,15.1863441,7.8720951,141.0763397,-36.2900772,67.5954208,0.4525018,10.0986910,3.7660601,-6.5725193,-1.6259542,-17.7404575
8790,5.7292953,14.2047262,6.1315193,163.9847260,-24.0000000,29.1984730,0.3950413,10.0412302,3.8929520,-4.7480917,-1.0381680,-16.3282452
8800,4.1491303,12.8735571,3.9456241,172.4198456,-15.2824430,-6.0229006,0.2226596,10.0771437,3.8714044,-1.6946565,0.8320611,-15.2137403
