timestamp,rxacclX,rxacclY,rxacclZ,rxgyroX,rxgyroY,rxgyroZ,txacclX,txacclY,txacclZ,txgyroX,txgyroY,txgyroZ
0,4.0820932,8.4610653,-1.5538290,21.6106873,-82.4885483,5.7633586,-3.0071020,4.2448978,9.8425131,-3.6488550,-0.6717557,-6.2213740
10,3.6176202,9.3636751,-2.3678534,11.7328243,-79.7862625,16.3816795,-2.6862805,4.0533628,8.9853926,-6.0687022,-3.9007633,-8.6870232
20,2.9616125,9.4618368,-2.6551561,11.3664122,-83.9389343,22.7862587,-2.9280937,3.9887197,9.1481981,-10.1450386,-7.2442746,-9.8015270
30,2.4085546,9.0332766,-3.1723011,9.9236641,-89.7938919,33.5954208,-2.9472473,4.0318151,9.3397331,-12.1603050,-9.9770994,-8.8625956
40,1.3598996,9.1481981,-3.2369442,7.1068702,-98.5801544,47.4809151,-3.0071020,4.0820932,9.4546537,-12.9541988,-9.8549614,-6.6641221
50,-1.3886299,9.3086090,-1.9440818,12.9160309,-103.3664093,72.1526718,-2.9783716,3.8905578,9.5432396,-11.6259546,-6.3129773,-3.5725191
60,-0.9385223,9.5863342,-3.0501974,24.9923668,-135.5572510,103.8091583,-2.9448531,3.6822634,9.7084379,-8.9618320,-1.7633588,-2.1755726
70,-1.4676381,9.8209648,-2.4085546,39.2366409,-166.2900696,131.1374054,-2.8395088,3.6008608,9.8880024,-5.8015265,0.6335878,-1.2213740
80,-1.2904681,10.2184010,-3.2082138,56.9923668,-184.5572510,160.5496216,-2.6671271,3.6774750,10.0053177,-2.7099237,1.7022901,-1.6564885
90,-0.7421987,10.2950144,-4.1802549,66.0152664,-189.8015289,189.0076294,-2.6599445,3.6750808,10.0891142,1.1221374,3.2595420,-1.5190840
100,0.7733232,10.7858238,-5.0325861,70.2900772,-183.9465637,213.7328186,-2.6551561,3.6894460,9.7946291,3.7862597,3.9083970,-1.4122137
110,1.9033806,11.7865944,-6.3805151,68.6183243,-172.0686951,231.3740387,-2.7293761,3.7947903,9.6078825,4.5038166,4.4351144,-2.1221373
120,2.7293761,12.6293497,-6.8425937,61.8091621,-165.3129730,240.3053436,-2.6958573,3.8642218,9.4570484,3.7557251,5.2137403,-1.3282443
130,3.3015873,12.4354200,-6.8641410,55.5877876,-168.8549652,247.0992432,-2.8107784,3.9839313,9.5001440,2.6946564,5.7251906,0.1755725
140,4.0006905,13.0698805,-6.3278427,62.0152664,-187.2595367,250.1297760,-2.7652888,3.9552009,9.3397331,2.3129771,5.6641221,-0.1526718
150,3.9743545,12.8472204,-7.4579000,73.5267181,-216.9541931,250.1297760,-2.7724714,3.9240766,9.3612804,1.0076336,4.5801525,0.4885496
160,3.7493007,11.9877062,-9.2511482,75.4656525,-243.4045868,250.1297760,-2.8634505,3.9216824,9.2942438,-1.7480916,0.5496183,-0.5496183
170,4.3286943,10.7738523,-9.3852224,69.8091583,-250.1374054,250.1297760,-2.9496415,3.9384418,9.3900108,-4.4961834,-3.1221373,-0.3435115
180,5.5114241,9.5959110,-8.8417416,67.2519073,-250.1374054,250.1297760,-2.9185169,3.8761928,9.5743637,-5.1145039,-5.1450381,-0.0229008
190,6.8449879,8.1426382,-8.3509331,62.3587799,-235.3969421,250.1297760,-2.8514795,3.9073172,9.8975792,-3.1984732,-3.9618320,0.5572519
200,8.0205345,6.9000540,-7.8050575,51.1603050,-196.0076294,250.1297760,-2.8251436,3.9025288,9.8329363,-0.9923664,-0.7022901,1.4885496
210,8.9782104,5.2480631,-6.7564025,39.0687027,-150.0458069,246.0381622,-2.8658447,3.8881636,9.7419567,1.1297710,3.2900763,2.4351146
220,10.5104914,2.5138988,-6.2009506,26.7022896,-112.3435135,203.6946564,-2.9233053,3.9168940,9.7922344,4.0305343,7.0610685,3.7099237
230,11.7530756,-1.2689204,-5.3390427,18.3358784,-68.0305328,145.7786255,-2.8083842,3.8618276,9.7012558,6.1984735,9.5343513,4.5419846
240,12.1098099,-6.0477223,-5.0086441,12.5954199,-19.5648861,77.6335907,-2.8802099,3.9528067,9.6653433,7.4885497,11.5267172,5.6488547
250,11.9422169,-11.6573086,-4.3095412,13.8396950,27.4427490,8.0152674,-2.8251436,3.8929520,9.6342182,8.6412210,13.9923668,5.7251906
260,12.1433287,-18.7608681,-2.1787124,35.0076332,57.8396950,-53.6870232,-2.7509236,3.8809812,9.6844959,10.1374044,15.5343513,5.9694657
270,11.6908274,-19.6131992,0.2968795,83.8244247,67.8244247,-91.0687027,-2.6743097,3.9288650,9.7515335,11.5648851,16.0763359,5.7328243
280,9.9526453,-19.6131992,0.2585725,147.5038147,75.3664093,-90.1297684,-2.7221935,3.9767487,9.5288744,12.3816795,14.4427481,4.5725193
290,6.5385313,-19.6131992,-4.7620430,161.5114441,97.5648880,-37.7557259,-2.7485294,4.0078731,9.5288744,12.4809160,12.1755724,4.2977099
300,3.0813217,-19.6131992,-11.9182749,76.9618301,129.5419922,66.2290039,-2.7509236,4.0461802,9.4139528,12.2137403,8.1450386,2.4122138
310,5.0756817,-14.3076763,-12.0331964,-68.1679382,153.5267181,190.5648804,-2.7293761,4.0150557,9.2726955,11.4809160,3.2671757,0.5572519
320,15.5335016,-9.0931320,-1.4125718,-160.2824402,106.0534363,250.1297760,-2.6671271,4.0006905,9.2032642,9.9694653,-1.7633588,-1.5038168
330,19.6126022,-2.5689652,9.2607250,-142.4122162,40.0763359,202.9618378,-2.7269819,4.1539187,9.1314383,8.1832066,-6.2213740,-3.3740458
340,19.6126022,3.9240766,12.3779593,-61.9236641,35.7022896,65.4122162,-2.8203552,4.1180058,9.1601686,6.5190840,-9.1145039,-4.7938933
350,19.6126022,5.3462253,8.1641865,0.4351145,95.6030502,-122.9312973,-2.9687948,4.1180058,9.1386213,5.0839696,-11.4427481,-5.1755724
360,19.6126022,-1.0438666,2.5761478,13.3129768,162.5190887,-250.1374054,-2.9089401,4.1156116,9.1721401,4.0763359,-12.8702288,-4.7862597
370,19.6126022,-10.2662840,-0.3878587,12.0000000,241.7557220,-250.1374054,-2.9161227,4.1682839,9.1673517,3.6259542,-12.6259546,-3.5419848
380,19.6126022,-19.6131992,-3.1794837,18.7175579,250.1297760,-250.1374054,-2.9256995,4.1084290,9.3038206,4.2748094,-9.7633591,-2.2519083
390,14.2550039,-19.6131992,-6.0501165,27.9083977,250.1297760,-250.1374054,-3.0071020,4.1204000,9.4187412,5.9083967,-7.0229006,-0.7480916
400,7.9702568,-19.6131992,-7.7045016,31.3358784,250.1297760,-250.1374054,-2.9137285,4.0868812,9.3828287,7.7328243,-4.4885497,0.2671756
410,5.2432747,-19.6131992,-8.6430235,30.9389305,250.1297760,-250.1374054,-2.8945751,4.0437860,9.4378948,9.0458012,-3.6717558,0.5190840
420,7.1993275,-17.0059280,-10.7259684,26.0763359,250.1297760,-250.1374054,-2.9161227,4.0988522,9.6030941,10.1832066,-3.4656489,0.0076336
430,1.2066715,-12.1983957,-11.0827026,21.7099228,246.5190887,-250.1374054,-2.9568241,4.0533628,9.4498653,11.1679392,-4.3282442,-0.2442748
440,-2.3822186,-6.5600791,-11.4538021,1.7862595,229.6412201,-250.1374054,-2.9568241,4.0820932,9.5504217,11.8778629,-5.8473282,-0.6030535
450,-1.4772149,-0.9193687,-11.3412752,-21.0152664,222.5114441,-250.1374054,-2.9280937,4.0605454,9.4115591,12.0534353,-7.0076337,-1.0610687
460,-0.5482694,4.5250182,-10.5368280,-40.8015251,224.0610657,-250.1374054,-2.9256995,4.1108232,9.3732519,11.7480917,-7.7099237,-1.4656489
470,0.0909792,8.2815018,-10.2638903,-60.1297722,232.8854980,-237.1297760,-3.0118904,4.2137733,9.4019823,11.2977095,-8.3282442,-1.0381680
480,-0.2059003,13.2925396,-9.8209648,-82.6564865,250.1297760,-217.7404633,-3.0214672,4.1874375,9.3588867,10.9618320,-7.1832061,-0.6030535
490,-1.4053892,17.7361546,-8.9279327,-98.6030502,250.1297760,-196.3740387,-2.8634505,4.1874375,9.5264797,11.1374044,-4.8320613,-0.1450382
500,-1.9249283,19.2444954,-7.6063399,-103.2748108,250.1297760,-173.1374054,-2.9472473,4.1946201,9.7084379,12.7251911,-1.7328244,0.4351145
510,-2.6288199,19.6126022,-5.7580256,-95.2290039,221.0610657,-145.9389343,-2.8466914,4.1778607,9.9167328,15.3129768,0.3511450,1.3587786
520,-2.9065459,19.6126022,-4.7644372,-78.6717529,168.7404633,-114.1755753,-2.8730273,4.2544746,9.6533718,17.4427490,0.2671756,0.6641222
530,-1.7070571,19.6126022,-4.4172797,-65.2290039,124.0000000,-81.8396912,-2.8730273,4.2927818,9.7682934,19.2213745,-0.6106870,0.1526718
540,0.2226596,19.6126022,-3.2034254,-54.1908379,80.6946564,-56.8931313,-2.8419030,4.3885493,9.5887289,19.8778629,-2.5114503,-0.8778626
550,3.1962428,19.6126022,-1.1492109,-38.0458031,36.5419846,-47.2366409,-2.9161227,4.5010762,9.4187412,18.9694653,-4.5267177,-1.7633588
560,4.5154414,19.5246143,0.1819584,-18.1068707,5.2061067,-50.9465637,-2.9975252,4.5441718,9.3301563,16.2290077,-7.0381680,-3.1603053
570,4.8362627,17.3842087,1.2952565,-1.0839695,-19.7557259,-56.4503822,-3.1052637,4.6255741,9.5097208,12.9618320,-8.1526718,-3.4122138
580,5.7652082,14.9684725,4.3263001,21.8396950,-45.7938919,-65.0381699,-3.4332676,4.8266859,9.8903971,10.0687027,-5.7099237,-2.7175572
590,5.8346395,12.8448267,6.0477223,56.7099228,-64.0839691,-78.3053436,-3.7277529,4.7620430,10.5464048,9.3511448,-1.3587786,-1.3587786
600,4.9631548,11.2119894,5.8537931,89.7633591,-76.1374054,-87.8931274,-3.8785870,4.7381010,11.4202833,11.1374044,4.2595420,0.1679389
610,4.4172797,9.3971939,5.0230093,111.0687027,-85.0457993,-95.4274826,-4.2113791,4.8266859,12.2654324,16.0381680,9.6183205,0.7786260
620,3.9049230,7.5177550,4.7476778,125.9694672,-89.7633591,-103.5038147,-4.5417776,4.9535780,12.7993364,22.6488552,16.5877857,2.6641221
630,3.0094962,6.2201042,4.0485744,134.4732819,-84.7557220,-106.1221390,-5.1738434,4.8338685,13.1081877,26.6335869,21.9007626,3.8931298
640,2.4348907,5.0948353,3.1962428,134.1068726,-72.1984711,-104.9542007,-5.5952206,4.9559722,13.7977142,29.5114498,21.3206100,5.3053436
650,1.4700323,3.8402798,2.5234756,129.2977142,-61.5267181,-99.1984711,-5.9639258,5.1522956,14.7098999,36.1145020,16.7175579,6.8244276
660,1.0869620,3.0837159,2.8562679,126.1068726,-57.2290077,-90.3206100,-6.2057390,5.1929970,15.3659077,49.0228996,9.9465647,10.9465647
670,1.2449785,2.2936335,2.9927368,126.4274826,-46.5343513,-84.1526718,-6.0644817,5.1307478,15.0881815,64.7709961,7.1679387,14.5267172
680,2.0829449,0.3256098,3.1794837,131.3664093,-31.1603050,-79.9465637,-5.9064655,5.3055239,14.4441452,79.0687027,4.7786260,18.7022896
690,0.5291159,0.9576758,2.7557120,137.9160309,-20.8396950,-74.3053436,-5.5880380,5.4515696,13.6875811,92.9694672,3.5114503,22.6412220
700,0.5147507,1.3407460,2.2074428,144.1908417,-14.6870232,-68.0534363,-5.1451130,5.5808558,12.4162664,105.3129807,6.6488547,26.8167934
710,0.8188128,0.8786675,0.8954269,145.8091583,-17.7633591,-64.6641235,-4.7309184,5.7388721,11.1353750,115.9618301,17.1603050,31.0076332
720,0.5626345,1.7166338,-0.0263361,140.8625946,-13.9541988,-60.1755714,-4.6758518,5.7652082,10.3883877,122.0152664,23.4885502,35.7022896
730,1.6783268,1.2832855,-1.0941446,128.5801544,-2.4045801,-58.1526718,-4.3574247,5.7460546,9.7395630,128.0763397,27.2671757,40.1755714
740,2.1188576,2.1595588,-2.5091105,106.2671738,19.9618320,-63.2061081,-3.9982965,5.7508430,8.9303265,133.7786255,32.4045792,44.7786255
750,1.4796091,2.4085546,-3.8570392,75.3206100,40.3893127,-69.2061081,-3.6248028,5.7987270,8.3365679,140.0000000,36.6412201,48.9923668
760,0.2657550,2.1643472,-4.0964580,41.0687027,44.7099228,-72.8854980,-2.9424589,5.7029591,7.3621325,145.6106873,41.3282433,52.7480927
770,-0.5458752,1.8219782,-3.3853838,15.7328243,47.0152664,-67.4885483,-2.4253139,5.6694407,6.2703824,148.6335907,46.2671738,55.5496178
780,-0.7493813,1.8961980,-3.0310438,-0.3282443,40.2519073,-59.3969460,-1.8339491,5.7053533,5.1211715,148.4427490,52.3358765,56.6335869
790,-1.0199248,2.6264257,-2.7652888,-10.5343513,30.1221371,-49.6488533,-1.5610116,5.7987270,3.9815371,143.6335907,56.6335869,57.0381660
800,-0.7302278,3.6319854,-2.8347204,-13.3969469,31.2366409,-43.1297722,-1.5179161,5.9806852,2.8059900,132.2213745,58.1145020,57.9465637
810,-1.1204807,4.0605454,-3.5601597,-15.0610685,16.4045811,-32.7175560,-1.3048333,6.0309634,2.0925217,115.3816757,55.2900772,58.5496178
820,0.6488253,5.7173243,-3.7828193,-16.5954189,-7.9312978,-34.7022896,-1.0821736,6.0956063,1.9057748,96.0457993,46.4503822,59.3129768
830,2.7389526,9.5073261,-3.4428444,-15.3358774,-14.9541988,-51.7480927,-0.7661406,6.1889796,1.9057748,78.1679382,32.3816795,58.1297722
840,3.4596038,13.4170380,-4.0126615,-15.3053436,-2.6870229,-80.2213745,-0.3280039,6.1075773,2.0278785,62.0534363,18.3129768,55.8702278
850,2.0829449,16.1559906,-6.0788469,-22.9312973,24.8931293,-104.8167953,0.1963235,5.9423780,2.2577207,49.2900772,9.9160309,52.3282433
860,0.3519458,16.8838234,-8.4826136,-34.6183205,79.6946564,-119.4274826,0.5075682,5.7771792,2.5330524,39.7175560,6.5648856,45.9083977
870,-2.1954718,18.0713425,-9.9981356,-50.5954208,122.4122162,-121.3893127,0.8116302,5.8226686,2.8514795,34.4427490,4.4045801,40.2519073
880,-4.4699516,18.9835281,-9.0715837,-68.5725174,153.3893127,-105.3435135,1.0103480,5.8083038,2.9209111,33.3587799,6.2213740,33.8167953
890,-7.5129666,19.6126022,-8.1163025,-72.4809189,152.2824402,-63.1374054,0.9073978,5.9208307,2.8227494,33.5496178,10.8931293,27.2900772
900,-8.2288294,19.6126022,-8.2551651,-75.5648880,91.0839691,1.6870229,0.7421987,5.9902620,2.4731977,31.6488552,14.0305347,21.4885502
910,-5.2360926,17.6092644,-3.6918402,-67.7709961,18.2519093,64.6412201,0.4644727,6.2009506,2.0661855,25.9618320,14.6106873,16.3435116
920,-0.9337339,14.4537220,-1.5083394,-44.6793900,-48.2671738,91.0687027,0.1197095,6.3134775,1.9177457,17.7175579,12.4809160,11.2824430
930,4.2568688,10.6302013,2.1044924,32.5572510,-14.8854961,45.3282433,-0.4333483,6.5289545,2.0230901,-6.2061067,-0.4122137,1.9389313
940,2.7485294,9.0763721,1.8028246,69.1450348,16.4198475,15.2366409,-0.5769997,6.5409255,2.5138988,-20.4198475,-10.0992365,-2.5801528
950,0.5147507,7.7643566,1.0318956,93.2671738,26.1450386,-0.3816794,-0.8882443,6.7420373,3.2824337,-32.3664131,-19.1908398,-7.3587785
960,-1.2066715,6.1051831,0.3447633,107.5419846,23.7557259,-2.3511450,-1.0749911,6.6678176,4.2377152,-40.4809151,-26.0076332,-11.4045801
970,-2.4301023,4.4196739,-0.0670373,117.1755753,12.8931293,7.8167939,-1.3191984,6.6319046,5.0206151,-45.3664131,-30.6183205,-16.6870232
980,-3.1268115,3.6511390,-0.3327923,125.3282471,-10.3816795,25.8167934,-1.6424140,6.5505023,5.7125359,-47.7633591,-33.2442741,-21.2900772
990,-3.3997490,3.2225790,-0.4572902,129.9236603,-35.1450386,47.6183205,-2.1451938,6.5912037,6.5074067,-47.4885483,-33.5954208,-24.8167934
1000,-2.6336083,3.2608860,-0.6512195,132.4198456,-55.1908379,70.9923630,-2.6862805,6.6941538,7.2304521,-44.5190849,-31.9160309,-26.4274807
1010,-1.5634058,3.4596038,-0.6536137,131.6641235,-65.3664093,90.6564865,-3.0238612,6.9192076,7.7547798,-38.8625946,-28.6488552,-25.6717548
1020,-0.0622489,3.8905578,-1.0869620,127.6030502,-69.0687027,98.7175598,-3.4667864,7.0317345,8.1665802,-31.0610695,-23.5496178,-23.5419846
1030,1.1851238,3.7780309,-2.0422437,119.2061081,-67.4274826,90.1984711,-3.6631098,7.2639709,8.2791071,-22.0381680,-19.4198475,-19.2519093
1040,2.5186872,3.7756367,-4.8793583,90.8167953,-83.7480927,70.3435135,-3.5936785,7.3310080,8.1737623,-13.8473282,-17.2061062,-15.8854961
1050,2.7772598,3.7493007,-5.4324160,50.3816795,-76.7709961,47.2290077,-3.2656744,7.4339581,7.8218169,-7.5725193,-15.7251911,-13.4427481
1060,2.2816625,3.8235207,-6.0094156,7.8549619,-49.9923668,33.0000000,-3.1914546,7.6135225,7.5393028,-3.1603053,-16.3358784,-11.9694653
1070,0.5051740,3.2776453,-5.8322453,-27.0229015,-21.4503822,31.2824421,-2.9376705,7.7140784,7.2687593,-0.5496183,-19.1297703,-12.0076332
1080,-1.3766589,4.4124913,-6.0908179,-53.7328262,-22.2366409,44.1679382,-2.7221935,7.7643566,7.0748301,1.4351145,-22.3358784,-12.9465647
1090,-1.6759326,6.1410961,-5.8011212,-68.9389343,-45.6946564,61.6183205,-2.4779861,7.9511032,6.7971039,2.8015268,-25.6183205,-14.5877867
1100,-0.3136388,5.8370337,-3.3494711,-70.7786255,-60.8244286,70.3053436,-2.3678534,8.0348997,6.5744443,3.5572519,-27.8778629,-16.4580154
1110,0.0191535,6.3493905,-2.3056045,-43.2061081,-62.4427490,71.9236679,-2.2002602,8.0851774,6.2631998,3.4122138,-28.4045811,-18.0381680
1120,-1.7405758,7.8457589,-3.4524212,-12.2213745,-73.5190811,74.8549652,-2.2313845,8.0899658,5.8681583,1.6106870,-27.0076332,-20.1297703
1130,-4.0389977,8.8225880,-3.7373297,22.7175579,-81.5725174,88.3435135,-2.2577207,8.0396881,5.5928264,-1.4809160,-24.7328243,-21.1679382
1140,-5.7316895,10.2902260,-5.7652082,52.3435097,-93.2137375,113.5648880,-2.3606708,7.9630742,5.5593081,-4.8320613,-22.0687027,-22.5801525
1150,-6.5744443,11.0443964,-7.5536675,73.7251892,-103.1984711,139.2748108,-2.4516499,7.8912482,5.8035154,-8.0458012,-18.4885502,-21.8702297
1160,-6.6702118,11.2143831,-9.7108326,87.0457993,-111.1221390,160.8854980,-2.5665710,7.8002691,5.9280128,-9.7404585,-15.1526718,-20.7404575
1170,-6.4403696,12.1816359,-11.5112629,89.1297684,-117.0916061,177.7251892,-2.6886747,7.7739329,6.0189924,-10.8167934,-12.5343513,-18.9770985
1180,-5.7077475,12.8831339,-11.9470053,86.7480927,-123.6183243,183.7557220,-2.8275378,7.6877422,6.0812411,-12.9465647,-11.9618320,-16.8702297
1190,-5.3462253,12.6915979,-11.2024126,89.5267181,-135.4503784,178.3816833,-2.9951310,7.6614060,6.0453281,-15.9694653,-12.9083967,-14.8473282
1200,-5.9351954,11.8440552,-9.8305416,100.9847336,-144.7022858,173.9770966,-3.1052637,7.5440907,6.2703824,-19.5801525,-15.1679392,-12.1755724
1210,-6.0165982,11.3245163,-8.2958660,120.4885483,-147.6106873,174.1374054,-2.9807658,7.4770536,6.5528965,-22.7022896,-18.7709923,-9.1068707
1220,-6.0596933,10.0747490,-7.0197635,149.4045868,-139.9389343,177.2900696,-2.7126167,7.3693151,6.8306227,-24.3435116,-23.2061062,-8.0229006
1230,-6.2009506,9.2822723,-5.8729467,181.1832123,-119.9083939,186.9847260,-2.4995339,7.1873569,6.9144192,-25.5114498,-27.2137413,-7.9389315
1240,-5.4611464,9.1362267,-5.1211715,213.3664093,-88.2519073,203.3435059,-2.3606708,7.0580707,7.0245519,-26.0381680,-29.5954189,-8.5801525
1250,-2.4971397,10.3141680,-5.3893204,245.6335907,-36.6335869,220.1374054,-2.3343346,7.1490498,7.0269461,-26.4503822,-32.1221390,-9.3893127
1260,-0.8954269,12.6868095,-7.1777802,250.1297760,28.7557259,229.1984711,-2.2433555,7.1370788,7.0293403,-26.8931293,-34.3511467,-9.9312973
1270,-0.8643024,13.0148134,-9.5959110,250.1297760,72.1374054,234.1984711,-2.3079987,7.0939832,6.9814563,-27.9236641,-35.3282433,-11.0610685
1280,-0.6416427,11.4585905,-13.0172081,246.9313049,87.4351120,229.6183167,-2.3774302,7.0748301,7.1011658,-29.0305347,-34.6183205,-10.7022905
1290,-0.2178712,8.8585014,-14.4704809,201.4198456,72.1297684,207.0915985,-2.3917952,7.1011658,7.3788919,-28.9160309,-31.4961834,-10.3358774
1300,0.7805058,5.3174949,-13.7665892,149.6717529,26.8091602,170.8167877,-2.3319404,7.0293403,7.6925306,-26.9541988,-26.9160309,-9.4045801
1310,2.8083842,0.4213773,-11.0850973,107.4580154,-39.1526718,134.5343475,-2.3032103,7.0389171,7.7859039,-24.5038166,-22.9541988,-8.5877867
1320,7.6542239,-5.7245069,-4.9703374,94.4274826,-103.9542007,94.5343475,-2.3534882,7.0030041,7.7811155,-22.3893127,-20.3358784,-7.4351144
1330,13.7761660,-10.4745789,0.8140244,120.3282471,-138.5419922,41.1603050,-2.3534882,6.9527264,7.7882981,-21.0000000,-19.5648861,-7.9694657
1340,19.6126022,-15.1025467,5.9399838,180.5572510,-131.0152740,-22.1297703,-2.4755919,6.9527264,7.7308378,-19.9618320,-20.0076332,-7.1145039
1350,19.6126022,-19.6131992,8.2551651,250.1297760,-60.0839691,-61.3740463,-2.4253139,6.9000540,7.5752153,-20.0152664,-21.0152664,-7.0305343
1360,18.5406036,-19.6131992,2.8514795,250.1297760,30.9694653,-6.5267177,-2.4995339,6.9239960,7.6949248,-21.1603050,-21.7862587,-6.7022901
1370,11.8296900,-19.6131992,-7.0652533,250.1297760,158.1526642,177.4809113,-2.5569944,6.8593526,7.8625183,-22.0152664,-22.4580154,-6.3435116
1380,15.8375635,-11.5304165,-13.0100250,190.6335907,250.1297760,250.1297760,-2.4947455,6.8880830,8.0636301,-21.4885502,-22.0076332,-4.8396945
1390,19.6126022,-5.3438311,-16.3642845,41.6183205,250.1297760,250.1297760,-2.4468615,6.8018923,8.0468712,-19.8854961,-20.0610695,-3.9236641
1400,19.6126022,5.6646523,-14.3364067,-91.6335907,250.1297760,250.1297760,-2.3582766,6.8018923,8.0851774,-18.7709923,-17.3358784,-2.7480917
1410,19.6126022,17.2788658,-9.2607250,-200.9389343,177.8015289,134.1603088,-2.3056045,6.7252784,8.1546097,-17.1984730,-13.3587790,-1.5801526
1420,19.6126022,19.6126022,-0.6679789,-250.1374054,57.3206100,-70.2900772,-2.1547706,6.6821828,8.2240410,-14.9236641,-9.2061071,0.2748092
1430,19.6126022,13.5750542,7.8816719,-250.1374054,-17.3511448,-230.6641235,-1.9153515,6.6678176,8.2264347,-13.1908398,-4.4732823,2.1297710
1440,19.6126022,2.6096666,9.6006994,-237.0458069,26.1221371,-250.1374054,-1.7262106,6.6127515,8.2934723,-12.3206110,-0.4045801,3.3816793
1450,19.6126022,-7.7882981,4.7979555,-189.3206177,116.8015289,-250.1374054,-1.3646880,6.5768385,8.3868456,-11.0992365,2.6488550,3.4351146
1460,15.6149035,-13.1273403,-1.5011568,-163.0763397,156.3511505,-250.1374054,-0.9073978,6.5026188,8.5520449,-9.1374044,4.7251906,2.6412213
1470,11.1281929,-13.8264437,-5.5186067,-160.6335907,117.9770966,-250.1374054,-0.7350162,6.5481081,8.6861191,-5.9465647,5.7633586,-1.6564885
1480,11.7339230,-12.4809093,-5.5904322,-157.1526642,55.8396950,-250.1374054,-0.9959828,6.5744443,8.6789370,-2.3358779,4.0305343,-6.7251906
1490,13.4409800,-12.3540173,-4.8889351,-148.2061005,8.1068707,-250.1374054,-1.2066715,6.5959921,8.5735922,0.8778626,0.5190840,-11.5496187
1500,12.8376436,-12.3085279,-3.8498566,-139.9389343,-17.7175579,-250.1374054,-1.5849534,6.8401995,8.3198080,3.6030533,-4.3893127,-13.9236641
1510,10.4147243,-10.9677820,-2.6790979,-127.4198456,-18.0534344,-250.1374054,-1.7980363,7.0844064,7.9343438,5.9236641,-8.5725193,-13.7328243
1520,6.6486640,-7.9223728,-3.3518653,-110.6488571,9.9465647,-250.1374054,-1.8028246,7.1825686,7.4602942,6.4198475,-11.3740454,-12.5190840
1530,3.1220231,-5.0684991,-5.4419928,-98.7480927,43.7175560,-242.9618378,-1.6639616,7.4602942,7.0844064,5.3129773,-13.0839691,-10.7786255
1540,1.2928623,-2.5569944,-7.7212610,-95.2137375,64.1526718,-204.0000000,-1.3646880,7.7092900,6.8665352,2.9465649,-12.5343513,-9.0381680
1550,-0.0095768,0.5267217,-9.5480280,-94.5190811,74.9923630,-169.5725250,-1.1587877,7.8912482,6.6702118,-0.2595420,-10.6717558,-7.8854961
1560,-0.4668669,4.5393834,-11.1784706,-90.5343475,76.6717529,-145.3435059,-1.0510491,7.9894104,6.6175399,-4.9007635,-8.7328243,-6.6106873
1570,0.0981618,7.2591825,-13.0291786,-91.6946564,66.2213745,-134.4732819,-1.1707586,7.9247670,6.8665352,-9.8091602,-8.3358774,-4.4961834
1580,0.2944853,9.0883436,-14.7122946,-102.9847336,52.9618340,-132.6259613,-1.1563935,7.8170285,7.0149751,-14.0839691,-9.1297712,-3.3435113
1590,-1.0295014,10.6110477,-15.1240950,-123.1526718,40.7175560,-130.1679382,-1.1420283,7.5512733,7.3381906,-16.8931293,-8.8396950,-4.1679387
1600,-2.8466914,12.8256731,-13.4792862,-137.5114441,31.5877857,-116.9847336,-1.0055596,7.3573442,7.5249376,-18.2671757,-7.1526718,-5.4198475
1610,-3.5936785,14.6787758,-11.7267399,-132.6488495,21.1374054,-96.9694672,-1.2641320,7.2304521,7.8744893,-18.3816795,-3.3358779,-8.1908398
1620,-3.1794837,16.3068237,-10.5847120,-115.0000000,10.5267172,-77.3587799,-1.6783268,7.0532823,8.0253229,-17.8854961,0.2595420,-10.3816795
1630,-1.1923064,18.0210648,-9.8736372,-94.8625946,1.5190840,-65.8015289,-2.2672975,6.8162575,8.3605099,-15.5114508,3.6259542,-12.3816795
1640,1.7022687,19.5796814,-9.7299862,-77.0610657,4.5801525,-69.5114517,-2.9161227,6.5289545,8.5496502,-11.8625956,6.6488547,-13.2977095
1650,3.2896163,19.6126022,-10.2351599,-66.3511429,10.5038166,-89.1297684,-3.5721307,6.2440462,8.5233145,-7.5038166,9.0687027,-12.8396950
1660,3.3063757,19.3235035,-10.3692341,-66.8091583,12.2824430,-113.7099228,-4.2688398,5.8657641,8.5065556,-2.8931298,10.6106873,-10.9770994
1670,2.1715298,18.4496231,-9.2966375,-73.8931274,4.6259542,-133.6030579,-4.7500720,5.6694407,8.2719250,1.5190840,10.9465647,-9.5190840
1680,1.3838415,16.5893383,-7.2519999,-74.0000000,-11.5038166,-144.0839691,-5.1187773,5.4922705,7.8002691,5.0916033,10.0687027,-5.5725193
1690,1.0127422,14.7314482,-5.0756817,-62.1832047,-41.4122124,-147.6259613,-5.3677726,5.1690550,7.3980455,5.6183205,9.7099237,-3.2977099
1700,0.7781116,13.0100250,-2.8323262,-43.6946564,-83.2213745,-146.1068726,-5.5042415,4.9655490,7.2400289,4.5190840,9.9389315,-0.3893130
1710,0.3710994,11.5663290,-1.0582317,-19.8244267,-116.0381699,-140.0076294,-5.5210009,4.9248476,7.3022780,3.5877862,9.0916033,3.0839694
1720,0.6775556,10.1776991,0.3687052,6.8320613,-131.7022858,-134.9923706,-5.3701668,5.1259594,7.2208753,4.1068702,4.1297708,6.8702292
1730,0.4716553,8.4874020,1.5155219,33.3435097,-131.6335907,-133.1908417,-4.9176650,5.4132624,7.3429790,6.2595420,-3.0076337,12.1374044
1740,-0.0885850,7.0221577,1.8770446,53.7251892,-121.6335907,-131.4503784,-4.2041965,5.5928264,6.7348547,7.9160304,-8.8244276,18.4274807
1750,-0.9050036,6.0357518,1.7477583,68.1603088,-100.6793900,-124.9389343,-3.1459649,5.7532372,6.1410961,6.7099237,-13.8396950,23.4809170
1760,-1.4365137,5.1139889,1.1396341,72.3358765,-75.7557220,-110.8854980,-2.2074428,5.7963328,5.4922705,1.5954199,-19.1068707,25.1297703
1770,-1.7333932,4.4124913,0.6847382,66.7938919,-50.6106873,-93.9160309,-1.5370697,5.8633699,5.2408805,-6.6488547,-23.3206100,25.1908398
1780,-1.8770446,3.5026991,0.4501076,56.2290077,-26.9923668,-79.6488571,-0.9169745,5.8130918,5.2265158,-15.6717558,-25.2290077,24.2671757
1790,-2.1739240,2.9041519,0.3567342,45.2290077,-16.7099228,-68.0687027,-0.4477134,5.7412663,5.6933827,-23.3053436,-20.7175579,21.9541988
1800,-3.4667864,1.8866212,-0.3184272,35.5343513,-26.8549614,-54.4503822,-0.0670373,5.6431046,6.2895355,-27.8702297,-9.3587790,18.1221371
1810,-2.8275378,2.5402350,-0.5003856,29.9160309,-34.5267181,-38.0763359,-0.2442073,5.7412663,7.4291697,-28.7251911,5.1984735,14.3206110
1820,-2.2457497,2.4851687,-0.4596844,18.6259537,-38.9236641,-28.1450386,-0.9313397,5.8298512,8.5304966,-24.7328243,17.3206100,12.5038166
1830,-2.5019281,1.7717001,-0.2298422,1.0610687,-51.6412201,-19.7328243,-1.3575054,5.9471664,9.2846670,-18.5343513,27.2977104,11.1755724
1840,-2.3654592,1.1899122,-0.2322364,-15.8244276,-59.0228996,-12.3893127,-1.9009864,6.1506729,9.7180147,-14.0229006,33.5190849,9.6564884
1850,-2.4061604,0.9265513,0.2011119,-25.9312973,-62.5038185,-5.2366414,-2.2265961,6.6558466,10.2662840,-10.1755724,31.9312973,9.6259546
1860,-2.8802099,1.3742647,0.2370248,-27.0687027,-56.7175560,4.4427481,-2.3582766,7.0915890,10.6517487,-5.9541984,23.7633591,8.0305347
1870,-3.8283088,1.9943599,0.5075682,-21.5343513,-36.7099228,18.9236641,-2.1380112,7.5752153,10.8791971,-2.2748091,9.6793890,5.2366414
1880,-3.8929520,3.2249732,0.0598547,-13.8702288,-21.8320618,34.4809151,-1.8387375,8.1570034,10.9318695,0.1755725,-6.3282442,0.6641222
1890,-3.9408360,5.2504573,-1.0438666,-7.2366414,8.9389315,52.0305328,-1.4628497,8.6502066,10.8384953,0.9847328,-20.2061062,-4.1603055
1900,-3.7062054,7.5416965,-2.9544299,-9.1374044,36.8778610,67.0229034,-1.0845678,9.1769285,10.9222927,2.6870229,-30.3893127,-7.8931298
1910,-2.5905130,10.0388365,-4.5058646,-21.3740463,65.5801544,75.3664093,-0.6991033,9.7658987,11.2048063,6.4427481,-33.8931313,-11.2748089
1920,-1.5562232,12.3851423,-5.7532372,-39.3740463,71.9083939,77.2824402,-0.5913648,10.4099360,11.5735121,11.7404585,-32.5496178,-14.1297712
1930,0.9145803,14.3364067,-6.5265603,-49.6106873,69.7480927,62.4732819,-0.5650287,10.8384953,11.9613705,19.8549614,-27.9694653,-14.6183205
1940,2.1691356,14.4824524,-6.8425937,-51.1832047,64.7633591,30.0305347,-0.6392486,11.0803089,12.4162664,31.4656487,-19.5725193,-13.8091602
1950,1.8315549,13.9796724,-7.0891948,-48.5038185,59.9312973,-9.5343513,-0.8427547,10.8911676,12.6317434,45.0687027,-9.7557249,-13.0916033
1960,0.4070122,13.3667593,-6.4499464,-38.9007645,53.9618340,-41.4274826,-1.1755470,10.7546988,12.5359764,58.7709923,-1.1832061,-13.8320608
1970,-0.9983770,12.9405937,-5.4348102,-24.3511448,37.5038185,-59.0916023,-1.8531027,10.5703468,12.5072460,71.1068726,4.5419846,-14.3893127
1980,-1.8243724,12.2606440,-4.4005203,-5.4274807,16.0839691,-65.0457993,-2.6695213,10.2255831,12.4210548,84.0687027,7.5954199,-14.1374044
1990,-1.9776005,10.9558105,-3.8450682,15.9389315,-1.4198474,-65.3816757,-3.3446827,9.8856087,12.0451670,97.1450348,8.0229006,-12.1908398
2000,-1.9416877,9.9095497,-3.7181761,36.8625946,-12.2213745,-62.2977104,-3.8761928,9.5288744,11.5352049,109.7175598,6.9465647,-9.1374044
2010,-2.1332228,9.5145092,-3.2872221,52.9160309,-19.9847336,-54.8625946,-4.2305326,9.1362267,10.7044210,121.4580154,4.5801525,-5.0229006
2020,-1.9560528,9.0763721,-2.8921809,62.0458031,-28.9312973,-46.3435097,-4.2879934,8.8177996,9.7802639,131.1221313,3.5801528,-0.1145038
2030,-1.6041069,8.2743187,-2.3271523,64.6106873,-36.1679382,-40.1832047,-4.3263001,8.4107876,8.6310530,137.9007568,5.5419846,4.6793895
2040,-1.3335636,7.2855186,-2.2768741,62.7251892,-36.5496178,-35.7709923,-4.1634955,7.9654684,7.3812861,142.1603088,9.8473282,9.5572519
2050,-1.1947005,6.2751703,-2.0111191,58.4198456,-30.3740463,-31.5801525,-4.0533628,7.6614060,6.3206601,143.8015289,15.7862597,14.6717558
2060,-1.1037214,6.0405402,-1.4915800,52.1221390,-19.1832066,-25.2366409,-3.9312592,7.3812861,5.3103123,143.2900696,22.7557259,19.8396950
2070,-0.0023942,6.7564025,-1.1204807,48.2442741,-2.6412213,-18.8625946,-3.9025288,7.0748301,4.4412212,139.4656525,28.7251911,26.5496178
2080,1.0318956,7.5776095,-1.3311694,46.5725174,18.2824421,-19.7862587,-3.8259149,6.7396431,3.7636659,132.7862549,31.7633591,32.8473282
2090,1.2210367,7.3142486,-2.1691356,42.9083977,35.5267181,-29.1374054,-3.5577655,6.4116392,3.2872221,124.5419846,31.3816795,38.8854980
2100,0.2346306,6.3589673,-2.9735832,33.9618340,41.8931313,-42.1679382,-3.1052637,5.9567432,3.0190730,115.0687027,28.5038166,43.7480927
2110,-1.5011568,5.4802995,-2.9352763,21.0992374,36.8244286,-49.3587799,-2.7868366,5.5832496,2.6719155,105.7709961,25.0687027,47.1603050
2120,-3.5314295,4.9272418,-2.5378408,10.1908398,23.5496178,-41.0839691,-2.2960277,5.2696109,2.4660151,96.4427490,21.6946564,49.4045792
2130,-4.2903876,4.5178356,-2.1260402,5.6335878,13.0305347,-16.7251911,-1.9440818,4.8506279,2.3008161,88.2671738,18.7480907,50.4580154
2140,-4.0653338,3.1411765,-2.0230901,21.5190830,23.1984730,64.2824402,-0.9624642,4.1850433,1.9129574,61.6793900,13.3358774,50.4656487
2150,-4.3215117,3.4643922,-2.3439114,28.8167934,33.3893127,86.3282471,-0.6799498,4.0629396,1.8602852,54.1297722,10.9770994,49.4961815
2160,-4.1419477,3.9935081,-3.1459649,34.2290077,45.7938919,108.1450348,-0.3447633,3.9408360,1.6304430,46.1374054,8.0000000,46.9541969
2170,-3.9456241,4.5657191,-4.2736282,35.9007645,58.4885483,125.4885483,-0.0454896,3.8666160,1.2521610,36.6488533,5.2290077,43.6259537
2180,-3.9025288,4.9990678,-5.4683285,34.0916023,71.6030502,136.1755676,0.0000000,3.8330972,0.8930327,25.0534344,0.6488550,38.6793900
2190,-4.3502421,5.4060798,-6.5983863,24.9465656,81.6106873,141.4274750,0.0957676,3.9144998,0.7972651,12.3893127,-5.5038166,33.6259537
2200,-5.3821378,6.1291251,-7.2112985,15.8167934,86.6564865,145.5038147,0.0861908,3.9863255,1.0702027,0.6106870,-10.2213745,27.9236641
2210,-6.0788469,6.9742737,-7.4291697,8.4351149,78.0457993,155.7862549,-0.0383070,4.2736282,1.3263810,-8.3358774,-11.9847326,23.8549614
2220,-6.3446021,8.5424681,-7.2591825,8.9618320,62.1374054,167.2748108,-0.1963235,4.6638808,1.7022687,-14.2977095,-11.8473282,20.9083977
2230,-6.1722202,9.6078825,-7.4219875,16.5801525,47.1450386,172.5419922,-0.1460456,5.3845320,1.9632354,-19.8396950,-11.7022905,19.6335869
2240,-6.1051831,10.4506369,-7.9175844,24.3816795,39.0534363,172.0458069,-0.0981618,6.2057390,2.1978660,-25.5648861,-13.0534353,18.3435116
2250,-6.9072366,11.5639353,-8.1354561,26.7099228,30.5648861,175.6793823,0.1484398,7.2663651,2.5641768,-31.7251911,-13.5190840,16.5419846
2260,-7.0437055,11.7578640,-7.7308378,27.4503822,26.1374054,190.9465637,0.3687052,8.4179697,2.8131726,-37.4351158,-12.6946564,13.8244276
2270,-6.5672617,11.4849272,-7.1203194,31.7404575,25.8320618,210.0458069,0.3710994,9.6294298,3.4763632,-40.2671738,-9.3587790,10.8702288
2280,-6.7659793,10.9558105,-6.7396431,40.9389305,25.2900772,233.7175598,0.4764437,10.8672256,4.3933377,-38.8931313,-4.0076337,9.9160309
2290,-5.9519548,10.7379398,-6.1554613,55.7022896,27.8549614,250.1297760,0.5961532,11.8440552,5.0996237,-33.1526718,5.5114503,9.6335878
2300,-3.3853838,11.1234045,-5.9423780,76.0839691,32.0458031,250.1297760,1.0151364,12.6461086,5.8490047,-24.9618320,18.6717548,6.1603055
2310,-1.0773853,11.3245163,-6.4307928,98.7251892,45.0228996,250.1297760,1.2641320,13.2494440,6.6295104,-13.5114508,33.7251892,-0.7709923
2320,0.2298422,11.2263546,-7.5728211,115.9312973,56.4427490,250.1297760,0.5386927,13.6037846,7.5632443,3.5496182,45.6870232,-12.9236641
2330,0.9026094,11.3364868,-8.7268209,124.4122162,57.2366409,250.1297760,-0.6584021,14.0443153,7.9295554,25.0458012,51.7328262,-24.1832066
2340,1.2617378,11.0922794,-9.5408449,123.3969498,46.5343513,250.1297760,-1.8291607,14.2837343,7.3980455,46.6946564,51.3282433,-32.1832047
2350,1.5945302,10.0101061,-10.4434547,112.4427490,27.8778629,250.1297760,-2.8706331,14.2406387,6.1817970,60.7404594,44.4198456,-35.4503822
2360,3.5457945,9.4690189,-10.9175043,94.8015289,2.0839694,250.1297760,-4.0749106,13.9222116,4.9511838,66.4427490,33.2671738,-34.0687027
2370,5.4395986,8.9710283,-11.4442253,72.8931274,-33.1603050,225.8702240,-5.1882086,13.5223818,3.8211265,65.7404556,20.6870232,-26.5419846
2380,7.1298962,6.0644817,-10.7882175,46.6488533,-81.4198456,172.7480927,-5.4779053,12.8639803,3.1914546,61.0000000,10.5954199,-14.7709923
2390,9.3636751,2.6527619,-10.0148945,21.2977104,-143.5496216,107.0610657,-5.2073622,12.1002331,2.8826041,55.2671738,7.4427481,-1.8931298
2400,12.1026278,-2.5881188,-7.9989872,3.3893130,-193.6641235,39.9465637,-4.4938936,11.1066446,2.9352763,50.5725174,11.6946564,9.5038166
2410,15.1408539,-8.5113440,-6.4331870,-7.1526718,-209.1984711,-13.6259546,-3.8977404,10.0795374,3.2465210,48.6030540,21.1297703,17.7404575
2420,19.6126022,-14.0419216,-5.0110383,-16.9465656,-188.3587799,-54.8778610,-3.3686244,9.1553802,3.5074875,48.2977104,32.1221390,26.0152664
2430,19.6126022,-18.9476147,-3.7876077,-16.2671757,-119.4580154,-82.4732819,-2.9496415,8.3557215,3.7780309,49.3435097,42.8244286,33.7557259
2440,19.6126022,-19.6131992,-5.9112539,-6.5190840,-9.5038166,-62.7862587,-2.5929072,7.5057840,3.8833754,50.3206100,51.6335869,41.1068687
2450,17.8654423,-13.5439301,-5.7221127,-7.4427481,92.2442780,16.5954189,-2.0997043,6.8425937,3.9144998,50.4885483,56.7633591,47.6793900
2460,15.3754845,-3.9073172,-4.1802549,-22.4961834,112.7404556,118.4503784,-1.5322813,6.2129216,3.8785870,49.4427490,57.6793900,51.7099228
2470,16.6396160,3.1435707,-1.9560528,-52.6412201,78.0534363,191.6030579,-0.7924767,5.7316895,3.8378856,47.5725174,54.3664131,52.5801544
2480,19.6126022,6.1291251,0.3208214,-82.1297684,31.7938938,197.2824402,-0.1244979,5.3797436,3.7636659,44.9007645,48.2213745,51.1908379
2490,19.6126022,7.0796180,2.5689652,-92.7633591,8.1984730,126.6793900,0.4118006,5.1834202,3.6966286,41.9007645,40.1679382,47.3587799
2500,19.6126022,5.6909885,4.1970143,-56.5343513,31.0610695,-131.3893127,1.2521610,4.8458395,3.2058196,34.6412201,20.4198475,33.2366409
2510,19.6126022,2.0781565,1.5466464,-45.0458031,43.4198456,-239.8244324,1.4628497,4.7788019,2.7844424,29.1755733,10.5954199,24.9236641
2520,19.6126022,-3.0908985,-2.0087249,-51.1221390,57.0305328,-250.1374054,1.5777708,4.7404952,2.3510940,21.9847336,2.3129771,16.2519093
2530,15.7824965,-6.1147599,-3.8666160,-68.4809189,62.0076332,-250.1374054,1.5059452,4.7811961,2.0015423,13.5190840,-4.6030536,7.7480917
2540,13.2446556,-7.1729918,-4.7117648,-90.3664093,56.0610695,-250.1374054,1.3455344,4.8745699,1.7477583,3.8244274,-10.6183205,0.6564885
2550,12.1265697,-7.0221577,-4.3861551,-107.9694672,49.7786255,-250.1374054,1.1300575,5.0349803,1.3622938,-7.6335878,-15.6030531,-4.7938933
2560,11.4849272,-6.6510582,-3.8977404,-111.2366409,48.1603050,-250.1374054,0.8930327,5.3653784,1.1755470,-20.0763359,-18.8091602,-9.2900763
2570,10.4697905,-5.9351954,-4.3286943,-103.4503784,57.6641235,-250.1374054,0.4764437,5.8298512,1.1731528,-32.4732819,-19.7938938,-12.4656487
2580,8.2719250,-4.1443419,-5.8633699,-97.3969498,73.2595444,-250.1374054,0.3375807,6.1626434,1.0582317,-45.5190849,-18.2137413,-14.2061071
2590,4.5322008,-2.3726418,-7.5464849,-100.9694672,90.8549652,-246.0152740,0.2298422,6.6247220,1.2401901,-58.4274826,-14.1068707,-15.5267172
2600,1.3958124,0.2011119,-8.6286592,-114.3893127,101.8320618,-221.9313049,-0.1460456,7.1418672,1.5466464,-70.3969498,-9.2824430,-17.3435116
2610,-1.7118455,2.4468615,-9.6078825,-129.2671814,99.9694672,-187.0229034,-0.5578461,7.8649125,2.4013720,-81.0381699,-5.9541984,-18.7557259
2620,-3.7564833,4.5800843,-9.6821022,-137.6946564,88.3358765,-147.2977142,-0.8523315,8.6478119,3.3375001,-88.3893127,-4.2137403,-20.8167934
2630,-3.6607156,7.5153608,-9.2439651,-138.4274750,76.2900772,-111.8320618,-1.1731528,9.2607250,4.3909435,-91.5725174,-1.9236641,-22.8854961
2640,-2.4396791,10.5918941,-8.6980906,-133.0763397,75.5343475,-88.7709961,-1.4700323,9.9933472,5.3438311,-89.5267181,1.2137405,-25.2748089
2650,-1.4652439,13.6109667,-8.6645718,-124.6335907,85.1221390,-83.4961853,-1.8890154,10.6613255,6.2895355,-81.8473282,5.6488547,-26.4580154
2660,-1.5179161,15.5622311,-9.6006994,-124.0381699,87.8015289,-92.2824402,-2.4684093,11.2598734,6.8497758,-70.0381699,9.0305347,-25.6335869
2670,-2.0087249,15.7322187,-9.7874460,-128.5496216,68.2442780,-103.7938919,-2.8442972,11.9541883,6.9287844,-57.4045792,9.8625956,-23.7404575
2680,-2.8347204,15.5933561,-8.6142941,-129.6870270,35.1755714,-103.7557220,-3.2058196,12.5838594,6.3900914,-48.0534363,6.5954199,-19.3816795
2690,-3.1986370,16.2086620,-7.1418672,-120.0229034,3.7633588,-83.9236679,-3.4979107,12.8352499,5.7628140,-45.1679382,-0.2671756,-11.5496187
2700,-2.4229198,17.1184540,-5.1714492,-100.9618301,-25.3664131,-61.1068687,-3.3063757,13.0243902,5.5138183,-46.7099228,-8.5038166,-3.4045801
2710,-1.6687500,17.8678360,-3.9049230,-73.4961853,-44.6335869,-44.0381660,-2.7581062,12.8520088,5.7628140,-45.9618340,-14.4122133,2.8778627
2720,-0.8164186,17.7864342,-3.2393384,-44.3969460,-63.7480927,-35.5190849,-2.1715298,12.6269550,5.9902620,-39.8167953,-14.0305347,7.6183205
2730,0.5147507,16.9939575,-2.6575503,-17.9160309,-84.2213745,-35.5114517,-1.6088953,12.2821922,6.0812411,-29.8320618,-8.4885492,10.0916033
2740,1.0151364,15.7226419,-1.5729824,4.9618320,-94.8015289,-40.2900772,-1.3838415,11.9613705,5.9735026,-18.1603050,-0.9083970,11.9694653
2750,1.4748207,15.0067797,-1.3191984,16.4503822,-108.0457993,-42.3969460,-1.2976507,11.6932211,5.8346395,-5.6030536,6.0152674,13.5267172
2760,1.1875180,14.6165266,-0.5339043,19.4045811,-106.2061081,-45.4045792,-1.3263810,11.4226780,5.5617023,7.0763359,11.4580154,15.9847326
2770,1.7836711,13.6540623,0.0263361,17.2824421,-95.3969498,-53.6335869,-1.2545552,11.1856527,4.8673873,17.4656487,14.5038166,18.7862587
2780,2.8969693,12.3085279,0.0574605,13.9236641,-84.2442780,-68.6488571,-0.9935886,10.6876621,4.1754665,24.7175579,16.2977104,22.8473282
2790,2.5522060,10.1872759,0.1771700,9.4045801,-65.7480927,-86.4580154,-0.6033357,10.4219065,3.5984666,29.1832066,17.0076332,25.5190830
2800,1.9536586,8.7627335,0.5434810,3.5648854,-46.5267181,-102.1221390,0.0167593,10.2710724,3.2273674,31.5038166,15.4427481,27.4427490
2810,0.8547257,7.6087341,1.1635761,-1.5267175,-37.1526718,-111.0457993,0.6799498,10.5487986,2.5569944,29.9312973,11.6946564,27.7786255
2820,-0.3351865,6.5098009,2.0470319,-2.5801528,-36.1145020,-111.6259537,1.3862357,10.7331514,2.1284344,24.0381680,6.9923663,26.5801525
2830,-1.2234308,5.5712790,2.6312141,3.4427481,-37.8778610,-105.2977066,1.9201399,10.7642756,1.8004304,14.6564884,0.9618320,23.4503822
2840,-1.7357874,4.7381010,3.0238612,16.5648861,-39.4351158,-96.7251892,2.0470319,10.4602137,1.7094513,3.6412213,-4.6412215,18.3969460
2850,-2.1475880,3.8187323,2.9831600,33.9541969,-39.6870232,-89.7557220,1.9392935,10.0220766,1.8195840,-7.1679387,-10.9541988,13.1526718
2860,-2.5450234,3.0861101,3.0142846,53.4809151,-39.8625946,-84.2671738,1.7645177,9.5983057,2.2720859,-15.2748089,-14.8931293,8.1755724
2870,-3.0789278,2.4851687,2.5737536,73.1908417,-40.6717567,-76.8396912,1.5298871,9.1434097,2.6240315,-20.3511448,-14.4656487,1.6946565
2880,-3.5673423,2.2744799,1.5825592,88.1832047,-41.5954208,-64.3740463,0.7876883,8.5376797,3.0334380,-23.3282452,-10.0381680,-5.7404580
2890,-3.7229645,2.1715298,0.7613522,95.1908417,-48.6641235,-49.8473282,-0.1867468,8.0229292,3.5434003,-23.8625946,-5.1908398,-11.6335878
2900,-3.7133877,2.2649033,0.3064562,95.3053436,-56.5343513,-33.1908379,-1.1324517,7.7092900,3.7708483,-22.1526718,0.1755725,-15.6259546
2910,-3.3758070,2.3726418,-0.3136388,90.8778610,-58.3435097,-17.0076332,-2.1930776,7.5105724,3.9336534,-18.6335869,5.8015265,-16.6641216
2920,-2.7245877,2.5857246,-0.8858501,83.4351120,-49.5267181,-3.5343511,-3.1100521,7.1729918,3.7971845,-14.1297712,8.7786255,-14.3969469
2930,-2.0757623,2.8251436,-1.6184721,72.4274826,-34.0152664,6.5496182,-3.5170643,6.9551206,3.0573800,-12.3206110,10.8244276,-9.3358774
2940,-1.8890154,3.0980811,-2.8754215,57.5190849,-12.5267172,15.4274807,-3.5793133,6.8952656,2.5713594,-13.7099237,13.3893127,-4.8931298
2950,-1.8363433,3.4045374,-3.7852135,38.3511467,9.9847326,24.6946564,-3.6248028,6.8378053,2.0446377,-19.7786255,15.3206110,-1.0229008
2960,-1.7740943,4.1323709,-4.4891052,14.9160309,30.1068707,33.3587799,-3.4548154,6.7133074,1.7142396,-29.2137413,11.9007635,2.4885497
2970,-2.0159075,4.9847026,-5.0828643,-8.5190840,44.6946564,42.4732819,-2.9592183,6.6750002,1.5993185,-41.4656487,3.6793892,3.7251909
2980,-2.3558824,6.0908179,-5.4970589,-29.1297703,55.2519073,52.1145020,-2.4348907,6.5983863,2.0278785,-53.7480927,-7.5038166,4.0305343
2990,-2.8442972,6.8186517,-5.4755111,-43.8473282,58.6946564,61.3206100,-1.5538290,6.7540083,2.7844424,-64.2366409,-16.4885502,3.7404580
3000,-3.0238612,7.9080076,-5.2935529,-51.5038185,51.7480927,69.8854980,-0.7541697,6.9503322,3.3686244,-68.0763321,-19.4885502,4.2366414
3010,-3.3279233,8.9399033,-4.9104824,-52.1603050,38.8778610,75.8549652,0.0646431,7.0987716,3.6056492,-73.7099228,-19.9389305,-0.0839695
3020,-3.3015873,9.7251978,-4.5752959,-47.2748108,20.9541988,76.9694672,0.4357425,7.0820122,4.3334827,-73.7328262,-22.0763359,-6.4427481
3030,-3.2608860,10.0436249,-4.5130472,-36.8320618,2.5496182,72.5648880,0.6536137,7.2280579,4.7931671,-69.6412201,-17.0763359,-10.6717558
3040,-3.4356618,10.6302013,-4.4675574,-23.5954189,-14.7480917,66.5801544,0.8403605,7.8433647,5.0852585,-64.7022934,-7.8549619,-13.9923668
3050,-3.7157819,11.2431135,-4.3310885,-10.2824430,-31.9312973,61.9007645,0.5386927,8.0348997,5.2648225,-59.1603050,3.0381680,-17.1832066
3060,-3.7421181,11.3580351,-4.3239059,-0.3816794,-46.0992355,58.8320618,0.2202654,8.5065556,5.5066357,-55.1679382,14.4122133,-18.6106873
3070,-3.8953462,11.1904411,-4.5322008,4.6793895,-54.7938919,58.6106873,-0.2561783,8.5855637,5.8849177,-51.6793900,20.5114498,-19.0305347
3080,-3.9408360,10.9198980,-4.5369892,6.9236641,-55.6793900,62.4885483,-0.4812321,8.8034344,5.9399838,-49.8854980,21.7557259,-19.1984730
3090,-3.9288650,10.7906122,-4.4460096,7.7862597,-46.8625946,68.9389343,-0.5602403,9.2343884,6.4092450,-49.2900772,19.2061062,-19.8396950
3100,-3.5026991,10.6014709,-4.7788019,7.3969464,-32.4045792,76.3053436,-0.5674229,9.5169029,6.6175399,-48.5343513,14.6717558,-20.9618320
3110,-3.2082138,10.5751352,-5.1187773,5.7404580,-19.7862587,82.0839691,-0.5243275,9.8209648,6.7492199,-49.0610695,8.2137403,-23.2061062
3120,-3.0932927,10.5511932,-5.3653784,4.3053436,-9.5954199,85.8854980,-0.4932030,10.1346035,6.9263902,-49.9083977,0.7557252,-24.5267181
3130,-3.3758070,10.4745789,-5.5210009,3.3969467,-3.6106870,90.3587799,-0.2035061,10.3955708,7.3142486,-50.2442741,-7.1450381,-24.6641216
3140,-3.9144998,10.5583754,-5.7412663,4.2290077,-2.7633588,97.1450348,0.0957676,10.5320396,7.7332320,-49.4351158,-12.7328243,-25.5954189
3150,-4.7500720,9.8999729,-5.7628140,11.3206110,-11.3511448,110.0381699,0.2729376,10.5128860,8.4586716,-45.7404594,-13.9312973,-26.5419846
3160,-6.1075773,9.4187412,-6.0333576,23.6870232,-28.0152664,130.3587799,0.2394189,10.5751352,9.2128410,-38.3129768,-11.7557249,-27.4503822
3170,-7.7523856,8.9542685,-6.5433197,40.5725174,-48.3816795,156.1374054,0.1101327,10.6852674,9.8161764,-27.0152664,-7.3511453,-28.6183205
3180,-10.5152798,8.9925756,-7.4148049,60.7557259,-65.0305328,185.2366486,-0.1053443,10.9198980,10.1298151,-14.2213745,-3.7404580,-27.5877857
3190,-12.4593620,9.4522600,-8.3078375,77.8702316,-76.6183243,220.3587799,-0.4381367,11.1305866,10.2543135,-1.8015267,-2.4045801,-25.3969460
3200,-13.1297350,9.3445215,-9.1434097,85.3282471,-92.5190811,250.1297760,-0.5530578,11.0970678,10.0723553,8.7175570,-3.8320611,-21.6030540
3210,-12.0691090,7.7859039,-9.4618368,80.2977066,-109.3129807,250.1297760,-0.5458752,11.0611553,9.7946291,16.2290077,-8.3129768,-19.6488552
3220,-9.8473015,6.5935979,-8.5328913,71.5572510,-115.0992355,250.1297760,-0.4860204,10.8313131,9.5671806,22.3206100,-13.1221371,-18.1984730
3230,-7.4339581,5.1618724,-7.1107426,66.7938919,-100.2748108,250.1297760,-0.4213773,10.6349897,9.5192976,28.7099228,-16.0000000,-18.8244267
3240,-5.1331420,3.4212968,-6.0620875,69.1908417,-72.4351120,250.1297760,-0.5410868,10.5535870,9.5336628,35.5419846,-18.0152664,-21.3664131
3250,-3.0023136,2.8203552,-5.9615316,76.6488571,-41.8396950,250.1297760,-1.0749911,10.4721851,9.3804340,42.5114517,-18.8091602,-25.5038166
3260,-0.7469871,3.4715748,-6.5361371,86.0534363,-17.4656487,250.1297760,-1.7190280,10.4243011,9.1027079,48.5801544,-15.2290077,-26.9541988
3270,1.9057748,3.7804251,-8.1593981,92.8549652,-1.4732825,250.1297760,-2.7078283,10.3692341,8.7172441,53.1679382,-13.2900763,-27.1374054
3280,4.8051381,2.9280937,-9.9334917,90.2977066,-3.4732823,250.1297760,-3.5481887,10.2758608,8.2815018,56.0992355,-15.2748089,-25.3053436
3290,8.3461447,1.3790531,-11.4968977,73.3587799,-18.1908398,250.1297760,-4.1467361,10.1992474,7.9271612,57.7251892,-18.4580154,-19.6717548
3300,10.7187862,-0.6584021,-13.0076313,42.1145020,-56.9771004,250.1297760,-4.4986820,10.1896706,7.6350703,58.1832047,-22.5648861,-12.8549614
3310,12.6293497,-4.6303625,-12.2319136,-2.8015268,-115.0381699,249.5801544,-4.5226240,9.9191265,7.7021074,59.5572510,-26.7480907,-5.4885497
3320,15.9309368,-9.8161764,-9.1218615,-46.1908379,-181.4961853,174.9160309,-4.3574247,9.5599985,7.8409705,64.3282471,-28.7175579,1.4122137
3330,19.6126022,-14.7218714,-4.6399393,-75.4198456,-221.7022858,102.1145020,-4.4627690,9.1793222,7.5847921,74.0229034,-26.0305347,9.2137403
3340,19.6126022,-19.1750641,2.4061604,-73.3129807,-217.7938995,29.9618320,-4.4029145,8.5472565,7.1418672,85.2442780,-21.7022896,19.3969460
3350,19.6126022,-19.6131992,6.2129216,-42.9007645,-171.7786255,-30.9083977,-5.5018473,6.3493905,5.2456689,94.0839691,-21.4427490,33.2595406
3360,19.6126022,-19.6131992,5.4204450,-15.9160309,-38.2824440,-35.7328262,-4.8554163,7.2376347,3.0118904,91.8244247,-37.4656487,54.1526718
3370,19.6126022,-14.4465389,5.6766233,-4.0763359,74.9770966,23.7633591,-2.2696917,8.8920193,1.3598996,76.5190811,-42.7557259,62.5877876
3380,13.3140879,-0.2346306,7.1155310,-11.6183205,109.0839691,142.1679382,-0.2250538,8.4131813,1.4987626,56.7404594,-23.5725193,64.1145020
3390,15.1647959,12.1720591,8.8034344,-8.9083967,90.1908417,250.1297760,0.3974355,6.6319046,2.4612267,51.3969460,12.6488552,63.3664131
3400,19.6126022,13.3140879,9.2894554,24.3816795,73.0687027,250.1297760,0.2561783,5.7795734,3.0262554,56.4427490,46.9923668,63.1908379
3410,19.6126022,12.1122046,6.5217719,84.7328262,100.4732819,218.0610657,0.8738791,5.8418221,3.2776453,60.4732819,72.4351120,60.0228996
3420,19.6126022,10.3931761,1.0031654,137.5954132,149.1068726,57.2977104,0.4525018,5.4779053,3.4428444,59.2519073,80.2977066,53.5725174
3430,19.6126022,4.7764082,-5.1451130,148.9847260,144.6870270,-137.4732819,-0.4022238,5.3821378,3.5625539,56.0305328,70.6793900,50.8091621
3440,19.6126022,-3.1651185,-11.8249016,94.6717529,70.7557220,-250.1374054,-0.0454896,5.1834202,3.1172347,50.0076332,53.6030540,44.6412201
3450,16.8215752,-7.8816719,-13.7091284,2.5419848,11.0534353,-250.1374054,0.6679789,5.1499014,3.0478032,39.3129768,37.3664131,35.7251892
3460,9.9454632,-9.6390066,-11.0252428,-83.6946564,-21.0534344,-250.1374054,0.4836263,5.0684991,2.7533178,27.3129768,19.0687027,24.4503822
3470,8.2815018,-10.6613255,-6.6055689,-134.6946564,-51.8015251,-250.1374054,0.2609667,5.0732875,2.3726418,12.8625956,-3.1755726,13.3740454
3480,9.4426832,-9.7946291,-2.5330524,-152.1755676,-66.6641235,-250.1374054,0.7206510,5.0684991,2.3127871,-3.6488550,-25.8167934,0.4961832
3490,9.7874460,-7.5871863,0.0814024,-144.4656525,-57.6717567,-245.6564941,1.2737088,5.1379304,2.6910689,-16.2137413,-39.0992355,-14.1908398
3500,8.7340031,-4.9344244,1.0462608,-121.6183243,-16.3129768,-233.1908417,1.0702027,5.5617023,3.1675127,-22.8396950,-41.5343513,-26.6946564
3510,6.0501165,-2.0997043,0.3974355,-92.5038147,42.2595406,-216.3511505,0.2609667,5.8777351,3.2704628,-27.7404575,-43.2977104,-34.3282433
3520,3.8977404,0.8092360,-0.3687052,-60.6564903,94.9236679,-187.1908417,-0.1843526,6.6247220,3.2130022,-33.6870232,-50.4732819,-38.7862587
3530,3.9528067,2.8179610,-2.1092808,-29.9236641,120.0916061,-151.5877838,-0.3710994,7.4914188,3.2489152,-40.9923668,-58.1908379,-40.5496178
3540,5.7292953,3.9192882,-4.4148855,-4.7480917,144.1755676,-119.2061081,-0.4644727,8.4658537,3.6032550,-47.1984749,-63.5496178,-40.8778610
3550,7.6709828,5.0876527,-6.8617468,9.9389315,173.0992432,-97.4656525,-0.9169745,9.5456333,3.9192882,-52.3053436,-66.9465637,-38.9771004
3560,7.9127960,7.9894104,-9.4570484,11.5496187,203.9618378,-83.2595444,-1.0175306,10.5871058,4.3215117,-56.7022896,-71.5343475,-35.3282433
3570,7.1083484,11.7027979,-10.4314833,4.2900763,194.0686951,-75.8320618,-1.2090657,11.5040808,4.9990678,-58.7557259,-74.8320618,-31.6488552
3580,7.9223728,13.5582952,-10.0508070,-1.2671756,135.5114441,-87.3511429,-1.5873476,12.1720591,5.6933827,-56.3053436,-79.7633591,-28.4656487
3590,9.7515335,12.6245613,-8.9829988,0.5343512,58.1221390,-117.6488571,-1.9057748,12.3540173,5.9351954,-50.8015251,-83.4351120,-27.0534344
3600,9.6797075,11.7243462,-8.3581152,5.3969464,10.3358774,-144.6641235,-2.0590029,12.2510672,6.5313487,-42.2519073,-77.1374054,-23.4122143
3610,8.6717539,11.7004042,-8.4562769,4.7175574,8.6641226,-151.2061005,-2.3032103,12.1337519,7.3860745,-28.0916023,-64.7480927,-18.7404575
3620,6.6031747,12.8591919,-8.4754305,-4.2290077,22.6564884,-147.8473358,-1.8147956,12.0236197,7.8146343,-8.7862597,-49.1374054,-16.9923668
3630,5.3414369,14.0131912,-8.1163025,-17.0381680,31.7099228,-146.0992432,-2.6192431,11.8033543,7.1873569,6.9465647,-30.3511448,-14.1832066
3640,5.3366485,14.4441452,-6.8234401,-28.8320618,38.3435097,-150.2366486,-3.1387823,11.4873209,7.2160869,19.3435116,-12.4351149,-7.0839696
3650,6.0357518,14.3124647,-5.3893204,-31.4045811,48.7251892,-158.4351196,-3.5003049,11.0827026,7.3118544,31.4809170,2.2824428,2.2595420
3660,6.6223278,14.0706511,-4.4124913,-23.6259537,64.0305328,-170.3511505,-3.7540891,10.5607700,6.9407554,40.9389305,12.8091602,13.4732828
3670,6.3302369,13.3069048,-4.6016321,-10.1526718,77.6183243,-183.5343475,-3.6367738,10.0268650,6.5552907,48.2366409,17.8320618,24.3358784
3680,4.8865409,12.2869806,-5.2049680,1.1679389,76.4045792,-192.7709961,-3.3997490,9.4881725,6.1506729,52.8244286,20.8015270,35.3511467
3690,3.0142846,11.3604288,-5.6622581,9.2061071,65.9618301,-195.1832123,-2.5881188,9.1362267,5.7436604,54.4809151,21.1603050,43.5343513
3700,1.5155219,10.0484133,-5.7173243,15.9312973,45.9618340,-190.9236603,-1.8219782,8.6166878,5.3749552,55.2061081,21.1755733,48.2061081
3710,0.6416427,9.0955257,-5.1618724,22.7557259,17.6030540,-183.6412201,-1.3503228,8.0420828,5.0900469,55.6641235,21.8854961,50.2900772
3720,0.2466015,8.3078375,-4.3430595,30.8702297,-7.1221375,-174.3587799,-0.7900825,7.2448173,4.8673873,56.4732819,25.0152664,50.7862587
3730,0.3184272,7.6590118,-3.4236910,42.0763359,-24.5954189,-165.0839691,-0.4501076,6.7228842,4.6064205,57.3358765,28.3358784,49.5496178
3740,0.7398046,7.0652533,-2.6024840,58.3129768,-30.6412220,-163.0076294,-0.0694315,6.1937680,4.3909435,58.1450386,32.2137413,47.5801544
3750,0.9624642,6.2512288,-2.1044924,75.5419846,-31.9389305,-170.4351196,0.1005560,5.8777351,4.0389977,57.7786255,36.8320618,44.9083977
3760,0.1053443,5.0110383,-2.3439114,89.4656525,-30.7022896,-180.3893127,0.4046180,5.6431046,3.5457945,55.6030540,37.3816795,39.4656487
3770,-1.1994889,3.9887197,-3.6032550,93.4656525,-26.7328243,-180.7633514,0.7014975,5.6024032,3.1890604,50.5496178,37.2442741,33.1984749
3780,-2.4564383,3.4787574,-4.5130472,83.4427490,-19.8931293,-169.2595367,0.5291159,5.4898763,2.9759774,44.8625946,34.5419846,28.1297703
3790,-3.5218527,2.7126167,-4.9200592,61.6564903,-12.2366409,-148.5267181,0.6871324,5.4563580,2.4923513,37.8320618,32.9083977,22.0687027
3800,-4.0366035,2.1954718,-4.6638808,34.4885483,-2.7328243,-122.1832047,0.7924767,5.4659348,2.2265961,28.0076332,30.0458012,14.8931293
3810,-3.5481887,1.6328372,-2.2888451,-1.0763359,22.0076332,-71.5877838,0.8595140,5.9256191,1.8052188,4.8015265,20.0763359,-2.9923663
3820,-2.8131726,1.4006008,-1.5562232,-6.2595420,35.6335869,-55.1984749,0.6584021,6.2248926,1.9105632,-8.7328243,13.6946564,-11.3053436
3830,-1.8315549,0.9217629,-1.2545552,-9.0305347,46.5801544,-48.5343513,0.4261657,6.4858594,1.9656296,-22.1755733,5.8320613,-18.5114498
3840,-1.1875180,0.5482694,-1.4365137,-15.4961834,49.2671738,-48.0534363,-0.1867468,7.0652533,2.4157372,-34.6030540,2.0458016,-22.7404575
3850,-0.9169745,0.3184272,-1.6328372,-26.0305347,46.0000000,-47.3206100,-0.4668669,7.3693151,3.2345500,-43.9923668,-1.5877863,-26.1679382
3860,-0.9816177,0.3854645,-1.8770446,-36.1374054,41.0534363,-43.4427490,-1.0606259,7.5632443,3.8929520,-49.2213745,-4.6564884,-27.5572510
3870,-1.1204807,0.6751614,-2.4444675,-45.3816795,41.4961815,-35.3969460,-1.1396341,7.9487090,4.5752959,-50.4198456,-7.9160304,-27.9389305
3880,-1.0702027,1.6112895,-2.8155668,-60.5725174,40.6106873,-26.5801525,-1.4341195,8.4107876,4.9823084,-48.1755714,-6.3358779,-26.3435116
3890,-1.1013272,2.6431851,-3.0094962,-77.3282471,41.7938919,-21.8015270,-1.4700323,8.8776541,5.3917146,-43.0076332,-0.3664122,-22.0458012
3900,-1.2832855,3.4811516,-3.3135581,-90.4045792,47.2900772,-20.7480907,-1.5035510,9.2032642,5.2887645,-36.8473282,4.9007635,-17.3129768
3910,-1.8459201,4.9009056,-3.4859397,-100.5343475,47.6564903,-18.5343513,-1.3455344,9.6797075,5.4108682,-30.8931293,9.6946564,-11.8015270
3920,-2.9783716,6.4810710,-3.4883339,-105.4809189,47.0534363,-13.0610685,-0.8882443,10.1729107,5.3845320,-24.7862587,13.2290077,-5.9007635
3930,-4.1491303,7.9558916,-3.4979107,-103.4045792,37.8091621,-1.9007634,-0.4046180,10.5895004,5.3581958,-19.5038166,16.5190830,-1.8931298
3940,-4.4436154,9.4929609,-3.2848279,-94.3053436,18.9312973,13.0152674,0.0861908,11.1114330,5.3270717,-14.6946564,19.0839691,1.5190840
3950,-3.8953462,10.8911676,-2.9759774,-78.2366409,1.9389313,25.0381680,0.4860204,11.3484583,5.3103123,-9.8625956,19.5725193,2.5954199
3960,-3.1004753,11.5495701,-2.9065459,-56.7099228,-7.5343513,31.8778629,0.8092360,11.4921093,5.1714492,-4.8320613,18.7633591,3.3435113
3970,-2.4037662,12.1529055,-3.2153964,-35.5572510,-10.1526718,34.2061081,1.2018831,11.6956158,5.0732875,0.2137405,19.3511448,3.4809160
3980,-1.8147956,12.6221666,-3.9982965,-19.5496178,-7.4274807,34.4274826,1.4006008,11.8871508,4.7452836,4.0534353,20.1755733,2.5190840
3990,-1.3431402,12.8807392,-4.8889351,-12.9541988,-1.8625954,34.4045792,1.6376256,12.0858688,4.3765783,5.5267177,17.9541988,0.5038168
4000,-1.0845678,12.8089132,-5.6478930,-17.6259537,3.5954199,33.1068687,1.6448082,12.0475616,4.0749106,4.3511453,13.5877867,-2.3969467
4010,-1.0271072,12.7418766,-5.4898763,-26.4045811,5.3053436,31.6564884,1.3982066,12.0068598,4.0030847,1.8778626,6.9007635,-3.3969467
4020,-0.6703730,12.3492289,-5.1331420,-35.0076332,3.5114503,31.8320618,1.2330076,11.9063044,4.1419477,-0.3664122,-0.5114504,-3.2595420
4030,-0.0502780,11.9374285,-4.4675574,-39.2900772,4.7022901,32.4732819,1.1420283,11.6166077,4.2544746,-1.5725191,-7.7786260,-1.1755725
4040,0.4141948,11.4131012,-3.6391680,-38.6717567,3.7557251,32.1755714,1.1587877,11.3771887,4.3813667,-0.8931298,-12.5877867,0.8625954
4050,0.6392486,10.8959560,-2.6934631,-30.8549614,3.6259542,33.0000000,1.1683644,11.2431135,4.3430595,0.6183206,-15.5725193,4.4961834
4060,0.8762733,10.6493549,-2.1906834,-18.8702297,3.5954199,34.8854980,1.3814473,10.8935623,4.1060348,1.4809160,-17.4580154,7.4274807
4070,1.1396341,10.4290895,-2.2649033,-10.5038166,4.3358779,35.3740463,1.4269369,10.6110477,3.9216824,1.5954199,-19.2061062,9.5572519
4080,1.4436963,10.0364418,-2.4324965,-7.5267177,7.3358779,31.0229015,1.3622938,10.3859940,3.9192882,1.7022901,-19.1679382,11.0229006
4090,1.5442522,9.6653433,-2.6575503,-8.1832066,12.8091602,22.1755733,1.3383518,10.0029240,3.7852135,1.2977099,-16.7938938,11.7557249
4100,1.3144100,9.2703018,-2.8227494,-10.9694653,19.4961834,14.1297712,1.1827296,9.6892843,3.7828193,1.1908396,-12.8167934,10.6030531
4110,1.0797794,8.7938576,-2.7006457,-15.1221371,26.7251911,8.9160309,0.8020535,9.2535419,4.0533628,2.0992367,-7.0305343,8.4656487
4120,0.4955972,8.6430235,-2.7533178,-20.1908398,29.5877857,8.5343513,0.3256098,9.0763721,4.2592630,5.0305343,0.0381679,5.4198475
4130,0.0000000,8.5400734,-2.6192431,-24.9312973,26.0687027,12.9770994,-0.3830703,8.7627335,4.2736282,9.5114508,8.7404585,3.5190840
4140,-0.4884146,8.3892403,-2.2146254,-26.9465656,14.9694653,21.2366409,-1.1539993,8.5400734,4.3454537,14.6641226,17.1374054,3.0687022
4150,-1.0558375,8.5137377,-1.6232605,-23.1145039,-0.7480916,31.0076332,-1.7884595,8.2336178,4.1204000,19.2824421,25.1145039,3.6488550
4160,-1.1468167,8.6334467,-1.0654143,-12.7862597,-17.8702297,40.8549614,-2.3463056,8.0564480,3.8833754,22.6717548,32.9236641,5.1145039
4170,-0.7038917,8.8130112,-0.9337339,2.2061069,-29.9236641,47.6335869,-2.9520357,7.7404146,3.5218527,24.4580154,37.5267181,7.0916033
4180,-0.2992737,9.0141230,-1.1037214,18.3435116,-31.7786255,49.9007645,-3.2848279,7.6326761,3.2297616,24.3664131,38.6641235,9.7633591
4190,-0.1412572,9.0835552,-1.7573351,31.4580154,-30.0152664,48.0228996,-3.4524212,7.4219875,2.8945751,22.5267181,37.0610695,12.5725193
4200,-0.9552816,9.8640604,-2.8299320,37.4961815,-20.5114498,50.0687027,-3.3686244,7.3477674,2.4827745,18.9007626,33.6564903,14.0000000
4210,-1.4389079,10.2950144,-3.8307030,34.4427490,-10.1068707,56.8625946,-3.0741394,7.3717093,2.1667414,13.5648851,29.4809170,15.5419846
4220,-2.0206959,10.4889441,-4.5944495,26.0687027,3.6793892,64.5343475,-2.6216373,7.3645267,1.8267666,6.0839696,22.7022896,16.8320618
4230,-2.5474176,10.8337069,-5.3438311,16.3053436,15.2213745,72.2824402,-2.1835008,7.5177550,1.6352314,-1.9694656,13.0381680,17.8015270
4240,-3.1890604,11.0420017,-5.9351954,7.8396945,18.9694653,83.3740463,-1.6304430,7.7068958,1.4843974,-10.5190840,-0.7251908,19.0305347
4250,-3.8259149,11.2862091,-6.2033448,4.5496182,14.2900763,99.8625946,-0.9864060,8.2958660,1.3096216,-20.6717548,-16.8015270,20.7251911
4260,-3.8690102,11.8201132,-6.3517847,6.8931298,1.5190840,117.0076370,-0.5219333,8.4419117,1.3790531,-30.5725193,-35.0000000,25.7938938
4270,-3.3375001,12.1792421,-6.5768385,13.9312973,-14.5877867,128.8549652,1.0845678,8.5807753,1.8171898,-37.0534363,-40.1832047,30.8778629
4280,-3.1196289,12.3923244,-6.5098009,27.7709923,-36.0076332,132.5801544,2.0805507,8.5400734,2.3510940,-41.3358765,-30.6717548,32.4503822
4290,-3.0932927,12.2414904,-6.8449879,44.5343513,-47.9160309,131.5648804,2.7150109,8.5640154,2.9304879,-39.5877876,-18.3893127,31.1221371
4300,-3.7684543,11.9326401,-7.0963774,61.0458031,-60.6335869,130.3893127,3.1483591,8.9925756,3.3207407,-36.0687027,-4.4122138,27.1068707
4310,-4.9966736,11.2981796,-7.7092900,71.3740463,-68.9618301,139.9618378,3.4021432,9.2319946,3.5912843,-32.2824440,6.5725193,20.4732819
4320,-5.9878678,10.5320396,-8.0540533,74.3358765,-72.6183243,163.5267181,3.6224086,9.6916790,3.8426740,-30.0000000,12.9389315,10.5267172
4330,-6.5193777,9.5959110,-7.8768835,74.1450348,-75.3053436,195.6641235,3.7995787,10.5487986,4.1467361,-30.4961834,11.5877867,-1.4045801
4340,-6.2177100,9.1290445,-7.1251078,75.4045792,-76.6335907,228.1679382,3.7756367,11.1569233,4.7069764,-31.7786255,6.8244276,-12.6564884
4350,-5.1666608,8.5185261,-6.2368636,80.1450348,-72.5114517,250.1297760,3.3111639,11.6884327,5.1786318,-32.1832047,5.1603055,-20.9541988
4360,-2.6767037,8.3676920,-5.5976148,86.9083939,-62.5343513,250.1297760,2.6312141,11.8296900,5.6670465,-30.1221371,1.3664122,-26.1145039
4370,0.0933734,9.1386213,-5.8873119,95.7862625,-46.7404594,250.1297760,2.1188576,11.9829178,6.5002246,-25.8396950,-2.4580152,-29.0076332
4380,1.5059452,9.3373384,-6.6630292,101.3969498,-22.0839691,250.1297760,1.8339491,12.0403786,6.9599090,-19.3053436,-3.6488550,-31.4274807
4390,1.3934183,9.0260944,-8.3581152,93.0152664,-14.2824430,250.1297760,1.3934183,11.8919392,7.3980455,-11.1145039,-1.6335878,-33.4732819
4400,0.6153067,8.8632889,-9.1074963,72.4885483,-24.1450386,250.1297760,0.8906385,11.8967276,7.7859039,-1.5877863,1.4274809,-33.4198456
4410,0.3040621,7.8720951,-8.9686337,48.1450386,-40.5496178,250.1297760,0.3423691,11.9230633,8.1570034,8.1374044,3.1145039,-31.2442741
4420,1.3359578,6.0022330,-8.0636301,27.6030540,-55.3129768,250.1297760,-0.1771700,11.9158812,8.3365679,18.4961834,3.8473282,-27.2519093
4430,2.6360025,3.7588775,-7.0556765,11.8549614,-69.1221390,247.0152740,-0.7134684,11.9230633,8.3293848,28.2824421,1.0000000,-22.2519093
4440,3.9264708,1.3934183,-5.8633699,-1.8549619,-84.1145020,230.0686951,-1.0462608,11.8153248,8.1977043,36.5801544,-3.2366412,-13.8931293
4450,5.9663200,-1.5011568,-4.4340386,-10.6106873,-105.1908417,203.7328186,-1.1037214,11.5423870,7.8888540,43.1068687,-6.6106873,-5.5648856
4460,9.3995876,-4.2353210,-2.8490853,-13.4198475,-127.6259537,164.6259613,-1.0965388,11.2957859,7.7092900,48.3893127,-10.2290077,1.9465649
4470,14.1209297,-7.7164726,-0.8188128,-8.6870232,-140.3969421,113.0305328,-1.2545552,10.9821472,7.2400289,53.6946564,-15.1450386,7.6488547
4480,19.6126022,-12.5671005,1.6232605,5.2595420,-133.8244324,50.6793900,-1.2042773,10.7977943,6.7444315,57.1984749,-21.1221371,12.3129768
4490,19.6126022,-18.9787407,4.2712340,26.8549614,-99.7175598,-20.7633591,-0.8164186,10.4338779,6.3398137,58.6106873,-26.3129768,15.8854961
4500,19.6126022,-19.6131992,3.1268115,39.3358765,-49.5648842,-65.4274826,-0.3758878,10.2184010,6.3182659,61.6564903,-26.2366409,18.9847336
4510,18.7081966,-19.6131992,-2.9592183,11.0305347,19.1526718,3.8702290,0.0861908,10.1010857,6.1243367,69.1679382,-21.8320618,19.8167934
4520,10.8552551,-13.7187052,-3.3494711,-57.5496178,136.9618378,170.5343475,0.1699875,9.8257532,5.6047974,76.5267181,-13.8167934,18.9083977
4530,9.5671806,3.8115497,4.2592630,-135.5572510,128.2595367,250.1297760,-0.0191535,9.8065996,5.1331420,81.7633591,-8.4580154,18.8625946
4540,16.6683464,13.1057930,12.1193867,-155.9084015,54.4351158,250.1297760,-0.2633608,9.7036495,4.5752959,84.0916061,-6.7022901,19.4198475
4550,19.6126022,14.4082317,18.3275204,-94.5725174,-36.2366409,250.1297760,-0.4740495,9.6509781,4.2209558,84.5496216,-8.3129768,20.6030540
4560,19.6126022,15.6939116,17.0298691,32.9236641,-28.7557259,221.7175598,-0.5602403,9.5576038,3.9336534,82.7251892,-10.5954199,23.5114498
4570,19.6126022,11.9158812,10.6996326,168.1679382,31.6106873,-40.3435097,-0.4118006,9.2942438,3.4596038,79.0076370,-13.0763359,24.9160309
4580,19.6126022,3.7564833,-1.7142396,214.6793823,53.3206100,-250.1374054,-0.2873027,8.9973640,3.0861101,73.9083939,-15.5801525,24.7099228
4590,19.6126022,-3.1962428,-12.2127600,153.5267181,76.7557220,-250.1374054,-0.2322364,8.7507620,2.7652888,67.8091583,-19.5038166,23.6870232
4600,14.9684725,-8.6597834,-16.6300392,36.6335869,99.2900772,-250.1374054,-0.3591284,8.5783806,2.8107784,62.2213745,-24.3511448,21.5038166
4610,9.6653433,-10.6996326,-12.3276815,-69.6564865,69.1984711,-250.1374054,-0.4285599,8.4012108,2.4516499,56.2061081,-30.3816795,20.7175579
4620,9.8089943,-10.3548698,-7.1179252,-126.8549652,8.9389315,-250.1374054,-0.5051740,8.2407999,1.9704180,49.5114517,-37.2290077,20.0381680
4630,11.7363167,-9.6174593,-1.2138541,-128.4885559,-50.3816795,-250.1374054,-0.2513899,7.9032192,1.6974803,40.6717567,-43.6564903,21.0229015
4640,13.7019463,-9.0165176,1.3335636,-102.4732819,-84.7480927,-250.1374054,0.1029501,7.4818420,1.6711442,32.2977104,-48.5267181,21.4580154
4650,13.7450418,-8.5496502,0.7685348,-74.8320618,-58.1374054,-250.1374054,0.3974355,7.0844064,1.8818330,26.4427490,-48.4885483,19.4274807
4660,11.4777441,-7.3908629,-0.5817881,-55.0992355,12.1755724,-250.1374054,0.6536137,6.9192076,1.9081690,22.8931293,-45.2900772,16.3893127
4670,7.2663651,-4.6303625,-2.4372849,-44.0076332,73.9312973,-250.1374054,0.7278336,6.5959921,1.8674678,19.6335869,-38.5877876,12.3282442
4680,4.4196739,-2.0183017,-3.8737986,-38.1908379,95.1374054,-250.1374054,0.5195391,6.4619174,1.9345051,16.3511448,-32.2366409,9.6106873
4690,3.8809812,0.2968795,-4.9056940,-35.6106873,85.8473282,-234.6412201,0.3543400,6.3278427,1.8698620,14.1908398,-26.5648861,9.1908398
4700,5.0565281,2.2098370,-5.9543490,-30.6641216,77.2900772,-212.6183167,0.2202654,6.2440462,2.1140692,12.3435116,-21.3129768,8.7328243
4710,4.1227942,4.6231799,-7.1394730,-25.4427490,81.6870193,-197.5801544,0.1675933,6.1363077,2.2313845,10.8549614,-19.6793900,8.5877867
4720,1.4843974,7.5919747,-8.2024927,-23.9694653,90.4580154,-182.3664093,0.3710994,6.0860295,1.9680238,8.4503813,-21.1526718,8.4198475
4730,-1.0079538,10.5990763,-8.6118994,-32.6793900,79.6412201,-163.8625946,0.6296718,6.1961622,1.7980363,4.6106873,-23.3053436,6.5419846
4740,-1.4269369,11.8679972,-8.5999289,-44.7480927,50.2137413,-149.0458069,0.7972651,6.4451580,1.4389079,-0.4045801,-27.2366409,4.5572519
4750,-0.8116302,10.9749641,-8.1306677,-47.9389305,15.2290077,-143.2519073,0.9624642,6.8018923,0.8164186,-8.1068707,-33.4351158,2.1679389
4760,-0.4836263,10.3141680,-7.5943689,-43.8396950,-14.3435116,-139.9236603,1.1707586,7.0939832,0.7374104,-18.7404575,-36.9923668,0.9007633
4770,-1.5801650,11.4274664,-7.1083484,-36.8015251,-21.4274807,-130.5114441,1.3934183,7.1873569,0.8044477,-29.2519093,-40.1679382,-0.8854962
4780,-3.5050933,13.2470503,-7.1873569,-31.3206100,-11.1984730,-115.7633591,1.4484847,7.4626884,1.2473727,-35.9007645,-42.8778610,-3.3053436
4790,-4.2257442,14.5686426,-7.1370788,-30.6946564,-7.8625956,-102.0000000,1.6328372,8.0253229,1.7525467,-39.8167953,-42.8549614,-6.4580154
4800,-3.5697365,14.9325600,-6.5217719,-34.1221390,-13.8015270,-96.3129807,1.7525467,8.4419117,1.8698620,-42.3358765,-41.7022896,-8.6793890
4810,-2.5091105,14.5423069,-5.2696109,-31.1450386,-13.6030531,-96.5419846,1.8626794,8.9135675,2.0877333,-43.9465637,-40.2671738,-11.6870232
4820,-1.8315549,14.4154148,-3.9240766,-15.4885492,-6.0000000,-99.8396912,1.6926919,9.3397331,2.3463056,-44.2213745,-38.8244286,-14.4045801
4830,-2.0590029,14.8320036,-3.5745249,9.5954199,7.7938933,-104.0076370,1.6065011,9.7228031,2.6168492,-43.0381660,-37.3206100,-16.7709923
4840,-3.4476328,14.7913027,-5.2265158,33.2519073,16.4809170,-99.5419846,1.7022687,10.1513634,2.8442972,-40.5190849,-34.9771004,-20.0992374
4850,-3.4859397,14.7098999,-6.8761120,39.7175560,17.0076332,-87.9007645,1.6879035,10.5128860,2.8107784,-37.4427490,-30.9389305,-23.2442741
4860,-2.6814921,14.2166967,-7.2735476,33.6946564,15.8473282,-80.8854980,1.5753766,10.7642756,2.9903426,-34.3740463,-26.1068707,-26.3740463
4870,-2.1308286,13.2877512,-6.7492199,29.2137413,16.8702297,-76.4045792,1.2521610,11.0324249,3.1124463,-31.6183205,-23.1603050,-29.0000000
4880,-1.9297167,12.5934362,-5.9016771,31.1221371,16.1374054,-70.3893127,1.0749911,11.1545286,3.3805954,-28.1679382,-21.7251911,-32.3206100
4890,-1.6208663,11.8320847,-5.0661049,39.6030540,14.7328243,-63.5419846,0.7733232,11.2335367,3.5146701,-24.4198475,-20.6946564,-33.6183205
4900,-1.1755470,10.7092094,-4.5274124,51.7022896,11.5954199,-59.3511467,0.4932030,11.2838144,3.7109938,-20.0992374,-19.9694653,-32.8931313
4910,-1.1204807,9.5911226,-4.3334827,65.8778610,2.1068702,-57.5038185,0.4141948,11.1736822,3.6535332,-15.4122133,-19.0839691,-33.9618340
4920,-0.9337339,8.9853926,-4.1132174,79.3893127,-14.1603050,-56.2290077,0.4309541,11.0755205,3.8139439,-10.2061071,-16.0458012,-35.4961815
4930,-0.7254394,8.4107876,-4.1108232,90.6870193,-33.1755714,-57.2900772,0.1005560,10.9318695,3.7612717,-5.1832061,-12.6183205,-36.0839691
4940,-0.4405309,7.7499914,-4.1515245,98.3587799,-48.2900772,-62.0687027,-0.1125269,10.7355452,3.8019729,0.0229008,-7.2519083,-35.1832047
4950,-0.3782819,6.8832946,-4.0749106,99.5725174,-56.9236641,-69.0992355,-0.4070122,10.5823174,3.7708483,4.9312978,-1.5038168,-32.9083977
4960,-0.3998296,6.2608056,-3.9743545,94.2671738,-60.7022896,-75.7862625,-0.6823440,10.3141680,3.6822634,8.2137403,2.7175572,-30.0381680
4970,-0.5530578,5.5784616,-3.8953462,84.2137375,-57.9541969,-79.4198456,-0.7589580,10.1106625,3.5122759,10.1450386,6.7022901,-24.9923668
4980,-0.5051740,4.9918852,-3.4931223,72.0534363,-49.0610695,-80.7328262,-0.6679789,9.7515335,3.4332676,10.7938929,9.1297712,-20.0000000
4990,-0.5626345,4.6327567,-3.3686244,57.4045792,-38.8549614,-78.2519073,-0.5147507,9.3900108,3.3590479,10.8167934,11.0305347,-16.7786255
5000,-0.4309541,4.2855992,-2.6695213,44.2442741,-25.3969460,-73.4732819,-0.3734936,9.0931320,3.2776453,10.0381680,13.2519083,-14.7862597
5010,-0.0933734,4.2425036,-2.1978660,31.9694653,-11.0992365,-69.9007645,-0.3016679,8.6956959,3.2848279,8.3969469,13.9770994,-13.7175570
5020,0.5793939,3.9767487,-1.7501525,20.1755733,7.2366414,-67.9236679,-0.1388630,8.4203644,3.2896163,6.0305343,11.8396950,-15.5267172
5030,1.0630201,3.6678982,-1.1156923,7.6030536,21.5572510,-66.5343475,0.0287303,8.4467001,3.3829896,3.0763359,7.3129773,-17.6641216
5040,3.0813217,1.6280488,-0.0407012,-31.5343513,8.7709923,-69.5801544,-0.6392486,9.2703018,3.0023136,-9.4885492,-9.4274807,-17.4732819
5050,2.2050486,2.1236460,-0.4070122,-35.3511467,8.4122133,-61.9465637,-0.8595140,9.4091644,3.0262554,-14.1832066,-12.8549614,-14.3893127
5060,0.6703730,2.6623387,-1.0438666,-34.2137413,20.2442741,-45.1526718,-0.8355721,9.3660688,2.9759774,-17.5190830,-14.4351149,-9.7557249
5070,-1.0773853,3.2130022,-2.0709739,-31.7480907,31.6488552,-24.1984730,-0.9313397,9.3157911,3.4165084,-19.4580154,-13.6259546,-4.7938933
5080,-1.7669119,3.6631098,-3.2345500,-32.0076332,35.0534363,-4.8396945,-0.7134684,9.2798786,3.5793133,-20.0305347,-11.0992365,-0.6946565
5090,-2.3127871,4.6566987,-4.6112089,-41.0458031,38.4885483,7.7786260,-0.4884146,9.1649570,3.9647777,-18.9541988,-7.7022901,1.4732825
5100,-3.2130022,5.8178802,-5.4060798,-52.3969460,40.4274826,18.0534344,-0.3591284,9.2726955,4.0557570,-16.6488552,-5.5572519,3.0458016
5110,-3.6726866,7.4914188,-5.8083038,-61.7709923,42.4732819,27.0152664,-0.1173153,9.2032642,3.9911139,-14.5801525,-5.5648856,3.1450381
5120,-4.1706781,8.7244263,-6.2248926,-66.3893127,39.6030540,31.2366409,0.1508339,9.2391768,3.8498566,-13.3282442,-7.0916033,2.4580152
5130,-4.4029145,9.3493099,-6.5696559,-68.0152664,32.5038185,30.7709923,0.4692611,9.2846670,3.7612717,-12.5801525,-8.7862597,-0.0610687
5140,-4.5992379,9.7060442,-6.7061248,-67.6717529,22.1679382,28.0305347,0.6799498,9.3876171,3.6200144,-11.2442751,-9.7709923,-4.3587785
5150,-5.0062504,9.7539282,-6.5888095,-67.0687027,7.7175574,27.1297703,0.8403605,9.4809904,3.4979107,-9.5572519,-7.7709923,-9.8549614
5160,-5.0445571,10.0412302,-6.2512288,-65.2442780,-4.2900763,31.1221371,0.6081241,9.4905672,3.3566537,-7.4809160,-3.2671757,-14.2366409
5170,-4.8027439,10.3476868,-5.5186067,-62.8625946,-9.1679392,38.5725174,0.2035061,9.4714136,3.1746953,-5.3435116,2.2290077,-17.6793900
5180,-4.9416070,10.6996326,-5.0301919,-55.3664131,-7.5496182,50.4198456,-0.2609667,9.3708572,3.0310438,-2.7404580,7.5038166,-20.8167934
5190,-4.9224534,11.0827026,-5.0134325,-47.0610695,-2.5419848,66.0763321,-0.7876883,9.2894554,3.0071020,0.3740458,12.6793890,-22.2213745
5200,-3.9384418,11.0994625,-5.1714492,-41.4961815,-0.5877863,78.6106873,-1.3072275,9.0763721,2.7892308,4.0687022,18.4274807,-22.8320618
5210,-2.4444675,11.2479019,-5.2743993,-34.4961815,-1.7862595,80.6106873,-1.7309990,8.8752604,2.6695213,7.8473282,24.2519093,-22.1603050
5220,-1.7717001,11.3053627,-5.4826937,-24.6870232,-1.4580153,77.6564865,-2.0518203,8.6238708,2.4205256,11.4656487,29.6183205,-20.0610695
5230,-1.5227045,11.3604288,-5.5353661,-12.0916033,4.6564884,72.0076370,-2.1499822,8.5879574,2.2050486,14.9465647,34.0763359,-19.5190830
5240,-1.4772149,11.4370432,-5.6454988,-0.2137405,9.3893127,63.2824440,-2.2170193,8.5927458,1.8794388,17.7633591,37.7251892,-18.3358784
5250,-1.5586174,11.2622671,-5.9567432,7.9236641,13.0610685,54.4503822,-2.2768741,8.7842808,1.7286048,18.5496178,38.3511467,-15.8625956
5260,-1.9392935,11.0611553,-6.1770086,14.0381680,14.4351149,46.0763359,-2.2146254,8.7579451,1.5681942,16.8473282,34.9389305,-10.8549614
5270,-2.4061604,10.6828737,-6.5935979,18.1297703,10.9923668,41.1297722,-1.5011568,9.1074963,1.2737088,12.7175570,28.5496178,-5.7938933
5280,-2.7748656,10.2686787,-6.7013364,20.0305347,5.1755724,39.6717567,-0.5889706,9.5312681,0.6344602,2.0000000,19.0152664,-3.9007633
5290,-3.0669568,9.9741936,-6.6510582,20.7786255,-0.2442748,41.5190849,-0.0023942,9.2942438,0.4237715,-9.8091602,8.2290077,-3.3664122
5300,-3.4404502,9.9430685,-6.3948798,21.0152664,-4.7328243,46.2213745,0.6129125,9.2942438,0.6392486,-23.0229015,-2.3969467,-4.3893127
5310,-3.9384418,10.0196829,-5.6742291,23.7709923,-9.4427481,53.1679382,1.2234308,9.3157911,1.0151364,-34.8549614,-10.3282442,-5.4427481
5320,-4.2760224,10.2878323,-5.7508430,26.6946564,-7.7328243,59.2900772,1.5849534,9.2080526,1.9416877,-42.4274826,-13.5114508,-8.2290077
5330,-5.2935529,10.4889441,-5.5593081,25.8396950,-7.9541984,71.5038147,1.7501525,9.2032642,2.5737536,-45.6946564,-12.7938929,-11.7480917
5340,-5.1977854,10.2088242,-5.1451130,25.8396950,-12.6488552,81.9083939,1.8052188,9.2655134,3.1244173,-45.2824440,-9.8549614,-14.7480917
5350,-5.1403246,9.9646168,-4.4292507,30.0992374,-22.6412220,91.8549652,1.7693061,9.3947992,3.7564833,-41.8167953,-6.0992365,-17.9236641
5360,-5.4467812,9.6414013,-3.5888901,41.5114517,-29.7175579,107.5877838,1.8028246,9.3852224,3.9336534,-37.2977104,-1.8015267,-22.1450386
5370,-4.6423335,9.7898407,-3.7588775,57.9160309,-29.1450386,130.7480927,1.5442522,9.5504217,4.0246325,-32.6793900,1.4656489,-25.4885502
5380,-4.7620430,9.8760319,-3.9288650,75.7557220,-27.3893127,150.2671814,1.1947005,9.7946291,4.1132174,-29.5419846,2.8702290,-28.5648861
5390,-4.4723458,10.0460186,-4.8913293,91.7557220,-19.4351139,163.1984711,0.9792235,10.1058741,3.9671719,-28.0839691,2.0305343,-30.5267181
5400,-4.2257442,9.9191265,-5.6574697,102.7175598,-13.7251911,167.9236603,0.6823440,10.2351599,4.0988522,-28.3206100,-0.1450382,-34.3664131
5410,-4.2712340,9.8401184,-6.2392578,110.3358765,-15.7404585,168.2595367,0.2322364,10.3692341,4.2616572,-28.7786255,-2.7328243,-35.8549614
5420,-4.5776901,9.5121145,-6.4403696,111.5954208,-21.9465656,170.3282471,-0.4548960,10.5200682,4.7117648,-28.0229015,-5.4503818,-35.4045792
5430,-4.7668314,8.8010406,-5.7819676,108.8549652,-19.6412220,180.0992432,-0.9050036,10.6421719,4.9344244,-26.6106873,-7.7633586,-32.5038185
5440,-5.0924411,8.0468712,-5.4611464,106.1221390,-12.4885492,197.8702240,-1.1180865,10.9031391,5.0325861,-24.7175579,-10.2442751,-28.4656487
5450,-5.7005649,7.5704269,-4.9775200,105.7328262,-2.3816793,224.4351196,-1.1444225,11.0683374,5.1858144,-23.0534344,-12.7328243,-23.1221371
5460,-5.8322453,6.8425937,-4.4962878,107.3587799,8.3511448,250.1297760,-1.1061156,11.1090393,5.4683285,-21.0610695,-14.6641226,-18.7633591
5470,-4.7404952,5.6814117,-4.0366035,110.7175598,13.1908398,250.1297760,-1.0462608,11.1521349,5.6215568,-18.1221371,-16.6030540,-13.5877867
5480,-2.9520357,4.5561423,-3.7923961,114.0610657,13.7480917,250.1297760,-0.9959828,11.2167778,5.7005649,-14.5190840,-17.3587780,-9.1221371
5490,-0.6631905,2.8849983,-3.6367738,117.5190811,13.0610685,250.1297760,-1.0438666,11.0300312,5.8202744,-10.8854961,-16.2748089,-6.1755724
5500,1.9392935,0.7469871,-3.7373297,117.6412201,13.0305347,250.1297760,-1.0510491,10.7690639,5.8322453,-6.1145039,-14.8396950,-2.7022901
5510,4.5872669,-1.4029950,-3.6750808,114.7633591,9.1832066,250.1297760,-0.9768293,10.7810354,5.9830794,-0.6641222,-12.0152674,-1.2442749
5520,7.8361821,-3.3542595,-3.4883339,110.2977066,-5.7633586,250.1297760,-1.1037214,10.7163916,5.8705525,5.2595420,-8.2061071,0.2290076
5530,11.1976242,-5.7173243,-3.4165084,103.6946564,-23.6641216,216.7175598,-1.1803354,10.7331514,5.8274570,10.3664122,-4.6335878,1.7480916
5540,15.1217003,-8.4227581,-2.2074428,94.9542007,-45.9312973,162.8778687,-1.4628497,10.7211800,5.5569139,14.9160309,-1.9160305,3.4351146
5550,19.6126022,-12.4234495,0.0861908,91.4885483,-65.8854980,95.4198456,-1.5777708,10.7427282,5.4922705,17.6946564,-0.4351145,5.0076337
5560,19.6126022,-16.9748039,0.9911944,92.9923630,-61.1984749,30.1679382,-1.6041069,10.7427282,5.4539638,20.5343513,2.0458016,6.5343513
5570,19.6126022,-19.3258972,-1.0749911,77.7938919,-6.6717558,0.7480916,-1.6615674,10.7882175,5.5377603,23.1450386,5.0076337,7.2213740
5580,19.6126022,-16.2158451,-3.5170643,32.7862587,98.5801544,27.1526718,-1.8554969,10.9486284,5.6263452,26.2900772,8.0839691,8.4198475
5590,17.6308117,-10.3309278,-5.4587522,-29.7633591,198.0076294,92.8015289,-1.9105632,11.0252428,5.7364779,30.5038166,12.7175570,9.6564884
5600,16.8646698,-0.5386927,-3.6200144,-102.7938919,234.3664093,160.8778687,-1.6448082,10.8361015,5.7532372,36.6793900,20.0534344,10.2519083
5610,17.4392757,11.7051926,1.0295014,-156.4809113,162.9160309,184.9313049,-1.1300575,10.7379398,5.2217274,42.1832047,30.7709923,8.4351149
5620,19.6126022,16.6037045,5.1044121,-161.7709961,71.3282471,152.9923706,-0.8906385,10.6158361,4.4819226,45.9007645,43.8396950,4.9312978
5630,19.6126022,13.9629126,8.4754305,-119.6870193,-17.9160309,61.2442741,-1.2401901,10.6924505,4.3191175,47.2137413,55.1297722,2.6335878
5640,19.6126022,8.2000990,6.1770086,-49.7175560,-23.7022896,-77.0992355,-2.4827745,10.6565371,4.3406653,46.1679382,55.9541969,4.4198475
5650,19.6126022,1.0821736,2.3295465,20.1603050,10.3358774,-219.5038147,-3.5338237,10.3644457,4.4412212,43.8167953,46.4885483,11.9847326
5660,19.6126022,-5.4467812,-3.4667864,60.0992355,39.5190849,-250.1374054,-3.7828193,10.1298151,4.6614871,43.2061081,34.0992355,22.4809170
5670,16.7162304,-9.4618368,-8.2479830,52.2366409,35.0916023,-250.1374054,-3.3279233,9.8329363,4.5250182,44.0610695,24.1374054,32.9236641
5680,12.1313581,-10.7427282,-9.9813757,16.3664131,-2.5725191,-250.1374054,-2.7916248,9.2319946,4.2137733,44.4580154,18.8396950,40.0381660
5690,9.8089943,-9.8305416,-8.8704720,-26.5801525,-54.8091621,-250.1374054,-2.4444675,8.8058290,3.4691806,42.7175560,12.2442751,45.5343513
5700,9.5288744,-8.3054428,-6.6773944,-61.3358765,-96.8854980,-247.5114441,-2.0805507,8.3581152,2.7413468,37.0534363,4.6106873,49.6946564
5710,9.4809904,-7.0484939,-4.7524662,-80.2748108,-106.9847336,-229.8396912,-1.7908537,7.9678626,2.4803803,30.6030540,-4.9236641,53.1068687
5720,8.5688038,-4.9655490,-3.7205703,-84.2977066,-88.0076370,-226.2061005,-1.2521610,7.6374645,2.5857246,25.3129768,-10.3587790,54.8702278
5730,6.4331870,-2.8945751,-3.3853838,-80.5419846,-54.2213745,-223.9236603,-0.7733232,7.3405848,2.6288199,21.8549614,-12.9389315,55.9465637
5740,3.9432299,-0.7661406,-3.9504125,-71.4503784,-20.7862587,-211.4961853,-0.4740495,6.9239960,2.6790979,20.0381680,-14.6030531,56.6259537
5750,3.7109938,0.8619082,-4.8075323,-59.8320618,7.0687022,-192.5267181,0.1580165,6.4164276,2.7437410,20.0076332,-15.0076332,56.1603050
5760,4.4244623,2.2265961,-5.9088597,-51.2900772,26.1068707,-177.9007568,0.8259954,6.0596933,2.4468615,20.5419846,-12.9083967,53.1984749
5770,3.8402798,3.2106080,-7.6733770,-53.8854980,40.2748108,-168.8854980,1.4556671,5.8394279,2.3175755,20.7557259,-7.7480917,47.8549614
5780,1.2210367,5.3797436,-9.4977493,-67.6641235,64.8854980,-156.3893127,1.7645177,5.6335278,2.1188576,19.4656487,-1.6641221,41.0610695
5790,-0.9840119,8.2192526,-10.1250277,-83.7938919,77.2442780,-137.6106873,1.7980363,5.5760674,1.9704180,17.2824421,4.0839696,33.2213745
5800,-1.1468167,9.7754755,-10.5559816,-98.3587799,72.4656525,-119.0839691,1.7190280,5.5473371,2.0709739,15.3435116,5.7251906,25.5496178
5810,0.9696468,9.7658987,-10.4841557,-109.1450348,56.2900772,-112.6259537,1.6950861,5.8083038,2.0039365,13.0839691,3.4351146,18.2290077
5820,3.5386121,9.7084379,-9.6342182,-116.3129807,40.5572510,-120.9389343,1.8243724,6.2655940,1.9440818,10.2671757,-2.8473282,8.9923668
5830,2.8945751,10.6349897,-8.8728657,-120.8091583,46.4656487,-132.4274750,1.8076130,6.8330169,1.9009864,5.8931298,-12.9389315,-2.0763359
5840,0.1029501,12.6939926,-8.6885138,-124.4427490,60.1832047,-133.3129730,1.5131277,7.3549500,1.8124014,1.1832061,-25.9694653,-11.4732828
5850,-1.7525467,14.4393568,-8.3293848,-126.1755753,65.6870193,-126.8015289,0.9744351,8.0085640,2.0446377,-2.7251909,-39.6183205,-18.4351139
5860,-2.4444675,14.6763811,-7.5464849,-123.8778610,55.4656487,-121.9618301,0.5554519,8.5400734,1.8483143,-7.0687022,-51.9160309,-22.7938938
5870,-1.7214222,14.3364067,-6.2129216,-115.8396912,29.0381680,-120.1450348,0.2585725,8.9039907,1.6112895,-12.0458012,-61.9847336,-23.6641216
5880,-0.0095768,14.3388004,-5.0014620,-101.8625946,7.3664122,-121.6335907,0.2657550,9.3493099,1.6017127,-18.4885502,-68.4809189,-22.7557259
5890,0.5482694,14.7146883,-4.8171091,-87.4122162,5.1221375,-127.4351120,0.4740495,9.7299862,1.4628497,-25.2366409,-69.8396912,-22.2442741
5900,0.4285599,14.5351238,-5.1929970,-76.6641235,6.7480917,-135.9770966,0.5722113,10.0412302,1.7525467,-30.6793900,-67.0610657,-20.6793900
5910,-0.1651991,14.4058380,-5.2265158,-71.0152664,-3.0534351,-143.7786255,0.6775556,10.1274214,2.1164634,-33.6335869,-58.3358765,-18.9770985
5920,-0.8786675,14.0155849,-4.9990678,-67.4045792,-21.3816795,-146.9770966,0.7302278,10.2279778,2.7652888,-33.3129768,-45.9083977,-19.0000000
5930,-0.9744351,12.9334116,-4.0174499,-61.9618340,-45.9541969,-149.4732819,0.6248835,10.2495251,3.2944047,-29.6488552,-32.7175560,-20.1603050
5940,-2.5450234,7.9199786,0.9911944,15.5648851,-59.2290077,-107.2290039,-1.6136837,10.4243011,3.9168940,13.5801525,4.4656487,-26.7404575
5950,-2.8227494,7.0365229,1.2066715,35.7251892,-52.3206100,-83.0534363,-1.9967541,10.5464048,3.4236910,17.4732819,1.3358779,-23.2290077
5960,-2.5234756,6.3422079,0.9528874,51.6641235,-42.8320618,-60.5038185,-2.1499822,10.5655584,2.9951310,17.6870232,-3.0992367,-19.7022896
5970,-2.1451938,5.8921003,0.3782819,61.9389305,-32.7709923,-44.4580154,-2.0829449,10.5080976,2.5761478,13.8091602,-9.6946564,-15.3053436
5980,-1.7573351,5.1163831,-0.1053443,65.3740463,-20.9770985,-36.4351158,-1.8818330,10.4602137,2.1715298,6.6870227,-16.3740463,-12.0152674
5990,-1.7190280,4.2496862,-0.5626345,63.8320618,-10.2977095,-34.4198456,-1.7812769,10.4602137,2.0230901,-2.3053436,-20.3129768,-7.3358779
6000,-1.9560528,3.6248028,-0.7326220,60.2442741,-3.5419848,-33.6259537,-1.5729824,10.2998028,2.0278785,-10.3816795,-21.6335869,-1.7557251
6010,-2.4516499,3.4883339,-0.5410868,57.6793900,-3.7404580,-30.0458012,-1.1324517,10.0460186,2.2337787,-16.5801525,-19.8931293,2.9541984
6020,-3.4141142,3.5936785,-0.5099624,59.9465637,-11.3435116,-21.9923668,-0.8068419,9.9334917,2.6886747,-20.1297703,-16.1221371,6.8702292
6030,-3.4787574,3.5457945,-0.1843526,68.3282471,-20.7099228,-12.7251911,-0.4788379,9.7180147,3.0142846,-21.2213745,-11.8778629,10.1526718
6040,-3.1770895,3.4667864,-0.3208214,80.9389343,-23.5496178,-4.6412215,-0.1484398,9.4905672,3.4619980,-19.6793900,-5.9389315,11.1526718
6050,-2.9711890,3.4452386,-0.6967092,93.3053436,-20.2290077,0.3206107,-0.0646431,9.3876171,3.5601597,-16.4809170,0.9083970,12.0992365
6060,-2.9783716,3.6535332,-1.2808913,101.2442780,-15.1526718,2.8244274,0.1005560,9.2822723,3.6750808,-13.1145039,6.4045801,12.5725193
6070,-3.2608860,4.2281384,-1.5131277,101.3664093,-13.2671757,4.5954199,0.3184272,9.1338329,3.7014170,-10.1374044,11.3816795,12.4427481
6080,-3.8929520,5.1618724,-1.6041069,99.4427490,-13.6641226,7.8778625,0.3878587,9.1074963,3.7421181,-7.4656487,14.8244276,11.8549614
6090,-4.5872669,5.7915444,-1.7429699,93.5877838,-12.9618320,14.5496187,0.4333483,9.0021524,3.7923961,-5.0763359,16.4122143,10.4732828
6100,-4.7141590,7.1921453,-3.4667864,83.6106873,0.9694657,36.3129768,0.3663110,8.9901810,3.7085996,-3.0687022,16.4274807,7.3282442
6110,-7.4555058,7.7523856,-10.7211800,21.3053436,9.5267172,115.6641235,0.5961532,9.2655134,3.4380560,-13.7862597,2.3511450,-4.1145039
6120,-7.1131368,7.3812861,-9.6844959,14.8702288,-33.8167953,130.1450348,0.6560079,9.3205795,3.4811516,-16.7786255,-2.2748091,-6.4503818
6130,-6.0165982,7.4315639,-8.8848372,22.3664131,-73.4656525,139.5725250,0.8523315,9.4307127,3.6774750,-18.8549614,-5.8396945,-9.3053436
6140,-4.7811961,7.3860745,-7.8242111,39.6259537,-87.3053436,142.8854980,0.9576758,9.5408449,3.8666160,-19.7480907,-6.5190840,-11.9694653
6150,-3.1483591,7.5728211,-7.3142486,59.0610695,-75.2824402,139.4580078,0.8355721,9.7826586,3.9935081,-19.5496178,-5.7557254,-15.0000000
6160,-2.5234756,8.0157461,-7.6398587,72.7938919,-46.8473282,132.8320618,0.8188128,9.8257532,4.3191175,-17.2213745,-5.1679387,-17.0534344
6170,-3.0956869,8.2096758,-8.7986460,75.2137375,-21.2213745,128.8396912,0.6919208,9.9694052,4.4938936,-12.5267172,-4.0381680,-19.9236641
6180,-4.0461802,8.1163025,-9.7706871,67.2824402,-4.6717558,129.3358765,0.3615226,10.2184010,4.6279683,-6.4885497,-1.9465649,-21.7022896
6190,-4.8195033,7.6973190,-10.4027529,54.1450386,-2.1221373,133.6717529,0.0670373,10.2519188,4.3598189,-1.1374046,0.5801527,-20.7557259
6200,-6.0668759,6.9790621,-10.2878323,40.7251892,-9.9083967,144.4122162,-0.0502780,10.2471304,3.9480183,2.4427481,2.9160306,-18.9083977
6210,-6.7923155,6.6821828,-9.3469152,31.6106873,-20.5954189,163.2900696,-0.2011119,10.3309278,3.6846576,4.8396945,4.6870227,-16.3587780
6220,-6.4882536,6.7228842,-8.3150196,29.8931293,-30.9694653,185.6870270,-0.3447633,10.3572636,3.4643922,5.6030536,5.5801525,-14.7099237
6230,-6.3374195,6.5026188,-7.6111283,40.2900772,-29.2519093,203.0839691,-0.5410868,10.3405046,3.3470769,6.3893127,5.6946564,-13.1908398
6240,-6.2320752,6.2081332,-7.4267755,56.0000000,-22.6412220,216.2061005,-0.7302278,10.3285332,3.3805954,7.1832061,6.5954199,-10.7633591
6250,-6.0956063,6.0333576,-7.3334022,71.9083939,-16.5801525,230.5801544,-0.8475431,10.2471304,3.3997490,8.4198475,7.6335878,-8.3816795
6260,-5.9663200,5.6383162,-7.6518297,84.3969498,-6.5954199,250.1297760,-0.9289455,10.2686787,3.3351059,9.4503813,8.0839691,-5.1984735
6270,-4.9799142,4.9440012,-7.9894104,92.0457993,7.1526718,250.1297760,-0.9720409,10.2375546,3.1962428,10.2366409,8.1755724,-2.1526718
6280,-3.8953462,4.9679432,-8.3676920,95.4961853,27.0000000,250.1297760,-0.8619082,10.1082678,3.1387823,10.8167934,7.5343513,1.0000000
6290,-3.2369442,4.8147149,-8.6526003,93.6030502,46.8091621,250.1297760,-0.5219333,10.0603838,3.0166788,10.8396950,6.0610685,3.4351146
6300,-2.1020982,5.2911587,-8.8489246,86.2290039,56.8015251,250.1297760,-0.1963235,10.0651722,2.8873925,10.4274807,5.8931298,4.7709923
6310,-0.7541697,6.1482787,-9.0189114,64.1603088,40.7862587,250.1297760,0.3088504,9.8592720,2.4731977,6.0763359,6.1755724,7.9083967
6320,-0.0598547,5.6766233,-7.8457589,50.7251892,11.7786255,250.1297760,0.6248835,9.8257532,2.3894010,2.0229008,3.9389312,9.2442751
6330,3.1315999,2.0997043,-4.9535780,45.3664131,-34.2900772,250.1297760,1.2425843,9.7443514,2.6072724,-7.6793895,-0.9923664,10.0839691
6340,6.0740585,-0.5291159,-3.3973548,45.2137413,-49.1755714,243.3664093,1.4436963,9.7754755,2.7868366,-12.0381680,-3.4045801,8.9923668
6350,9.9765873,-3.5673423,-1.3598996,47.0610695,-67.3969498,190.4351196,1.6328372,9.6892843,2.9975252,-15.4656487,-4.7862597,8.0916033
6360,15.5406837,-6.8497758,1.4652439,52.4274826,-86.6488571,116.5038147,1.7573351,9.5767574,3.2560976,-17.6717548,-6.1908398,6.0610685
6370,19.6126022,-10.4338779,4.5226240,63.0763359,-98.1755753,29.0152664,1.7046629,9.4690189,3.5098817,-18.9083977,-8.1374044,3.2977099
6380,19.6126022,-16.1344433,4.9392128,76.9618301,-72.0381699,-50.4809151,1.6232605,9.4522600,3.6990228,-19.1221371,-9.7251911,0.0229008
6390,19.6126022,-19.6131992,-1.0103480,66.4885483,8.5496187,-70.8244247,1.4460905,9.3493099,3.8857694,-17.4503822,-10.5038166,-3.4122138
6400,19.6126022,-19.6131992,-6.0956063,10.3740454,166.8931274,6.7633586,1.0582317,9.1984758,4.1108232,-14.5648851,-9.6946564,-7.1526718
6410,17.5877151,-16.8263626,-8.6837254,-78.2442780,250.1297760,159.0381622,0.8307837,9.0763721,4.0413918,-10.5114508,-7.5572519,-10.0305347
6420,19.6126022,-0.7350162,-5.4946647,-175.3587799,250.1297760,250.1297760,0.3447633,8.7531567,3.9216824,-5.2366414,-4.2061067,-13.1374044
6430,19.6126022,15.4520988,2.2768741,-232.8015289,176.9389343,250.1297760,-0.2035061,8.4107876,3.5242469,0.2671756,2.1068702,-15.1374044
6440,19.6126022,19.6126022,9.8760319,-228.3893127,30.0610695,250.1297760,-0.6440369,8.2647419,3.0813217,5.1908398,10.0229006,-16.1832066
6450,19.6126022,18.8422718,13.3883076,-166.6335907,-58.0076332,91.6335907,-1.1683644,7.9822278,2.7581062,8.5877867,18.9083977,-17.6641216
6460,19.6126022,10.5799236,13.3571825,-59.4503822,-17.9847336,-132.9541931,-1.8195840,7.8074517,2.2768741,8.4580154,25.9083977,-17.0305347
6470,19.6126022,-0.0933734,7.1921453,38.7404594,64.3282471,-250.1374054,-2.4923513,7.6781654,2.2098370,6.0458016,26.6717548,-16.0763359
6480,19.6126022,-7.3764977,-2.7581062,87.8778610,132.8473358,-250.1374054,-2.8993635,7.8720951,2.1260402,1.6641221,21.6946564,-13.4732828
6490,15.1121235,-10.7235746,-9.2631187,91.9083939,141.6030579,-250.1374054,-2.9352763,8.3317795,2.2194135,-6.6946564,10.8702288,-10.8091602
6500,9.8449068,-9.8449068,-11.7315283,58.3969460,73.3282471,-250.1374054,-2.7317703,8.3509331,2.2481439,-14.8625956,-4.5648856,-6.8091602
6510,9.0380650,-7.3214312,-11.2479019,4.1755724,-11.2748089,-250.1374054,-2.0757623,8.5640154,2.3582766,-22.1603050,-19.3435116,-2.7175572
6520,12.0523500,-6.6462698,-7.9319496,-39.2366409,-63.9618340,-250.1374054,-0.9552816,8.5664101,2.6407909,-27.7557259,-28.3282452,0.1526718
6530,14.3531656,-6.6582408,-4.8506279,-62.2900772,-93.9007645,-250.1374054,0.0766141,8.6645718,2.6455793,-31.8854961,-32.8015251,-1.3511450
6540,14.9373484,-6.5385313,-3.3422885,-73.8167953,-80.2290039,-250.1374054,0.6344602,8.7100611,2.9496415,-33.5496178,-32.5190849,-5.6870227
6550,12.7442703,-5.7747850,-4.0270267,-83.7404556,-26.0610695,-250.1374054,0.8643024,9.0093346,3.5242469,-31.6259537,-26.7251911,-10.4122133
6560,7.7260494,-4.1395535,-5.3318601,-92.7633591,41.8549614,-250.1374054,0.9385223,9.2296000,3.9911139,-26.9389305,-16.4961834,-13.3282442
6570,2.4755919,-1.4604555,-6.1554613,-94.5648880,92.7328262,-250.1374054,0.8283895,9.3684635,4.3263001,-18.6030540,-4.9618320,-15.8778629
6580,-1.6232605,2.4564383,-6.2823529,-90.1145020,104.6946564,-247.9084015,0.4644727,9.5791521,4.5202298,-9.9160309,4.5496182,-17.4732819
6590,-2.1475880,4.8985114,-6.6247220,-80.1832047,89.9160309,-207.2748108,0.2106887,9.7467451,4.4220681,-2.5725191,10.6564884,-19.5419846
6600,-0.1628049,5.5760674,-7.2376347,-63.5496178,64.1679382,-172.0610657,-0.1197095,9.9765873,4.1419477,2.0610688,12.4885492,-21.8625946
6610,1.6041069,6.1794028,-7.8553357,-42.7938919,42.6717567,-149.6946564,-0.3710994,10.3907824,3.8881636,3.5267177,10.4961834,-22.3740463
6620,0.9935886,8.7076674,-8.9925756,-26.1297703,45.0610695,-133.9160309,-0.8906385,10.6780853,3.7636659,2.1908398,6.7404580,-21.9160309
6630,1.0318956,10.9605989,-10.0508070,-20.7938938,50.4885483,-125.5190811,-1.2186425,10.7163916,3.4907281,-0.9007633,2.4427481,-19.3740463
6640,1.3311694,12.0379848,-10.9653873,-26.5954189,42.1984749,-131.6946564,-1.4029950,10.6110477,3.4548154,-4.5190840,-1.8549619,-15.4427481
6650,1.8124014,11.8153248,-10.6038647,-37.6564903,21.1145039,-152.0305328,-1.4389079,10.4841557,3.4212968,-8.4198475,-5.4351144,-10.8625956
6660,2.5019281,11.1928358,-9.3588867,-48.1145020,1.5877863,-175.6183167,-1.2282192,10.2950144,3.4332676,-11.1832066,-7.3129773,-5.3893127
6670,2.6814921,10.6038647,-8.0061693,-53.4656487,-10.8244276,-190.9923706,-0.7685348,10.1489687,3.6822634,-13.0610685,-7.4961834,-1.7633588
6680,1.5969244,10.7714586,-6.7109132,-55.1908379,-7.5267177,-196.9770966,-0.4237715,10.0364418,4.1227942,-12.7633591,-6.9389315,1.6641221
6690,0.1077385,11.1904411,-5.9615316,-56.8396950,3.6870229,-195.0381622,-0.1101327,10.1346035,4.5872669,-10.8778629,-7.0076337,3.4122138
6700,-1.3287752,11.3197279,-5.4898763,-59.4961815,18.9465656,-190.7786255,0.0119709,10.2016411,4.8841467,-6.8702292,-6.3740458,4.9083967
6710,-2.4229198,10.9629936,-5.4946647,-65.1068726,27.5038166,-186.4198456,0.0191535,10.3117743,4.9392128,-2.9007633,-5.4427481,7.3206105
6720,-3.3590479,10.2614956,-5.6287394,-74.1984711,28.9236641,-179.3511505,-0.2082945,10.3476868,5.0158267,0.0229008,-5.3282442,10.7404585
6730,-3.2680686,9.6246414,-5.0014620,-84.7328262,19.7557259,-172.0229034,-0.2561783,10.1226330,4.8266859,1.6335878,-6.2442746,15.0992365
6740,-3.0861101,9.0045462,-3.4715748,-90.8931274,7.1908398,-166.8702240,-0.0191535,9.9670105,4.6997938,2.1526718,-8.6183205,18.5190830
6750,-3.3853838,8.4059992,-2.1356170,-85.8396912,2.7480917,-163.1908417,0.3782819,9.9191265,4.8362627,2.5954199,-10.4885492,19.3282452
6760,-4.2089849,7.6015515,-1.0055596,-70.4809189,1.6641221,-156.9694672,0.8379663,10.0651722,4.9296360,4.0305343,-9.5267172,18.7709923
6770,-4.9966736,7.4459291,-0.0909792,-50.2519073,-3.3816793,-144.9389343,1.1707586,10.2519188,4.9320302,5.8625956,-8.2824430,15.2595415
6780,-4.9918852,7.2711535,0.9792235,-24.3587780,-9.7175570,-129.2519073,1.1085097,10.3764172,5.2863703,8.3358774,-7.0458016,11.2595415
6790,-4.6303625,6.4978304,1.1779412,5.8015265,-7.9770994,-117.3358765,0.6655847,10.5344334,5.3558016,10.3435116,-8.9465647,9.3053436
6800,-4.5369892,5.6598639,0.5937590,33.8702278,1.8625954,-108.4580154,0.5410868,10.5416164,5.4084740,13.4198475,-9.0839691,9.1603050
6810,-4.8338685,5.6478930,-0.0287303,54.9465637,9.1297712,-96.3282471,0.4429250,10.8097658,5.5976148,17.8854961,-4.2748094,9.7938929
6820,-2.6814921,10.8720140,-6.0572991,10.6030531,12.9694653,-17.1374054,-0.4333483,9.3133974,-0.2489957,108.2137375,10.9694653,20.0458012
6830,-3.2537034,10.4290895,-5.9136481,24.5190830,-1.0992366,-23.2977104,-0.0814024,8.5927458,-0.7876883,95.8549652,14.5572519,19.3816795
6840,-3.5290353,9.6868906,-5.3725610,35.5038185,-15.2366409,-21.3816795,0.1340746,7.9965930,-1.0127422,81.5419846,19.0610695,15.3816795
6850,-3.5098817,8.9686337,-4.9918852,44.5267181,-25.7557259,-14.7480917,-0.0670373,7.5584559,-0.6009415,66.7633591,22.1068707,10.0305347
6860,-3.3638363,8.5185261,-3.8785870,53.0076332,-36.2290077,-6.9312978,-0.8499373,7.1011658,0.1412572,54.2061081,22.6717548,6.3282442
6870,-2.9616125,8.1282730,-2.7844424,63.2366409,-45.7251892,-0.8244275,-1.4652439,6.8258343,0.9121862,45.2824440,21.1755733,5.5190840
6880,-2.4636209,7.5728211,-2.2816625,74.7480927,-46.2748108,2.2442749,-1.8674678,6.6079631,1.5921360,40.2519073,21.1526718,8.8931293
6890,-1.9871773,6.7755561,-2.2002602,83.0610657,-38.7404594,2.7251909,-1.7549409,6.2464404,1.9680238,37.4580154,22.2595425,13.0458012
6900,-1.7046629,6.3757267,-2.3199697,85.0305328,-25.6412220,2.0992367,-1.5490406,5.7149301,2.2122312,35.8473282,22.9083977,14.4274807
6910,-1.6855093,5.9711084,-2.1356170,81.4503784,-14.8320608,1.4961832,-1.4436963,5.4611464,2.0278785,34.3969460,24.4885502,14.4809160
6920,-1.5825592,5.5090299,-2.1260402,73.0916061,-1.5038168,2.0687022,-1.2665262,5.1259594,1.9823889,31.7709923,25.6412220,13.2824430
6930,-1.4556671,5.1403246,-2.0925217,60.9312973,14.5801525,4.1908398,-1.0271072,4.9104824,1.7621235,28.5572510,24.4274807,11.0687027
6940,-0.9193687,4.8530221,-2.0757623,12.1908398,52.9847336,9.8244276,-0.8331779,4.3981261,0.7565638,9.8625956,9.5648851,-3.3053436
6950,-1.3934183,4.6495161,-2.2912393,-10.7022905,52.4351158,4.6641221,-0.7757174,5.0110383,0.2178712,-13.6717558,-8.2213745,-8.1145039
6960,-1.8770446,4.1563129,-2.3941894,-18.2213745,45.2595406,4.4122138,-0.7924767,5.4443870,0.3926471,-27.8625946,-15.9083967,-10.6488552
6970,-2.3391230,4.3885493,-2.4731977,-22.4503822,34.2977104,11.2671757,-0.7302278,6.0046272,0.8259954,-41.2671738,-22.2213745,-14.1068707
6980,-2.7174051,4.1347651,-2.6240315,-22.2671757,23.9847336,24.7022896,-0.6703730,6.8569584,1.3886299,-51.6412201,-27.6335869,-18.9847336
6990,-2.4564383,3.7349355,-3.0525916,-18.7251911,19.5801525,40.6183205,-0.2777260,8.1186962,1.9991482,-57.3053436,-30.4198475,-22.8473282
7000,-2.4708035,3.6583214,-3.8522508,-13.0152674,22.0992374,57.4427490,-0.3064562,9.5049324,2.7078283,-58.7328262,-30.1450386,-26.7938938
7010,-3.0071020,3.7828193,-4.9128766,-5.9389315,29.7557259,74.6717529,-0.7110743,10.5823174,3.1387823,-55.9236641,-30.3511448,-28.9160309
7020,-4.0533628,4.1012464,-6.3254485,-1.0458015,35.6946564,92.5038147,-0.8547257,11.6980095,3.4787574,-49.0992355,-30.5267181,-26.6564884
7030,-4.8985114,4.3909435,-7.5464849,1.6030535,39.9389305,107.0534363,-0.7613522,12.6197729,3.2010312,-40.2824440,-28.0992374,-21.5267181
7040,-6.1650376,5.4300218,-8.7483683,0.5038168,43.5343513,120.5419846,-0.6248835,13.1393118,2.7533178,-31.6870232,-22.0152664,-15.9923668
7050,-7.7212610,6.8928714,-9.8065996,-3.3587787,44.2595406,136.7557220,-0.4955972,13.2638092,2.0973101,-24.8320618,-13.9923668,-11.0839691
7060,-9.0979195,8.2120695,-10.9366570,-9.0687027,36.3129768,154.0915985,-0.7565638,13.2135315,1.7645177,-20.6717548,-9.6259546,-5.6259542
7070,-9.7658987,8.5759869,-11.3891592,-13.6946564,16.5496178,167.5877838,-0.3399749,13.2614155,1.5442522,-16.2900772,-10.5725193,-3.5648854
7080,-10.6565371,8.6621771,-10.6230183,-11.9160309,-14.4503813,180.9160309,-0.4955972,13.0698805,1.1683644,-13.2213745,-7.7786260,-4.0916033
7090,-12.1361465,9.0476418,-9.0189114,1.4809160,-58.6259537,204.9770966,-0.9026094,12.5407648,0.4908088,-12.3969469,-6.6412215,-2.3664122
7100,-10.9055328,8.6214762,-7.9558916,27.7557259,-73.8778610,238.1832123,-1.1899122,12.3085279,0.0957676,-14.2137403,-6.7022901,0.8091603
7110,-9.3325500,8.4682484,-7.6853480,61.8396950,-62.6793900,250.1297760,-1.2593436,12.0619268,-0.1340746,-19.2824421,-7.4732823,5.8473282
7120,-8.1929159,9.3253679,-8.2192526,94.1450348,-42.8854980,250.1297760,-1.1947005,11.6788559,-0.0191535,-25.2900772,-8.4427481,11.0152674
7130,-6.5600791,10.1178446,-8.7483683,118.7633591,-19.9007626,250.1297760,-1.1013272,11.1353750,0.3375807,-30.8931293,-8.5954199,15.8854961
7140,-5.0014620,10.9031391,-9.5169029,129.0686951,3.3511450,250.1297760,-0.7972651,10.6373835,0.8044477,-34.3740463,-6.8625956,20.5419846
7150,-3.8642218,12.0715036,-10.0172882,123.0992355,32.6259537,250.1297760,-0.4477134,10.0986910,1.4293311,-35.4045792,-3.0229008,23.8091602
7160,-2.8658447,12.9860840,-9.8616667,106.4885483,59.8167953,250.1297760,-0.0718257,9.7658987,1.8387375,-33.7938919,2.3969467,26.7404575
7170,-2.1835008,13.0411501,-9.5839405,88.1679382,83.1297684,250.1297760,0.2968795,9.4402885,2.2457497,-31.2671757,9.8778629,28.5496178
7180,-1.4843974,12.1840305,-9.0260944,72.8549652,90.0076370,250.1297760,0.6584021,9.1912937,2.5234756,-28.0305347,16.1450386,29.2061062
7190,-1.0749911,10.5511932,-7.5488791,64.8854980,73.7938919,250.1297760,1.0390782,9.0452480,2.7748656,-24.5419846,20.3206100,29.0534344
7200,-0.4979914,8.4634600,-5.9280128,69.7709961,33.1679382,250.1297760,1.3694763,9.1074963,2.9017577,-21.0305347,23.9847336,27.7557259
7210,0.0430954,6.5600791,-4.6447277,90.3969498,-1.7022901,250.1297760,1.7238164,9.0404596,2.9280937,-17.8396950,25.8396950,25.1832066
7220,2.0949159,3.3662305,-3.5553713,114.2290039,-30.3664131,250.1297760,1.9440818,8.9949694,3.0094962,-15.3511448,25.9694653,21.1068707
7230,4.8410511,-0.1628049,-2.6623387,138.6793823,-52.3282433,233.0534363,2.2074428,8.8728657,2.9807658,-13.0076332,24.6870232,15.1221371
7240,7.8457589,-3.6200144,-2.1978660,154.0229034,-68.6870193,191.4961853,2.4396791,9.0093346,2.8873925,-11.0152674,22.4580154,6.9160304
7250,11.0731258,-7.3118544,-1.4125718,159.6870270,-85.6946564,141.4885559,2.4588325,9.1841106,2.9472473,-9.4732828,19.7099228,-0.7099237
7260,13.4529505,-11.2311430,-1.1970947,151.6641235,-93.5419846,93.3740463,2.2625091,9.3900108,2.6982515,-9.2595415,16.6946564,-8.7557249
7270,15.9548788,-15.9046001,-0.9552816,128.5419922,-90.4732819,68.9847336,1.9105632,9.5192976,2.6647329,-10.5648851,11.9618320,-13.9770994
7280,17.0585995,-19.0361996,-1.6017127,87.3358765,-55.0076332,90.1374054,1.4867916,9.7204094,2.5450234,-12.1450386,6.8320613,-18.0992374
7290,17.2190113,-18.9045200,-0.8858501,33.7938919,27.7786255,155.4122162,1.1851238,9.8473015,2.6000898,-13.5801525,3.0381680,-20.8854961
7300,19.1247845,-16.8335457,0.1508339,-5.4198475,129.6946564,240.5038147,0.8499373,9.8832140,2.6024840,-14.6030531,1.7862595,-21.5038166
7310,19.6126022,-12.9190464,-1.1276633,-20.0687027,215.1450348,250.1297760,0.5602403,9.9334917,2.5976956,-15.7099237,0.8778626,-20.5801525
7320,19.6126022,-6.3110833,-4.0892754,-31.6946564,250.1297760,250.1297760,0.3303981,10.0196829,2.6647329,-15.8320608,-0.1374046,-19.2671757
7330,19.6126022,1.5466464,13.1728306,-182.0152740,6.7099237,-250.1374054,0.3998296,9.8544836,2.2385671,-16.0610695,0.5038168,0.1755725
7340,19.1654873,-7.5153608,8.3293848,-113.2213745,68.0916061,-250.1374054,0.7374104,9.6916790,2.1523764,-17.0992374,0.1832061,1.9007634
7350,14.9948082,-11.0420017,3.4691806,-62.6641235,99.7557220,-250.1374054,1.3168042,9.6294298,2.1667414,-18.4732819,-0.5801527,2.1526718
7360,12.0882626,-10.5727406,0.2106887,-24.4809170,83.3664093,-250.1374054,1.6902977,9.7443514,2.3726418,-19.3358784,-1.7251909,1.7175573
7370,11.5783005,-8.9877872,-1.4365137,0.8549618,37.8015251,-250.1374054,2.1140692,10.0508070,2.3941894,-20.0610695,-3.9770992,-0.4351145
7380,12.0068598,-7.6853480,-3.0932927,14.5954199,-2.2671757,-238.1984711,2.3822186,10.3189564,2.4301023,-21.1450386,-5.8167939,-2.3282442
7390,11.7842007,-6.7659793,-4.3215117,13.1297712,-26.8702297,-237.7022858,2.4205256,10.4410601,2.4588325,-23.0458012,-7.5419846,-4.2748094
7400,10.9198980,-5.2839761,-6.0908179,-6.9389315,-29.9160309,-239.8167877,2.1236460,10.4266949,2.4923513,-25.7251911,-10.0229006,-6.6030536
7410,9.7251978,-3.4380560,-7.9439206,-47.8549614,-8.7709923,-237.8015289,1.8028246,10.3309278,2.6455793,-28.5801525,-13.2061071,-6.5190840
7420,7.2519999,-1.4772149,-8.4059992,-98.6717529,21.8854961,-228.2671814,1.4939742,10.2878323,3.0286496,-30.4427490,-16.0076332,-6.8778625
7430,4.6471219,0.7948709,-7.7811155,-136.4961853,47.9847336,-213.4198456,1.2401901,10.0627785,3.2991931,-31.0763359,-16.7938938,-7.2061067
7440,2.7820482,2.5474176,-6.6366930,-147.9618378,58.5114517,-197.3816833,0.8810617,9.9023676,3.5817075,-30.0458012,-15.1603050,-6.3511453
7450,2.1978660,3.9887197,-6.4691000,-135.9694672,56.0381660,-183.0686951,0.5243275,9.6677370,3.8809812,-27.0687027,-12.3893127,-6.0916033
7460,1.9225341,5.0373745,-7.5273318,-112.6564865,45.1145020,-175.3206177,0.2537841,9.4594421,4.0916696,-21.5572510,-8.4580154,-6.4580154
7470,0.9241571,5.8657641,-9.5456333,-97.3587799,32.9618340,-173.1526642,-0.0718257,9.3493099,4.0653338,-15.6793890,-2.7709923,-7.6717558
7480,-0.7493813,7.5297260,-11.0276365,-100.2900772,20.0229015,-172.7328186,-0.3280039,9.2008705,3.9815371,-9.9923668,3.9694657,-8.5725193
7490,-1.5873476,8.1354561,-11.4131012,-113.9083939,3.6259542,-176.6259613,-0.8714849,8.7340031,3.7612717,-4.1526718,12.1832066,-8.6488552
7500,-2.1212518,7.4555058,-10.7594872,-127.8931274,-6.4122138,-186.4198456,-1.6591733,8.4538832,3.6032550,1.7404580,19.2595425,-8.4732828
7510,-2.2888451,6.9407554,-9.2894554,-140.0381622,-7.4809160,-192.9236603,-1.5394639,8.3413563,3.2297616,6.0839696,26.4122143,-9.2366409
7520,-3.8402798,7.6877422,-7.8888540,-150.2977142,-2.3435113,-186.5877838,-2.0422437,8.2144642,2.6527619,5.5419846,28.7480907,-13.3816795
7530,-5.1786318,9.1841106,-7.1346846,-162.3511505,8.7022905,-162.4809113,-2.8658447,8.1522150,2.1236460,0.8015267,24.4427490,-13.3511448
7540,-5.2911587,11.4873209,-6.0884237,-177.6412201,17.6946564,-129.7938995,-3.1459649,8.2551651,2.0709739,-6.3129773,17.0305347,-10.2061071
7550,-3.3135581,14.1448717,-3.9312592,-187.8854980,14.0687027,-109.9923630,-2.9520357,8.2910776,2.0997043,-15.2061071,6.8549619,-7.3129773
7560,-1.4436963,15.2845058,-1.4891858,-185.4351196,7.7099237,-111.8549652,-2.5617826,8.1186962,2.4109488,-22.9694653,-4.7862597,-4.7633586
7570,-0.6584021,16.9173431,1.0630201,-171.1068726,2.4427481,-116.6412201,-2.0278785,8.0325060,2.6407909,-29.8549614,-16.7480907,-4.0610685
7580,-1.5155219,18.2078114,3.2991931,-144.2824402,4.0305343,-112.3129807,-1.3335636,7.9104018,3.1699069,-33.0381660,-25.5114498,-4.5343513
7590,-2.2792683,19.0601425,4.6064205,-108.5038147,10.9541988,-98.4198456,-0.5267217,7.9487090,3.4691806,-31.8702297,-27.9770985,-6.4809160
7600,-2.6527619,19.6126022,5.4491754,-69.4580154,15.2748089,-76.2290039,0.3303981,8.1857338,3.6535332,-27.9618320,-24.0839691,-10.4198475
7610,-1.7908537,19.6126022,6.2320752,-27.1526718,8.1526718,-54.9007645,0.8451489,8.5065556,3.6104376,-22.8396950,-17.4274807,-15.4732828
7620,-0.4692611,19.6126022,7.1035600,19.1679382,-7.8244276,-43.4122124,0.8236012,8.7244263,3.6176202,-16.7099228,-9.8320608,-20.0458012
7630,0.4094064,19.6126022,7.3836803,64.2671738,-29.0610695,-40.0305328,0.6607963,9.0835552,3.5817075,-11.1832066,-3.0152671,-23.9541988
7640,1.3598996,18.5310268,7.3190370,105.0229034,-46.7022896,-41.4656487,0.4644727,9.5240860,3.4380560,-7.0458016,1.9770992,-25.5114498
7650,2.2289903,16.6108856,6.6797886,140.3969421,-50.4580154,-49.9007645,0.1795642,9.7706871,3.2920105,-5.4427481,4.4122138,-25.3664131
7660,2.5426292,14.3411951,4.9751258,167.6488495,-36.8396950,-67.5801544,-0.0646431,10.0747490,2.9807658,-6.7404580,4.1679387,-24.1984730
7670,1.2330076,12.0571384,2.6168492,179.3435059,-23.1679382,-85.7022934,-0.1747758,10.2184010,2.7868366,-10.2519083,2.5725191,-22.2137413
7680,-0.1628049,10.5392218,1.0510491,175.4885559,-19.0381680,-93.8854980,-0.1580165,10.3261395,2.8514795,-15.0381680,1.0534351,-21.0381680
7690,-1.3048333,8.4251528,-0.3399749,166.9694672,-14.3511448,-92.7862625,-0.1819584,10.2638903,2.8826041,-19.9770985,0.9847328,-18.9770985
7700,-2.2170193,6.4020624,-1.1707586,158.7786255,-12.7175570,-90.2519073,-0.2178712,10.2926207,3.1890604,-23.9007626,0.3893130,-17.0534344
7710,-3.0310438,5.2432747,-1.8866212,150.0305328,-17.6335869,-85.1374054,-0.1963235,10.2064295,3.7038112,-25.7938938,0.1297710,-16.4122143
7720,-3.4332676,4.2688398,-2.1763182,142.7251892,-21.7862587,-77.3893127,-0.4189832,10.1369982,4.2448978,-25.6183205,0.9389313,-14.2442751
7730,-3.3590479,3.2417326,-2.4971397,138.3206177,-23.6946564,-72.2977066,-0.4764437,10.1729107,4.5465660,-23.3129768,1.3206106,-11.2290077
7740,-3.2225790,2.3103929,-3.1220231,132.7938995,-21.3282452,-71.4427490,-0.3926471,10.3333216,4.7404952,-20.1603050,0.6793893,-6.3129773
7750,-3.4452386,1.6735384,-3.8785870,123.1297684,-18.0610695,-71.6870193,-0.1747758,10.5320396,5.0684991,-16.4503822,0.3435115,-1.8396946
7760,-3.7900019,1.1803354,-4.7476778,108.9312973,-10.1221371,-68.3893127,0.0335187,10.8600435,5.3198891,-12.4885492,-0.8625954,2.1603053
7770,-4.3047528,0.7134684,-5.5904322,90.9770966,-0.0610687,-62.2137413,0.1939293,10.9677820,5.1355362,-9.5877867,-1.4351145,5.5267177
7780,-5.0732875,0.6655847,-6.2895355,69.4656525,6.8778625,-54.6106873,0.0646431,10.6373835,4.9631548,-8.7251911,-1.4274809,8.8396950
7790,-5.7101417,0.8068419,-6.9024482,45.1832047,10.6488552,-44.7022896,-0.0957676,10.0747490,4.8386569,-8.4961834,-1.8625954,13.4809160
7800,-5.7508430,0.9361281,-7.4100165,18.6335869,8.5114508,-35.4122124,0.0119709,9.7922344,4.8554163,-8.1068707,-2.1755726,17.6030540
7810,-5.3749552,0.8571198,-7.5656385,-9.6641226,0.7480916,-28.9312973,0.3639168,9.7563219,5.3366485,-6.9847326,-1.7862595,19.7175579
7820,-5.2097564,0.6775556,-7.1562324,-34.9465637,-11.3740454,-24.8396950,0.7278336,9.8281479,5.6215568,-4.5114503,-0.3587786,19.1908398
7830,-4.9176650,0.8140244,-6.2823529,-56.8167953,-24.2519093,-15.6793890,0.9097920,10.1250277,5.9806852,-0.9923664,0.5496183,16.7175579
7840,-4.3813667,1.3359578,-5.1235652,-74.2061081,-29.2061062,0.4198473,0.8020535,10.2591019,6.2871413,2.6946564,-1.6946565,14.2824430
7850,-3.5338237,2.5522060,-3.4572096,-85.1145020,-27.3740463,17.6030540,0.7326220,10.1920643,6.3853035,6.4809160,-5.1068702,11.2519083
7860,-2.1404054,4.0773048,-1.7429699,-87.0457993,-23.7786255,32.0916023,0.7398046,10.2399483,6.7109132,11.4274807,-11.0076332,6.9389315
7870,0.0742199,6.5217719,-0.3878587,-80.8549652,-16.6412220,40.1908379,0.4141948,10.2495251,7.0628591,18.6259537,-15.0534353,1.4274809
7880,1.8435259,9.5576038,1.3287752,-61.8396950,-14.4198475,38.2519073,-0.2106887,10.2112179,7.1753860,27.1603050,-16.1450386,-2.1068702
7890,1.7980363,11.8201132,2.2409613,-36.9465637,-27.1984730,33.2519073,-0.6153067,10.2064295,7.1322904,35.5190849,-20.2061062,-5.8549619
7900,1.6543850,13.2590208,2.5258698,-12.7022905,-46.2290077,30.6030540,-0.6392486,10.2830439,6.9742737,43.9083977,-23.9236641,-11.5419846
7910,2.0111191,14.1376886,2.6767037,5.9923663,-55.2824440,28.8473282,-1.0917504,10.0962973,6.9910331,52.7480927,-26.9312973,-20.4580154
7920,1.9584470,14.0107965,2.1906834,21.2366409,-43.4427490,23.5496178,-2.0757623,10.0460186,6.7420373,61.0992355,-26.1603050,-25.1221371
7930,0.9648584,13.1560707,0.4261657,30.2519093,-20.0763359,15.8854961,-3.0932927,10.2088242,6.5624733,67.9694672,-25.9923668,-23.9312973
7940,-0.4620786,12.2199430,-1.5394639,28.4503822,3.7404580,7.6793895,-3.7085996,10.1034794,6.1458845,73.0763321,-26.0381680,-16.6259537
7950,-2.3989778,10.9534168,-3.6343796,17.1603050,18.5343513,6.5114503,-3.9719603,9.9574337,5.6407104,77.5877838,-27.5801525,-6.5725193
7960,-4.1682839,9.8449068,-4.9870968,2.3206108,23.8167934,13.5419846,-3.8714044,9.7180147,5.2241216,81.1679382,-26.6717548,5.5114503
7970,-5.1762376,8.5472565,-5.8035154,-10.6259546,22.7099228,25.0305347,-3.2872221,9.4522600,4.5417776,83.7480927,-23.0458012,15.6641226
7980,-6.1243367,7.2831244,-6.2679882,-16.8167934,14.6335878,40.0228996,-2.5713594,9.1625633,3.8929520,85.1374054,-17.4045811,24.8702297
7990,-7.3621325,6.3589673,-6.4691000,-16.2977104,2.4274809,62.7251892,-1.8219782,8.8848372,3.0645626,84.2900772,-11.9465647,31.6641216
8000,-8.1857338,5.7460546,-7.1298962,-10.5954199,-11.9847326,94.6946564,-1.1947005,8.4419117,2.3678534,81.5801544,-8.7404585,36.4580154
8010,-7.9798336,5.3558016,-7.8289995,-3.5725191,-29.5114498,131.5954132,-0.5985473,8.2072811,1.7669119,77.2137375,-6.6183205,39.9694672
8020,-6.0812411,5.3055239,-7.9367380,5.7786260,-50.4122124,164.5496216,0.0526722,7.8649125,1.3383518,71.9007645,-5.8244276,41.4580154
8030,-4.7261300,5.5329719,-7.7643566,22.2442741,-72.3129807,185.2366486,0.6560079,7.5823979,0.8403605,66.0381699,-5.5496182,39.9312973
8040,-4.2832050,5.7915444,-8.2934723,46.1832047,-93.7099228,199.9770966,1.0510491,7.4914188,0.4381367,59.2824440,-5.2595420,36.7557259
8050,-3.4332676,6.1291251,-9.8688488,66.9770966,-104.4122162,212.1679382,1.1180865,7.4148049,0.0430954,51.1526718,-5.2290077,33.0534363
8060,-2.8466914,6.6342988,-10.8815908,74.0076370,-115.9923630,216.0458069,1.5490406,7.2160869,-0.0311245,42.7709923,-8.7099237,29.1908398
8070,-2.1092808,7.6063399,-12.0427732,65.8702316,-125.1679382,213.7404633,1.7860653,7.2208753,-0.4979914,32.9541969,-11.9312973,23.7099228
8080,-2.4755919,8.2479830,-12.6580801,46.1984749,-132.3664093,208.9923706,1.9440818,7.2041159,-0.5793939,21.6564884,-15.6946564,17.6488552
8090,-2.2002602,9.0189114,-12.6365318,20.3816795,-136.9084015,205.0992432,1.9009864,7.2783360,-0.5003856,10.6412210,-19.0458012,12.5267172
8100,-2.6719155,9.5264797,-11.8296900,-4.5038166,-135.9923706,203.0152740,1.8004304,7.4219875,-0.5003856,0.3435115,-22.0992374,9.3587790
8110,-3.4715748,9.8975792,-10.3333216,-18.9847336,-128.7175598,204.9389343,1.6950861,7.5440907,-0.3710994,-9.2061071,-24.4732819,6.4961834
8120,-4.1778607,10.2710724,-8.4299412,-20.4656487,-123.2213745,209.7022858,1.7453641,7.7811155,-0.0957676,-17.2290077,-25.3587780,4.5419846
8130,-4.3454537,10.6541433,-6.5481081,-4.9312978,-120.6106873,213.7099304,1.8531027,7.9702568,0.2346306,-23.8625946,-24.8244267,2.5801528
8140,-2.1068866,10.7834291,-5.8226686,20.7786255,-109.8244247,208.4809113,1.8507085,8.2288294,0.7637464,-28.4885502,-23.1297703,1.0839695
8150,-0.8499373,11.4466200,-5.9663200,42.9007645,-92.7328262,194.4809113,1.8866212,8.5544386,1.2737088,-30.2519093,-20.4503822,-1.2671756
8160,-1.0917504,11.9063044,-7.5033898,46.9618340,-57.1526718,188.6641235,1.8794388,8.8585014,1.6807210,-29.1374054,-17.3816795,-3.5267177
8170,-0.6057299,13.2446556,-8.1665802,27.0458012,-25.2824421,194.2977142,1.7405758,9.2248116,2.0901275,-25.6564884,-13.0610685,-6.2977099
8180,-0.0526722,13.6444855,-8.3269911,1.6870229,-5.0687022,198.6030579,1.6687500,9.5240860,2.1835008,-21.4122143,-9.5648851,-10.6335878
8190,0.1221037,13.1584654,-7.7954807,-17.3664131,3.3816793,195.4656525,1.5418580,9.8736372,2.1811066,-16.9007626,-5.2290077,-16.0152664
8200,-1.5610116,12.3492289,-6.3350253,-25.8091602,-8.0305347,193.9847260,1.1755470,10.1609402,2.3127871,-12.7099237,0.5114504,-21.1145039
8210,-2.8107784,10.9677820,-4.2305326,-16.3511448,-30.5343513,204.0152740,0.6799498,10.2926207,2.3151813,-9.4274807,6.5419846,-25.5725193
8220,-1.9105632,8.3485384,-2.5929072,10.1679392,-50.0916023,216.8549652,-0.1843526,10.3117743,2.3008161,-8.3435116,12.1526718,-28.3969460
8230,-1.7118455,5.8992829,-2.5641768,42.9083977,-59.1603050,228.0915985,-0.8930327,10.3500814,2.5162930,-9.4656487,16.0687027,-28.6564884
8240,-1.4029950,3.4021432,-2.2218077,70.5725174,-70.9542007,238.7404633,-1.6424140,10.2638903,2.7437410,-11.5038166,18.1679382,-26.9312973
8250,1.3766589,0.5123565,-1.6974803,88.6717529,-95.4045792,242.3282471,-2.0973101,10.1776991,3.1315999,-13.8396950,17.4503822,-24.2824421
8260,6.4283986,-2.0566087,-2.0446377,100.7938919,-104.2748108,226.5038147,-2.3127871,9.9550400,3.4691806,-15.4274807,14.0687027,-19.7709923
8270,11.1210098,-5.5569139,-2.9400647,103.9847336,-85.6870193,192.1908417,-2.0877333,9.7946291,3.8785870,-15.1908398,9.5648851,-14.7175570
8280,15.3611193,-9.0045462,-2.9687948,89.6641235,-60.3664131,153.9084015,-1.4508789,9.6030941,4.0868812,-12.9312973,5.1297708,-11.3816795
8290,19.1702747,-11.5519638,-1.7812769,65.5954208,-40.6793900,113.0687027,-0.8547257,9.3876171,4.2113791,-8.9007635,1.9923664,-11.3358774
8300,19.6126022,-14.3699255,-0.1484398,35.5038185,-15.3435116,72.7175598,-0.4046180,9.3469152,4.0342093,-3.3282442,0.4961832,-12.3206110
8310,19.6126022,-16.2445755,1.5250987,3.7175572,16.3969460,54.8320618,-0.0191535,9.3540983,3.8929520,2.3893130,-0.9389313,-13.5496187
8320,17.3363266,-14.1759958,2.0661855,-28.5801525,76.3969498,88.9007645,0.1532281,9.5599985,3.4979107,8.0992365,-2.7938931,-15.3893127
8330,12.5982246,-8.8537130,1.7621235,-53.7938919,149.6946564,180.2442780,0.2011119,9.6868906,3.1675127,13.5725193,-3.3435113,-17.1832066
8340,13.3811245,-2.3941894,2.3534882,-65.9542007,171.2137451,250.1297760,0.0622489,10.0029240,2.6551561,17.5038166,-2.5267177,-16.8396950
8350,19.6126022,4.2233500,5.1068063,-53.9389305,142.0534363,250.1297760,-0.0071826,10.0005293,1.8076130,18.1374054,-0.7175573,-14.7862597
8360,19.6126022,10.7475166,8.2862902,-17.9770985,80.0152664,250.1297760,0.1316804,10.0579901,1.1923064,14.8473282,0.4122137,-10.6488552
8370,19.6126022,16.2493629,9.6725254,33.4274826,10.5801525,185.3206177,0.3351865,10.0579901,0.9121862,8.2213745,2.1068702,-8.2671757
8380,19.6126022,9.5192976,3.2417326,112.0839691,-57.3893127,-162.5419922,0.6727672,10.2399483,1.1252691,-5.0687022,5.1832061,-6.3893127
8390,19.6126022,4.0102673,-1.3742647,95.7251892,-47.0763359,-250.1374054,0.5171449,10.1681223,1.4939742,-9.5725193,6.3053436,-6.3206105
8400,18.5094795,-1.7238164,-5.1690550,43.2671738,-31.7022896,-250.1374054,0.4884146,10.1848822,1.7094513,-12.7709923,5.3587785,-5.8778625
8410,14.3340120,-5.7604198,-6.7468257,-33.2061081,-32.1755714,-250.1374054,0.4764437,10.0340481,1.8794388,-15.3053436,2.9312978,-5.6488547
8420,12.8304615,-7.7236552,-3.7181761,-92.9542007,-45.0992355,-250.1374054,0.4501076,9.9861641,2.0709739,-16.7633591,-1.0992366,-5.4580154
8430,12.9142580,-7.6207051,0.2633608,-116.6793900,-71.8778610,-250.1374054,0.4860204,9.9861641,2.1068866,-16.9312973,-4.3893127,-5.1832061
8440,14.1089582,-7.2280579,1.9033806,-119.9923630,-71.8244247,-250.1374054,0.5458752,10.0436249,2.1284344,-16.9160309,-6.5038166,-3.7328243
8450,15.0259333,-6.6917596,2.0015423,-113.9618301,-36.1450386,-250.1374054,0.6392486,10.2303715,1.8650736,-17.8931293,-9.8396950,-1.0458015
8460,14.5494890,-5.6981707,0.6895266,-111.1832047,22.3053436,-250.1374054,1.0797794,10.5272512,1.6208663,-21.2442741,-13.4427481,0.8778626
8470,11.7339230,-4.1108232,-0.8666966,-119.4809189,93.6030502,-250.1374054,1.5250987,10.9821472,1.5705882,-27.8091602,-17.8091602,2.0916030
8480,6.6750002,-1.6783268,-2.4564383,-140.0305328,158.3816833,-250.1374054,1.7764885,11.2167778,1.6376256,-36.0687027,-23.0000000,3.6641221
8490,2.1835008,1.8554969,-3.1986370,-158.4809113,195.1221313,-250.1374054,1.9033806,11.1784706,2.0302727,-44.6717567,-27.7862587,4.7633586
8500,-0.8355721,4.7285242,-2.9376705,-158.2671814,191.4885559,-249.8396912,1.6519908,10.8624372,2.7078283,-50.9236641,-31.6259537,4.1068702
8510,-2.3151813,6.6462698,-2.5091105,-135.6488495,163.7404633,-213.9694672,1.2473727,10.4769726,3.3686244,-52.8091621,-34.2900772,4.2748094
8520,-2.6934631,8.1713686,-3.3542595,-95.6335907,147.6564941,-171.5725250,0.7326220,9.9358864,4.2592630,-49.6106873,-33.5801544,2.5954199
8530,-3.9959023,10.1896706,-4.5705075,-49.4351158,147.8931274,-126.8167953,0.2226596,9.5504217,4.8506279,-41.0687027,-30.5496178,1.3816794
8540,-5.6359220,13.2063494,-5.0708933,-6.0000000,133.5038147,-85.9083939,-0.2370248,9.0093346,5.2217274,-27.3358784,-25.5801525,0.0458015
8550,-4.5585365,14.9373484,-5.8825235,34.1526718,105.0381699,-61.5877876,-0.5410868,8.5376797,5.1259594,-9.9923668,-16.7557259,-1.3893130
8560,-0.9816177,15.2892942,-7.3477674,69.4732819,80.9542007,-61.6030540,-0.5554519,8.2216463,4.5058646,8.4885492,-4.9083967,-4.1755724
8570,1.5227045,15.7298250,-8.4299412,93.7328262,68.5114517,-78.1450348,-0.6799498,8.0588417,3.4907281,23.5725193,9.0381680,-6.5038166
8580,2.2433555,16.2756996,-10.0412302,105.9694672,73.7786255,-96.6564865,-1.1372399,7.9774394,2.4468615,33.2671738,21.0229015,-8.2671757
8590,2.3510940,16.3906212,-11.3269100,106.9694672,84.7251892,-109.0534363,-1.5155219,7.9726510,1.6783268,37.2595406,29.1984730,-9.3053436
8600,1.9799947,16.4169579,-11.7794123,99.3358765,94.4427490,-118.0076370,-1.6783268,8.1258793,0.6655847,33.7709923,31.9160309,-10.3511448
8610,1.6639616,15.7872849,-12.1792421,85.6106873,97.3740463,-124.2290039,-1.9728121,8.3389616,0.1340746,24.5190830,28.2977104,-10.4045801
8620,1.4221486,14.5614605,-12.1289635,66.3129807,85.7786255,-125.3282471,-1.9416877,8.7363977,-0.7110743,5.1221375,18.6488552,-10.0992365
8630,1.6376256,13.7426472,-10.9270811,46.6106873,64.3816757,-122.6335907,-1.8722562,8.9255381,-0.8331779,-17.8625946,-1.1603054,-9.2290077
8640,2.1427996,12.4880924,-8.4706421,36.7099228,42.3206100,-127.0152664,-1.5250987,8.8417416,-0.0694315,-40.1984749,-23.1297703,-7.6488547
8650,2.6527619,10.7451220,-6.4834652,42.1374054,30.2900772,-142.4122162,-0.9816177,8.7507620,1.1827296,-55.4503822,-41.0076332,-6.1908398
8660,2.1427996,8.6956959,-5.2552457,55.5343513,25.2748089,-159.9236603,-0.0071826,8.7292147,2.1236460,-61.2213745,-48.3282433,-8.3053436
8670,1.3048333,7.6446471,-4.8482337,65.3816757,26.9770985,-170.6717529,0.5937590,8.7052727,2.9831600,-59.3816795,-47.0228996,-11.4427481
8680,0.3016679,6.6630292,-4.7788019,68.3664093,37.2137413,-173.5038147,1.2808913,8.7723103,3.4452386,-52.2977104,-40.0458031,-14.9923668
8690,-0.8188128,5.2025738,-5.0062504,63.5801544,47.9694672,-167.9541931,1.6424140,9.1481981,3.8785870,-42.3816795,-29.7099228,-18.4045811
8700,-2.5953014,4.1419477,-5.7197185,51.1603050,56.0610695,-149.2366486,1.7669119,9.5767574,3.8761928,-31.0916023,-16.4122143,-22.3664131
8710,-3.5529771,3.9911139,-5.3055239,32.6717567,56.4656487,-120.7480927,1.5705882,9.9670105,3.8857694,-20.9770985,-2.2977099,-25.1832066
8720,-3.3542595,3.8594334,-3.7181761,17.9618320,52.8320618,-94.4580154,0.9983770,10.2950144,3.5457945,-13.8702288,8.0229006,-26.4809170
8730,-2.6647329,3.4643922,-1.8650736,15.9312973,58.7862587,-78.0687027,0.3184272,10.5248566,3.2130022,-10.9694653,13.6488552,-25.2977104
8740,-2.0111191,3.1555417,-0.5554519,23.3282452,71.6106873,-72.3511429,-0.3399749,10.6517487,2.9831600,-11.8549614,13.3511448,-21.7480907
8750,-2.5378408,2.6503677,-0.1388630,33.3969460,87.4045792,-71.2824402,-0.5171449,10.7882175,2.8682389,-15.5572519,9.5725193,-17.5877857
