timestamp,rxacclX,rxacclY,rxacclZ,rxgyroX,rxgyroY,rxgyroZ,txacclX,txacclY,txacclZ,txgyroX,txgyroY,txgyroZ
0,5.6957769,11.0850973,1.2210367,-16.3206100,-31.9541988,27.1450386,2.3917952,10.3405046,1.9033806,-5.2977099,-10.4961834,-28.7786255
10,5.5664907,11.1377697,-0.0981618,-15.1832066,-22.6564884,25.7175579,2.0661855,10.5009146,1.9321109,-6.2900763,-10.3129768,-30.5343513
20,5.4970589,11.3316984,-0.8283895,-22.7938938,-9.3893127,25.7328243,1.6855093,10.6828737,2.0661855,-7.3282442,-12.0534353,-31.9618320
30,5.4659348,11.2502966,-1.2114599,-33.7557259,4.9618320,22.5572510,1.4029950,10.9462337,2.3750360,-7.1526718,-14.2595415,-32.3435097
40,4.9631548,11.3460636,-1.3694763,-44.9541969,15.9160309,17.0610695,0.9409165,11.0874910,2.5737536,-5.1374044,-15.1832066,-31.7175579
50,3.9887197,11.1736822,-1.3024391,-52.4351158,18.9007626,13.2977095,0.6943150,11.1473465,2.8634505,-1.0076336,-15.6564884,-29.6183205
60,2.4971397,10.7259684,-1.4436963,-58.0763359,12.5267172,13.8549614,0.4596844,11.1473465,3.0334380,4.6030536,-15.0916033,-26.8473282
70,-0.8331779,12.4545736,-5.5784616,-64.6335907,-136.3511505,147.2748108,2.3056045,8.6478119,1.4796091,4.8015265,0.1603053,17.1297703
80,-0.7062859,12.6915979,-4.4005203,-72.0229034,-136.8244324,170.4885559,2.4851687,8.4610653,1.4867916,2.0687022,-0.6335878,16.3053436
90,-0.0143651,12.2821922,-3.2776453,-78.8778610,-130.3358765,191.2137451,2.6551561,8.3365679,1.3910241,-1.3053435,-1.4045801,14.2137403
100,1.0773853,11.2311430,-2.4324965,-84.8854980,-116.4198456,207.2137451,2.7964132,8.1426382,1.3359578,-5.3664122,-2.7404580,11.9541988
110,2.1404054,9.9957409,-2.4660151,-91.8854980,-95.2213745,217.6030579,2.9352763,7.9918046,1.3455344,-9.7404585,-4.9312978,9.0992365
120,3.2417326,8.0372944,-2.8610563,-102.7328262,-71.8396912,218.7251892,3.0023136,7.8457589,1.5059452,-14.2290077,-7.4885497,4.5343513
130,3.5912843,5.3845320,-3.5386121,-120.5648880,-53.1068687,212.0534363,3.0789278,7.8050575,1.5227045,-18.0305347,-9.7251911,0.5954198
140,4.3143296,1.8507085,-4.0174499,-143.8167877,-41.6030540,199.8396912,3.2776453,7.7978749,1.5897418,-21.3282452,-11.4045801,-3.5572519
150,5.9136481,-2.4420733,-4.1706781,-169.8320618,-32.9923668,178.5496216,3.2967989,7.8912482,1.5394639,-24.5267181,-11.1068707,-8.7480917
160,10.7618818,-7.9295554,-3.2465210,-192.8167877,-34.9160309,144.4427490,3.2417326,8.0253229,1.4053892,-28.2366409,-8.9160309,-12.9465647
170,17.2549229,-12.0834742,-1.6160779,-200.1221313,-41.1603050,82.7709961,2.9783716,8.2431946,1.1683644,-33.2061081,-5.5572519,-17.0610695
180,19.6126022,-18.4352589,2.5330524,-191.0076294,-57.2290077,-10.2671757,2.7030399,8.5137377,0.6919208,-40.4503822,0.6870229,-17.0534344
190,19.6126022,-19.6131992,8.4490948,-156.6641235,-91.5343475,-110.7633591,2.7245877,8.8441362,0.2992737,-49.8549614,6.2900763,-15.3282442
200,19.6126022,-19.6131992,6.0836353,-120.8702316,-142.0305328,-156.5877838,2.8155668,9.2224178,-0.1699875,-61.0228996,13.4503813,-15.5496187
210,13.9940376,-19.6131992,0.1077385,-142.1984711,-189.4580078,-99.9542007,2.8179610,9.4594421,-0.3495516,-73.7786255,21.4809170,-17.0763359
220,2.3558824,-13.5559006,0.3998296,-238.6030579,-250.1374054,76.8854980,2.8778157,9.6533718,0.0407012,-86.6259537,20.0916023,-22.2748089
230,5.9016771,1.2713146,18.2078114,-250.1374054,-247.5877838,250.1297760,3.2417326,10.1082678,0.7565638,-96.6946564,13.7938929,-32.7404594
240,19.6126022,2.4875629,19.6126022,-203.8396912,-238.3511505,250.1297760,3.2872221,10.5080976,1.5801650,-103.3053436,4.2442746,-45.5267181
250,19.6126022,6.5385313,19.6126022,-56.5954208,-119.0000000,169.8320618,2.9807658,10.7690639,2.6455793,-103.7480927,-7.2213740,-57.4656487
260,19.6126022,8.1713686,19.6126022,117.9007645,66.9312973,-50.7480927,2.2625091,11.0060892,3.4859397,-97.7404556,-18.6946564,-66.6335907
270,19.6126022,1.1156923,19.6126022,250.1297760,210.5725250,-211.4122162,1.5083394,11.1521349,4.1611013,-86.6488571,-31.5343513,-70.6564865
280,18.5142670,-8.8513184,7.6973190,250.1297760,250.1297760,-250.1374054,0.6895266,11.1736822,4.2185616,-73.6335907,-41.5038185,-70.2824402
290,9.4714136,-14.4513273,-4.6950054,250.1297760,250.1297760,-239.2748108,0.3950413,11.2359314,3.9647777,-60.8396950,-42.4122124,-65.3206100
300,6.6726060,-12.5335817,-12.5263996,250.1297760,175.6641235,-149.4351196,0.0454896,11.2287483,4.2448978,-46.7251892,-31.1374054,-55.6641235
310,11.1473465,-9.8808203,-14.0778341,221.1221313,141.6717529,-88.0687027,-0.3064562,10.9558105,4.7931671,-29.4809170,-11.1374044,-43.4198456
320,17.7385502,-8.6765423,-10.9031391,137.4580078,118.7480927,-104.7862625,-0.6895266,10.7499104,5.2767935,-9.8549614,12.4427481,-30.0839691
330,19.6126022,-8.4826136,-6.3039007,85.7938919,122.5038147,-170.0839691,-0.7852941,10.5847120,5.6766233,9.9083967,32.0687027,-20.6183205
340,18.5884876,-8.8034344,-3.2010312,68.3893127,138.0381622,-233.6106873,-0.7709290,10.3381100,5.9615316,28.2061062,41.0534363,-14.5267172
350,14.9229832,-9.1146793,-1.6663558,71.0839691,154.2213745,-250.1374054,-0.8834559,10.1729107,6.1171541,44.0076332,40.7557259,-11.4809160
360,11.2119894,-9.3133974,-1.4125718,82.8854980,162.8396912,-250.1374054,-1.0654143,10.0747490,6.2201042,56.9618340,35.5343513,-7.6183205
370,7.6302819,-8.8441362,-2.2505381,96.2213745,161.3587799,-250.1374054,-0.8954269,10.0244713,6.0405402,67.3435135,26.9465656,-3.3206108
380,4.3933377,-7.2424231,-3.9408360,100.4961853,148.4122162,-250.1374054,-0.8906385,9.9478569,5.6574697,74.8473282,17.3206100,-1.0000000
390,2.1308286,-4.5202298,-5.5688848,86.9007645,139.1297760,-234.2290039,-0.7038917,9.8161764,5.1379304,78.2290039,9.0076332,-0.5725191
400,1.4748207,-1.3910241,-6.3900914,64.0687027,139.2824402,-194.4122162,-0.6943150,9.8329363,4.6471219,77.7557220,2.0000000,-0.6183206
410,1.9991482,0.4596844,-5.8274570,42.0687027,132.5725250,-165.0305328,-0.8212070,9.7635050,4.2089849,75.0381699,-3.4732823,0.7633588
420,3.5338237,2.2505381,-4.5800843,28.7022896,123.8091583,-155.1603088,-0.6847382,9.7994175,3.8737986,71.4732819,-6.4656487,3.4961832
430,4.1275826,3.9480183,-3.9049230,23.4961834,124.6412201,-157.1221313,-0.5386927,9.6892843,3.3925664,67.5343475,-7.5038166,8.0229006
440,3.5410061,6.0357518,-3.9336534,22.7786255,140.3206177,-161.5114441,-0.3112446,9.4666252,3.0382264,63.7938919,-5.7175574,12.2519083
450,2.2984219,8.1881275,-4.7189474,21.7175579,157.2977142,-161.9465637,-0.1149211,9.2870607,2.7221935,60.5496178,-2.6259542,17.3664131
460,-1.0366840,10.0268650,-7.9774394,6.9312978,151.5343475,-153.9465637,0.1149211,9.0428534,2.4324965,57.7251892,-0.1679389,22.4809170
470,-3.6750808,11.9781294,-11.4202833,-35.9312973,124.5877838,-130.7633514,0.3639168,8.7675219,2.1787124,54.8167953,0.1297710,26.6106873
480,-4.2329268,13.2614155,-10.9893293,-87.7328262,96.4885483,-101.4656525,0.6607963,8.5592270,2.1260402,51.8931313,0.6793893,28.6106873
490,-3.9767487,14.7865143,-7.1993275,-118.5343475,67.7862625,-82.4656525,0.8499373,8.3269911,1.9608412,49.1221390,0.1755725,30.3053436
500,-3.1100521,16.0697994,-3.1651185,-121.5419846,41.0305328,-72.8778610,1.1827296,8.0899658,1.6208663,46.0534363,-0.8167939,30.5877857
510,-2.5234756,17.7864342,-1.0462608,-109.0076370,32.9236641,-68.5267181,1.3982066,7.9127960,1.5873476,42.4122124,-0.8625954,29.4198475
520,-1.8794388,19.4408188,-0.1460456,-95.5038147,39.4198456,-68.5801544,1.6160779,7.7691450,1.2018831,37.5725174,-0.3129771,27.3664131
530,-1.4125718,19.6126022,0.0790083,-89.1755753,47.6641235,-70.9465637,1.7621235,7.6997132,1.0247130,32.4503822,1.7480916,24.6259537
540,-1.2593436,19.6126022,0.5291159,-91.6412201,53.1145020,-69.0000000,1.8674678,7.5656385,0.8738791,25.6259537,2.4274809,22.2213745
550,-2.0685797,19.6126022,1.8914096,-95.4045792,52.3358765,-56.8778610,1.8770446,7.4746594,0.7110743,17.7404575,1.8320611,20.2977104
560,-3.1028695,19.6126022,4.2664456,-92.7633591,35.0228996,-34.7480927,2.0254843,7.4866304,0.5722113,8.8778629,0.3664122,16.8244267
570,-3.3470769,19.6126022,7.8984308,-73.3129807,-1.3435115,-7.0534353,2.2864509,7.4148049,0.5841822,-0.1221374,-2.2824428,13.0229006
580,-1.8147956,19.6126022,11.1305866,-35.9618340,-44.6259537,19.4503822,2.2313845,7.3884687,0.7685348,-9.4274807,-5.3435116,8.2366409
590,1.1755470,19.4049053,13.1177645,13.8549614,-81.3053436,35.6259537,2.3822186,7.5081782,0.9121862,-17.8625946,-8.7251911,4.4274807
600,5.0445571,17.6499653,13.4481621,65.1374054,-100.2824402,33.5572510,2.7054341,7.6374645,1.1300575,-25.2748089,-12.9389315,-1.7557251
610,7.3238254,16.3762550,12.2343082,107.2900772,-98.7022934,10.9694653,2.7844424,7.8170285,1.3239868,-31.1221371,-16.6030540,-8.6183205
620,7.7547798,15.2414103,10.1609402,134.0381622,-86.1526718,-22.8854961,2.8083842,8.1857338,1.6041069,-34.6793900,-19.8091602,-15.5725193
630,6.5552907,13.7737722,7.9726510,144.2442780,-67.0381699,-57.6106873,2.6048782,8.5328913,1.9943599,-36.1145020,-21.5190830,-22.6030540
640,4.6375451,12.1744537,6.2464404,142.0458069,-49.3893127,-81.1603088,2.3558824,8.8513184,2.3463056,-34.8702278,-22.4503822,-27.4198475
650,3.6152260,10.6780853,5.3725610,136.6335907,-32.8396950,-93.5496216,2.1068866,9.2439651,2.5546002,-30.9465656,-22.0610695,-32.3053436
660,2.7221935,9.0572186,4.6543045,133.4122162,-18.1526718,-101.8702316,1.8770446,9.6102762,2.5330524,-25.3435116,-20.1984730,-35.5343513
670,1.8938038,7.6350703,3.8570392,132.6793823,-6.6335878,-107.2213745,1.3431402,10.0532017,2.5378408,-18.7328243,-17.2366409,-37.0763359
680,1.0151364,6.5959921,2.9328821,133.7633514,2.5648854,-108.6030502,0.9193687,10.3835993,2.4660151,-11.8702288,-13.6259546,-37.5038185
690,0.1268920,5.7843618,1.8435259,134.4732819,7.3206105,-106.1374054,0.6847382,10.7355452,2.1930776,-6.1221375,-10.0992365,-36.3206100
700,-0.9193687,5.1427188,0.8164186,133.6870270,5.8167939,-99.5343475,0.3854645,11.0156660,2.0350611,-2.0305343,-6.4580154,-32.9847336
710,-1.5322813,4.6973996,0.2394189,133.0992432,-2.7480917,-90.6793900,0.2011119,11.2215662,1.7764885,0.3282443,-3.0152671,-29.8473282
720,-1.8698620,4.3837609,-0.2489957,133.1297760,-15.9770994,-81.6793900,0.0335187,11.3436699,1.7453641,1.1755725,-0.2290076,-27.0152664
730,-1.8267666,4.1491303,-0.8044477,131.1755676,-30.4732819,-72.0381699,-0.1556223,11.3867655,1.6088953,1.0839695,1.2748091,-23.6870232
740,-1.6639616,3.8618276,-1.2808913,126.3587799,-42.4732819,-63.7480927,-0.3710994,11.4035244,1.5107336,0.0992366,1.2061069,-19.4961834
750,-1.7046629,3.8115497,-1.7118455,119.3053436,-53.4503822,-56.8931313,-0.4309541,11.4083128,1.6759326,-1.2977099,-0.2061069,-16.0000000
760,-1.8961980,3.8594334,-2.0757623,107.6870193,-63.2824440,-48.3893127,-0.5219333,11.2526903,1.7788827,-2.8320611,-1.5038168,-12.2442751
770,-1.6639616,3.9312592,-2.1739240,92.7557220,-66.7099228,-39.0305328,-0.4165890,11.1593170,1.9560528,-3.9160306,-3.6412213,-9.8015270
780,-1.2808913,3.8474624,-2.0326669,77.2748108,-63.4198456,-31.6030540,-0.2633608,11.0755205,2.1571648,-4.3435116,-5.4427481,-7.1374044
790,-0.8092360,3.8354914,-2.0949159,59.9923668,-55.2442741,-25.5801525,-0.1843526,10.9534168,2.1739240,-4.0839696,-6.0229006,-5.5572519
800,-0.3902529,3.8714044,-1.7956421,42.5954208,-41.6030540,-20.9694653,-0.2202654,10.7139978,2.3127871,-2.7328243,-5.8091602,-3.1068702
810,-0.2226596,4.0126615,-1.4101776,26.7480907,-27.0763359,-18.4961834,-0.2801202,10.6445665,2.4277081,-0.3358779,-5.1603055,0.5496183
820,-0.1029501,4.3813667,-1.2617378,10.6183205,-11.1526718,-18.2366409,-0.1484398,10.6158361,2.3798244,2.4198472,-4.3053436,4.0992365
830,-0.2633608,4.8793583,-1.1372399,-18.5572510,23.4656487,-19.6412220,0.3232156,10.2782555,1.9871773,4.6717558,0.4351145,11.7862597
840,-0.9409165,5.0110383,-1.5203103,-31.0763359,35.1450386,-16.6335869,0.4357425,10.0699606,1.9345051,3.7404580,2.0610688,15.2290077
850,-0.9600700,7.1921453,-2.4324965,-63.2977104,30.4656487,30.7633591,1.0151364,9.4139528,2.0518203,-6.8167939,-1.2061069,19.9236641
860,-0.0981618,8.0684185,-2.3846128,-67.1908417,25.6030540,34.5954208,1.2138541,9.3205795,2.1332228,-9.5877867,-3.1145039,18.3740463
870,0.6368544,9.1290445,-2.3056045,-69.2748108,20.4122143,31.1984730,1.2713146,9.3133974,2.1978660,-11.9923668,-4.1603055,17.1450386
880,0.7206510,10.1776991,-2.3726418,-71.2061081,12.7633591,22.8320618,1.3646880,9.2272062,2.2960277,-13.0152674,-4.6335878,16.4961834
890,0.1651991,11.1593170,-2.3894010,-73.4122162,4.5496182,15.4274807,1.4365137,9.1984758,2.4085546,-13.3969469,-5.0381680,16.3053436
900,-0.5291159,11.5902710,-2.0159075,-74.6030502,-4.0305343,12.4732828,1.5394639,9.2224178,2.4708035,-13.5572519,-5.0381680,16.2977104
910,-1.1899122,12.1744537,-1.4125718,-73.5648880,-9.5496187,16.0381680,1.7070571,9.1721401,2.4875629,-13.7251911,-4.7404580,14.8549614
920,-1.4891858,12.6173782,-0.7421987,-67.8015289,-10.6564884,22.5877857,1.8124014,9.2415714,2.4827745,-14.1755724,-4.6717558,13.3816795
930,-1.2377959,12.9932661,0.0167593,-57.4885483,-7.7404580,30.4732819,1.8866212,9.3469152,2.5617826,-14.5648851,-5.1145039,12.0305347
940,-0.8619082,13.3859129,0.1819584,-44.7175560,-2.7251909,36.9465637,1.8459201,9.4570484,2.5857246,-15.2213745,-5.7175574,10.6335878
950,-0.5171449,13.7570124,-0.2442073,-33.1221390,3.1603053,40.2366409,1.8961980,9.6605549,2.5713594,-16.0534344,-6.7328243,10.8778629
960,-0.2250538,13.9246063,-1.0510491,-26.3511448,4.8320613,41.8549614,1.7980363,9.6988611,2.3941894,-17.6946564,-8.4427481,11.2137403
970,0.2609667,13.6732159,-1.4317253,-24.4885502,1.7709924,42.1221390,1.8243724,9.8305416,2.4085546,-19.9694653,-11.1526718,11.7099237
980,0.8140244,13.2374735,-1.5945302,-24.1450386,-7.3511453,39.4503822,1.6160779,10.0196829,2.4420733,-22.5267181,-12.7786255,13.0229006
990,0.9265513,12.6101961,-1.8961980,-24.5343513,-20.5725193,33.7251892,1.5849534,10.1154509,2.5665710,-24.5190830,-14.6488552,15.5954199
1000,0.5267217,12.2630386,-2.6407909,-29.0305347,-35.7709923,29.5648861,1.6328372,10.0939026,2.5043221,-25.8625946,-15.3587790,18.1603050
1010,0.0526722,11.7770176,-3.2967989,-40.5343513,-46.9923668,28.8702297,1.7477583,9.8712435,2.2720859,-26.9389305,-14.9465647,20.2824421
1020,0.1340746,11.2072010,-3.4476328,-53.4122124,-53.5725174,29.4656487,1.9728121,9.7922344,2.4947455,-27.4656487,-14.0381680,20.3206100
1030,-0.1340746,10.7810354,-3.0573800,-63.5419846,-55.9541969,28.8320618,2.1739240,9.6390066,2.6000898,-27.6564884,-12.1603050,19.6488552
1040,-1.3455344,10.3405046,-3.3686244,-68.8091583,-62.0610695,33.0381660,2.3678534,9.6174593,2.6048782,-26.9618320,-11.0839691,19.5343513
1050,-3.7516949,9.8903971,-6.1746144,-82.1908417,-78.6030502,49.3816795,2.4947455,9.5935173,2.6790979,-26.7557259,-11.5190840,19.6488552
1060,-5.7460546,9.1290445,-9.2248116,-113.1374054,-101.8091583,80.3816757,2.7557120,9.5049324,2.5809362,-27.2061062,-11.4274807,19.3358784
1070,-6.4906478,8.5544386,-10.6565371,-151.5038147,-122.2366409,120.7709961,3.1723011,9.5073261,2.7174051,-28.0534344,-14.0229006,18.7251911
1080,-5.1355362,9.5145092,-7.8289995,-175.6870270,-143.6793823,155.7022858,3.3901722,9.4498653,2.7652888,-28.9083977,-15.9770994,16.7099228
1090,-1.7549409,11.8991213,-2.1188576,-157.2595367,-176.9236603,164.3206177,3.8019729,9.4785957,2.8131726,-29.6106873,-17.5038166,14.1374044
1100,1.3383518,14.0251617,2.4157372,-96.6412201,-210.3816833,142.9465637,4.1132174,9.6773138,2.9209111,-30.0152664,-18.8167934,9.0534353
1110,0.8714849,14.0586805,1.7525467,-34.0458031,-234.8473358,117.1145020,3.9911139,9.5791521,3.2369442,-29.5419846,-17.5267181,6.1297708
1120,-0.2920911,14.4632988,-1.7477583,-1.8625954,-227.8473358,105.9923630,3.8402798,9.4235296,3.4500270,-28.5267181,-14.5114508,3.9847329
1130,-2.0302727,14.4130201,-4.2592630,-0.8320611,-201.7557220,105.4732819,4.0892754,9.5576038,3.3853838,-25.9160309,-10.2900763,1.6870229
1140,-4.0006905,13.2063494,-6.3733325,-19.4732819,-176.2748108,122.6793900,3.9504125,9.3421268,3.2321558,-27.9160309,-11.4274807,-6.1908398
1150,-4.9703374,11.7434988,-6.6558466,-46.3358765,-151.1832123,155.5419922,3.0310438,8.7675219,4.0318151,-24.8091602,-15.1832066,-12.5801525
1160,-4.9296360,10.8672256,-5.1331420,-71.4122162,-129.9465637,196.2900696,2.8442972,8.8992023,4.7165532,-13.9236641,-10.7786255,-15.6030531
1170,-3.6032550,10.1944590,-2.8706331,-94.0152664,-95.9694672,237.3511505,2.6790979,8.6813307,4.4460096,-2.6106870,-2.3053436,-24.5496178
1180,-1.6998745,8.9279327,0.1364688,-107.0457993,-59.8473282,250.1297760,1.7597293,8.2407999,4.0988522,10.1450386,3.6793892,-34.2442741
1190,-0.1532281,7.9582858,2.5905130,-104.6412201,-44.5343513,250.1297760,0.6871324,8.1330614,3.7109938,21.7557259,9.5190840,-41.6793900
1200,2.0446377,6.9646969,3.7708483,-85.0839691,-49.8320618,250.1297760,-0.5674229,8.1210909,3.2153964,32.0839691,16.6183205,-45.4580154
1210,4.6997938,5.8777351,2.6767037,-59.2366409,-59.7251892,250.1297760,-1.7070571,8.2743187,2.7269819,40.5114517,24.1679382,-44.9618340
1220,6.7707677,5.5473371,0.3160330,-48.4961815,-64.6946564,250.1297760,-2.5833304,8.5735922,1.8291607,43.6793900,29.9465656,-40.9618340
1230,8.9422979,4.2999644,-1.8507085,-69.8702316,-56.2900772,250.1297760,-3.1292057,8.8273764,1.1109039,39.9083977,31.8549614,-34.0076332
1240,10.8839855,1.7405758,-2.5162930,-112.8320618,-38.9694672,250.1297760,-3.0765336,9.2319946,0.4333483,30.4961834,28.3587780,-24.8473282
1250,12.8687687,-1.3431402,-2.4684093,-164.9084015,-29.7633591,207.1374054,-2.9855542,9.2631187,0.1675933,13.7328243,19.6183205,-15.0000000
1260,14.4034433,-4.7931671,-2.0685797,-213.5038147,-47.8778610,135.2977142,-2.5498118,9.1338329,0.0790083,-4.2442746,7.2824426,-4.4503818
1270,15.7250366,-10.0603838,-0.6153067,-236.8702240,-101.4122162,45.1755714,-1.4508789,9.1194677,0.0454896,-24.0687027,-5.8931298,3.5954199
1280,14.4632988,-16.2541523,0.8355721,-233.6488495,-222.0229034,-35.5419846,0.1221037,8.5927458,0.7254394,-39.2900772,-17.8702297,7.0458016
1290,12.9214401,-19.6131992,2.8275378,-211.0915985,-250.1374054,-63.8854980,1.3311694,8.2575598,1.6328372,-47.8091621,-23.7938938,4.7175574
1300,13.8072910,-19.6131992,4.9056940,-170.3816833,-250.1374054,-28.1603050,2.0685797,8.2264347,2.3606708,-49.7328262,-23.2366409,-0.1603053
1310,14.3914728,-19.6131992,6.6630292,-113.4809189,-250.1374054,59.3511467,2.7557120,8.1498213,3.0047078,-45.9465637,-17.6412220,-6.9389315
1320,16.7976341,-17.5733509,9.0021524,-61.3587799,-245.5801544,158.8396912,2.9927368,8.2647419,3.4931223,-38.1832047,-9.3816795,-15.3893127
1330,19.6126022,-6.4930420,12.7634239,-38.7099228,-100.1145020,217.9541931,2.8035958,8.5281029,3.9192882,-27.2213745,-0.0687023,-24.1450386
1340,19.6126022,4.9440012,17.0298691,-46.7862587,-16.6030540,179.7862549,2.3534882,8.8728657,3.7900019,-14.8473282,9.7938929,-29.4351139
1350,19.6126022,11.3987360,19.6126022,-30.4122143,36.9389305,68.2900772,1.9129574,9.1769285,3.5146701,-4.5801525,19.2671757,-32.5648842
1360,19.6126022,8.5927458,19.6126022,32.8244286,76.9847336,-47.6488533,1.4987626,9.5599985,2.9161227,0.0229008,26.7862587,-33.4656487
1370,19.6126022,1.7573351,16.8622761,99.4732819,130.1374054,-142.0534363,0.9026094,9.6414013,2.2170193,-1.4045801,30.1984730,-33.5190849
1380,19.6126022,-3.6607156,8.8082228,150.7175598,183.4122162,-199.3053436,0.4692611,9.9334917,2.0111191,-7.6870227,29.7175579,-29.8396950
1390,13.7402534,-6.6390872,1.8339491,175.6870270,186.0992432,-211.4351196,0.1819584,9.9981356,1.9871773,-17.5343513,27.9770985,-24.7786255
1400,9.6964674,-7.8074517,-3.3638363,171.3740387,140.7480927,-193.3358765,0.0119709,9.8305416,2.2026544,-28.0305347,24.7099228,-19.6870232
1410,9.9957409,-7.7571740,-4.3933377,147.1374054,80.0000000,-177.4580078,-0.0837966,9.6078825,2.7533178,-37.2748108,19.3816795,-14.8854961
1420,11.8464499,-7.8002691,-2.7652888,121.9007645,39.3129768,-181.3740387,0.0598547,9.4450769,3.4428444,-42.8854980,14.4198475,-11.7938929
1430,13.2111378,-8.0540533,-0.7900825,102.0457993,40.6335869,-193.9465637,0.4692611,9.3900108,4.1275826,-44.4427490,9.5725193,-10.2748089
1440,12.8974981,-8.6406298,-0.0622489,85.0381699,76.6946564,-206.5648804,0.6895266,9.2008705,4.4364328,-42.6564903,7.2748094,-8.9770994
1450,10.9869356,-7.5656385,0.3064562,71.1908417,123.6335907,-214.2137451,0.8379663,8.9782104,4.6447277,-39.0687027,7.2061067,-7.6488547
1460,8.0756006,-5.7269011,0.4405309,64.6412201,160.8091583,-209.7175598,0.9935886,8.7842808,4.7500720,-34.6030540,8.7251911,-5.7862597
1470,5.4204450,-4.1036406,0.2274480,63.8778610,178.1068726,-189.4198456,1.1947005,8.6980906,4.7596488,-30.2137413,10.9236641,-5.2748094
1480,5.3677726,-2.2744799,-0.2896969,67.8091583,177.8015289,-165.4885559,1.6687500,8.8393478,4.8123207,-26.6259537,11.5343513,-5.8396945
1490,6.2296810,-0.1963235,-0.4046180,71.0076370,176.4198456,-151.1297760,1.8674678,9.0213060,4.7883787,-23.0687027,11.4503813,-7.2366414
1500,6.4427638,2.5474176,-0.3160330,73.6717529,179.3511505,-144.3664093,2.0661855,9.2798786,4.5705075,-21.3664131,11.2748089,-6.8473282
1510,6.5864153,4.4627690,-0.6967092,74.1374054,177.0686951,-140.5114441,2.2505381,9.4019823,4.3143296,-22.0076332,11.1374044,-7.5343513
1520,6.9359670,5.9016771,-1.1324517,69.5877838,168.5190887,-141.3206177,2.2792683,9.5049324,4.2568688,-24.4503822,9.5343513,-8.6488552
1530,6.9287844,6.8330169,-1.0247130,65.9847336,156.8091583,-147.7404633,2.2026544,9.5791521,4.2879934,-27.7862587,6.8931298,-9.2519083
1540,5.7053533,7.0628591,-1.1037214,67.1450348,141.1221313,-151.7633514,2.2649033,9.7228031,4.5465660,-30.4809170,4.1221375,-10.8244276
1550,3.2608860,7.3094602,-2.3534882,64.0076370,119.0229034,-143.2519073,2.1882892,10.0675669,4.8554163,-32.5190849,1.1755725,-11.6183205
1560,2.4109488,8.5759869,-3.1100521,49.8625946,105.2442780,-123.2137375,2.2218077,10.5033092,5.0517397,-34.0839691,-1.8702290,-11.5419846
1570,1.7286048,10.8528605,-3.2201848,29.5572510,111.5267181,-102.7404556,2.1188576,10.8959560,5.4443870,-35.4427490,-6.1450381,-10.9389315
1580,0.8164186,12.8615856,-2.9280937,12.4503813,122.5954208,-90.1068726,1.8794388,11.3173332,5.8585815,-36.4122124,-10.8473282,-8.6335878
1590,0.3495516,14.0419216,-2.3654592,1.7251909,124.5496216,-84.1755753,1.6328372,11.6429434,6.3039007,-35.7175560,-15.6564884,-5.6106873
1600,0.2011119,14.4824524,-2.1739240,-2.8549619,116.2442780,-82.4122162,1.3239868,11.7985659,6.6414814,-32.9694672,-19.1755733,-1.3435115
1610,-0.0335187,14.6548338,-1.8459201,-5.9923663,105.3053436,-75.7099228,1.0702027,11.7506819,7.0197635,-28.2977104,-21.2213745,4.0610685
1620,-0.0311245,14.9181948,-1.7884595,-10.3206110,97.7175598,-63.2977104,0.9265513,11.6477318,7.4004397,-21.2900772,-22.4885502,7.5954199
1630,-0.2322364,15.8064384,-1.7046629,-17.6335869,95.2366409,-48.0228996,0.8954269,11.5112629,7.7547798,-11.3816795,-22.6183205,8.6564884
1640,-0.1699875,16.5199070,-1.5418580,-25.5038166,95.2748108,-33.5496178,0.6991033,11.5040808,8.0157461,0.0458015,-21.7862587,8.0687027
1650,-0.4884146,16.9317074,-1.1707586,-32.0916023,89.5725174,-21.0458012,0.4309541,11.6501255,8.1713686,11.7251911,-19.9389305,7.9160304
1660,-0.9552816,17.1807041,-0.3303981,-35.4274826,76.2748108,-7.9007635,-0.0143651,11.7195578,8.2192526,23.9389305,-17.6564884,8.0076332
1670,-0.8140244,16.8191814,1.3742647,-32.5877876,58.6030540,6.0763359,-0.3447633,11.8009596,8.3461447,35.3053436,-15.9312973,9.7633591
1680,0.0119709,16.4959660,3.3949606,-19.6564884,42.8244286,19.1221371,-0.7565638,11.6860390,8.2288294,47.2290077,-14.4809160,13.0839691
1690,1.4197544,16.3403435,5.1618724,1.0000000,30.4503822,32.3206100,-0.9265513,11.5304165,8.0827837,59.1221390,-13.2595415,16.5725193
1700,3.1531475,16.1392307,6.0932121,28.5572510,28.8015270,39.5038185,-0.8116302,11.4059181,7.9199786,72.1450348,-12.6793890,20.5496178
1710,4.8937230,16.0889530,6.0046272,57.4885483,33.4809151,36.1679382,-0.5075682,11.1736822,7.7906923,87.0839691,-10.4351149,24.2442741
1720,6.2344694,15.6795464,5.0230093,79.5114517,35.9389305,25.0076332,-0.2633608,10.8887739,7.2567883,103.1068726,-5.4885497,27.6870232
1730,7.1179252,14.9612904,3.6918402,92.3664093,37.0305328,7.9160304,-0.0023942,10.6014709,6.4044566,118.2977066,-0.0763359,30.1603050
1740,7.0532823,13.8647509,2.7844424,96.1832047,38.0076332,-11.0687027,0.2968795,10.2495251,5.5401545,130.6412201,4.1450381,31.3740463
1750,6.4236102,12.6245613,2.3822186,93.9694672,33.0916023,-26.1068707,0.2035061,9.9071560,4.5585365,139.5419922,6.9389315,31.6717548
1760,5.7891502,11.3197279,2.7150109,89.9618301,23.4045811,-34.8320618,0.2274480,9.4426832,3.6894460,144.8396912,8.4274807,32.3282433
1770,5.1786318,10.3716288,3.6152260,92.8549652,11.6488552,-41.5114517,0.3303981,9.2008705,2.8083842,146.4045868,8.0687027,33.4656487
1780,4.7668314,9.3301563,4.2185616,103.5038147,-5.8778625,-50.6717567,0.4022238,8.8728657,1.7022687,143.3129730,6.1374044,35.1297722
1790,4.1611013,8.3533268,4.3167233,116.4427490,-23.8473282,-60.8778610,0.6871324,8.5927458,0.6799498,134.6259613,3.1145039,35.6946564
1800,3.7636659,7.3741035,4.0389977,128.7022858,-35.2900772,-70.0229034,0.8403605,8.2216463,0.2035061,121.2900772,-2.0152671,36.2900772
1810,3.4141142,6.7348547,3.4811516,139.5801544,-39.5572510,-79.9236679,1.0510491,7.8888540,-0.4118006,104.9312973,-7.3740458,35.4198456
1820,2.7772598,5.8585815,2.6982515,145.5114441,-41.6564903,-89.0534363,1.3072275,7.5201492,-0.5027798,87.3435135,-13.1297712,32.8244286
1830,2.1260402,5.2025738,1.7405758,145.5877838,-38.5648842,-94.4885483,1.3120158,7.1849627,-0.4501076,69.5114517,-19.1450386,28.6106873
1840,1.3239868,4.7524662,0.9145803,139.4961853,-32.2824440,-95.2900772,1.3982066,6.8617468,-0.2992737,53.4656487,-25.5343513,23.5877857
1850,0.3830703,4.4124913,-0.0383070,130.3893127,-25.5648861,-91.9770966,1.3694763,6.6342988,0.1077385,39.6641235,-31.5648861,19.7557259
1860,-0.5099624,4.2425036,-1.1372399,115.3664093,-18.4122143,-85.2290039,1.3287752,6.4164276,0.4548960,29.2442741,-35.9160309,16.2213745
1870,-0.9504932,4.1850433,-1.8219782,94.0992355,-6.8473282,-75.0457993,1.3287752,6.2392578,0.7110743,20.9770985,-40.9541969,13.2900763
1880,-0.8164186,4.1970143,-1.9416877,72.1984711,11.3358774,-65.6870193,1.4820032,6.0357518,0.6392486,13.1221371,-47.3511467,10.2748089
1890,-0.7469871,4.1634955,-1.8339491,53.7175560,33.0228996,-59.4732819,1.5945302,5.7676024,0.5003856,4.4198475,-54.1221390,6.9541984
1900,-0.7924767,4.1634955,-1.6831152,38.5496178,55.3740463,-52.8320618,1.7956421,5.5210009,0.1843526,-5.1526718,-59.2824440,2.7328243
1910,-1.0199248,4.3071470,-1.6711442,26.8167934,75.0687027,-45.2671738,1.9608412,5.4611464,0.2346306,-14.7328243,-61.4732819,-1.6183206
1920,-1.3503228,4.3741841,-1.3000449,20.1603050,85.6259537,-37.4580154,2.1930776,5.5233951,0.2992737,-22.6412220,-60.5343513,-5.4656487
1930,-1.4939742,4.4986820,-1.3120158,18.8778629,85.9770966,-28.6946564,2.4061604,5.6909885,0.5147507,-28.3511448,-56.4198456,-9.9312973
1940,-0.9457048,5.0780759,-1.8147956,18.3206100,78.9007645,-19.9160309,2.5019281,5.9950504,0.8427547,-31.4122143,-50.2061081,-13.8931293
1950,0.0478838,5.6598639,-2.3223639,18.5114498,68.4809189,-17.2595425,2.4660151,6.3517847,1.0582317,-31.1679382,-42.9236641,-17.5343513
1960,0.9720409,6.3062949,-3.0094962,15.8320608,60.1526718,-22.4045811,2.5857246,6.7348547,1.3144100,-27.7099228,-35.9541969,-20.6259537
1970,1.2018831,7.0413113,-3.7085996,9.2671757,54.0076332,-30.9694653,2.5426292,7.2065101,1.3311694,-21.9160309,-28.7251911,-25.5725193
1980,0.4165890,7.4626884,-4.5609307,-1.8854961,49.2213745,-35.2595406,2.4133430,7.7332320,1.2162483,-16.1679382,-21.9923668,-31.0229015
1990,-1.1061156,7.9391322,-5.1690550,-16.5801525,39.3816795,-30.3664131,2.0135133,8.4706421,0.9337339,-11.1068707,-16.4122143,-36.6488533
2000,-2.5138988,8.5424681,-5.2073622,-30.8244267,27.2824421,-13.4351149,1.7022687,9.1649570,0.7182568,-8.2748089,-12.0152674,-39.3129768
2010,-3.0430148,9.4977493,-4.6997938,-41.4580154,11.4732828,9.2748089,1.4436963,9.7850523,0.5458752,-7.4274807,-8.5190840,-39.1679382
2020,-2.3558824,10.0316534,-3.6631098,-45.5954208,4.6870227,30.6183205,1.3527170,10.4171181,0.4453192,-8.2824430,-6.5267177,-37.8625946
2030,-1.3239868,10.6373835,-2.8490853,-42.2213745,3.1755726,43.6564903,1.2593436,11.0420017,0.3208214,-10.0000000,-4.3511453,-36.1832047
2040,-0.6584021,11.3293047,-1.9943599,-30.8167934,-0.9389313,49.5496178,1.1563935,11.3891592,0.2944853,-12.5877867,-2.3282442,-32.4198456
2050,-0.1101327,11.6190014,-2.1787124,-17.5114498,-6.0916033,52.2061081,1.1492109,11.5088692,0.3543400,-14.9618320,-0.1603053,-31.3053436
2060,0.0478838,11.9230633,-3.1387823,-7.6030536,-9.3893127,53.4656487,1.1372399,11.7171631,0.5674229,-16.6488552,0.8854962,-30.5801525
2070,0.2442073,12.1122046,-3.6248028,-3.8778627,-15.4503813,51.4809151,0.9768293,11.8033543,0.9217629,-17.4961834,2.0152671,-31.0381680
2080,0.2298422,12.3731709,-4.2353210,-2.4503818,-21.6488552,46.8625946,0.8619082,11.8560257,1.2042773,-17.8778629,1.5725191,-31.2900772
2090,-0.0239419,12.4138727,-4.4675574,-2.4732823,-32.3511467,45.1908379,0.5506636,11.7650471,1.4604555,-17.0687027,0.5114504,-32.3816795
2100,-0.2418131,12.1457233,-4.5872669,-5.9923663,-47.4198456,45.3129768,0.1651991,11.6812506,1.8842272,-15.2671757,-0.0381679,-32.9083977
2110,0.0215477,11.8105364,-4.2664456,-11.1297712,-56.6488533,47.7480927,-0.1244979,11.6692791,2.1691356,-12.3511448,0.4351145,-32.1450386
2120,0.7493813,11.4585905,-3.3422885,-13.7099237,-60.5496178,49.3587799,-0.5865764,11.5998478,2.4803803,-8.5267172,2.2977099,-31.4045811
2130,1.0438666,12.3420467,-3.1890604,-13.3358774,-49.0839691,49.9007645,-0.9672526,11.3819771,2.5713594,-4.0763359,5.7175574,-27.7099228
2140,0.5506636,12.2151546,-2.6575503,-11.2061071,-42.2442741,45.8549614,-1.3431402,11.2670555,2.7389526,1.2290076,9.1908398,-21.9465656
2150,-0.9552816,11.8512383,-2.4157372,-6.9694657,-42.3969460,43.8473282,-1.4484847,11.0755205,2.7221935,6.0305343,13.0458012,-15.4809160
2160,-1.8315549,11.6477318,-1.1851238,3.4961832,-42.9618340,48.6870232,-1.3622938,10.8480721,2.6407909,9.4885492,16.0076332,-9.3435116
2170,-2.8778157,11.5447817,-1.4700323,19.7404575,-46.7633591,60.5877876,-1.2425843,10.5320396,2.4301023,10.9160309,17.0152664,-3.0610688
2180,-4.4484038,10.9175043,-2.8586621,31.4885502,-53.9618340,78.8778610,-0.8595140,10.4147243,2.2625091,10.5801525,15.8091602,1.6870229
2190,-5.6431046,10.2806492,-3.8905578,39.6030540,-64.6870193,103.7633591,-0.3902529,10.2327662,2.1858950,8.9083967,13.6106873,4.9923663
2200,-4.9727316,10.2638903,-3.5888901,52.7633591,-78.3816757,133.5954132,-0.0335187,10.1010857,2.0566087,6.1755724,11.4045801,6.6564884
2210,-4.0892754,10.8145542,-3.8259149,75.4274826,-100.4427490,156.6259613,0.2466015,9.8185711,1.9919657,2.7862597,8.5114508,8.0610685
2220,-4.2760224,10.8145542,-5.4802995,99.8320618,-132.5267181,174.6106873,0.5746055,9.6868906,1.9464760,-0.5725191,5.3969464,10.0076332
2230,-4.6231799,9.9526453,-5.2672167,125.2595444,-180.0915985,186.2824402,0.8571198,9.4402885,1.9536586,-3.1374047,2.6870229,11.0305347
2240,-4.8697815,8.1354561,-4.7141590,167.0534363,-239.8854980,192.6793823,1.1252691,9.3205795,2.0518203,-5.3358779,1.3435115,10.5190840
2250,-6.3015065,6.8234401,-5.7676024,224.5343475,-250.1374054,207.9236603,1.4006008,9.2200232,2.1882892,-6.1297708,0.8244275,10.0000000
2260,-6.9168134,5.5928264,-6.0046272,250.1297760,-250.1374054,231.9160309,1.6639616,9.1769285,2.2840567,-5.8549619,0.5572519,8.2213745
2270,-5.5617023,4.6136031,-7.1753860,250.1297760,-250.1374054,250.1297760,1.7932479,9.2511482,2.5115047,-4.5954199,-0.0152672,5.8396945
2280,-4.5609307,4.1251884,-9.2822723,250.1297760,-250.1374054,250.1297760,1.7669119,9.3445215,2.4779861,-3.1068702,-0.1984733,4.3129773
2290,-2.7437410,3.7636659,-11.2215662,250.1297760,-250.1374054,250.1297760,1.7597293,9.4666252,2.3343346,-2.0992367,-0.3053435,3.7328243
2300,-0.8786675,4.1611013,-12.5814657,250.1297760,-250.1374054,250.1297760,1.8531027,9.5097208,2.2457497,-2.3282442,-0.6946565,3.4503818
2310,1.5514348,3.8666160,-12.3276815,250.1297760,-186.2595367,241.7709961,1.8770446,9.5935173,2.1882892,-2.8320611,-1.0916030,2.0305343
2320,3.2369442,3.4955165,-12.6269550,250.1297760,-112.7022934,206.2290039,1.7764885,9.6653433,2.1811066,-3.2977099,-1.9923664,0.9770992
2330,2.6551561,2.9161227,-12.4306316,226.8854980,-53.9236641,178.1297760,1.5538290,9.6461897,2.2601149,-3.3740458,-3.2748091,0.6183206
2340,4.1563129,1.9991482,-11.0946741,182.5419922,-13.9083967,155.3358765,1.4101776,9.6270361,2.3750360,-3.4351146,-4.6259542,-0.4656489
2350,6.9814563,0.6248835,-9.9789820,138.6259613,-8.1908398,126.8625946,1.3263810,9.6078825,2.2553265,-3.4427481,-7.4503818,-0.0381679
2360,10.8576488,-1.9153515,-6.5337429,100.4122162,-10.7022905,83.9923630,1.4341195,9.5121145,2.1356170,-3.7022901,-9.8167934,0.9236641
2370,15.1384602,-4.8027439,-1.9799947,79.8473282,-4.3740458,27.1450386,1.5250987,9.4785957,1.9919657,-4.3969464,-12.2213745,0.5877863
2380,18.9332504,-7.7547798,2.8227494,71.4274826,19.5725193,-30.0076332,1.8770446,9.5288744,1.8914096,-5.1145039,-14.7175570,-1.2442749
2390,19.6126022,-10.6709023,5.0230093,68.1145020,62.2824440,-72.8396912,1.9656296,9.5791521,1.9177457,-5.8396945,-16.5190830,-3.0839694
2400,19.6126022,-14.0634689,4.3406653,58.1603050,128.1450348,-73.3816757,1.9536586,9.6509781,1.7549409,-5.8167939,-16.9618320,-5.7709923
2410,19.6126022,-14.4178085,3.3566537,48.6946564,225.3206177,-32.7709923,1.8267666,9.8113880,1.6208663,-6.1984735,-16.5114498,-7.7404580
2420,14.3579540,-10.9534168,-2.4684093,14.2900763,250.1297760,64.7557220,1.7046629,9.8018112,1.6328372,-6.6641221,-16.0000000,-7.0763359
2430,7.0125809,-1.9464760,-4.8338685,-38.5343513,250.1297760,217.4045868,1.5658000,9.8353300,1.4843974,-7.4885497,-15.1908398,-6.6030536
2440,13.8001080,6.3733325,-5.0397687,-91.9770966,192.4656525,250.1297760,1.4939742,9.9598284,1.4580613,-8.5648851,-14.8015270,-6.4961834
2450,19.6126022,12.3037395,-0.7206510,-104.0457993,111.5877838,250.1297760,1.4843974,9.9526453,1.3598996,-9.3358774,-14.3511448,-6.8473282
2460,19.6126022,19.6126022,3.9001346,-63.9618340,27.8320618,204.7709961,1.4820032,10.0101061,1.2761030,-10.3435116,-12.5572519,-6.1832061
2470,19.6126022,19.6126022,4.6351509,1.4274809,-29.9541988,28.5343513,1.3958124,9.9215212,1.3479286,-10.4274807,-9.8931293,-6.5877862
2480,19.6126022,17.1208496,1.4724265,46.4274826,-63.6641235,-146.7557220,1.1037214,9.8425131,1.5203103,-9.4656487,-5.8244276,-7.1526718
2490,19.6126022,9.9694052,-4.0892754,39.5267181,-65.3740463,-250.1374054,0.7565638,9.6773138,1.5418580,-7.2061067,-2.0229008,-8.8320608
2500,19.0074692,1.5538290,-8.9590569,-15.0000000,-41.6793900,-250.1374054,0.3232156,9.6078825,1.6615674,-3.4885497,2.3129771,-9.3587790
2510,12.5383701,-3.8474624,-10.9366570,-83.2213745,-12.9083967,-250.1374054,-0.0598547,9.5456333,1.5538290,0.8396947,7.5801525,-9.9312973
2520,9.4953556,-5.5712790,-9.5001440,-137.9084015,-16.6488552,-250.1374054,-0.5219333,9.3421268,1.5777708,5.1679387,13.7938929,-10.2824430
2530,11.8512383,-5.1594782,-5.9950504,-167.6030579,-41.3816795,-250.1374054,-1.2377959,8.9901810,1.9392935,11.4656487,20.3969460,-7.8702292
2540,15.2725344,-5.4324160,-3.0501974,-174.7175598,-50.6412201,-250.1374054,-1.3168042,9.1386213,1.6400198,20.4732819,30.3358784,-5.0229006
2550,16.5677910,-5.2336984,-2.1930776,-181.1450348,-30.1221371,-250.1374054,-1.6974803,9.1458035,0.7852941,18.6870232,34.1221390,-3.0916030
2560,15.1480370,-5.1307478,-2.3702476,-190.9313049,2.5419848,-250.1374054,-1.9991482,8.8752604,0.1843526,12.5877867,27.1603050,0.9465649
2570,11.7458935,-4.8075323,-4.1108232,-210.0458069,42.1145020,-250.1374054,-1.7956421,8.9207497,-0.0263361,2.5343511,17.8244267,7.0152674
2580,7.0006099,-3.6463506,-5.2959471,-233.6030579,72.8931274,-250.1374054,-0.9361281,8.8537130,-0.2274480,-10.1755724,10.2442751,13.0534353
2590,2.9161227,-2.5617826,-4.9320302,-249.9770966,92.7709961,-250.1374054,-0.0407012,8.5065556,-0.2011119,-24.9236641,2.7862597,15.9541988
2600,1.9153515,-1.2138541,-3.6918402,-250.1374054,115.6488571,-244.0076294,0.8690908,8.4012108,0.0359128,-39.9160309,-5.3816795,15.9236641
2610,1.9345051,1.3383518,-2.3630650,-228.9465637,105.8320618,-200.9694672,1.7669119,8.2791071,0.4333483,-51.4351158,-12.9389315,14.2595415
2620,3.3351059,4.0796990,-3.0478032,-193.8015289,106.0457993,-170.4122162,2.6240315,8.2886839,1.0725969,-58.4351158,-15.3511448,8.9847326
2630,4.5585365,6.0405402,-3.7397239,-159.1984711,126.5725174,-159.3053436,3.5314295,8.3629036,1.5442522,-61.1832047,-12.8473282,0.9236641
2640,4.7381010,6.4283986,-5.9088597,-141.3358765,141.3511505,-163.7862549,3.6080434,8.2743187,2.2433555,-59.1908379,-7.8396945,-9.2137403
2650,2.5306582,6.2488346,-8.3868456,-145.9389343,138.0839691,-166.0076294,3.1914546,8.4658537,2.7413468,-52.6564903,-1.6412214,-19.1145039
2660,-0.0670373,6.7492199,-9.5264797,-163.8625946,133.5801544,-154.5877838,2.6551561,8.8345594,3.3039815,-44.9160309,4.1068702,-25.2137413
2670,-2.0805507,8.4658537,-9.0907373,-185.0610657,131.5419922,-132.3358765,2.1044924,9.2008705,3.2321558,-37.7709923,8.8549614,-29.3664131
2680,-3.1531475,10.1369982,-7.8313937,-202.0534363,140.9465637,-117.5877838,1.6041069,9.5983057,2.9879484,-33.6183205,11.1297712,-31.2137413
2690,-4.8554163,11.4346485,-4.5130472,-201.5190887,140.5801544,-110.5038147,1.2521610,9.8880024,2.8466914,-32.0763359,11.3206110,-29.7633591
2700,-5.9471664,12.5575237,-1.2066715,-173.3053436,119.6564865,-101.4198456,1.0007712,10.1705170,2.9233053,-30.9923668,11.0000000,-27.2671757
2710,-6.1267309,13.9317884,0.2944853,-128.2824402,89.7175598,-84.1526718,0.8643024,10.2854376,3.0358322,-30.1145039,11.2442751,-22.7938938
2720,-5.7580256,14.7745428,0.6679789,-78.8320618,82.6030502,-65.9542007,0.9983770,10.3883877,3.0693510,-29.4961834,12.1145039,-19.1984730
2730,-5.3103123,15.6220865,0.6679789,-29.5114498,78.1679382,-50.9465637,1.0678085,10.3955708,3.2201848,-29.4656487,13.0305347,-16.9007626
2740,-5.8202744,15.5430775,-0.1340746,21.6412220,75.3358765,-34.6793900,1.1994889,10.3381100,3.6128318,-28.5419846,13.7786255,-16.1908398
2750,-5.5210009,15.8255920,-1.6304430,65.6412201,63.9312973,-13.4274807,1.2210367,10.3452930,3.8211265,-26.4809170,14.8396950,-17.2290077
2760,-4.3143296,16.3068237,-3.1531475,94.5038147,43.1908379,1.6488550,1.0438666,10.3812056,4.2281384,-23.1984730,15.5648851,-18.8320618
2770,-2.3319404,16.2876701,-4.3789725,106.0763321,20.9312973,7.1145039,0.8427547,10.4961262,4.5752959,-19.1755733,15.3740454,-20.4045811
2780,-0.9026094,15.7489786,-3.9288650,112.8320618,4.6259542,7.8167939,0.5578461,10.5511932,4.7069764,-14.8015270,16.1832066,-19.8015270
2790,0.5147507,15.1719790,-3.3590479,124.5801544,-9.8396950,1.9541985,0.2657550,10.3596573,4.7021880,-10.7862597,15.7175570,-19.2442741
2800,1.6831152,14.3866844,-3.1962428,138.3664093,-25.8778629,-12.4885492,0.1484398,10.2902260,4.7452836,-6.8931298,14.2824430,-19.0687027
2810,1.7884595,12.6892042,-3.0310438,149.4503784,-33.9847336,-28.2900772,-0.1723816,10.2782555,4.6159973,-2.9236641,12.7633591,-18.3053436
2820,2.0925217,12.2965574,-3.3135581,155.2748108,-32.9236641,-35.5801544,-0.4309541,10.2686787,4.6351509,0.3969466,10.9847326,-16.8244267
2830,3.3614421,11.7554703,-3.4691806,154.2366486,-23.2366409,-54.2900772,-0.5243275,10.3141680,4.5058646,3.3129771,8.4198475,-13.3816795
2840,3.2249732,10.2806492,-3.4572096,150.2671814,-20.2442741,-78.8549652,-0.4860204,10.3405046,4.4029145,5.4122138,6.6564884,-11.2290077
2850,2.2936335,8.9015961,-3.8139439,144.5572510,-18.0763359,-99.5190811,-0.4165890,10.3692341,4.1611013,6.4656487,5.1755724,-9.8625956
2860,1.6136837,7.8816719,-4.0318151,133.2671814,-13.4045801,-113.4122162,-0.3758878,10.3812056,4.1299767,7.0229006,3.5038168,-8.1374044
2870,0.7517755,7.1083484,-4.1108232,116.6488571,-8.1068707,-121.8473282,-0.3854645,10.5176744,4.0054789,7.3129773,1.8549619,-6.4122138
2880,-0.1843526,6.2727766,-4.2496862,98.4122162,-7.1068702,-122.7786255,-0.2466015,10.5775290,3.9456241,7.3740458,0.5190840,-3.7709923
2890,-0.9792235,5.4970589,-4.1467361,83.1221390,-9.7175570,-119.6030502,-0.0143651,10.6565371,3.8833754,7.2595420,-1.1832061,-0.4427481
2900,-1.6136837,5.2121506,-4.0940638,67.5190811,-17.0839691,-109.6641235,0.1723816,10.6349897,3.8546450,7.2366414,-1.9312977,2.6793892
2910,-2.0853391,4.7476778,-3.5936785,51.5419846,-22.9465656,-94.7251892,0.3399749,10.5320396,3.7852135,7.2290077,-1.0992366,5.4427481
2920,-1.6041069,4.1922259,-2.9759774,39.4351158,-19.3053436,-80.5725174,0.4548960,10.5200682,3.7852135,7.2977099,-0.1603053,8.3282442
2930,-1.2425843,3.7157819,-2.2265961,32.9389305,-5.7404580,-70.2671738,0.4141948,10.4266949,3.9552009,7.5419846,0.3282443,10.1297712
2940,-0.7685348,3.3925664,-1.6974803,31.8473282,10.4732828,-64.4274826,0.4932030,10.2758608,4.0892754,8.7480917,-0.1908397,12.2442751
2950,-1.1204807,3.1986370,-1.7453641,34.1755714,20.7709923,-58.6488533,0.6009415,10.2830439,4.1754665,10.2977095,-1.7633588,13.2137403
2960,-1.3431402,3.2752512,-2.1595588,35.8702278,17.1832066,-50.4503822,0.6272776,10.2207947,4.2808108,12.0458012,-3.7709923,14.4732828
2970,-1.5466464,3.2680686,-2.6192431,34.4503822,3.6870229,-43.7862587,0.7445929,10.1753054,4.1539187,14.0610685,-6.0534353,14.6335878
2980,-1.5777708,3.1603301,-3.7277529,25.2671757,-27.0687027,-36.9007645,0.7398046,10.1657286,4.2520804,16.2977104,-8.7328243,14.4885492
2990,-2.1499822,3.8761928,-2.5019281,15.8931293,-32.7404594,-34.3587799,0.7206510,10.1106625,4.3310885,19.1755733,-11.4961834,14.3587790
3000,-2.3151813,3.8642218,-2.1954718,11.3587790,-25.2671757,-24.7328243,0.7302278,10.0053177,4.3119354,22.7480907,-14.6946564,14.0687027
3010,-1.8363433,3.8833754,-2.1571648,10.4656487,-10.4198475,-12.8167934,0.7733232,9.9789820,4.1467361,26.2671757,-15.9236641,14.2213745
3020,-1.7381816,4.0054789,-2.7054341,9.7862597,-5.7480917,-5.7175574,0.6943150,10.0005293,3.9097114,29.1679382,-16.1832066,12.0305347
3030,-2.5378408,6.2631998,-4.2951760,18.7251911,9.4809160,13.5114508,0.4141948,9.9430685,3.5984666,33.9618340,-15.1068707,12.7862597
3040,-1.6974803,8.4802189,-5.8130918,26.0916023,21.0458012,22.1603050,0.1388630,9.8999729,3.3710186,35.4274826,-14.3587790,13.9389315
3050,-1.8483143,9.4211359,-7.7116842,35.3358765,32.8244286,23.3664131,0.1244979,9.7275915,3.1627243,36.1755714,-14.1450386,15.8244276
3060,-2.4516499,10.1346035,-9.6844959,40.4045792,29.7251911,18.7633591,0.1747758,9.5552101,2.8921809,36.0381660,-14.9389315,17.5190830
3070,-3.1986370,10.7834291,-11.2167778,38.5954208,6.0916033,13.9923668,0.1556223,9.4618368,2.7964132,35.1908379,-15.5343513,18.3511448
3080,-3.4715748,10.9821472,-11.4418316,34.5419846,-22.4809170,12.8244276,0.2849085,9.3086090,2.5617826,33.9541969,-16.3053436,18.6183205
3090,-3.3327117,10.8768024,-10.8121595,34.0610695,-44.7480927,13.4961834,0.3591284,9.1481981,2.4612267,32.6641235,-16.7099228,19.2519093
3100,-2.9544299,10.5104914,-9.6150646,37.0839691,-56.7022896,14.1068707,0.4548960,8.9470863,2.3056045,30.9007626,-16.9847336,19.8396950
3110,-2.3606708,9.8832140,-8.2312231,45.4503822,-60.9541969,11.6641226,0.7230452,8.7028790,2.2409613,29.5648861,-16.5267181,19.7480907
3120,-2.1284344,9.4259243,-7.3932571,56.6412201,-58.9160309,5.3511453,1.1516051,8.4945841,2.1308286,28.5954189,-13.6183205,17.0229015
3130,-2.0685797,8.5640154,-7.1251078,64.9312973,-53.0381660,-4.3206105,1.5250987,8.2791071,1.8722562,27.9007626,-9.5267172,13.6412210
3140,-2.2194135,7.6494355,-7.3525558,65.8015289,-48.6793900,-14.4885492,1.5825592,8.1905222,1.6711442,26.7938938,-5.2824426,10.5343513
3150,-2.9400647,7.0293403,-7.3812861,58.6335869,-45.5648842,-21.9694653,1.5753766,8.0516596,1.4724265,24.6259537,-2.7786260,7.7862597
3160,-3.7612717,6.2871413,-7.0101867,46.5801544,-40.7175560,-20.4427490,1.6088953,8.0516596,1.4939742,21.8854961,-1.9847329,7.2977099
3170,-4.1898317,5.7963328,-6.6390872,31.8473282,-35.6259537,-12.7175570,1.6017127,8.0253229,1.4341195,18.9694653,-2.1679389,5.6030536
3180,-4.1539187,5.4587522,-5.9375896,16.2061062,-28.7480907,-2.4045801,1.7405758,7.8912482,1.4939742,15.8320608,-3.6793892,3.6259542
3190,-3.9336534,4.9775200,-4.8410511,4.1908398,-20.5877857,6.5343513,1.7669119,7.9151902,1.4939742,13.4503813,-5.8854961,0.1297710
3200,-3.7181761,4.4460096,-3.7636659,-2.4198472,-13.2519083,13.0381680,1.7860653,7.9822278,1.5753766,11.7786255,-6.8931298,-3.7709923
3210,-3.8881636,4.0725164,-2.9400647,-4.4732823,-8.2442751,20.2290077,1.7046629,8.0420828,1.5394639,10.9923668,-6.7099237,-7.1984735
3220,-3.8809812,3.8618276,-2.2912393,-4.1679387,-5.2595420,30.9160309,1.3646880,8.2671366,1.5921360,11.4351149,-6.0992365,-10.3435116
3230,-3.8067613,3.7181761,-1.9201399,-2.3282442,-4.0992365,44.0763359,0.9864060,8.4993725,1.4029950,12.0229006,-6.1145039,-12.7175570
3240,-3.4500270,3.4931223,-1.5203103,1.9160305,-4.0992365,59.6946564,0.7038917,8.6669655,1.2066715,12.1450386,-5.7557254,-13.7557249
3250,-3.0382264,3.4404502,-1.5155219,8.4580154,-3.9312978,77.0381699,0.4285599,8.9351149,0.9600700,11.2366409,-6.7251906,-13.5725193
3260,-2.4755919,3.7109938,-1.9177457,14.7251911,-2.3893130,92.5419846,0.2466015,9.2104464,0.7757174,8.4122133,-8.6030531,-13.9160309
3270,-1.9943599,4.0102673,-2.3917952,17.3740463,-5.1297708,105.5114517,0.1221037,9.3971939,0.4955972,3.9847329,-11.4580154,-13.4809160
3280,-1.7860653,4.1275826,-3.1627243,16.1297703,-11.3053436,113.4732819,0.0287303,9.6509781,0.3303981,-1.4809160,-13.9694653,-13.0000000
3290,-1.8507085,4.1874375,-4.1634955,12.8091602,-18.3053436,120.8320618,0.0933734,9.7539282,0.3064562,-7.2977099,-16.0381680,-12.0763359
3300,-2.2146254,4.3358769,-5.8274570,3.3358779,-29.4503822,129.6106873,0.1292862,9.8592720,0.4094064,-12.7709923,-17.3053436,-12.4045801
3310,-1.5729824,4.7955613,-6.7731619,-16.6183205,-28.9083977,134.9770966,0.1197095,10.0101061,0.5410868,-17.0458012,-18.0152664,-12.8244276
3320,-1.8722562,4.6734576,-6.9192076,-40.4045792,-25.1603050,136.9847260,0.0263361,10.2303715,0.7757174,-19.9847336,-17.1603050,-11.8702288
3330,-3.0382264,4.9152708,-6.5744443,-52.7022896,-21.6183205,142.6412201,0.0694315,10.3428984,1.0103480,-21.7938938,-15.8549614,-9.0916033
3340,-4.2401094,5.4395986,-6.5457139,-55.0916023,-19.0152664,159.1297760,0.2082945,10.4721851,1.3934183,-22.3053436,-13.1068707,-7.3358779
3350,-5.4898763,6.1674318,-6.5816269,-52.0228996,-15.8167934,181.5877838,0.2370248,10.4147243,1.6112895,-20.8702297,-9.4732828,-5.0076337
3360,-5.6454988,7.1418672,-6.9096308,-44.4045792,-12.3816795,203.7862549,0.3639168,10.3692341,1.7788827,-18.7633591,-4.8625956,-3.0076337
3370,-5.6215568,7.7571740,-6.7109132,-30.3282452,-16.1374054,221.2671814,0.4525018,10.3931761,2.0446377,-16.3740463,-0.8396947,-1.9694656
3380,-4.7524662,8.9231443,-6.4283986,-8.1755724,-21.8702297,230.2671814,0.6057299,10.4027529,2.3127871,-14.2595415,2.5114503,-0.3816794
3390,-4.3382711,9.9502516,-6.7803445,19.6488552,-25.6106873,230.6412201,0.6607963,10.3955708,2.4109488,-12.0458012,4.1374044,0.4732825
3400,-3.7205703,10.4075413,-8.0444765,43.9007645,-34.9312973,224.5267181,0.7302278,10.4027529,2.4851687,-10.2900763,5.4732823,2.3206108
3410,-3.1986370,10.4769726,-9.3540983,58.7404594,-49.0687027,214.0610657,0.7541697,10.3357162,2.4899571,-9.1755724,5.7022901,3.0458016
3420,-2.9783716,10.0508070,-10.1848822,61.6946564,-60.6412201,205.3435059,0.6584021,10.3381100,2.4253139,-9.1755724,4.7557254,4.3740458
3430,-3.0885043,9.2894554,-10.1537571,56.5343513,-60.1603050,208.5114441,0.6033357,10.1322098,2.5067163,-9.6717558,2.9465649,5.5419846
3440,-3.1627243,8.8944139,-9.1290445,52.0763359,-52.9389305,222.6717529,0.6344602,10.0699606,2.5019281,-10.3358774,1.4198474,7.0305343
3450,-2.4875629,8.5185261,-7.6254935,58.7404594,-44.5496178,241.4122162,0.7134684,9.9071560,2.6120608,-10.7404585,0.3587786,8.1984730
3460,-0.5674229,8.9997578,-6.6773944,77.3129807,-35.3282433,250.1297760,0.7781116,9.8042059,2.6767037,-10.8015270,0.1832061,9.0839691
3470,1.7501525,9.2272062,-6.5912037,105.6106873,-24.8702297,250.1297760,0.9696468,9.6940727,2.7413468,-10.5877867,-0.2061069,10.6564884
3480,3.2177906,9.2870607,-7.4052281,136.1374054,-9.0534353,243.0152740,1.0534433,9.5959110,2.7820482,-9.5877867,0.0000000,10.5267172
3490,3.1339941,9.1912937,-9.1505919,157.6717529,1.9312977,219.1526642,1.1994889,9.5887289,2.9328821,-8.0076332,0.2442748,9.5038166
3500,1.9153515,8.8058290,-11.0611553,161.5114441,-0.2290076,200.1908417,1.2377959,9.4618368,2.7916248,-5.9847326,0.6412213,9.2519083
3510,1.2042773,7.9894104,-12.7993364,149.6259613,-6.4122138,189.8854980,1.3335636,9.5001440,2.6479735,-4.6946564,0.8015267,8.1679392
3520,-0.3136388,6.9072366,-13.1417055,131.6106873,-12.1984730,189.5877838,1.5921360,9.5695753,2.5115047,-3.6259542,0.8167939,7.2366414
3530,-1.5801650,6.1147599,-12.8711624,112.9389343,-17.3435116,201.0992432,1.6759326,9.6294298,2.5162930,-3.0458016,1.3587786,5.6030536
3540,-1.8100072,5.0038562,-11.6213961,102.9312973,-24.7938938,216.2366486,1.8770446,9.6581602,2.4348907,-2.8931298,1.7862595,4.2595420
3550,-0.9289455,3.2584918,-10.6469603,102.0763321,-31.8625946,225.6412201,2.0446377,9.6868906,2.3415172,-2.8931298,2.4503818,1.6717557
3560,-0.0502780,1.3934183,-9.9717989,101.7786255,-36.8625946,228.7862549,2.0709739,9.6054878,2.2481439,-3.3664122,2.7480917,-1.5648855
3570,0.7110743,-0.5793939,-9.0500364,99.5877838,-40.0000000,231.2442780,2.0422437,9.6677370,2.3247581,-2.8854961,3.3206108,-5.9007635
3580,2.5258698,-2.5713594,-8.1905222,89.1068726,-52.3435097,230.9541931,1.8363433,9.6509781,2.3654592,-1.7022901,3.4122138,-9.0839691
3590,6.5744443,-3.9097114,-5.5593081,84.9542007,-72.5114517,215.8320618,1.4460905,9.8018112,2.3486998,0.1450382,4.7099237,-11.7251911
3600,11.5878773,-6.1291251,-2.9256995,93.5725174,-93.5648880,175.0000000,1.1492109,9.8329363,2.2289903,1.4809160,6.0687022,-11.3587790
3610,17.1256371,-9.7275915,-1.2066715,106.8396912,-107.8473282,108.3893127,0.9265513,9.6677370,2.2792683,3.5267177,6.5343513,-10.5190840
3620,19.6126022,-14.5854025,-0.7589580,109.9083939,-109.4580154,35.8473282,0.8786675,9.6988611,2.1739240,3.5648854,7.6488547,-8.7633591
3630,19.6126022,-19.0361996,-0.5027798,94.1221390,-93.9847336,-4.9160304,0.9050036,9.6174593,2.0087249,2.2824428,7.4961834,-8.5496187
3640,18.1383801,-19.6131992,-1.5059452,60.8702278,-42.3129768,16.9465656,0.8834559,9.4522600,2.1499822,1.8854961,6.7175574,-7.3282442
3650,13.9437590,-16.4313221,-4.4531922,7.2824426,74.6488571,120.7022934,0.8810617,9.5073261,2.1164634,1.8702290,5.9389315,-6.3511453
3660,14.2166967,-8.2360115,-6.1363077,-71.8015289,189.1145020,249.7938995,1.2569494,9.6390066,2.0470319,1.6335878,4.7175574,-5.6564884
3670,18.1886578,0.2537841,-3.7756367,-157.1297760,233.4885559,250.1297760,1.5227045,9.8664551,2.0661855,-0.3511450,2.5801528,-5.2824426
3680,19.6126022,9.5935173,3.4212968,-202.5190887,202.0610657,250.1297760,1.8842272,10.1872759,1.8004304,-3.8473282,-0.9083970,-4.6870227
3690,19.6126022,15.2964764,9.7611103,-171.3358765,146.3587799,202.8854980,2.3127871,10.4554253,1.5634058,-10.1603050,-5.2366414,-3.8931298
3700,19.6126022,16.9891682,10.8337069,-72.5725174,111.2061081,77.0534363,2.1308286,10.3740225,1.6711442,-17.5343513,-8.9694653,-3.1984732
3710,19.6126022,14.2430334,6.9359670,42.6717567,96.1374054,-63.1679382,2.0997043,10.4195127,2.0135133,-24.3816795,-9.5572519,-1.2366412
3720,19.6126022,7.0317345,-0.6464311,124.2977066,78.2442780,-204.8473358,1.9680238,10.2854376,2.4755919,-29.5877857,-9.6870232,-1.0381680
3730,19.6126022,-0.2154770,-8.1426382,130.2824402,36.5954208,-250.1374054,1.4436963,9.9263096,2.9999194,-32.2748108,-11.4198475,-1.2900764
3740,14.5494890,-6.3062949,-13.3188763,66.1603088,0.0305344,-250.1374054,1.1252691,9.7539282,3.7014170,-30.6564884,-12.5038166,-0.0229008
3750,10.1034794,-8.4993725,-13.8312321,-28.0458012,-27.0610695,-250.1374054,0.9768293,9.5097208,4.0773048,-25.7099228,-10.9312973,0.3893130
3760,9.5121145,-8.3413563,-9.8999729,-105.6717529,-44.9312973,-250.1374054,0.6105183,9.1266499,4.3263001,-17.2977104,-7.8702292,-0.8320611
3770,12.0308018,-7.9798336,-5.1115947,-145.3053436,-68.7633591,-250.1374054,0.3830703,8.6885138,4.3215117,-5.9007635,-3.6870229,-2.9618320
3780,14.5925846,-7.9104018,-2.0302727,-158.9007568,-82.5877838,-250.1374054,0.0383070,8.4658537,3.9671719,6.4045801,1.9465649,-5.4503818
3790,15.9668493,-7.9726510,-0.5291159,-162.6793823,-74.3587799,-250.1374054,-0.1771700,8.3868456,3.4715748,17.6488552,8.2137403,-9.6564884
3800,15.3898497,-8.2192526,-0.4118006,-161.8091583,-34.3282433,-250.1374054,-1.0749911,7.8242111,3.5026991,28.9312973,15.0534353,-9.5038166
3810,12.0523500,-8.7004843,-1.2737088,-161.0992432,25.2213745,-250.1374054,-0.7230452,8.8896255,1.9297167,29.8167934,22.1297703,-11.8625956
3820,8.3102312,-7.7308378,-2.3032103,-160.7938995,71.5419846,-250.1374054,-1.7262106,8.4299412,1.4269369,30.1068707,22.8091602,-8.6717558
3830,4.1108232,-5.8274570,-3.4907281,-156.1068726,94.8854980,-250.1374054,-1.9345051,8.8968077,0.9840119,24.0839691,21.4656487,-2.5725191
3840,2.4684093,-2.8419030,-3.9959023,-141.3053436,105.2595444,-237.7709961,-1.4891858,9.0428534,0.4261657,12.0458012,16.7175579,3.5725191
3850,2.0661855,0.6823440,-4.8602047,-115.4809189,117.1145020,-198.0534363,-0.9433106,9.0260944,-0.1795642,-5.2137403,5.8625956,7.5648856
3860,2.8826041,3.0310438,-6.0309634,-86.9007645,115.6412201,-172.4961853,-0.4141948,8.8393478,0.1819584,-22.4427490,-9.2061071,11.1755724
3870,4.5106530,4.7596488,-7.6733770,-65.0152664,98.2977066,-168.5572510,0.6847382,8.8489246,0.8140244,-34.6641235,-22.4656487,13.1221371
3880,4.5082588,5.5808558,-9.0308828,-54.3969460,77.2061081,-184.6412201,1.9392935,8.8177996,1.5442522,-42.1603050,-29.6030540,10.2671757
3890,3.4667864,6.9120250,-10.8624372,-62.6717567,52.6030540,-207.6183167,2.8347204,8.6956959,1.8914096,-45.1068687,-32.8396950,3.6946564
3900,1.0127422,8.7124557,-11.4514084,-87.0534363,52.0763359,-218.6259613,3.4284792,9.0165176,1.9776005,-47.0763359,-32.3969460,-5.4274807
3910,-0.5458752,9.9502516,-10.9055328,-112.7175598,48.1984749,-215.0839691,3.5505829,8.9686337,2.5546002,-44.9389305,-30.0839691,-15.4809160
3920,-0.9409165,9.4546537,-9.3900108,-128.4961853,36.9007645,-208.7633514,3.1555417,9.1577749,3.1363883,-39.6717567,-25.0458012,-24.5114498
3930,-2.5833304,8.8896255,-8.7316093,-132.2290039,23.9923668,-198.9389343,2.5258698,9.4402885,3.2680686,-32.3664131,-18.8778629,-28.6641216
3940,-4.4675574,10.0532017,-8.2910776,-135.8091583,16.2519093,-177.9313049,2.0183017,9.7898407,3.0118904,-25.9312973,-14.0458012,-29.3587780
3950,-4.5944495,11.6597023,-7.7763271,-138.1450348,20.6717548,-156.8702240,1.6160779,10.0196829,2.9975252,-22.4351139,-10.2824430,-29.1221371
3960,-3.5434003,12.3420467,-7.0580707,-138.1450348,29.5725193,-149.3740387,1.0223188,10.1992474,2.8251436,-21.7404575,-6.2519083,-27.1755733
3970,-3.8283088,12.3204985,-6.3757267,-131.9084015,39.2061081,-154.6030579,0.6009415,10.3285332,2.9831600,-21.6335869,-2.3740458,-24.7328243
3980,-4.7883787,12.0691090,-5.8897061,-121.5648880,40.9312973,-161.4809113,0.1939293,10.3812056,3.2321558,-21.3358784,0.3206107,-21.3893127
3990,-6.3613615,11.7913828,-5.1403246,-111.0000000,35.0610695,-155.0076294,-0.0095768,10.3596573,3.3375001,-20.5114498,1.7938931,-17.4122143
4000,-7.4579000,11.7530756,-4.2472920,-98.1908417,26.3053436,-133.1832123,-0.0885850,10.3788109,3.6319854,-18.9847336,2.5343511,-13.2137403
4010,-7.9247670,11.4753504,-3.0430148,-81.1221390,19.6793900,-104.0763321,0.0454896,10.3764172,3.6343796,-16.8015270,3.0229008,-8.3282442
4020,-7.5177550,11.4514084,-1.9991482,-59.5648842,18.4351139,-75.3893127,0.2202654,10.3357162,3.6942344,-15.5038166,4.0916033,-4.2977099
4030,-6.3733325,11.4083128,-1.0486550,-31.7786255,23.5190830,-50.1526718,0.4022238,10.2471304,3.8666160,-13.9312973,4.5954199,-2.0076337
4040,-4.7740140,11.3676119,-0.4333483,0.3816794,31.0839691,-34.1755714,0.4453192,10.0244713,3.8857694,-12.3969469,5.0916033,-0.1297710
4050,-2.9999194,11.2287483,-0.2394189,33.6946564,40.7862587,-29.1984730,0.4644727,9.8616667,4.0677280,-10.5496187,6.2824426,1.3435115
4060,-1.6879035,10.9198980,-0.5985473,64.5725174,45.5114517,-31.4503822,0.5147507,9.6701307,4.1108232,-8.1832066,7.6106873,3.4274809
4070,-0.8116302,10.4338779,-1.1994889,88.7862625,43.6870232,-37.0763359,0.8188128,9.5671806,4.1754665,-5.8167939,8.2519083,3.9465649
4080,-0.4836263,9.8113880,-1.8961980,104.4274826,41.0916023,-43.5114517,1.0462608,9.5049324,3.7588775,-6.1297708,7.5725193,4.3435116
4090,-0.4477134,9.2870607,-2.7748656,113.3740463,38.3358765,-48.7786255,1.0797794,9.4905672,3.6942344,-7.1526718,5.0229006,4.1145039
4100,-0.9313397,8.6645718,-3.0837159,115.7480927,37.7633591,-51.4732819,1.2114599,9.5049324,3.7229645,-9.8244276,2.0687022,5.5343513
4110,-1.3168042,8.2479830,-3.5864959,112.7099228,34.1374054,-49.2977104,1.3814473,9.6102762,3.7708483,-12.9847326,-3.3511450,6.2748094
4120,-1.4867916,7.8625183,-3.9360476,104.4045792,28.9160309,-44.8702278,1.6807210,9.6414013,4.0006905,-16.3587780,-10.7557249,5.7633586
4130,-1.5610116,7.5153608,-4.1491303,94.1832047,23.6488552,-40.7099228,1.7070571,9.7563219,4.2329268,-19.2824421,-18.1221371,4.8396945
4140,-1.3742647,6.9599090,-4.0437860,82.8931274,19.3511448,-39.9541969,1.8890154,9.8736372,4.6782460,-21.0916023,-25.9923668,5.1145039
4150,-1.3215926,6.4092450,-4.0773048,70.7557220,15.1526718,-41.9465637,2.2696917,9.6749191,5.5928264,-20.8702297,-34.5190849,5.1297708
4160,-1.4341195,5.9974446,-3.7493007,59.4656487,12.1603050,-45.1832047,3.2704628,9.4905672,7.1610208,-13.9770994,-43.7480927,2.6412213
4170,-1.5921360,5.5521255,-3.2321558,50.7175560,12.3969469,-47.7022896,3.5745249,9.2559366,8.6238708,3.0305343,-56.0152664,-4.1145039
4180,-1.7717001,5.0517397,-3.1172347,43.8625946,16.5572510,-49.1603050,3.4859397,8.8896255,9.4259243,28.9770985,-59.3740463,-14.2519083
4190,-2.2984219,4.5681133,-3.4380560,35.4961815,22.8931293,-46.6488533,3.6128318,8.9063845,9.1697454,57.4809151,-56.5725174,-24.3587780
4200,-2.7533178,4.4148855,-3.8618276,24.1374054,29.9618320,-37.6488533,3.5673423,9.2128410,7.5680327,74.1984711,-69.1755753,-31.7786255
4210,-2.9017577,4.4531922,-4.2520804,13.1679392,35.3664131,-26.4045811,2.8969693,9.3636751,6.8809004,93.8396912,-36.7404594,-42.4351158
4220,-2.9113343,4.2448978,-4.5441718,2.9007633,35.3435097,-17.5419846,1.2856797,9.9837704,5.3222833,106.3358765,-25.3816795,-47.4732819
4230,-2.5857246,4.5417776,-4.9080882,-6.7022901,31.7633591,-12.0687027,-0.5291159,10.4171181,3.6822634,107.7022934,-14.9923668,-43.9236641
4240,-1.8483143,5.1977854,-5.1786318,-17.0992374,28.3740463,-9.8625956,-1.3407460,10.8049774,2.7557120,104.6488571,-12.5954199,-36.0228996
4250,-1.3838415,5.8011212,-5.2217274,-24.5190830,26.1908398,-10.5267172,-1.8147956,11.0683374,2.1212518,97.9847336,-11.7786255,-27.3206100
4260,-1.3958124,6.5241661,-5.8202744,-30.7099228,24.2213745,-13.5038166,-1.8914096,11.1042509,1.9249283,90.0305328,-14.6641226,-18.2900772
4270,-1.7405758,7.4602942,-6.3350253,-38.1603050,26.1603050,-14.2061071,-2.0613971,10.9821472,1.7908537,82.6793900,-19.0458012,-10.4580154
4280,-2.4803803,8.3581152,-6.6845770,-46.2595406,28.7938938,-11.1068707,-1.9273225,10.7570934,1.5801650,77.6870193,-21.9160309,-3.3358779
4290,-2.9448531,8.9422979,-6.7587967,-53.4656487,25.5267181,-4.4809160,-1.3862357,10.6709023,1.3120158,75.1450348,-20.6641216,1.8473282
4300,-3.0885043,9.4450769,-6.3613615,-55.9694672,19.3206100,3.2748091,-1.0606259,10.4506369,1.1803354,74.0381699,-13.9312973,6.6564884
4310,-2.9352763,9.7826586,-5.8394279,-53.8931313,13.0000000,11.4961834,-0.7733232,10.1585455,0.7900825,72.7328262,-5.0610685,11.4351149
4320,-2.4684093,10.1753054,-5.1953912,-47.6335869,10.4580154,19.6259537,-0.6440369,9.9310980,0.5961532,71.8244247,3.8549619,15.5801525
4330,-1.6807210,10.6780853,-4.3957319,-35.9007645,8.4427481,25.7786255,-0.3734936,9.5576038,0.3064562,70.4274826,11.1679392,21.1145039
4340,-0.9768293,10.8720140,-4.0270267,-20.0839691,3.3053436,26.7557259,-0.1316804,9.2248116,-0.1388630,67.6259537,14.7938929,25.5267181
4350,-0.2681492,11.0779142,-3.7062054,-2.9312978,-3.1374047,22.8244267,0.1244979,9.0189114,-0.4788379,62.4274826,14.8778629,28.0305347
4360,-0.0191535,10.8337069,-3.5888901,13.4045801,-9.7557249,14.6793890,0.4932030,8.7675219,-0.7589580,54.9694672,10.5114508,27.6488552
4370,-0.2657550,10.3548698,-3.9288650,25.1908398,-14.7938929,6.7251906,0.7350162,8.7316093,-0.8355721,45.8167953,4.6259542,26.0458012
4380,-0.8571198,10.0316534,-4.0701222,30.7404575,-17.9618320,3.9083970,0.9385223,8.6933022,-0.9002152,36.4351158,0.8091603,23.6946564
4390,-1.2976507,9.5839405,-4.0940638,31.3282452,-19.2595425,6.2824426,1.0366840,8.6909075,-0.7852941,26.9694653,-1.3206106,22.2061062
4400,-1.3120158,9.1290445,-3.9384418,28.7099228,-17.7404575,10.1297712,0.9026094,8.5855637,-0.7757174,16.8015270,-3.6412213,21.3587780
4410,-1.2018831,8.5161324,-3.8019729,25.9312973,-12.4274807,12.4732828,0.9002152,8.4419117,-0.6895266,6.4503818,-8.5190840,20.0992374
4420,-1.4197544,7.9726510,-3.7732425,22.9007626,-6.4961834,13.1526718,0.9026094,8.4395180,-0.3854645,-2.9236641,-15.3282442,18.9923668
4430,-1.8147956,7.5440907,-3.7612717,18.1297703,-0.6106870,14.9083967,1.0055596,8.3557215,-0.2896969,-11.0534353,-21.7328243,17.9083977
4440,-2.0015423,7.0341287,-3.8163381,12.0534353,4.0916033,19.1145039,1.1779412,8.2791071,0.0000000,-17.7022896,-26.3358784,16.1679382
4450,-1.5250987,6.8761120,-3.7301471,7.7633586,8.9160309,21.8167934,1.2689204,8.3102312,0.2657550,-22.1526718,-29.2595425,14.3282442
4460,-1.1300575,6.5935979,-3.9767487,5.1603055,12.2519083,17.8320618,1.3144100,8.3533268,0.4979914,-24.3511448,-28.9160309,11.6564884
4470,-1.9225341,5.3749552,-4.6255741,-3.0458016,10.7786255,3.5114503,1.5610116,8.6310530,0.6751614,-24.9923668,-24.1832066,7.5114503
4480,-3.2800395,4.8530221,-5.5210009,-18.7786255,5.7862597,13.9847326,1.7764885,9.0284882,0.7589580,-24.9083977,-20.2748089,2.5954199
4490,-3.5194585,4.7548604,-5.8633699,-30.3129768,3.6717558,25.8702297,1.6256547,9.2535419,0.8212070,-25.8167934,-20.3129768,0.7786260
4500,-3.7660601,4.9870968,-5.8633699,-41.7404594,4.4427481,39.0458031,1.5466464,9.4283180,0.7781116,-27.1908398,-20.9618320,-0.0229008
4510,-3.8666160,5.4515696,-5.7197185,-51.5267181,8.0229006,51.0381660,1.6424140,9.5983057,0.8643024,-29.2977104,-21.3206100,-0.8167939
4520,-3.6559272,6.4068508,-5.5186067,-59.3816795,12.3358774,64.1832047,1.8411317,9.7850523,0.9720409,-30.9389305,-20.8702297,-1.0839695
4530,-3.5697365,7.2567883,-4.9032998,-63.5725174,15.9236641,77.6946564,1.9871773,9.7395630,1.3287752,-31.8015270,-20.1603050,-3.0305343
4540,-3.2967989,8.0253229,-4.5154414,-61.1450386,14.1679392,87.7328262,1.9201399,9.8496952,1.7740943,-30.5648861,-20.0534344,-6.3969464
4550,-3.1986370,9.1434097,-4.4699516,-55.5114517,11.3435116,94.0457993,1.8076130,9.9358864,2.1499822,-26.5496178,-21.2213745,-9.7633591
4560,-3.5266411,10.1633339,-4.9679432,-51.4732819,9.1755724,99.3816757,1.8363433,10.0436249,2.3367288,-20.1679382,-21.8625946,-13.3129768
4570,-4.1204000,11.1712875,-5.2384863,-49.2519073,4.7099237,107.1374054,1.9297167,10.1800938,2.4037662,-13.3282442,-20.9770985,-16.4656487
4580,-4.3861551,12.3468351,-5.1666608,-47.0000000,-0.1908397,116.5725174,1.7381816,10.3237448,2.3558824,-6.4122138,-18.6106873,-21.6488552
4590,-4.5274124,12.7730007,-5.0110383,-43.5267181,-9.5419846,126.3206100,1.4101776,10.4338779,2.3056045,0.9618320,-15.2519083,-24.8625946
4600,-4.3646073,13.2685976,-4.7931671,-37.9160309,-14.2824430,133.6488495,0.9911944,10.5727406,2.3654592,8.6641226,-11.4045801,-26.2519093
4610,-4.0773048,13.2039547,-4.3382711,-29.8473282,-14.7404585,138.3587799,0.5961532,10.5895004,2.1882892,16.4198475,-6.7404580,-25.6870232
4620,-4.6351509,12.9166517,-4.3095412,-19.0687027,-10.3358774,146.2061005,0.0646431,10.5751352,2.0183017,23.2442741,-1.5419847,-22.5877857
4630,-5.1259594,12.8591919,-3.7828193,-4.0152674,-2.2595420,159.2977142,-0.2920911,10.5918941,1.6567791,28.0839691,3.4351146,-17.3893127
4640,-6.0285692,12.2199430,-3.1627243,19.8167934,-3.1068702,173.3969421,-0.5243275,10.4171181,1.3886299,30.3435116,6.8625956,-11.4656487
4650,-7.2591825,11.1712875,-3.0071020,53.5114517,-13.1145039,194.4656525,-0.5482694,10.3141680,0.9289455,29.3816795,8.4045801,-5.2290077
4660,-7.8697009,10.3045912,-2.9424589,91.9923630,-27.5114498,223.7251892,-0.5123565,10.2136126,0.6679789,25.8625946,7.4503818,0.6564885
4670,-6.6103573,9.8425131,-3.1842721,128.8625946,-43.6946564,250.1297760,-0.4764437,9.9717989,0.5315101,20.0687027,5.4809160,5.7862597
4680,-4.7261300,9.1098909,-4.3119354,158.2061005,-47.3358765,250.1297760,-0.1556223,9.8353300,0.4285599,13.6488552,2.8549619,9.5114508
4690,-3.2489152,8.5855637,-5.7843618,174.5496216,-40.6412201,250.1297760,0.1939293,9.6749191,0.5386927,7.3511453,0.8091603,12.0458012
4700,-2.4923513,7.6302819,-7.1586266,175.1068726,-31.4351139,250.1297760,0.3423691,9.5456333,0.7134684,2.1145039,-1.4580153,13.2137403
4710,-2.5282640,6.8354111,-8.2719250,162.5343475,-19.6870232,250.1297760,0.4979914,9.3852224,0.8619082,-2.3206108,-2.9389312,13.6259546
4720,-2.6192431,6.1147599,-8.7268209,142.9160309,-5.2137403,250.1297760,0.5913648,9.2176294,0.9504932,-5.4427481,-3.6488550,13.9847326
4730,-1.7621235,5.1786318,-8.9087791,121.5801544,7.6564884,250.1297760,0.7302278,9.1290445,0.9337339,-8.3129768,-2.7862597,14.7709923
4740,0.1675933,3.8043671,-8.7363977,101.6259537,14.8320608,250.1297760,0.8523315,8.9877872,1.0965388,-10.4580154,-1.5114504,14.9389315
4750,2.9544299,1.7070571,-8.0756006,82.0229034,11.1984730,250.1297760,0.9552816,9.0380650,1.1731528,-11.9236641,-0.0458015,15.5038166
4760,6.2464404,0.0430954,-7.1466556,67.2442780,-0.6946565,250.1297760,1.0630201,9.0165176,1.0821736,-13.6564884,1.1679389,14.5954199
4770,9.2703018,-1.8531027,-6.2655940,57.3435097,-15.6030531,250.1297760,1.2234308,9.0500364,1.1923064,-16.2366409,1.4351145,14.3511448
4780,11.8823624,-4.3191175,-5.1762376,48.2977104,-36.6259537,216.5496216,1.3622938,9.1122847,1.2784972,-19.1755733,1.2900764,12.9236641
4790,16.0314922,-7.0269461,-2.5905130,42.3511467,-67.9083939,153.5114441,1.4724265,9.0883436,1.3934183,-22.0152664,0.4427481,11.8473282
4800,19.6126022,-10.6086531,0.8475431,48.1297722,-98.7786255,80.5648880,1.5227045,9.1146793,1.5993185,-23.1908398,-0.6030535,10.2900763
4810,19.6126022,-16.5246964,3.1938488,59.2595406,-112.1450348,10.9465647,1.5969244,9.1481981,1.7764885,-23.4122143,-1.5343511,8.0076332
4820,19.6126022,-19.6131992,4.2568688,55.1068687,-91.6259537,-20.6870232,1.7333932,9.2990322,1.8243724,-22.6488552,-2.6717558,5.6793895
4830,17.6475697,-19.6131992,0.8499373,21.9160309,-18.7175579,27.6183205,1.8722562,9.4426832,1.8363433,-21.1755733,-3.8854961,3.7862597
4840,8.8848372,-11.3053627,-2.8873925,-50.8549614,84.1526718,171.0076294,2.1332228,9.6126709,1.8842272,-19.2900772,-4.6183205,-0.0076336
4850,9.7539282,-1.7717001,-0.5195391,-139.0076294,131.4809113,250.1297760,2.3295465,9.7898407,1.7429699,-17.4656487,-4.1068702,-3.3129771
4860,18.4591999,3.8426740,6.6702118,-192.0000000,115.5877838,250.1297760,2.4492557,9.9885588,1.6807210,-15.2595415,-3.4732823,-8.2061071
4870,19.6126022,9.0644016,12.7299051,-177.7709961,62.1450386,250.1297760,2.3008161,10.1729107,1.7812769,-12.5190840,-2.7709923,-11.9236641
4880,19.6126022,13.0938225,15.6939116,-94.7480927,25.7175579,181.4198456,2.1499822,10.3835993,1.6663558,-9.1832066,-2.1603053,-14.2977095
4890,19.6126022,11.6309719,13.2709923,21.1832066,19.0916023,23.3282452,1.9512644,10.5344334,1.6519908,-5.8396945,-1.2213740,-16.6412220
4900,19.6126022,6.6989422,6.0525107,120.9160309,18.6259537,-129.5190887,1.6687500,10.7163916,1.7453641,-2.8091602,-0.7786260,-17.6030540
4910,19.6126022,1.2856797,-2.1020982,155.6183167,22.6717548,-247.5496216,1.6831152,10.9055328,1.5658000,-0.4351145,-0.8473282,-17.8702297
4920,19.3953285,-4.5633249,-8.7962523,118.0457993,9.1603050,-250.1374054,1.6256547,11.1257982,1.5203103,1.0000000,-0.9007633,-17.3053436
4930,14.8559456,-7.7835097,-11.3005743,38.3816795,-16.6259537,-250.1374054,1.5514348,11.2191715,1.3144100,1.5801526,-0.7328244,-16.9389305
4940,11.7578640,-8.6454182,-9.8089943,-46.1755714,-44.3206100,-250.1374054,1.2761030,11.1832590,1.6112895,2.3816793,0.1145038,-16.4961834
4950,11.9996777,-9.4378948,-6.3637557,-104.1221390,-71.8396912,-250.1374054,1.0079538,11.0922794,1.8004304,4.3206105,1.0839695,-16.1145039
4960,13.9820662,-10.1633339,-2.9304879,-130.3511505,-90.3740463,-250.1374054,0.5817881,11.0396080,2.1882892,8.0534353,3.0305343,-15.1068707
4970,14.5351238,-10.4865494,-0.3830703,-133.3053436,-91.4274826,-250.1374054,0.0885850,10.9342632,2.4564383,13.7557249,5.3511453,-13.1984730
4980,13.3356352,-9.9358864,0.6320660,-120.1221390,-62.1603050,-250.1374054,-0.1364688,10.7930059,2.4803803,19.9770985,7.3206105,-9.4427481
4990,9.8473015,-8.4562769,0.0383070,-98.0305328,-2.2671757,-250.1374054,-0.1651991,10.5918941,2.2242019,25.7175579,6.7938933,-4.0076337
5000,6.0836353,-5.9471664,-1.2090657,-77.2137375,49.6793900,-250.1374054,0.2849085,10.4506369,1.7836711,29.5877857,5.8091602,1.2290076
5010,3.4045374,-4.0030847,-2.8514795,-59.8854980,76.3664093,-250.1374054,0.6584021,10.2279778,1.2354017,30.0916023,4.9923663,5.1603055
5020,2.5306582,-2.7269819,-5.2528515,-54.1374054,86.6564865,-230.9389343,1.1109039,9.8664551,0.5482694,26.9770985,3.1603053,7.8854961
5030,2.2912393,-1.7525467,-7.3118544,-47.3206100,96.5190811,-193.1068726,1.6519908,9.6557665,0.3663110,21.0839691,-1.2977099,9.7175570
5040,2.2218077,1.1516051,-8.8824425,-46.1832047,108.2748108,-162.1221313,2.1523764,9.5169029,0.1891410,13.9847326,-6.6870227,10.8778629
5050,2.2026544,4.0389977,-9.6916790,-50.9847336,104.8778610,-143.5496216,2.5929072,9.4762020,-0.0478838,5.1679387,-11.5572519,9.9465647
5060,1.4460905,5.8944945,-10.5392218,-60.5801544,74.5114517,-135.4045868,3.0358322,9.5121145,0.0071826,-4.6870227,-15.9083967,9.1755724
5070,1.3742647,7.3334022,-11.1234045,-77.8778610,32.1145020,-135.5801544,3.2800395,9.3780403,0.0478838,-15.0839691,-19.2824421,7.4961834
5080,1.3670821,8.2240410,-10.7020273,-102.0992355,-7.3358779,-141.4503784,3.2896163,9.2703018,0.5410868,-24.7480907,-21.7022896,6.0229006
5090,0.8236012,8.5999289,-9.0428534,-123.8931274,-23.3282452,-146.1908417,3.0932927,9.0979195,1.0199248,-32.1908379,-25.7328243,6.2137403
5100,0.4141948,8.9231443,-7.4243813,-139.6183167,-21.2748089,-142.9770966,3.4548154,9.1529865,1.6735384,-33.8167953,-25.8167934,4.6412215
5110,-1.2761030,9.9191265,-5.6143742,-145.2519073,-8.1450386,-134.2137451,3.2417326,9.2056589,1.6663558,-38.6793900,-26.5725193,-3.1603053
5120,-3.7564833,11.2048063,-4.6112089,-140.9389343,0.5954198,-123.4580154,2.4420733,8.8393478,2.2936335,-39.7404594,-28.8702297,-6.5114503
5130,-5.2720051,12.2726154,-4.6136031,-135.6183167,-6.5496182,-102.3587799,2.2984219,8.9614515,3.3039815,-35.0687027,-26.6870232,-7.7404580
5140,-5.5066357,13.5822372,-3.8737986,-127.3282471,-30.1297703,-76.5725174,1.9488702,8.8082228,3.6846576,-24.7709923,-17.3816795,-11.5190840
5150,-4.6662750,13.6396971,-2.5354466,-111.4885483,-59.3053436,-61.1526718,1.3838415,8.7076674,3.5266411,-13.7862597,-8.5877867,-16.1679382
5160,-3.2321558,13.4098549,-1.2449785,-88.6488571,-75.9236679,-56.6793900,0.7038917,8.5711985,3.5529771,-4.3816795,-2.0534351,-20.2290077
5170,-2.9233053,13.6756105,-0.3830703,-61.0839691,-68.3511429,-55.0152664,-0.0837966,8.4107876,3.3422885,5.8015265,4.1526718,-21.6717548
5180,-3.6774750,14.4704809,-0.5650287,-33.3740463,-44.6946564,-48.3893127,-0.6272776,8.2791071,3.0430148,15.9541988,12.7175570,-21.4732819
5190,-4.8171091,15.6603928,-1.1635761,-7.0000000,-17.7862587,-35.3206100,-1.1348459,7.9774394,2.5713594,24.2442741,20.5419846,-21.4580154
5200,2.2385671,16.0674057,-3.3255291,57.9160309,19.6412220,27.9389305,-2.3726418,8.8489246,-0.1939293,30.6870232,25.2442741,-12.5572519
5210,4.3813667,15.7896795,-2.7078283,69.5343475,1.8015267,17.5190830,-1.9368993,9.2439651,-0.6153067,18.0610695,14.6564884,-5.6335878
5220,5.1403246,15.3515425,-2.0566087,87.1755753,-23.2595425,-6.0839696,-1.1635761,9.2535419,-1.3024391,-0.7557252,0.8702290,-0.9618320
5230,5.0900469,14.6763811,-2.2864509,102.7404556,-46.2519073,-36.2824440,-0.1077385,9.3253679,-1.6208663,-22.0458012,-17.7099228,2.4198472
5240,4.0078731,13.4984398,-2.6910689,108.4580154,-60.8473282,-65.1603088,0.9600700,9.4474716,-1.1180865,-40.6335869,-33.8854980,4.3969464
5250,2.9065459,12.6293497,-2.8682389,104.2061081,-63.4274826,-84.1297684,1.9321109,9.4929609,-0.4333483,-52.6870232,-41.5496178,2.6717558
5260,2.0278785,11.6261835,-2.8371146,95.0076370,-57.4198456,-94.0305328,2.6647329,9.4929609,0.2729376,-56.7404594,-40.5877876,-1.5343511
5270,1.5490406,10.5272512,-2.4875629,85.8015289,-43.8854980,-99.0916061,2.8658447,9.4163475,1.0295014,-54.4885483,-34.0228996,-9.0229006
5280,0.8020535,9.1625633,-2.4372849,79.8396912,-28.8625946,-99.6106873,2.5115047,9.4570484,1.4987626,-47.1526718,-25.2977104,-16.4351139
5290,-0.5386927,8.1186962,-2.8083842,75.9312973,-18.7022896,-90.1908417,1.8794388,9.6940727,1.7621235,-38.1145020,-16.2137413,-22.1832066
5300,-1.1875180,7.6087341,-3.1555417,71.1374054,-14.3740454,-72.3816757,1.4221486,9.9598284,1.8531027,-28.6412220,-7.0381680,-23.4274807
5310,-0.8810617,7.1394730,-3.2297616,67.1450348,-18.9312973,-57.3053436,0.9361281,10.2064295,1.6424140,-19.2366409,2.3053436,-20.8091602
5320,-0.1173153,6.8258343,-3.1244173,68.2977066,-31.0687027,-50.0458031,0.5578461,10.4985209,1.4724265,-11.6564884,11.0839691,-15.4885492
5330,0.3806761,6.3781209,-3.2800395,74.2977066,-44.8702278,-51.7328262,0.5506636,10.7116032,1.1468167,-7.1374044,16.8854961,-9.6717558
5340,0.5889706,5.9040713,-3.5936785,79.5496216,-57.0381660,-58.3969460,0.6272776,10.8121595,0.6967092,-7.8549619,21.2595425,-6.1984735
5350,0.4692611,5.6311336,-4.0413918,78.9007645,-66.9389343,-66.8167953,0.4836263,10.6349897,0.4572902,-11.8091602,22.9389305,-3.0076337
5360,0.0981618,5.3342543,-4.3167233,69.9312973,-72.7557220,-73.6106873,0.5027798,10.6517487,0.4596844,-18.5419846,20.6641216,-0.7557252
5370,-0.2705434,4.9392128,-4.4124913,54.0228996,-71.4198456,-77.3969498,0.7565638,10.6373835,0.7781116,-26.0687027,15.8778629,1.6870229
5380,-0.4908088,4.6303625,-4.1347651,34.2442741,-65.5267181,-78.0305328,1.0318956,10.5895004,1.1899122,-32.5648842,11.0839691,3.8320611
5390,-0.8906385,4.3215117,-3.5864959,15.3282442,-55.5419846,-75.9542007,1.1324517,10.5823174,1.7908537,-36.7099228,7.2748094,5.8015265
5400,-1.0678085,4.0030847,-3.0573800,-0.8702290,-42.4961815,-71.9236679,1.2832855,10.3835993,2.1188576,-38.5648842,3.0305343,8.2213745
5410,-1.3407460,3.9288650,-2.4277081,-12.3511448,-29.8625946,-67.2366409,1.4149660,10.2543135,2.5593886,-38.3435097,0.2442748,11.1374044
5420,-1.7333932,3.8450682,-1.9704180,-20.4274807,-16.9541988,-61.3053436,1.5753766,10.0723553,2.7461352,-37.1450386,-0.7786260,13.2213745
5430,-1.9752063,3.9097114,-2.1451938,-29.7938938,-4.4885497,-52.4274826,2.0901275,9.9694052,2.9233053,-35.0839691,-0.5877863,13.7938929
5440,-2.1044924,4.1778607,-2.2313845,-43.6259537,9.2442751,-41.8778610,2.2768741,9.9765873,3.2393384,-32.4503822,1.8244275,13.1450386
5450,-2.1691356,4.4316444,-2.0637913,-57.1450386,22.3282452,-34.6641235,2.4205256,10.0915089,3.6080434,-28.7557259,7.9312978,11.3358774
5460,-2.6336083,4.3406653,-2.0494261,-66.1908417,28.1984730,-30.1679382,2.3079987,10.1178446,3.7804251,-25.2442741,12.0916033,9.7938929
5470,-3.1699069,4.5848727,-2.4229198,-73.7633591,27.6488552,-24.4961834,2.1763182,10.1585455,3.9408360,-22.5114498,14.6564884,8.2748089
5480,-3.1483591,5.1714492,-2.4540441,-80.6183243,24.8549614,-16.8091602,1.9081690,10.0986910,4.2927818,-19.8396950,16.0381680,6.6641221
5490,-2.8514795,6.0118098,-2.6000898,-83.2137375,28.2061062,-8.6946564,1.5418580,10.1178446,4.6207857,-15.5343513,16.1603050,6.0458016
5500,-3.5457945,6.7037306,-3.1100521,-80.2595444,37.6870232,0.0839695,1.4101776,10.2279778,4.7524662,-11.0458012,16.1145039,7.9160304
5510,-4.3239059,7.9223728,-4.3071470,-80.1832047,50.8549614,11.9923668,1.0893562,10.3500814,4.5537481,-7.2442746,14.7709923,8.4580154
5520,-4.8266859,9.4714136,-5.7412663,-89.3511429,64.5343475,24.3435116,1.0773853,10.2279778,4.1682839,-5.5267177,14.6946564,10.0229006
5530,-4.8171091,10.8648319,-5.8681583,-98.3664093,75.8702316,34.4045792,1.3000449,10.2184010,4.4340386,-4.8625956,14.5114508,9.4351149
5540,-4.6519103,11.7027979,-5.5760674,-97.0457993,79.9389343,39.5496178,1.4365137,10.3141680,4.5944495,-2.3358779,16.9923668,8.7480917
5550,-4.1060348,12.3037395,-6.0405402,-87.0381699,76.0000000,40.0458031,1.1061156,10.2998028,4.8003497,1.9312977,17.6641216,7.6335878
5560,-2.9137285,12.3899307,-6.4738884,-73.7099228,68.6106873,32.9694672,0.8810617,10.2543135,4.9703374,7.0381680,16.0229015,6.6106873
5570,-2.0661855,12.2486734,-6.8138633,-60.9083977,58.6793900,19.9541988,0.9026094,10.4817610,4.9918852,12.3969469,19.0229015,7.4885497
5580,-1.7333932,12.0667152,-7.0197635,-52.4122124,50.4656487,8.0458012,0.4525018,10.3309278,4.8817525,17.3129768,19.0992374,9.4580154
5590,-2.0446377,11.4250717,-6.4691000,-46.4274826,39.7786255,4.2824426,0.3495516,10.0771437,4.7021880,22.0992374,15.2595415,11.5954199
5600,-2.4420733,10.9270811,-5.6119800,-38.3664131,24.2824421,10.9618320,0.2585725,10.1441803,4.5010762,26.0000000,10.5725193,12.7709923
5610,-2.7628946,10.5990763,-4.3406653,-29.1450386,1.6412214,24.2442741,0.2944853,10.2207947,4.3119354,30.3282452,7.8015265,13.6030531
5620,-2.4708035,10.4051476,-2.6767037,-16.1984730,-27.0763359,38.8320618,0.3160330,10.1633339,4.0844874,34.0534363,8.4503813,16.6717548
5630,-1.6998745,9.7922344,-1.1396341,2.6564887,-51.3587799,49.8625946,0.3399749,10.0675669,3.8307030,37.2366409,9.6259546,19.7328243
5640,1.3120158,7.7643566,0.7541697,68.8396912,-70.4122162,62.5190849,0.1819584,9.5360565,2.9783716,46.5877876,2.5877862,26.1603050
5650,4.3957319,7.1753860,-0.2609667,76.9312973,-17.5877857,12.9541988,0.6703730,9.0907373,2.0853391,46.2977104,-5.2595420,33.3206100
5660,2.8371146,6.0620875,-2.0542145,62.5343513,10.5343513,-42.4122124,1.3215926,8.6597834,1.5370697,41.0228996,-5.6946564,33.9618340
5670,1.4628497,5.8250628,-0.5506636,6.4503818,-9.9465647,-66.6412201,2.2649033,7.9511032,1.1180865,23.9770985,-10.8931293,26.5419846
5680,0.9816177,5.3462253,-0.0909792,12.9465647,-19.1374054,-70.4656525,2.5282640,7.9080076,1.1803354,21.0610695,-11.3740454,22.1755733
5690,0.2442073,5.3869262,-0.0502780,24.0076332,-27.7938938,-68.3587799,2.6072724,7.9343438,1.1635761,18.7557259,-11.0305347,17.9312973
5700,-0.3998296,5.5210009,-1.1180865,32.3206100,-29.6564884,-58.1526718,2.6695213,8.1402445,1.0654143,17.8854961,-11.4961834,12.3435116
5710,-0.7661406,5.7604198,-3.1363883,31.2671757,-22.6335869,-39.7404594,2.6814921,8.2623482,0.9935886,17.0305347,-11.8702288,8.6183205
5720,-1.4436963,6.5600791,-6.1171541,17.7251911,-17.4580154,-19.7786255,2.7748656,8.4538832,0.8834559,15.2748089,-12.3358774,4.6793895
5730,-2.0661855,7.6063399,-7.5416965,-6.5877862,-16.8320618,-1.9312977,2.9903426,8.7723103,0.7805058,13.4656487,-13.3893127,0.6641222
5740,-2.7628946,8.4730368,-7.6183109,-27.8778629,-25.0763359,9.0687027,3.0166788,9.0141230,0.7086801,11.1908398,-13.9160309,-3.4732823
5750,-3.8330972,8.8920193,-7.2687593,-36.0152664,-35.1221390,15.7404585,3.0597742,9.3038206,0.7685348,8.6564884,-13.7862597,-6.9847326
5760,-5.2025738,9.4714136,-6.9096308,-29.4503822,-47.7404594,25.3664131,2.9328821,9.5863342,0.7805058,6.6641221,-14.0916033,-10.4427481
5770,-6.4307928,10.0532017,-6.6342988,-9.4961834,-59.1297722,39.3511467,2.8778157,9.8903971,0.8619082,5.6335878,-15.0610685,-13.1755724
5780,-7.6422529,10.5176744,-6.9886389,16.9618320,-68.6717529,56.4122124,2.7245877,10.0484133,0.9816177,5.4580154,-15.5572519,-15.8549614
5790,-8.2431946,10.6852674,-7.4674768,45.1984749,-77.6412201,73.5801544,2.5330524,10.2207947,1.2018831,6.9007635,-15.3206110,-18.0534344
5800,-8.9710283,10.5679522,-8.2048874,74.9847336,-83.2213745,89.4122162,2.3510940,10.4003592,1.3479286,9.4045801,-14.5572519,-20.6030540
5810,-9.8712435,10.0340481,-9.2391768,103.2213745,-90.2595444,108.9923630,2.2002602,10.4386663,1.3144100,13.1603050,-13.2061071,-22.4732819
5820,-9.8089943,9.4522600,-9.7778702,127.4503784,-97.5038147,131.9694672,1.8626794,10.5966825,1.2808913,16.4351139,-13.1832066,-23.4122143
5830,-8.7986460,9.0236998,-9.9406748,149.1145020,-98.0610657,149.4885559,1.6184721,10.5918941,1.1324517,19.5648861,-13.9694653,-23.0381680
5840,-7.9606800,8.1163025,-10.6828737,163.7175598,-90.2977066,156.7633514,1.3910241,10.6876621,1.0702027,21.6564884,-14.8320608,-21.6564884
5850,-8.1546097,6.9455438,-11.5136566,166.0458069,-75.6564865,162.1145020,1.2306134,10.6996326,0.9265513,22.8778629,-15.0229006,-19.3435116
5860,-8.9734221,6.2727766,-11.5088692,157.8854980,-55.2213745,174.2290039,1.1563935,10.6349897,0.8092360,23.1526718,-14.1908398,-18.0916023
5870,-10.0508070,4.4412212,-10.7235746,145.4503784,-28.6641216,198.0229034,1.0247130,10.5080976,0.6512195,22.4809170,-12.7862597,-15.6106873
5880,-9.8784256,3.5984666,-9.3971939,134.2290039,9.5038166,236.8702240,0.8355721,10.4171181,0.8547257,21.6564884,-10.8091602,-13.2671757
5890,-9.2032642,3.1890604,-9.1505919,128.8854980,52.9465637,250.1297760,0.7206510,10.3285332,0.8236012,20.5877857,-9.7480917,-10.1984730
5900,-8.2144642,3.4596038,-9.7539282,119.7099228,78.7786255,250.1297760,0.6775556,10.1800938,0.9026094,19.3053436,-9.0076332,-7.4503818
5910,-7.6063399,3.7397239,-9.6461897,108.6488571,88.7328262,250.1297760,0.5243275,10.0172882,0.9528874,17.4503822,-8.6183205,-4.8473282
5920,-7.4938130,3.5625539,-9.3493099,98.0916061,95.5801544,250.1297760,0.4788379,9.9191265,0.9768293,15.2977095,-9.4809160,-2.7099237
5930,-6.8713236,3.8737986,-7.9463148,85.1908417,102.5114517,250.1297760,0.3974355,9.7730818,0.9217629,13.1450386,-10.2519083,0.2061069
5940,-3.7325413,4.2736282,-5.9639258,87.2290039,107.6183243,250.1297760,0.2992737,9.6581602,1.1923064,10.9541988,-10.9312973,3.7786260
5950,-0.2609667,4.0246325,-5.6024032,106.1679382,124.5725174,250.1297760,0.3687052,9.5408449,1.1396341,8.6793890,-11.2442751,6.9847326
5960,1.7573351,4.0294209,-7.1035600,123.2824402,142.1297760,250.1297760,0.6200951,9.4139528,1.2665262,6.1145039,-9.8015270,9.1374044
5970,3.7660601,4.2113791,-8.5400734,123.2748108,133.6183167,250.1297760,0.6751614,9.3349447,1.4460905,3.6030533,-7.8931298,11.0763359
5980,5.7197185,3.4883339,-10.5248566,105.8396912,114.9847336,250.1297760,0.6129125,9.2439651,1.6376256,1.4961832,-6.0381680,12.0763359
5990,7.0700417,2.3415172,-10.9605989,71.6488571,89.5190811,250.1297760,0.5937590,9.0907373,1.8267666,-0.4503817,-4.6793895,13.2137403
6000,9.5145092,0.6296718,-9.5528164,26.3893127,49.7633591,206.5725250,0.6584021,8.9135675,1.9009864,-2.0458016,-4.5725193,15.0839691
6010,12.4976692,-1.7669119,-6.8737178,-15.0076332,-2.6412213,141.7022858,0.6871324,8.7124557,1.8195840,-3.6641221,-5.8473282,17.7022896
6020,15.7824965,-5.6263452,-3.7947903,-55.7099228,-54.8244286,74.4656525,0.9672526,8.4969788,1.7405758,-5.4351144,-8.9312973,21.1908398
6030,19.6126022,-19.5413742,12.1744537,-118.6412201,-72.9770966,-23.5190830,2.7820482,8.0732069,0.9792235,-13.3969469,-26.9083977,18.7404575
6040,19.6126022,-18.6914368,11.3532467,-97.6488571,47.5496178,42.3816795,3.4859397,8.3700867,0.9409165,-15.3053436,-32.7633591,11.0763359
6050,17.2716827,-11.5735121,5.3198891,-89.1908417,216.5648804,176.4503784,3.8163381,8.6645718,0.7445929,-16.4503822,-35.0228996,2.1068702
6060,16.4265347,0.4860204,3.3638363,-107.9542007,250.1297760,250.1297760,3.7277529,9.0620070,0.6105183,-15.8015270,-32.9083977,-7.0381680
6070,17.1304264,14.0491037,6.3948798,-145.5648804,250.1297760,250.1297760,3.4141142,9.2918491,0.5027798,-13.8625956,-27.8625946,-13.7557249
6080,19.6126022,19.6126022,12.3588057,-157.3587799,144.4809113,250.1297760,2.8706331,9.6006994,0.4548960,-11.0839691,-22.0916023,-18.6870232
6090,19.6126022,19.6126022,17.4847660,-100.1908417,36.1145020,220.2061005,2.3127871,9.8305416,0.2705434,-8.2137403,-17.0839691,-20.7786255
6100,19.6126022,16.9795914,17.4296989,18.3053436,5.7633586,10.3664122,1.8507085,10.0436249,0.1340746,-6.2519083,-11.4274807,-18.3893127
6110,19.6126022,10.6972389,12.8927097,127.2519073,-1.2290076,-201.0610657,1.3886299,10.2519188,-0.2226596,-6.1526718,-5.4732823,-12.8778629
6120,19.6126022,2.1236460,4.4723458,171.2824402,-12.5954199,-250.1374054,1.3072275,10.4314833,-0.5817881,-7.9312978,-1.8244275,-6.3587785
6130,19.6126022,-5.9782910,-2.4923513,141.1526642,-31.1679382,-250.1374054,1.3814473,10.4314833,-0.7421987,-11.7022905,-0.4656489,-0.4122137
6140,18.5190563,-11.1090393,-6.3709383,57.4885483,-65.7862625,-250.1374054,1.6783268,10.5009146,-0.7517755,-16.3740463,-0.6183206,3.9847329
6150,14.0562859,-11.9637651,-4.9368186,-29.3358784,-91.1908417,-250.1374054,1.9704180,10.5176744,-0.6775556,-21.4045811,-1.5954199,6.4503818
6160,12.9669304,-11.5998478,-0.5027798,-88.1755753,-118.5267181,-250.1374054,2.3846128,10.5009146,-0.4596844,-25.5648861,-2.8702290,7.3816795
6170,13.4816809,-11.0108776,3.0525916,-106.0992355,-133.4274750,-250.1374054,2.5091105,10.4410601,-0.1221037,-27.8396950,-3.8244274,6.3206105
6180,13.9820662,-10.4219065,4.6973996,-96.5190811,-132.4274750,-250.1374054,2.5162930,10.3812056,0.2896969,-27.7862587,-4.2137403,5.8931298
6190,13.2949343,-9.4618368,3.2632802,-74.1908417,-77.5496216,-250.1374054,2.6168492,10.2974091,0.4716553,-25.9083977,-2.6183207,4.2290077
6200,9.6581602,-7.3357964,0.3208214,-56.8091621,7.9083967,-250.1374054,2.6024840,10.2519188,0.8020535,-22.2519093,-0.4427481,3.9007633
6210,5.3270717,-4.8817525,-2.5857246,-51.3587799,64.6870193,-250.1374054,2.7413468,10.2184010,0.8595140,-17.5190830,2.7786260,1.9160305
6220,0.5386927,-2.6383967,-5.5497313,-52.9771004,92.1068726,-250.1374054,2.7078283,10.1465750,0.9480990,-11.3435116,6.5801525,0.4809160
6230,-2.8251436,-0.3710994,-7.6063399,-55.4122124,99.2977066,-250.1374054,2.5857246,10.1322098,0.9792235,-4.8549619,10.6183205,-0.5190840
6240,-3.1315999,2.1332228,-9.1386213,-56.1908379,86.3435135,-197.8015289,2.5115047,10.1992474,0.9504932,0.0305344,13.5725193,-0.8702290
6250,-2.5115047,5.3366485,-10.9151096,-57.4809151,86.2900772,-156.9236603,2.4971397,10.3189564,0.7062859,2.6335878,15.3511448,-0.5343512
6260,-2.1308286,8.4897957,-12.2654324,-67.7480927,94.5343475,-133.0000000,2.4516499,10.2998028,0.5961532,2.7328243,15.5343513,1.0152671
6270,-2.8083842,11.5591469,-12.1983957,-78.0381699,90.2366409,-123.0610657,2.5785420,10.3309278,0.4884146,-3.6106870,11.9236641,4.1526718
6280,-3.7516949,11.3556404,-12.1098099,-60.4809151,61.9389305,-116.0687027,2.7437410,10.4482431,0.7014975,-8.1221371,8.2824430,6.0000000
6290,-4.4172797,12.6892042,-12.0212250,-40.1755714,31.3969460,-99.6564865,3.0956869,10.4290895,0.7541697,-13.1832066,3.8778627,7.2824426
6300,-5.0876527,14.5614605,-12.5359764,-22.3282452,19.6717548,-77.7786255,3.1651185,10.3955708,0.8858501,-18.7175579,0.5190840,7.8244276
6310,-5.0661049,16.0267048,-12.6341381,-12.1755724,16.3129768,-60.8091621,3.2513094,10.2998028,1.3072275,-23.2519093,-1.6106870,9.2977095
6320,-4.2664456,16.9867744,-12.0284081,-8.7709923,11.3053436,-54.2519073,3.1172347,10.2998028,1.5681942,-27.2900772,-3.1526718,9.2442751
6330,-2.5186872,17.0370522,-10.6709023,-3.2519083,9.3282442,-57.5496178,2.9041519,10.0555954,2.0111191,-29.5954189,-4.7862597,9.6030531
6340,-0.7374104,16.2014809,-9.6653433,6.8854961,7.6488547,-68.6412201,2.6000898,9.7587166,2.3965836,-29.2137413,-5.2748094,8.7557249
6350,-0.2489957,15.1288834,-8.9662399,19.2748089,1.7328244,-82.6946564,2.3463056,9.6054878,2.7605004,-26.7099228,-4.3129773,7.2442746
6360,-0.5123565,14.0754395,-8.2838955,32.4274826,-7.7404580,-93.4580154,1.9776005,9.3325500,2.9759774,-21.3587780,-2.1221373,6.2595420
6370,-0.7661406,12.9046812,-7.7835097,44.7175560,-19.5954189,-99.5496216,1.6615674,9.0859489,3.2967989,-13.1603050,2.4274809,5.0152674
6380,-0.8571198,11.3388815,-7.2424231,53.8625946,-32.3435097,-100.2366409,1.3239868,8.7340031,3.2776453,-2.9770992,8.7557249,3.9694657
6390,-0.8355721,9.9119444,-6.7228842,60.6412201,-41.2061081,-95.8931274,1.0773853,8.4419117,3.0932927,7.6641221,14.8931293,3.2900763
6400,-0.7709290,8.7196379,-5.9567432,67.7862625,-47.7938919,-89.1984711,0.9672526,8.1881275,2.5043221,17.4198475,20.4656487,1.7709924
6410,-0.4812321,7.7954807,-5.4707227,73.1374054,-50.9541969,-84.3358765,0.7852941,7.9343438,1.9512644,25.1908398,25.9465656,-0.5648855
6420,-0.6344602,6.7707677,-5.4850879,73.3816757,-49.8702278,-80.6793900,0.6775556,7.8720951,1.3144100,28.4809170,31.1297703,-3.7175572
6430,-0.9289455,5.8609757,-5.4587522,67.3282471,-46.2290077,-75.8702316,0.3399749,7.9175844,0.6057299,27.6259537,33.1374054,-6.8244276
6440,-1.4604555,5.1929970,-5.2911587,57.1068687,-44.2290077,-67.2671738,-0.0143651,7.8361821,0.2394189,22.2977104,32.6259537,-8.1603050
6450,-1.8483143,4.5250182,-4.6136031,46.8854980,-43.5114517,-55.7557259,-0.2825144,8.0803890,0.1388630,15.8625956,29.8854961,-5.1068702
6460,-1.8842272,4.2736282,-3.8378856,39.2519073,-42.8244286,-43.2442741,-0.3543400,8.1354561,-0.3136388,4.9312978,26.8091602,1.3358779
6470,-1.8578910,3.9216824,-3.0166788,34.3664131,-43.8091621,-32.1297722,0.2849085,8.4059992,-0.8810617,-13.0687027,16.1908398,5.8625956
6480,-1.6424140,3.8211265,-2.1691356,31.5343513,-43.6717567,-21.8854961,1.0127422,8.0348997,-0.5315101,-31.3740463,-0.8473282,6.1984735
6490,-1.5059452,3.5529771,-1.7070571,30.1297703,-40.3358765,-13.1526718,1.8650736,7.9654684,0.0095768,-45.9618340,-17.0687027,4.5648856
6500,-1.3096216,3.3063757,-1.3622938,28.3664131,-37.0992355,-4.3969464,2.8179610,8.4610653,0.5889706,-57.1603050,-30.6717548,2.0000000
6510,-1.3215926,3.1124463,-1.1396341,25.3969460,-33.9083977,4.9312978,3.4524212,8.5616217,1.0941446,-64.0000000,-38.2824440,-0.4885496
6520,-0.9409165,3.1890604,-0.8475431,21.7709923,-30.4580154,14.9389315,3.9312592,8.6597834,1.5059452,-67.3664093,-40.8854980,-4.0687022
6530,-0.2346306,3.4308734,-0.5722113,20.0229015,-26.0305347,24.0076332,4.1515245,8.4275465,2.0374553,-66.3053436,-39.3740463,-8.1603050
6540,0.7230452,3.7038112,-0.6392486,21.5954189,-19.3587780,29.1068707,4.2209558,8.4562769,2.4995339,-60.5877876,-33.6106873,-13.2671757
6550,1.5250987,4.0294209,-1.2282192,22.4045811,-16.1603050,26.6870232,4.1515245,8.4227581,2.8945751,-50.7862587,-25.2824421,-20.1221371
6560,2.1427996,4.5250182,-1.8866212,19.4122143,-18.0610695,15.6106873,3.9504125,8.5281029,3.1076579,-37.6793900,-14.7175570,-26.2213745
6570,2.4061604,5.0732875,-2.5881188,9.5801525,-20.4885502,-0.5572519,3.5625539,8.7435799,2.9520357,-24.3816795,-2.4885497,-30.3206100
6580,2.1882892,5.3725610,-3.1914546,-7.0381680,-18.4809170,-17.0458012,3.3710186,8.9997578,2.4612267,-12.7480917,8.2748089,-32.3587799
6590,1.8243724,5.5066357,-3.5410061,-27.4503822,-6.0305343,-30.9236641,3.1699069,9.3325500,1.9728121,-5.8167939,16.1984730,-33.2824440
6600,1.0295014,5.3988972,-3.9552009,-47.9083977,16.2671757,-40.7099228,3.0454090,9.6653433,1.5753766,-4.0534353,18.9160309,-36.2366409
6610,-0.3016679,5.4060798,-4.7237358,-68.0381699,47.3664131,-44.1755714,2.5665710,9.9502516,1.2306134,-7.5419846,18.9312973,-37.2977104
6620,-2.2888451,5.7843618,-5.8657641,-89.0992355,80.9542007,-38.9465637,2.0781565,10.1561518,1.0917504,-14.1450386,17.0000000,-34.9618340
6630,-4.4196739,6.3972740,-6.7707677,-110.7328262,103.5954208,-22.5801525,1.7166338,10.1824875,1.4700323,-21.9541988,13.4503813,-32.3664131
6640,-5.8537931,7.9534974,-6.8234401,-128.0000000,108.4122162,1.3893130,1.3766589,10.2160063,1.7166338,-29.2519093,8.1374044,-28.6488552
6650,-6.1267309,9.6030941,-5.9232249,-132.2366486,95.8244247,21.6106873,1.3910241,10.0651722,2.1404054,-34.4122124,3.6259542,-26.1221371
6660,-5.9280128,10.6349897,-5.0541339,-119.0916061,71.3893127,31.3587780,1.5873476,10.1178446,2.4803803,-38.0916023,0.8396947,-21.8778629
6670,-5.3174949,11.5591469,-4.1395535,-94.9007645,38.9923668,29.1297703,1.9440818,10.1082678,2.6862805,-40.3129768,0.1984733,-19.0992374
6680,-4.9200592,12.6054077,-3.5410061,-67.2900772,9.9160309,19.2519093,2.2050486,9.9981356,3.2465210,-41.0000000,1.1984733,-16.3053436
6690,-4.5824785,13.2231083,-3.2704628,-42.0534363,-5.8854961,6.3664122,2.3343346,9.8927908,3.5984666,-39.6106873,2.7557251,-15.2595415
6700,-4.3741841,13.3523941,-3.4141142,-26.1832066,-7.5801525,-6.2824426,2.3032103,9.7539282,4.0677280,-36.7022896,4.2748094,-15.3816795
6710,-4.3885493,13.0555153,-3.3710186,-18.3129768,5.0992365,-13.3358774,2.2936335,9.7850523,4.2975702,-32.3206100,5.6030536,-15.2366409
6720,-4.2185616,12.8352499,-3.1603301,-14.0916033,23.2748089,-16.9923668,2.0877333,9.7467451,4.4388270,-27.6259537,5.6564884,-14.8854961
6730,-3.9312592,12.2774038,-3.1507533,-10.2977095,41.8244286,-19.2595425,1.9776005,9.7060442,4.4029145,-23.5190830,4.4351144,-13.7557249
6740,-3.3901722,11.5663290,-2.7940190,-4.1450381,55.3206100,-19.3053436,2.1643472,9.9023676,4.2257442,-20.8931293,2.4961832,-12.6030531
6750,-2.0590029,11.1138277,-2.5809362,6.9847326,62.0000000,-17.9389305,2.4013720,10.0340481,4.1491303,-20.2137413,0.5877863,-11.4351149
6760,-0.7134684,10.5535870,-2.9256995,21.0229015,63.7099228,-18.3129768,2.5043221,10.1274214,4.1611013,-21.2900772,-0.5038168,-11.7099237
6770,0.2226596,9.8425131,-3.6152260,33.1374054,60.1526718,-20.8320618,2.6120608,10.1800938,4.2185616,-22.2213745,-2.0458016,-12.3816795
6780,0.5650287,9.3349447,-4.2903876,40.5877876,51.3740463,-21.7022896,2.5306582,10.3021975,4.6231799,-22.2671757,-3.8931298,-14.4122133
6790,0.7876883,8.8920193,-4.8434453,43.0458031,39.5725174,-17.8931293,2.3127871,10.4051476,4.8889351,-20.7175579,-4.5190840,-16.7557259
6800,1.1803354,8.4754305,-5.2241216,40.2748108,28.6641216,-10.7709923,1.9632354,10.4434547,5.0924411,-17.5267181,-4.6412215,-18.2595425
6810,1.8435259,8.0995426,-5.3486195,35.3282433,22.5038166,-5.3129773,1.6088953,10.5296450,5.4611464,-12.8396950,-4.7022901,-18.5343513
6820,2.4564383,7.8673067,-5.3629842,29.2366409,20.1374054,-3.4351146,1.2713146,10.4985209,5.7771792,-6.0534353,-5.2442746,-17.8778629
6830,3.1028695,7.8170285,-5.3342543,22.3816795,18.7786255,-5.4045801,0.9241571,10.4721851,5.9471664,2.8015268,-5.2595420,-16.5343513
6840,3.2369442,7.7068958,-5.2336984,15.5877867,17.1374054,-8.5648851,0.8403605,10.4793673,6.2751703,13.1221371,-5.7251906,-15.1526718
6850,3.0669568,7.4770536,-5.0301919,9.8473282,14.6488552,-11.2595415,0.8212070,10.7116032,6.2464404,25.4580154,-7.6717558,-14.5190840
6860,2.7748656,7.3357964,-4.7931671,5.2519083,11.6259546,-12.6259546,0.9864060,10.9438400,6.2655940,38.9923668,-9.7557249,-13.8549614
6870,2.3223639,6.9479380,-4.7764082,1.4503816,9.7938929,-11.7404585,1.1109039,11.2167778,5.9854736,52.9236641,-10.4656487,-14.4580154
6880,1.8961980,6.6654234,-4.7069764,-2.8702290,7.5343513,-7.7709923,1.2282192,11.2886028,5.3653784,65.3129807,-8.7022905,-14.4503813
6890,-3.4643922,8.3174143,-5.2696109,4.7557254,-44.5496178,95.9083939,1.5083394,8.2336178,1.1109039,32.2442741,-14.4656487,16.7862587
6900,-2.6575503,8.2767134,-5.5640965,14.4961834,-40.5190849,109.0152664,1.4604555,8.0756006,1.2928623,30.0000000,-13.6793890,16.8931293
6910,-3.1411765,8.6933022,-6.4140334,24.5496178,-32.6412201,119.4274826,1.5394639,7.8050575,1.3263810,28.1450386,-13.6717558,16.4961834
6920,-4.2736282,9.9861641,-7.1370788,32.6946564,-36.3969460,128.2748108,1.7477583,7.5823979,1.2784972,26.3511448,-12.8778629,15.2061071
6930,-4.9583664,11.1234045,-7.9271612,40.3358765,-54.1297722,131.4656525,1.8100072,7.4124107,1.2210367,23.5343513,-12.0839691,13.2977095
6940,-4.5992379,11.5950594,-8.4682484,45.5954208,-77.0687027,126.6870193,1.8363433,7.2711535,1.3311694,20.6335869,-12.5343513,10.1450386
6950,-4.2712340,11.8153248,-9.0021524,46.0381660,-91.0152664,117.6717529,1.8961980,7.1322904,1.2569494,16.9618320,-14.2748089,7.0763359
6960,-4.6997938,11.9517937,-9.5192976,40.0839691,-96.0229034,108.6564865,2.0063307,7.1514440,1.0582317,12.7251911,-17.0839691,3.7175572
6970,-5.6981707,11.9063044,-9.1362267,34.0839691,-93.1068726,103.1908417,2.1954718,7.0628591,0.9624642,7.3587785,-20.1374054,-1.0076336
6980,-6.7324610,11.8679972,-8.5352850,33.4961815,-85.7404556,103.1908417,2.3103929,7.1682034,0.8978211,2.0839694,-24.1297703,-6.9465647
6990,-7.5728211,11.3484583,-8.4371233,36.6335869,-75.3053436,108.9847336,2.1763182,7.3573442,0.8786675,-2.3053436,-28.0381680,-13.3206110
7000,-8.6214762,10.6182299,-8.7603388,37.9618340,-60.4732819,124.4809189,2.1332228,7.7260494,0.6799498,-5.2824426,-30.3740463,-18.0152664
7010,-9.4714136,9.6988611,-8.5328913,38.7633591,-42.4503822,150.6259613,2.0206959,8.2264347,0.7733232,-7.7709923,-29.9694653,-20.6564884
7020,-10.1250277,8.6190825,-8.1809454,45.5648842,-30.2900772,184.6717529,1.8363433,8.7579451,0.6296718,-9.2061071,-27.8167934,-21.5954189
7030,-10.3213511,7.7691450,-8.0301113,56.2290077,-21.6412220,225.2748108,1.7860653,9.2894554,0.4285599,-10.4045801,-26.7557259,-21.3893127
7040,-10.1561518,6.5959921,-8.3629036,69.3893127,-12.2977095,250.1297760,1.9871773,10.0843258,0.3758878,-11.3129768,-26.3893127,-21.7480907
7050,-9.3564920,4.7788019,-9.0093346,78.7480927,-6.4427481,250.1297760,2.1068866,10.7810354,0.5243275,-12.3740454,-24.4885502,-22.4503822
7060,-8.0660238,3.1220231,-9.1410151,80.7786255,-4.2748094,250.1297760,2.0901275,11.4274664,0.7589580,-11.0916033,-23.0534344,-23.5954189
7070,-6.5241661,1.3144100,-9.1146793,83.6259537,-14.7175570,250.1297760,2.0637913,11.8751793,1.0821736,-5.9389315,-21.4427490,-26.6412220
7080,-4.8099265,-0.2585725,-9.9909525,88.8244247,-51.3129768,250.1297760,1.7022687,12.3683825,1.2377959,2.2137403,-17.0076332,-28.9847336
7090,0.0071826,-1.4604555,-8.1210909,93.0687027,-99.1374054,250.1297760,1.0606259,12.6532917,1.1755470,11.0152674,-10.9007635,-30.2137413
7100,4.6207857,-2.6360025,-4.0246325,111.0381699,-134.1145020,250.1297760,0.3615226,12.8855276,0.9073978,17.7557259,-5.0992365,-26.8473282
7110,12.1169930,-2.8155668,-2.3846128,139.3587799,-162.1908417,250.1297760,-0.2394189,13.0052376,0.7206510,21.3664131,-1.3206106,-21.5038166
7120,19.6126022,-2.4612267,-0.2873027,162.5038147,-178.7022858,250.1297760,-0.5123565,12.9286232,0.7350162,22.0381680,-0.2061069,-14.9618320
7130,19.6126022,-5.7963328,1.2186425,151.7251892,-168.1908417,173.8473358,-0.4548960,12.6149845,0.8188128,21.7099228,-1.1297710,-8.0381680
7140,19.6126022,-12.7035694,0.9457048,84.7328262,-137.4580078,14.6870232,0.0263361,12.3228931,0.9097920,21.2900772,-1.7022901,-3.6106870
7150,19.6126022,-19.6131992,1.6472024,-21.7175579,-55.9694672,-80.8702316,0.5075682,11.7602587,0.8978211,21.6870232,0.4809160,-1.6564885
7160,19.6126022,-19.6131992,2.2960277,-112.6564865,104.0076370,-52.7633591,0.8044477,11.2072010,0.9911944,23.0381680,4.2977099,-3.7633588
7170,8.6597834,-19.6131992,-0.8283895,-167.1755676,250.1297760,111.2824402,0.5913648,10.8025827,1.2186425,25.3587780,7.7862597,-3.0534351
7180,6.7420373,-9.0524302,-1.6998745,-207.1526642,250.1297760,250.1297760,0.1412572,10.4099360,1.5155219,28.9847336,9.0000000,0.0534351
7190,17.6403885,0.9768293,4.6543045,-214.5648804,224.6641235,250.1297760,-0.1244979,9.9215212,1.8339491,34.3893127,8.0229006,6.9389315
7200,19.6126022,10.6421719,12.5216112,-158.4122162,69.1755753,250.1297760,-0.1053443,9.4043760,1.7836711,40.5877876,6.2137403,13.3282442
7210,19.6126022,18.3083668,13.8216553,-49.0763359,-48.0839691,236.6946564,0.0550664,8.7507620,1.5227045,46.3053436,4.2442746,17.9465656
7220,19.6126022,6.9096308,1.4891858,153.4732819,-40.4580154,-229.3511505,0.7158626,7.8457589,0.4740495,50.0992355,2.6030533,24.8320618
7230,19.6126022,-1.6567791,-8.0420828,125.4427490,-25.7251911,-250.1374054,0.9193687,7.4579000,0.0263361,48.4732819,3.2824428,25.9312973
7240,16.3020363,-6.6414814,-13.7761660,21.8244267,-9.1755724,-250.1374054,1.2473727,7.1538382,-0.5362985,43.5114517,3.8244274,25.9847336
7250,8.4706421,-9.3086090,-13.0603037,-98.8320618,-4.9770994,-250.1374054,1.4077834,6.8976598,-0.8140244,36.0916023,1.8931298,24.5190830
7260,7.1658092,-11.0204544,-6.8665352,-176.9541931,-23.0534344,-250.1374054,1.5083394,6.9311786,-0.9457048,27.1450386,-1.0610687,22.5343513
7270,9.1745338,-10.9941177,-0.1460456,-193.7251892,-54.7022896,-250.1374054,1.4796091,6.8545642,-0.9959828,17.7709923,-3.6106870,20.4656487
7280,10.8049774,-10.1872759,3.3015873,-167.6564941,-79.0992355,-250.1374054,1.4293311,6.6941538,-0.9959828,8.3206110,-6.1908398,19.6717548
7290,12.6485033,-9.2319946,3.9815371,-129.1908417,-67.2595444,-250.1374054,1.4748207,6.7085190,-0.7876883,-0.8320611,-9.0229006,19.4274807
7300,12.5287933,-8.2838955,2.5234756,-95.7862625,-23.1526718,-250.1374054,1.7022687,6.6845770,-0.7589580,-9.7709923,-11.8702288,18.1908398
7310,9.1577749,-6.6007805,0.2011119,-76.3893127,36.8702278,-250.1374054,1.9345051,6.6510582,-0.7230452,-17.9083977,-14.2061071,15.6717558
7320,4.3143296,-4.1204000,-2.2337787,-71.9542007,78.4122162,-250.1374054,2.0805507,6.7157016,-0.6655847,-25.7022896,-15.3282442,12.3358774
7330,0.6057299,-1.4173602,-3.7756367,-73.4732819,99.4656525,-231.9007568,2.3367288,6.8689294,-0.5722113,-32.5419846,-15.5038166,9.1603050
7340,-0.5075682,0.6871324,-4.0820932,-70.8473282,93.0076370,-197.0534363,2.6767037,6.9287844,-0.4429250,-38.4809151,-14.6717558,2.4503818
7350,0.3519458,2.2936335,-4.5154414,-57.6106873,78.7175598,-164.6412201,2.8371146,7.3118544,-0.2920911,-42.7251892,-12.9007635,-6.2519083
7360,0.9744351,3.7540891,-5.8897061,-39.5648842,87.4656525,-138.4351196,2.5665710,7.6853480,0.1173153,-44.4351158,-10.0610685,-14.9389315
7370,0.6775556,6.2344694,-7.5728211,-30.2213745,98.0000000,-119.6106873,2.2050486,8.3365679,0.5003856,-42.8015251,-5.8396945,-20.9465656
7380,0.2011119,8.5999289,-9.2559366,-35.0839691,97.0610657,-109.8625946,1.7597293,8.8201942,0.6919208,-38.6259537,-1.0381680,-24.4732819
7390,0.0933734,9.9813757,-10.5871058,-49.9236641,86.8625946,-110.2442780,1.1539993,9.5384512,0.4860204,-34.1526718,3.4503818,-25.0229015
7400,-0.1149211,9.9263096,-10.9438400,-70.5114517,63.9541969,-114.8244247,0.8116302,10.2662840,0.2082945,-31.4122143,5.9236641,-22.8854961
7410,-0.4501076,9.5408449,-10.4171181,-90.2595444,47.1374054,-114.5648880,0.7182568,10.8600435,-0.0383070,-31.9770985,5.9541984,-18.5190830
7420,-1.0965388,10.0220766,-9.6437950,-107.5038147,44.4961815,-104.7099228,0.7038917,11.4083128,-0.1867468,-35.1908379,4.4656487,-14.2442751
7430,-1.8698620,10.8648319,-9.0596132,-120.8091583,52.8396950,-87.7099228,0.8690908,11.6285782,-0.1628049,-39.2137413,3.1832061,-9.7022905
7440,-2.7054341,12.5958309,-8.1019373,-129.6106873,55.4809151,-70.4122162,1.2665262,11.7291346,0.2585725,-42.4961815,1.9541985,-7.4961834
7450,-2.8107784,14.1616306,-6.5792327,-131.0534363,44.7557259,-58.5496178,1.5466464,11.8679972,0.7924767,-42.7328262,0.2061069,-9.2595415
7460,-2.2553265,15.0905762,-4.9152708,-124.4656525,29.7786255,-55.9160309,1.6232605,11.8536320,1.4772149,-38.5496178,-1.4809160,-13.2671757
7470,-1.2377959,15.2773228,-3.1148405,-108.4198456,18.0839691,-62.6641235,1.5873476,11.9829178,1.8842272,-30.2137413,-2.5572519,-18.5343513
7480,-0.8666966,14.7841196,-2.5330524,-85.8854980,13.7786255,-72.4351120,1.2641320,12.0523500,2.1140692,-19.7786255,-1.9541985,-22.2213745
7490,-1.4245427,14.1424770,-2.4205256,-65.1068726,15.9312973,-76.4274826,0.7469871,12.1481171,1.8938038,-9.7557249,0.6641222,-24.0916023
7500,-2.3534882,14.3507719,-2.5474176,-50.1221390,20.9083977,-72.8625946,0.4141948,12.1600885,1.7214222,-1.9236641,4.1908398,-21.6488552
7510,-3.2441268,15.2150736,-2.5976956,-38.4274826,35.3816795,-60.1755714,0.1197095,12.0331964,1.5298871,3.2366412,9.0916033,-17.5648861
7520,-3.8354914,16.6108856,-2.4420733,-25.4580154,56.9847336,-41.2137413,-0.1053443,11.9470053,1.4317253,6.1832061,14.6106873,-11.2137403
7530,-3.1866663,16.9460735,-2.5761478,-10.7557249,76.5801544,-23.0687027,-0.3375807,11.7411051,1.7597293,7.3587785,19.8778629,-6.0992365
7540,-1.6065011,16.3882275,-2.2840567,6.8396945,85.1908417,-10.6259546,-0.4381367,11.5232334,2.0613971,8.3129768,23.5190830,-2.1374047
7550,0.6177009,15.3395720,-2.1164634,27.7022896,80.8473282,-4.1755724,-0.7182568,11.2670555,2.4731977,10.4045801,25.7175579,2.6106870
7560,3.0023136,14.6356802,-1.9512644,48.3740463,65.3664093,-4.2290077,-0.8666966,11.0228481,2.7557120,13.1221371,27.9618320,7.2061067
7570,4.6806402,14.0227680,-1.2018831,72.8320618,51.5877876,-11.6488552,-0.8188128,10.7403336,2.8371146,15.9312973,29.6488552,11.7328243
7580,4.5824785,13.2542324,-1.4221486,100.1908417,37.9923668,-21.9847336,-0.7900825,10.4578199,2.8012016,18.2137413,29.6946564,17.7480907
7590,3.9767487,12.9382000,-2.1739240,124.5038147,20.3969460,-31.9465656,-0.6775556,10.0699606,2.6360025,19.2671757,28.5725193,25.0152664
7600,3.6750808,12.7825775,-2.8155668,135.9160309,-6.9694657,-42.6946564,-0.2633608,9.7323799,2.5689652,19.4503822,25.6183205,33.0152664
7610,3.8067613,11.9374285,-3.4739690,133.5725250,-25.6335869,-55.1221390,0.4165890,9.3612804,2.1188576,18.4045811,21.6412220,37.8015251
7620,3.6511390,10.8815908,-3.8737986,121.3129807,-32.6717567,-68.3664093,1.1372399,8.9734221,1.8435259,16.2595425,16.3358784,41.1679382
7630,3.1028695,9.8161764,-4.1634955,103.5801544,-29.6946564,-82.0152664,1.7908537,8.5951405,1.4867916,12.6183205,10.5572519,42.0610695
7640,1.2617378,7.9870162,-3.5936785,60.1603050,-24.4580154,-94.5572510,3.0741394,8.1234846,0.8355721,3.4885497,-4.0687022,39.8015251
7650,0.3687052,7.2543941,-2.6072724,45.3740463,-25.8320618,-86.2977066,3.7205703,7.9534974,0.7421987,-1.3282443,-11.8396950,36.7557259
7660,0.0215477,6.4834652,-1.8459201,40.2366409,-26.9160309,-75.2442780,4.4962878,8.0109577,0.4955972,-6.5954199,-17.9389305,32.6488533
7670,-0.1340746,5.7556314,-1.2449785,41.9236641,-30.8015270,-65.9694672,5.2384863,8.2862902,0.1388630,-12.3587790,-21.8854961,24.9312973
7680,-0.2609667,5.1546898,-0.7661406,47.9465637,-34.8167953,-59.5801544,5.6862001,8.3365679,0.6320660,-13.9465647,-25.3969460,19.4351139
7690,-0.3878587,4.6375451,-0.8355721,56.6717567,-36.0916023,-55.1374054,6.2392578,8.9279327,0.7565638,-15.5496187,-25.6259537,9.6412210
7700,-0.6536137,4.1299767,-1.1731528,63.0687027,-34.5114517,-52.0381660,5.7364779,9.2463598,0.4979914,-18.3664131,-27.9160309,1.2671756
7710,-0.9911944,3.7205703,-1.7453641,63.5343513,-32.3511467,-47.3740463,5.3342543,9.5025377,0.5099624,-21.3969460,-31.2671757,-3.2442749
7720,-1.2617378,3.5553713,-2.0302727,58.9771004,-28.8396950,-39.7709923,4.8961172,9.7012558,0.3615226,-25.0305347,-35.3969460,-4.9694657
7730,-1.0127422,3.5218527,-2.2984219,50.9007645,-22.6564884,-29.8854961,4.4196739,9.6581602,0.5434810,-26.6259537,-38.1679382,-5.8549619
7740,-0.8188128,3.5888901,-2.5498118,40.8702278,-11.3893127,-20.4732819,4.0916696,9.4977493,0.4908088,-26.9770985,-39.2442741,-6.3206105
7750,-0.4740495,3.5817075,-2.8347204,29.0000000,-0.7328244,-12.6335878,3.9647777,9.2343884,0.2849085,-25.9160309,-38.2137413,-8.6183205
7760,-0.2777260,4.1371593,-3.0645626,16.0992374,7.5725193,-7.3664122,3.9312592,8.7387915,0.3208214,-21.5954189,-32.0763359,-13.6946564
7770,-0.0814024,5.2169390,-3.1962428,4.6335878,14.7862597,-7.8015265,3.4045374,8.4850073,0.4812321,-12.6412210,-19.8091602,-20.9312973
7780,0.0143651,5.9495606,-3.5673423,-3.8091602,28.5190830,-13.0152674,2.6000898,8.4467001,0.4955972,1.0229008,-2.0687022,-25.8702297
7790,-0.5003856,6.2584114,-4.4172797,-10.1908398,47.6717567,-17.2213745,1.8794388,8.5496502,-0.2226596,12.7251911,12.8244276,-31.2748089
7800,-1.1779412,7.0389171,-5.7604198,-14.8015270,67.7175598,-15.6564884,0.8212070,8.3509331,-0.9265513,21.2442741,22.2519093,-33.3893127
7810,-2.0542145,7.9056134,-7.2567883,-20.1603050,83.4198456,-5.4885497,0.0143651,8.4945841,-1.8147956,23.6793900,25.5114498,-30.5038166
7820,-2.5091105,8.9734221,-8.3940287,-27.5877857,85.3358765,9.8854961,-0.4165890,8.4012108,-2.4492557,23.4961834,27.1755733,-25.0610695
7830,-2.4181314,10.1513634,-8.4562769,-31.4503822,72.9236679,23.9694653,-0.5267217,8.3916340,-3.4548154,11.5725193,28.6106873,-16.5877857
7840,-1.6615674,11.1186161,-8.0899658,-27.8549614,48.5038185,31.7709923,-0.1915352,8.3461447,-3.8953462,-5.7328243,26.4503822,-10.9160309
7850,-0.7086801,11.4849272,-7.2998838,-17.5648861,19.9541988,29.4351139,0.2346306,8.3054428,-3.8714044,-29.0229015,20.6870232,-11.1908398
7860,0.0215477,11.4681673,-6.6247220,-2.8015268,-5.3740458,16.9923668,0.4596844,8.1258793,-3.2944047,-54.1679382,11.0305347,-12.3587790
7870,0.3615226,11.1593170,-6.0764527,10.9312973,-23.5496178,-0.1755725,0.5841822,8.3892403,-1.7022687,-73.4961853,1.0000000,-12.9389315
7880,0.1029501,10.7594872,-5.6694407,19.5801525,-35.1603050,-14.4885492,1.1516051,8.7435799,-0.0071826,-84.8549652,-7.2519083,-13.5419846
7890,-0.4955972,10.1034794,-5.1379304,21.6030540,-42.4122124,-20.6106873,1.5634058,8.8273764,1.5442522,-85.8625946,-9.4427481,-12.6412210
7900,-0.9720409,9.6437950,-4.5250182,20.0229015,-47.9007645,-18.2748089,2.1475880,8.9399033,2.5282640,-80.4274826,-5.9160304,-13.7709923
7910,-1.1252691,9.1960821,-3.2632802,19.6259537,-51.4732819,-13.1145039,2.4899571,9.1338329,3.0765336,-72.8167953,1.0992366,-17.0992374
7920,-0.6560079,8.7675219,-2.2122312,23.4809170,-50.7099228,-7.5954199,2.0949159,9.3157911,3.6343796,-64.8091583,8.0458012,-21.0458012
7930,-0.3926471,8.2671366,-1.4652439,30.6793900,-46.0992355,-3.4809160,1.8243724,9.5599985,3.9288650,-56.3587799,13.0000000,-25.6641216
7940,-0.3064562,7.6901364,-1.3718705,37.8015251,-36.7099228,0.9312977,1.4436963,9.8209648,4.2832050,-47.7251892,14.5954199,-28.3816795
7950,-0.2944853,7.3094602,-1.5801650,41.9847336,-26.0992374,5.0534353,1.2162483,10.0771437,4.5106530,-39.1297722,15.0534353,-26.5801525
7960,-0.2849085,6.9431496,-1.7717001,42.2213745,-15.8625956,7.3816795,1.2162483,10.3620520,4.5322008,-30.5038166,14.1450386,-24.2137413
7970,-0.1532281,6.4068508,-2.1332228,37.7175560,-7.9541984,7.4809160,1.6112895,10.5272512,4.4029145,-21.7862587,12.5496187,-22.5877857
7980,-0.0598547,6.1075773,-2.2720859,29.8473282,-1.5648855,6.4656487,1.8171898,10.8744087,4.1682839,-14.7328243,10.9312973,-24.2977104
7990,-0.5554519,5.0301919,-2.5091105,14.0000000,13.4809160,6.2290077,1.9345051,11.5495701,3.7253587,-5.5954199,9.2519083,-27.4809170
8000,-1.3311694,4.2832050,-2.8921809,-4.4732823,28.6412220,13.2671757,1.4436963,12.2750092,3.9025288,2.8702290,9.7786255,-21.9007626
8010,-1.4221486,4.2448978,-3.0885043,-14.2442751,35.7251892,17.8015270,0.5506636,12.6508970,3.6990228,6.0458016,10.6030531,-15.0076332
8020,-1.4652439,4.4340386,-3.3303175,-23.5572510,44.9160309,22.3435116,-0.6775556,13.3835192,3.3901722,7.4351144,8.0763359,-2.7099237
8030,-1.8650736,4.7404952,-3.5697365,-32.5190849,57.4427490,28.8091602,-1.1923064,13.6827927,2.8035958,6.2595420,2.6106870,14.9847326
8040,-2.6024840,5.2743993,-3.9647777,-41.0992355,68.5572510,39.2748108,-0.7134684,13.5798426,2.8395088,3.9541984,2.5267177,32.9389305
8050,-2.6671271,6.3015065,-4.1419477,-48.7786255,75.2671738,52.4351158,0.1795642,13.2566271,3.1172347,4.2366414,4.6641221,44.4351158
8060,-2.7341642,7.1969333,-3.9959023,-51.8091621,78.0305328,65.1068726,1.3000449,12.8927097,3.7756367,8.2595415,5.2671757,47.8778610
8070,-2.3822186,8.0899658,-3.7660601,-48.9923668,79.9923630,74.2671738,2.2433555,12.6772327,4.3167233,15.1221371,6.4656487,44.1450386
8080,-1.5586174,9.2463598,-3.8163381,-43.3893127,83.1374054,77.3969498,2.9352763,12.4066896,4.8889351,25.7251911,4.3282442,36.9007645
8090,-0.4740495,10.6780853,-4.0796990,-34.7251892,86.5572510,73.8549652,3.2872221,12.2797976,5.5497313,38.7251892,-1.2061069,30.1374054
8100,-0.0167593,11.5902710,-5.3222833,-26.8854961,90.2977066,64.9083939,3.1818779,12.1026278,5.5162125,54.1755714,-6.0610685,23.4427490
8110,-0.3136388,11.9829178,-6.2631998,-21.9618320,87.8931274,54.2290077,2.9328821,11.8703909,5.2887645,69.7328262,-8.4045801,19.9389305
8120,-1.2904681,12.4569674,-6.9431496,-21.5954189,76.1679382,48.7862587,2.9783716,11.5543585,4.5776901,82.1221390,-9.9770994,17.9847336
8130,-2.0135133,12.6604738,-6.8832946,-20.5190830,59.2137413,51.5801544,3.0238612,11.3676119,3.7301471,91.2061081,-6.2061067,18.7404575
8140,-2.1978660,12.2797976,-6.4858594,-14.5954199,42.5877876,59.5114517,2.9927368,10.8384953,2.9544299,96.4122162,0.4732825,18.8702297
8150,-2.4109488,11.9637651,-6.1937680,-3.7557251,35.2824440,71.8396912,2.6479735,10.3021975,2.3103929,98.5572510,5.2061067,19.4580154
8160,-4.8961172,12.0331964,-10.4386663,12.0687027,-23.9694653,97.8549652,2.5665710,8.3341732,0.3327923,81.7175598,1.1374046,25.6641216
8170,-6.4619174,12.6389265,-11.0372133,1.7404580,-40.6793900,118.5648880,2.6072724,7.9319496,0.0143651,71.9847336,-3.8549619,23.2366409
8180,-7.9606800,11.7195578,-9.5552101,3.6335878,-55.0763359,145.6259613,2.6216373,7.5847921,-0.0478838,61.0610695,-6.2442746,20.2061062
8190,-9.9143381,11.1928358,-8.0899658,20.3358784,-66.3435135,180.3893127,2.4013720,7.3262196,-0.0814024,50.2366409,-7.1145039,15.1526718
8200,-10.5559816,11.4298601,-7.6542239,45.9465637,-62.7862587,223.5801544,1.9440818,7.0748301,0.3830703,40.3893127,-8.6412210,10.5801525
8210,-9.9933472,11.6357603,-8.0277176,66.2824402,-47.3816795,250.1297760,1.6879035,7.0460997,0.5985473,32.7022896,-9.5877867,5.7938933
8220,-8.0971489,12.0092545,-8.8585014,75.2748108,-22.9007626,250.1297760,1.4628497,6.8785062,0.7996593,27.1526718,-7.8244276,1.6641221
8230,-5.2073622,11.4226780,-9.0093346,72.7404556,-8.2748089,250.1297760,1.1659702,6.7228842,0.9840119,22.5648861,-5.7786260,-1.8167939
8240,-2.7700772,10.0364418,-8.5999289,62.6564903,-10.2061071,250.1297760,1.0031654,6.6390872,1.0941446,18.1450386,-5.8244276,-2.9618320
8250,0.0598547,7.8194227,-6.8282285,57.0076332,-16.7709923,250.1297760,0.8906385,6.4714942,1.1683644,14.4503813,-4.4427481,-3.8702290
8260,2.4899571,5.6095858,-6.3853035,54.2824440,-13.9083967,250.1297760,0.7445929,6.2081332,1.3024391,10.7251911,-2.3129771,-5.5877862
8270,5.0301919,-0.5051740,-5.4874821,33.3969460,7.9236641,250.1297760,-0.1244979,5.7029591,1.2808913,6.6183205,-4.0763359,-3.4351146
8280,6.6007805,-4.3430595,-4.2089849,14.3053436,0.1526718,224.1526642,-0.1675933,5.4850879,1.0271072,4.2061067,-9.0458012,-0.0534351
8290,9.6078825,-8.0851774,-2.5450234,-1.7633588,-15.4961834,193.9389343,0.1268920,5.7269011,0.4453192,-0.8931298,-17.5419846,1.8396946
8300,14.1233234,-12.0475616,-0.0454896,-8.3740454,-29.1145039,152.7633514,0.8690908,6.2344694,-0.3351865,-10.4274807,-24.4427490,2.7709923
8310,19.1080265,-16.3571014,2.4492557,-5.7938933,-33.1908379,96.4198456,0.8690908,6.5433197,-0.6224893,-23.8320618,-27.1374054,2.4809160
8320,19.6126022,-19.6131992,4.6543045,2.1832061,-33.8854980,46.2595406,0.4429250,6.9239960,-0.7805058,-37.1603050,-34.1526718,2.0916030
8330,19.6126022,-19.6131992,4.8123207,6.4198475,-34.4809151,32.5725174,0.6105183,7.3717093,-0.6488253,-49.5114517,-42.6335869,3.4198472
8340,17.0897236,-19.6131992,3.1196289,6.7022901,3.2366412,84.7862625,0.9217629,7.9391322,-0.3471575,-58.2824440,-44.9083977,5.6183205
8350,14.0347385,-17.0969067,1.0821736,-2.9618320,69.8015289,203.6870270,0.9145803,8.7794924,0.1197095,-61.6870232,-42.7328262,7.5725193
8360,16.2733059,-7.4986014,1.8195840,-23.8778629,105.5114517,250.1297760,0.9672526,9.4690189,0.2825144,-60.5877876,-38.2213745,9.3358774
8370,19.6126022,3.0406206,5.1666608,-41.6335869,103.4198456,250.1297760,1.0654143,9.9717989,0.2777260,-56.4198456,-32.8778610,10.0916033
8380,19.6126022,10.5607700,8.3413563,-35.9389305,60.7862587,250.1297760,1.2497669,10.5703468,0.3136388,-50.1984749,-27.7633591,7.7404580
8390,19.6126022,13.9772778,9.6940727,4.9312978,11.8244276,154.2977142,1.4077834,11.1210098,0.1795642,-42.7557259,-21.3282452,5.3435116
8400,19.6126022,12.1960011,7.8313937,63.6335869,-10.4122133,-33.6793900,1.3311694,11.6956158,-0.0526722,-35.0458031,-13.6946564,3.3206108
8410,19.6126022,6.4044566,2.9113343,101.5877838,0.4732825,-202.3282471,1.2377959,11.9661589,-0.5650287,-29.5801525,-5.2595420,3.1297710
8420,19.6126022,-0.9816177,-3.6846576,92.3435135,38.1832047,-250.1374054,1.1587877,12.0738974,-1.0055596,-27.9389305,1.5648855,3.1297710
8430,18.2892132,-6.7468257,-8.2431946,41.1832047,64.0916061,-250.1374054,1.4006008,12.0547438,-1.1085097,-29.4045811,6.4885497,2.5267177
8440,13.4457684,-9.9981356,-9.6366129,-28.2977104,68.4274826,-250.1374054,1.5035510,12.0595322,-1.0582317,-32.3740463,10.5114508,0.9160305
8450,10.8744087,-10.8576488,-7.0844064,-86.5343475,44.5038185,-250.1374054,1.5658000,11.7482872,-0.5339043,-34.7709923,13.2595415,-1.1755725
8460,10.8313131,-11.0204544,-2.8897867,-111.7709961,9.0458012,-250.1374054,1.7118455,11.5328102,-0.0071826,-35.3740463,14.3893127,-4.2442746
8470,11.9541883,-11.1066446,0.4333483,-103.8091583,-16.8320618,-250.1374054,1.8243724,11.2455082,0.5865764,-32.5267181,16.2442741,-8.8854961
8480,12.0667152,-10.7858238,2.1284344,-75.9618301,-18.0916023,-250.1374054,1.8339491,11.0755205,1.3311694,-26.0916023,18.9312973,-12.6870232
8490,11.0156660,-9.4426832,1.6663558,-44.0534363,10.6259546,-250.1374054,1.8938038,10.7954006,1.8459201,-17.5954189,22.2442741,-16.4122143
8500,7.7356262,-7.7308378,-0.0646431,-20.6030540,53.3893127,-250.1374054,1.9464760,10.5033092,2.2840567,-7.1526718,24.8549614,-19.0687027
8510,3.4452386,-4.5705075,-2.5450234,-8.9160309,85.2977066,-250.1374054,2.0374553,10.3309278,2.4708035,5.5190840,27.9236641,-20.8473282
8520,1.6472024,-3.1507533,-4.4938936,-8.2824430,97.1221390,-236.4198456,2.1356170,10.2279778,2.5641768,18.4122143,31.7175579,-21.6106873
8530,2.2840567,-1.3694763,-5.7029591,-13.3435116,101.7480927,-207.2595367,2.3989778,10.0723553,2.3367288,30.3969460,36.1679382,-21.7175579
8540,3.6367738,-0.0502780,-6.4283986,-12.7328243,110.3053436,-191.2900696,2.6479735,10.0101061,1.8650736,38.9465637,40.4885483,-22.1374054
8550,4.3239059,1.5538290,-8.1402445,-9.0534353,119.7938919,-183.7251892,2.5617826,9.9191265,1.4317253,43.5801544,43.1908379,-22.5343513
8560,2.5641768,4.2640514,-10.8432837,-14.8473282,128.8778687,-175.4580078,2.3702476,9.8137827,1.0917504,45.4961815,43.6106873,-21.5190830
8570,0.3112446,7.7763271,-13.0890341,-41.8244286,109.6870193,-164.8854980,2.2050486,9.8496952,0.9193687,44.4656487,42.2137413,-19.3740463
8580,0.6296718,9.3445215,-12.4473906,-78.0610657,56.8549614,-163.0610657,2.2696917,9.7682934,0.7948709,42.1526718,39.8931313,-16.3587780
8590,2.6743097,9.6892843,-9.1122847,-98.3893127,-2.4351146,-175.0000000,2.4612267,9.6437950,0.6847382,39.3435097,36.9160309,-13.3664122
8600,4.7428894,9.6102762,-5.7628140,-98.0687027,-25.7557259,-197.7175598,2.4755919,9.6414013,0.7900825,35.7251892,33.3206100,-12.2595415
8610,4.0533628,9.8042059,-5.1211715,-89.8473282,0.3435115,-212.5190887,2.4205256,9.5504217,0.7565638,31.3893127,27.9694653,-10.0000000
8620,1.7836711,11.1042509,-5.9495606,-88.8702316,41.4427490,-209.9694672,2.4277081,9.5432396,0.5315101,25.9923668,21.8931293,-6.7328243
8630,-1.7573351,12.8998928,-6.5098009,-94.6717529,58.8244286,-194.1145020,2.7341642,9.4498653,0.5339043,19.9389305,16.1984730,-4.5267177
8640,-3.6415622,13.5319586,-5.8513989,-98.6030502,50.1908379,-175.8167877,2.7772598,9.3588867,0.5219333,13.0076332,11.1603050,-3.5725191
8650,-5.0613165,13.6803989,-4.5896611,-92.2671738,20.5725193,-153.3664093,2.8873925,9.3133974,0.6392486,6.7709923,6.3664122,-2.2671757
8660,-5.0684991,14.9158001,-2.7700772,-75.5496216,-19.3816795,-123.5496216,2.8083842,9.1912937,0.8523315,1.3969465,1.1374046,-0.8167939
8670,-3.3973548,16.3259773,-0.7541697,-48.5267181,-48.1374054,-98.6870193,2.9280937,9.0955257,0.9911944,-2.7557251,-3.5267177,-0.7022901
8680,-1.7956421,16.9867744,0.2082945,-11.7480917,-52.5572510,-92.7557220,3.0047078,9.1769285,1.0821736,-5.8473282,-7.8091602,-0.3587786
8690,-2.1643472,17.3219604,-1.1611819,17.0458012,-37.9771004,-105.1984711,3.1004753,9.2607250,1.2162483,-8.1755724,-10.5954199,0.3435115
8700,-4.8865409,18.3945580,-3.3303175,24.6793900,-27.2977104,-108.5954208,3.0334380,9.2463598,1.3455344,-9.8473282,-11.5038166,0.7480916
8710,-6.7252784,18.8973370,-3.8283088,18.2213745,-31.6870232,-92.3664093,3.1076579,9.3780403,1.2210367,-10.3740454,-10.8931293,1.5801526
8720,-6.4020624,18.1431675,-3.0454090,14.3664122,-39.9618340,-70.2290039,2.9400647,9.4019823,1.5753766,-10.2671757,-10.8702288,2.0152671
8730,-5.5329719,17.1902809,-1.4604555,23.0305347,-40.8931313,-52.6412201,2.8131726,9.4402885,1.6543850,-9.3206110,-11.5343513,4.1755724
8740,-5.1451130,16.3762550,-0.5195391,41.8549614,-39.3206100,-36.7251892,2.7772598,9.4570484,1.7812769,-7.6564884,-13.5267172,4.0763359
8750,-4.0509686,16.0674057,0.6177009,64.6030502,-43.2595406,-19.8702297,2.8706331,9.5599985,1.7094513,-5.6259542,-15.5648851,3.3969467
8760,-2.3103929,15.2892942,1.3814473,92.7709961,-46.5954208,-9.0381680,2.8586621,9.5983057,1.6639616,-3.9465649,-17.5725193,0.8625954
8770,-0.6871324,14.0419216,1.1970947,124.3969498,-46.2213745,-8.9847326,2.6144550,9.7443514,1.6950861,-2.1984732,-19.2290077,-0.1068702
