timestamp,rxacclX,rxacclY,rxacclZ,rxgyroX,rxgyroY,rxgyroZ,txacclX,txacclY,txacclZ,txgyroX,txgyroY,txgyroZ
0,2.2888451,12.4641504,-1.7597293,-18.7633591,-70.2900772,25.6564884,1.2976507,10.2758608,7.2448173,-2.5725191,-16.6183205,-13.6183205
10,1.3168042,11.9493999,-1.8626794,-16.5496178,-65.4274826,27.0916023,0.9911944,10.4626083,7.4890246,2.0305343,-17.9847336,-12.6946564
20,0.5147507,11.5543585,-1.7262106,-12.5496187,-58.0610695,32.1526718,0.8978211,10.4650021,7.6398587,7.8015265,-17.7328243,-11.3435116
30,-0.6129125,11.3460636,-1.7405758,-4.9465647,-55.9618340,39.4198456,0.9169745,10.3357162,7.4674768,13.4503813,-15.5572519,-10.1374044
40,-1.7214222,11.1688938,-2.4684093,3.5190840,-60.2977104,51.3969460,0.8403605,10.2112179,7.5776095,19.8625946,-11.8167934,-9.7328243
50,-2.5162930,10.7810354,-3.2872221,7.5877862,-66.2290039,66.3816757,0.6320660,10.1513634,7.5009956,26.5419846,-5.6793895,-9.0152674
60,-2.4205256,10.5847120,-3.4667864,8.8854961,-71.5725174,81.7709961,0.4022238,10.0651722,7.6590118,33.7251892,-0.3358779,-5.9160304
70,-2.3032103,10.4985209,-2.8371146,15.0839691,-75.9083939,95.3893127,0.1412572,9.9023676,7.3597383,40.0610695,2.0000000,-2.5954199
80,-2.4971397,10.3500814,-3.0166788,23.8549614,-79.7251892,107.1145020,0.0766141,9.6390066,7.0987716,44.5190849,3.3129771,1.9007634
90,-2.4827745,10.0795374,-3.4548154,28.7862587,-79.4732819,120.1908417,0.1819584,9.3373384,6.7611909,48.1679382,3.0687022,4.9847326
100,-2.3558824,10.1585455,-3.5098817,32.1908379,-77.4732819,132.1221313,0.4070122,9.1410151,6.3613615,49.9312973,1.5954199,7.5419846
110,-2.1763182,10.1561518,-3.4907281,36.5190849,-74.0992355,140.2519073,0.5937590,8.8034344,5.9758968,49.7251892,-2.6564887,8.5267172
120,-1.9345051,9.8329363,-4.2903876,38.2442741,-68.5954208,146.0992432,0.8858501,8.5472565,5.5042415,48.8015251,-7.9312978,8.1526718
130,-2.1787124,9.2583303,-5.5521255,30.3282452,-62.4809151,154.1221313,1.2258250,8.2767134,5.1546898,46.7404594,-11.3206110,7.4427481
140,-2.2481439,8.6286592,-6.6702118,12.8702288,-58.7557259,167.8320618,1.3527170,7.8697009,5.0924411,44.8244286,-15.1068707,7.0229006
150,-1.8554969,7.8888540,-6.5600791,-6.7022901,-51.7557259,184.4809113,1.5011568,7.7906923,4.6471219,43.5877876,-18.4809170,6.2137403
160,-0.9073978,7.0891948,-5.3988972,-18.6793900,-48.6259537,200.7328186,1.8267666,7.6470413,4.4412212,42.3740463,-18.4427490,3.9465649
170,-0.2298422,6.1123657,-4.1467361,-21.4274807,-52.7328262,217.6717529,1.9752063,7.3381906,4.1898317,41.7099228,-16.6183205,3.4580152
180,-0.2202654,5.1977854,-3.5026991,-17.9389305,-66.3435135,244.7633514,2.0901275,7.3070664,4.0078731,40.3129768,-13.8473282,1.2137405
190,-0.2370248,4.0988522,-3.2058196,-12.7022905,-74.8015289,250.1297760,2.1284344,7.2280579,3.7397239,38.2213745,-11.9770994,-1.6183206
200,1.3982066,3.1507533,-2.2170193,-0.3511450,-76.9160309,250.1297760,2.0111191,7.2232695,3.5888901,35.7251892,-10.1832066,-3.2366412
210,3.1172347,1.8315549,-2.2984219,17.9694653,-79.7328262,250.1297760,1.9488702,7.2759418,3.2489152,32.4198456,-7.2595420,-3.4198472
220,4.2377152,0.7781116,-3.2297616,33.2137413,-82.8549652,250.1297760,1.8124014,7.3477674,3.1124463,27.8320618,-4.6488547,-3.6641221
230,5.3510137,-0.2609667,-4.5322008,39.7633591,-84.4427490,250.1297760,1.7597293,7.3788919,2.9161227,22.3511448,-2.8854961,-2.5496182
240,7.0293403,-1.7717001,-5.4922705,37.1450386,-85.7404556,250.1297760,1.8243724,7.3621325,2.9304879,15.6717558,-1.7404580,-1.8244275
250,8.9087791,-3.5194585,-6.5505023,25.3587780,-83.5496216,250.1297760,1.8052188,7.3836803,2.8778157,7.9465647,-1.6946565,-1.5572519
260,10.6230183,-4.9775200,-7.2424231,4.3206105,-77.9465637,250.1297760,1.8842272,7.3717093,2.8849983,-0.3435115,-1.9618320,-1.5038168
270,11.9015160,-6.6678176,-8.0588417,-26.3969460,-70.0457993,250.1297760,2.0494261,7.3693151,3.0214672,-8.1832066,-2.3206108,-2.6717558
280,12.5958309,-9.0189114,-8.0827837,-68.1145020,-64.3435135,250.1297760,2.1763182,7.4291697,3.0717452,-14.8320608,-2.4656489,-4.3358779
290,13.1536770,-11.6956158,-7.4100165,-113.7175598,-62.4045792,218.7251892,2.1164634,7.4243813,3.3015873,-21.5954189,-2.9007633,-7.7786260
300,14.2358503,-14.5782194,-5.4970589,-155.9389343,-55.8702278,193.7709961,2.0781565,7.5967631,3.4284792,-26.8167934,-2.5496182,-9.9847326
310,15.2150736,-16.5558205,-2.2218077,-191.1908417,-38.1526718,181.1145020,1.9847831,7.9008250,3.6439564,-31.1984730,-0.6717557,-12.0763359
320,16.6180687,-16.9867744,2.3965836,-218.5267181,-8.4809160,178.5038147,1.7070571,8.0325060,3.7900019,-34.6793900,1.3129771,-12.8473282
330,19.6126022,-15.9692440,9.5647869,-229.4809113,2.9465649,182.1908417,1.5873476,8.1953106,4.0940638,-37.4122124,4.1679387,-12.7480917
340,19.6126022,-12.2774038,18.5429974,-211.8244324,-31.3969460,181.6717529,1.4556671,8.3389616,4.5681133,-39.1374054,7.5190840,-12.2595415
350,19.6126022,-8.0013809,19.6126022,-143.4274750,-103.2748108,144.0152740,1.3096216,8.5999289,4.8458395,-39.5648842,10.1603050,-12.9541988
360,19.6126022,-6.1913738,19.6126022,-27.6564884,-123.8396912,36.7022896,1.2066715,8.8345594,5.0708933,-39.1832047,11.1755724,-12.7862597
370,19.6126022,-8.4706421,19.6126022,104.1526718,-11.0992365,-152.5343475,1.2330076,9.0213060,5.5617023,-38.0076332,10.8320608,-13.7786255
380,19.6126022,-14.8750992,15.3252068,186.9007568,114.0763321,-250.1374054,1.2282192,9.4211359,5.8657641,-36.5877876,9.9236641,-15.4809160
390,19.6126022,-19.6131992,2.5186872,196.1908417,188.6717529,-250.1374054,1.1132981,9.7395630,5.9615316,-35.4274826,8.9770994,-16.5801525
400,19.6126022,-19.6131992,-8.1019373,170.0381622,250.1297760,-250.1374054,1.1396341,9.9741936,6.0620875,-36.5877876,8.4274807,-17.5801525
410,7.4794478,-19.6131992,-13.2350798,136.5190887,250.1297760,-250.1374054,1.0893562,10.1202393,5.9184365,-40.4961815,1.2671756,-19.2748089
420,-6.8713236,-19.0146523,-14.5039997,105.9083939,200.0992432,-250.1374054,1.0414724,10.1992474,6.2344694,-44.6641235,-9.7938929,-22.5572510
430,-15.2940826,-11.9901009,-12.6293497,92.6259537,93.0229034,-250.1374054,1.0295014,10.3213511,6.8545642,-45.2137413,-17.4122143,-23.8854961
440,-10.0172882,-8.2216463,-11.1808643,80.8931274,-34.0992355,-217.3816833,1.0079538,10.3045912,7.4219875,-41.0610695,-21.3129768,-24.7709923
450,-0.7996593,-4.3310885,-9.3445215,79.4656525,-96.7557220,-164.9084015,1.0869620,10.1561518,7.7260494,-32.5419846,-21.6793900,-25.3129768
460,3.1938488,-1.5777708,-9.4953556,75.0381699,-72.6183243,-161.7938995,1.2282192,10.1920643,7.9678626,-21.3358784,-19.4656487,-24.2900772
470,3.4045374,1.0797794,-11.4921093,52.6564903,-5.2519083,-161.5572510,0.9457048,9.8712435,8.2862902,-7.7480917,-14.3511448,-24.8778629
480,1.8171898,3.8809812,-13.8910875,15.5419846,69.7022934,-154.5725250,0.5698171,9.8473015,8.1833391,5.7251906,-7.6183205,-22.4351139
490,-0.8762733,6.7324610,-15.4281569,-28.1221371,120.9694672,-136.9923706,0.5841822,9.7658987,8.1354561,18.5190830,-2.7480917,-19.4198475
500,-1.9416877,8.8585014,-14.8511572,-65.6717529,144.1526642,-110.5190811,0.5458752,9.5671806,7.6326761,28.8549614,1.6412214,-16.6488552
510,-2.0590029,10.8361015,-13.2685976,-86.3282471,144.4885559,-84.2519073,0.5889706,9.3995876,7.1514440,36.4274826,4.1984735,-14.7938929
520,-1.7429699,12.3396521,-12.0595322,-90.3740463,125.1679382,-60.7022896,0.6033357,9.2032642,6.7396431,41.5190849,6.4427481,-13.3969469
530,-0.0646431,14.0107965,-11.0396080,-84.2442780,93.4885483,-43.9007645,0.5506636,8.9638453,6.4068508,44.9618340,8.0076332,-11.8625956
540,1.4843974,15.1528254,-10.5224628,-77.0076370,60.3435097,-38.3969460,0.6177009,8.8992023,6.1458845,47.2137413,10.3282442,-10.7938929
550,3.0573800,15.8040447,-10.1633339,-74.3893127,30.5801525,-41.4885483,0.3806761,8.6741486,6.0788469,49.5038185,10.2977095,-9.5343513
560,4.0701222,15.7370071,-9.4187412,-76.2290039,11.3664122,-50.6488533,0.3615226,8.5113440,6.0381460,52.1832047,9.6946564,-6.0534353
570,4.1802549,15.1935263,-8.1593981,-79.4427490,3.8702290,-60.1984749,0.4333483,8.2527714,5.6957769,55.3358765,9.4351149,-3.7404580
580,3.6487448,14.5830078,-6.5289545,-79.8396912,1.7557251,-62.0152664,0.5315101,8.0253229,5.3773494,57.5801544,8.0687027,-2.6488550
590,3.2082138,14.2957048,-4.7500720,-75.5572510,-0.9389313,-55.6488533,0.5339043,7.9343438,5.0804701,58.6106873,7.0076337,-1.5190840
600,3.3398943,14.0514975,-3.2704628,-67.2824402,-7.7709923,-44.0687027,0.6392486,7.8385763,4.7357068,59.1908379,6.9847326,0.3435115
610,4.3717899,13.8551741,-1.6687500,-54.7938919,-18.4122143,-32.8778610,0.6560079,7.6542239,4.5393834,59.3358765,6.4961834,1.7480916
620,5.8921003,13.5463238,0.1508339,-37.6030540,-31.3129768,-30.8091602,0.7302278,7.5201492,4.2209558,59.1832047,5.7786260,2.5648854
630,7.2328463,12.8544035,1.2904681,-17.3511448,-42.8549614,-35.5801544,0.9289455,7.3669209,3.6990228,57.9465637,7.0916033,2.1374047
640,8.2815018,12.0140429,1.8626794,0.3358779,-47.9847336,-41.4427490,1.0055596,7.2903070,3.3135581,54.1297722,6.9618320,1.3816794
650,8.9207497,11.2215662,2.0159075,13.6488552,-42.7862587,-47.3435097,1.0582317,7.1322904,2.9903426,48.9847336,6.1603055,-0.1526718
660,9.1003141,10.2638903,1.6831152,20.9312973,-29.6412220,-52.4351158,1.1204807,7.1490498,2.7652888,42.2671738,5.9465647,-2.2824428
670,8.5472565,9.0452480,1.5466464,21.5419846,-16.0992374,-58.3740463,1.0031654,7.0748301,2.3582766,26.4656487,10.9236641,-9.2977095
680,7.7475972,8.7555504,1.6448082,21.5725193,-20.7328243,-61.2290077,0.8188128,7.0796180,2.0925217,17.5114498,13.6488552,-12.2824430
690,6.9383612,8.4562769,1.8028246,22.1450386,-33.0076332,-66.6488571,0.5985473,7.1298962,2.2768741,8.8320608,14.0305347,-15.4580154
700,6.1937680,7.9056134,2.0613971,23.8931293,-45.4809151,-73.7175598,0.3327923,7.3166428,2.6144550,-0.1603053,11.0076332,-17.2061062
710,5.3773494,7.2328463,2.4540441,27.0152664,-52.5801544,-82.0381699,-0.1628049,7.3166428,2.7293761,-7.9770994,3.7099237,-18.7099228
720,4.0820932,6.4906478,2.4899571,31.9465656,-53.3206100,-89.2519073,0.1388630,7.8026633,2.7964132,-15.5267172,-3.4122138,-19.6030540
730,2.7892308,5.8681583,2.4612267,37.0458031,-48.4961815,-92.4656525,-0.2226596,7.9032192,3.0693510,-21.4809170,-10.4198475,-21.0839691
740,1.4053892,5.1211715,2.2864509,40.6641235,-35.9236641,-90.6717529,-0.2154770,8.0660238,2.9161227,-26.6412220,-15.9847326,-23.5496178
750,0.1268920,4.5178356,1.9368993,43.4351158,-18.1145039,-83.8396912,-0.2753318,8.5400734,2.9472473,-31.8167934,-19.3664131,-26.4809170
760,-0.7900825,4.0773048,1.6280488,45.1374054,0.3129771,-72.5267181,-0.2274480,8.9470863,3.0166788,-36.7099228,-20.7480907,-29.7328243
770,-1.6400198,3.7852135,0.9409165,44.7938919,18.3435116,-57.8625946,-0.5841822,9.3947992,3.1411765,-40.7328262,-18.5038166,-31.3816795
780,-1.9153515,3.3111639,0.6224893,41.8549614,35.4580154,-40.9618340,-1.0725969,9.7898407,3.3829896,-43.9847336,-16.5343513,-30.4656487
790,-1.6160779,3.1387823,0.3303981,38.1526718,49.7557259,-24.4198475,-1.6065011,10.1920643,3.7301471,-46.5877876,-13.9465647,-26.5648861
800,-0.3878587,3.5841017,0.1843526,34.4809151,62.5725174,-13.2061071,-2.0206959,10.4673967,3.9935081,-47.7251892,-10.3587790,-19.1679382
810,1.4772149,4.5082588,0.0981618,33.2213745,72.9160309,-14.8473282,-2.0853391,10.6062593,4.3143296,-48.5954208,-6.8702292,-10.9389315
820,2.8682389,4.9655490,-0.1747758,31.9083977,81.5801544,-29.3358784,-1.8100072,10.5583754,4.6973996,-48.3893127,-4.2595420,-2.8549619
830,4.4172797,5.0206151,-0.6440369,27.9694653,89.5954208,-52.1908379,-1.5298871,10.5679522,5.0254035,-48.3053436,-1.1679389,2.9465649
840,5.5712790,5.3127065,-1.0342898,23.2748089,98.4732819,-79.1068726,-1.3287752,10.4266949,5.2217274,-48.1374054,1.6793894,5.9847326
850,4.9224534,4.7428894,-2.2601149,15.0305347,107.9236679,-99.9160309,-1.1970947,10.3261395,5.6670465,-47.7328262,4.0534353,8.6412210
860,4.3119354,5.4922705,-4.1539187,-0.8931298,123.3129807,-105.4656525,-1.0725969,10.1800938,6.1027889,-46.6106873,4.3587785,11.2137403
870,3.7516949,6.1650376,-5.5952206,-26.7022896,150.3129730,-97.1450348,-0.9600700,10.1130562,6.4092450,-44.7709923,2.9694657,13.2213745
880,3.2824337,7.7475972,-5.6335278,-55.6793900,165.0458069,-81.9923630,-0.9385223,9.8353300,6.5409255,-42.9160309,0.6259542,15.1908398
890,3.3710186,10.0915089,-5.2767935,-87.5648880,168.6717529,-58.3206100,-0.7254394,9.7060442,6.8234401,-41.4427490,-2.1221373,16.6717548
900,3.9959023,12.3803539,-3.7229645,-104.3282471,160.9465637,-38.6793900,-0.5434810,9.4809904,6.9072366,-39.2519073,-5.0610685,18.9465656
910,4.8147149,14.0945930,-2.1020982,-103.7099228,137.3587799,-29.4427490,-0.3902529,9.2104464,7.1705976,-36.2824440,-7.0229006,21.0381680
920,5.2169390,15.4999828,-0.9576758,-88.2748108,102.2213745,-28.9236641,-0.0766141,8.9255381,7.1825686,-32.1145020,-7.0152674,23.3053436
930,5.2432747,16.1799316,-0.3710994,-65.4732819,53.5572510,-32.2519073,0.2178712,8.7555504,7.2400289,-27.3435116,-6.0916033,24.8854961
940,5.3605900,16.1488075,-0.1436514,-41.6183205,4.3053436,-35.4656487,0.6488253,8.5448618,7.3525558,-21.9694653,-4.9618320,24.8015270
950,5.3079181,15.7274303,0.1292862,-19.5038166,-35.7633591,-37.5648842,0.9864060,8.4634600,7.3693151,-16.7480907,-3.2213740,23.9694653
960,5.0230093,14.8894644,0.4764437,0.5190840,-64.1526718,-36.0687027,1.2593436,8.4371233,7.2136927,-11.4656487,-1.5267175,21.2748089
970,4.7668314,14.1544485,0.7661406,18.5038166,-84.0992355,-29.7328243,1.3575054,8.3820572,7.1251078,-7.0305343,-1.0916030,18.1984730
980,4.6926112,13.0626974,0.9576758,34.2824440,-95.1297684,-23.3129768,1.4221486,8.3796635,6.9120250,-3.7633588,-1.2442749,14.3816795
990,4.3861551,12.0786858,0.9648584,49.1221390,-100.5725174,-17.0076332,1.2641320,8.4323349,6.6486640,-2.2137403,-2.5572519,10.9083967
1000,4.1587071,11.1114330,0.4908088,59.1908379,-98.9694672,-11.0992365,1.2066715,8.4467001,6.6773944,-1.7099236,-5.0000000,7.1908398
1010,4.0389977,10.2327662,-0.2250538,62.9618340,-90.6183243,-6.1755724,1.0151364,8.5783806,6.5481081,-1.3358779,-7.4656487,4.3435116
1020,2.3750360,7.7595682,-1.5035510,37.6335869,-40.7557259,2.2671757,0.8140244,8.6310530,6.4619174,3.1679389,-9.8473282,0.8320611
1030,1.7070571,7.1203194,-1.4197544,23.2061062,-24.4961834,7.1908398,0.8307837,8.6621771,6.3589673,4.6717558,-8.0076332,0.0076336
1040,1.1228749,6.4020624,-1.1683644,9.8320608,-9.2900763,12.7175570,0.5099624,8.6789370,6.2368636,6.3587785,-5.5343513,0.5190840
1050,0.5027798,5.7364779,-0.9624642,-1.2824427,3.0839694,18.8854961,0.2226596,8.6095057,6.3110833,8.4580154,-4.2137403,2.5877862
1060,-0.1508339,5.0325861,-0.9911944,-11.2748089,11.0839691,28.1068707,0.1197095,8.5376797,6.2129216,10.3969469,-6.2442746,5.5877862
1070,-0.7350162,4.7093706,-0.9337339,-20.5496178,14.5267172,40.3587799,0.1963235,8.4826136,5.7580256,11.7022905,-10.8167934,9.3435116
1080,-0.7900825,4.4148855,-0.6272776,-25.8473282,10.2519083,52.5343513,0.6512195,8.4682484,5.1618724,11.4198475,-15.3511448,12.4656487
1090,-0.6296718,4.3143296,-0.4979914,-25.8396950,-7.8244276,62.1908379,1.3335636,8.3748751,4.4148855,9.4198475,-18.5496178,13.8931293
1100,-0.1101327,4.6519103,-0.6655847,-21.5343513,-35.2137413,66.4580154,1.7573351,8.2072811,4.1922259,6.3282442,-21.0305347,13.4122133
1110,0.8906385,5.0804701,-1.5490406,-19.4809170,-59.5038185,63.9694672,2.1858950,8.1282730,3.9719603,4.2671757,-23.5190830,13.1832066
1120,1.8052188,5.3988972,-2.5665710,-22.0305347,-72.8167953,56.8167953,2.6288199,8.2144642,3.8163381,1.7328244,-22.2977104,11.7938929
1130,1.7908537,5.7029591,-4.2688398,-33.9160309,-69.7938919,50.4274826,2.9448531,8.1306677,3.6726866,-1.8549619,-17.0458012,7.5267177
1140,0.8978211,6.0716643,-6.0572991,-58.1374054,-53.5419846,52.7938919,2.9376705,8.2791071,3.7540891,-6.0687022,-11.2900763,3.0916030
1150,0.0909792,6.5624733,-6.8617468,-87.9160309,-32.8549614,64.6259537,2.5929072,8.3102312,4.0006905,-10.7786255,-9.1374044,-0.6641222
1160,0.0430954,7.5201492,-6.5265603,-111.8396912,-17.0076332,80.4198456,2.2194135,8.3820572,4.5178356,-14.0916033,-9.9770994,-1.7404580
1170,0.9504932,8.6310530,-5.2336984,-122.3511429,-7.2748094,92.4122162,1.9560528,8.5328913,4.8290801,-16.7480907,-11.2519083,-1.7404580
1180,2.0350611,10.0412302,-4.4771342,-119.8702316,1.7175573,96.3816757,1.8938038,8.5688038,4.9535780,-18.9236641,-13.2290077,-1.3282443
1190,2.9951310,11.8057480,-4.3023586,-112.2290039,7.4809160,95.6946564,1.9488702,8.5568333,5.2217274,-21.0076332,-15.0381680,-1.8625954
1200,3.1962428,13.2326851,-4.6902170,-102.3282471,5.6030536,89.6564865,2.0015423,8.6382351,5.2839761,-23.5648861,-15.2824430,-2.6870229
1210,2.8993635,14.2693691,-5.2097564,-96.8931274,-5.4580154,81.1679382,1.9321109,8.6669655,5.4874821,-25.9694653,-15.0305347,-3.6793892
1220,2.2433555,15.0953646,-5.1858144,-93.6870193,-21.6183205,75.0916061,1.8195840,8.6214762,5.8490047,-28.2061062,-15.1068707,-6.0992365
1230,1.7453641,15.4520988,-4.8027439,-90.5648880,-36.0228996,73.6641235,1.5083394,8.6214762,6.2057390,-29.1832066,-15.9694653,-7.6259542
1240,1.5969244,15.2126799,-4.3550305,-84.0381699,-48.3740463,75.6717529,1.1635761,8.5400734,6.5457139,-28.3282452,-15.9007635,-7.7557254
1250,1.4628497,14.6548338,-4.2089849,-75.4732819,-55.6488533,81.0305328,0.7661406,8.4395180,6.8258343,-25.4274807,-13.5496187,-7.5114503
1260,1.0869620,14.2166967,-4.1706781,-68.0992355,-55.7862587,92.7557220,0.5123565,8.2072811,7.0508881,-20.3740463,-9.0839691,-8.0534353
1270,0.4429250,13.6899757,-4.1730723,-62.5648842,-55.6259537,111.3129807,-0.0263361,7.9343438,7.1346846,-13.2977095,-4.6488547,-8.3053436
1280,-0.2082945,13.1919842,-4.1204000,-58.9541969,-58.3282433,135.9618378,-0.6296718,7.6949248,7.2615767,-5.4351144,-2.0076337,-9.0229006
1290,-0.3806761,12.5000629,-3.7397239,-55.8854980,-65.8854980,165.7099304,-1.1252691,7.5584559,6.9718795,2.8625953,-1.8778626,-9.0763359
1300,-0.7852941,11.2407198,-3.2704628,-49.3435097,-79.3816757,197.8549652,-1.5083394,7.5416965,6.5481081,9.7786255,-4.6946564,-9.1374044
1310,-1.4891858,10.2806492,-3.0813217,-38.7022896,-95.6564865,237.5343475,-1.5538290,7.6470413,5.9112539,14.0687027,-9.9541988,-8.6641226
1320,-1.1611819,9.4857788,-3.3470769,-23.5419846,-103.7328262,250.1297760,-1.2928623,7.9534974,5.1882086,15.2519083,-15.4045801,-7.5648856
1330,0.5243275,8.5161324,-4.2496862,-12.1526718,-92.9923630,250.1297760,-0.8978211,8.1306677,4.4388270,13.7557249,-19.7862587,-4.8931298
1340,3.8737986,6.9048424,-5.6957769,-15.5190840,-66.5648880,250.1297760,-0.3902529,8.2000990,3.7277529,10.6335878,-22.1832066,-1.9541985
1350,7.1969333,4.8530221,-7.4291697,-41.7938919,-20.4274807,250.1297760,0.1939293,8.2551651,3.2776453,7.0458016,-22.2213745,0.8549618
1360,9.4019823,2.3941894,-8.1234846,-89.8091583,31.1297703,250.1297760,0.8978211,8.3796635,3.0932927,3.4885497,-19.9770985,2.0916030
1370,11.0204544,-0.1125269,-7.4124107,-143.7175598,75.4580154,250.1297760,1.5586174,8.7220325,2.9568241,-0.1679389,-13.9312973,2.3664122
1380,11.9326401,-3.7181761,-5.6263452,-201.5114441,105.4656525,250.1221313,2.1523764,8.9279327,2.8490853,-5.0000000,-4.9007635,2.9618320
1390,12.8735571,-9.3205795,-2.4109488,-250.1374054,118.3740463,181.3740387,2.5976956,9.0572186,2.7269819,-11.6870232,6.5801525,1.3129771
1400,12.7322998,-15.3347836,2.1978660,-250.1374054,116.0763321,104.9465637,2.7676830,9.1960821,2.9328821,-19.3740463,17.5343513,-3.7862597
1410,12.3659887,-19.6131992,8.9518747,-250.1374054,108.1832047,40.9771004,2.3056045,9.2391768,3.7947903,-26.1068707,24.8778629,-8.4580154
1420,10.4937325,-19.6131992,14.0778341,-250.1374054,100.5954208,4.6183205,1.5466464,9.3373384,4.7788019,-29.3511448,27.2671757,-11.0763359
1430,4.5417776,-19.6131992,17.4632187,-250.1374054,64.3358765,31.4885502,1.0486550,9.4450769,5.6478930,-29.3816795,26.5343513,-10.3053436
1440,1.0606259,-19.6131992,19.6126022,-250.1374054,-2.0763359,135.7404633,0.7589580,9.4642305,6.0357518,-27.5419846,26.2442741,-8.8931293
1450,5.8202744,-19.6131992,19.6126022,-191.4427490,-105.7328262,250.1297760,0.3303981,9.4498653,6.4451580,-25.8244267,22.6946564,-5.5801525
1460,18.6914368,-12.0738974,19.6126022,-63.9312973,-194.4656525,250.1297760,0.2154770,9.3684635,6.6271162,-24.6030540,18.9312973,-2.2595420
1470,19.6126022,-3.0765336,19.6126022,115.4885483,-217.6946564,224.1297760,0.3375807,9.3133974,6.8497758,-23.0687027,16.1679382,1.8702290
1480,19.6126022,1.6376256,19.6126022,250.1297760,-207.1450348,21.7862587,0.6105183,9.1362267,6.8928714,-21.1221371,16.1068707,6.1755724
1490,19.6126022,0.4118006,16.5965214,250.1297760,-152.7328186,-171.6030579,0.8427547,8.9782104,6.8832946,-19.2442741,17.5419846,10.3587790
1500,19.6126022,-7.0341287,5.5329719,249.8015289,-37.4809151,-250.1374054,1.2761030,8.8489246,7.0317345,-17.9007626,18.7099228,13.3587790
1510,19.6126022,-15.4616756,0.0407012,163.5038147,96.2137375,-250.1374054,1.5346755,8.7483683,7.2376347,-16.5496178,17.4198475,15.4580154
1520,17.5158901,-19.6131992,-0.9217629,95.5114517,202.1297760,-250.1374054,1.8052188,8.7004843,7.2711535,-15.4122133,14.7862597,16.3740463
1530,9.2894554,-19.6131992,1.2473727,73.8091583,244.0686951,-250.1374054,2.1691356,8.6214762,7.4052281,-14.4274807,10.1297712,16.0763359
1540,2.3989778,-19.6131992,3.2608860,97.6564865,214.1068726,-250.1374054,2.5330524,8.6334467,7.4962072,-13.3435116,5.2137403,14.9160309
1550,0.0502780,-17.9013538,3.1675127,144.8778687,170.3282471,-250.1374054,2.9185169,8.5903521,7.5584559,-12.5038166,0.7251908,12.8854961
1560,0.2657550,-13.3643656,1.5418580,179.7709961,125.9083939,-250.1374054,3.1148405,8.6621771,7.8218169,-11.6793890,-3.4961832,9.2442751
1570,0.8140244,-8.2288294,-0.3663110,188.8931274,106.0916061,-238.5801544,2.9783716,8.6909075,7.9008250,-10.5877867,-7.0458016,5.2977099
1580,1.3742647,-2.3702476,-2.2984219,174.0610657,116.1679382,-205.8854980,2.9328821,8.6813307,8.0756006,-8.3816795,-10.3587790,4.0992365
1590,2.2912393,1.8435259,-2.5186872,154.8015289,136.0686951,-179.8702240,2.9759774,8.7914639,8.1522150,-5.5801525,-13.6488552,2.3282442
1600,3.3590479,5.1068063,-2.6000898,138.2213745,159.5343475,-158.1145020,3.0454090,8.8249826,8.3461447,-2.3358779,-16.2442741,-0.6641222
1610,4.0820932,7.7332320,-3.0813217,125.4503784,183.9847260,-134.9007568,2.9568241,8.9111729,8.3389616,0.5648855,-18.0381680,-4.1755724
1620,3.3758070,11.6046362,-4.3693957,116.2290039,203.8091583,-102.7404556,2.7030399,8.9494801,8.5089493,3.7786260,-19.4580154,-9.5572519
1630,3.7516949,15.4090033,-5.6119800,106.8931274,204.2824402,-63.2519073,2.5115047,9.1122847,8.6837254,7.4809160,-19.1450386,-13.4732828
1640,5.5066357,18.7919922,-5.7484488,99.5725174,177.1908417,-33.8091621,2.0302727,9.1386213,8.9734221,12.6793890,-18.1297703,-18.0229015
1650,7.6207051,19.6126022,-5.7101417,97.1984711,124.5877838,-23.9160309,1.2952565,9.2679071,9.1960821,19.1450386,-16.0687027,-21.0610695
1660,9.6342182,19.6126022,-5.3821378,97.4351120,62.6870232,-28.2748089,0.4692611,9.2415714,9.3780403,26.3206100,-14.0839691,-22.0610695
1670,11.3388815,19.6126022,-4.8793583,101.6717529,2.4503818,-43.1450386,-0.2873027,9.3038206,9.4929609,33.5190849,-13.0381680,-18.9847336
1680,12.3707771,19.6126022,-4.4627690,105.8854980,-42.0992355,-65.5267181,-0.8882443,9.3445215,9.6150646,41.5114517,-14.3358774,-13.7099237
1690,12.2630386,19.6126022,-4.3837609,107.1145020,-70.0839691,-89.4732819,-1.1899122,9.1338329,9.5815458,49.8167953,-16.9847336,-6.5114503
1700,12.0738974,18.1742916,-3.7540891,105.6793900,-74.0457993,-114.4732819,-1.1923064,8.9303265,9.1984758,58.7175560,-20.7786255,0.2900763
1710,10.0364418,16.7712975,-2.8562679,104.4809189,-74.6488571,-131.4961853,-0.9217629,8.7627335,8.7196379,66.6106873,-24.6259537,5.5343513
1720,8.2599535,14.3675308,-1.9919657,108.0381699,-69.4045792,-144.0305328,-0.6655847,8.4634600,8.0468712,72.6488571,-27.0916023,9.0229006
1730,5.6646523,12.3516235,-2.1906834,106.8091583,-74.7862625,-147.2366486,-0.2681492,8.1617918,7.2735476,75.4427490,-28.4961834,11.6870232
1740,3.4404502,10.4721851,-2.4851687,103.9618301,-76.2595444,-142.8625946,0.1005560,7.9534974,6.4236102,76.0076370,-28.7557259,12.4656487
1750,1.4077834,8.8034344,-2.4779861,95.9236679,-74.9160309,-131.4274750,0.2849085,7.4004397,5.8011212,74.6030502,-29.7480907,14.0992365
1760,0.1891410,7.2304521,-1.8554969,88.0152664,-75.8702316,-116.8091583,0.6344602,7.3357964,5.2791877,71.6870193,-29.3511448,14.6488552
1770,-0.9193687,5.9639258,-0.7637464,83.4045792,-77.7175598,-101.1526718,0.7972651,7.0269461,4.7165532,67.7557220,-31.4961834,15.6259546
1780,-1.5490406,5.2193332,-0.2585725,81.1755753,-81.9007645,-83.1068726,1.0725969,6.6869712,4.4053087,64.2137375,-31.3587780,17.7480907
1790,-1.5729824,4.3430595,0.3543400,81.6412201,-79.7251892,-65.8015289,1.4843974,6.4044566,4.2161674,60.9923668,-29.5267181,18.7786255
1800,-1.4796091,3.6391680,0.6536137,82.8473282,-74.6335907,-50.7251892,1.8483143,6.0333576,3.6343796,57.7099228,-26.4045811,17.3969460
1810,-1.5729824,3.1339941,0.6679789,83.9160309,-68.5877838,-36.7557259,2.1858950,5.7795734,3.4069316,54.1450386,-24.4122143,15.1450386
1820,-1.5729824,2.6431851,0.3399749,81.4503784,-61.2442741,-22.4351139,2.6144550,5.7029591,3.1483591,49.9618340,-21.4122143,11.1832066
1830,-1.7238164,2.0278785,0.0526722,74.5648880,-53.6030540,-5.6335878,2.9448531,5.4946647,2.9233053,46.1679382,-17.6259537,6.2900763
1840,-2.0733681,1.7645177,0.1149211,63.7786255,-36.6259537,20.4122143,3.0214672,5.5114241,2.8035958,41.4809151,-11.5572519,0.8320611
1850,-1.4269369,2.5306582,0.1005560,54.1297722,-13.3206110,40.0916023,3.0071020,5.4132624,2.6958573,35.4656487,-5.0610685,-5.6030536
1860,0.3974355,2.9352763,-0.1987177,46.1374054,16.3816795,46.8015251,2.8419030,5.5760674,2.7341642,27.6717548,-1.1068702,-11.2671757
1870,3.0047078,2.4995339,-0.8331779,34.8244286,44.9160309,32.4122124,2.6838863,5.7628140,2.7126167,19.5496178,-1.7480916,-16.3664131
1880,3.3039815,0.9169745,-2.3582766,-2.9694657,101.5267181,-31.9312973,2.1188576,6.6821828,3.0741394,3.0534351,-10.3511448,-27.3893127
1890,1.8315549,0.7829000,-2.9352763,-24.9923668,113.3511429,-55.9694672,1.6591733,7.5177550,3.1483591,-7.7251906,-16.6259537,-31.1221371
1900,-0.0383070,1.1300575,-3.1890604,-47.4427490,109.2366409,-64.3206100,1.2976507,8.2288294,3.4907281,-18.7099228,-23.8396950,-32.7251892
1910,-1.1037214,1.9536586,-3.0597742,-72.7633591,85.1374054,-59.4961815,1.1180865,8.7675219,3.8666160,-27.9007626,-29.4656487,-32.0381660
1920,-0.5051740,2.4636209,-2.1356170,-94.9160309,60.8473282,-47.1297722,1.3048333,9.5791521,4.6734576,-33.1908379,-31.9618320,-30.8396950
1930,0.4548960,3.0621684,0.6967092,-102.1374054,66.6488571,-35.9465637,1.6831152,10.3476868,5.5976148,-32.0305328,-33.1984749,-31.1374054
1940,0.6440369,4.7476778,0.1173153,-103.7022934,61.4198456,-23.9694653,1.8890154,11.1401634,6.2919297,-26.8244267,-33.1450386,-32.3358765
1950,0.9265513,6.6462698,0.7254394,-103.4198456,77.7480927,-10.1145039,2.2218077,12.0044661,6.8641410,-19.5267181,-32.8473282,-34.5648842
1960,1.2258250,9.3301563,0.9002152,-103.3053436,89.8244247,6.5496182,2.0230901,12.2295198,7.4004397,-9.6717558,-34.0076332,-36.6793900
1970,1.9201399,12.6748390,0.7565638,-103.2595444,105.2213745,22.0076332,1.8722562,12.3875360,8.0085640,3.1297710,-34.4580154,-41.7938919
1980,2.3941894,15.0067797,0.4453192,-105.2213745,119.2519073,35.7557259,1.4341195,12.3659887,8.2312231,19.1755733,-34.0228996,-45.0992355
1990,3.1483591,16.9005833,-0.2226596,-106.8167953,120.4198456,45.5801544,1.0175306,12.1720591,8.5257082,36.8625946,-30.4961834,-46.1297722
2000,2.9879484,17.3602676,-0.7661406,-111.4885483,101.8931274,52.6870232,0.4070122,12.0930510,8.4586716,53.9389305,-27.3816795,-46.7633591
2010,3.0238612,17.4153347,1.0151364,-100.3664093,64.0000000,63.3969460,-0.6967092,11.7746239,8.0085640,67.5114517,-34.8625946,-46.7175560
2020,4.6088147,17.1088772,3.6295912,-68.7862625,9.2366409,69.6488571,-1.2066715,11.3029680,7.3022780,77.4427490,-47.4045792,-42.3740463
2030,6.4810710,17.0322647,4.7907729,-27.2213745,-45.4274826,65.7557220,-1.0869620,11.0036945,6.4164276,85.1145020,-48.8091621,-37.7175560
2040,7.9606800,16.4337158,4.3191175,9.7328243,-82.4503784,52.8244286,-1.1396341,10.5535870,5.4850879,91.0916061,-43.3206100,-31.6106873
2050,8.2240410,15.4760408,3.5338237,31.8702297,-100.3816757,39.6412201,-1.0845678,10.0627785,4.8506279,94.2213745,-35.0992355,-22.2061062
2060,7.2687593,13.8168669,2.7245877,40.6259537,-104.6488571,30.7633591,-0.8523315,9.5001440,4.1682839,95.5572510,-27.6030540,-14.2137403
2070,6.1075773,11.9877062,2.4971397,41.0381660,-101.3129807,31.4656487,-0.4405309,8.8800488,3.5242469,95.7022934,-21.9618320,-6.2595420
2080,4.8458395,10.3069859,2.5833304,39.1984749,-94.3969498,39.7938919,-0.2585725,8.4012108,3.0597742,94.7786255,-18.0381680,-0.7557252
2090,2.1188576,5.9543490,0.7421987,53.7480927,-26.5954189,88.9083939,1.4149660,6.8809004,-0.3447633,58.2900772,-12.2519083,6.6488547
2100,0.4022238,7.4052281,-2.6264257,26.7175579,1.9236641,86.5419846,0.6440369,6.8042865,-0.6248835,37.7709923,5.4427481,8.4961834
2110,-1.6352314,7.3453732,-3.8714044,11.8396950,-1.8625954,91.9770966,0.3016679,6.7564025,-0.3160330,26.3893127,12.5801525,13.4503813
2120,-3.6271970,7.7260494,-3.6391680,10.6793890,-25.2290077,110.6793900,-0.0239419,6.8114691,-0.1316804,13.8854961,18.2519093,18.1221371
2130,-4.3717899,8.9422979,-3.1555417,30.7251911,-48.3969460,138.8473358,-0.2202654,6.7516141,0.3040621,0.5572519,17.5038166,21.6717548
2140,-3.7085996,9.4905672,-4.2472920,59.5343513,-62.8015251,170.9465637,0.0191535,6.9886389,0.5578461,-14.1145039,11.1755724,24.5190830
2150,-1.4676381,10.2495251,-6.5002246,80.3587799,-69.7175598,197.8931274,0.3830703,7.1035600,0.9385223,-29.6564884,2.0152671,24.4274807
2160,1.1707586,11.3388815,-9.4714136,82.6641235,-62.8931313,210.7786255,0.7350162,7.2400289,1.0438666,-46.1145020,-9.3206110,21.7557259
2170,3.1699069,11.9422169,-11.1904411,67.1603088,-52.9923668,212.3664093,0.8738791,7.4076223,1.2521610,-61.7404594,-21.0916023,15.0916033
2180,4.9056940,12.5742826,-11.8249016,43.1297722,-48.1374054,207.0076294,0.8714849,7.5608501,1.5873476,-77.0687027,-31.1832066,8.7099237
2190,6.2679882,12.9597473,-11.5926657,18.4198475,-52.7862587,193.1984711,0.5937590,7.6877422,2.2146254,-88.7099228,-39.5343513,5.1297708
2200,6.6678176,12.7418766,-11.0611553,-2.5419848,-65.4961853,175.0610657,0.3806761,8.1139078,2.6048782,-97.0000000,-45.1832047,3.0000000
2210,6.3637557,12.0786858,-10.5392218,-20.5190830,-80.4122162,161.7480927,0.2849085,8.4227581,3.2872221,-102.1908417,-48.1832047,3.3893130
2220,6.0477223,11.6213961,-9.7419567,-35.8396950,-94.4427490,155.3206177,0.3878587,8.7459745,3.7756367,-105.5267181,-49.4274826,5.3893127
2230,5.5257893,11.2886028,-9.2200232,-48.9923668,-102.3358765,154.9389343,0.7182568,8.9183559,4.3622131,-106.1297684,-46.4198456,8.1297712
2240,4.9056940,10.5727406,-8.5328913,-60.9618340,-105.9618301,160.6564941,1.2401901,9.2056589,5.2193332,-101.5877838,-38.8320618,10.4198475
2250,4.5657191,10.0053177,-7.9774394,-71.8015289,-105.4274826,170.9770966,1.6687500,9.2870607,6.0477223,-91.2213745,-28.2519093,10.7709923
2260,4.6997938,8.9806042,-7.8194227,-82.7633591,-103.8854980,181.7557220,2.0781565,9.3660688,6.6821828,-76.0763321,-17.1984730,9.7557249
2270,5.3246775,7.2041159,-8.1689749,-95.7251892,-101.1068726,187.4580078,2.5138988,9.5959110,6.9551206,-58.4274826,-6.6183205,6.5114503
2280,5.7508430,5.5210009,-8.5688038,-114.8778610,-92.9083939,186.5648804,2.6767037,9.7994175,7.0077925,-40.1374054,2.0839694,0.4885496
2290,6.1243367,3.1315999,-8.7316093,-140.1984711,-83.7938919,181.4961853,2.5976956,10.0843258,6.7516141,-24.0992374,7.2748094,-5.9160304
2300,6.9623032,-0.4022238,-8.4945841,-169.3206177,-80.8167953,169.5267181,2.3774302,10.4243011,6.2440462,-12.5114508,7.8244276,-11.7786255
2310,7.7068958,-4.5848727,-7.9511032,-199.3129730,-84.1984711,152.3206177,2.0829449,10.6565371,5.8106980,-5.6259542,5.7938933,-15.9541988
2320,8.6885138,-9.5552101,-6.5050125,-228.4961853,-92.0687027,133.8015289,1.8291607,10.9893293,5.1810260,-2.4198472,3.3511450,-19.2748089
2330,10.0579901,-14.3531656,-3.7325413,-250.1374054,-102.9236679,111.3969498,1.5586174,11.0970678,5.0062504,-1.8702290,0.0916031,-19.6488552
2340,12.2462788,-19.6131992,1.3359578,-250.1374054,-113.7328262,87.6488571,1.2737088,11.1329813,4.7859845,-2.1145039,-3.6793892,-18.8702297
2350,14.2741575,-19.6131992,6.7611909,-240.3053436,-81.2366409,79.8625946,1.0773853,11.0563669,4.7907729,-2.1221373,-6.5190840,-16.5038166
2360,13.0483322,-19.6131992,6.8186517,-222.5038147,0.0839695,102.1603088,1.0223188,10.7930059,4.7141590,-1.7480916,-7.2519083,-14.0610685
2370,11.3221216,-19.6131992,7.5967631,-236.6183167,76.8778610,166.2290039,1.0965388,10.4338779,4.5848727,-0.8702290,-6.9618320,-10.0763359
2380,14.1329002,-15.5861731,13.0483322,-250.1374054,116.3664093,231.7022858,1.5083394,10.0603838,4.4747400,0.5725191,-6.7328243,-7.9618320
2390,19.6126022,-8.0636301,19.6126022,-218.4427490,106.0992355,235.6412201,1.8602852,9.8281479,4.4795284,3.0152671,-7.0992365,-8.2213745
2400,19.6126022,-0.5985473,19.6126022,-128.3129730,41.6335869,156.1832123,2.0446377,9.5671806,4.3334827,5.8625956,-7.3511453,-9.3282442
2410,19.6126022,2.6264257,19.6126022,10.7099237,-16.6183205,28.3282452,1.9919657,9.5240860,4.0054789,8.0610685,-8.1679392,-10.2977095
2420,19.6126022,0.3495516,19.6126022,147.1832123,-12.5038166,-101.7557220,2.1236460,9.4522600,3.6176202,9.0610685,-9.9236641,-11.8778629
2430,19.6126022,-4.0988522,16.4313221,228.7480927,58.9618340,-206.8320618,2.1547706,9.3469152,3.1651185,8.4427481,-11.4809160,-13.0839691
2440,19.6126022,-9.5791521,4.9631548,236.6030579,134.1450348,-250.1374054,1.9129574,9.2032642,2.6120608,5.8167939,-11.7328243,-12.8854961
2450,19.6126022,-14.0131912,-2.3319404,197.9465637,195.4427490,-250.1374054,1.8602852,8.9710283,2.2529323,0.8473282,-11.3969469,-12.7099237
2460,15.4592810,-16.9676208,-7.2519999,143.7786255,241.9465637,-250.1374054,1.6687500,8.8058290,1.9584470,-6.3053436,-11.0763359,-12.8396950
2470,11.0850973,-16.4576588,-6.9623032,105.2519073,246.2900696,-250.1374054,1.4221486,8.6454182,1.9967541,-13.9465647,-9.8015270,-12.6641226
2480,9.1338329,-13.4936514,-4.5776901,95.0763321,210.2137451,-250.1374054,0.9600700,8.5041609,2.2218077,-20.3053436,-6.7022901,-12.3129768
2490,9.3493099,-10.9917240,-2.6407909,106.5190811,166.3816833,-235.8244324,0.6344602,8.4443064,2.8395088,-23.6183205,-0.2290076,-12.4427481
2500,10.1489687,-8.5688038,-3.0573800,121.0152664,146.5267181,-227.4351196,0.0837966,8.3174143,3.4548154,-22.9694653,8.1526718,-11.7480917
2510,9.3325500,-4.7931671,-4.6231799,116.7175598,155.9236603,-221.4885559,-0.4501076,8.2168579,3.9671719,-17.8396950,17.4580154,-10.3435116
2520,6.5840211,0.0407012,-6.2177100,92.7557220,180.3129730,-209.3664093,-0.8236012,8.0684185,4.2113791,-10.6717558,27.1679382,-9.1908398
2530,3.2800395,4.9200592,-6.6486640,62.5801544,199.9389343,-185.0381622,-1.2354017,8.2216463,4.3047528,-4.4503818,34.9923668,-7.6335878
2540,1.7740943,8.2144642,-5.6933827,39.8091621,203.0534363,-148.6564941,-1.6711442,8.3485384,4.1682839,-0.8778626,38.6870232,-4.0000000
2550,2.5474176,10.7666702,-4.1778607,34.2671738,191.2748108,-109.2290039,-2.0901275,8.5328913,3.9240766,-1.2061069,37.5038185,1.0152671
2560,5.0349803,13.7761660,-3.2991931,39.7938919,175.3282471,-79.0000000,-2.0159075,8.8345594,3.7900019,-4.3893127,30.5648861,8.5038166
2570,7.5512733,16.5725803,-3.2393384,43.5572510,165.3969421,-61.9083977,-1.4389079,8.9901810,3.3231349,-10.7862597,20.8015270,15.8320608
2580,9.0811605,18.8853664,-3.8378856,39.2900772,156.7480927,-54.7862587,-0.6248835,8.9925756,3.0071020,-19.2137413,10.8091602,21.7251911
2590,10.0986910,19.6126022,-3.9168940,25.7480907,149.7022858,-51.5801544,0.2059003,8.8824425,2.7988074,-28.7251911,3.9312978,25.3206100
2600,11.6429434,19.6126022,-2.6096666,15.4580154,131.5801544,-54.3816795,1.1611819,8.8489246,2.8131726,-36.7862587,0.6793893,25.2442741
2610,13.6205435,19.6126022,-0.1699875,18.7328243,100.4961853,-69.5877838,1.8890154,8.6597834,2.9975252,-41.8091621,1.5801526,24.9770985
2620,14.0323448,19.6126022,1.4939742,34.9847336,61.2748108,-92.1984711,2.4181314,8.7124557,3.4811516,-43.0228996,6.0916033,22.5954189
2630,13.0626974,18.7081966,2.6695213,57.2900772,16.4198475,-113.2595444,2.9711890,8.7651272,3.9575951,-40.7251892,13.8091602,18.2977104
2640,11.7578640,17.2764702,3.2106080,77.8244247,-19.8396950,-126.6412201,3.0741394,9.0356712,4.4986820,-35.7862587,22.4274807,12.5648851
2650,10.6469603,15.7537670,3.1292057,95.8778610,-44.2213745,-134.7938995,2.8826041,9.2655134,4.8290801,-30.2290077,29.9389305,8.3511448
2660,9.6150646,14.1472654,2.7652888,106.9542007,-55.4732819,-143.3511505,2.8395088,9.7204094,4.9727316,-25.9389305,34.4351158,5.9770994
2670,7.8122401,12.5623121,1.8124014,111.7709961,-59.8473282,-151.1526642,2.9400647,10.0579901,4.9966736,-23.6335869,35.3740463,2.7862597
2680,6.1387019,10.8001890,1.0271072,107.6717529,-58.4885483,-154.8854980,2.9328821,10.3405046,5.1642666,-23.6259537,33.5114517,-0.0839695
2690,4.6088147,8.9063845,0.7852941,99.7633591,-53.6412201,-155.9541931,2.8107784,10.6038647,5.4443870,-24.4809170,28.4503822,-3.2824428
2700,2.9233053,7.3046722,0.8762733,91.8854980,-48.9694672,-153.7099304,2.5976956,10.6756907,5.8681583,-24.8931293,21.4885502,-6.2213740
2710,0.7398046,5.7508430,1.1348459,88.8625946,-50.0305328,-145.8473358,2.6886747,10.7954006,6.2248926,-23.7862587,14.8320608,-9.2290077
2720,-0.9959828,4.6471219,1.6687500,91.4809189,-61.3664131,-131.4580078,2.7461352,10.9582052,6.7276726,-19.5954189,10.7862597,-12.9541988
2730,-2.2577207,3.6463506,2.2265961,99.6259537,-78.1297684,-112.2595444,2.7054341,11.1234045,7.1705976,-12.8167934,9.6259546,-16.4427490
2740,-2.9137285,3.0980811,2.4899571,110.2061081,-92.7480927,-91.6259537,2.5976956,11.3484583,7.2615767,-4.9236641,9.8625956,-17.6564884
2750,-3.3351059,2.3846128,2.2218077,120.8091583,-97.7251892,-71.1526718,2.3079987,11.5447817,7.4890246,2.9618320,10.0839691,-17.8549614
2760,-3.6726866,2.0015423,1.5346755,125.0076370,-93.3664093,-50.1832047,2.0709739,11.5639353,7.6207051,10.5114508,10.1526718,-16.8244267
2770,-3.6942344,1.7046629,0.8643024,120.9312973,-82.9312973,-29.1221371,1.9345051,11.5160513,7.7523856,17.7328243,10.1374044,-13.8702288
2780,-3.5984666,1.6208663,0.0407012,108.6030502,-66.7404556,-9.5038166,1.8794388,11.3556404,7.8385763,25.9541988,9.3816795,-12.4732828
2790,-3.3422885,1.5801650,-0.0311245,91.5648880,-48.0458031,7.1679387,1.7669119,11.1736822,7.9104018,33.6641235,8.5572519,-11.6641226
2800,-3.1196289,1.6088953,-0.1723816,72.2671738,-29.6183205,20.5801525,1.5442522,11.0060892,7.7882981,41.3587799,7.9923663,-11.5877867
2810,-2.7868366,1.7980363,0.1556223,52.7022896,-11.6641226,30.8396950,1.2401901,10.8337069,7.6757712,48.7786255,6.5496182,-11.1221371
2820,-2.2960277,1.9249283,0.6799498,37.2290077,4.1908398,36.9923668,0.8020535,10.6661139,7.4100165,54.9847336,4.2977099,-9.5190840
2830,-1.0845678,2.6455793,0.8906385,22.8015270,31.2137413,32.1297722,0.3088504,10.0939026,6.7611909,64.1221390,-1.5038168,-0.4656489
2840,-0.3663110,2.8873925,0.3902529,13.7404585,46.7862587,23.9618320,0.2992737,9.6844959,6.3446021,66.7480927,-4.5725193,4.1908398
2850,0.9145803,3.8091555,0.1699875,4.5725193,67.2977066,12.1450386,0.3878587,9.1841106,5.9878678,68.2900772,-7.9618320,9.0305347
2860,1.8291607,4.3693957,-0.3710994,-2.4961832,89.9542007,-5.2137403,0.4548960,8.6526003,5.3965030,68.5954208,-11.0381680,12.4122133
2870,1.4796091,4.7165532,-1.4269369,-12.5572519,99.0610657,-24.2977104,0.3710994,8.0085640,4.8769641,68.0381699,-15.3511448,15.4045801
2880,0.2106887,5.2360926,-2.1427996,-23.6335869,99.9236679,-31.1374054,0.3423691,7.4315639,4.0150557,65.9847336,-19.9465656,19.2900772
2890,-0.3663110,6.0381460,-2.1068866,-27.1679382,91.6259537,-23.2519093,0.5339043,6.9359670,3.2225790,60.8854980,-23.8854961,23.0763359
2900,0.1891410,6.6390872,-2.5713594,-22.9389305,77.4961853,-8.7938929,0.7948709,6.5098009,2.4324965,52.2824440,-27.5725193,26.1526718
2910,1.3718705,7.6518297,-3.3877780,-18.0152664,68.0229034,6.2900763,1.0845678,6.0381460,1.8267666,41.8473282,-31.0534344,29.0534344
2920,2.6216373,9.7371683,-4.3071470,-21.5496178,71.9160309,18.5648861,1.4580613,5.5210009,1.5514348,31.1832066,-32.0381660,29.9770985
2930,3.1459649,11.9493999,-4.3358769,-29.6946564,86.8396912,24.6946564,1.8483143,5.1403246,1.3239868,20.7557259,-28.6793900,28.6106873
2940,1.0486550,15.6675758,-3.6774750,-35.3893127,105.2824402,30.5496178,2.1044924,4.8171091,1.4125718,10.5267172,-22.2290077,24.3358784
2950,1.3910241,17.6523590,-1.5873476,-32.2137413,98.3129807,39.3129768,2.1451938,4.8075323,1.6998745,0.5877863,-14.1984730,19.1145039
2960,3.9647777,17.0035343,-0.1268920,-14.3893127,78.2595444,28.8091602,1.7381816,4.8506279,2.0925217,-9.1679392,-6.8015265,13.6030531
2970,4.5250182,16.8048153,0.5003856,8.5267172,66.1603088,8.3511448,1.2114599,4.8290801,2.8490853,-16.9618320,-3.2748091,11.5419846
2980,3.6942344,12.5575237,-2.9831600,32.0534363,5.2213740,10.4351149,0.0550664,6.0572991,3.9336534,-34.3435097,-12.2671757,3.9847329
2990,3.8450682,11.3771887,-2.7581062,33.3511467,-6.2900763,9.0458012,0.7206510,6.2703824,4.0054789,-35.2137413,-15.0687027,0.0534351
3000,3.7181761,10.4410601,-2.6814921,36.5267181,-16.1145039,7.6259542,0.6224893,6.6486640,3.5290353,-38.1755714,-14.0839691,-2.3893130
3010,3.5290353,9.5456333,-2.6000898,40.3129768,-25.8167934,5.6793895,0.5362985,7.4028339,3.0142846,-45.4732819,-14.3740454,-3.0610688
3020,4.1922259,7.9870162,-2.0326669,51.4885483,-19.6717548,-3.6946564,0.2944853,7.8170285,3.4308734,-53.2290077,-15.9847326,-3.3206108
3030,3.7109938,8.0660238,-1.6184721,56.4503822,-34.9007645,-9.7557249,0.2154770,8.4395180,3.8163381,-58.7480927,-15.9160309,-1.8244275
3040,4.3263001,8.0061693,-1.6041069,56.4427490,-37.6717567,-6.2748094,0.4141948,9.0189114,4.0940638,-61.7557259,-14.8549614,0.2519084
3050,5.3007355,7.8649125,-1.6831152,54.3511467,-20.2595425,2.5496182,0.4860204,9.3253679,4.4795284,-63.5419846,-14.2519083,1.7404580
3060,3.7181761,7.9918046,-2.5426292,24.0000000,43.4351158,34.1450386,2.0613971,10.3189564,5.1163831,-56.5419846,-6.7709923,7.1984735
3070,2.8323262,7.8433647,-2.9448531,-5.4274807,96.8396912,50.2824440,3.1627243,10.9438400,5.3462253,-49.7175560,5.8015265,-2.9618320
3080,1.6543850,7.7787213,-3.1004753,-18.0839691,110.4580154,64.3969498,3.1507533,11.1736822,5.8322453,-46.1603050,10.1526718,-9.1450386
3090,0.7613522,7.6566176,-2.9711890,-25.7404575,99.4198456,83.5267181,3.2082138,11.6046362,6.4762826,-40.4809151,12.4351149,-15.4427481
3100,1.0247130,7.7930865,-2.2696917,-22.1908398,75.2824402,104.9618301,2.7724714,11.4442253,6.7971039,-34.2671738,12.1450386,-19.7404575
3110,2.0063307,8.9806042,-2.0973101,-5.0076337,52.3664131,120.9847336,2.6838863,11.3173332,7.4531116,-25.5877857,7.8320613,-24.9389305
3120,2.2409613,10.4099360,-2.1715298,19.2671757,35.0305328,133.7709961,2.6000898,11.1497402,7.8912482,-14.3206110,3.1755726,-31.4656487
3130,2.6336083,10.9222927,-2.7820482,42.3053436,11.4351149,138.4503784,2.2457497,11.0659437,7.8026633,-2.3206108,-0.3053435,-35.8244286
3140,2.8323262,11.0443964,-3.9049230,60.1145020,-15.3511448,133.5954132,1.9416877,10.9007444,7.6661944,9.0763359,-2.6030533,-38.9618340
3150,1.7693061,11.5998478,-4.9775200,70.5267181,-41.4885483,131.3587799,1.5250987,10.6948442,7.5728211,19.2748089,-3.9160306,-39.0534363
3160,0.5913648,12.4856977,-5.5353661,72.5114517,-63.1068687,141.0152740,1.0342898,10.4626083,7.2998838,28.1526718,-3.7480917,-37.6641235
3170,0.3471575,13.2997227,-5.4276276,71.3053436,-73.2671738,155.3816833,0.6703730,10.1872759,6.9455438,35.5725174,-2.8244274,-34.8473282
3180,1.2018831,13.5846310,-5.8681583,70.8244247,-76.0610657,162.3664093,0.2298422,9.8760319,6.6271162,41.1297722,-2.4198472,-29.8473282
3190,1.5681942,13.4840746,-6.9192076,70.4122162,-77.8778610,161.3587799,-0.0718257,9.5145092,6.3613615,44.8244286,-2.5419848,-23.5572510
3200,0.8930327,13.0483322,-7.8194227,67.8778610,-83.7328262,161.6183167,-0.2082945,9.1960821,6.0525107,47.0305328,-4.0916033,-19.0000000
3210,-0.2059003,12.2965574,-8.4155760,66.7709961,-95.2748108,169.7557220,-0.2825144,8.8249826,5.5018473,48.0228996,-7.6564884,-14.3053436
3220,-1.4484847,11.2550850,-8.5448618,68.4198456,-107.9465637,189.1832123,-0.2178712,8.8632889,5.1882086,48.3511467,-11.1832066,-12.5343513
3230,-1.3335636,9.8760319,-8.6980906,70.1984711,-117.0992355,215.4122162,-0.4812321,8.6478119,4.8985114,48.0076332,-14.2900763,-9.1679392
3240,-0.9073978,9.2080526,-8.6813307,72.7480927,-108.8549652,238.5038147,-0.3495516,8.6262646,4.3933377,45.8931313,-17.8320618,-6.8931298
3250,-0.6368544,8.8082228,-8.7411861,71.9770966,-92.5190811,250.1297760,-0.1436514,8.6621771,3.9552009,42.5801544,-21.6183205,-3.7099237
3260,0.4118006,7.8936424,-8.4131813,69.1145020,-80.9542007,250.1297760,0.0478838,8.8321648,3.4859397,36.7480927,-22.8015270,-0.1679389
3270,1.9249283,7.6805596,-8.5879574,63.7557259,-64.1374054,250.1297760,0.1412572,8.7794924,3.0430148,29.1679382,-21.1908398,2.9236641
3280,2.8323262,7.0508881,-8.4203644,49.4122124,-47.1603050,250.1297760,0.2346306,8.7507620,2.9879484,22.1450386,-18.1603050,6.9312978
3290,3.8067613,5.3151007,-7.6111283,30.8931293,-37.4427490,240.2137451,0.2513899,8.6909075,3.1699069,14.4580154,-13.0839691,9.7938929
3300,4.5322008,3.8211265,-5.7436604,19.7251911,-38.4580154,207.0076294,0.2154770,8.4921904,3.3973548,7.9847326,-8.4961834,14.0229006
3310,4.9799142,1.4604555,-3.0908985,19.5725193,-49.8244286,163.2671814,0.3064562,8.4059992,3.4979107,2.3664122,-5.9618320,17.7328243
3320,6.6295104,-1.3191984,-0.8068419,29.3587780,-74.6564865,117.3664093,0.6224893,8.4754305,3.5457945,-2.7175572,-4.2977099,21.6488552
3330,10.5895004,-4.1180058,2.5976956,44.5725174,-106.6259537,64.0076370,1.0965388,8.4490948,3.6511390,-8.4274807,-3.2442749,24.1068707
3340,15.4616756,-6.3829093,6.6917596,59.9618340,-105.6412201,-1.1755725,1.5777708,8.4443064,3.7157819,-14.0152674,-3.0610688,22.8167934
3350,19.6126022,-9.7970228,9.7323799,61.9694672,-73.0152664,-67.1145020,1.7812769,8.4395180,3.9935081,-19.8244267,-4.4961834,21.5648861
3360,19.6126022,-15.1767673,12.5240049,40.1374054,-2.8015268,-117.9465637,1.8914096,8.4371233,4.3741841,-24.1145039,-5.9160304,19.7862587
3370,19.6126022,-19.6131992,13.3452120,3.5496182,162.0686951,-134.6259613,2.0422437,8.4395180,4.6543045,-27.0229015,-7.5801525,18.8854961
3380,19.6126022,-19.0433826,10.1322098,-19.3435116,250.1297760,-71.8320618,2.2242019,8.4299412,5.0421629,-27.2671757,-9.0305347,16.4809170
3390,13.9964314,-9.9095497,7.6997132,-14.9389315,250.1297760,79.4809189,2.2936335,8.4107876,5.2552457,-25.2824421,-10.2366409,12.7786255
3400,13.7474356,3.8953462,6.6965480,25.7862587,250.1297760,240.0229034,2.4348907,8.5376797,5.5186067,-20.7862587,-11.0152674,8.4885492
3410,19.6126022,16.3690739,6.1315193,86.8931274,26.7862587,250.1297760,2.2457497,8.6526003,5.4156566,-15.8396950,-11.5190840,4.9160304
3420,19.6126022,13.3308468,3.8235207,134.9847260,-147.0152740,137.8396912,1.9991482,8.7914639,5.2863703,-11.3969469,-12.2519083,2.7633588
3430,19.6126022,7.0245519,1.3742647,96.6412201,-250.1374054,-216.7099304,1.8674678,8.8776541,4.9775200,-8.1374044,-12.6717558,1.7251909
3440,19.6126022,4.2712340,5.6478930,12.0763359,-250.1374054,-250.1374054,1.7717001,8.9422979,4.6734576,-6.5877862,-12.3282442,2.2519083
3450,19.6126022,-6.9623032,8.7459745,-64.0763321,-175.8167877,-250.1374054,1.7693061,9.0596132,4.4005203,-6.7786260,-11.4885492,2.1374047
3460,17.9803619,-13.8096848,6.3374195,-112.5725174,-21.8625946,-250.1374054,1.8100072,9.1098909,4.2520804,-7.8625956,-10.7099237,3.8931298
3470,11.2431135,-14.1233234,5.2360926,-126.2137375,88.5877838,-250.1374054,1.9895715,9.1577749,4.2089849,-9.2824430,-9.5572519,5.1755724
3480,7.3956513,-11.6285782,3.6152260,-102.3206100,113.6259537,-250.1374054,2.3079987,9.0428534,4.0413918,-10.7404585,-8.8015270,5.3053436
3490,6.9335728,-9.1194677,1.5346755,-58.0076332,93.7709961,-220.0152740,2.4516499,8.9949694,4.0964580,-11.7709923,-8.0305347,3.0763359
3500,7.7882981,-6.6941538,-0.1053443,-9.0916033,52.9541969,-182.6106873,2.5689652,8.9399033,4.1060348,-12.6183205,-7.2442746,1.6870229
3510,7.3669209,-4.5393834,-3.2896163,30.9618320,15.5572519,-170.5114441,2.5976956,8.9422979,4.0892754,-12.8931293,-5.6335878,-0.2595420
3520,6.5624733,-2.6599445,-6.8282285,45.4351158,-6.8854961,-160.7938995,2.5378408,8.9566631,4.1012464,-13.4503813,-3.5496182,-2.5572519
3530,5.7676024,-0.8140244,-8.9255381,32.1221390,-5.5496182,-142.2137451,2.3319404,8.9494801,4.1515245,-13.7786255,-1.6641221,-5.2061067
3540,5.1834202,1.2761030,-10.0651722,13.7404585,12.0229006,-116.7404556,1.9440818,8.9063845,4.2472920,-13.8549614,0.7480916,-5.9923663
3550,5.2408805,2.8035958,-11.9924946,-5.1374044,41.6183205,-89.2137375,1.4221486,8.9351149,4.3813667,-13.9236641,3.6106870,-6.7786260
3560,5.6598639,5.4036856,-14.3579540,-35.5877876,72.7709961,-66.9847336,0.9313397,8.8824425,4.6495161,-13.1374044,7.2900763,-6.8931298
3570,6.4858594,8.2551651,-15.1097298,-72.0687027,95.8854980,-59.6488533,0.2968795,8.7148495,4.9009056,-10.8091602,12.2366409,-6.2824426
3580,7.1682034,9.6030941,-14.8224268,-103.7480927,95.5267181,-66.0916061,-0.3519458,8.5328913,4.9966736,-6.5038166,18.2977104,-5.3358779
3590,8.4897957,10.2614956,-13.6588507,-128.8702240,80.6564865,-80.5572510,-0.9145803,8.3557215,5.0541339,-0.6717557,24.7251911,-2.2213740
3600,10.0484133,10.7379398,-11.4873209,-145.8167877,62.6259537,-97.9694672,-1.3096216,8.1641865,4.7979555,4.7251906,30.5190830,0.3435115
3610,10.5799236,11.7363167,-10.0795374,-154.9770966,57.4274826,-114.4122162,-1.5945302,8.0779953,4.6710634,8.3511448,35.5038185,1.3969465
3620,9.6222477,12.6556854,-8.4610653,-159.5801544,55.8320618,-127.7786255,-1.9560528,8.0684185,4.3574247,10.6717558,38.3969460,2.0763359
3630,7.5153608,13.2446556,-6.5050125,-156.9618378,42.8091621,-139.0610657,-2.2002602,8.1450329,4.1012464,10.7328243,40.7557259,6.0839696
3640,5.4946647,13.4266148,-4.4723458,-144.3664093,17.6717548,-146.9923706,-2.4564383,7.9534974,3.5721307,6.6870227,38.3053436,10.4809160
3650,4.3406653,13.2877512,-2.5450234,-123.8091583,-15.4198475,-149.7251892,-2.1308286,7.9151902,2.9616125,-0.8931298,29.0152664,15.7557249
3660,3.5362179,13.7210999,-0.7757174,-98.3664093,-40.3206100,-146.8625946,-1.1180865,8.0803890,2.4444675,-11.6793890,18.0534344,19.5801525
3670,2.7557120,14.0299501,-0.6392486,-74.0610657,-49.9007645,-135.7786255,0.1005560,8.3174143,2.0853391,-25.7633591,9.3206110,21.9847336
3680,2.7341642,14.3148584,-1.2258250,-59.2671738,-47.8702278,-123.4198456,1.1204807,8.3245964,1.8818330,-41.0000000,2.9847329,22.2900772
3690,2.9520357,14.6141329,-1.0055596,-51.6717567,-45.8473282,-119.2061081,1.8770446,8.3365679,2.1499822,-54.4656487,-0.7633588,21.4122143
3700,2.8203552,14.4585104,-0.3399749,-42.3282433,-43.7709923,-123.8625946,2.7940190,8.4251528,2.7605004,-63.1832047,0.9465649,18.3893127
3710,2.0949159,13.6205435,0.4213773,-29.1679382,-42.4732819,-129.9236603,3.1148405,8.4706421,3.6607156,-66.5343475,6.3740458,14.4427481
3720,0.9145803,12.6700506,1.1683644,-12.9847326,-47.5801544,-129.1755676,2.9233053,8.4323349,4.6758518,-63.5419846,12.5267172,9.6106873
3730,-0.2178712,11.9996777,1.9081690,8.3893127,-61.6106873,-118.4580154,3.0118904,8.5879574,5.4443870,-56.1145020,17.6030540,5.2366414
3740,-0.7781116,11.0611553,2.5498118,35.7404594,-80.0152664,-103.7709961,3.1794837,9.0907373,5.8897061,-47.1755714,23.1755733,-0.2442748
3750,-1.1707586,10.0053177,2.7533178,70.4351120,-103.3206100,-90.2977066,3.1100521,9.4570484,6.0261750,-39.7786255,29.8473282,-4.7633586
3760,-1.3982066,9.3469152,1.9632354,105.0610657,-125.4503784,-76.4961853,2.8634505,9.8425131,6.1267309,-33.9847336,34.5419846,-7.2519083
3770,-1.4341195,8.8201942,0.4572902,126.0534363,-143.4809113,-61.5419846,2.7174051,10.2064295,6.4571290,-29.3358784,36.2671738,-8.3435116
3780,-1.3886299,8.4802189,-0.9792235,134.4580078,-150.9313049,-47.0305328,2.5617826,10.4434547,6.7516141,-25.6335869,35.7480927,-9.6793890
3790,-1.1875180,8.0181408,-1.6807210,133.6030579,-150.2748108,-35.3206100,2.3247581,10.5631638,6.8832946,-22.8473282,33.1450386,-11.0229006
3800,-0.7924767,7.6063399,-2.1044924,126.3053436,-143.7022858,-28.9770985,2.2816625,10.7690639,7.0389171,-20.3816795,28.3816795,-10.8702288
3810,-0.6033357,7.0915890,-2.3463056,115.0229034,-131.7480927,-27.6793900,2.2026544,10.8911676,7.2639709,-18.8549614,22.5648861,-9.5648851
3820,-0.4692611,6.5864153,-2.4420733,101.9160309,-115.8778610,-30.8244267,2.1595588,10.7930059,7.4866304,-18.0381680,17.1755733,-8.3816795
3830,-0.7038917,5.9854736,-2.5498118,87.5801544,-99.1984711,-36.9160309,2.1667414,10.7618818,7.6614060,-17.2748089,11.9618320,-5.3282442
3840,-1.2162483,5.3246775,-2.4708035,72.8625946,-85.8854980,-44.3587799,2.3558824,10.5416164,8.0995426,-15.2213745,8.4427481,-3.0458016
3850,-1.7501525,4.8434453,-2.3223639,58.6717567,-75.3664093,-48.4885483,2.5593886,10.3500814,8.7196379,-9.7175570,6.3282442,-1.3969465
3860,-2.2050486,4.3861551,-2.0422437,45.7328262,-69.1908417,-48.5877876,2.7006457,10.2806492,9.1338329,-1.2748091,5.6183205,-0.4885496
3870,-2.6264257,3.8139439,-1.5538290,36.3587799,-67.3816757,-45.4961815,2.4277081,10.1130562,9.5528164,8.9541988,2.9007633,-0.5343512
3880,-2.6934631,3.3542595,-0.8906385,31.1374054,-69.4274826,-39.8396950,2.3247581,9.9167328,9.6821022,20.5954189,-1.1297710,-0.5877863
3890,-2.6934631,2.7006457,-0.3160330,28.4274807,-70.8778610,-31.2137413,2.2864509,9.8927908,9.5887289,32.5419846,-5.2671757,-0.3358779
3900,-2.6096666,2.7054341,0.1963235,27.8931293,-67.6335907,-19.9312973,2.1308286,9.8353300,9.2056589,42.9389305,-8.1145039,-0.9389313
3910,-2.3894010,2.5019281,0.6703730,29.5954189,-62.9618340,-8.2061071,1.9560528,9.7204094,8.8225880,51.1603050,-10.4961834,-1.4427481
3920,-2.1547706,2.3127871,0.5315101,32.2748108,-55.9007645,6.6412215,1.6376256,9.6174593,8.2934723,57.5572510,-13.1145039,-1.2137405
3930,-1.5897418,2.1906834,0.5315101,38.3358765,-36.3282433,22.1526718,1.2497669,9.5480280,7.8768835,62.4045792,-13.9770994,0.4122137
3940,-0.6105183,2.4755919,0.2418131,43.9312973,-22.8167934,37.4351158,0.9672526,9.6030941,7.5440907,65.9465637,-15.1908398,1.3129771
3950,0.9361281,2.9664006,-0.1699875,45.2748108,4.9923663,52.6183205,0.6009415,9.4762020,7.0676475,68.1679382,-16.6641216,4.7557254
3960,1.6663558,4.7428894,-0.1628049,37.5267181,76.4732819,91.5267181,0.3303981,9.1577749,6.3206601,68.4656525,-18.9770985,14.0610685
3970,1.1372399,5.8130918,-0.6464311,40.7633591,91.1145020,111.4809189,0.3040621,8.9255381,5.9663200,67.2748108,-20.7404575,19.2213745
3980,1.6041069,6.2991123,-1.2928623,46.0458031,94.4351120,118.1908417,0.3591284,8.6765423,5.6431046,66.0305328,-23.7022896,22.6793900
3990,3.0549858,6.6462698,-1.9464760,54.0381660,90.6183243,95.4503784,0.3974355,8.4179697,5.2863703,64.6564865,-25.3129768,26.2900772
4000,4.1156116,7.3956513,-2.8754215,54.9923668,71.0687027,48.8854980,0.6607963,8.0492649,4.8386569,62.2061081,-25.4580154,28.9312973
4010,3.0454090,8.3341732,-5.6454988,31.5419846,44.7404594,-18.1145039,1.0821736,7.3310080,4.2855992,56.9541969,-20.2061062,35.9083977
4020,2.4372849,8.5089493,-7.0125809,11.3053436,64.3816757,-30.0076332,1.4149660,6.9982157,3.9623835,54.1145020,-15.8931293,38.5496178
4030,0.9840119,9.4570484,-8.8154058,-14.4809160,91.6183243,-33.4503822,1.7477583,6.6678176,3.5793133,50.8473282,-11.0534353,39.5419846
4040,-1.4772149,10.3237448,-10.7786407,-42.1450386,100.5725174,-29.9847336,2.0087249,6.3589673,3.4284792,47.1221390,-6.2442746,40.0076332
4050,-3.1196289,11.0827026,-12.1122046,-74.5801544,81.9389343,-19.4503822,2.2792683,5.9328012,3.1172347,40.3053436,-1.6793894,38.9236641
4060,-4.0916696,11.1186161,-11.9326401,-101.5725174,46.0916023,-2.6488550,2.6216373,5.7412663,3.2752512,37.4809151,1.5114504,36.0992355
4070,-4.6016321,10.5344334,-10.5966825,-113.4427490,7.6106873,19.8931293,2.7844424,5.7101417,3.2369442,31.2595425,4.5267177,30.2748089
4080,-4.2784166,10.1417866,-8.7723103,-108.4274826,-21.2442741,48.9007645,2.7245877,5.4036856,3.0693510,26.5572510,3.9847329,26.0534344
4090,-3.1507533,10.4697905,-6.6295104,-87.6335907,-38.6717567,77.7633591,2.8610563,5.4826937,3.1363883,21.1679382,4.7328243,21.4656487
4100,-2.1547706,11.1449518,-5.0708933,-52.2671738,-44.5572510,99.0229034,2.9735832,5.4228392,3.1076579,15.5343513,3.6183207,15.6335878
4110,-1.5514348,11.6046362,-5.1786318,-14.3740454,-43.9007645,110.8167953,2.9472473,5.5664907,2.8682389,7.4122138,-0.1221374,8.5572519
4120,-0.5434810,11.5423870,-6.3733325,17.0458012,-38.3129768,115.8320618,3.1100521,5.6766233,2.8490853,-1.8396946,-6.0381680,1.7099236
4130,0.5123565,11.6453371,-7.9798336,36.9541969,-24.9694653,114.9312973,2.9831600,6.0333576,2.9137285,-12.1221371,-12.5267172,-5.2595420
4140,1.1731528,11.2431135,-9.8736372,38.6717567,-3.2595420,112.8167953,2.8275378,6.3206601,3.0047078,-21.8015270,-18.7404575,-12.0381680
4150,1.5873476,11.0611553,-11.4370432,26.9389305,20.1984730,108.5877838,2.6886747,6.8425937,3.2537034,-29.9312973,-23.3969460,-16.8473282
4160,1.3479286,11.2933912,-11.9829178,7.9770994,38.1221390,103.1374054,2.4636209,7.2783360,3.5457945,-36.6946564,-25.6641216,-19.5725193
4170,0.7086801,11.1856527,-11.7913828,-10.3358774,41.0534363,96.7786255,2.2409613,7.9606800,3.7062054,-42.9541969,-26.4961834,-22.0381680
4180,-0.1723816,10.8791971,-10.7546988,-20.9770985,31.8702297,92.5648880,1.3120158,7.8912482,4.4531922,-44.3587799,-30.5038166,-19.9389305
4190,-1.1994889,10.2567072,-9.4115591,-19.6030540,16.1221371,93.6793900,1.9464760,8.7196379,4.9703374,-40.0458031,-27.1908398,-23.7328243
4200,-2.0709739,9.3947992,-8.5688038,-10.4274807,4.7862597,102.4809189,1.4987626,8.8896255,5.2121506,-31.7862587,-21.7938938,-29.1068707
4210,-2.7605004,8.7914639,-8.4682484,0.3282443,-0.9083970,119.3358765,1.0606259,9.3038206,5.2049680,-24.1145039,-16.0687027,-28.9618320
4220,-4.0749106,8.3126259,-8.8872309,6.7404580,-6.5725193,142.5267181,0.9480990,10.0029240,5.1570840,-15.7633591,-9.8473282,-27.0000000
4230,-4.8362627,8.0253229,-9.3373384,7.7022901,-14.5648851,174.6488495,0.8116302,10.3045912,4.9487896,-8.7862597,-2.2595420,-24.4961834
4240,-5.5521255,7.4387465,-10.1609402,3.4122138,-20.6488552,210.6641235,0.8020535,10.4673967,4.6830344,-4.7938933,3.4656489,-22.7328243
4250,-6.0309634,6.1650376,-10.6158361,-9.2061071,-26.1984730,250.1297760,0.8643024,10.5057030,4.7668314,-1.6946565,8.3511448,-22.2671757
4260,-5.6454988,5.3007355,-10.2016411,-22.4045811,-33.6030540,250.1297760,0.6248835,10.5751352,4.8865409,1.5419847,12.0839691,-22.3664131
4270,-4.7620430,3.9240766,-9.2032642,-30.9389305,-46.0152664,250.1297760,0.4094064,10.5248566,5.0996237,6.6106873,14.3282442,-20.7557259
4280,-2.5043221,3.1435707,-8.1354561,-29.4503822,-55.2061081,250.1297760,0.3663110,10.4554253,4.9272418,11.0687027,16.2671757,-19.0152664
4290,0.5578461,2.3367288,-6.9407554,-16.7022896,-60.1145020,250.1297760,0.4620786,10.3237448,4.7668314,15.4198475,17.3816795,-16.9083977
4300,2.9256995,1.2856797,-6.6917596,-4.2977099,-56.0000000,250.1297760,0.4860204,9.9478569,4.3717899,17.7633591,17.8931293,-14.0458012
4310,4.7979555,0.2513899,-6.9383612,-1.5419847,-48.1526718,250.1297760,0.5362985,9.8640604,4.1515245,18.6259537,19.8396950,-12.9923668
4320,6.2895355,-0.9983770,-7.0580707,-12.4580154,-44.9618340,250.1297760,0.3208214,9.5623922,3.9815371,17.6488552,22.0229015,-11.0687027
4330,7.3645267,-2.7820482,-6.6678176,-35.5725174,-54.7938919,250.1297760,0.3327923,9.3636751,3.8929520,16.5954189,25.2595425,-8.6488552
4340,9.3133974,-5.5018473,-5.1570840,-63.9694672,-80.0763321,250.1297760,0.2920911,9.1194677,3.9552009,15.6335878,29.0229015,-6.9770994
4350,12.8256731,-9.3253679,-2.0829449,-88.8931274,-109.0457993,196.9007568,0.2250538,8.9829988,3.9456241,14.3664122,32.8549614,-5.7099237
4360,15.8327751,-13.5223818,1.7908537,-102.7786255,-110.2061081,141.6335907,0.0430954,8.9901810,4.2305326,13.7633591,35.1145020,-3.5114503
4370,19.1056328,-17.2118282,7.4100165,-103.1374054,-67.2977066,93.6793900,-0.0335187,8.7651272,4.2089849,12.1679392,36.9236641,-0.5801527
4380,19.6126022,-19.5437679,11.6405487,-84.8244247,28.2519093,69.9160309,0.0047884,8.8872309,4.0701222,9.2366409,37.9160309,2.9389312
4390,19.6126022,-19.6131992,11.9517937,-72.0381699,165.6183167,82.9007645,0.0742199,8.5927458,4.0892754,5.4045801,37.6641235,5.5648856
4400,19.6126022,-16.6444054,11.4059181,-104.1908417,250.1297760,135.5038147,0.1244979,8.4371233,4.3334827,0.0916031,36.7557259,7.6335878
4410,17.2884426,-7.9439206,16.1631737,-157.9313049,245.6946564,239.7251892,0.3112446,8.2024927,4.5681133,-4.4961834,35.1374054,8.7404585
4420,18.1120434,0.5147507,19.6126022,-143.5038147,82.2290039,250.1297760,0.5937590,8.2048874,4.6183915,-8.6717558,33.0763359,9.2595415
4430,19.6126022,0.8475431,19.6126022,-24.7786255,-74.0457993,250.1297760,0.8475431,8.2671366,4.6806402,-13.1374044,31.0610695,8.1908398
4440,19.6126022,-1.7908537,19.6126022,150.6488495,-73.2977066,147.0839691,0.9121862,8.0779953,4.9990678,-15.7251911,27.9541988,7.1450381
4450,19.6126022,-6.1530671,19.6126022,250.1297760,-13.0763359,-128.7404633,1.1492109,8.1402445,5.1451130,-17.5801525,26.0381680,4.5038166
4460,19.6126022,-12.2151546,10.8696203,250.1297760,28.9770985,-250.1374054,1.2330076,8.2360115,5.2241216,-17.6412220,24.7099228,2.6259542
4470,19.6126022,-17.1830978,-1.8195840,250.1297760,62.7938919,-250.1374054,1.2282192,8.4395180,5.1570840,-16.9160309,24.6412220,1.4198474
4480,8.4634600,-18.7153797,-11.2335367,212.4809113,91.8320618,-250.1374054,1.3120158,8.6621771,5.0421629,-16.4656487,26.0381680,0.2061069
4490,-1.0821736,-14.5111818,-14.5997677,125.1526718,96.6870193,-250.1374054,1.2641320,8.9446917,4.8338685,-17.6412220,27.1450386,0.5801527
4500,-6.2871413,-11.3795824,-12.5718889,64.5877838,61.2213745,-250.1374054,1.2138541,9.1481981,4.6973996,-21.3893127,26.8244267,3.4961832
4510,-4.1994085,-8.0277176,-10.3644457,46.6793900,-7.8473282,-180.2595367,1.2593436,9.2918491,4.6040263,-26.1526718,25.3129768,8.9160309
4520,-0.5817881,-5.7915444,-9.1601686,49.4580154,-62.5954208,-131.6946564,1.5777708,9.2631187,4.8530221,-31.8091602,23.3053436,13.8854961
4530,2.6551561,-3.0166788,-9.2008705,52.3511467,-92.8396912,-115.6641235,1.9225341,9.1841106,5.0924411,-35.6335869,21.5114498,17.5496178
4540,4.2089849,-0.5386927,-10.2830439,42.5419846,-89.1450348,-115.3816757,2.5402350,9.0715837,5.3151007,-37.0152664,18.7862587,19.5267181
4550,4.8697815,1.6304430,-11.8057480,17.4885502,-50.9007645,-117.8396912,2.9664006,9.0093346,5.7412663,-35.1755714,16.1603050,19.5267181
4560,5.0684991,3.5457945,-13.1321287,-16.4732819,3.2442749,-119.6335907,3.4500270,9.1051025,5.8825235,-31.1526718,12.6488552,17.2900772
4570,4.6566987,5.2911587,-14.6907463,-50.3893127,60.3282433,-119.4809189,3.8402798,9.2559366,5.8992829,-25.5648861,8.1755724,13.8320608
4580,4.7069764,6.0357518,-15.8854465,-81.5114517,105.5114517,-117.2824402,4.2903876,9.4953556,5.8202744,-19.2671757,3.4503818,10.4045801
4590,5.2217274,6.4379754,-16.2469692,-109.8244247,127.2290039,-116.6870193,4.4771342,9.6844959,5.5233951,-14.0381680,0.4274809,7.4809160
4600,6.0261750,6.8473821,-15.7058830,-132.1145020,128.7251892,-120.3053436,4.5872669,10.0532017,5.1475072,-10.3129768,-1.9160305,5.8625956
4610,7.0772243,7.4459291,-14.1903610,-151.0076294,121.1984711,-129.4809113,4.6351509,10.1705170,4.8937230,-9.3206110,-3.7099237,5.4274807
4620,7.5297260,8.1258793,-12.0188313,-165.0839691,119.3053436,-140.8473358,4.5513539,10.1872759,4.7213416,-10.8473282,-4.9236641,6.0992365
4630,7.6901364,8.7555504,-9.9957409,-174.0458069,123.1145020,-147.8473358,4.4771342,10.1250277,4.8793583,-13.1374044,-6.9389315,7.4351144
4640,7.7068958,9.1218615,-8.3485384,-178.9084015,131.0686951,-149.5801544,4.3143296,9.9622221,5.2983413,-14.5343513,-9.8320608,7.8473282
4650,7.9702568,9.7323799,-6.2009506,-178.3358765,136.4503784,-149.0992432,4.1874375,9.7419567,5.7125359,-14.0687027,-13.5038166,9.0916033
4660,8.2695303,10.6852674,-4.2736282,-171.6412201,137.5725250,-146.8778687,4.3526363,9.5169029,5.9351954,-12.3893127,-17.8702297,9.0152674
4670,8.1737623,11.9302464,-2.5210814,-160.8854980,131.3129730,-143.0992432,4.4220681,9.4522600,6.0046272,-10.4274807,-23.1297703,7.5725193
4680,7.8505473,13.5271702,-0.9672526,-147.4045868,117.4198456,-135.0152740,4.3239059,9.3349447,6.0213866,-9.0916033,-28.3129768,5.3053436
4690,8.0396881,15.0115681,0.8810617,-130.4198456,97.3587799,-125.0229034,4.1156116,9.2200232,6.0644817,-8.8473282,-33.7099228,3.0458016
4700,8.9614515,15.1719790,2.2864509,-111.9160309,63.0305328,-120.5648880,3.7900019,9.0236998,5.9160423,-9.1297712,-39.3816795,-0.2519084
4710,10.5847120,15.0690289,4.0533628,-92.2671738,24.9465656,-120.9312973,3.4356618,8.8585014,6.0501165,-10.1526718,-44.0228996,-2.6870229
4720,11.6142130,14.7697544,5.5784616,-71.8091583,-9.1374044,-124.9694672,3.0454090,8.8561068,6.1578555,-10.6412210,-48.3740463,-4.7328243
4730,11.8201132,14.3723192,7.0125809,-49.5038185,-33.6793900,-131.0000000,2.7796540,8.7387915,6.3230543,-10.1755724,-50.7251892,-4.9541984
4740,11.6501255,13.7522240,8.0229292,-24.8778629,-48.3206100,-138.5190887,2.3582766,8.4754305,6.3900914,-7.8167939,-50.3740463,-4.9541984
4750,11.4394369,13.1321287,8.3054428,-1.9618320,-52.6793900,-146.3664093,1.9177457,8.2240410,6.2895355,-4.3969464,-48.8396950,-4.0000000
4760,10.8504667,12.3516235,8.2384062,20.1908398,-47.3511467,-155.6793823,1.7238164,7.9415264,6.2416520,-0.3358779,-47.0152664,-3.6564887
4770,10.3692341,11.5256281,7.5440907,39.7404594,-39.7786255,-168.7099304,1.4748207,7.6733770,5.8777351,3.5572519,-44.3129768,-2.6259542
4780,9.2152348,10.2471304,6.1650376,52.5877876,-36.0687027,-188.1297760,1.4269369,7.4387465,5.5712790,7.0076337,-41.0839691,-2.1297710
4790,7.3142486,8.9638453,5.0637107,57.7175560,-38.2671738,-212.3206177,1.4772149,7.2328463,5.1092005,10.1145039,-37.6564903,-4.3816795
4800,4.9176650,7.7068958,4.1778607,59.1526718,-40.1526718,-231.0610657,1.3575054,6.9479380,4.7333126,12.6641226,-34.7251892,-9.8625956
4810,1.9105632,6.1027889,3.6032550,59.7175560,-46.5496178,-238.0000000,0.9959828,6.8928714,4.6519103,14.9236641,-32.9923668,-18.2213745
4820,-0.3519458,4.9032998,3.3183465,60.1984749,-57.1755714,-232.5801544,0.3399749,7.0101867,4.4196739,16.4122143,-31.4274807,-27.3664131
4830,-1.9536586,4.0581512,3.4141142,64.2824402,-66.5343475,-216.5877838,-0.4836263,7.2519999,4.3023586,17.4122143,-30.0076332,-33.6793900
4840,-3.4093258,3.1746953,3.6008608,75.0687027,-69.1526718,-194.4274750,-1.3191984,7.7021074,3.9240766,16.0839691,-28.3435116,-33.4122124
4850,-4.2616572,2.5689652,3.0956869,88.6870193,-66.8167953,-169.2061005,-1.9129574,7.9941988,3.4596038,11.7862597,-27.4198475,-28.4351139
4860,-5.2217274,2.3079987,2.5019281,100.3664093,-60.8778610,-140.1374054,-1.9704180,8.1234846,3.0717452,4.1526718,-26.7557259,-20.4122143
4870,-5.9304070,2.2696917,1.7309990,111.8396912,-52.4427490,-110.2366409,-1.4413021,8.1067257,2.7868366,-5.6717558,-27.3816795,-12.3358774
4880,-6.2919297,2.1954718,0.6703730,119.9465637,-41.9160309,-81.1679382,-0.5746055,8.2431946,2.6814921,-16.9923668,-27.4885502,-8.6870232
4890,-6.6486640,2.0039365,-0.5961532,122.6641235,-32.6412201,-52.9312973,0.1101327,8.2312231,2.8466914,-27.0152664,-27.0992374,-7.8473282
4900,-6.6031747,2.0757623,-1.9704180,117.5267181,-23.1755733,-24.4351139,0.6607963,8.0995426,3.3542595,-33.8091621,-24.4961834,-11.0076332
4910,-6.2177100,2.3319404,-3.1339941,104.5038147,-14.3816795,2.9083970,0.9600700,8.1234846,4.2018023,-35.8473282,-20.5267181,-16.0152664
4920,-5.3558016,2.6120608,-3.8905578,85.6259537,-4.1221375,25.8091602,0.9361281,8.1570034,4.7788019,-32.5114517,-16.2366409,-22.0152664
4930,-4.3622131,2.9616125,-4.2065907,65.4045792,9.1832066,42.9771004,0.6919208,8.3150196,5.1738434,-25.1221371,-10.8778629,-25.3740463
4940,-3.3470769,3.2441268,-4.3598189,44.4427490,24.6488552,54.9007645,0.6799498,8.5975342,5.3318601,-15.5419846,-5.7251906,-26.2977104
4950,-2.3702476,3.7373297,-4.4292507,24.5343513,39.1603050,63.3511467,0.8882443,8.8992023,5.1714492,-6.2824426,-2.1450381,-25.6946564
4960,-0.4213773,4.5489597,-4.1850433,-13.3206110,65.9236679,68.0992355,1.9656296,9.4690189,3.9264708,-0.3740458,4.4198475,-24.1603050
4970,0.3974355,4.9320302,-3.8666160,-28.5877857,76.0000000,67.2061081,2.1547706,9.7611103,3.4596038,-5.2824426,6.9465647,-23.5725193
4980,1.1300575,5.3749552,-3.6631098,-45.1068687,84.4809189,66.1068726,2.3295465,9.9430685,3.3901722,-12.9389315,8.1374044,-23.4427490
4990,2.0997043,5.8921003,-3.6391680,-63.9389305,94.5114517,64.1145020,2.2649033,10.1298151,3.7109938,-21.4274807,10.0916033,-23.2442741
5000,3.1220231,6.4212160,-3.4835455,-84.5419846,107.4351120,59.6030540,1.6974803,10.0412302,4.3119354,-28.0916023,8.6717558,-21.1603050
5010,3.6894460,7.1514440,-3.0741394,-106.4885483,119.6717529,52.3129768,1.5945302,10.0196829,5.0158267,-30.1297703,4.4961834,-16.6641216
5020,3.9695661,7.6949248,-2.2601149,-124.6106873,125.3893127,44.1984749,1.9704180,10.0603838,5.6215568,-28.0992374,1.3587786,-13.1526718
5030,4.2520804,8.5281029,-0.9504932,-135.6946564,120.5038147,37.6870232,2.3343346,10.2016411,5.6694407,-24.4656487,-0.1984733,-9.7251911
5040,5.2169390,9.3780403,0.6584021,-138.3664093,109.6717529,31.4961834,2.5474176,10.1872759,5.7221127,-21.1755733,-0.2061069,-4.8396945
5050,6.4523406,10.4650021,2.1906834,-137.0839691,103.6488571,22.4732819,2.6647329,10.0364418,5.5856438,-19.7251911,0.4274809,0.0000000
5060,6.9982157,11.1712875,3.1794837,-136.1297760,106.1755753,13.3511448,2.8586621,9.7826586,5.7747850,-19.5496178,0.9236641,5.3206105
5070,6.8976598,11.5423870,4.2879934,-134.9465637,112.3740463,9.2366409,3.1866663,9.6078825,6.0549049,-19.4885502,0.9770992,9.6870232
5080,6.8114691,12.1672707,5.5904322,-129.4809113,118.9007645,9.9160309,3.4452386,9.4259243,6.2129216,-18.9541988,0.0687023,12.3816795
5090,6.0501165,12.7993364,6.8641410,-113.2824402,125.3053436,12.6870232,3.8737986,9.2822723,6.4571290,-17.8167934,-1.8702290,12.3358774
5100,4.1587071,13.8575687,7.2089043,-83.3129807,130.0229034,18.0763359,4.1323709,9.1841106,6.7157016,-16.5877857,-5.0305343,11.0763359
5110,1.6400198,14.8750992,7.0149751,-43.6870232,126.5038147,33.1603050,4.1754665,9.1218615,6.9982157,-15.1297712,-9.3206110,8.8625956
5120,0.6320660,15.3252068,6.6678176,3.7404580,108.1908417,51.5038185,4.0174499,8.9614515,7.1298962,-13.3587790,-13.4274807,7.3816795
5130,0.9457048,14.9636841,5.2049680,50.2366409,78.2671738,65.1832047,4.0581512,8.8345594,7.2448173,-11.5877867,-18.6488552,5.3893127
5140,1.6256547,14.4178085,3.3853838,86.3206100,46.9160309,76.2061081,3.9192882,8.7627335,7.3477674,-10.5038166,-21.4351139,2.2366412
5150,2.6886747,13.8503857,1.4796091,111.8702316,24.0992374,83.3206100,3.6750808,8.6909075,7.7236552,-9.3282442,-23.4885502,-2.6030533
5160,2.9520357,13.3116932,-0.7541697,124.4427490,10.7251911,85.1450348,3.2225790,8.5328913,8.1306677,-7.9541984,-23.7251911,-6.9312978
5170,2.6599445,13.1225519,-2.8442972,125.1450348,-1.5801526,83.3893127,2.5593886,8.4682484,8.4945841,-5.3740458,-24.3893127,-10.6946564
5180,2.4564383,12.9956608,-4.3454537,115.3435135,-17.4198475,77.8091583,2.0254843,8.5017672,8.8537130,-1.8854961,-24.8625946,-12.3664122
5190,2.0733681,12.5287933,-5.1834202,101.4809189,-32.8167953,70.4198456,1.2928623,8.2407999,9.2463598,3.2213740,-27.6946564,-10.9312973
5200,1.3048333,12.1193867,-5.6790175,87.2671738,-44.5267181,65.4885483,1.0630201,8.1330614,9.4019823,10.1374044,-31.8854961,-9.3664122
5210,0.6631905,11.9972830,-6.0836353,73.7557220,-52.8702278,65.3816757,1.0510491,8.0564480,9.4091644,18.6641216,-36.1221390,-9.2748089
5220,0.5554519,12.2774038,-6.2416520,63.5648842,-58.4122124,64.5877838,1.0773853,8.0899658,9.1074963,27.4427490,-39.8244286,-10.3587790
5230,0.2705434,12.2678270,-6.4930420,57.8015251,-64.6564865,59.3282433,1.1659702,8.0133524,8.5041609,35.5572510,-42.3358765,-13.6183205
5240,-0.5817881,11.9110928,-7.1921453,50.3358765,-75.5801544,54.6030540,1.2018831,8.1929159,7.7811155,41.3282433,-42.9694672,-18.4580154
5250,4.5298066,-3.6894460,-7.6254935,-128.8549652,-154.4122162,243.3816833,1.5250987,8.1570034,3.4883339,21.6870232,-17.8396950,14.6183205
5260,9.2367830,-5.2121506,-4.5154414,-148.6259613,-145.8473358,224.5496216,1.5753766,7.9415264,3.3255291,20.3511448,-16.5190830,14.6946564
5270,16.6779232,-6.6031747,-0.5171449,-171.2137451,-119.2213745,180.3740387,1.6160779,7.7404146,3.3710186,18.5954189,-13.1908398,14.8091602
5280,19.6126022,-8.2288294,5.2456689,-214.7633514,-53.7480927,106.6946564,1.5921360,7.5201492,3.2489152,16.2595425,-10.7786255,13.8244276
5290,19.6126022,-13.3116932,13.8934813,-250.1374054,68.3816757,15.4045801,1.5538290,7.4028339,3.3638363,13.6564884,-9.6183205,13.4045801
5300,19.6126022,-16.5390606,19.6126022,-250.1374054,175.4961853,-19.3587780,1.4053892,7.3214312,3.4619980,10.3587790,-9.3511448,11.9465647
5310,19.6126022,-15.4473104,19.6126022,-250.1374054,88.5190811,23.2595425,1.3718705,7.1275020,3.4931223,7.1374044,-9.0992365,12.3587790
5320,19.6126022,-13.0196018,19.6126022,-147.7328186,-96.0992355,79.0457993,1.5538290,7.1131368,3.7349355,4.8931298,-8.9923668,12.6030531
5330,19.6126022,-10.3764172,19.6126022,87.0000000,-124.7251892,80.6641235,1.8315549,6.9814563,3.6678982,2.8473282,-8.5267172,11.7709923
5340,19.6126022,-7.1275020,19.6126022,250.1297760,-31.2137413,-0.9160305,1.9560528,6.8665352,3.5888901,1.2137405,-7.6946564,10.2442751
5350,19.6126022,-4.5178356,14.2071199,250.1297760,27.1908398,-123.8625946,2.0853391,6.9287844,3.5697365,-0.7786260,-6.7404580,7.0992365
5360,19.6126022,-5.1882086,-2.9999194,250.1297760,53.3893127,-224.0076294,2.0925217,7.0484939,3.6343796,-2.0992367,-6.3435116,4.3740458
5370,14.0155849,-5.9711084,-13.3667593,218.8320618,57.3358765,-250.1374054,2.2265961,7.2711535,3.4212968,-3.1145039,-5.5572519,2.4809160
5380,8.1402445,-6.3422079,-14.2909164,81.9923630,64.6106873,-250.1374054,2.4492557,7.5728211,3.5050933,-4.4885497,-5.4656487,0.5190840
5390,6.4260044,-5.8968887,-8.6956959,-3.1526718,52.2519073,-250.1374054,2.6431851,7.9319496,3.1507533,-6.8625956,-6.4732823,-2.2748091
5400,5.6359220,-5.7436604,-2.9783716,-19.6030540,29.4580154,-250.1374054,2.7078283,8.4083929,3.1004753,-11.1832066,-7.6564884,-5.6412215
5410,4.1204000,-4.6231799,-0.8714849,3.3282442,9.0229006,-250.1374054,2.4301023,8.4730368,2.6455793,-21.7557259,-9.0610685,-9.6793890
5420,2.8419030,-3.0286496,-0.9289455,37.8854980,-3.0763359,-245.3435059,2.6767037,8.6478119,3.3829896,-26.5343513,-10.7175570,-12.8931293
5430,2.2074428,-0.8427547,-3.0190730,59.0000000,-1.0916030,-231.5648804,2.8514795,8.9662399,3.8115497,-30.5648861,-8.1908398,-21.9694653
5440,2.3894010,0.8547257,-4.9056940,62.6335869,19.7862587,-218.8015289,2.1523764,9.2296000,4.1084290,-32.3435097,-5.5801525,-26.4809170
5450,1.7597293,3.6846576,-6.7923155,59.9236641,49.8854980,-208.6793823,1.5705882,9.5719690,4.6495161,-32.8549614,-4.3206105,-27.2671757
5460,0.6272776,6.6462698,-8.5137377,48.0992355,79.3587799,-196.7404633,1.1420283,9.8425131,5.0780759,-32.5343513,-3.4732823,-25.9694653
5470,-1.2832855,9.5863342,-10.3309278,31.1297703,102.5801544,-177.2595367,0.9385223,10.0220766,5.2073622,-31.6259537,-2.5114503,-24.4885502
5480,-3.1315999,11.6668854,-12.7059631,7.6946564,110.4961853,-145.4961853,0.8283895,10.1202393,5.2456689,-31.8778629,-0.5419847,-22.3893127
5490,-3.1004753,14.2478218,-13.0986109,-17.8625946,98.2519073,-109.9160309,0.6631905,10.0939026,5.4970589,-32.3816795,1.7251909,-18.9389305
5500,-1.9297167,16.0578289,-11.7626524,-28.4732819,79.1984711,-84.6717529,0.6153067,10.0388365,5.8657641,-31.5877857,5.7709923,-12.5801525
5510,0.1292862,16.7712975,-9.6964674,-19.5114498,51.5038185,-73.8091583,0.6033357,9.7012558,6.3086891,-29.9083977,9.1450386,-7.2366414
5520,1.5514348,17.5446205,-8.0277176,-1.2366412,31.3893127,-70.9160309,0.8283895,9.4450769,6.7851329,-25.8473282,10.4198475,-3.3282442
5530,2.7772598,18.1144371,-7.0508881,20.2137413,28.3664131,-71.8854980,1.1228749,9.2487535,7.0772243,-19.7480907,10.3358774,-1.9236641
5540,3.3015873,18.2149925,-6.9120250,38.0687027,37.2900772,-76.3435135,1.5131277,9.1577749,7.2280579,-12.2213745,9.1679392,-1.0152671
5550,2.4253139,18.4376526,-7.4674768,49.0381660,46.9541969,-79.1450348,1.9057748,9.1625633,7.2807302,-3.2137403,6.9465647,-2.5725191
5560,1.5777708,16.8742466,-7.6901364,47.7099228,38.3511467,-75.2061081,2.3151813,9.3253679,6.6773944,18.1908398,9.3053436,-10.2213745
5570,1.4748207,15.6412401,-6.8114691,43.6259537,28.1908398,-73.0000000,2.0302727,9.5935173,5.9615316,26.4732819,13.0916033,-10.0610685
5580,1.0965388,14.1017761,-5.3725610,45.7786255,12.8396950,-69.8320618,2.0206959,9.6892843,5.2360926,31.2595425,16.6870232,-7.1297708
5590,0.5027798,12.5407648,-4.4340386,53.7862587,-6.3664122,-65.0763321,2.0518203,9.7826586,4.6351509,33.1297722,19.9465656,-3.0687022
5600,-0.3974355,11.1664991,-3.5026991,64.7633591,-24.3893127,-57.5343513,2.0326669,9.6916790,4.0246325,31.9236641,21.7557259,1.7022901
5610,-1.0295014,9.9957409,-2.9687948,73.9618301,-44.2442741,-46.3893127,2.2672975,9.4331064,3.5960727,28.9923668,21.0458012,7.9160304
5620,-1.3934183,8.8489246,-2.3391230,83.8702316,-53.2900772,-34.7099228,2.8347204,9.0739784,3.4859397,26.5190830,17.8778629,11.8549614
5630,-1.0318956,8.1498213,-2.2481439,90.1908417,-56.4045792,-24.4122143,3.4141142,8.7627335,3.2321558,25.6946564,14.4427481,10.6183205
5640,-0.4884146,7.5297260,-1.8363433,94.6717529,-50.0534363,-18.8167934,3.8977404,8.5257082,3.0932927,26.6564884,9.3893127,7.1221375
5650,-0.0071826,7.3621325,-1.9105632,94.0534363,-46.5114517,-15.7862597,4.2041965,8.2312231,2.9424589,29.9465656,4.5725193,0.6717557
5660,0.4118006,6.9886389,-2.0973101,91.5114517,-37.9389305,-15.9847326,4.5298066,7.8816719,2.6431851,34.8244286,2.4122138,-8.0305347
5670,1.1396341,6.6247220,-2.2577207,86.7175598,-28.8015270,-19.8167934,5.4659348,7.7787213,2.2912393,39.3816795,6.9007635,-17.4274807
5680,1.4724265,6.4619174,-2.6216373,79.5877838,-22.8778629,-25.3587780,4.9583664,7.1897511,2.0254843,43.5038185,-9.0229006,-32.1374054
5690,1.3694763,6.2823529,-3.3207407,68.6412201,-19.7251911,-29.3893127,6.2153158,7.4387465,1.3383518,43.2671738,-5.3893127,-40.8091621
5700,1.1396341,5.8705525,-3.5745249,54.3053436,-22.8473282,-30.9847336,5.2791877,7.2927012,0.3998296,40.2671738,8.5572519,-46.1221390
5710,1.0151364,5.4683285,-3.6343796,37.7709923,-31.0610695,-30.9541988,4.9799142,7.4243813,-0.1604107,35.1526718,20.9847336,-48.9771004
5720,1.1468167,5.1092005,-3.2417326,23.6259537,-41.3511467,-30.9312973,4.1730723,7.6590118,-0.1723816,25.6641216,30.8167934,-50.0763359
5730,1.2880739,4.6471219,-2.3917952,14.1068707,-51.3435097,-30.2213745,4.0892754,8.2144642,-0.0790083,12.8778629,45.6488533,-49.9694672
5740,1.6831152,4.3622131,-1.7357874,9.0152674,-59.8778610,-29.3893127,3.1770895,8.8752604,0.4070122,-4.8396945,56.2442741,-49.6259537
5750,2.1523764,4.1658897,-1.1635761,6.9694657,-63.7328262,-29.0610695,2.2361729,9.2272062,1.2617378,-25.7633591,53.9771004,-49.2442741
5760,2.6024840,3.9360476,-0.9480990,7.2900763,-58.5725174,-29.4732819,1.2713146,9.5552101,2.3726418,-48.1297722,44.3282433,-47.3511467
5770,2.6336083,3.6966286,-0.8140244,7.6335878,-49.6106873,-30.3969460,0.2537841,9.7180147,3.9671719,-66.4122162,34.7099228,-43.9847336
5780,2.5282640,3.6056492,-0.8379663,7.1145039,-38.3664131,-31.2061062,-0.7589580,9.8233595,5.8849177,-78.6106873,24.0992374,-37.4961815
5790,2.3582766,3.5146701,-0.9552816,4.7175574,-24.0916023,-32.0763359,-1.3886299,9.6916790,7.4124107,-82.4809189,14.0000000,-28.9694653
5800,1.9704180,3.4739690,-1.1707586,-0.0152672,-9.2824430,-32.9236641,-1.8914096,9.4450769,8.6765423,-78.0687027,6.9847326,-20.0763359
5810,1.4580613,3.3518653,-1.7357874,-6.4809160,7.2519083,-32.3969460,-2.0422437,9.1003141,9.5983057,-66.8244247,3.2137403,-12.7022905
5820,0.7805058,3.3470769,-2.0853391,-15.7328243,16.4427490,-30.2900772,-2.1811066,8.8489246,9.9813757,-51.2900772,1.3206106,-7.6259542
5830,-0.1436514,3.3853838,-2.5210814,-25.1297703,19.7633591,-24.7786255,-2.3271523,8.6310530,9.8353300,-33.6335869,3.1221373,-3.7175572
5840,-0.5937590,3.4787574,-2.6336083,-35.4122124,17.9694653,-14.1908398,-2.6719155,8.1857338,9.3373384,-16.9847336,5.1526718,-1.4580153
5850,-0.5147507,3.6942344,-2.6120608,-44.9236641,11.9083967,-3.8015268,-3.0956869,7.9534974,8.5951405,-2.5954199,5.0076337,-1.3969465
5860,-0.3303981,3.9432299,-2.5402350,-51.8854980,2.9847329,3.5343511,-3.3470769,8.0085640,7.8170285,8.5954199,0.3664122,-2.2519083
5870,-0.1412572,4.1227942,-2.3894010,-55.2595406,-8.2137403,7.5267177,-3.2393384,8.0636301,6.9431496,16.5801525,-7.0534353,-1.5038168
5880,0.2059003,4.5561423,-2.0829449,-54.4580154,-20.7175579,13.6335878,-2.8347204,8.1593981,5.8011212,21.8015270,-15.5267172,1.7404580
5890,0.6344602,5.3294659,-1.8076130,-53.9007645,-35.5496178,18.1832066,-2.0230901,8.5544386,4.6878228,22.6946564,-23.9160309,5.8854961
5900,1.3646880,5.9375896,-1.9632354,-54.4274826,-47.3893127,21.0000000,-1.1516051,8.5592270,3.8426740,19.7938938,-30.6106873,10.3893127
5910,2.2936335,6.1841912,-2.1260402,-53.3816795,-49.8396950,18.0610695,-0.0766141,8.6406298,2.8969693,15.3816795,-33.2213745,13.5954199
5920,2.5593886,6.7971039,-2.9256995,-52.0000000,-41.0000000,12.7175570,1.0055596,8.7244263,2.3079987,9.6564884,-31.5267181,12.5038166
5930,2.0230901,7.4219875,-4.6830344,-58.8702278,-28.6335869,9.0610685,1.8650736,8.9782104,1.7405758,2.3969467,-25.8702297,10.0305347
5940,0.7254394,8.3509331,-6.8330169,-80.8778610,-14.2137403,9.3893127,2.5091105,9.1122847,1.6902977,-5.4122138,-18.4427490,6.4045801
5950,-0.2777260,10.1489687,-8.2671366,-114.9542007,-5.2824426,10.7251911,2.9999194,9.2224178,1.7238164,-13.0992365,-10.2977095,0.8167939
5960,-1.3120158,11.4370432,-8.5664101,-150.7938995,-2.7557251,11.2977095,3.2225790,9.5145092,2.0039365,-20.3206100,-1.2442749,-3.7633588
5970,-3.0789278,12.7251167,-8.0756006,-177.4503784,-7.0916033,18.1679382,2.8419030,9.5408449,2.5282640,-26.4580154,6.1832061,-7.6793895
5980,-3.9911139,14.6213150,-6.1219425,-187.0763397,-20.5877857,30.1603050,2.3582766,9.5001440,3.0118904,-32.0610695,11.6946564,-9.4122133
5990,-4.1036406,16.3762550,-4.1275826,-180.0610657,-34.1450386,41.5267181,1.9153515,9.2750902,3.6894460,-35.9083977,13.4351149,-8.6106873
6000,-3.9839313,17.7241840,-1.6376256,-160.4122162,-37.7480927,50.0763359,1.7070571,9.1290445,4.3215117,-37.4809151,13.2595415,-8.0534353
6010,-4.0270267,18.8183289,0.9504932,-123.5648880,-33.2824440,58.8473282,1.7190280,8.8417416,4.8099265,-37.3282433,12.2748089,-7.7404580
6020,-2.1906834,19.1367569,3.0238612,-68.1908417,-28.1145039,67.3740463,1.8243724,8.6861191,5.1379304,-36.0381660,12.0610685,-9.1450386
6030,0.4357425,17.8941727,2.5665710,-7.2519083,-17.5114498,74.7251892,2.0350611,8.8177996,5.4922705,-33.7633591,10.4656487,-13.6183205
6040,2.5019281,16.2493629,-0.0885850,42.4503822,3.6412213,78.8549652,2.1451938,9.0955257,5.8681583,-30.2671757,9.5267172,-18.5267181
6050,2.6527619,15.9716377,-2.8993635,66.0992355,15.0305347,78.8702316,1.8243724,9.3708572,6.0429344,-27.2290077,9.1526718,-21.3816795
6060,2.5019281,15.8016500,-5.1666608,68.2977066,-1.0458015,76.0687027,1.3120158,9.5432396,6.1794028,-25.1679382,7.8625956,-20.3435116
6070,2.1930776,15.3587255,-6.2679882,61.2671738,-39.7328262,66.4274826,0.8906385,9.7443514,6.1554613,-24.4885502,6.4122138,-17.1450386
6080,1.3263810,14.4872408,-6.3589673,49.7328262,-84.4503784,54.5725174,0.5434810,9.7515335,6.3829093,-25.3893127,5.4809160,-12.3664122
6090,0.4764437,13.4122496,-5.5210009,36.3358765,-114.6641235,47.8320618,0.5123565,9.7802639,6.6390872,-26.2061062,3.3969467,-6.5038166
6100,-0.4094064,11.8775740,-4.5872669,25.2290077,-124.9465637,48.9847336,0.6895266,9.7443514,6.9024482,-26.5496178,1.0763359,-1.3053435
6110,-2.2625091,10.6230183,-4.1754665,16.3129768,-117.3129807,59.3435097,0.8451489,9.6940727,7.1753860,-25.4809170,-1.7862595,1.8931298
6120,-4.2616572,9.7156210,-3.7900019,12.4961834,-102.7022934,81.2290039,1.0582317,9.6964674,7.3142486,-23.5725193,-5.0000000,3.5038168
6130,-5.8849177,9.0236998,-3.7085996,17.8320618,-91.8015289,110.5877838,1.1899122,9.7036495,7.6494355,-20.3816795,-9.6030531,1.8320611
6140,-7.2041159,8.7986460,-3.7804251,32.5801544,-89.7404556,144.5190887,1.2497669,9.8281479,7.7068958,-15.9923668,-14.3816795,2.0000000
6150,-7.7021074,8.5424681,-4.3502421,53.9236641,-88.9542007,175.7099304,1.2617378,9.8808203,7.7404146,-10.9770994,-18.7633591,0.5190840
6160,-7.9654684,8.0827837,-5.7388721,72.5190811,-83.8854980,203.1832123,1.3479286,9.9717989,7.7523856,-6.0229006,-22.3816795,-1.0152671
6170,-8.2216463,7.7092900,-7.2136927,80.5572510,-69.1679382,230.0229034,1.3862357,10.0364418,7.6590118,-0.8015267,-24.0610695,-2.2366412
6180,-7.9846220,7.6135225,-8.0085640,77.9694672,-48.0916023,250.1297760,1.2952565,10.1010857,7.8313937,5.2061067,-23.4809170,-4.1908398
6190,-6.9096308,7.2663651,-8.4874020,67.7862625,-21.8931293,250.1297760,1.0869620,10.1010857,7.8433647,12.5038166,-21.3740463,-4.3587785
6200,-5.4276276,6.7300668,-8.6502066,53.9847336,8.3587790,250.1297760,0.9002152,10.1202393,7.8505473,20.5419846,-18.7099228,-3.1603053
6210,-3.5601597,6.4882536,-8.4347296,39.6946564,31.8244267,250.1297760,0.9121862,10.2160063,7.9175844,28.9160309,-15.1832066,-1.6793894
6220,-1.7597293,6.0956063,-8.3988171,26.0152664,47.3511467,250.1297760,0.8834559,10.2519188,7.8577299,37.3511467,-12.1297712,-1.4274809
6230,-0.0694315,5.5210009,-8.9446917,9.9465647,61.1603050,250.1297760,0.7398046,10.3405046,7.7499914,46.0610695,-9.6946564,-1.0381680
6240,0.9217629,4.8242917,-9.1170731,-10.8778629,66.6183243,250.1297760,0.4884146,10.3309278,7.5512733,53.8396950,-7.1679387,0.9465649
6250,1.5346755,4.5393834,-8.8800488,-32.9771004,62.8549614,250.1297760,0.5746055,10.3333216,7.4626884,60.9083977,-5.5419846,2.9770992
6260,1.4676381,4.9176650,-7.5345144,-54.0152664,40.0610695,223.4656525,0.6033357,10.2782555,7.3094602,67.0916061,-3.9847329,4.7328243
6270,1.6783268,4.1251884,-5.8897061,-73.5038147,-4.3358779,185.5343475,0.7613522,10.1729107,7.3932571,74.0381699,-2.3740458,5.5114503
6280,2.7652888,1.7238164,-3.5362179,-90.5648880,-68.9847336,139.9618378,0.8355721,10.0148945,7.4483232,83.3358765,0.8931298,6.2061067
6290,6.0261750,-2.0230901,-0.2777260,-103.4732819,-141.0534363,87.4045792,0.8523315,9.8568783,7.4962072,94.8931274,4.1984735,5.5725193
6300,11.9063044,-7.9582858,4.9463954,-108.4427490,-188.7022858,28.2519093,0.7733232,9.6653433,7.3741035,108.3206100,6.0763359,3.0992367
6310,18.4520187,-14.6476507,10.9438400,-107.2900772,-163.0458069,-38.2977104,0.5339043,9.7946291,6.7085190,121.2977066,6.9694657,1.4885496
6320,19.6126022,-19.6131992,16.5246964,-95.6030502,-49.4274826,-94.3053436,0.1963235,9.3205795,6.1698260,135.5648804,7.2748094,1.5267175
6330,19.6126022,-19.6131992,16.8359394,-95.0000000,127.3893127,-94.7022934,0.1987177,9.3971939,4.6638808,143.4503784,9.9236641,1.0152671
6340,19.6126022,-16.8574886,14.0610743,-145.4045868,250.1297760,3.5648854,-0.0981618,9.2272062,3.3111639,143.9847260,12.2290077,2.5114503
6350,12.9669304,-1.5993185,11.3891592,-235.4045868,250.1297760,183.0915985,-0.2873027,9.0452480,2.2577207,138.0992432,14.5267172,6.0458016
6360,19.0098648,5.8130918,19.6126022,-250.1374054,250.1297760,250.1297760,-0.3016679,8.8776541,1.5298871,127.1450348,16.0229015,10.7938929
6370,19.6126022,9.7060442,19.6126022,-187.6793823,149.9465637,250.1297760,-0.1484398,8.7890692,0.9193687,111.9542007,16.6412220,14.7404585
6380,19.6126022,12.1050215,19.6126022,-10.0687027,3.0534351,211.5648804,-0.1101327,8.6717539,0.5698171,95.6641235,14.9160309,18.0534344
6390,19.6126022,7.8888540,19.6126022,193.4580078,-67.8625946,-27.6335869,0.1891410,8.3940287,0.5913648,78.2519073,11.4045801,20.2442741
6400,19.6126022,-1.1923064,16.4145622,250.1297760,-109.1068726,-250.1374054,-0.1005560,7.9678626,0.6775556,61.8091621,7.7938933,21.4809170
6410,19.6126022,-7.2663651,4.4388270,250.1297760,-64.3206100,-250.1374054,0.0694315,7.7068958,1.0199248,47.6183205,-0.1984733,23.0610695
6420,10.7116032,-9.5671806,-4.1994085,202.6412201,21.7709923,-250.1374054,0.3423691,7.3094602,1.2761030,35.9847336,-6.0610685,24.0458012
6430,3.5864959,-9.4594421,-6.8401995,87.4961853,112.1603088,-250.1374054,0.6033357,7.1634150,1.5681942,27.8473282,-9.7328243,23.0458012
6440,1.6663558,-6.4260044,-4.8051381,6.1908398,159.0229034,-197.0000000,0.8619082,6.6558466,1.6711442,21.8473282,-11.3969469,21.8549614
6450,3.8139439,-3.8666160,-2.2960277,-31.3358784,169.5267181,-137.4351196,1.0007712,6.7396431,1.7286048,16.5190830,-12.2595415,20.3206100
6460,6.8378053,-1.5849534,-0.3208214,-34.2290077,174.8702240,-117.2595444,1.1947005,6.6606350,1.6088953,11.8244276,-11.7480917,18.5267181
6470,8.3988171,0.5458752,-0.5267217,-15.9160309,189.0229034,-123.3206100,1.1037214,6.4906478,1.6041069,7.1450381,-9.6641226,16.7099228
6480,8.0516596,2.1811066,-2.1212518,2.7557251,214.0076294,-139.1832123,1.0845678,6.4786768,1.4077834,2.3053436,-7.5496182,15.9160309
6490,5.9351954,3.7445123,-4.9416070,3.4580152,233.8625946,-147.8702240,1.0295014,6.5457139,1.4006008,-3.5648854,-5.4351144,17.3511448
6500,3.6176202,5.1546898,-7.0053983,-12.6946564,242.3358765,-136.8854980,1.0725969,6.3900914,1.5035510,-9.0610685,-3.6793892,19.6870232
6510,2.2218077,6.5888095,-7.7188668,-37.2748108,241.5801544,-107.5801544,1.2808913,6.2536230,1.4101776,-15.8473282,-2.1984732,21.4809170
6520,2.5665710,8.2384062,-6.6319046,-59.0458031,230.7480927,-72.1832047,1.6232605,6.2584114,1.5131277,-23.3664131,-1.2671756,21.5038166
6530,3.9025288,9.8832140,-4.8817525,-67.3129807,213.5648804,-46.4580154,1.7669119,6.1794028,1.7022687,-31.0229015,-2.5877862,19.6412220
6540,5.1235652,11.4418316,-3.5673423,-62.3129768,191.8015289,-33.4045792,2.0159075,6.3062949,2.0829449,-37.4045792,-4.5038166,16.3358784
6550,6.3972740,12.1481171,-2.2385671,-50.4732819,161.1603088,-28.5496178,2.1643472,6.3613615,2.3439114,-42.5419846,-6.0916033,10.2061071
6560,7.2831244,12.8591919,-1.2473727,-35.5190849,123.7633591,-28.6946564,2.1763182,6.7157016,2.7221935,-45.4045792,-8.6335878,3.8244274
6570,7.7188668,13.5223818,-0.7852941,-19.4580154,97.6870193,-30.4809170,2.1260402,7.0077925,3.0334380,-46.9923668,-10.1526718,-3.4274809
6580,7.9391322,13.9677010,-0.3830703,-6.8702292,76.6717529,-32.7251892,1.7932479,7.4531116,3.1890604,-47.6641235,-10.5190840,-10.7328243
6590,7.9056134,14.4609041,-0.2561783,0.6259542,61.4503822,-34.5496178,1.5753766,8.1067257,3.4236910,-46.5648842,-9.7022905,-18.1297703
6600,7.6015515,14.6883526,0.0047884,5.4427481,52.3053436,-37.5038185,1.1444225,8.8154058,3.7277529,-43.9312973,-8.6335878,-23.1297703
6610,7.1298962,15.0714226,0.1316804,7.5572519,44.8931313,-39.9236641,0.5171449,9.4762020,3.9025288,-42.5419846,-6.4122138,-26.2519093
6620,5.8849177,15.3994265,0.2609667,7.2977099,41.5190849,-39.4732819,0.3303981,10.2160063,4.2209558,-39.6412201,-5.2824426,-28.1679382
6630,4.9009056,15.7417955,0.7493813,4.0839696,39.1374054,-36.1145020,0.0119709,10.9749641,4.3143296,-37.7862587,-2.9694657,-29.7480907
6640,4.6447277,15.6388454,1.5514348,3.0000000,36.0000000,-29.2900772,-0.5075682,11.3005743,4.3741841,-36.1755714,0.4885496,-27.6259537
6650,5.1092005,15.6388454,2.5881188,8.8091602,30.5572510,-19.9160309,-0.0670373,11.3628235,4.3717899,-33.4503822,6.1450381,-25.9312973
6660,5.5617023,15.6053267,3.6894460,20.8320618,21.3969460,-9.1603050,-0.7374104,11.0467901,4.7093706,-28.4809170,15.4961834,-27.3969460
6670,6.5337429,15.6939116,4.6207857,37.5114517,5.0534353,0.8702290,-1.0965388,10.9582052,5.3246775,-19.7404575,23.7099228,-30.1908398
6680,7.3190370,15.9668493,5.2504573,59.6488533,-16.1374054,7.0229006,-1.4963684,10.9103212,5.8274570,-6.6717558,32.3587799,-32.2977104
6690,8.0109577,16.5175133,5.8035154,86.1603088,-37.0228996,8.7633591,-1.7501525,11.0372133,5.7460546,7.6870227,39.5114517,-31.6488552
6700,9.0644016,16.8359394,6.1075773,114.9236679,-61.3129768,3.1984732,-2.1427996,10.8552551,5.1115947,20.0992374,44.6030540,-27.7175579
6710,10.1633339,16.4696293,5.7484488,141.1679382,-81.0229034,-13.3358774,-1.6591733,11.0922794,4.3502421,27.8549614,44.8778610,-21.6488552
6720,10.8768024,15.4664640,4.5633249,157.8244324,-82.4198456,-42.9771004,-1.0558375,11.1425581,3.4859397,30.1374054,44.2748108,-16.2748089
6730,10.4434547,14.1712074,2.8945751,159.2595367,-76.5038147,-78.1297684,-0.6177009,11.0539722,2.7461352,27.9770985,43.2595406,-9.2137403
6740,8.6885138,12.7035694,2.1404054,149.3206177,-73.4961853,-105.4122162,-0.1580165,10.9653873,2.4013720,22.1374054,41.2213745,-2.0000000
6750,7.0101867,11.3340931,1.8914096,136.4427490,-73.7328262,-124.3740463,0.3160330,10.8552551,1.9871773,13.5038166,40.6183205,5.0000000
6760,5.1570840,9.7802639,2.0853391,126.2366409,-74.7786255,-134.3816833,0.8571198,10.5655584,1.8698620,2.9160306,41.7251892,13.4351149
6770,3.6008608,8.5017672,2.3846128,122.5725174,-77.5114517,-136.8015289,1.3670821,10.2088242,2.0829449,-7.6870227,43.8702278,20.6030540
6780,2.2720859,7.4794478,2.7868366,126.2213745,-85.9236679,-134.1908417,1.8195840,9.8018112,2.6288199,-16.4122143,45.0839691,27.5114498
6790,1.2641320,6.3350253,2.9209111,136.0381622,-95.5954208,-129.8854980,2.2529323,9.3708572,3.2800395,-21.6335869,44.2595406,32.7480927
6800,0.5746055,5.2384863,2.6407909,148.7328186,-100.6641235,-124.3587799,2.5067163,9.1194677,3.8761928,-22.8931293,42.4274826,36.0687027
6810,0.0191535,4.3909435,2.1451938,159.4961853,-104.9465637,-117.7862625,2.9687948,8.7244263,4.2760224,-21.6641216,38.7709923,36.7633591
6820,-0.6248835,3.6583214,1.0390782,165.6183167,-108.1908417,-109.1679382,3.3135581,8.5735922,4.5633249,-18.7251911,32.8473282,33.4427490
6830,-0.9935886,2.9927368,0.1675933,165.6412201,-108.4656525,-98.4961853,3.7181761,8.3724804,4.5848727,-14.2213745,26.1679382,28.1450386
6840,-1.3311694,2.5569944,-0.6512195,160.9084015,-105.4503784,-86.0610657,3.9097114,8.5281029,4.4412212,-8.5496187,20.3053436,20.2137413
6850,-1.4843974,2.3343346,-1.2521610,151.7633514,-100.6259537,-73.9312973,3.7301471,8.6837254,3.9456241,-3.2900763,16.9923668,13.3664122
6860,-1.5418580,2.1451938,-1.6807210,138.8091583,-93.0000000,-63.3129768,3.2537034,8.9231443,3.2489152,-2.0381680,15.0763359,10.2748089
6870,-1.7333932,1.7669119,-2.1284344,124.0916061,-81.3587799,-53.5954208,2.9448531,9.2152348,2.6767037,-5.7480917,12.4198475,11.2595415
6880,-1.8961980,1.4221486,-2.2505381,107.2748108,-67.8244247,-43.1526718,2.7581062,9.2798786,2.3056045,-12.9007635,10.1832066,13.8091602
6890,-1.6328372,1.3742647,-2.3367288,88.0152664,-52.2748108,-30.8854961,2.7557120,9.3229742,2.3199697,-22.2290077,8.3664122,16.2900772
6900,-1.4173602,1.5418580,-2.1188576,69.5267181,-35.3893127,-19.6335869,2.6623387,9.3373384,2.5689652,-31.5572510,4.7557254,17.8625946
6910,-1.1372399,1.5753766,-1.6831152,53.7175560,-19.7099228,-11.0000000,2.7964132,9.3205795,3.1435707,-39.0610695,-0.0229008,17.7480907
6920,-0.5913648,1.7645177,-1.5586174,41.5496178,-5.6106873,-4.0763359,2.8586621,9.1745338,3.8690102,-42.7938919,-4.7175574,16.7022896
6930,0.1771700,2.4037662,-1.5131277,21.6488552,21.8320618,3.9770992,2.8993635,9.1074963,4.9296360,-41.0458031,-12.8778629,10.1297712
6940,1.2234308,3.0478032,-1.5562232,2.4198472,31.8015270,0.5190840,2.4588325,9.1027079,5.2504573,-36.0763359,-20.5877857,4.8091602
6950,1.3910241,3.4069316,-1.6591733,-4.3664122,29.8625946,-5.2977099,2.5929072,9.0620070,5.4994531,-32.2900772,-24.9541988,2.1603053
6960,1.4221486,3.7540891,-1.9560528,-13.8244276,21.7786255,-9.1526718,2.5976956,9.1314383,5.5904322,-27.3129768,-28.1908398,1.0534351
6970,1.5825592,4.0342093,-2.1787124,-23.1450386,9.3511448,-13.1984730,2.8634505,9.1625633,5.6191626,-21.7480907,-30.5648861,-0.1984733
6980,2.0278785,4.2808108,-2.4971397,-31.1908398,-7.2595420,-17.4045811,3.0382264,9.1218615,5.2767935,-16.6488552,-32.0228996,-1.1145039
6990,2.6216373,4.5154414,-3.4117200,-39.2519073,-14.8549614,-22.3893127,3.1651185,9.1553802,4.9248476,-13.4961834,-32.8015251,-2.5114503
7000,2.8538737,5.6694407,-5.1666608,-49.5801544,0.4198473,-29.2519093,3.1555417,9.1027079,4.5800843,-12.5267172,-33.7557259,-4.9465647
7010,2.0422437,7.7045016,-7.5680327,-70.5877838,29.2061062,-43.5267181,2.9568241,8.9087791,4.2592630,-14.3206110,-34.9847336,-7.3129773
7020,0.3519458,8.8752604,-9.7108326,-106.5267181,51.2977104,-67.4045792,2.5976956,8.7172441,4.3143296,-16.6717548,-37.7709923,-10.3435116
7030,-2.7317703,9.7802639,-10.6589317,-151.4351196,52.6641235,-89.5572510,2.2409613,8.5352850,4.4484038,-16.6641216,-40.8167953,-12.9083967
7040,-7.5249376,12.5359764,-9.5001440,-193.2977142,43.9389305,-80.3053436,1.7836711,8.2647419,4.6423335,-13.3206110,-41.8015251,-17.2671757
7050,-9.6988611,13.5151997,-5.4850879,-208.7099304,19.1221371,-36.7938919,1.3287752,8.1617918,4.5776901,-7.0610685,-41.0076332,-21.6030540
7060,-9.0308828,14.0730457,-1.5514348,-189.5190887,-2.7480917,14.7022905,0.9002152,8.1953106,4.2065907,0.1068702,-38.2671738,-24.4503822
7070,-7.0628591,15.4353390,2.3439114,-139.2824402,-8.1374044,55.6335869,0.5769997,8.4610653,3.7421181,6.2290077,-34.4122124,-26.1679382
7080,-4.7979555,16.2661228,3.9384418,-67.8625946,2.0687022,84.9236679,0.2154770,8.7483683,3.3973548,10.8931293,-29.9618320,-25.0000000
7090,-1.9440818,15.9022064,3.4643922,7.0992365,15.8473282,102.2671738,0.0239419,8.9901810,2.7676830,12.0305347,-24.9389305,-22.4274807
7100,-0.0622489,14.7673607,0.4932030,72.3053436,27.4503822,113.7633591,0.0000000,9.2583303,2.2433555,9.3206110,-21.3664131,-17.9923668
7110,1.3694763,14.0898046,-3.1866663,110.9770966,37.0228996,120.1908417,0.0359128,9.5647869,1.7980363,2.9770992,-19.3053436,-12.7175570
7120,2.3582766,13.5942078,-6.8904772,118.9236679,40.0687027,118.1068726,0.3806761,9.7467451,1.6687500,-5.2595420,-18.7022896,-7.7022901
7130,2.4612267,13.3260584,-9.7347746,102.0763321,31.4885502,106.2442780,0.7230452,9.7563219,1.7645177,-14.1755724,-17.9618320,-3.2748091
7140,1.3742647,13.2302914,-10.9941177,71.1221390,14.3740454,90.8320618,1.1731528,9.6461897,1.9608412,-22.8854961,-17.5954189,-1.6183206
7150,-0.5458752,13.1201582,-10.4051476,36.6106873,-5.5725193,81.9923630,1.6663558,9.5767574,2.4205256,-29.3664131,-17.6412220,-2.6030533
7160,-1.4987626,12.3995075,-8.2264347,10.9847326,-19.5190830,81.7251892,1.8578910,9.5312681,3.1675127,-32.4045792,-16.0763359,-5.1755724
7170,-2.7341642,11.3556404,-6.1315193,3.1374047,-28.3206100,85.8320618,1.9273225,9.5025377,3.7301471,-31.7938938,-12.3282442,-7.3893127
7180,-4.8649931,10.7403336,-4.5824785,11.2290077,-31.6488552,98.5572510,1.7980363,9.5599985,4.2018023,-28.6030540,-7.5496182,-9.2061071
7190,-6.6390872,9.9574337,-3.9743545,30.7175579,-40.2519073,121.1755753,1.5514348,9.6581602,4.7021880,-25.5343513,-3.1145039,-9.9694653
7200,-7.8098459,8.9422979,-4.8266859,52.5038185,-51.0458031,151.6946564,1.3479286,9.7850523,4.7452836,-23.6564884,-0.2977099,-8.7328243
7210,-8.9279327,8.0612354,-6.9311786,65.5877838,-60.4122124,189.7557220,1.3742647,9.8496952,4.9607606,-23.3969460,0.8549618,-6.7099237
7220,-10.4745789,6.8186517,-10.3955708,59.9694672,-66.6946564,240.1603088,1.4963684,9.7467451,5.1929970,-23.6717548,1.0610687,-5.4351144
7230,-12.0882626,5.3390427,-14.5614605,19.5267181,-62.0763359,250.1297760,1.7717001,9.7180147,5.5281835,-23.5190830,-0.4045801,-7.0992365
7240,-11.2862091,4.6207857,-14.0730457,-46.1450386,-57.9083977,250.1297760,2.0206959,9.8042059,5.8154860,-22.4656487,-2.0763359,-9.1679392
7250,-7.5871863,3.3446827,-8.6813307,-83.1755753,-53.1832047,250.1297760,2.1882892,9.9119444,6.1147599,-20.0687027,-3.8625953,-10.7404585
7260,-2.2409613,4.1754665,-2.2218077,-57.0152664,-62.6030540,250.1297760,2.2864509,9.9239149,6.4714942,-16.4580154,-5.5801525,-12.7099237
7270,3.3351059,5.8992829,0.7421987,15.8320608,-73.4198456,250.1297760,2.5546002,10.1633339,6.5959921,-12.3664122,-7.7633586,-14.6793890
7280,7.1921453,6.4236102,-0.7948709,94.3282471,-58.3893127,250.1297760,2.7174051,10.2854376,6.8114691,-7.7633586,-10.6641226,-16.4580154
7290,8.2934723,6.0453281,-7.4052281,126.1603088,-12.0687027,250.1297760,2.8131726,10.4410601,7.0796180,-2.2442749,-13.4580154,-19.3816795
7300,7.8529415,4.9032998,-12.6413202,87.6564865,31.8473282,250.1297760,2.6886747,10.6565371,7.3932571,4.9083967,-15.3282442,-21.4809170
7310,9.0979195,2.9640064,-15.2461987,2.8396947,50.8320618,250.1297760,2.5234756,10.7690639,7.4818420,13.1984730,-17.9847336,-22.7938938
7320,9.7778702,-0.7278336,-14.0658627,-91.3053436,65.5648880,211.2977142,2.4684093,10.8600435,7.4938130,22.5190830,-20.5954189,-22.6870232
7330,10.0771437,-5.9782910,-10.2112179,-176.5725250,53.1297722,152.0076294,2.4324965,11.0396080,7.4650826,31.4045811,-22.0992374,-23.4351139
7340,9.9837704,-12.4593620,-5.4922705,-238.0458069,16.6488552,101.7328262,2.2553265,11.1593170,7.2903070,39.7251892,-23.9847336,-24.3282452
7350,10.8528605,-17.8247414,1.2138541,-250.1374054,-48.4580154,68.0610657,2.0973101,11.2838144,7.1298962,46.9618340,-24.7938938,-25.2977104
7360,15.8303804,-19.6131992,11.9134865,-240.3511505,-126.9160309,45.4885483,1.7597293,11.3867655,6.9000540,54.0076332,-24.6183205,-25.7709923
7370,19.6126022,-19.6131992,17.9444504,-172.4885559,-113.5572510,35.3740463,1.4341195,11.5304165,6.6965480,60.6870232,-23.7786255,-24.5572510
7380,19.6126022,-19.6131992,16.5630035,-108.6030502,19.6412220,64.2671738,0.9744351,11.5639353,6.5121951,67.0305328,-23.0534344,-22.7862587
7390,16.5821552,-15.8782644,12.7921543,-107.6106873,171.0534363,158.0839691,0.5458752,11.5974541,6.4882536,73.6335907,-22.8625946,-19.9312973
7400,13.8839045,-0.6440369,14.3651371,-150.5114441,231.9618378,250.1297760,0.3375807,11.6597023,5.9663200,79.0229034,-24.2366409,-14.9389315
7410,19.6126022,6.0549049,19.6126022,-124.5343475,194.3587799,250.1297760,0.1747758,11.8368731,5.1307478,81.4732819,-25.9465656,-8.8244276
7420,19.6126022,7.3286138,19.6126022,-32.1450386,102.2671738,216.8778687,0.2968795,11.9374285,4.3670015,78.8625946,-29.0229015,-2.4580152
7430,19.6126022,6.4714942,19.6126022,99.1297684,22.9618320,55.5572510,0.4022238,11.9589767,3.7732425,72.5114517,-31.7633591,2.6412213
7440,19.6126022,1.9057748,15.8112268,214.5419922,-20.7938938,-111.8396912,0.3998296,11.8177195,3.5529771,64.6030502,-34.7328262,8.4122133
7450,19.6126022,-4.0940638,6.5481081,250.1297760,-15.1450386,-230.3587799,0.5458752,11.4801388,3.4979107,55.7175560,-42.0458031,12.1984730
7460,19.6126022,-9.8736372,-1.6519908,227.7709961,22.6106873,-250.1374054,0.6847382,10.9414454,3.4596038,47.9923668,-53.0152664,12.8015270
7470,14.2813396,-13.3930960,-6.7803445,146.3129730,68.9389343,-250.1374054,0.9169745,10.3309278,3.4787574,43.4351158,-61.8702278,11.9847326
7480,9.1673517,-13.6013899,-6.4020624,62.5267181,103.2137375,-250.1374054,1.2162483,9.6916790,3.8761928,45.2137413,-57.9007645,10.0152674
7490,5.2145448,-11.4561968,-2.1427996,17.9770985,114.4580154,-250.1374054,1.1396341,9.0883436,4.1395535,53.9694672,-45.6641235,10.3282442
7500,4.3047528,-9.1601686,0.9600700,10.0763359,113.8091583,-245.1679382,1.0390782,8.4874020,4.0868812,65.1832047,-30.9236641,10.6946564
7510,4.2879934,-6.8354111,2.4157372,27.2442741,117.0457993,-216.6335907,0.8403605,7.8912482,3.5841017,75.8091583,-16.9236641,12.0916033
7520,4.0126615,-4.3550305,1.7740943,49.0610695,125.7938919,-193.7862549,0.6847382,7.4962072,3.1507533,83.4274826,-4.7938933,14.2748089
7530,3.6295912,-1.3455344,0.1292862,63.6259537,141.4503784,-169.8320618,0.6823440,7.0556765,2.3965836,87.0000000,4.1297708,16.2977104
7540,3.5194585,1.5155219,-1.9057748,68.8396912,156.9465637,-143.6335907,0.7398046,6.5457139,1.7669119,85.5572510,9.5801525,17.5419846
7550,3.7109938,3.7684543,-3.7564833,65.5572510,162.4885559,-116.2366409,0.8547257,6.2320752,1.2425843,80.7022934,11.8244276,17.0305347
7560,5.0325861,5.8681583,-4.7644372,55.7938919,156.3816833,-90.8854980,0.7781116,5.7652082,0.8140244,73.1755753,10.4427481,15.4656487
7570,7.0891948,7.5871863,-4.8937230,44.9083977,141.0076294,-74.9083939,0.8810617,5.4563580,0.6679789,63.6946564,6.8167939,12.8778629
7580,10.5607700,10.1417866,-5.2528515,28.6259537,108.0763321,-73.4580154,0.6584021,5.1259594,0.5746055,42.4045792,-5.1068702,5.1221375
7590,11.7099810,11.0611553,-5.1044121,18.8244267,87.1908417,-84.1832047,0.8188128,5.6407104,0.4668669,31.8167934,-10.8931293,2.4045801
7600,12.1672707,11.6118193,-5.1211715,4.6564884,67.8473282,-99.5648880,0.4237715,4.9870968,0.4955972,23.0534344,-16.1068707,-0.9847328
7610,11.9517937,12.0020714,-5.0421629,-13.7786255,58.7557259,-116.6259537,0.0359128,4.8985114,0.8571198,18.1145039,-20.7251911,0.5572519
7620,11.3245163,12.0715036,-4.6830344,-34.2290077,51.8702278,-135.3282471,0.4022238,4.9751258,0.9768293,15.6335878,-16.8091602,0.3206107
7630,10.3907824,11.6166077,-3.7923961,-53.7557259,45.1603050,-154.7328186,0.2418131,4.9176650,0.5410868,12.3358774,-12.0839691,-2.6335878
7640,8.9829988,10.7451220,-3.0023136,-72.6106873,38.9160309,-169.4503784,-0.0718257,5.1259594,0.2035061,6.7862597,-10.5877867,-2.0458016
7650,6.9527264,10.5057030,-1.9009864,-86.2290039,31.7251911,-177.2290039,-0.0885850,5.5329719,-0.2633608,-1.4656489,-10.4198475,0.2290076
7660,3.9671719,10.9989061,-0.3495516,-92.4274826,26.8091602,-175.6870270,0.2011119,5.9950504,-0.4357425,-12.0381680,-9.9389315,2.1221373
7670,1.5705882,11.6884327,0.9864060,-89.7862625,21.8396950,-163.0076294,0.4908088,6.2272868,-0.7062859,-26.2137413,-11.3969469,1.3206106
7680,-0.2442073,12.2007895,2.4540441,-77.8015289,11.0305347,-142.8091583,0.4620786,6.3110833,-0.3998296,-41.8396950,-14.8778629,2.5572519
7690,-0.5985473,12.8184900,4.2951760,-52.6335869,-7.8778625,-117.9389343,0.8834559,6.5313487,0.3854645,-53.8625946,-17.4274807,2.3893130
7700,0.2274480,13.1201582,5.0565281,-19.2748089,-17.0381680,-92.8625946,1.2928623,6.9670911,1.2354017,-62.0152664,-18.0916023,-0.7633588
7710,1.3622938,14.3196468,4.6950054,14.3664122,-10.7862597,-70.7862625,1.3335636,7.5081782,1.8770446,-64.8015289,-17.0229015,-4.6106873
7720,1.9584470,15.6508169,3.5888901,40.1450386,-5.5572519,-55.8778610,1.2784972,8.3198080,2.8347204,-62.6717567,-14.8778629,-8.6564884
7730,2.1236460,16.6851063,2.3103929,57.0000000,-6.5496182,-43.8320618,1.1372399,9.2104464,3.4596038,-56.7328262,-11.8091602,-12.3206110
7740,2.8897867,16.9436779,1.6831152,67.1145020,-16.4274807,-34.6870232,0.6799498,9.6797075,3.5697365,-49.7251892,-9.8549614,-14.6793890
7750,4.0318151,16.4887829,1.5155219,76.7022934,-31.5419846,-29.0000000,0.5362985,10.1010857,3.5481887,-42.4809151,-9.3816795,-16.1450386
7760,4.9631548,15.4592810,1.5179161,90.2290039,-44.8244286,-26.9465656,0.1651991,10.5895004,3.3351059,-35.6870232,-9.2748089,-17.8778629
7770,5.6646523,14.4848461,1.4700323,104.6183243,-57.6946564,-27.9007626,-0.1221037,10.9797525,3.0717452,-29.6717548,-7.2824426,-18.4122143
7780,5.9830794,13.5319586,0.8978211,119.3893127,-70.1603088,-32.0458031,-0.4955972,11.5423870,2.6336083,-26.1603050,-4.1908398,-15.6641226
7790,6.2919297,12.5742826,0.1412572,129.4045868,-78.1145020,-40.8625946,-0.7158626,12.0116482,2.1284344,-26.0458012,-0.4732825,-9.8854961
7800,5.9878678,11.6764622,-0.8307837,132.6870270,-83.8854980,-52.8473282,-0.5746055,12.4090843,1.9249283,-28.2519093,3.4198472,-3.2824428
7810,5.2145448,10.6349897,-1.6807210,128.5038147,-87.9389343,-64.7557220,-0.3854645,12.5383701,1.9009864,-32.4885483,8.0839691,2.0076337
7820,4.2903876,9.7922344,-2.2122312,118.6183243,-92.5725174,-73.5954208,-0.0095768,12.4569674,2.1356170,-37.8320618,12.9007635,7.4885497
7830,3.3327117,8.8441362,-2.2002602,105.5190811,-100.2977066,-80.1221390,0.3280039,12.3396521,2.2840567,-42.8931313,17.1908398,11.7633591
7840,2.3702476,7.8553357,-1.5586174,96.6335907,-109.6488571,-84.9618301,0.4596844,11.8823624,2.9640064,-47.0152664,21.7557259,15.3206110
7850,1.6065011,7.0221577,-0.6943150,93.6412201,-120.9007645,-87.5496216,0.7469871,11.3628235,3.6319854,-48.0839691,25.3129768,19.0839691
7860,1.0869620,6.3110833,-0.2489957,93.6106873,-129.2671814,-87.1984711,1.0869620,10.8384953,4.3263001,-44.8549614,26.7862587,21.9541988
7870,0.4213773,5.5856438,0.1364688,95.0992355,-132.2748108,-85.6412201,1.5394639,10.4578199,4.8937230,-38.1145020,28.2900772,23.2519093
7880,-0.0383070,5.0421629,0.1915352,96.6488571,-131.1679382,-83.6335907,1.9608412,10.2351599,5.1475072,-29.7480907,29.7633591,23.3206100
7890,-0.3495516,4.5202298,0.1987177,95.6183243,-125.0076370,-80.8167953,2.2457497,9.9574337,5.0637107,-22.0839691,30.2366409,23.1374054
7900,-0.5195391,4.1658897,0.1580165,89.4351120,-115.9923630,-77.8702316,2.4899571,9.9574337,4.9056940,-15.9007635,30.1221371,23.7175579
7910,-0.5530578,3.7516949,0.3830703,79.1908417,-100.7480927,-73.6641235,2.7940190,9.7012558,4.5154414,-12.0152674,30.7709923,25.5114498
7920,-0.8188128,3.4284792,0.8475431,69.1908417,-79.9770966,-68.2137375,3.0478032,9.4594421,4.2832050,-10.5725193,31.2213745,27.7328243
7930,-1.1324517,3.0454090,0.9121862,60.1526718,-58.2824440,-60.3511467,3.2656744,9.1865053,4.1156116,-11.0229006,31.6106873,29.3511448
7940,-1.5298871,2.7676830,0.8643024,50.5725174,-32.6106873,-49.0381660,3.4452386,8.9399033,4.1730723,-11.7175570,30.7786255,30.8244267
7950,-1.6687500,2.6838863,0.5051740,37.8396950,-5.8167939,-36.2748108,3.6798692,8.7435799,4.2592630,-12.0610685,28.1145039,30.4580154
7960,-1.0773853,2.9592183,0.0646431,24.0992374,21.1984730,-26.2824421,3.9336534,8.4562769,4.3885493,-10.9541988,24.1679382,27.5648861
7970,-0.3615226,3.2441268,-0.2178712,13.7251911,37.1679382,-23.0687027,4.1802549,8.2240410,4.4579806,-8.4198475,19.5114498,23.2671757
7980,0.6200951,3.7564833,-1.5801650,6.7022901,47.7404594,-28.3129768,4.6662750,8.1522150,4.0366035,-1.2824427,11.7175570,8.0610685
7990,1.4508789,5.3605900,-2.2577207,8.2977095,44.8549614,-27.3816795,4.6088147,8.3317795,3.5649481,0.8167939,8.5954199,-0.1374046
8000,2.8706331,8.0205345,-3.0669568,14.0152674,48.9771004,-25.3206100,4.3598189,8.6478119,2.9927368,0.2061069,6.5877862,-5.8167939
8010,3.9504125,11.0228481,-4.1994085,23.8396950,61.6564903,-27.0381680,4.0102673,8.8106174,2.5450234,-4.1679387,4.9541984,-9.3893127
8020,4.2448978,12.5072460,-6.0165982,31.0000000,75.0839691,-38.4198456,3.5386121,8.9614515,2.2313845,-11.7786255,2.9618320,-9.2595415
8030,3.5314295,13.4433737,-8.6190825,29.9923668,87.9007645,-49.3358765,3.1339941,8.9734221,2.3343346,-20.8931293,0.9541985,-6.5572519
8040,1.9680238,13.9940376,-10.4913378,20.8473282,93.8473282,-47.0381660,3.1124463,8.8752604,2.4157372,-30.6793900,-1.2137405,-3.1526718
8050,0.4453192,14.4728756,-11.5639353,10.5038166,80.7938919,-31.1603050,3.3398943,8.7004843,3.0501974,-39.0458031,-4.0992365,-0.4809160
8060,-0.0335187,14.4417505,-10.7451220,8.5725193,41.6564903,-14.8854961,3.5936785,8.4658537,3.7852135,-43.7251892,-7.6641221,-0.9694657
8070,0.2849085,14.2813396,-9.3349447,18.5114498,-16.6259537,-8.2671757,3.7900019,8.2192526,4.3406653,-43.8702278,-9.8473282,-2.5496182
8080,0.6775556,13.7043400,-7.8242111,35.0305328,-72.5419846,-10.5877867,4.0533628,7.9965930,4.5609307,-41.3282433,-12.0152674,-4.4961834
8090,0.8140244,12.7251167,-6.0956063,50.9771004,-106.0687027,-15.5648851,4.2808108,7.7140784,4.5800843,-37.7557259,-13.2366409,-7.6717558
8100,0.7685348,11.5926657,-5.2576399,61.1297722,-120.3587799,-20.5877857,4.4053087,7.4459291,4.4196739,-34.8091621,-14.3282442,-11.2366409
8110,0.1771700,10.3716288,-4.5681133,62.7099228,-118.0610657,-25.7786255,4.4627690,7.2256637,4.0796990,-32.7022896,-15.4198475,-14.9694653
8120,-0.6799498,9.2152348,-3.6822634,56.6030540,-108.7328262,-28.1297703,4.4484038,7.1418672,3.9695661,-31.1603050,-15.8167934,-18.5038166
8130,-1.5873476,8.1929159,-2.9472473,45.6641235,-94.9236679,-26.1679382,4.2664456,7.2208753,3.5386121,-30.7633591,-15.3816795,-22.1832066
8140,-2.4923513,7.1442614,-1.9728121,34.4885483,-79.2442780,-16.7022896,3.8785870,7.3741035,3.0597742,-32.2824440,-12.6259546,-25.5038166
8150,-3.2010312,6.1722202,-0.9313397,26.3358784,-66.1984711,-1.0610687,2.9400647,7.5991573,2.6551561,-37.2900772,-6.4961834,-25.8549614
8160,-3.5434003,5.4802995,0.0311245,23.9236641,-58.4961815,21.1145039,1.9105632,7.7954807,2.4109488,-44.3358765,-0.2671756,-22.8625946
8170,-3.0166788,5.1092005,0.5913648,27.0992374,-53.4732819,45.8549614,0.8762733,7.8170285,2.3463056,-50.9007645,7.7480917,-15.0610685
8180,-1.4508789,5.0972295,1.0007712,33.9771004,-50.2824440,64.9083939,0.3519458,7.7188668,2.5881188,-55.8549614,16.5801525,-5.6259542
8190,2.0254843,4.9655490,-0.9145803,54.3587799,-31.8473282,36.6870232,1.0773853,7.9415264,3.9240766,-52.9771004,35.9618340,-11.5419846
8200,1.7932479,4.7955613,-1.8866212,41.1297722,-25.5419846,25.9389305,0.5506636,8.2695303,4.1036406,-48.8320618,36.0458031,-24.0305347
8210,1.4724265,4.5465660,-2.5043221,21.3816795,-17.2366409,19.7022896,-0.2801202,8.7866755,4.1180058,-46.2671738,33.8167953,-35.7480927
8220,1.0366840,4.1204000,-2.9496415,0.4274809,-7.3358779,18.3664131,-1.1156923,9.4498653,4.0150557,-46.7938919,30.5267181,-43.8854980
8230,0.9888002,3.9240766,-3.3638363,-20.2290077,3.6564887,19.8778629,-1.7525467,9.8688488,3.8211265,-51.9083977,31.0992374,-45.3587799
8240,1.1731528,3.9168940,-3.1866663,-37.4503822,9.5038166,20.8244267,-3.0501974,10.0364418,3.7923961,-60.3664131,22.5725193,-42.5267181
8250,1.3191984,4.2544746,-3.0358322,-48.4045792,12.4351149,18.9160309,-3.8043671,10.1346035,3.9288650,-71.0534363,6.1679387,-34.0152664
8260,1.4053892,4.4316444,-3.2991931,-53.4045792,12.9465647,14.7786255,-3.5026991,10.2710724,4.1994085,-81.4122162,-8.9007635,-19.1145039
8270,0.8236012,5.0565281,-4.1802549,-57.4503822,8.4580154,11.0458012,-2.2768741,10.1896706,4.6590929,-88.8625946,-15.7251911,-3.4122138
8280,-0.4213773,5.9950504,-4.8123207,-64.6641235,2.6106870,12.2442751,-0.6727672,9.7491398,4.9487896,-92.9923630,-11.7328243,8.6183205
8290,-1.4676381,7.1083484,-4.7333126,-70.4961853,-1.7480916,18.7404575,0.7254394,8.8656836,5.3390427,-93.3664093,-3.5190840,12.7022905
8300,-2.8897867,8.5304966,-4.3717899,-68.3206100,-1.0381680,31.0534344,1.8698620,8.5041609,6.0549049,-88.9694672,5.5190840,8.4045801
8310,-4.2281384,10.3093796,-4.6351509,-59.7862587,5.8931298,47.2290077,2.5546002,8.4586716,6.6702118,-80.4961853,17.6564884,1.1450381
8320,-4.7213416,11.8512383,-5.3749552,-48.5572510,15.9770994,62.5954208,2.8826041,8.4850073,7.1753860,-69.4503784,31.2748089,-5.1221375
8330,-4.9416070,12.8113079,-6.6773944,-37.1297722,23.7938938,75.4656525,3.0597742,8.6669655,7.5369086,-58.2977104,42.3053436,-12.4198475
8340,-5.5186067,13.3691540,-8.3748751,-27.1221371,30.0839691,91.1145020,2.8299320,8.9063845,7.7882981,-49.8091621,48.2748108,-18.1450386
8350,-5.8083038,13.8503857,-10.0268650,-18.9083977,31.1603050,109.5267181,2.1930776,9.0284882,7.8289995,-45.1526718,49.4809151,-22.7633591
8360,-5.2959471,13.6660337,-11.3101511,-11.2366409,24.1679382,125.5343475,1.8267666,9.0500364,7.7164726,-44.4885483,47.0763359,-24.7328243
8370,-4.6566987,13.3643656,-12.2534618,-1.9618320,7.6488547,136.3206177,1.4365137,9.0691900,7.9439206,-46.8167953,41.6412201,-25.8702297
8380,-4.0677280,12.6963863,-12.6485033,8.0000000,-16.9083977,143.2366486,0.9911944,8.8106174,8.3102312,-49.2595406,35.0152664,-26.3435116
8390,-3.9815371,12.0523500,-13.2566271,15.9312973,-46.1145020,149.1068726,0.7996593,8.6238708,8.8106174,-49.0534363,28.3893127,-25.8396950
8400,-3.7971845,10.8959560,-13.0411501,17.5343513,-66.6030502,157.5496216,0.6751614,8.3868456,9.2607250,-46.3511467,23.3893127,-23.8931293
8410,-3.8115497,9.7180147,-12.2175484,16.5725193,-75.8167953,171.9313049,0.7350162,8.2575598,9.5887289,-40.4503822,19.8854961,-23.4656487
8420,-4.0605454,8.7914639,-11.3867655,15.2290077,-77.1221390,190.1526642,0.9002152,8.4419117,9.8065996,-32.0534363,17.0534344,-24.0916023
8430,-4.6447277,8.0995426,-10.2806492,14.8625956,-78.5877838,212.0381622,0.9433106,8.6597834,9.9287033,-22.8320618,15.2061071,-23.8854961
8440,-4.8123207,7.4411407,-9.6246414,16.0992374,-81.6030502,237.0534363,0.7829000,8.7651272,9.9287033,-14.7404585,15.2519083,-23.2290077
8450,-4.2832050,6.8210459,-8.9303265,16.6030540,-79.8167953,250.1297760,0.4932030,8.9279327,9.8305416,-7.5572519,14.3358774,-18.8778629
8460,-3.2010312,6.8066807,-8.3844519,16.6793900,-71.3893127,250.1297760,0.5769997,9.0500364,9.6533718,-2.5496182,16.0458012,-12.7022905
8470,-0.5458752,8.0636301,-7.9606800,18.9083977,-51.8320618,250.1297760,0.5027798,8.7699156,9.3540983,1.8549619,13.3511448,-8.3969469
8480,1.8459201,10.2088242,-8.9039907,22.5877857,-21.5801525,250.1297760,0.7852941,8.6214762,9.3205795,5.6793895,5.8931298,-4.7786260
8490,2.9807658,10.0555954,-13.3356352,3.4656489,17.5648861,238.1679382,1.7022687,8.8465300,8.7435799,11.8091602,-0.5343512,-1.3587786
8500,2.3989778,7.5728211,-14.6117382,-28.8015270,-4.0229006,194.8549652,1.9177457,8.8082228,8.7603388,13.0534353,-3.3206108,-2.1755726
8510,1.5490406,3.3422885,-13.6564569,-66.6259537,-43.6488533,168.4122162,1.8243724,9.0236998,8.9470863,14.2977095,-6.9541984,-5.1068702
8520,1.3000449,-1.8938038,-10.1681223,-92.2595444,-93.4427490,165.1603088,1.5203103,9.1817169,9.1865053,17.2671757,-11.2671757,-7.9236641
8530,2.4133430,-6.8904772,-7.0365229,-97.8854980,-152.8015289,178.5648804,1.1851238,9.4498653,9.4498653,22.0534344,-15.4732828,-9.8320608
8540,4.2832050,-12.5886478,-3.9719603,-91.8091583,-208.9389343,202.3816833,0.8954269,10.0268650,9.4522600,28.0458012,-17.5877857,-9.9007635
8550,6.8880830,-17.2381649,-0.7230452,-74.3282471,-243.5496216,236.4809113,0.8523315,10.5895004,9.3756456,32.8320618,-13.6106873,-7.7633586
8560,11.2239599,-19.6131992,3.1794837,-46.9160309,-231.0152740,250.1297760,0.3710994,10.7523050,9.4307127,37.9083977,-11.9312973,-5.0992365
8570,19.2157650,-19.6131992,5.7053533,-18.4580154,-150.9770966,250.1297760,0.5003856,11.3221216,10.0627785,45.2824440,-12.1526718,-5.3893127
8580,19.6126022,-19.6131992,5.5377603,-0.0381679,-8.0763359,250.1297760,0.4596844,11.9517937,10.6828737,55.8625946,-14.7938929,-7.4885497
8590,19.6126022,-17.1759148,1.8291607,-21.5419846,131.6641235,250.1297760,0.2106887,12.5144281,11.1856527,70.7022934,-16.3129768,-9.2748089
8600,19.6126022,-10.1058741,-2.4899571,-106.0687027,216.8320618,250.1297760,-0.2609667,12.8232784,11.6668854,88.4503784,-17.9389305,-9.8931293
8610,19.6126022,0.0407012,-2.2242019,-223.8015289,239.2366486,204.7099304,-1.0558375,12.6125898,12.0284081,109.8625946,-24.9618320,-10.1221371
8620,19.6126022,8.8489246,5.1953912,-250.1374054,185.9084015,126.0763321,-1.9536586,12.5096397,11.4633789,132.7480927,-28.1984730,-6.8015265
8630,19.6126022,13.6516685,18.2365417,-250.1374054,68.2671738,41.9312973,-2.3702476,12.0236197,10.2591019,151.9313049,-23.7938938,2.3053436
8640,19.6126022,12.0020714,19.6126022,-209.6641235,-27.4885502,-49.3053436,-2.2864509,11.4370432,8.9686337,165.0229034,-13.7328243,15.3664122
8650,19.6126022,6.9718795,19.6126022,-43.4351158,-18.5267181,-169.2671814,-2.1116750,10.7379398,7.9271612,172.7099304,-3.5725191,27.6030540
8660,19.6126022,-0.1053443,19.6126022,103.7633591,62.6106873,-250.1374054,-1.5873476,9.7922344,6.9096308,174.1526642,3.7022901,38.8702278
8670,19.6126022,-8.0564480,8.4227581,195.3511505,120.5954208,-250.1374054,-1.1109039,8.8680773,6.2033448,170.7328186,7.0992365,47.7633591
8680,18.5860920,-12.8160963,-0.5410868,219.4503784,101.4809189,-250.1374054,-0.5722113,8.0899658,5.3462253,163.7709961,6.1755724,51.7175560
8690,14.3388004,-13.9030581,-7.5201492,176.8091583,36.9694672,-250.1374054,0.0622489,7.2903070,4.6997938,153.7480927,2.4198472,53.5648842
8700,12.6389265,-12.0427732,-10.8480721,96.6946564,8.8854961,-250.1374054,0.5554519,6.6630292,3.9504125,141.3511505,-3.4961832,51.0763359
8710,10.9198980,-10.1465750,-10.0627785,13.3664122,21.7022896,-250.1374054,0.7972651,6.0956063,3.2465210,126.2977066,-10.1832066,45.4427490
8720,8.6813307,-7.6733770,-6.0070214,-39.6641235,41.1908379,-250.1374054,0.9768293,5.5593081,2.8634505,112.8778610,-17.7099228,40.1374054
8730,5.4731169,-4.3502421,-2.9544299,-50.4045792,65.2671738,-250.1374054,0.8834559,5.3246775,2.3151813,95.2977066,-25.3206100,33.6106873
8740,2.5617826,-0.1388630,-1.3670821,-39.5190849,96.9770966,-250.1374054,0.7852941,4.9248476,1.9057748,77.7251892,-36.6870232,30.1679382
8750,0.9816177,2.5234756,-1.3287752,-15.1374044,121.6564865,-218.2442780,0.8619082,4.4938936,1.9847831,61.0381660,-47.7175560,26.5954189
8760,0.7781116,4.9248476,-2.9496415,10.4656487,142.0305328,-170.2748108,1.1444225,4.3622131,1.8626794,47.4885483,-57.0076332,22.1526718
8770,0.6033357,7.9798336,-5.1499014,31.1145039,173.2442780,-125.3206100,1.4053892,4.1443419,1.8578910,36.9847336,-64.3816757,18.2900772
8780,0.8259954,11.2622671,-7.7116842,43.8931313,197.7862549,-84.5419846,1.6567791,3.8857694,1.7740943,29.1984730,-69.7328262,12.7786255
8790,1.9871773,13.6588507,-9.9574337,44.4045792,209.3435059,-51.6183205,1.5945302,3.9982965,1.4125718,22.3816795,-70.6717529,8.3664122
