timestamp,rxacclX,rxacclY,rxacclZ,rxgyroX,rxgyroY,rxgyroZ,txacclX,txacclY,txacclZ,txgyroX,txgyroY,txgyroZ
0,4.0796990,8.4107876,-2.9783716,8.1068707,-49.7328262,-40.1832047,-0.3351865,8.3748751,6.2009506,-2.1908398,-0.9007633,-3.1068702
10,4.0222383,8.2264347,-2.7724714,-1.1145039,-43.5572510,-41.4732819,-0.3567342,8.3389616,6.1578555,-2.3053436,-2.2061069,-2.9923663
20,3.5386121,8.7148495,-2.8347204,-7.0076337,-34.9541969,-41.9541969,-0.4333483,8.3844519,6.1817970,-2.8396947,-4.0687022,-3.5114503
30,2.9903426,8.9614515,-2.7413468,-12.4885492,-24.9847336,-40.0763359,-0.3782819,8.3341732,6.1458845,-3.3206108,-5.5038166,-3.2595420
40,2.5210814,9.2128410,-2.8347204,-17.8931293,-15.1145039,-37.9541969,-0.3088504,8.3700867,6.0860295,-3.7175572,-5.2290077,-3.4809160
50,1.9345051,9.2679071,-2.6144550,-22.4503822,-7.0687022,-34.7633591,-0.3256098,8.3269911,6.3134775,-3.3893130,-4.3893127,-3.4961832
60,1.9345051,9.2655134,-1.8411317,-22.4809170,3.8396947,-32.1068687,-0.4118006,8.3269911,6.4283986,-2.8854961,-4.1221375,-3.0992367
70,1.8219782,9.5264797,-1.4365137,-18.4580154,20.1679382,-32.4961815,-0.3567342,8.3126259,6.4020624,-1.9236641,-3.5572519,-3.0229008
80,0.5243275,9.6605549,-1.8363433,-14.8167934,22.6488552,-29.3587780,-0.4501076,8.3030491,6.3278427,-0.9618320,-2.9694657,-2.8015268
90,-0.1484398,9.6581602,-2.2074428,-13.0229006,13.2977095,-24.5496178,-0.4716553,8.3102312,6.3517847,0.0992366,-2.9007633,-2.5801528
100,-0.2322364,9.6437950,-2.4923513,-12.7099237,3.5648854,-20.8702297,-0.4596844,8.3054428,6.2727766,0.4580153,-3.1603053,-3.0992367
110,-0.1340746,9.6390066,-2.7174051,-14.2748089,3.6030533,-16.4961834,-0.4548960,8.3581152,6.2153158,0.7633588,-4.1603055,-2.0610688
120,-1.0079538,10.0101061,-2.4803803,-13.0687027,-3.5419848,-14.6717558,-0.4788379,8.3317795,6.2440462,0.7251908,-4.7709923,-2.9465649
130,-0.7302278,10.1010857,-2.4085546,-9.5496187,-4.2748094,-11.2366409,-0.4261657,8.2695303,6.0525107,0.6564885,-5.6030536,-2.6793892
140,-0.9744351,10.9294748,-2.4109488,-4.0381680,-15.9923668,-9.3129768,-0.3902529,8.2240410,6.0860295,0.4503817,-5.8931298,-2.3816793
150,-0.6057299,10.5559816,-2.9831600,2.1068702,-16.7862587,-10.7099237,-0.3567342,8.2288294,5.9806852,0.3282443,-5.5419846,-2.7251909
160,-1.5634058,10.9558105,-4.0533628,3.0763359,-21.6030540,-11.7862597,-0.3687052,8.1474266,6.0070214,0.2061069,-5.1603055,-2.4503818
170,-2.0661855,10.1968527,-4.6016321,-1.4198474,-11.9694653,-4.9923663,-0.3902529,8.2862902,5.9447722,-0.2213740,-4.6946564,-2.7175572
180,-3.2991931,10.1010857,-4.7716198,-11.0687027,-17.4809170,11.0000000,-0.4022238,8.2407999,5.9615316,-0.5114504,-5.0305343,-2.8473282
190,-3.9480183,10.5823174,-3.6271970,-17.8473282,-16.3282452,32.1908379,-0.3830703,8.2575598,5.9399838,-0.9465649,-5.3282442,-2.7709923
200,-3.9695661,10.5990763,-3.1483591,-19.2137413,-15.8549614,59.1908379,-0.3375807,8.2264347,5.8849177,-1.6717557,-5.4961834,-3.1145039
210,-3.8211265,10.3596573,-2.6312141,-16.3282452,-27.2900772,85.9542007,-0.3639168,8.2455883,5.9519548,-2.1145039,-5.6183205,-3.4580152
220,-3.1339941,10.1226330,-2.5210814,-13.7938929,-45.4503822,108.8320618,-0.3256098,8.2096758,5.8777351,-2.5954199,-6.0229006,-3.6641221
230,-2.3247581,10.7858238,-2.4133430,-3.4580152,-69.2442780,127.1603088,-0.2609667,8.2264347,5.8274570,-3.7251909,-6.6183205,-3.9083970
240,-2.8682389,10.7499104,-2.7174051,3.4809160,-93.1679382,142.5267181,-0.3232156,8.2024927,5.8729467,-5.2595420,-7.7328243,-5.2900763
250,-3.3422885,10.4530315,-2.5833304,9.8473282,-118.0305328,158.2137451,-0.3663110,8.1761570,5.9639258,-6.7709923,-9.4732828,-6.3053436
260,-4.1826491,9.8281479,-2.2553265,22.4198475,-137.6106873,177.5267181,-0.5985473,8.2671366,5.8849177,-8.0687027,-10.9847326,-5.7938933
270,-5.2983413,9.1601686,-2.7868366,34.1908379,-146.7938995,206.5496216,-0.5793939,8.2384062,5.9830794,-8.9694653,-12.8091602,-5.9236641
280,-6.1889796,8.8489246,-2.9951310,42.2137413,-150.8244324,241.1832123,-0.5434810,8.2815018,6.0644817,-9.7175570,-14.7099237,-5.9312978
290,-6.6534524,8.3006544,-3.3973548,45.8854980,-155.2519073,250.1297760,-0.3854645,8.2527714,5.9423780,-11.1603050,-16.4351139,-7.0152674
300,-6.7659793,7.9822278,-3.1411765,49.1984749,-156.6870270,250.1297760,-0.3687052,8.2503767,5.8274570,-13.2595415,-18.2900772,-7.4961834
310,-5.6359220,7.9798336,-2.0613971,60.0000000,-155.0381622,250.1297760,-0.3687052,8.2815018,5.7891502,-15.8015270,-20.7862587,-8.0076332
320,-3.7421181,8.4921904,-0.8020535,81.6793900,-150.1526642,250.1297760,-0.3878587,8.2336178,5.7580256,-18.1526718,-23.5114498,-9.3816795
330,-0.3974355,9.2726955,-0.2537841,107.7022934,-136.1374054,250.1297760,-0.3423691,8.2048874,5.9735026,-20.1450386,-24.5954189,-9.4427481
340,2.4803803,10.3381100,-0.4189832,137.8396912,-114.2061081,250.1297760,-0.3423691,8.2312231,6.1099715,-21.2137413,-23.3129768,-8.9465647
350,5.4874821,10.5775290,-2.2888451,161.8549652,-88.7328262,250.1297760,-0.3902529,8.2096758,6.3661499,-20.7175579,-18.9923668,-8.3893127
360,6.3709383,10.0651722,-5.5712790,164.5038147,-58.2442741,250.1297760,-0.5985473,8.1665802,6.5433197,-18.4427490,-13.9389315,-6.3587785
370,5.5138183,9.2583303,-8.6669655,140.6793823,-23.2671757,250.1297760,-0.7086801,8.1737623,6.7683735,-15.1832066,-8.6183205,-4.5419846
380,4.5705075,6.8090749,-10.9582052,95.0916061,-0.4122137,250.1297760,-0.6991033,8.1019373,6.9168134,-11.1526718,-4.0687022,-2.6183207
390,4.0940638,3.0813217,-11.5016861,39.7251892,-2.5572519,250.1297760,-0.6392486,8.1641865,6.8425937,-7.6793895,-0.4809160,-0.8320611
400,4.7476778,-2.2864509,-10.3093796,-8.3664122,-23.6641216,228.3358765,-0.5267217,8.1402445,6.8928714,-4.6259542,2.0839694,0.0152672
410,5.8609757,-8.1809454,-8.7292147,-42.2824440,-61.8244286,205.1068726,-0.4668669,8.1761570,6.8832946,-2.9312978,3.1679389,-0.6412213
420,7.9319496,-15.1049414,-7.0149751,-65.9465637,-105.3511429,185.1526642,-0.4788379,8.2647419,6.8761120,-2.0381680,2.0610688,-0.3435115
430,11.9661589,-19.6131992,-3.0717452,-76.1526718,-137.1526642,171.1374054,-0.5722113,8.3509331,6.7372489,-2.5877862,-0.6870229,-1.1832061
440,17.7289734,-19.6131992,2.3822186,-60.0000000,-135.3587799,158.6717529,-0.5698171,8.3293848,6.6989422,-3.4732823,-4.9618320,-1.2977099
450,19.6126022,-19.6131992,4.6016321,-17.8778629,-80.8396912,155.0458069,-0.5147507,8.3892403,6.6247220,-5.1755724,-9.5648851,-1.7786260
460,18.7512913,-19.6131992,0.5147507,-1.5190840,4.6412215,193.4045868,-0.5147507,8.4969788,6.5888095,-7.4427481,-14.7175570,-1.8854961
470,15.6675758,-19.1152077,-1.6088953,-50.0992355,86.6946564,250.1297760,-0.4309541,8.5257082,6.5289545,-10.3053436,-20.2900772,-2.3358779
480,19.6126022,-7.9439206,3.7421181,-127.4503784,117.7938919,250.1297760,-0.3567342,8.5999289,6.6750002,-12.8244276,-25.1374054,-2.7862597
490,19.6126022,-0.1699875,14.5782194,-145.0763397,90.5343475,250.1297760,-0.3184272,8.5688038,6.8401995,-13.8854961,-26.7862587,-3.4961832
500,19.6126022,6.6223278,19.6126022,-65.8778610,46.2824440,176.2595367,-0.2873027,8.5400734,7.0748301,-12.0610685,-25.1068707,-2.7251909
510,19.6126022,8.4227581,19.6126022,64.6564865,13.1145039,-34.5801544,-0.2873027,8.4754305,7.3645267,-8.1603050,-20.5419846,-1.3358779
520,19.6126022,1.7286048,11.1760759,155.0686951,11.2671757,-233.8167877,-0.2154770,8.4850073,7.5871863,-2.3129771,-14.9923668,-0.2061069
530,19.6126022,-8.2479830,-2.4420733,153.5648804,65.3206100,-250.1374054,-0.2489957,8.5472565,7.7787213,4.9770994,-7.9847326,0.7709923
540,19.6126022,-17.1423969,-12.2438850,80.6030502,152.4809113,-250.1374054,-0.2442073,8.6286592,7.8697009,12.2366409,-0.5801527,2.9618320
550,9.8257532,-19.6131992,-15.4305506,-19.1374054,221.8625946,-250.1374054,-0.2801202,8.7004843,7.7595682,19.3664131,6.2061067,5.0839696
560,1.3575054,-19.6131992,-10.9701757,-84.1526718,224.4732819,-250.1374054,-0.3710994,8.7459745,7.7188668,24.9465656,10.0610685,6.4427481
570,-1.8626794,-15.1624022,-3.9144998,-85.9236679,164.9313049,-250.1374054,-0.3926471,8.8034344,7.7332320,28.6564884,10.2519083,7.0992365
580,1.5179161,-12.1840305,0.2298422,-38.7480927,93.6335907,-203.7099304,-0.5099624,8.8321648,7.4674768,30.0000000,7.6641221,6.9694657
590,5.3486195,-10.6421719,0.8475431,22.5190830,53.4045792,-185.3816833,-0.6033357,8.7459745,7.3549500,30.2061062,4.3816795,8.1603050
600,6.4762826,-8.1019373,-0.8762733,67.8015289,53.5877876,-186.3435059,-0.6991033,8.8249826,7.3717093,30.0305347,0.4503817,8.6717558
610,5.2193332,-4.0988522,-4.8434453,84.4274826,81.7251892,-182.3053436,-0.7398046,8.7651272,7.4028339,30.0916023,-2.4122138,10.1221371
620,3.7085996,-0.7110743,-8.3222027,67.3587799,116.0763321,-170.9618378,-0.7469871,8.6789370,7.5512733,31.0687027,-4.5038166,11.2290077
630,3.5888901,1.7477583,-10.2471304,29.1145039,149.3282471,-155.1984711,-0.6320660,8.5903521,7.6326761,33.1526718,-5.6412215,13.2061071
640,3.9671719,3.3327117,-10.3069859,-14.6946564,185.1374054,-139.6717529,-0.4572902,8.4993725,7.6135225,36.2824440,-6.3282442,14.1755724
650,4.5848727,4.4867110,-8.9949694,-49.4351158,221.6717529,-128.1297760,-0.3663110,8.3341732,7.5273318,40.0687027,-6.4351144,15.3511448
660,5.7269011,5.5090299,-7.2448173,-71.3893127,250.1297760,-118.3740463,-0.2130829,8.1953106,7.4555058,43.6030540,-6.0839696,16.7328243
670,6.1458845,7.0317345,-5.9399838,-80.2442780,250.1297760,-111.9542007,-0.2274480,8.1091194,7.1203194,47.0458031,-5.4198475,17.2977104
680,5.7676024,8.7818871,-5.2767935,-80.4045792,250.1297760,-104.5419846,-0.0239419,8.0348997,6.9599090,50.2366409,-4.6870227,17.8396950
690,5.5832496,9.8018112,-4.6279683,-77.5954208,250.1297760,-96.7099228,0.2154770,7.8170285,6.6175399,52.6564903,-3.6183207,18.4732819
700,5.8370337,11.2670555,-3.8259149,-72.9923630,250.1297760,-90.3129807,0.3543400,7.7188668,6.2751703,54.0228996,-3.1221373,19.1145039
710,7.2160869,12.1553001,-2.6168492,-68.8320618,223.6717529,-90.9542007,0.4668669,7.6757712,5.9830794,54.4885483,-3.6870229,19.6564884
720,8.6573887,13.1967726,-1.0654143,-64.2900772,191.3435059,-98.6106873,0.6823440,7.5823979,5.5042415,54.7251892,-4.9923663,20.2977104
730,9.8688488,13.6013899,-0.2466015,-60.1603050,164.0839691,-111.1145020,0.9840119,7.4507174,5.3318601,53.9847336,-5.9236641,20.0534344
740,10.1609402,13.4314032,0.3232156,-64.3435135,134.1755676,-123.5114517,1.2473727,7.4291697,4.9152708,53.3511467,-6.5267177,18.5877857
750,8.5879574,14.1257181,1.5131277,-71.9618301,92.9007645,-123.4580154,1.2737088,7.4483232,4.8673873,52.9160309,-8.0916033,17.7404575
760,7.2903070,15.8112268,3.2537034,-72.4274826,54.1984749,-110.3664093,1.7932479,7.5464849,4.6064205,52.4580154,-6.8854961,14.4885492
770,7.5369086,16.5294838,5.2384863,-59.9694672,13.9465647,-97.1908417,1.6663558,7.4818420,4.2329268,51.1908379,-6.8167939,10.6870232
780,8.9614515,15.9548788,6.3853035,-42.2442741,-22.5038166,-91.8396912,1.7621235,7.9965930,3.9839313,49.4122124,-2.6717558,7.7480917
790,9.7658987,15.4927998,7.3860745,-28.3282452,-55.4732819,-89.7480927,1.6472024,8.0803890,3.6894460,46.3053436,1.1679389,5.1832061
800,11.3891592,15.2126799,7.9151902,-15.3435116,-69.4122162,-87.2442780,1.4173602,8.1953106,3.6463506,42.9923668,3.3587787,1.7557251
810,12.4473906,14.9349537,8.8585014,6.3282442,-73.3587799,-90.0992355,1.0510491,8.5089493,3.7971845,40.1603050,3.9618320,-0.8320611
820,13.3954897,14.7889080,9.3708572,39.4580154,-62.9465637,-112.2519073,0.8116302,8.7316093,3.8354914,38.7099228,5.3129773,-0.5343512
830,13.0387554,13.9653072,8.6262646,72.7786255,-50.9771004,-146.9541931,0.3854645,9.0045462,3.7062054,37.8702278,6.8015265,0.5267175
840,11.7171631,12.2151546,6.4355812,97.2061081,-41.0534363,-183.5267181,0.2896969,9.2487535,3.5625539,36.8931313,8.1221371,2.5114503
850,9.6677370,10.7092094,4.7835903,109.1374054,-35.5648842,-209.9389343,0.3280039,9.4570484,3.1411765,34.1297722,10.4198475,2.7404580
860,7.5632443,8.9207497,3.3231349,115.1603088,-28.6717548,-228.3664093,0.3758878,9.6773138,3.1220231,29.1908398,13.1297712,3.4427481
870,5.1618724,7.1610208,2.1643472,118.6946564,-22.4045811,-239.2671814,0.0095768,9.6964674,3.1148405,24.1450386,16.7099228,4.7633586
880,2.4564383,5.8442163,1.5658000,120.8244247,-30.0687027,-242.5648804,0.0143651,10.0125008,3.4332676,20.8702297,20.3587780,5.2824426
890,1.2018831,4.8386569,1.7333932,126.7251892,-48.7328262,-243.9084015,0.1412572,10.0962973,3.9360476,19.7404575,23.6030540,3.3587787
900,1.1635761,3.7947903,2.0470319,138.9694672,-69.8320618,-250.1374054,0.2274480,10.1250277,4.7572546,21.5038166,27.3435116,-1.2290076
910,0.6919208,2.6336083,2.4492557,157.2213745,-88.3816757,-250.1374054,-0.0478838,10.2327662,5.5233951,26.7099228,30.7633591,-6.5877862
920,-0.2920911,1.7980363,2.4899571,177.3206177,-103.0763321,-250.1374054,-0.6129125,10.3596573,6.2201042,35.1984749,33.6106873,-8.7328243
930,-1.4652439,1.1180865,2.1475880,194.1984711,-111.2366409,-250.1374054,-1.3455344,10.2854376,6.4786768,46.0152664,34.0228996,-7.7633586
940,-2.3151813,0.5482694,1.5059452,204.6030579,-113.5954208,-250.1374054,-1.9297167,10.2064295,6.4020624,56.7557259,31.3282452,-2.5877862
950,-3.5410061,0.2609667,1.1707586,207.4885559,-108.5648880,-248.4427490,-2.0278785,9.9885588,6.0429344,65.3893127,27.8473282,3.3893130
960,-4.5130472,0.1125269,0.4836263,203.2137451,-100.2748108,-220.3435059,-1.6495966,9.7970228,5.2767935,71.7328262,27.8625946,9.3282442
970,-5.9567432,0.2322364,-0.5291159,190.1603088,-84.6564865,-181.0763397,-1.3144100,9.6390066,4.8266859,75.9694672,29.4656487,13.3206110
980,-6.9048424,1.2210367,-1.4101776,169.2213745,-67.5725174,-133.6183167,-0.8451489,9.4762020,4.2353210,77.4503784,30.4732819,15.8931293
990,-7.0868006,1.4556671,-2.0566087,137.5343475,-46.3053436,-81.6183243,-0.5219333,9.3924055,3.7828193,76.2290039,30.2595425,17.8396950
1000,-7.1322904,2.2074428,-2.2098370,98.6717529,-26.8625946,-29.5190830,-0.2011119,9.2200232,3.3829896,73.6030502,29.8396950,18.0381680
1010,-6.1674318,2.9711890,-2.0877333,53.5725174,-14.3129768,17.0229015,-0.0215477,9.0763721,3.1770895,70.5648880,27.9007626,16.9618320
1020,-4.5752959,3.4260850,-1.3910241,15.3358774,-9.0229006,52.0534363,0.0622489,8.9782104,3.0430148,67.5877838,26.2900772,15.3969469
1030,-3.2800395,3.5888901,-0.0814024,-10.7557249,-16.9847336,78.3511429,-0.0191535,8.9303265,2.6958573,64.3129807,25.8702297,13.9618320
1040,-2.5282640,4.0366035,0.2082945,-19.2213745,-64.0381699,100.9694672,-0.2681492,8.9279327,2.4564383,60.5877876,25.5877857,14.0534353
1050,-1.4987626,4.2448978,0.7230452,-15.8854961,-99.0534363,124.2900772,-0.4189832,8.9255381,2.2720859,55.7633591,25.4427490,15.5877867
1060,-0.4788379,4.5944495,0.9624642,-7.8778625,-121.6793900,145.3206177,-0.5410868,8.9231443,2.2457497,50.5572510,24.8854961,17.0916023
1070,0.9361281,5.6263452,0.9911944,7.3282442,-107.6412201,160.6335907,-0.6751614,8.8393478,1.9847831,44.8167953,22.6488552,20.0916023
1080,1.8459201,6.4116392,0.2466015,27.5038166,-51.6870232,165.0305328,-0.7565638,8.7316093,1.8459201,37.2977104,17.9847336,22.9236641
1090,2.4851687,7.4100165,-1.5586174,37.5496178,24.8167934,158.9389343,-0.7326220,8.7340031,1.7238164,28.6030540,10.8778629,26.0000000
1100,1.6495966,9.4738073,-4.8147149,25.6564884,69.6793900,140.8702240,-0.5099624,8.6286592,1.6376256,18.9770985,1.8778626,28.4809170
1110,1.3575054,11.5998478,-8.6430235,-26.7175579,60.3053436,96.0229034,-0.2178712,8.4251528,1.5945302,9.3740454,-7.5496182,28.5496178
1120,0.9480990,11.3747940,-10.8863792,-96.5725174,44.0305328,39.1603050,0.3280039,8.5640154,1.7333932,0.8473282,-14.4885492,26.8244267
1130,-1.5825592,11.0755205,-9.0596132,-148.5725250,38.7251892,13.3511448,0.7517755,8.5664101,1.8363433,-6.0534353,-17.1603050,24.8625946
1140,-2.9424589,10.2231894,-4.9751258,-175.8167877,47.7633591,16.4198475,0.9241571,8.5807753,2.2074428,-10.6183205,-16.6564884,22.8244267
1150,-3.5170643,9.4666252,-2.5019281,-173.5954132,68.4580154,31.6793900,1.0869620,8.6214762,2.4971397,-12.9847326,-15.3129768,20.3053436
1160,-5.0756817,11.2646618,0.1987177,-149.6641235,91.6488571,57.3816795,1.1085097,8.7531567,2.5210814,-13.8931293,-13.1297712,18.1755733
1170,-4.6040263,12.2821922,1.9584470,-102.3358765,90.3587799,82.4274826,1.2186425,8.8896255,2.5498118,-13.5496187,-10.5572519,16.1679382
1180,-2.4612267,12.2103662,1.4772149,-43.4427490,72.2290039,99.0076370,1.2689204,9.0332766,2.4947455,-13.2519083,-8.1603050,14.8091602
1190,-0.6224893,12.0810804,-0.4046180,4.1755724,60.9236641,111.2824402,1.3263810,9.1553802,2.5115047,-13.4732828,-6.3740458,13.3358774
1200,1.2617378,12.5240049,-2.9280937,27.2366409,53.8702278,121.2290039,1.2425843,9.1817169,2.3870070,-14.1145039,-4.8473282,12.9847326
1210,3.6655040,12.9741125,-5.2576399,26.8854961,44.9541969,119.2213745,1.3694763,9.1721401,2.3415172,-15.4122133,-3.8091602,13.0916033
1220,5.3965030,13.1991663,-6.0740585,10.2748089,30.7557259,105.2824402,1.4293311,9.1745338,2.3654592,-17.9236641,-4.4122138,13.7022905
1230,6.4858594,13.4170380,-5.7221127,-11.1832066,13.1297712,84.5496216,1.4676381,9.0979195,2.3463056,-20.8396950,-7.5877862,13.5725193
1240,6.6726060,13.0124197,-5.0277977,-31.2671757,-3.5343511,62.6259537,1.6950861,9.0308828,2.5905130,-23.1297703,-12.2137403,13.3129768
1250,6.1219425,12.4138727,-4.1922259,-49.4656487,-14.8778629,42.9771004,1.9321109,8.9470863,2.7054341,-24.1450386,-16.6488552,10.9770994
1260,5.5066357,11.9661589,-3.5194585,-65.1755753,-20.0839691,24.6793900,2.3103929,9.1146793,2.6934631,-24.2213745,-20.3664131,9.1374044
1270,3.9264708,11.0635490,-3.4308734,-79.6335907,-19.8702297,10.5038166,2.4684093,9.2511482,2.6479735,-24.3816795,-22.6717548,6.4885497
1280,2.2577207,10.5248566,-3.4165084,-97.3282471,-13.7633591,4.6641221,2.4875629,9.4690189,2.5115047,-25.5648861,-24.5419846,4.1450381
1290,0.7469871,10.0460186,-2.9735832,-113.8702316,-5.6793895,5.3893127,2.4803803,9.6988611,2.3965836,-27.4198475,-26.7709923,3.1832061
1300,-1.1180865,9.3301563,-2.2649033,-123.2977066,1.7251909,13.3206110,2.7748656,10.0101061,2.4731977,-30.4732819,-29.0534344,4.6870227
1310,-3.2920105,8.8944139,-1.8100072,-125.1068726,5.1221375,35.6335869,2.9616125,10.1058741,2.3032103,-34.2824440,-29.7251911,5.8702292
1320,-5.2073622,8.4610653,-2.4708035,-127.6106873,5.4198475,73.6641235,3.0334380,10.0508070,2.4803803,-38.3435097,-29.3664131,6.6488547
1330,-5.1834202,8.2982607,-1.2282192,-123.8320618,-5.5725193,115.9389343,3.0741394,9.8999729,2.8586621,-40.9694672,-28.6946564,5.8625956
1340,-4.3741841,8.6502066,0.7182568,-98.4503784,-31.4580154,150.0458069,2.8706331,9.6701307,3.2752512,-41.3206100,-27.4732819,3.9847329
1350,-3.5314295,9.1242561,0.5841822,-61.4122124,-60.2977104,176.1221313,2.4779861,9.4714136,3.6798692,-39.0152664,-24.9007626,0.8167939
1360,-2.2337787,10.1250277,-0.7565638,-32.4045792,-81.7022934,196.1603088,2.0446377,9.4738073,3.9168940,-34.7175560,-21.6793900,-3.1374047
1370,-0.0646431,11.1904411,-2.1667414,-15.1297712,-90.3053436,206.7251892,1.4389079,9.5001440,4.0318151,-29.0305347,-18.0305347,-5.8778625
1380,1.0917504,11.8919392,-4.4938936,-17.4503822,-84.6870193,206.3511505,0.9241571,9.4139528,3.9001346,-22.9694653,-12.7175570,-7.8854961
1390,1.8004304,12.2774038,-5.7101417,-36.4656487,-68.2137375,202.5648804,0.4548960,9.2655134,3.7014170,-16.7480907,-6.5496182,-9.7022905
1400,1.7549409,11.9781294,-4.9248476,-56.5877876,-60.2061081,198.7022858,-0.0981618,8.9375095,3.2920105,-10.0152674,2.0916030,-11.6488552
1410,0.8092360,11.5328102,-3.3446827,-65.5419846,-61.0839691,204.7709961,-0.6296718,8.5903521,3.1842721,-3.5267177,12.4198475,-14.2595415
1420,0.2896969,10.8337069,-2.1380112,-64.9083939,-59.3435097,226.1068726,-1.2952565,8.4826136,3.0645626,3.2900763,22.3129768,-16.7251911
1430,-0.1699875,10.2351599,-1.3575054,-58.3969460,-58.0152664,250.1297760,-1.7980363,8.5017672,2.6886747,7.7862597,30.4732819,-19.6946564
1440,0.5889706,9.7635050,-1.2449785,-49.2290077,-60.7022896,250.1297760,-2.7652888,8.5711985,2.2218077,8.7557249,33.5496178,-19.3282452
1450,0.5530578,10.1824875,-2.0446377,-38.1908379,-46.6183205,250.1297760,-3.2848279,8.7459745,1.7860653,4.1908398,27.9465656,-14.4503813
1460,1.2569494,9.7323799,-2.8083842,-34.5954208,-14.1221371,250.1297760,-3.1315999,8.8656836,1.0821736,-6.3129773,15.1832066,-7.4961834
1470,4.4986820,8.4419117,-3.2728570,-35.3816795,19.0305347,250.1297760,-2.2409613,8.8225880,0.6129125,-21.5190830,-1.5343511,0.4503817
1480,8.3078375,6.4044566,-3.0190730,-41.0610695,58.7709923,250.1297760,-0.8523315,8.8704720,0.6129125,-38.3282433,-16.2900772,6.4045801
1490,11.1234045,4.4005203,-0.9911944,-48.4122124,117.3893127,250.1297760,0.8044477,8.8417416,1.0175306,-52.7862587,-26.1679382,8.4732828
1500,16.5653973,2.5354466,-5.1594782,-77.9465637,121.7938919,250.1297760,1.8483143,8.6310530,1.8147956,-62.3129768,-30.6183205,5.3511453
1510,19.6126022,-3.3159523,-6.6965480,-146.6030579,110.6488571,227.7862549,2.6934631,8.5137377,2.6383967,-65.5038147,-30.7022896,1.1908396
1520,18.7800217,-11.6213961,-6.8042865,-245.8320618,85.5343475,61.5572510,3.2704628,8.3916340,3.4667864,-62.9847336,-25.9541988,-4.9007635
1530,13.1153698,-19.6131992,0.5985473,-250.1374054,34.4122124,-73.4656525,3.3829896,8.3796635,4.0437860,-56.4503822,-17.2137413,-11.0534353
1540,5.9016771,-19.6131992,8.2312231,-250.1374054,-52.1221390,-117.7328262,3.2848279,8.4538832,4.5441718,-47.1984749,-7.3129773,-17.1908398
1550,-4.1108232,-19.6131992,15.4449158,-250.1374054,-138.9923706,-1.5877863,2.9664006,8.5999289,4.7093706,-37.4961815,2.4351146,-22.5572510
1560,-7.4124107,-19.6131992,19.6126022,-250.1374054,-229.7786255,231.2900696,2.6479735,8.9063845,4.9440012,-28.5190830,10.2671757,-25.9160309
1570,6.1722202,-19.6131992,19.6126022,-119.1221390,-250.1374054,250.1297760,2.2553265,9.3732519,4.7524662,-21.2671757,15.8702288,-28.2061062
1580,19.6126022,-14.4345684,19.6126022,109.9083939,-250.1374054,250.1297760,2.0159075,9.7994175,4.3981261,-17.9236641,19.2824421,-28.5725193
1590,19.6126022,-0.2154770,19.6126022,250.1297760,-200.6335907,250.1297760,1.7214222,10.0579901,3.9695661,-19.5801525,19.4503822,-28.5038166
1600,19.6126022,11.0467901,10.2255831,250.1297760,-199.4885559,26.0076332,1.5586174,10.1154509,3.8091555,-24.8931293,17.2824421,-26.8702297
1610,19.6126022,11.1688938,-7.6015515,250.1297760,-122.9007645,-188.3893127,1.3191984,10.0579901,3.9719603,-32.4961815,12.7709923,-25.8702297
1620,19.6126022,1.9297167,-13.7091284,93.8244247,51.7709923,-250.1374054,1.1156923,9.8712435,4.3382711,-39.9923668,5.8167939,-24.1450386
1630,19.6126022,-10.3189564,-11.3221216,-43.4198456,189.7557220,-250.1374054,1.0534433,9.7898407,4.9416070,-45.5648842,-1.2595420,-22.5343513
1640,12.1098099,-19.6131992,-5.6909885,-100.8549652,250.1297760,-250.1374054,1.1132981,9.6533718,5.3486195,-48.9236641,-7.5801525,-21.4503822
1650,-3.3518653,-19.6131992,1.0773853,-79.8549652,207.9007568,-250.1374054,1.0773853,9.5169029,5.8298512,-50.2824440,-12.7633591,-20.2595425
1660,-11.3388815,-19.6131992,7.5584559,0.9389313,54.1984749,-250.1374054,1.1324517,9.2846670,6.2703824,-48.9771004,-15.7251911,-18.7404575
1670,-8.1210909,-18.6267948,7.3429790,103.7633591,-63.9618340,-250.1374054,1.1923064,9.2296000,6.9168134,-44.9771004,-16.4122143,-15.4198475
1680,-1.1252691,-14.8583393,4.4220681,168.7480927,-126.6488571,-199.9618378,1.3718705,9.1458035,7.2903070,-38.5648842,-14.6030531,-12.4198475
1690,4.5729017,-9.7754755,1.1731528,183.4885559,-119.9007645,-190.1603088,1.6088953,9.1074963,7.5488791,-30.3587780,-11.4503813,-8.4427481
1700,7.8194227,-5.7556314,-1.7381816,159.7862549,-73.9542007,-205.7938995,1.9225341,9.1122847,7.5488791,-22.5267181,-8.1908398,-6.6870227
1710,9.0739784,-2.5234756,-3.8785870,109.4198456,-1.1832061,-224.2977142,2.2409613,9.1888990,7.6087341,-15.7480917,-6.4885497,-5.6717558
1720,8.6933022,-0.3639168,-4.0749106,54.8091621,88.5725174,-236.3587799,2.3319404,9.1122847,7.5297260,-10.0076332,-6.1221375,-6.5572519
1730,6.5624733,0.6153067,-3.0885043,16.5954189,156.6106873,-238.2137451,2.2792683,9.1888990,7.6039457,-4.8167939,-7.2519083,-7.7557254
1740,3.8426740,0.7038917,-1.5011568,3.7404580,176.2366486,-230.2900696,2.3750360,9.2080526,7.7906923,0.2748092,-9.5267172,-10.2671757
1750,2.3175755,1.3072275,0.5841822,14.2290077,151.2824402,-215.4961853,2.4708035,9.3708572,7.8242111,6.5190840,-11.4198475,-13.4885492
1760,2.0135133,2.5641768,1.8124014,40.0381660,113.0000000,-195.2748108,2.5426292,9.5552101,8.1139078,12.9770994,-13.3587790,-16.1526718
1770,1.6136837,4.7357068,1.2665262,65.0763321,84.4427490,-168.0915985,2.4516499,9.8832140,8.1210909,19.9236641,-16.0687027,-18.6793900
1780,0.1029501,7.8026633,-0.7326220,74.8091583,81.8549652,-131.7557220,2.2289903,10.0675669,8.0588417,27.0229015,-18.3206100,-20.6106873
1790,-0.5698171,11.2263546,-1.9464760,70.6641235,89.7709961,-90.3816757,1.7573351,10.1872759,8.0708122,33.9923668,-21.1755733,-21.6488552
1800,0.9935886,13.3164816,-2.8682389,61.6564903,95.7938919,-58.9312973,1.2449785,10.2327662,8.1450329,42.1832047,-24.0229015,-21.5801525
1810,4.0533628,13.5702658,-3.1483591,48.3129768,101.0839691,-45.4274826,0.5027798,10.2926207,7.9654684,51.2671738,-25.9083977,-20.2290077
1820,6.6558466,14.0227680,-3.0765336,34.9236641,114.8244247,-50.8702278,-0.0167593,10.4051476,7.5752153,60.8854980,-26.2442741,-16.8167934
1830,6.3374195,14.6165266,-2.7221935,20.7022896,135.3129730,-59.6641235,-0.4046180,10.4745789,7.3956513,70.1374054,-25.8320618,-12.5038166
1840,4.6830344,14.9277716,-2.1308286,7.2366414,154.0000000,-56.2519073,-0.6679789,10.4123297,6.9263902,79.2213745,-25.0916023,-7.8549619
1850,4.3406653,14.9181948,-1.1085097,2.0534351,158.2290039,-45.9465637,-0.7948709,10.2902260,6.4619174,87.4961853,-23.1526718,-2.5725191
1860,4.6614871,14.5447006,-0.0981618,8.6030531,141.4656525,-38.4961815,-0.7948709,10.2710724,5.8083038,95.7022934,-20.6717548,1.6488550
1870,5.3845320,13.8671455,0.3687052,23.0610695,107.2671738,-33.6030540,-0.7876883,10.0915089,5.1834202,101.2290039,-17.4503822,4.9312978
1880,6.4691000,13.1728306,0.4189832,37.1603050,62.6335869,-33.3511467,-0.7589580,9.9694052,4.2018023,103.2442780,-14.3816795,7.4427481
1890,7.6733770,13.0339670,0.7613522,49.9923668,16.0381680,-38.3511467,-0.7254394,9.7802639,3.3398943,102.5190811,-12.5954199,10.1221371
1900,8.3102312,13.0219965,0.8834559,62.6793900,-15.7938929,-48.8931313,-0.4525018,9.5097208,2.5569944,97.1984711,-12.5190840,10.4503813
1910,7.8481531,12.8424320,0.3639168,66.8778610,-26.1145039,-57.1450386,-0.5051740,9.3397331,1.9967541,87.2290039,-19.6412220,8.7938929
1920,6.9766679,13.1010046,0.2059003,58.4809151,-14.4503813,-53.2442741,-0.4740495,9.4738073,1.5059452,74.2137375,-29.4503822,8.4961834
1930,7.1849627,13.2566271,0.8451489,48.5038185,11.4503813,-48.3206100,-0.3280039,9.2319946,1.2593436,60.8320618,-37.5038185,11.0687027
1940,7.9774394,13.1321287,1.0845678,41.2595406,37.8625946,-49.4885483,-0.0407012,9.0524302,1.0678085,48.2442741,-42.1450386,13.7709923
1950,8.3844519,13.0483322,0.8786675,34.6335869,61.9083977,-57.5572510,0.2154770,8.6693602,1.0295014,36.5725174,-48.1221390,15.4885492
1960,7.9918046,12.6485033,0.9265513,29.2442741,79.0305328,-70.2671738,0.6081241,8.3748751,1.1276633,26.8015270,-51.4045792,14.8549614
1970,6.9239960,12.2199430,1.2234308,28.6564884,84.5496216,-80.9542007,0.9241571,8.1665802,1.1899122,20.0916023,-49.1450386,12.5648851
1980,5.6311336,11.5854826,1.5993185,34.0839691,73.9542007,-88.9236679,0.9672526,7.8289995,1.6376256,16.0229015,-43.4427490,11.5190840
1990,4.2832050,11.0731258,1.9776005,44.5114517,53.0228996,-93.5648880,1.0414724,7.6685886,1.8219782,15.1526718,-36.0458031,10.6488552
2000,3.6080434,10.4937325,2.0566087,57.5114517,28.0076332,-95.4274826,1.1037214,7.5967631,1.9608412,15.0610685,-28.8931293,9.0610685
2010,3.1459649,9.8209648,1.6495966,70.6259537,4.2137403,-97.0916061,1.0797794,7.6087341,1.9345051,14.7938929,-21.6183205,8.1603050
2020,2.3247581,9.2008705,1.1563935,79.9007645,-16.0152664,-96.0000000,0.8882443,7.6254935,1.9584470,13.6793890,-15.9007635,6.6946564
2030,1.3790531,8.8489246,0.3423691,84.9160309,-33.5190849,-89.8854980,0.7924767,7.6638002,2.1547706,12.6030531,-11.3664122,5.9083967
2040,0.7948709,8.7292147,-0.0143651,85.5877838,-45.5877876,-79.7251892,0.6057299,7.8266053,2.3056045,11.3664122,-8.8854961,5.4503818
2050,1.1061156,8.5185261,0.1508339,85.4274826,-52.8015251,-69.4274826,0.4740495,7.8385763,2.3008161,9.5038166,-9.1603050,5.1908398
2060,0.6057299,7.2783360,-0.8714849,74.8473282,-43.1145020,-45.9541969,0.6344602,8.2144642,2.1284344,2.9847329,-13.9465647,3.8015268
2070,0.7110743,6.6678176,-1.0797794,64.2290039,-38.0687027,-37.8015251,0.7493813,8.3126259,1.9632354,-0.1984733,-14.9847326,2.0534351
2080,0.7541697,6.1794028,-0.7421987,53.7786255,-35.5801544,-30.1832066,0.8786675,8.4155760,1.9440818,-3.5419848,-15.3435116,0.0458015
2090,1.0342898,6.0908179,-0.2609667,47.1832047,-35.4427490,-24.1068707,0.8499373,8.5520449,2.0326669,-5.8931298,-13.6259546,-1.3435115
2100,1.4724265,5.8513989,-0.7972651,41.7251892,-51.3587799,-22.6488552,0.8259954,8.6956959,2.1116750,-7.5038166,-12.1984730,-2.5419848
2110,1.1516051,6.1961622,0.0598547,38.2519073,-60.7862587,-23.5954189,0.8571198,8.8944139,2.1499822,-8.1603050,-10.4427481,-3.9160306
2120,1.0869620,5.7173243,0.3280039,35.8702278,-67.9312973,-19.6106873,0.8882443,9.0596132,1.9823889,-9.0916033,-8.8473282,-5.8244276
2130,1.6088953,4.9440012,0.4094064,33.9160309,-70.7786255,-16.6564884,0.8499373,9.2966375,1.8938038,-10.1145039,-7.5572519,-6.0152674
2140,2.0661855,4.6471219,0.4189832,30.8320618,-69.6259537,-16.5038166,0.8523315,9.5719690,2.0087249,-10.9389315,-6.6412215,-8.0152674
2150,2.1835008,4.3981261,0.2250538,25.2290077,-62.9618340,-16.9160309,0.9145803,9.7994175,2.0733681,-11.8320608,-5.3816795,-8.6870232
2160,2.0613971,4.1467361,0.1891410,18.1145039,-49.2824440,-15.8549614,1.0127422,10.0771437,2.2816625,-12.5801525,-5.0458016,-9.8091602
2170,1.8387375,3.9623835,-0.1077385,9.1984730,-31.8778629,-14.3893127,1.0414724,10.2567072,2.2936335,-13.7022905,-6.1374044,-10.7022905
2180,1.6926919,4.1275826,-0.1795642,-0.5725191,-10.2977095,-10.9083967,1.1228749,10.4626083,2.3894010,-14.9618320,-7.8473282,-11.5114508
2190,1.4939742,4.3071470,-0.5339043,-12.8702288,13.9007635,-6.5267177,1.0702027,10.5895004,2.7509236,-15.4809160,-9.1755724,-13.4809160
2200,1.0366840,4.3143296,-0.8331779,-26.2366409,34.9389305,0.2442748,0.9696468,10.5942879,3.0358322,-14.8015270,-9.5877867,-15.2213745
2210,0.9193687,4.3526363,-1.1731528,-39.9541969,48.1145020,10.1908398,0.6703730,10.6421719,3.3398943,-12.8549614,-9.8702288,-15.9083967
2220,1.2354017,4.6255741,-1.2258250,-53.1297722,55.5496178,20.8091602,0.4860204,10.6948442,3.6319854,-9.6564884,-10.9618320,-15.7328243
2230,1.5155219,5.2313042,-0.7278336,-61.9465637,62.3664131,28.4885502,0.4237715,10.6972389,3.6774750,-5.7175574,-10.6412210,-14.5267172
2240,1.9416877,5.8705525,-0.6320660,-69.0000000,66.3511429,33.3893127,0.3303981,10.6182299,3.8570392,-1.4961832,-9.0458012,-13.2748089
2250,2.4253139,6.4403696,-0.7829000,-74.4274826,66.7251892,34.3664131,0.2537841,10.5104914,3.7684543,2.8625953,-6.1679387,-12.3053436
2260,3.0214672,7.0437055,-1.3072275,-82.0076370,61.1145020,30.8625946,0.1699875,10.4793673,3.7397239,7.2977099,-2.5419848,-11.2519083
2270,3.5481887,7.6781654,-1.9225341,-93.7862625,53.6106873,23.8320618,0.0071826,10.3381100,3.7229645,11.3740454,1.2213740,-9.6641226
2280,3.7540891,7.6326761,-1.3575054,-107.0305328,47.6030540,14.5877867,-0.1675933,10.3428984,3.6487448,14.6259546,4.3435116,-8.0839691
2290,3.7133877,8.0396881,-0.6895266,-115.7633591,39.1221390,5.3206105,-0.4908088,10.1609402,3.5146701,17.4122143,6.5038166,-4.6183205
2300,2.8131726,9.1458035,-0.2681492,-123.5572510,35.3740463,0.4045801,-0.5841822,10.0747490,3.4380560,19.3206100,7.6641221,-1.5267175
2310,1.8842272,10.0101061,0.7278336,-126.5267181,30.0152664,-1.1374046,-0.6129125,9.9765873,3.1746953,19.7251911,7.6030536,2.6564887
2320,0.7398046,11.1641054,1.7190280,-121.4732819,18.0916023,-1.6946565,-0.3399749,9.7898407,2.9903426,18.5801525,7.5877862,6.1374044
2330,-0.6584021,12.3444405,1.8004304,-112.0839691,4.9389315,2.9160306,0.0095768,9.6868906,2.7341642,16.3206100,6.4351144,9.4351149
2340,-1.3120158,13.0483322,2.1643472,-102.6870193,-9.0687027,11.5190840,0.3926471,9.5480280,2.7221935,14.2137403,6.2290077,11.0458012
2350,-2.1523764,14.1209297,2.3223639,-92.3358765,-18.1145039,23.4351139,0.7350162,9.2966375,2.6790979,12.7099237,6.6717558,10.4732828
2360,-3.7349355,15.4880114,2.6623387,-81.8549652,-27.5496178,42.7251892,1.0702027,9.1481981,2.6168492,11.7709923,7.9694657,8.8320608
2370,-4.2879934,16.6156750,4.1060348,-67.3053436,-44.2824440,70.0076370,1.0510491,9.0452480,2.3822186,11.3511448,9.6106873,7.8320613
2380,-3.2728570,16.3738613,6.2871413,-39.0534363,-60.6259537,98.4427490,1.0366840,9.0500364,2.2720859,10.7251911,10.2671757,6.1832061
2390,-1.4197544,13.9461536,0.6560079,75.4274826,-149.7099304,168.9007568,1.2713146,9.3133974,2.3894010,-15.0000000,3.0458016,0.4274809
2400,-1.2545552,13.7570124,-0.3902529,107.3129807,-186.1755676,188.4809113,1.4484847,9.3349447,2.3894010,-17.1679382,0.7557252,-0.5496183
2410,-0.6775556,14.0131912,-1.9033806,127.0687027,-201.7480927,205.4732819,1.3958124,9.2942438,2.5593886,-19.7786255,-1.9770992,-2.7404580
2420,-0.1747758,14.1017761,-3.0669568,135.8396912,-203.0305328,218.9160309,1.4221486,9.2367830,2.5115047,-22.9236641,-5.3206105,-3.5190840
2430,0.0143651,14.3148584,-3.6224086,138.1374054,-202.4656525,231.8244324,1.4963684,9.1577749,2.6383967,-24.9923668,-8.7099237,-3.9160306
2440,0.3902529,14.4225969,-3.9959023,139.3740387,-199.5190887,244.0686951,1.5658000,9.1170731,2.8490853,-25.9847336,-11.7175570,-2.8320611
2450,0.4309541,14.4034433,-4.3670015,138.6412201,-194.0305328,250.1297760,2.0135133,9.1194677,2.7772598,-26.6564884,-13.8854961,-2.3969467
2460,0.3591284,13.5798426,-5.2528515,133.1221313,-188.3587799,250.1297760,2.5186872,9.2176294,2.6695213,-29.3053436,-16.8702297,-2.6335878
2470,0.6224893,12.4641504,-5.9974446,120.5496216,-179.1297760,250.1297760,2.8730273,9.2559366,2.4708035,-34.6183205,-20.5496178,-3.9007633
2480,1.9416877,10.8169479,-5.7676024,108.6717529,-166.4656525,250.1297760,3.1052637,9.3373384,2.5617826,-41.3435097,-25.0839691,-4.4656487
2490,2.5522060,8.7196379,-6.3613615,95.2824402,-151.0458069,250.1297760,3.3542595,9.3469152,2.7126167,-48.0381660,-30.9236641,-7.3282442
2500,3.2130022,6.5768385,-7.3357964,71.3053436,-129.8549652,250.1297760,3.3758070,9.4259243,3.0932927,-54.7709923,-37.9312973,-10.0534353
2510,3.8666160,3.7062054,-8.1186962,32.6259537,-100.9542007,250.1297760,3.2991931,9.4953556,3.3973548,-59.9083977,-44.2442741,-14.8702288
2520,4.5537481,0.0526722,-7.2376347,-13.0992365,-79.6793900,232.4732819,2.9520357,9.6509781,4.0174499,-62.8320618,-49.2290077,-19.3664131
2530,5.2169390,-5.2456689,-5.4036856,-56.6030540,-74.2213745,193.8320618,2.4253139,9.6509781,4.6136031,-62.1221390,-51.8778610,-23.1984730
2540,5.4108682,-12.1529055,-5.4443870,-109.6717529,-58.3358765,158.4961853,1.7669119,9.5073261,5.2624283,-55.9541969,-49.7786255,-27.0381680
2550,7.2256637,-19.6131992,-3.9408360,-166.3664093,-42.6259537,135.8091583,0.8810617,9.1290445,5.9423780,-43.8625946,-42.1984749,-29.9007626
2560,11.7075863,-19.6131992,0.6464311,-195.6335907,-35.3358765,114.8320618,0.1699875,8.8561068,6.2009506,-25.6641216,-28.1068707,-31.5419846
2570,17.6403885,-19.6131992,5.5976148,-176.9236603,1.2900764,97.2366409,-0.6200951,8.5831690,6.0716643,-3.4045801,-9.3664122,-33.5648842
2580,19.2157650,-19.6131992,3.6200144,-141.2137451,122.2366409,115.3816757,-1.3383518,8.5735922,5.5114241,20.7251911,13.2366409,-34.3206100
2590,17.3075962,-19.6131992,-0.5889706,-151.7786255,250.1297760,190.8931274,-2.1882892,8.7100611,4.5513539,40.5496178,33.5877876,-33.3435097
2600,19.1966114,-13.8503857,3.1675127,-203.2595367,250.1297760,250.1297760,-3.1076579,8.9207497,3.2177906,52.3282433,45.4961815,-29.1297703
2610,19.6126022,0.7278336,19.6126022,-194.3587799,97.4961853,206.2977142,-3.6966286,9.2248116,2.1906834,54.8931313,46.0381660,-22.4580154
2620,19.6126022,9.3277617,19.6126022,-48.8702278,-130.5954132,15.4045801,-3.8043671,9.4426832,0.8523315,47.8244286,40.8396950,-10.9389315
2630,19.6126022,3.0525916,19.6126022,161.4961853,-179.5648804,-173.0458069,-3.0478032,9.7204094,-0.1364688,31.0152664,26.6259537,1.7557251
2640,19.6126022,-8.6573887,19.6126022,250.1297760,2.9083970,-250.1374054,-1.7525467,9.9454632,-1.1109039,5.8244276,7.8244276,12.5648851
2650,19.6126022,-19.6131992,0.1675933,250.1297760,217.6183167,-250.1374054,0.0981618,9.9119444,-1.1731528,-22.9694653,-11.4503813,19.5114498
2660,9.7754755,-19.6131992,-12.1433287,172.0229034,250.1297760,-250.1374054,1.4748207,9.5863342,-0.2849085,-49.1145020,-26.7480907,21.9465656
2670,2.1284344,-19.6131992,-11.2119894,108.2519073,250.1297760,-250.1374054,2.5905130,9.4738073,0.9888002,-68.5877838,-35.4809151,20.0534344
2680,3.5170643,-16.2086620,-5.3031297,120.0610657,147.3435059,-201.4351196,3.3375001,8.7148495,2.5713594,-76.4809189,-37.3129768,15.0000000
2690,8.9279327,-12.0643206,-3.8666160,169.4274750,60.9923668,-192.9160309,3.6607156,8.5376797,3.9887197,-75.4656525,-32.7099228,6.7480917
2700,10.2758608,-8.2503767,-7.5393028,189.3816833,38.7938919,-215.4351196,3.5505829,8.2791071,5.3366485,-67.6335907,-24.7099228,-3.1374047
2710,8.8369532,-5.2097564,-11.6716738,156.4961853,64.0916061,-233.6183167,3.1962428,8.6765423,6.0860295,-56.1068687,-15.7557249,-12.7480917
2720,6.1219425,-2.4013720,-13.3332415,92.2824402,106.7328262,-232.5725250,2.4851687,8.6980906,6.7492199,-39.9007645,-5.1221375,-20.9160309
2730,3.4955165,0.7134684,-11.8464499,30.4809170,141.0229034,-212.4198456,2.0206959,8.8848372,6.8593526,-22.6717548,6.3053436,-26.3206100
2740,3.6487448,2.3391230,-8.1091194,0.0763359,152.4732819,-191.7175598,1.1539993,9.1074963,6.6031747,-6.8167939,16.4961834,-29.8091602
2750,3.1459649,3.7804251,-5.8825235,4.9923663,145.9847260,-174.8167877,0.1699875,9.3086090,5.8897061,4.4274807,23.8244267,-29.5496178
2760,1.2401901,5.0182209,-7.6278877,10.6793890,123.8549652,-144.8244324,-0.4477134,9.6844959,5.2791877,10.7633591,27.1984730,-26.1755733
2770,2.6168492,6.9455438,-8.6741486,-1.6106870,96.6259537,-110.9236679,-0.7781116,9.9789820,4.7069764,12.0152674,27.7862587,-22.2595425
2780,5.2241216,9.0979195,-8.3078375,-21.8931293,85.7099228,-91.8549652,-1.0702027,10.1824875,4.2209558,10.5725193,25.9007626,-16.2824421
2790,7.7595682,11.3125448,-7.0389171,-41.7633591,99.5343475,-87.1984711,-1.1061156,10.3141680,3.9839313,4.3129773,20.0687027,-11.3664122
2800,9.5863342,12.2367020,-6.1075773,-57.0610695,118.7251892,-98.5267181,-1.1899122,10.2519188,3.8953462,-3.6488550,11.1068707,-5.2366414
2810,10.7546988,12.5886478,-5.1259594,-69.4122162,139.5801544,-122.9083939,-0.8786675,10.0412302,4.0557570,-11.3740454,0.5572519,1.2366412
2820,9.4331064,12.8807392,-4.4124913,-80.9007645,159.7786255,-149.9084015,-0.3375807,9.7515335,4.3310885,-15.9618320,-7.4274807,5.6183205
2830,7.0556765,12.2295198,-4.1563129,-94.0534363,165.6488495,-163.8778687,0.5027798,9.5504217,4.7069764,-16.8320618,-11.8167934,8.5954199
2840,3.4165084,11.2167778,-5.6646523,-119.5114517,166.1221313,-156.9923706,1.2737088,9.3325500,4.8099265,-14.2366409,-11.7404585,9.0152674
2850,1.7381816,11.4585905,-4.2927818,-148.3206177,164.2824402,-135.9160309,1.8483143,9.3110027,4.7955613,-10.0152674,-8.5496187,7.2290077
2860,1.0295014,11.5591469,-0.8499373,-157.4198456,148.4274750,-115.7328262,2.0230901,9.4043760,4.5537481,-6.2900763,-3.2519083,5.9465647
2870,1.0606259,12.0523500,2.5162930,-141.6641235,113.1755753,-101.1297684,1.9297167,9.4283180,4.4077029,-4.3740458,1.8320611,3.8702290
2880,1.7381816,12.7873659,5.2432747,-108.5572510,67.7480927,-91.2748108,1.6400198,9.3828287,4.3717899,-3.4732823,5.7862597,4.9465647
2890,3.0956869,14.4824524,6.2057390,1.3664122,-11.8396950,-84.5648880,1.6376256,9.3971939,4.9463954,-7.0229006,4.9312978,1.2290076
2900,2.7652888,14.4656925,4.5226240,16.9007626,-15.1221371,-73.9542007,1.5681942,9.5360565,5.2432747,-7.0610685,2.7022901,-1.0458015
2910,2.1427996,14.5566721,2.6216373,11.2671757,-14.9541988,-52.3969460,1.5466464,9.6557665,5.3246775,-6.0381680,0.2748092,-2.2595420
2920,3.2608860,15.1671906,3.3015873,-0.4274809,-8.5572519,-29.8549614,1.3670821,9.8018112,5.4252334,-4.2137403,-1.9236641,-3.0992367
2930,5.2791877,15.2031031,5.5066357,1.7633588,0.2442748,-21.2671757,1.3359578,9.9215212,5.5808558,-1.3893130,-3.8015268,-3.9847329
2940,6.0165982,14.5351238,6.7875271,18.7022896,4.4885497,-21.7557259,1.2689204,9.8592720,5.5521255,2.0763359,-4.1832061,-5.0152674
2950,6.4930420,13.0387554,6.3446021,85.2900772,-41.7633591,-36.3129768,0.9073978,9.8808203,5.7699966,16.4503822,-2.3358779,-7.9312978
2960,6.2201042,12.2367020,5.4874821,102.8320618,-68.1755753,-50.9847336,0.8140244,10.0364418,5.9615316,23.7022896,0.3282443,-8.8854961
2970,5.3653784,11.2191715,4.1802549,114.5954208,-89.4427490,-63.9007645,0.4501076,10.1992474,5.7508430,30.7099228,3.1221373,-8.6946564
2980,4.5298066,10.3955708,3.1004753,118.0305328,-100.7328262,-71.9923630,0.2513899,10.4051476,5.6335278,36.0916023,3.7557251,-6.7938933
2990,3.9815371,9.2104464,2.2242019,114.9007645,-102.5343475,-77.9083939,0.1005560,10.6062593,5.2839761,39.7099228,2.9541984,-4.8931298
3000,3.4045374,8.3198080,1.6759326,109.2977066,-94.3893127,-81.1526718,-0.0359128,10.7570934,5.0301919,42.4580154,1.0839695,-2.9083970
3010,2.3989778,7.5823979,1.1396341,101.9007645,-79.8549652,-78.6030502,-0.0143651,10.9821472,4.7093706,44.1526718,1.1374046,-0.3740458
3020,0.9672526,6.1003947,-0.2896969,70.5038147,-57.8854980,-51.2213745,-0.1460456,11.8296900,4.4484038,51.5877876,7.9694657,2.1603053
3030,0.9433106,5.7101417,-0.1484398,61.6488533,-56.4427490,-45.6946564,-0.7421987,12.0882626,4.6782460,58.4045792,13.3206110,2.8167939
3040,0.9313397,5.3031297,0.0191535,53.8167953,-55.7557259,-41.7175560,-1.3718705,12.2582502,4.6207857,68.8167953,14.1832066,5.7938933
3050,0.9433106,4.9511838,-0.0071826,47.4656487,-55.4503822,-39.0839691,-1.5346755,12.2654324,4.3095412,79.0534363,16.2977104,11.8778629
3060,0.8379663,4.6638808,-0.1699875,40.7480927,-53.5572510,-37.4198456,-1.4963684,12.1888189,3.7588775,86.5572510,18.5190830,19.3129768
3070,0.6847382,3.9959023,-0.5099624,19.5038166,-43.6412201,-30.4198475,-0.8283895,11.2766323,2.0087249,87.9007645,15.5877867,32.9083977
3080,0.7086801,3.7229645,-0.3734936,6.7328243,-35.7862587,-25.2824421,-0.1508339,10.7451220,1.6136837,81.4885483,13.2977095,37.0687027
3090,0.7398046,3.5601597,0.0574605,-2.9847329,-28.1679382,-19.7404575,0.3854645,9.9933472,1.5490406,74.2748108,11.4045801,39.2442741
3100,0.9026094,3.7660601,0.3998296,-8.2290077,-20.7633591,-15.8931293,0.9480990,9.3253679,1.5634058,67.3587799,12.0916033,39.4351158
3110,1.0151364,4.1084290,0.1963235,-12.6183205,-11.1603050,-13.9007635,1.3168042,8.6980906,1.7070571,61.0992355,13.1526718,37.9160309
3120,0.9672526,4.3765783,-0.3088504,-20.2671757,0.3969466,-11.6946564,1.5035510,8.1067257,1.9991482,55.3816795,12.4427481,36.0763359
3130,1.5131277,6.6342988,-0.5147507,-61.8091621,37.3053436,3.3358779,2.1140692,6.1075773,2.6767037,40.2748108,0.7709923,17.1374054
3140,2.7916248,9.2008705,0.5913648,-62.6030540,15.7557249,1.5954199,2.0183017,5.6143742,2.6144550,34.1832047,-4.4198475,4.8015265
3150,3.3686244,10.3524752,1.4389079,-52.6641235,-1.6259542,-4.0076337,2.0374553,5.3988972,2.6360025,31.9160309,-5.2137403,-0.7709923
3160,3.8785870,11.7315283,2.1044924,-39.0763359,-17.9694653,-11.5725193,1.9871773,5.2839761,2.6240315,29.9465656,-6.2595420,-6.7709923
3170,3.5434003,12.6676559,2.0685797,-27.8091602,-22.4274807,-15.7862597,1.6759326,5.1953912,2.3750360,26.7099228,-7.7862597,-12.3664122
3180,2.9472473,13.0387554,1.7309990,-23.1832066,-14.0076332,-12.2290077,1.2306134,5.2265158,1.9297167,22.0839691,-10.4274807,-16.4045811
3190,2.4564383,13.2422619,1.4221486,-20.7862587,-0.2366412,-3.9236641,0.8666966,5.4060798,1.5849534,15.5648851,-15.1603050,-17.1145039
3200,1.9464760,13.1201582,1.2761030,-15.3969469,7.9465647,11.1679392,0.6584021,5.7292953,0.5961532,-4.9007635,-24.0381680,-15.2595415
3210,1.7549409,12.7059631,1.4939742,-9.6564884,2.3664122,15.6106873,0.7972651,5.8657641,0.5458752,-17.0305347,-27.8854961,-15.7022905
3220,1.6543850,12.1217813,2.1308286,1.2137405,-9.7099237,19.7862587,0.7350162,6.2153158,0.9385223,-26.1297703,-31.6259537,-18.1908398
3230,1.7932479,11.6477318,2.1523764,15.4198475,-24.0839691,22.7251911,0.5434810,6.5481081,1.2856797,-31.5419846,-33.0763359,-22.0458012
3240,2.1619530,11.1018562,1.6950861,27.6259537,-36.7557259,23.4198475,0.3974355,7.1107426,1.5825592,-32.1908379,-32.3664131,-25.7862587
3250,2.6814921,10.7163916,1.0390782,34.6641235,-47.8702278,20.7404575,0.1699875,7.6685886,1.7333932,-28.7022896,-27.7938938,-29.6488552
3260,2.8035958,10.1920643,0.5722113,36.2824440,-54.8931313,16.5190830,0.0215477,8.4419117,1.6543850,-22.5877857,-19.5267181,-36.1297722
3270,2.9280937,9.6461897,0.2130829,32.3969460,-54.7633591,12.0610685,-0.4213773,9.0835552,1.6855093,-13.5648851,-9.9083967,-41.2519073
3280,2.7293761,8.3413563,0.3663110,18.4580154,-37.1603050,5.4809160,-2.5282640,10.7139978,1.1061156,7.9770994,15.7862597,-41.0381660
3290,2.3678534,7.9726510,0.2896969,10.5877867,-25.0916023,4.9160304,-3.6559272,11.4322548,0.5219333,16.9847336,33.5801544,-32.1908379
3300,2.1739240,7.6015515,0.4716553,3.0229008,-12.1908398,6.2366414,-4.3382711,11.8823624,-0.2178712,20.8396950,49.8244286,-19.0610695
3310,1.9608412,7.3357964,0.6584021,-2.5114503,-1.6564885,8.7404585,-4.5489597,12.1289635,-0.9361281,17.4961834,60.0000000,-4.3282442
3320,2.0111191,7.3046722,0.7757174,-6.8320613,6.9312978,11.4503813,-4.2401094,12.3923244,-1.4365137,6.5496182,60.4885483,9.4732828
3330,2.3510940,7.3621325,0.8212070,-9.5725193,13.1068707,12.2748089,-3.4572096,12.4066896,-1.6184721,-10.0000000,54.8320618,18.9923668
3340,2.4085546,7.3621325,0.4189832,-12.6412210,16.0458012,10.3893127,-2.6982515,12.4138727,-1.1970947,-29.1679382,44.6183205,25.5954189
3350,2.3295465,7.3429790,0.0191535,-18.4351139,17.9923668,9.0305347,-1.8914096,12.2055779,-0.5243275,-46.8702278,34.6259537,29.8549614
3360,2.1715298,7.3860745,-0.3160330,-26.5496178,17.3511448,9.1755724,-1.1707586,11.9374285,0.5003856,-60.4351158,27.1374054,33.1603050
3370,2.2026544,7.4004397,-0.3495516,-34.6793900,15.5877867,10.8167934,-0.3519458,11.7961712,1.6950861,-68.5190811,23.2061062,35.2595406
3380,2.3463056,7.5512733,-0.3878587,-42.0000000,16.9618320,13.8625956,0.5722113,11.4514084,2.8083842,-71.6335907,24.7099228,37.8015251
3390,2.5091105,7.8313937,-0.2968795,-47.8931313,21.1145039,16.8854961,1.2856797,11.2119894,3.7947903,-71.4885483,29.9389305,42.6259537
3400,2.4731977,8.0947542,-0.5219333,-53.9847336,23.6717548,19.3740463,1.9249283,10.7762470,4.5824785,-68.5496216,37.5572510,48.2900772
3410,2.7317703,8.4371233,-0.5889706,-60.8244286,25.4503822,21.4427490,2.5785420,10.2806492,5.2791877,-63.7633591,42.7557259,54.4122124
3420,3.4524212,8.9853926,0.1580165,-63.5190849,24.3816795,19.0229015,3.3159523,9.8161764,6.0620875,-57.5419846,43.7938919,56.7099228
3430,4.5250182,9.5432396,1.0582317,-58.6106873,19.2595425,10.5572519,4.1658897,9.3564920,6.6031747,-49.1908379,40.0152664,56.3664131
3440,5.9136481,9.8736372,1.7309990,-49.1526718,10.9160309,-2.5648854,5.0277977,9.0739784,6.9551206,-37.8473282,32.7938919,49.5725174
3450,5.9040713,9.7275915,1.7238164,-38.5877876,-3.5496182,-15.6717558,5.7652082,8.9015961,7.3310080,-22.5038166,23.4122143,37.8320618
3460,4.4579806,9.2703018,0.7206510,-33.6793900,-18.6717548,-13.0687027,6.2488346,8.8273764,7.1059542,-4.4274807,13.8702288,22.7175579
3470,2.8203552,8.7268209,0.6703730,-34.2442741,-26.6870232,8.7709923,6.3469963,8.7579451,6.3637557,12.8625956,5.8778625,5.5419846
3480,2.8299320,9.0141230,2.0613971,-28.6106873,-42.4427490,33.0076332,5.8394279,9.0284882,5.1929970,25.3511448,-0.2213740,-9.1450386
3490,3.1603301,9.0308828,2.1451938,-15.3740454,-68.5496216,51.8167953,5.0541339,9.2032642,3.7205703,31.5496178,-5.5038166,-19.4885502
3500,3.6678982,9.4809904,0.5171449,-12.3358774,-92.7099228,64.8473282,4.2353210,9.2559366,2.6000898,31.9312973,-9.2519083,-26.4198475
3510,4.4938936,10.4985209,0.4477134,-15.8396950,-113.5801544,68.3511429,3.4141142,9.2918491,1.7740943,27.4427490,-13.7938929,-29.6641216
3520,4.8266859,10.6302013,0.0861908,-20.3129768,-126.6030502,61.5801544,2.8203552,9.4785957,1.1611819,18.9007626,-16.9770985,-31.1450386
3530,4.0725164,10.4673967,-0.6943150,-29.0916023,-131.4274750,56.3969460,2.2098370,9.5815458,0.9935886,8.5572519,-17.9694653,-30.1068707
3540,3.2824337,10.3764172,-0.7829000,-41.5572510,-129.6412201,57.8091621,1.5059452,9.7180147,1.1635761,-2.3893130,-17.5343513,-26.2519093
3550,3.1555417,10.0579901,-0.7924767,-52.7175560,-118.0457993,63.6717567,0.9457048,9.7108326,1.4987626,-12.0839691,-18.8167934,-21.9083977
3560,2.2265961,10.0651722,-1.1156923,-61.3511467,-102.8015289,72.9389343,0.6919208,9.6246414,2.1260402,-18.5648861,-21.9083977,-16.3129768
3570,0.9959828,10.3476868,-1.7142396,-69.5267181,-90.7557220,86.3206100,0.6631905,9.4762020,2.4971397,-22.1297703,-25.3587780,-10.4961834
3580,0.3830703,10.6254129,-2.2098370,-76.5954208,-87.7251892,103.8396912,0.8188128,9.3540983,2.7676830,-23.6641216,-28.8854961,-4.8244276
3590,0.6057299,11.2215662,-2.2074428,-81.3511429,-90.9312973,119.0076370,1.3383518,9.3564920,2.6695213,-25.2366409,-31.4580154,-0.4503817
3600,1.1635761,11.9517937,-1.1851238,-77.3816757,-102.3664093,127.7786255,1.8195840,9.4522600,2.2385671,-28.2442741,-33.2290077,-0.0992366
3610,2.1691356,12.9262285,-0.6200951,-61.4045792,-114.9923630,126.5267181,2.1427996,9.6749191,2.1523764,-33.2061081,-35.8625946,0.0458015
3620,2.2074428,14.0323448,-1.0271072,-45.7786255,-124.5954208,121.4045792,2.3151813,9.8305416,2.3175755,-38.8931313,-38.2366409,0.4503817
3630,1.8554969,14.9038296,-1.3335636,-35.1908379,-129.0152740,117.7175598,2.3510940,9.9478569,2.4468615,-43.9160309,-38.9083977,1.1145039
3640,0.9552816,15.3850613,-1.5418580,-31.0381680,-123.4580154,121.4580154,2.4037662,9.8903971,2.7102225,-47.6488533,-37.8244286,1.0000000
3650,-0.2633608,16.1272602,-0.9935886,-28.6030540,-99.9542007,136.9923706,2.2313845,9.9095497,2.9161227,-50.5114517,-34.8167953,1.4809160
3660,-0.1316804,15.7657375,-0.7613522,-27.7022896,-56.0000000,156.0839691,1.9464760,9.8233595,3.2752512,-52.0076332,-30.7557259,2.8167939
3670,-0.8810617,14.9612904,-0.3280039,-25.1603050,-0.9083970,179.8549652,1.6591733,9.7275915,3.7540891,-51.7404594,-26.1679382,3.9847329
3680,-2.9185169,14.2933111,-0.1628049,-14.6793890,28.2595425,221.5114441,1.3670821,9.5863342,4.0605454,-49.6412201,-21.8931293,5.4732823
3690,-1.6448082,12.4521790,-0.0742199,-5.1603055,10.9389315,250.1297760,1.1444225,9.2822723,4.3957319,-45.4809151,-17.9541988,5.5877862
3700,0.0502780,11.2646618,0.5291159,3.1221373,-3.1450381,250.1297760,1.0223188,8.9829988,4.6016321,-39.9465637,-13.5954199,4.1068702
3710,3.1842721,10.5320396,-0.2154770,11.0305347,-21.4045811,250.1297760,0.6703730,8.5927458,4.8793583,-32.4427490,-8.3206110,-1.0381680
3720,6.5840211,9.9071560,-1.1204807,14.2900763,-24.9312973,250.1297760,0.1675933,8.2623482,5.1403246,-23.2519093,-1.9007634,-7.6946564
3730,9.5456333,9.2990322,-3.2082138,8.9007635,-13.7938929,250.1297760,-0.4525018,8.0420828,5.2456689,-12.4351149,5.4503818,-13.5038166
3740,11.6597023,7.4531116,-5.3127065,-7.3282442,-2.1908398,250.1297760,-0.9648584,7.9918046,5.1977854,-0.6106870,12.8320608,-18.4961834
3750,13.5032282,4.1994085,-7.2160869,-37.7251892,5.1374044,250.1297760,-1.4676381,8.0516596,4.7907729,10.6488552,19.2595425,-21.7709923
3760,13.9940376,0.0957676,-8.0923605,-82.9236679,13.8473282,199.0076294,-1.9297167,8.1474266,4.3550305,18.0229015,20.8931293,-22.6183205
3770,14.3411951,-3.2608860,-8.1115141,-135.0992432,19.1908398,120.1755753,-2.2242019,8.3916340,3.3973548,19.7480907,16.3587780,-21.0534344
3780,14.6931410,-8.9375095,-7.3669209,-194.7022858,28.5572510,26.3129768,-2.3510940,8.6023226,2.8610563,15.5496187,5.3511453,-16.3969460
3790,16.3211899,-17.8486824,-4.1491303,-250.1374054,72.0000000,-58.5725174,-1.6902977,8.7770987,2.2864509,7.3893127,-9.1450386,-10.4122133
3800,18.3777981,-19.6131992,-0.5051740,-250.1374054,101.6106873,-132.4656525,-0.7038917,9.1122847,1.8004304,-0.5877863,-19.8549614,-4.9618320
3810,16.0793762,-19.6131992,7.2974896,-250.1374054,108.3587799,-161.6259613,0.3327923,9.2535419,1.8004304,-12.5267172,-28.1145039,-5.5343513
3820,9.8760319,-19.6131992,8.6741486,-250.1374054,87.3282471,-95.0457993,0.9217629,9.0356712,2.2074428,-21.9083977,-31.6946564,-7.8473282
3830,1.8315549,-19.6131992,9.0380650,-250.1374054,14.5801525,43.8167953,1.3311694,9.1266499,2.7078283,-24.6641216,-29.0076332,-10.3587790
3840,-0.5171449,-12.2606440,19.6126022,-250.1374054,-147.7175598,182.7557220,1.7740943,8.7842808,3.7133877,-21.2366409,-22.0152664,-13.8854961
3850,10.8959560,0.5219333,19.6126022,-178.4427490,-250.1374054,244.7862549,1.7932479,8.9877872,4.1634955,-12.9312973,-12.7938929,-15.4656487
3860,19.6126022,2.2553265,19.6126022,40.1832047,-250.1374054,150.4122162,1.8866212,9.2272062,4.4867110,-2.5419848,-0.9465649,-16.2977104
3870,19.6126022,2.8969693,19.6126022,227.6793823,-239.4809113,-10.5114508,1.8435259,9.5384512,4.2592630,6.4198475,9.9694653,-16.5877857
3880,19.6126022,0.7709290,19.6126022,250.1297760,-66.7709961,-148.7175598,1.8961980,9.7635050,3.5793133,10.0687027,15.5419846,-16.5496178
3890,19.6126022,-5.6431046,4.8027439,250.1297760,92.1145020,-228.0381622,1.9081690,9.9765873,3.0262554,7.9465647,16.0458012,-17.0992374
3900,16.2038746,-11.3436699,-4.9463954,222.7709961,211.0763397,-250.1374054,1.8076130,10.0747490,2.7964132,2.5572519,11.9083967,-17.4885502
3910,11.7937775,-15.0498753,-9.1434097,152.5648804,246.8702240,-250.1374054,1.6615674,10.1705170,2.4899571,-5.2137403,6.9847326,-16.2366409
3920,6.1482787,-14.8439751,-7.0437055,114.0763321,180.5648804,-250.1374054,1.6998745,10.1202393,2.5761478,-13.3358774,0.5419847,-16.1145039
3930,2.5067163,-13.0866394,-2.5402350,117.2519073,60.3206100,-235.0610657,1.6376256,9.9981356,2.8012016,-22.5114498,-6.1679387,-16.5877857
3940,2.5713594,-10.9079275,0.9696468,145.0534363,-47.3358765,-214.4045868,1.4724265,9.8640604,3.6391680,-27.9312973,-10.8931293,-16.9465656
3950,5.7676024,-9.0428534,2.4971397,176.6564941,-96.6641235,-209.8473358,1.1779412,9.7730818,4.2712340,-29.5954189,-12.1145039,-14.8167934
3960,7.6997132,-7.8625183,1.3287752,193.8167877,-82.5954208,-220.1297760,1.1611819,9.6725254,4.7045822,-28.2900772,-12.5496187,-12.8931293
3970,6.4427638,-6.8809004,-1.5227045,188.7099304,-44.9694672,-226.9770966,1.0582317,9.5743637,5.0062504,-25.1679382,-12.2213745,-10.6259546
3980,3.5888901,-3.9025288,-4.9990678,154.8854980,-6.8931298,-216.5572510,1.1156923,9.6198530,5.4252334,-20.4503822,-11.6717558,-8.4122133
3990,0.8882443,0.1292862,-6.3493905,107.7633591,22.9847336,-187.9618378,1.1827296,9.5312681,5.4587522,-15.3893127,-10.1984730,-5.1145039
4000,0.6727672,3.7636659,-4.8793583,70.8778610,35.8473282,-151.9694672,1.2641320,9.4833841,5.3749552,-10.5343513,-9.0152674,-2.5572519
4010,2.2457497,4.1706781,-3.2225790,54.9465637,35.5038185,-122.8320618,1.4628497,9.3995876,5.2169390,-7.3664122,-7.8244276,-0.9847328
4020,5.1834202,3.7421181,-2.3894010,49.1450386,40.0534363,-101.9312973,1.5634058,9.3349447,5.0996237,-6.1297708,-6.6259542,-0.0381679
4030,7.8146343,8.6023226,-2.9664006,38.4198456,103.8320618,-89.6870193,1.4436963,9.0811605,4.9607606,-7.2442746,-6.8015265,-0.1221374
4040,7.0580707,11.3149395,-4.1587071,26.3435116,143.9541931,-88.5572510,1.4604555,9.0715837,5.1139889,-7.4732823,-9.0610685,-0.1832061
4050,6.0932121,13.1297350,-5.3127065,4.4885497,165.7099304,-86.5801544,1.4580613,9.2056589,5.1953912,-8.1221371,-12.0229006,-1.0992366
4060,5.7915444,14.1448717,-5.6622581,-19.0076332,165.7862549,-83.9770966,1.5059452,9.3421268,5.2313042,-8.6564884,-15.6412210,-2.9389312
4070,6.1458845,14.1927547,-4.9751258,-39.1679382,146.0534363,-84.6412201,1.5562232,9.3732519,5.1475072,-9.1908398,-18.7175579,-3.9618320
4080,6.3278427,14.5614605,-3.1651185,-52.5267181,120.1526718,-84.0381699,1.6902977,9.5001440,5.3222833,-9.1068707,-21.4427490,-5.7175574
4090,5.8729467,15.5957499,-1.3072275,-53.7480927,95.3206100,-82.8473282,1.6735384,9.7539282,5.6383162,-7.7862597,-23.6793900,-7.6564884
4100,5.5473371,16.1631737,-0.2537841,-47.4198456,77.0000000,-81.5954208,1.6998745,9.9813757,5.7652082,-5.0839696,-25.6717548,-9.3969469
4110,5.0445571,17.0514164,0.9385223,-37.7175560,67.5877838,-78.4351120,1.6950861,10.2638903,5.9399838,-1.2748091,-26.9007626,-10.5572519
4120,4.6662750,17.2644997,1.7477583,-23.7862587,59.4580154,-73.9923630,1.7764885,10.5320396,5.8849177,2.9389312,-28.2748089,-9.7862597
4130,5.1738434,16.5653973,2.3894010,-8.2442751,46.2137413,-70.5801544,1.8602852,10.8025827,5.7867560,6.0916033,-29.1755733,-9.0992365
4140,5.6287394,16.1344433,2.8203552,9.1526718,35.7022896,-69.1450348,2.0302727,11.3053627,6.0692701,8.2137403,-32.0076332,-8.0916033
4150,5.6311336,15.8184099,2.6862805,25.6412220,29.3435116,-69.8244247,2.2146254,11.9901009,6.5002246,9.7862597,-38.1145020,-9.4656487
4160,5.3677726,15.1767673,2.2744799,36.3969460,22.4274807,-69.5801544,2.1427996,12.5144281,6.5505023,8.2595415,-49.2671738,-12.1603050
4170,5.1929970,14.5207586,1.8985922,41.5190849,19.0763359,-66.4045792,1.8147956,12.7873659,6.6606350,3.0763359,-72.2977066,-17.3511448
4180,5.2672167,13.3930960,2.1763182,45.1221390,15.4503813,-63.4885483,1.7309990,12.6221666,6.6989422,-4.2061067,-104.4045792,-25.5648861
4190,5.1115947,12.4593620,2.5641768,51.5648842,9.8854961,-58.8167953,1.9847831,12.1265697,7.1801744,-7.9160304,-133.8320618,-36.2061081
4200,4.7716198,11.7291346,2.6383967,61.1755714,3.7251909,-52.6564903,2.2984219,11.6597023,8.0013809,-0.6488550,-148.5343475,-48.1984749
4210,4.7069764,10.9198980,2.4085546,71.0534363,-0.5496183,-46.4351158,2.3151813,11.0659437,8.7818871,20.5190830,-142.4580078,-61.9541969
4220,4.5681133,10.4051476,2.0398495,79.9847336,-3.9465649,-43.5038185,1.8985922,10.3740225,8.9399033,53.3206100,-118.0534363,-72.6335907
4230,4.4795284,9.8544836,1.2976507,84.0534363,-7.5419846,-42.8396950,0.9361281,9.8233595,8.5711985,91.8778610,-82.8167953,-77.6259537
4240,4.5537481,9.3421268,0.6488253,82.0839691,-8.2213745,-44.5725174,-0.0047884,9.5145092,7.2783360,130.3664093,-42.4885483,-75.2595444
4250,4.9392128,8.7340031,0.3710994,78.0152664,-6.8320613,-50.1297722,-0.9600700,9.1553802,5.5569139,161.8625946,-6.5038166,-68.0152664
4260,4.8841467,8.0636301,0.4141948,72.5267181,-9.7404585,-58.1526718,-1.4317253,9.1122847,3.3925664,181.3893127,22.2824421,-57.4885483
4270,4.4268565,7.3932571,0.5937590,69.9542007,-12.0916033,-65.6946564,-1.6567791,9.0428534,1.4556671,186.3511505,41.1755714,-44.7404594
4280,3.7564833,6.8904772,0.6847382,69.5267181,-15.9160309,-70.9542007,-1.8100072,8.8992023,-0.4046180,178.2137451,48.2061081,-33.8167953
4290,3.0837159,6.2919297,0.5291159,69.2213745,-22.7557259,-73.4045792,-1.9033806,8.6358414,-1.9009864,156.8473358,40.6030540,-23.6946564
4300,2.6503677,6.0046272,0.3974355,70.0992355,-29.6946564,-75.3664093,-1.8746504,8.3557215,-2.7078283,127.8702316,23.8854961,-16.5496178
4310,1.9656296,5.8178802,-0.0143651,69.3435135,-38.1526718,-78.3511429,-1.6136837,8.0660238,-3.1052637,94.8167953,1.3740458,-12.7709923
4320,1.4843974,5.0086441,-0.7445929,62.8549614,-42.7022896,-79.4885483,-1.2737088,7.7284436,-3.2058196,61.4198456,-21.7633591,-11.0229006
4330,0.9888002,5.2767935,-1.1252691,52.0763359,-45.5648842,-79.1221390,-1.1013272,7.2448173,-2.6455793,33.0305328,-38.2137413,-8.2748089
4340,0.8379663,5.1139889,-1.1779412,41.3129768,-48.5648842,-80.5419846,-0.7924767,6.7971039,-1.2282192,14.1221371,-43.5648842,-5.3740458
4350,0.2896969,4.5776901,-0.9888002,31.0152664,-49.9465637,-78.9160309,-0.6153067,6.3996682,-0.2226596,7.2595420,-37.0152664,-0.9312977
4360,-0.1053443,4.3047528,-0.5602403,22.6946564,-45.3816795,-72.3053436,-0.5099624,6.0716643,0.5793939,7.9465647,-22.2977104,4.4656487
4370,-0.2466015,4.2209558,-0.3280039,16.6564884,-33.1755714,-61.0916023,-0.4908088,5.9375896,0.7972651,10.9312973,-6.4885497,8.7709923
4380,-0.2418131,4.0006905,-0.0790083,12.9083967,-18.9541988,-49.0381660,-0.5219333,5.7221127,0.6272776,12.5343513,7.1374044,14.5038166
4390,-0.0790083,4.2520804,0.0023942,8.5572519,-2.6335878,-36.4427490,-0.2681492,5.6287394,0.2106887,10.8091602,16.5954189,18.0000000
4400,-0.3782819,3.5457945,-0.0478838,4.2748094,20.9083977,-21.9312973,-0.1987177,5.6981707,-0.0478838,5.0000000,21.5954189,19.3587780
4410,-0.4979914,4.6207857,-1.2713146,-3.7633588,33.3893127,-3.3587787,-0.0957676,5.9974446,-0.1316804,-3.4732823,21.5877857,19.9923668
4420,-0.0191535,5.9902620,-0.9409165,-15.3587790,48.3969460,8.8396950,-0.1244979,6.3206601,-0.0742199,-13.9007635,17.2061062,19.7938938
4430,0.3926471,6.3158717,-1.0271072,-24.2061062,64.0534363,17.3435116,0.0095768,6.7085190,-0.1628049,-26.6870232,8.1755724,19.0000000
4440,1.2689204,6.8856888,-1.5394639,-34.3664131,79.3969498,23.4961834,0.2777260,6.9623032,-0.1819584,-41.0610695,-5.3587785,17.3587780
4450,1.9321109,8.2360115,-1.5586174,-42.5114517,85.4198456,25.0381680,0.7805058,7.4794478,0.1508339,-54.5419846,-17.5725193,13.8549614
4460,1.4053892,9.3660688,-1.3215926,-45.6564903,77.0763321,22.2824421,1.1444225,8.0875721,0.7014975,-64.5801544,-25.8244267,8.3664122
4470,0.7709290,10.4314833,-1.0606259,-45.7938919,56.4656487,23.0000000,1.2856797,8.5520449,1.3838415,-68.7099228,-29.5343513,2.9312978
4480,0.4716553,11.6980095,-0.7445929,-42.8091621,32.3740463,28.1374054,1.3383518,9.0644016,2.1906834,-66.5954208,-29.4427490,-2.7251909
4490,0.7733232,12.9190464,0.1628049,-35.6183205,11.0229006,35.3587799,1.4317253,9.9239149,2.8490853,-58.5954208,-26.0992374,-11.7328243
4500,1.5322813,13.5151997,0.7230452,-24.2137413,-3.4427481,39.9923668,1.0941446,10.7187862,3.1746953,-45.0610695,-19.4580154,-20.9541988
4510,2.1954718,13.6899757,0.7278336,-11.4961834,-9.6412210,41.9618340,0.3567342,11.5543585,3.3997490,-29.4045811,-10.6946564,-28.3129768
4520,2.5258698,13.7043400,0.5865764,-1.2900764,-8.1984730,42.5954208,-0.3830703,12.2845860,3.0478032,-14.7328243,-2.9618320,-30.7099228
4530,2.9113343,13.5104113,0.6943150,8.2900763,-5.0000000,42.3664131,-1.1324517,12.9717188,2.6168492,-4.3282442,3.3511450,-27.8320618
4540,3.5577655,13.1824074,0.5506636,17.7557259,-2.7633588,39.8396950,-1.6615674,13.2733860,1.9105632,1.2824427,7.7557254,-21.7251911
4550,4.0916696,12.6030130,0.3974355,26.1145039,-1.9312977,33.9465637,-1.7501525,13.3978844,1.6711442,2.5190840,11.8854961,-14.1297712
4560,4.4364328,11.8560257,0.1580165,30.2824421,-1.9694656,25.1832066,-1.7238164,13.3284531,1.5538290,1.5343511,17.4809170,-6.7328243
4570,4.6112089,10.8959560,-0.1843526,30.5190830,-2.3435113,14.2519083,-1.7286048,13.0698805,1.8674678,0.3435115,22.6641216,0.9465649
4580,4.2855992,9.9239149,-0.2561783,27.6030540,-4.3282442,5.1832061,-1.6807210,12.6485033,2.4420733,0.5725191,26.6641216,7.5496182
4590,3.8857694,8.9135675,-0.0622489,23.1755733,-10.0687027,0.1068702,-1.3958124,11.9924946,2.7509236,1.7709924,28.5114498,13.1832066
4600,3.5026991,7.9965930,0.2513899,19.9389305,-17.8778629,-0.7633588,-1.0989330,11.4729557,3.0645626,3.7709923,28.8931293,16.9007626
4610,3.4141142,6.5720501,0.7709290,10.3969469,-23.3893127,10.0763359,0.5841822,8.9351149,3.1579359,8.3053436,25.5877857,28.0305347
4620,3.1842721,6.4858594,0.3040621,4.9618320,-18.2213745,4.0076337,1.0151364,8.4730368,3.1770895,6.8854961,25.6183205,29.3129768
4630,2.5809362,6.4140334,0.1532281,-1.6641221,-12.2442751,1.2824427,1.6783268,8.0827837,3.5026991,5.4198475,24.6946564,29.2519093
4640,2.2409613,6.3781209,0.0239419,-7.6106873,-6.4122138,3.8396947,2.3582766,7.5273318,3.7516949,4.8931298,21.9618320,24.3969460
4650,2.2265961,6.6917596,0.0023942,-11.6564884,-0.1908397,8.4809160,3.1435707,7.0149751,4.3310885,6.3053436,18.4274807,15.1526718
4660,2.2409613,6.8785062,-0.0574605,-13.9389315,5.3053436,13.4045801,3.4069316,6.9407554,4.5992379,11.1908398,14.8702288,3.0305343
4670,2.0709739,7.3094602,-0.2729376,-15.7022905,10.7633591,18.8473282,3.3662305,7.0053983,4.7213416,18.2366409,14.7633591,-9.9541988
4680,1.9967541,7.8768835,-0.5889706,-17.3816795,16.2137413,24.7175579,2.8802099,7.1753860,4.2520804,23.7480907,16.2977104,-19.5190830
4690,2.0901275,8.6430235,-0.9959828,-20.3740463,21.8778629,30.9312973,2.0949159,7.5464849,3.8498566,25.9160309,15.7786255,-25.3740463
4700,2.4899571,9.4929609,-1.2593436,-23.9312973,24.1145039,34.3969460,1.3479286,7.9415264,3.5457945,25.4503822,12.0839691,-25.8320618
4710,2.9280937,10.2662840,-1.2258250,-25.9389305,22.8015270,34.0076332,0.8451489,8.3988171,3.0932927,23.0458012,6.6946564,-22.3893127
4720,2.7533178,10.9055328,-1.2593436,-25.3969460,17.7786255,31.7862587,0.8331779,8.6597834,2.8730273,19.9541988,3.8015268,-17.4580154
4730,2.3032103,11.5783005,-1.2449785,-24.0687027,9.7862597,31.4045811,0.9265513,8.8058290,2.6288199,16.6183205,2.9770992,-13.0381680
4740,1.8578910,12.1529055,-1.1851238,-23.5496178,4.7404580,35.7557259,0.9337339,8.9303265,2.4301023,13.4961834,2.4503818,-10.9541988
4750,1.3000449,12.4138727,-1.0702027,-22.3816795,-0.2366412,43.7251892,0.3112446,9.1960821,2.5450234,11.4122133,1.5343511,-8.2977095
4760,0.2513899,12.1672707,-1.3072275,-22.2748089,-10.3816795,56.7557259,-1.6136837,9.9861641,2.8155668,11.3129768,0.5954198,0.4198473
4770,-0.7900825,11.4633789,-1.8985922,-25.3816795,-24.1145039,78.7404556,-4.1515245,10.8648319,3.2800395,15.2137403,-0.9312977,21.0152664
4780,-0.7230452,11.4705620,-1.3718705,-25.7862587,-40.6564903,106.9694672,-6.4044566,11.6477318,3.1172347,21.1984730,5.7022901,56.6641235
4790,-0.4333483,11.1760759,-0.5865764,-15.7328243,-62.0992355,136.8396912,-6.6271162,11.5184450,2.4684093,25.6641216,13.1374044,102.5267181
4800,-0.1747758,11.1281929,-0.7278336,-3.0000000,-80.7251892,164.0152740,-4.8745699,11.0898857,1.6783268,25.6412220,25.6335869,141.1450348
4810,1.9584470,12.2079716,-0.8906385,6.0916033,-85.0076370,184.4274750,-2.3558824,10.4650021,0.5793939,17.1450386,36.1068687,168.8091583
4820,4.2018023,13.4266148,-1.5370697,9.6412210,-78.1145020,187.7099304,0.1460456,9.4905672,-0.2370248,-0.4503817,40.4274826,181.4580078
4830,5.5401545,14.3172531,-2.7581062,1.3053435,-65.8015289,170.6793823,2.4037662,8.6382351,-0.7661406,-23.6946564,39.6946564,182.4198456
4840,5.3270717,14.1831779,-2.7772598,-10.0610685,-47.3206100,145.5954132,4.6662750,7.8170285,-0.2992737,-46.3511467,33.8244286,170.9770966
4850,2.9185169,14.0299501,-2.0853391,-15.0458012,-36.8473282,129.1450348,7.1298962,7.2735476,1.1204807,-58.6717567,24.7633591,145.9007568
4860,0.6943150,13.3811245,-1.8842272,-9.9923668,-42.2900772,130.5343475,9.4043760,6.9790621,3.6726866,-53.9541969,14.4885492,104.2366409
4870,-1.0247130,12.3324699,-1.7357874,2.0229008,-57.3740463,145.5801544,10.0891142,7.1346846,5.3725610,-33.1374054,9.0000000,55.0381660
4880,-1.8411317,11.7291346,-1.8195840,18.1145039,-78.7862625,169.4427490,8.7387915,7.5201492,6.0405402,-2.8625953,10.8625956,8.9618320
4890,-2.3103929,11.1760759,-2.2457497,31.8931293,-95.2442780,198.4503784,6.3446021,8.0253229,5.7771792,28.6946564,13.5801525,-23.7328243
4900,-1.6855093,10.5631638,-3.5266411,35.8167953,-95.3053436,231.5343475,4.6279683,8.5472565,4.2951760,52.7480927,15.8396950,-41.0687027
4910,-0.8068419,9.6677370,-3.6008608,32.7862587,-85.1984711,250.1297760,3.7325413,9.0308828,2.5761478,65.8702316,18.5114498,-50.9236641
4920,0.8571198,8.8632889,-2.8658447,32.0305328,-75.1297684,250.1297760,2.8754215,9.3876171,1.1156923,67.7557220,20.5877857,-55.3893127
4930,1.7238164,8.0348997,-2.3271523,38.3664131,-70.9923630,250.1297760,1.4700323,9.8113880,0.0454896,60.4274826,20.0763359,-52.9236641
4940,2.3917952,7.2160869,-2.4923513,43.5725174,-65.4580154,250.1297760,0.5985473,10.1346035,-0.9002152,45.6946564,15.1297712,-41.8473282
4950,3.9264708,5.7245069,-2.9927368,46.3053436,-58.5190849,250.1297760,0.5626345,10.3716288,-1.4101776,25.8320618,5.8854961,-30.3053436
4960,5.3773494,4.5489597,-3.8881636,41.7099228,-46.8244286,250.1297760,1.3096216,10.2327662,-1.4173602,4.4885497,-4.6488547,-20.3816795
4970,7.2352405,3.4045374,-4.2401094,30.2671757,-28.7557259,250.1297760,2.1954718,10.2016411,-1.0271072,-13.8015270,-13.0992365,-15.6488552
4980,9.1721401,2.2960277,-4.9655490,11.6259546,-11.9389315,250.1297760,2.8610563,10.1106625,-0.4189832,-27.6106873,-16.7480907,-13.9770994
4990,10.8073711,1.1899122,-5.9471664,-17.5648861,2.8702290,250.1297760,3.0501974,9.8568783,0.3663110,-36.5954208,-18.7328243,-13.7404585
5000,11.0252428,-1.0295014,-6.6726060,-59.0992355,24.5648861,250.1297760,3.1675127,9.7012558,1.0606259,-41.5648842,-22.6335869,-14.2519083
5010,9.7994175,-5.5353661,-6.2296810,-107.8778610,34.8702278,204.4809113,3.2944047,9.6030941,1.7118455,-43.2213745,-26.6183205,-15.3053436
5020,8.4299412,-10.4554253,-4.0557570,-144.4656525,23.2290077,157.0686951,3.4045374,9.5767574,2.1068866,-42.3129768,-29.3893127,-17.7328243
5030,7.7930865,-16.8503056,0.6775556,-156.5343475,-17.2137413,112.1679382,3.1770895,9.5695753,2.3486998,-39.0076332,-30.6870232,-19.7099228
5040,8.1354561,-19.6131992,4.4819226,-142.5725250,-52.4045792,79.0610657,3.1268115,9.6006994,2.5426292,-35.5114517,-30.6259537,-21.9618320
5050,8.2934723,-19.6131992,6.0237808,-121.6259537,-53.5572510,71.1526718,2.8897867,9.6797075,2.5234756,-31.4732819,-30.8625946,-24.1221371
5060,7.9918046,-19.6131992,6.0165982,-105.4351120,-51.2137413,95.9083939,2.4995339,9.8233595,2.6695213,-27.5267181,-31.2061062,-25.7175579
5070,6.5624733,-19.6131992,7.6230993,-97.6564865,-51.0916023,159.0763397,2.0111191,9.8353300,2.5402350,-23.3435116,-31.5038166,-25.2442741
5080,9.4881725,-17.8175583,11.3724003,-68.1297684,-65.7404556,227.1450348,1.6974803,9.8664551,2.4875629,-20.3206100,-32.1374054,-23.1832066
5090,18.8302994,-11.1976242,15.0953646,-7.9007635,-70.1679382,250.1068726,1.7549409,9.9526453,1.9895715,-19.5572510,-33.4198456,-19.0610695
5100,19.6126022,-4.0653338,16.5366669,61.0076332,-61.3358765,189.2442780,1.9177457,10.0986910,1.8363433,-21.5343513,-35.7938919,-15.0305347
5110,19.6126022,1.2377959,13.6947641,112.6641235,-36.8244286,56.8167953,2.1236460,10.1465750,1.6879035,-25.4351139,-39.0228996,-11.2977095
5120,19.6126022,1.2401901,8.2312231,127.4732819,24.8931293,-85.7022934,2.0757623,10.2734671,1.8531027,-29.3969460,-47.0152664,-7.3664122
5130,19.6126022,-3.6942344,2.5641768,112.6183243,131.6870270,-197.1603088,2.7317703,10.3788109,2.0159075,-33.9618340,-59.3664131,-3.8320611
5140,19.6126022,-9.5216913,-1.7094513,87.7633591,235.1068726,-250.1374054,3.5410061,10.0292597,2.4277081,-38.3358765,-71.9465637,-4.0076337
5150,15.7801027,-15.1887379,-4.6207857,70.3511429,250.1297760,-250.1374054,4.1443419,9.9646168,3.0621684,-39.4351158,-83.6106873,-7.5419846
5160,7.9726510,-17.9564209,-5.8059096,66.6488571,250.1297760,-250.1374054,4.8171091,10.1322098,3.7421181,-36.6183205,-84.7709961,-13.9465647
5170,6.2847471,0.0718257,-4.0533628,35.6870232,66.2671738,-200.9465637,1.0965388,8.9542685,2.6407909,24.1221371,-16.2900772,-38.5648842
5180,5.7484488,1.7908537,-3.4452386,24.6183205,79.9083939,-187.1832123,0.7421987,8.7052727,2.1020982,34.2290077,-4.4351144,-38.2290077
5190,5.9998388,2.8658447,-2.7844424,20.4427490,78.2442780,-169.1755676,0.2130829,8.6310530,1.4508789,42.1221390,8.8549614,-39.4961815
5200,7.1346846,4.1180058,-2.3463056,19.6106873,72.2977066,-154.2824402,-0.4836263,8.5328913,0.6560079,45.7786255,20.5267181,-39.9923668
5210,7.7667508,5.9040713,-2.1427996,18.2900772,73.8091583,-142.8778687,-1.0989330,8.7124557,0.0119709,43.6564903,28.3511448,-39.6641235
5220,8.1833391,7.7068958,-1.6759326,15.4122133,79.9465637,-133.4809113,-1.6328372,8.9782104,-0.4357425,36.4961815,32.3587799,-37.3969460
5230,10.2710724,9.5911226,-0.6943150,0.8778626,110.2748108,-123.5572510,-2.6838863,9.3708572,-0.9528874,-14.4427481,8.9389315,-9.1679392
5240,9.6198530,10.2207947,-0.6320660,-6.2977099,112.0229034,-124.0000000,-1.6567791,9.3493099,-0.4740495,-34.8015251,-6.9541984,1.7099236
5250,8.9614515,10.6325951,-0.4118006,-14.8625956,100.3206100,-122.8549652,-0.2370248,9.0213060,0.0000000,-51.7328262,-18.3206100,7.0992365
5260,7.9726510,10.7618818,0.5722113,-24.1755733,75.9465637,-121.8396912,1.0773853,9.0787668,0.8068419,-64.1297684,-21.5114498,7.6335878
5270,7.1610208,11.3987360,2.0183017,-28.5648861,51.2748108,-116.5801544,1.7597293,8.9422979,1.4796091,-70.7175598,-15.8549614,3.9694657
5280,7.7021074,12.2462788,4.0581512,-22.3282452,31.8473282,-111.6946564,2.1068866,8.8537130,2.7078283,-71.5572510,-9.0152674,-1.4351145
5290,7.8529415,12.1409349,5.0301919,-9.3358774,27.8091602,-111.4809189,2.2122312,8.9399033,3.3614421,-68.6259537,0.1526718,-9.2977095
5300,7.2328463,11.9374285,4.6590929,2.2442749,33.8091621,-108.9618301,2.1260402,9.1098909,4.0605454,-62.2366409,10.2900763,-15.7175570
5310,6.3374195,12.2319136,4.0581512,7.1755724,40.2442741,-97.9160309,1.6448082,9.2559366,4.5537481,-53.9694672,19.4885502,-20.5725193
5320,6.4523406,12.8400383,4.1180058,11.1755724,44.6106873,-83.4961853,1.2665262,9.3277617,4.8075323,-45.0992355,23.4198475,-23.7557259
5330,7.4339581,13.0387554,4.0270267,17.0000000,43.8320618,-72.8473282,0.9935886,9.4833841,4.6997938,-36.0076332,23.2213745,-25.0687027
5340,7.9798336,13.3763361,3.8043671,21.5877857,45.0000000,-65.0763321,0.8259954,9.7994175,4.7404952,-27.0534344,19.0229015,-26.0152664
5350,8.3964224,13.6325150,3.7062054,25.9236641,44.3740463,-61.2366409,0.8259954,10.2064295,4.4819226,-18.9465656,14.5267172,-26.0916023
5360,8.5927458,13.5894194,3.7085996,34.1145020,27.4274807,-64.3206100,0.9241571,10.5296450,4.1754665,-12.8778629,13.0000000,-25.7404575
5370,9.7635050,13.7115231,4.5010762,47.2366409,7.1603055,-74.0229034,0.9864060,10.8672256,3.6702924,-9.8320608,15.2824430,-23.9083977
5380,9.3062143,13.1704359,4.6088147,65.1908417,-9.0534353,-86.0229034,0.7302278,11.0156660,3.4141142,-9.8091602,18.5725193,-20.2900772
5390,9.3253679,12.5479469,3.9001346,78.9847336,-15.9465647,-98.2366409,0.4884146,10.9414454,3.5074875,-11.2748089,20.5114498,-16.3969460
5400,9.0045462,12.1433287,3.6200144,88.3282471,-20.7480907,-109.9923630,0.1699875,10.7235746,3.6607156,-12.7099237,20.9694653,-11.4427481
5410,8.3772688,11.2598734,3.0980811,95.8778610,-18.2290077,-123.1145020,0.2585725,10.5057030,4.0198441,-12.3587790,17.6717548,-5.6488547
5420,7.4483232,10.1417866,2.2649033,97.9923630,-17.1068707,-134.6793823,0.5913648,10.3955708,4.3861551,-8.9923668,13.0916033,-1.8625954
5430,6.2727766,9.3947992,1.8483143,98.7480927,-13.5496187,-141.9236603,1.1061156,10.2686787,4.4627690,-3.3893130,11.0687027,-0.2824427
5440,5.2935529,8.6861191,1.6256547,100.4732819,-11.0381680,-147.4732819,1.4389079,10.2710724,4.3670015,2.6488550,11.2824430,0.4198473
5450,4.2975702,7.9080076,1.1085097,102.3511429,-13.4351149,-151.6335907,1.6041069,10.1800938,4.0366035,7.3129773,12.6870232,0.0305344
5460,3.1292057,6.9599090,0.5027798,101.5954208,-23.5267181,-151.4274750,1.6591733,10.2112179,3.9073172,10.4732828,14.1374044,0.5954198
5470,2.3678534,6.3541789,0.4046180,100.9312973,-34.2061081,-146.9923706,1.7022687,10.2830439,3.6559272,12.1221371,15.3282442,0.9923664
5480,1.8124014,5.9663200,0.7972651,102.3358765,-43.8091621,-142.4045868,1.7908537,10.3381100,3.6367738,12.9541988,16.4045811,1.2137405
5490,1.3191984,5.6000090,0.8619082,106.4198456,-51.9694672,-139.6564941,1.7429699,10.2016411,3.6295912,13.6641226,17.4274807,1.4274809
5500,1.1563935,5.1714492,0.6871324,109.4885483,-55.3816795,-138.0458069,1.8483143,10.2471304,3.7588775,14.5038166,17.2595425,0.2366412
5510,0.8403605,4.9487896,0.5267217,111.5725174,-54.8625946,-137.8625946,1.9488702,10.3524752,3.8833754,15.0839691,14.6488552,-2.5954199
5520,0.4261657,4.5154414,0.3232156,112.5190811,-54.8167953,-138.5801544,1.7693061,10.4123297,3.8666160,15.1603050,12.0534353,-5.1145039
5530,-0.3232156,3.9121056,-0.1675933,111.6106873,-56.2671738,-137.4656525,1.4891858,10.4697905,4.0677280,15.0000000,8.6946564,-8.4045801
5540,-1.1252691,3.6367738,-0.7829000,104.4580154,-59.6641235,-130.9236603,1.1803354,10.4530315,4.1180058,15.2595415,5.8702292,-10.4045801
5550,-1.1085097,3.0669568,-0.6799498,99.8702316,-49.0305328,-122.9770966,0.8236012,10.5487986,4.3334827,16.7862587,3.2519083,-10.5343513
5560,-1.8028246,3.2967989,-0.5817881,89.5190811,-61.8167953,-111.6946564,0.3998296,10.6804790,4.5441718,19.7633591,0.7938932,-8.7480917
5570,-1.6424140,3.1507533,-0.2825144,81.9923630,-61.3358765,-96.3129807,0.2370248,10.6158361,4.5154414,23.9923668,-0.0916031,-6.5801525
5580,-0.5578461,3.2608860,0.2729376,77.5114517,-53.5114517,-84.4427490,0.1244979,10.6804790,4.6207857,29.0992374,1.1679389,-4.4732823
5590,0.2753318,3.4165084,0.2274480,74.0610657,-38.3740463,-79.4122162,-0.0574605,10.7235746,4.7357068,35.3816795,4.1755724,-1.6335878
5600,1.0845678,3.8019729,-0.2106887,69.9465637,-13.0992365,-78.2671738,-0.1173153,10.8480721,4.4507980,41.3816795,8.2061071,1.5648855
5610,1.2521610,4.5513539,-1.0773853,62.6259537,13.2595415,-79.2061081,-0.0071826,10.9031391,4.0820932,45.8091621,11.7557249,5.6030536
5620,0.4213773,4.8985114,-2.6838863,48.8854980,35.8625946,-77.0763321,0.4285599,11.0420017,3.5146701,47.0076332,15.4580154,7.1908398
5630,-0.5985473,5.4372044,-4.3933377,27.8244267,55.9007645,-67.3893127,1.1994889,11.2431135,2.9137285,44.6946564,23.1145039,6.0076337
5640,-2.0374553,6.2608056,-5.2863703,0.4351145,64.1221390,-50.8244286,1.4796091,11.4011297,1.7381816,37.8549614,41.6030540,3.9083970
5650,-3.0669568,7.2424231,-5.4348102,-28.5572510,57.4122124,-27.2748089,2.0829449,11.0683374,2.8610563,28.8244267,47.4580154,1.9923664
5660,-2.7030399,8.2910776,-4.8171091,-48.0687027,51.7099228,-4.9160304,4.1132174,10.0843258,4.3574247,32.9083977,30.7251911,-23.0534344
5670,-1.5250987,9.5576038,-3.8618276,-56.5343513,41.1603050,10.1297712,2.2696917,9.8856087,4.7021880,40.7938919,18.6793900,-44.5038185
5680,-0.7781116,10.3764172,-2.9807658,-53.8015251,31.7557259,16.6030540,0.3136388,9.7898407,4.6136031,52.1526718,19.1832066,-52.7480927
5690,-0.7589580,11.0108776,-2.4731977,-42.5572510,22.2900772,20.2900772,-0.7876883,8.9949694,3.8522508,61.8015251,20.7251911,-44.7862587
5700,-0.7302278,11.7794123,-2.2936335,-29.7175579,6.1145039,23.3282452,-1.5586174,8.4706421,3.1842721,68.1832047,20.7022896,-32.6106873
5710,-0.3519458,12.1002331,-2.6862805,-20.4580154,-10.6106873,24.5572510,-1.8219782,8.5999289,2.6790979,71.6106873,15.9236641,-19.5648861
5720,0.1891410,11.9757357,-2.7269819,-14.3664122,-22.2366409,24.8473282,-1.5921360,8.7028790,2.1523764,71.7404556,9.7404585,-9.2977095
5730,0.4333483,11.9661589,-2.7916248,-9.9770994,-29.9389305,24.7480907,-1.1516051,8.5089493,1.4173602,68.6717529,10.2290077,2.1832061
5740,0.6943150,11.7578640,-2.6838863,-6.2442746,-35.4961815,23.1526718,-0.8714849,8.2551651,0.8595140,63.5648842,16.4503822,11.8778629
5750,0.9720409,11.2191715,-2.4660151,-2.6564887,-38.8015251,18.2061062,-0.4525018,8.0133524,0.5722113,56.8549614,25.1221371,19.2213745
5760,1.2042773,10.3117743,-2.2816625,2.7404580,-39.8778610,9.7480917,-0.1125269,7.6925306,0.6224893,48.6259537,29.2290077,24.3435116
5770,0.9648584,9.3469152,-1.9536586,7.6335878,-40.6564903,3.3664122,0.1532281,7.4315639,0.7781116,40.3358765,26.3358784,26.0458012
5780,1.2330076,8.1282730,-1.3670821,14.0763359,-39.6717567,-1.1603054,0.3782819,7.1298962,1.2018831,33.7786255,18.8320618,24.1450386
5790,1.2425843,7.7811155,-1.0582317,25.7251911,-35.5114517,-5.2671757,0.5003856,6.8545642,1.3982066,29.6717548,11.4961834,19.0610695
5800,0.2920911,8.2431946,-4.1922259,17.3435116,-58.8091621,-14.2748089,0.5386927,6.9072366,0.2944853,12.4274807,-19.3358784,-0.7251908
5810,-0.1221037,8.0612354,-4.7285242,-13.2900763,-54.2442741,-15.4427481,0.6009415,7.1394730,0.0263361,7.7175574,-21.5496178,-3.8778627
5820,-0.6153067,8.0899658,-4.5537481,-47.6641235,-36.6106873,-12.5648851,0.7278336,7.5201492,-0.0335187,3.6106870,-19.9236641,-6.8167939
5830,-1.4053892,8.0157461,-3.4763632,-78.5038147,-16.5954189,-4.1450381,0.6536137,7.8289995,-0.1891410,0.1221374,-14.0610685,-10.5648851
5840,-1.9608412,8.2000990,-2.4660151,-98.3435135,0.7862595,9.7557249,0.4955972,8.1522150,-0.3351865,-3.1679389,-7.6488547,-13.2366409
5850,-2.1954718,8.7100611,-1.5155219,-106.7328262,8.1908398,25.4427490,0.1843526,8.5304966,-0.4429250,-7.3816795,-3.6870229,-14.4351149
5860,-1.8554969,9.2296000,-0.7900825,-106.8473282,5.9770994,39.3129768,0.0000000,8.9231443,-0.5267217,-13.0839691,-3.7404580,-14.8167934
5870,-1.1587877,9.6102762,-0.4860204,-101.9007645,2.0763359,49.0152664,-0.1364688,9.3564920,-0.3806761,-19.5648861,-6.5114503,-13.3969469
5880,-0.7924767,10.0005293,-0.4094064,-92.5419846,-0.1679389,54.4580154,-0.0670373,9.8329363,-0.3280039,-26.5190830,-12.1908398,-10.2977095
5890,-0.7757174,10.2327662,-0.7541697,-84.0916061,1.8931298,59.2366409,0.3399749,10.2998028,-0.0167593,-33.2213745,-18.9618320,-7.9236641
5900,-0.7685348,10.6182299,-1.2713146,-77.1679382,4.0610685,64.5954208,0.9289455,10.5942879,0.2346306,-38.5572510,-24.8091602,-7.0381680
5910,-0.5674229,11.0084829,-1.6711442,-71.9694672,7.8473282,69.6717529,1.4365137,10.8887739,0.5865764,-41.1145020,-28.7022896,-9.0992365
5920,-0.1364688,11.4849272,-2.2409613,-68.5496216,12.3129768,73.0000000,1.7932479,11.1712875,0.8858501,-41.0610695,-29.0076332,-13.1679392
5930,0.0694315,11.8153248,-2.8826041,-69.1603088,15.7709923,72.5648880,1.8339491,11.4178896,1.1827296,-38.0916023,-25.8167934,-16.9465656
5940,0.3399749,12.2319136,-3.4955165,-75.0381699,12.8549614,68.3893127,1.4772149,11.5878773,1.6376256,-33.1679382,-19.7633591,-20.5343513
5950,0.5195391,12.2750092,-3.7708483,-80.6641235,6.9923663,62.0992355,0.9217629,11.7482872,1.8674678,-26.9618320,-13.1832066,-21.4274807
5960,0.3280039,12.0667152,-3.8115497,-84.8015289,-2.0152671,56.7328262,0.3567342,11.7434988,1.9201399,-20.8473282,-7.3816795,-20.6259537
5970,-0.3136388,12.0044661,-3.9097114,-86.5496216,-9.2519083,54.4274826,-0.0454896,11.7123747,2.0398495,-15.3206110,-3.2442749,-17.4809170
5980,-0.8259954,11.5926657,-4.3670015,-89.1068726,-20.1832066,55.2519073,-0.3375807,11.5304165,2.1691356,-11.1526718,-1.1908396,-13.8549614
5990,-2.1308286,11.0467901,-4.7835903,-91.2748108,-32.4580154,65.8167953,-0.6224893,11.2000179,2.0470319,-8.1908398,2.5877862,-10.2290077
6000,-2.0829449,11.1928358,-4.8482337,-98.7251892,-41.3282433,79.0152664,-1.0917504,10.8408899,1.9081690,-7.1603055,4.9923663,-5.4045801
6010,-1.4197544,11.1018562,-4.1994085,-104.6183243,-53.3435097,86.2061081,-1.5011568,10.2016411,1.7429699,-8.0534353,5.2824426,-0.0458015
6020,-1.6424140,10.8408899,-2.8897867,-104.5419846,-64.1908417,90.9542007,-1.4245427,9.7922344,1.8890154,-9.8015270,2.2977099,8.2595415
6030,-3.2201848,10.6756907,-0.8116302,-83.3969498,-103.7557220,116.6259537,-0.6584021,9.2104464,2.1691356,-15.1450386,-3.6488550,19.9770985
6040,-3.4691806,10.3572636,-1.1444225,-67.8091583,-113.7404556,141.3511505,0.0000000,9.0356712,2.3439114,-15.4427481,-6.9770994,21.6030540
6050,-3.6248028,9.3732519,-2.4564383,-56.8931313,-106.4503784,213.5725250,1.0917504,8.6047173,2.6431851,-8.7022905,-4.4274807,12.9312973
6060,-3.0861101,9.4259243,-1.8124014,-60.8625946,-105.6335907,250.1297760,1.1827296,8.6621771,2.5402350,-3.7938931,-1.6946565,8.4961834
6070,-2.5162930,9.3924055,-1.4029950,-65.1984711,-104.1068726,250.1297760,1.1348459,8.7938576,2.2720859,0.3969466,2.0992367,4.6641221
6080,-1.2114599,9.9813757,-0.7134684,-69.6488571,-102.8549652,250.1297760,0.8331779,8.9135675,1.9752063,2.7633588,6.2061067,1.7328244
6090,0.7086801,9.9694052,-0.2298422,-70.1450348,-101.9007645,250.1297760,0.6200951,9.0428534,1.6112895,2.5572519,8.5954199,1.5954199
6100,3.1938488,10.0723553,-0.3567342,-65.6183243,-85.6717529,250.1297760,0.4477134,9.1434097,1.3862357,0.4351145,9.7251911,2.1374047
6110,5.0661049,9.5480280,-0.7421987,-61.7709923,-75.5038147,250.1297760,0.3232156,9.2966375,1.2425843,-3.7022901,10.6106873,2.2519083
6120,6.2296810,8.8321648,-0.7924767,-58.9160309,-80.7862625,250.1297760,0.1675933,9.4570484,1.3215926,-8.4122133,11.7099237,2.4274809
6130,7.4171991,8.4730368,-2.1140692,-61.4122124,-89.9160309,250.1297760,0.0191535,9.5312681,1.5897418,-12.5190840,11.9694653,2.6870229
6140,8.9015961,6.9287844,-3.2489152,-78.8091583,-104.5343475,250.1297760,-0.1532281,9.7012558,1.7860653,-15.5496187,11.3206110,2.7633588
6150,9.2894554,4.5082588,-3.4691806,-107.2595444,-125.5877838,216.0458069,-0.2202654,9.8209648,2.0733681,-17.7938938,10.2366409,2.8473282
6160,9.0811605,-0.4572902,-2.9113343,-141.2671814,-143.0458069,160.5648804,-0.2992737,10.0508070,2.3367288,-19.6412220,8.3511448,1.9160305
6170,9.5169029,-6.4212160,-2.4013720,-168.5496216,-130.7938995,108.4198456,-0.3782819,10.1202393,2.4301023,-21.3816795,6.1908398,2.0305343
6180,9.3828287,-14.9493189,-1.9871773,-198.1374054,-98.2061081,65.5572510,-0.5027798,10.1896706,2.4636209,-22.9923668,4.6641221,0.8778626
6190,8.6837254,-19.6131992,2.4923513,-210.3511505,-80.6106873,63.9007645,-0.6488253,10.2686787,2.6383967,-24.3435116,3.5496182,1.1603054
6200,10.3069859,-19.6131992,4.2496862,-190.5801544,-34.2977104,101.2748108,-0.8403605,10.2878323,2.8586621,-24.6946564,2.5038168,2.1984732
6210,14.9325600,-19.6131992,3.0382264,-159.9389343,43.7709923,128.5725250,-0.9026094,10.3309278,2.9448531,-24.4961834,2.1755726,5.0992365
6220,14.7769375,-19.6131992,1.3072275,-158.4809113,82.6106873,162.0152740,-0.7972651,10.2614956,3.0023136,-24.2442741,2.2824428,9.5648851
6230,12.5216112,-17.1256371,2.6599445,-176.4656525,56.6030540,213.5801544,-0.5674229,10.1369982,2.9831600,-24.3435116,3.2977099,13.9618320
6240,13.0076313,-9.2918491,9.2367830,-182.7099304,-31.5038166,250.1297760,-0.2346306,9.9047613,2.9041519,-25.1908398,4.3282442,18.0000000
6250,17.8295288,-3.0885043,18.6651001,-139.0305328,-147.6488495,250.1297760,0.2011119,9.6725254,2.9855542,-26.5725193,5.1984735,21.0534344
6260,19.6126022,1.4820032,19.6126022,-42.7022896,-249.7480927,189.6183167,0.4094064,9.4474716,3.0597742,-27.9694653,5.1297708,22.4045811
6270,19.6126022,4.1156116,19.6126022,74.6106873,-250.1374054,80.2900772,0.7182568,9.3110027,3.2297616,-28.6488552,4.2824426,24.6641216
6280,19.6126022,4.0629396,19.6126022,168.4732819,-185.0458069,-44.1526718,0.9409165,9.0500364,3.4548154,-28.4809170,1.9160305,26.1526718
6290,19.6126022,2.1571648,12.7490587,213.2977142,-63.7786255,-142.7099304,1.4029950,8.8944139,3.3973548,-27.8320618,-0.5038168,27.9312973
6300,19.6126022,-1.2282192,4.9320302,203.5114441,57.0687027,-203.1297760,1.8554969,8.7627335,3.4691806,-26.3969460,-1.8091604,27.6641216
6310,16.6180687,-5.0445571,-1.1372399,156.4045868,143.7480927,-233.3053436,2.1811066,8.6454182,3.4643922,-24.1221371,-2.3740458,25.0458012
6320,13.8767223,-8.2072811,-3.5936785,97.5877838,189.8625946,-248.7099304,2.4995339,8.6023226,3.3375001,-20.8549614,0.0305344,20.3511448
6330,10.7690639,-10.0939026,-3.5625539,52.7251892,209.1908417,-250.1374054,2.5689652,8.8177996,3.4045374,-15.7633591,3.6641221,15.7099237
6340,8.1546097,-10.1992474,-1.4365137,29.2442741,197.8549652,-245.7099304,2.8227494,8.9159613,3.3758070,-9.3282442,8.4809160,10.9083967
6350,6.6247220,-9.2679071,1.5179161,32.6259537,165.1297760,-228.9313049,2.8682389,9.0667953,3.3063757,-0.5877863,16.5496178,4.1832061
6360,6.4451580,-8.4754305,2.5378408,55.2442741,133.2061005,-210.9236603,2.5115047,9.3947992,2.9352763,8.3282442,24.4198475,-2.3129771
6370,5.1355362,-5.8298512,2.5019281,79.2977066,113.8167953,-193.3816833,1.9943599,9.7443514,2.2792683,14.9312973,30.1145039,-6.3664122
6380,2.9185169,-1.9368993,1.8578910,93.6946564,95.8931274,-169.4045868,1.5729824,10.0196829,1.6041069,16.7328243,31.7709923,-6.4274807
6390,2.6527619,0.9217629,0.7326220,95.8931274,76.5343475,-141.0000000,1.3934183,10.2974091,1.1109039,13.7709923,31.0229015,-5.2519083
6400,4.2568688,2.1858950,0.1436514,88.2137375,64.6564865,-116.4656525,1.2880739,10.5799236,0.6967092,7.2290077,27.4351139,-3.1221373
6410,6.9982157,2.7868366,0.6847382,81.1603088,64.2519073,-101.3129807,1.4029950,10.7570934,0.6248835,-1.5267175,22.0152664,-0.7480916
6420,10.2710724,3.9743545,0.8834559,77.3129807,72.4122162,-98.7557220,1.5993185,10.9773588,0.7110743,-10.9847326,16.6030540,0.5419847
6430,12.0571384,5.3749552,0.3471575,73.4809189,99.5190811,-106.8091583,1.6424140,11.1880474,1.1707586,-19.7022896,10.6564884,0.7251908
6440,10.9007444,7.4507174,-1.0534433,63.1068687,125.4274826,-118.8320618,1.6232605,11.1664991,1.4484847,-26.8854961,3.7022901,1.2824427
6450,8.1330614,9.7946291,-1.8938038,43.0610695,145.6335907,-123.2748108,1.5035510,11.2000179,1.8746504,-32.9847336,-3.2824428,2.6488550
6460,6.7899213,10.4697905,-2.3917952,20.0687027,136.8091583,-121.2442780,1.6950861,11.0396080,2.2074428,-38.1908379,-9.4809160,3.6412213
6470,6.3254485,10.0843258,-2.3606708,-2.3511450,108.2442780,-119.9007645,1.7238164,10.9582052,2.6479735,-41.4198456,-13.2519083,4.6946564
6480,6.3589673,10.0675669,-0.6799498,-16.4045811,77.6030502,-116.5038147,1.9416877,10.8193426,3.2058196,-42.1068687,-13.9465647,6.3893127
6490,6.7420373,10.3812056,1.4221486,-15.3664122,55.1832047,-111.4045792,1.9297167,10.6349897,3.4619980,-41.1221390,-11.9465647,7.3511453
6500,6.3900914,11.4825325,2.7221935,-2.6641221,50.7328262,-104.2671738,1.9416877,10.4147243,3.8642218,-38.3587799,-9.0229006,7.0152674
6510,5.9256191,13.0866394,3.0501974,10.6412210,54.2519073,-95.1603088,1.8794388,10.0962973,4.2329268,-34.5954208,-5.7251906,6.9465647
6520,5.7939386,14.2095146,2.8012016,18.6793900,59.9465637,-90.5801544,1.5083394,9.7515335,4.6543045,-28.4503822,-2.6259542,5.6641221
6530,4.9583664,14.5159702,1.8147956,14.6488552,47.0610695,-79.9923630,1.0007712,9.2607250,5.0804701,-7.1908398,2.4809160,3.6335878
6540,5.1786318,14.7122946,2.5186872,9.8015270,30.8015270,-70.0687027,0.8619082,8.8393478,4.9416070,6.4198475,5.1832061,2.6564887
6550,5.8657641,14.8343983,3.8953462,12.2595415,13.5877867,-63.8549614,0.8283895,8.5496502,4.3909435,19.9694653,9.7022905,0.3358779
6560,6.4738884,15.2868996,6.5145893,44.3969460,-3.7328243,-59.2824440,0.5769997,8.2216463,2.7341642,37.6412201,22.8778629,-6.9007635
6570,6.9407554,15.2605639,6.6582408,66.7328262,-0.9923664,-57.8244286,0.1340746,8.2024927,2.0877333,41.0305328,26.8320618,-10.7099237
6580,7.5440907,14.7242651,5.9423780,83.3587799,4.5496182,-58.7633591,-0.2920911,8.2599535,1.5586174,41.3740463,29.9694653,-12.8473282
6590,7.7068958,14.4800577,4.9775200,94.6183243,12.2748089,-60.9541969,-0.7685348,8.3652983,1.1252691,38.0916023,31.0610695,-13.7251911
6600,7.6566176,13.6349087,4.4029145,101.9160309,15.2824430,-66.0381699,-1.3551112,8.6310530,0.5698171,30.0916023,28.7251911,-11.9083967
6610,7.3262196,12.4761209,3.8714044,109.6641235,10.2900763,-72.5572510,-1.7094513,8.7340031,0.1412572,18.1755733,20.9236641,-6.7099237
6620,5.8442163,10.5464048,2.3558824,120.4885483,-4.6870227,-87.9160309,-0.8068419,8.6861191,0.0191535,-16.3664131,-5.4580154,6.9083967
6630,4.9080882,9.4283180,1.4724265,119.9236679,-13.5419846,-95.7022934,0.2561783,8.7220325,0.3040621,-33.8167953,-17.4198475,9.6870232
6640,3.7205703,8.4347296,0.8236012,114.7175598,-20.9160309,-99.8854980,1.3359578,8.5281029,1.0797794,-47.0687027,-27.0458012,8.8854961
6650,2.6838863,7.4650826,0.5530578,107.8320618,-28.4045811,-99.1297684,2.2146254,8.4347296,1.9105632,-55.2137413,-33.6641235,6.1755724
6660,1.8004304,6.6151457,0.6584021,100.7099228,-34.8167953,-94.7786255,2.8993635,8.4610653,2.8371146,-56.7328262,-36.8091621,1.4961832
6670,1.2210367,6.0572991,0.8283895,97.7022934,-36.1450386,-88.8854980,3.4452386,8.6118994,3.5553713,-52.6412201,-32.5419846,-6.2213740
6680,0.7254394,5.5664907,0.6799498,96.1603088,-34.4809151,-82.9923630,3.5314295,8.7842808,4.0246325,-44.8854980,-23.8625946,-14.9312973
6690,0.4764437,5.1379304,0.2633608,92.3435135,-32.7633591,-77.8396912,3.1794837,8.8992023,4.3239059,-34.9312973,-13.1374044,-22.5343513
6700,0.2370248,4.7213416,0.1364688,87.2290039,-29.1526718,-72.6183243,2.5953014,9.1434097,4.2401094,-24.5954189,-2.4351146,-27.5343513
6710,0.2394189,4.4507980,-0.0071826,83.1068726,-24.1603050,-68.6259537,2.0757623,9.3804340,4.0342093,-15.8854961,6.6564884,-28.7633591
6720,0.2992737,4.0318151,-0.3471575,77.1755753,-21.8702297,-65.1679382,1.6831152,9.5576038,3.7612717,-9.5190840,13.6717558,-28.5877857
6730,0.1101327,3.7253587,-0.5578461,69.1832047,-24.1221371,-59.7251892,1.4484847,9.7323799,3.5625539,-5.7328243,17.3664131,-27.6412220
6740,0.3687052,3.5290353,-0.4501076,60.9083977,-27.2748089,-51.8549614,1.2617378,9.9191265,3.3135581,-4.8167939,18.5954189,-26.8320618
6750,1.0941446,3.4428444,-0.0287303,54.4885483,-32.1297722,-44.9160309,1.1683644,10.0867205,3.2560976,-6.8167939,17.4122143,-26.8625946
6760,2.1236460,3.7588775,0.3591284,52.2748108,-29.9007626,-42.0610695,0.9313397,10.1705170,3.1651185,-11.0152674,13.7557249,-26.6412220
6770,2.7772598,4.0773048,0.2968795,50.8167953,-21.2671757,-45.3740463,0.5698171,10.1657286,3.3231349,-16.4580154,7.6106873,-24.9083977
6780,2.8945751,4.3167233,-0.3160330,44.9847336,-12.9083967,-53.2366409,0.4884146,10.1082678,3.5745249,-21.5801525,0.6717557,-22.1297703
6790,2.5019281,4.5106530,-0.7757174,34.2519073,-4.3969464,-60.7709923,0.7062859,10.0172882,3.9695661,-24.7022896,-4.5572519,-18.6030540
6800,1.9009864,4.2736282,-0.9576758,22.9083977,5.0076337,-64.0839691,0.9959828,9.8880024,4.3191175,-25.3816795,-5.8931298,-16.3206100
6810,1.0007712,3.9982965,-1.3239868,11.5038166,11.7709923,-60.0000000,1.3838415,9.7946291,4.6351509,-24.6412220,-4.4045801,-15.1755724
6820,0.2154770,4.1251884,-1.5203103,1.6488550,21.6335869,-47.3893127,1.5634058,9.7347746,4.9128766,-23.2748089,-0.8473282,-15.6641226
6830,-0.0311245,4.8314743,-1.6998745,-5.7099237,36.0152664,-30.6946564,1.4508789,9.8233595,5.2983413,-22.3053436,2.5648854,-18.8778629
6840,-0.1436514,5.9351954,-1.9416877,-10.9083967,48.2366409,-17.4961834,1.1109039,9.9167328,5.6814117,-21.9160309,3.7633588,-21.8625946
6850,-0.5650287,7.2567883,-2.2481439,-15.5725193,57.7099228,-6.2366414,0.9097920,9.9550400,6.1794028,-22.5725193,5.2366414,-25.2671757
6860,-1.1300575,8.8225880,-2.7892308,-19.7099228,62.6564903,4.7862597,0.5626345,10.2878323,6.6678176,-23.7862587,6.8167939,-31.3282452
6870,-1.7142396,10.3452930,-2.8897867,-23.7404575,57.2061081,16.1755733,0.0383070,10.6134415,7.4052281,-23.9465656,7.9847326,-37.7251892
6880,-1.6639616,11.6788559,-2.5593886,-25.2977104,42.2290077,25.7099228,-0.7493813,10.6206245,8.1498213,-21.2519093,6.2748094,-41.8244286
6890,-1.1013272,12.6987810,-1.6950861,-19.8625946,22.3893127,31.8167934,-1.6184721,10.6278067,8.8752604,-13.5496187,0.8396947,-41.6641235
6900,-0.3447633,13.4050665,-1.0534433,-7.9007635,5.2061067,34.5725174,-2.1020982,10.6062593,9.1649570,-1.3282443,-3.9465649,-37.8167953
6910,0.0933734,14.0012197,-0.9480990,7.6335878,-7.2366414,35.7175560,-2.3558824,10.4769726,9.1003141,14.0839691,-6.8778625,-29.9923668
6920,0.5985473,14.2119083,-0.9696468,22.6641216,-15.8931293,34.8549614,-2.2960277,10.4482431,8.6933022,31.4732819,-8.5648851,-20.2748089
6930,1.1923064,14.0826225,-1.4197544,34.8778610,-18.7480907,31.4198475,-1.8339491,10.3883877,7.9175844,47.8396950,-7.8549619,-9.1068707
6940,1.7764885,13.8025026,-1.9752063,42.3129768,-14.8625956,26.0381680,-1.3383518,10.3596573,6.7899213,62.2519073,-6.4351144,1.5190840
6950,2.1044924,13.1824074,-2.5881188,44.2137413,-7.3435116,19.0305347,-0.6105183,10.2543135,5.7819676,73.6030502,-3.5343511,9.5038166
6960,1.8890154,11.7434988,-2.8323262,36.4503822,5.1679387,6.0992365,0.6081241,10.1346035,3.9647777,87.9542007,3.8702290,18.4351139
6970,1.5681942,10.9366570,-2.6838863,31.3053436,4.8015265,4.5648856,1.1204807,10.0508070,3.1866663,89.7480927,7.1450381,16.9312973
6980,1.4628497,10.0579901,-2.3079987,25.8244267,3.0000000,5.8091602,1.2234308,10.1298151,2.4396791,89.5877838,9.6488552,15.5343513
6990,1.3551112,9.2655134,-1.6448082,21.7480907,-3.6793892,8.7862597,1.1755470,10.1800938,1.8961980,86.2213745,8.7480917,13.7175570
7000,1.4796091,8.6789370,-0.7565638,22.1679382,-14.0152674,12.1755724,1.1444225,10.1513634,1.4867916,81.3282471,5.2977099,12.3511448
7010,1.8387375,8.3030491,0.1436514,28.0000000,-23.3206100,14.9465647,0.9145803,10.3165627,1.3814473,75.7251892,-0.9312977,11.4122133
7020,2.2744799,7.8936424,0.6416427,36.3893127,-30.2595425,15.4885492,0.8451489,10.2471304,0.9313397,69.2824402,-9.3969469,10.7862597
7030,2.6575503,7.5393028,0.6344602,44.5114517,-30.1908398,13.3435116,0.8619082,10.1681223,0.6991033,61.8625946,-18.1145039,9.7099237
7040,2.7940190,7.3022780,0.1580165,47.0000000,-28.2290077,10.5801525,0.8092360,10.2160063,0.5482694,54.6717567,-25.7709923,9.0458012
7050,2.7557120,7.0628591,-0.4740495,43.3129768,-20.3740463,8.3358774,0.7062859,10.1034794,0.5315101,48.3053436,-30.6641216,8.5343513
7060,2.6623387,6.5600791,-0.8427547,35.5114517,-11.3282442,6.6030536,0.7110743,10.0077124,0.5674229,43.2671738,-32.9694672,8.2061071
7070,2.2816625,6.2177100,-1.0390782,24.2824421,-4.1755724,7.6870227,0.6560079,9.8568783,0.5147507,38.7862587,-33.2137413,8.3664122
7080,2.0446377,5.8537931,-0.9768293,14.4961834,5.0229006,11.2366409,0.5865764,9.6892843,0.7254394,35.1755714,-32.1603050,7.1221375
7090,1.9752063,5.5952206,-0.8714849,6.7938933,13.1068707,16.9541988,0.4548960,9.5312681,0.8762733,32.6870232,-29.2900772,5.5190840
7100,2.0135133,5.5042415,-0.7805058,1.4122137,18.9312973,23.5572510,0.1795642,9.5169029,1.1779412,32.0076332,-23.9083977,5.2442746
7110,2.2840567,5.4587522,-0.9385223,-2.0687022,25.4732819,29.7251911,-0.2633608,9.3205795,1.3742647,32.2671738,-16.8167934,6.5419846
7120,3.2321558,5.5856438,-1.6759326,-10.2442751,37.2671738,33.3358765,-0.8451489,9.0524302,1.7429699,34.5190849,-2.4580152,13.8854961
7130,3.7109938,5.8944945,-2.0494261,-17.0305347,45.9083977,32.2366409,-0.9265513,8.8776541,1.8770446,34.9847336,1.7022901,17.6259537
7140,4.2041965,5.6598639,-2.1715298,-28.0229015,56.7022896,27.0152664,-0.9313397,8.6741486,1.8626794,34.6488533,4.4885497,22.0687027
7150,4.3981261,5.9926562,-2.4779861,-36.3206100,76.1374054,21.5572510,-0.7829000,8.4634600,1.8004304,33.3511467,4.8702292,25.2290077
7160,3.7516949,7.1705976,-2.5905130,-46.9083977,89.6106873,19.8015270,-0.5291159,8.2384062,1.7238164,31.1679382,4.0992365,26.8167934
7170,3.3303175,7.7452030,-3.2058196,-62.0992355,95.3358765,18.1374054,-0.2226596,7.9894104,1.7333932,28.3129768,2.4885497,27.1526718
7180,2.7317703,8.1881275,-3.5888901,-80.5114517,94.8702316,17.8091602,-0.0933734,7.8481531,1.4820032,24.0152664,-0.0305344,27.0000000
7190,2.0901275,9.0596132,-3.7756367,-100.9618301,90.1221390,20.3816795,0.2968795,7.9080076,1.3694763,18.4198475,-3.1832061,26.2671757
7200,1.9033806,10.2758608,-3.0454090,-118.1297684,83.5648880,23.0381680,0.6224893,7.9918046,1.3287752,11.7862597,-7.8854961,24.4961834
7210,1.4580613,11.5016861,-1.5490406,-126.0610657,77.8091583,22.8320618,0.7158626,8.1785507,1.3551112,4.2137403,-12.7099237,22.6412220
7220,0.8571198,12.8639803,-0.2849085,-121.1679382,74.4351120,20.4885502,0.6967092,8.2551651,1.0654143,-3.6259542,-17.5343513,22.0839691
7230,-0.8403605,14.8703108,0.6272776,-107.1145020,73.2748108,22.8778629,0.7158626,8.4155760,1.0295014,-11.4045801,-21.7175579,23.3816795
7240,-1.7788827,15.7465839,0.9768293,-86.1603088,67.5343475,32.1679382,0.7613522,8.5041609,0.9648584,-19.2977104,-24.5190830,25.1984730
7250,-1.2976507,15.9716377,1.2473727,-59.3053436,63.4503822,44.6335869,1.0749911,8.5520449,0.9888002,-26.3587780,-26.5801525,28.3969460
7260,-0.1771700,15.9357252,1.3431402,-28.8091602,66.0076370,58.2213745,1.7381816,8.8201942,1.1109039,-31.5725193,-27.6183205,29.6946564
7270,0.5339043,15.7824965,-0.0837966,-2.5038168,72.8396912,72.1221390,2.1140692,8.8321648,1.5131277,-33.6259537,-27.7022896,28.7633591
7280,0.6703730,15.7417955,-2.2194135,10.6488552,64.6259537,84.4198456,2.6575503,9.1290445,2.0350611,-30.6793900,-26.3206100,26.7175579
7290,0.7685348,16.0793762,-2.8514795,17.8091602,29.2671757,90.7328262,3.1004753,9.3900108,2.2433555,-24.2748089,-22.6717548,22.9694653
7300,1.0654143,16.1895084,-2.1882892,29.0152664,-25.9541988,91.3053436,3.2417326,9.5504217,2.1763182,-15.8473282,-17.1297703,17.1603050
7310,1.3168042,16.2134514,-1.2928623,47.1679382,-82.2671738,85.8854980,3.3159523,9.7132263,2.0542145,-7.4503818,-11.9694653,10.0381680
7320,1.2808913,15.9907913,-0.6512195,69.1832047,-121.4274826,78.1603088,3.0454090,9.9670105,1.6950861,-1.3282443,-8.9083967,3.4961832
7330,0.5267217,15.3276005,-1.0749911,89.3358765,-138.8244324,76.2595444,2.7102225,10.2734671,1.2401901,2.6030533,-9.0305347,-1.7709924
7340,-0.4189832,14.6572275,-1.8052188,102.7328262,-141.3587799,82.1679382,2.4013720,10.4219065,1.0127422,4.1450381,-10.9312973,-4.1068702
7350,-1.1156923,13.8025026,-2.7868366,109.5496216,-135.6259613,91.2748108,2.0518203,10.4554253,0.8259954,4.6412215,-13.5343513,-5.3893127
7360,-2.0949159,12.8137016,-3.3015873,111.9160309,-127.5877838,101.3358765,1.9368993,10.4362717,0.7158626,3.4045801,-15.8854961,-6.7633586
7370,-2.7964132,11.9134865,-3.5386121,113.5419846,-116.2977066,117.6946564,1.7717001,10.3931761,0.7038917,2.4351146,-16.9618320,-6.6106873
7380,-3.2034254,10.6565371,-3.7253587,114.8625946,-99.9389343,139.9541931,1.6783268,10.2399483,0.7733232,1.0534351,-16.0687027,-6.8473282
7390,-3.5625539,9.9502516,-4.1275826,114.5267181,-79.5038147,165.4809113,1.5514348,9.9646168,0.9026094,0.3358779,-14.2519083,-7.9007635
7400,-3.7947903,8.8489246,-4.6638808,112.7251892,-62.0610695,193.6412201,1.0965388,9.7299862,1.1659702,0.6106870,-11.7328243,-8.4580154
7410,-3.2896163,7.4890246,-5.3462253,109.8931274,-45.4503822,224.3206177,0.6919208,9.5480280,1.6711442,2.5114503,-8.9236641,-7.9007635
7420,-2.2098370,5.6574697,-5.6981707,109.4198456,-36.6412201,250.0686951,0.5746055,9.3110027,1.8531027,5.4656487,-6.0076337,-6.3893127
7430,-0.9504932,4.0533628,-6.0333576,108.7099228,-32.9923668,250.1297760,0.5219333,9.2391768,1.9273225,8.9083967,-3.0000000,-4.4351144
7440,0.5746055,2.5019281,-6.4044566,105.2519073,-34.3740463,250.1297760,0.4333483,9.2631187,1.9991482,11.5496187,-0.2137405,-3.3740458
7450,1.4724265,1.0103480,-6.5624733,98.1221390,-43.1068687,250.1297760,0.5769997,9.1960821,1.8985922,12.1679392,1.2213740,-2.0381680
7460,2.9520357,-0.5817881,-6.5600791,87.4198456,-55.4198456,250.1297760,0.6679789,9.1386213,1.6519908,10.7099237,0.6793893,-1.2977099
7470,4.6543045,-2.2553265,-6.4523406,71.7251892,-73.7633591,250.1297760,0.8379663,9.1769285,1.5753766,7.3053436,-1.2977099,-0.6488550
7480,7.0030041,-4.0653338,-5.7197185,53.4122124,-95.5496216,250.1297760,0.9744351,9.1434097,1.4341195,1.5877863,-4.8396945,0.3358779
7490,10.0843258,-6.0549049,-4.7979555,28.9312973,-121.1450348,229.3435059,1.1563935,9.0715837,1.4843974,-4.6641221,-9.8473282,1.1297710
7500,14.3004932,-8.6238708,-2.7485294,3.3511450,-141.6870270,179.1755676,1.4173602,8.9925756,1.7860653,-10.1145039,-15.0381680,0.2671756
7510,18.8781834,-10.8480721,0.3399749,-21.3587780,-147.2442780,110.7175598,1.7764885,8.9710283,2.0422437,-13.3206110,-18.6183205,-2.1221373
7520,19.6126022,-14.3986549,3.6942344,-44.1603050,-116.4427490,43.0228996,2.0733681,9.0931320,2.2218077,-14.0534353,-19.3129768,-6.2442746
7530,19.6126022,-16.8670654,6.9048424,-58.8778610,-28.5648861,6.6335878,2.0949159,9.0787668,2.4013720,-12.7938929,-18.2061062,-10.2900763
7540,19.6126022,-16.9508610,8.2168579,-70.1908417,118.0610657,16.4580154,1.8985922,9.1410151,2.5450234,-10.1908398,-16.3129768,-13.4656487
7550,15.9237537,-13.2015610,6.6247220,-85.5954208,246.2061005,71.2137375,1.6735384,9.2918491,2.4085546,-7.0305343,-13.6488552,-15.2977095
7560,10.5535870,-4.5178356,3.3470769,-123.1679382,250.1297760,146.1832123,1.4628497,9.4474716,2.3654592,-3.6793892,-10.0152674,-17.0152664
7570,9.7395630,4.3358769,3.2465210,-179.2977142,243.0152740,185.0686951,1.4197544,9.5767574,2.2337787,-0.8167939,-6.0687022,-17.7404575
7580,13.8503857,8.7483683,10.6852674,-194.9007568,150.2213745,156.6335907,1.1061156,9.7060442,2.0590029,1.0229008,-3.0229008,-18.4427490
7590,19.5724983,8.9087791,19.4192715,-124.6183243,52.6488533,80.3740463,0.8738791,9.7635050,1.8459201,2.1908398,-1.0687023,-19.3129768
7600,19.6126022,5.0684991,19.6126022,142.9847260,4.3053436,-113.1374054,0.4812321,10.0771437,1.8387375,3.0000000,-1.8167939,-18.4122143
7610,19.6126022,1.9704180,8.9231443,205.4503784,27.9770985,-195.4732819,0.4285599,10.2016411,1.6687500,2.9541984,-3.0916030,-17.0992374
7620,19.6126022,-1.8602852,-1.0654143,191.4045868,50.3282433,-250.1374054,0.4955972,10.2399483,1.7022687,2.9007633,-4.2748094,-16.6870232
7630,18.7752342,-4.3119354,-6.7683735,119.0381699,58.6183205,-250.1374054,0.4692611,10.2303715,1.8842272,3.3969467,-5.1832061,-17.1908398
7640,15.8184099,-5.7436604,-8.8896255,26.7786255,71.9007645,-250.1374054,0.3160330,10.3261395,1.9057748,5.2824426,-4.2824426,-17.3358784
7650,14.2573986,-6.3493905,-6.9335728,-52.3282433,85.1755753,-250.1374054,0.1125269,10.3213511,1.9105632,8.2061071,-3.2137403,-17.5648861
7660,12.9046812,-6.2655940,-3.7564833,-103.0152664,93.4503784,-250.1374054,-0.1221037,10.3500814,1.9345051,11.4885492,-1.7938931,-15.6259546
7670,11.9996777,-5.5090299,-0.8427547,-125.4885483,106.2748108,-250.1374054,-0.1771700,10.4410601,1.5658000,13.9312973,-0.0381679,-13.5801525
7680,10.9127159,-4.1898317,1.0414724,-126.0152664,123.4809189,-250.1374054,-0.1963235,10.3692341,1.4389079,15.6183205,1.7328244,-10.2595415
7690,9.1242561,-1.9201399,1.8626794,-112.6564865,148.7709961,-250.1374054,-0.1197095,10.3141680,1.2473727,16.4732819,3.3511450,-7.5267177
7700,6.9694853,-0.7565638,1.3886299,-95.4427490,160.9618378,-250.1374054,-0.0335187,10.2375546,1.0247130,16.6412220,5.5419846,-4.4122138
7710,5.4994531,0.2082945,1.2377959,-72.1908417,148.8931274,-239.8854980,0.0526722,10.2016411,0.9361281,16.4427490,7.9694657,-2.2595420
7720,4.7309184,1.8435259,1.7788827,-40.1145020,119.4351120,-216.9847260,0.1221037,10.1250277,0.6536137,15.3282442,9.2824430,-0.5114504
7730,4.8434453,3.2632802,1.9057748,-4.4961834,82.1908417,-198.3664093,0.1628049,10.0962973,0.5027798,13.1145039,10.6564884,0.5877863
7740,5.4443870,5.0708933,1.0079538,26.5725193,56.7862587,-185.4961853,0.1651991,10.0699606,0.4357425,10.0000000,11.3282442,2.1755726
7750,5.2241216,6.7851329,-0.6248835,46.4045792,53.2900772,-178.5419922,0.0383070,10.0077124,0.3160330,5.7786260,11.3435116,5.1374044
7760,3.9959023,8.9470863,-2.7197993,49.9312973,59.3206100,-172.6488495,0.1987177,10.0508070,0.2442073,0.0763359,10.0000000,8.1832066
7770,3.2824337,10.2614956,-4.8171091,36.3435097,54.7633591,-169.8015289,0.3687052,9.9191265,0.2825144,-6.3740458,8.3893127,12.0916033
7780,3.0645626,10.5320396,-5.6263452,11.7404585,44.1221390,-173.5114441,0.5626345,9.7108326,0.3639168,-12.7022905,5.8778625,14.0000000
7790,2.0111191,11.1186161,-5.5712790,-14.3358774,44.1755714,-182.0000000,0.8020535,9.6437950,0.7230452,-18.1984730,3.7480917,15.0381680
7800,-0.4836263,11.7937775,-5.8873119,-37.3893127,67.1450348,-185.5343475,0.9720409,9.4139528,1.0534433,-22.1145039,2.3816793,15.7099237
7810,-4.5920553,12.9118633,-7.0652533,-60.1145020,96.7709961,-170.5114441,1.1252691,9.2655134,1.3551112,-24.7480907,1.6335878,15.9694653
7820,-7.7667508,14.7218714,-7.6518297,-84.1755753,106.6946564,-138.4351196,1.3982066,9.1984758,1.6687500,-26.4045811,1.4885496,15.3587790
7830,-8.9375095,16.7449608,-6.4954362,-102.9389343,104.7709961,-99.8854980,1.6208663,9.1074963,2.0039365,-27.2595425,1.9007634,13.8625956
7840,-7.5345144,17.8869896,-4.7811961,-104.0381699,95.5267181,-75.1450348,1.6831152,9.2224178,2.2577207,-27.1068707,2.2595420,11.5114508
7850,-5.1403246,18.6172180,-2.8658447,-87.3206100,80.7099228,-65.6183243,1.8578910,9.4642305,2.5593886,-26.4045811,1.8167939,9.1221371
7860,-3.2010312,18.7105904,-1.2449785,-59.7938919,61.1984749,-65.7099228,1.8794388,9.6581602,2.6383967,-26.1679382,1.9465649,6.1450381
7870,-2.0350611,19.0433826,-0.3184272,-29.0305347,38.0000000,-68.2442780,1.8531027,9.8042059,2.6910689,-26.8473282,2.7404580,4.6946564
7880,-1.4125718,18.7872047,0.5291159,-2.5114503,15.4503813,-64.5114517,1.6160779,9.8281479,2.7628946,-29.0458012,2.2442749,3.2290077
7890,-0.3902529,18.6124287,1.6926919,21.7480907,-9.4961834,-52.5114517,1.3527170,9.9502516,2.8466914,-32.4198456,-1.1755725,3.0458016
7900,1.0582317,18.2389355,2.7892308,42.4122124,-31.1679382,-40.4809151,1.1875180,9.9191265,3.0501974,-35.9847336,-7.2977099,4.1908398
7910,2.6599445,17.3435078,3.6918402,60.0839691,-44.2595406,-30.5419846,1.1899122,9.9478569,3.2034254,-39.1832047,-14.1526718,5.8702292
7920,3.8594334,16.2182388,4.6854286,78.6412201,-49.2595406,-25.2824421,1.3000449,10.0125008,3.4356618,-40.9312973,-20.0839691,8.3053436
7930,4.7835903,15.0762110,5.1953912,98.6717529,-51.3893127,-26.7786255,1.6136837,9.8903971,3.5386121,-41.3969460,-23.8396950,10.2900763
7940,5.1331420,14.0107965,4.8841467,116.9236679,-49.2977104,-33.8702278,1.8052188,9.6390066,3.7062054,-40.6564903,-25.6870232,11.4961834
7950,5.4467812,12.6939926,4.4819226,132.3664093,-38.8167953,-46.7938919,2.0590029,9.5264797,3.6200144,-37.7099228,-25.6641216,11.9312973
7960,4.7381010,11.5615406,4.0342093,147.5648804,-30.5038166,-65.7633591,2.2481439,9.2152348,3.7469065,-33.0687027,-23.1908398,11.8244276
7970,3.5984666,10.5679522,2.5881188,150.8473358,-32.2900772,-78.1755753,2.3319404,8.9997578,3.8857694,-25.9541988,-17.3435116,9.9465647
7980,2.8586621,9.5743637,2.0709739,146.6030579,-35.9312973,-83.5267181,2.3032103,8.6526003,3.6894460,-16.4732819,-9.6259546,7.7557254
7990,2.3127871,8.4706421,1.5753766,139.3358765,-38.3511467,-86.6793900,2.1116750,8.5065556,3.5410061,-5.5572519,-1.7022901,3.9923663
8000,0.8188128,6.5744443,1.1324517,122.7175598,-42.2519073,-85.6717529,1.4939742,8.4586716,2.8826041,16.2061062,14.0916033,-5.4961834
8010,0.3351865,5.7604198,1.2354017,118.4961853,-41.5267181,-82.4274826,0.9169745,8.5328913,2.1858950,24.4122143,20.1297703,-9.6030531
8020,-0.0215477,4.8266859,1.0893562,118.7480927,-35.3740463,-80.9083939,0.2825144,8.2886839,1.3934183,30.0534344,23.1679382,-10.8702288
8030,-0.4884146,4.0294209,0.5889706,118.8625946,-28.9007626,-80.0916061,-0.2920911,8.7531567,0.6224893,29.1832066,24.0229015,-9.6641226
8040,-1.0869620,3.7253587,-0.1340746,117.0839691,-22.4809170,-76.9465637,-0.6248835,9.2655134,-0.2130829,21.3435116,19.3511448,-6.1832061
8050,-1.8674678,3.2034254,-0.8307837,111.6717529,-19.7099228,-69.8320618,-0.6775556,9.1410151,-0.7805058,10.1374044,10.7404585,0.7175573
8060,-2.2792683,3.0286496,-1.3622938,103.1450348,-20.7633591,-58.2213745,-0.2537841,9.3493099,-1.1180865,-5.8320613,1.2137405,9.2824430
8070,-2.5210814,2.8921809,-1.6615674,94.6412201,-22.0305347,-45.2748108,0.6560079,9.3397331,-1.0869620,-24.0152664,-9.2366409,15.7022905
8080,-2.5785420,2.7102225,-1.8411317,83.8015289,-25.0992374,-33.1755714,1.7836711,9.2104464,-0.4860204,-40.3511467,-20.2519093,17.1068707
8090,-2.4277081,2.6000898,-1.8339491,72.1526718,-25.4809170,-20.8778629,2.8203552,8.9758167,0.5650287,-51.9160309,-28.9618320,17.3893127
8100,-2.3415172,2.7269819,-1.7190280,62.4122124,-23.9541988,-9.8320608,3.9575951,8.5711985,1.9009864,-54.7404594,-32.3893127,13.1145039
8110,-1.9321109,2.9352763,-1.7381816,53.8244286,-19.4732819,-1.9770992,4.9392128,8.6358414,3.2537034,-48.6412201,-29.6259537,4.9618320
8120,-1.6783268,3.1555417,-1.8746504,43.0000000,-16.4198475,3.5572519,5.5808558,8.5568333,4.6782460,-33.9465637,-22.3206100,-6.6564884
8130,-1.4652439,3.6535332,-2.1787124,29.4198475,-10.9160309,8.2366409,5.4826937,8.8656836,5.4300218,-13.0229006,-9.2213745,-18.9847336
8140,-0.8451489,4.2520804,-2.1667414,15.8702288,-0.4274809,9.4274807,4.7500720,9.1793222,5.1906028,8.2977095,5.0229006,-28.2519093
8150,-0.8068419,5.1834202,-2.8419030,-10.0305347,24.3129768,0.0152672,3.3710186,9.5240860,3.5434003,36.3969460,21.1908398,-35.2061081
8160,-1.1109039,5.9160423,-3.4428444,-22.5954189,41.4503822,-2.1145039,3.1052637,9.8712435,2.3654592,41.0305328,23.4198475,-35.0458031
8170,-2.0853391,6.5935979,-4.0342093,-33.7022896,64.2366409,0.2442748,2.8586621,10.0962973,1.4963684,40.1526718,21.7175579,-35.1603050
8180,-3.1172347,8.6023226,-4.6973996,-41.2748108,94.4580154,9.9160309,2.7126167,10.3644457,0.7948709,33.7480927,18.7862587,-36.3587799
8190,-5.1283536,11.0467901,-5.6191626,-47.4351158,118.0916061,22.3206100,2.4612267,10.4961262,0.4165890,23.3282452,13.9465647,-39.1984749
8200,-6.5098009,12.7730007,-6.3876977,-50.3740463,123.1908417,36.9236641,1.9536586,10.4195127,0.4165890,11.3206110,8.9236641,-42.2137413
8210,-6.1291251,14.1305065,-6.3685441,-45.9694672,105.8015289,48.3740463,1.1563935,10.3716288,0.6416427,0.6641222,4.1755724,-43.3664131
8220,-4.9128766,14.5111818,-5.9184365,-28.7404575,70.5267181,52.3053436,0.3016679,10.4171181,1.5993185,-6.8015265,1.9236641,-42.8244286
8230,-3.0525916,14.3818960,-5.2815819,-2.1068702,33.4732819,48.8549614,-0.3112446,10.3524752,1.9536586,-11.3511448,0.7175573,-40.5419846
8240,-1.4149660,14.0155849,-5.2169390,28.8167934,8.4732828,39.9083977,-0.8164186,10.1753054,2.2577207,-13.1984730,-1.5572519,-35.6335869
8250,-0.3734936,13.3284531,-5.6407104,51.6183205,0.6564885,31.6564884,-0.9145803,10.1609402,2.4301023,-14.1908398,-5.3206105,-29.9923668
8260,0.1675933,12.7299051,-6.3062949,65.1068726,-1.4656489,28.8091602,-0.5482694,10.2543135,2.3175755,-15.5572519,-6.0229006,-23.4198475
8270,0.7110743,11.9015160,-6.8018923,69.1068726,-2.4274809,24.9618320,-0.2298422,10.1393919,2.1380112,-17.9236641,-4.8931298,-19.1526718
8280,1.0414724,11.1497402,-7.0149751,63.1526718,-4.4274807,21.6870232,-0.1556223,10.1082678,2.1763182,-20.4961834,-3.7633588,-16.2900772
8290,0.9744351,10.4841557,-6.7133074,50.6870232,-5.0916033,21.5190830,-0.1412572,9.9287033,2.3127871,-23.2366409,-3.7633588,-15.0916033
8300,0.8499373,9.4762020,-5.6502872,36.3969460,-5.9160304,25.1450386,-0.1149211,9.9191265,2.3678534,-25.9694653,-4.6717558,-13.5038166
8310,0.8044477,8.6166878,-4.5226240,24.7786255,-8.8549614,31.0458012,-0.0071826,9.7850523,2.5306582,-28.3206100,-6.2671757,-14.1221371
8320,0.5602403,7.9127960,-3.2130022,16.4045811,-13.7633591,39.1908379,0.0574605,9.8903971,2.6743097,-30.8625946,-7.0839696,-14.1221371
8330,0.7182568,7.2591825,-1.9368993,11.3053436,-18.8549614,49.2061081,0.1221037,9.8449068,3.1148405,-32.3587799,-7.9160304,-14.9618320
8340,1.6424140,6.7875271,-0.8188128,11.1984730,-18.6106873,56.1526718,0.0885850,10.0077124,3.3375001,-32.6641235,-8.6564884,-14.9465647
8350,2.7245877,6.3134775,0.0502780,17.1755733,-11.0763359,56.2213745,0.1604107,10.0843258,3.7253587,-31.1221371,-8.4732828,-12.8702288
8360,3.4212968,5.9447722,0.2130829,26.5267181,1.7175573,48.1526718,0.2777260,10.2567072,3.9408360,-28.1603050,-7.5725193,-11.5572519
8370,3.4955165,5.7915444,-0.3758878,33.5572510,15.2977095,35.4732819,0.4548960,10.3979645,4.4412212,-24.0229015,-6.1221375,-11.2900763
8380,3.0310438,5.6766233,-1.3646880,34.0839691,25.1450386,20.6641216,0.3543400,10.5966825,4.8602047,-17.6335869,-3.9847329,-10.7022905
8390,-0.0574605,4.4316444,-3.6200144,-28.3740463,31.2290077,-8.0152674,0.3112446,11.2646618,4.7165532,13.7862597,1.1526718,-5.9312978
8400,-0.5865764,4.1706781,-3.3518653,-42.0839691,25.5725193,-2.6564887,0.1388630,11.5304165,4.4651632,17.3893127,0.9847328,-4.4274807
8410,-0.5985473,4.1323709,-3.1028695,-52.0687027,22.0381680,4.4732823,0.0383070,11.6237898,4.2329268,18.0152664,-2.0305343,-1.9618320
8420,-0.2178712,4.3837609,-3.1603301,-58.8015251,19.8854961,9.2977095,-0.0215477,11.7147694,4.0940638,15.1450386,-7.4656487,1.1068702
8430,0.0359128,4.9775200,-3.2273674,-64.0839691,21.0763359,11.5114508,0.2537841,11.8751793,4.1227942,9.6641226,-17.8473282,5.2137403
8440,0.1388630,5.6047974,-3.6295912,-70.1679382,23.2977104,13.1984730,0.6057299,11.8488436,4.4579806,4.9465647,-31.9618320,7.4274807
8450,-0.2011119,6.3853035,-4.4053087,-77.1984711,27.1068707,16.5496178,0.6177009,11.6908274,5.2863703,4.5954199,-48.2900772,8.5343513
8460,-0.8954269,7.2136927,-5.0972295,-85.7022934,32.2442741,21.6946564,0.8762733,11.5016861,5.7005649,11.1908398,-63.2748108,6.9083967
8470,-1.7309990,8.2240410,-5.6000090,-96.1908417,36.7709923,28.3435116,1.0366840,11.2981796,5.7771792,22.6870232,-69.5496216,1.8396946
8480,-2.5833304,9.3732519,-5.6215568,-105.5343475,37.4045792,36.9618340,1.0366840,10.8983507,5.4922705,37.0305328,-67.4961853,-2.7480917
8490,-2.8227494,10.1106625,-5.0780759,-108.3053436,35.1832047,46.9694672,0.7613522,10.6349897,4.6878228,51.4122124,-59.3206100,-5.0763359
8500,-2.9209111,10.9438400,-4.9870968,-103.9618301,32.5801544,58.5572510,0.4189832,10.3285332,3.8594334,63.2442741,-47.4503822,-4.7633586
8510,-3.2632802,11.8799677,-5.5784616,-98.0992355,30.0305347,71.1374054,0.1149211,10.0460186,2.9975252,71.8931274,-33.2595406,-2.2519083
8520,-4.0366035,12.5287933,-5.9232249,-95.4351120,23.2366409,85.4732819,-0.1723816,9.7778702,2.1092808,76.3435135,-17.6717548,3.1297710
8530,-4.8338685,13.0890341,-6.0836353,-93.2061081,-0.9160305,106.6946564,-0.3615226,9.5360565,1.3575054,76.4885483,-2.9083970,8.9770994
8540,-4.3358769,13.6181498,-5.5281835,-90.5572510,-33.2595406,134.3740387,-0.5386927,9.0907373,1.0510491,72.9542007,8.7862597,14.4122133
8550,-1.4149660,13.5798426,-3.4380560,-80.8091583,-56.9694672,152.4045868,-0.6464311,8.8177996,0.9217629,67.2061081,17.0763359,19.9618320
8560,0.5243275,13.9772778,-1.1707586,-55.8244286,-60.1068687,155.2977142,-0.7086801,8.4562769,1.0175306,60.3740463,20.1374054,24.5267181
8570,-0.1675933,13.5678720,-0.8140244,-24.3740463,-53.6946564,161.8015289,-0.6033357,7.9918046,1.0558375,53.0000000,18.4809170,25.9618320
8580,-0.8355721,13.4337969,-1.8411317,-0.1603053,-45.5267181,182.7709961,-0.3854645,7.5919747,1.1731528,45.0763359,12.9618320,25.2442741
8590,-0.7158626,13.7689838,-2.7700772,11.5267172,-35.3893127,207.2061005,-0.1244979,7.3908629,1.2354017,37.3816795,6.0152674,24.2748089
8600,-0.3399749,12.9453821,-3.5553713,19.7099228,-30.6488552,228.1832123,0.0909792,7.1586266,1.2641320,29.9236641,0.2671756,22.2595425
8610,-0.4692611,12.9932661,-4.7740140,22.5267181,-34.0687027,250.1297760,0.3040621,6.7372489,1.3239868,23.1832066,-4.1679387,20.7404575
8620,0.9744351,12.7490587,-5.4108682,28.4351139,-47.9618340,250.1297760,0.4740495,6.5505023,1.4317253,17.7786255,-8.1755724,19.0839691
8630,1.0414724,12.3444405,-5.6191626,37.7328262,-71.1679382,250.1297760,0.6488253,6.4451580,1.3000449,13.7709923,-10.6870232,17.1526718
8640,0.4979914,11.8703909,-3.8354914,59.0916023,-100.2977066,250.1297760,0.7445929,6.3661499,1.2689204,10.2213745,-11.1679392,14.9770994
8650,0.6248835,10.7403336,-4.2832050,84.6641235,-111.7251892,250.1297760,0.9648584,6.2751703,1.0366840,6.6030536,-9.8396950,12.3206110
8660,2.3558824,10.2543135,-6.5983863,96.0610657,-109.5114517,250.1297760,1.0702027,6.4164276,0.9097920,1.9923664,-8.5648851,8.3740454
8670,3.5793133,9.8520899,-8.8489246,88.4809189,-104.6412201,250.1297760,1.2449785,6.6654234,0.6009415,-3.7633588,-7.9694657,6.3206105
8680,3.9097114,9.0213060,-10.1848822,65.7328262,-103.8320618,250.1297760,1.2521610,6.9024482,0.3351865,-10.7786255,-6.7557254,3.1526718
8690,3.4596038,7.8122401,-9.9430685,34.5801544,-112.5419846,245.8167877,1.1635761,7.2400289,0.3375807,-18.7251911,-6.4732823,1.7938931
8700,3.2872221,5.7173243,-8.1474266,5.4580154,-130.4427490,230.3053436,1.1204807,7.5680327,0.4596844,-26.8396950,-9.2442751,1.3740458
8710,3.5936785,3.1890604,-5.5425487,-10.2290077,-164.4961853,211.1908417,1.1659702,8.0133524,0.8212070,-33.4427490,-15.3129768,-1.1145039
8720,4.7883787,-0.0766141,-3.4189026,-12.3893127,-209.4580078,188.0763397,1.3263810,8.5783806,1.2401901,-37.8702278,-22.0229015,-4.0000000
8730,6.6031747,-3.7157819,-1.7597293,-6.8549619,-250.1374054,162.9618378,1.6112895,9.1386213,1.6663558,-39.5725174,-27.6106873,-7.0916033
8740,9.3469152,-8.0708122,-0.3232156,3.8396947,-250.1374054,134.2442780,1.8195840,9.7994175,1.8961980,-38.4122124,-30.9770985,-11.0152674
8750,12.3923244,-12.2797976,1.0247130,15.7557249,-250.1374054,107.0305328,2.0326669,10.5990763,2.0829449,-35.7938919,-34.2137413,-16.6488552
8760,16.6252518,-15.2797174,3.1938488,30.8167934,-250.1374054,84.7251892,2.0446377,11.1641054,2.1499822,-31.7404575,-35.7175560,-22.9160309
8770,16.9173431,-16.5534267,5.2672167,58.0000000,-222.9541931,73.8244247,1.8961980,11.7554703,2.2984219,-26.3587780,-34.0381660,-26.2748089
8780,15.2102852,-15.8495340,3.3710186,97.9542007,-174.6335907,91.2519073,1.7022687,12.2510672,2.4731977,-19.7786255,-29.8167934,-26.9618320
8790,13.3715477,-13.0914278,-1.7214222,124.0687027,-98.9847336,153.1450348,1.3646880,12.6006193,2.6479735,-12.4809160,-24.7175579,-25.3587780
8800,15.7609491,-7.6111283,-6.4140334,109.8015289,-25.8015270,229.8549652,1.0486550,12.8352499,2.7054341,-4.8778625,-18.9389305,-21.2748089
8810,19.6126022,-1.6352314,-9.1146793,48.9083977,22.8854961,245.2824402,0.7469871,12.8544035,2.5929072,2.3587787,-13.5343513,-17.4961834
