timestamp,rxacclX,rxacclY,rxacclZ,rxgyroX,rxgyroY,rxgyroZ,txacclX,txacclY,txacclZ,txgyroX,txgyroY,txgyroZ
0,10.0771437,-19.6131992,-4.2233500,44.9618340,48.4885483,47.5114517,1.5059452,2.6886747,10.4530315,15.0610685,26.5648861,10.4885492
10,7.0868006,-19.6131992,-5.4491754,-13.7328243,107.2366409,106.2519073,1.4580613,3.1770895,10.5416164,8.1603050,28.0305347,7.5114503
20,7.2448173,-17.7888279,-3.8953462,-94.9007645,147.1679382,198.3129730,1.3814473,3.3518653,11.0898857,3.5038168,14.6641226,6.1374044
30,13.8575687,-12.6269550,3.8522508,-131.7862549,129.4656525,250.1297760,1.5969244,3.2465210,11.4825325,2.4274809,-1.7862595,3.5496182
40,19.6126022,-6.5385313,11.1880474,-93.8320618,83.0152664,247.3893127,2.0063307,2.9831600,11.6094246,4.5648856,-10.5725193,-2.0687022
50,19.6126022,-0.4740495,12.2750092,-24.0534344,52.3664131,153.8702240,2.0063307,2.7581062,11.7722292,8.4580154,-12.0839691,-7.6412215
60,19.6126022,4.4316444,9.2822723,23.9847336,59.0381660,-6.7557254,1.3383518,2.5809362,11.7818060,11.1908398,-25.4198475,-12.2137403
70,19.6126022,2.7892308,5.6454988,35.4351158,118.3969498,-197.3587799,1.0127422,2.3319404,11.7746239,13.8625956,-46.4274826,-16.6641216
80,19.6126022,-5.3174949,1.4580613,20.4427490,223.6641235,-250.1374054,1.0342898,2.1715298,11.5854826,17.6641216,-58.5954208,-20.8396950
90,19.6126022,-15.1624022,-1.9321109,1.6106870,250.1297760,-250.1374054,0.8236012,2.2912393,11.2072010,19.7862587,-65.2213745,-23.8778629
100,13.3212700,-19.6131992,-4.1419477,-3.9618320,250.1297760,-250.1374054,0.4333483,2.2433555,10.7570934,19.9007626,-71.9236679,-24.8931293
110,7.3884687,-19.6131992,-6.6103573,0.0992366,250.1297760,-250.1374054,0.5339043,2.4947455,10.6421719,18.3740463,-80.2519073,-23.4198475
120,3.6750808,-19.6131992,-8.4275465,-0.1679389,250.1297760,-250.1374054,0.8834559,2.8012016,10.4243011,15.7175570,-88.2595444,-23.2061062
130,0.7254394,-15.7441902,-9.3445215,-3.9618320,250.1297760,-250.1374054,1.0989330,2.9161227,10.3979645,12.1374044,-93.3435135,-23.6870232
140,-0.6847382,-9.5264797,-9.3732519,-11.8167934,250.1297760,-250.1374054,1.3742647,2.9161227,10.5440102,9.0305347,-93.3282471,-25.4580154
150,-1.1683644,-4.5657191,-7.9702568,-16.1908398,250.1297760,-203.3435059,1.5681942,3.0142846,10.8887739,8.5114508,-92.2137375,-28.6335869
160,-1.2808913,1.6711442,-5.6119800,-16.8778629,250.1297760,-146.9770966,1.7932479,2.8299320,11.1760759,10.8854961,-92.5114517,-31.4351139
170,-1.4413021,7.7092900,-3.5649481,-15.8091602,250.1297760,-98.7251892,1.7286048,2.6503677,11.2335367,15.3740454,-92.2900772,-34.5038185
180,-0.5865764,11.4681673,-0.5937590,-6.9541984,185.2519073,-56.0992355,1.7046629,2.5617826,11.1114330,20.0610695,-90.7328262,-37.6183205
190,3.0406206,14.7865143,1.9273225,9.8244276,129.7786255,-25.6564884,1.5681942,2.4205256,10.7331514,23.2061062,-87.6946564,-37.8702278
200,7.7284436,18.6243992,3.5697365,27.9236641,109.4809189,-13.9923668,1.5586174,2.4516499,10.4051476,24.4427490,-83.5190811,-37.1526718
210,10.1393919,19.6126022,3.0023136,40.0381660,113.1603088,-18.3969460,2.0350611,2.7652888,10.1537571,25.2595425,-78.4122162,-35.9389305
220,11.6166077,19.6126022,1.6855093,42.6870232,118.7099228,-28.3511448,2.4636209,3.0286496,9.9837704,25.3129768,-71.5877838,-36.4885483
230,11.1928358,19.6126022,0.6536137,40.2671738,109.8854980,-35.3129768,2.8155668,3.1699069,9.9023676,25.0534344,-63.3206100,-40.0763359
240,11.1617117,19.6126022,0.8020535,37.6030540,87.3282471,-38.9771004,3.0118904,3.1052637,9.7228031,24.8473282,-54.9923668,-44.2977104
250,11.6333666,19.2851963,1.8171898,43.8931313,54.0076332,-45.6488533,3.1387823,3.1172347,9.6342182,25.0916023,-47.1832047,-50.4961815
260,12.4354200,17.8558655,2.6192431,54.6030540,20.7786255,-54.3740463,3.0190730,3.0549858,9.6701307,25.5267181,-40.2442741,-56.1984749
270,13.2183199,16.4265347,3.5146701,70.9312973,3.1908398,-74.7862625,2.7389526,3.0549858,9.6892843,26.5648861,-33.5877876,-61.1297722
280,12.5934362,14.6284971,3.4859397,84.7099228,-13.5343513,-100.4427490,2.3989778,3.0549858,9.6126709,28.2442741,-27.8931293,-65.4732819
290,10.9893293,12.3779593,3.4260850,93.2519073,-29.1221371,-123.1068726,2.0757623,3.1962428,9.7491398,30.6641216,-24.3129768,-67.1679382
300,8.1546097,9.9215212,3.5003049,99.8015289,-38.8778610,-136.8625946,1.7836711,3.3015873,9.6964674,32.7099228,-21.2213745,-68.2748108
310,6.1985564,7.9606800,3.7014170,108.1603088,-46.4503822,-141.8778687,1.5538290,3.4931223,9.5695753,34.7633591,-18.1297703,-67.2137375
320,4.1754665,6.0716643,3.5218527,114.0763321,-51.2137413,-141.2366486,1.1731528,3.5888901,9.5097208,36.2595406,-16.8091602,-65.9389343
330,2.6120608,4.5202298,3.6343796,118.4732819,-61.0916023,-132.7328186,1.0223188,3.7636659,9.3110027,37.0152664,-18.5419846,-63.4885483
340,1.3718705,3.4907281,3.2991931,124.8015289,-63.7633591,-117.8244247,1.0079538,3.9264708,8.8465300,35.6335869,-21.3816795,-61.1145020
350,0.5315101,2.7796540,2.3391230,126.6717529,-55.4427490,-99.2519073,0.9217629,4.0413918,8.6909075,32.9618340,-24.8244267,-58.8854980
360,0.1795642,2.6719155,0.9840119,118.1145020,-53.2061081,-82.3129807,1.0007712,4.1634955,8.4874020,29.0076332,-27.4809170,-56.4351158
370,-0.0478838,2.3367288,0.6368544,105.3129807,-58.2366409,-67.2442780,1.0271072,4.2903876,8.1522150,24.5877857,-28.9007626,-55.2213745
380,-0.2896969,1.9608412,0.7398046,95.5038147,-59.6870232,-51.3129768,0.5075682,4.0198441,7.9678626,19.3969460,-29.4274807,-52.2595406
390,-0.0335187,2.0326669,1.0031654,90.1450348,-60.1984749,-35.1908379,0.7829000,4.2760224,8.1785507,13.8854961,-27.7938938,-46.0763359
400,1.0295014,2.4301023,1.0606259,89.8778610,-68.8473282,-28.5114498,1.4460905,4.8745699,8.5137377,11.1297712,-26.0534344,-44.3511467
410,2.3151813,2.1212518,0.9361281,90.2366409,-80.2595444,-27.8320618,1.7549409,5.0014620,8.4754305,8.8549614,-26.7633591,-46.6641235
420,3.8881636,2.1787124,1.9081690,96.4503784,-55.9923668,-38.5877876,1.4963684,4.5513539,8.4131813,5.1297708,-28.8091602,-48.5190849
430,2.2289903,1.4317253,1.6041069,97.7328262,-24.7709923,-40.4274826,1.3239868,4.4699516,8.5520449,1.5343511,-31.8473282,-47.4732819
440,-0.0837966,0.5961532,0.2489957,91.2213745,35.0992355,-28.9160309,1.3024391,4.5106530,8.6358414,-1.4961832,-37.1068687,-47.5267181
450,-1.4843974,0.4932030,-3.1387823,80.6106873,5.0687022,-13.6641226,1.5298871,4.7117648,8.4251528,-5.4885497,-44.1526718,-47.1679382
460,-1.5035510,0.8858501,-4.9440012,49.7633591,-7.9160304,6.3893127,1.7645177,4.8985114,8.4443064,-11.5190840,-52.4351158,-47.7022896
470,0.7876883,1.4676381,-4.7213416,21.4732819,-27.3282452,20.6717548,1.7836711,4.9847026,8.7220325,-18.3969460,-59.9541969,-47.6030540
480,2.2744799,2.7916248,-4.3119354,0.7862595,-30.2900772,22.7709923,1.7597293,5.0206151,9.2942438,-23.7099228,-64.8549652,-47.1297722
490,2.8514795,4.4627690,-4.1419477,-20.6335869,-21.7022896,18.6335869,1.6855093,5.0325861,9.7587166,-26.0916023,-69.6717529,-44.6564903
500,3.4500270,5.6885943,-4.6758518,-44.4580154,-15.4580154,11.8931293,1.8794388,4.9942794,10.1034794,-26.3053436,-75.7175598,-42.1526718
510,4.1395535,6.8306227,-4.7764082,-69.1755753,-8.5496187,5.0687022,2.0949159,4.9583664,10.2447367,-24.8702297,-79.5572510,-40.2748108
520,5.1906028,8.9470863,-4.2712340,-92.2748108,-5.2748094,-8.5038166,2.3798244,4.9344244,10.2998028,-21.5038166,-80.4198456,-39.9389305
530,6.5912037,10.1824875,0.3447633,-105.2824402,35.7862587,-25.0305347,2.4301023,4.7404952,10.2974091,-17.0305347,-77.9389343,-39.8091621
540,4.9799142,12.3827477,-0.8954269,-110.0457993,15.0534353,-43.1679382,2.5905130,4.5872669,10.2112179,-11.9465647,-72.1068726,-40.6030540
550,2.4731977,11.9039097,2.2720859,-87.8854980,10.1221371,-48.5801544,2.4181314,4.6255741,10.2974091,-5.4122138,-63.1908379,-41.2061081
560,0.6967092,12.8951044,2.9999194,-57.6793900,-15.3587790,-35.0381660,2.1763182,4.6375451,10.3668404,2.6412213,-51.0305328,-41.3893127
570,1.1707586,13.7067347,2.5258698,-24.2442741,-37.3816795,-18.7633591,1.7333932,4.5034704,10.2351599,11.0687027,-37.9236641,-40.3740463
580,2.2026544,14.1352949,0.6751614,-2.7709923,-56.7862587,-5.7175574,1.1827296,4.5729017,9.9502516,17.6412220,-27.1679382,-38.0610695
590,3.0980811,14.8703108,-1.3718705,1.4961832,-62.1755714,1.0305344,0.7110743,4.6830344,9.6677370,22.0839691,-19.8854961,-34.5954208
600,3.2321558,15.1743727,-1.6687500,-1.7480916,-60.8702278,5.7786260,0.5698171,4.8649931,9.5025377,25.0916023,-15.8396950,-29.9083977
610,2.8083842,15.2509871,-1.3048333,-0.6870229,-67.1908417,10.3435116,0.3998296,4.9152708,9.1434097,26.9770985,-13.8931293,-26.5877857
620,1.9416877,14.6931410,-1.0821736,7.4351144,-82.7480927,18.0763359,0.3902529,4.9823084,9.1338329,28.0458012,-12.4885492,-24.1145039
630,1.8291607,14.1065645,-1.1755470,19.8473282,-99.4809189,27.8473282,0.3447633,5.0110383,8.8920193,28.9389305,-8.8167934,-23.2824421
640,1.6639616,13.7306767,-1.7573351,33.3587799,-113.3664093,36.4809151,0.1053443,5.1499014,8.7866755,30.5343513,-2.6717558,-22.3816795
650,1.2952565,13.4697094,-2.4971397,43.5877876,-122.8167953,44.1984749,-0.1987177,5.3366485,8.8776541,33.3435097,5.3893127,-20.2061062
660,0.1987177,12.8424320,-3.3662305,49.3740463,-131.7862549,53.5801544,-0.6129125,5.5473371,8.7483683,36.1603050,15.8396950,-16.3435116
670,-1.9704180,11.9565821,-4.5896611,49.5648842,-142.6946564,73.3740463,-0.9528874,5.7005649,8.7675219,39.2824440,27.8549614,-11.7251911
680,-3.5888901,10.9558105,-5.6981707,42.3129768,-153.6946564,101.2290039,-1.2497669,5.7747850,8.7675219,41.9771004,39.8702278,-4.8015265
690,-4.6686692,10.4338779,-5.9184365,36.2748108,-160.4274750,134.3053436,-1.4436963,5.8729467,8.8225880,45.4809151,51.3435097,1.6412214
700,-4.9703374,10.6230183,-5.1475072,37.2824440,-169.6335907,165.8931274,-1.5298871,5.8873119,8.8297710,49.6412201,61.0381660,9.2061071
710,-4.7668314,11.1976242,-3.6295912,50.6259537,-173.9084015,190.6183167,-1.5346755,5.9471664,8.8680773,53.9007645,70.0000000,16.4351139
720,-4.3119354,10.9725704,-3.3829896,69.2137375,-156.7251892,215.3435059,-1.4245427,6.0836353,8.6789370,56.3740463,75.7938919,22.1145039
730,-3.0549858,10.6996326,-4.4100971,76.3587799,-119.0839691,237.8473358,-1.1037214,6.1985564,8.5089493,56.9389305,79.4961853,27.8091602
740,-3.2225790,10.3572636,-5.5066357,71.6412201,-74.6717529,250.1297760,-1.0318956,6.1817970,8.4610653,56.1755714,81.4045792,31.3511448
750,-3.1315999,10.3381100,-5.9256191,59.2442741,-46.0381660,250.1297760,-0.9648584,6.1578555,8.2360115,53.2900772,80.0916061,35.0305328
760,-1.8938038,10.3069859,-5.9016771,48.9771004,-38.0381660,250.1297760,-0.7398046,6.1985564,8.3245964,49.2366409,77.3969498,38.1221390
770,-0.3998296,9.8712435,-6.1578555,36.4885483,-45.3511467,250.1297760,-0.4884146,6.2272868,8.3676920,44.7786255,73.7938919,41.4732819
780,3.4667864,9.5312681,-5.2384863,29.7404575,-68.1908417,250.1297760,-0.3495516,6.2248926,8.5041609,40.1068687,70.2900772,44.7022896
790,5.5090299,9.3493099,-5.3749552,30.4198475,-77.4732819,250.1297760,-0.0694315,6.2296810,8.4969788,35.9083977,68.4885483,46.9694672
800,6.4236102,9.1745338,-6.3398137,22.7022896,-84.0992355,250.1297760,0.2011119,6.2033448,8.5664101,31.9007626,71.2137375,48.0381660
810,6.5744443,8.2551651,-7.0772243,4.3816795,-76.7709961,250.1297760,0.3639168,6.2392578,8.5304966,28.4885502,81.5648880,49.7175560
820,6.7875271,6.3685441,-6.9263902,-18.2824421,-64.3435135,250.1297760,0.1628049,6.3182659,8.9375095,26.8854961,99.7328262,51.8473282
830,7.7739329,3.9408360,-6.5361371,-38.9541969,-47.9541969,250.1297760,-0.1149211,6.2344694,9.1434097,27.5343513,120.1679382,55.2290077
840,8.9231443,-0.2370248,-6.4092450,-61.5648842,-35.6717567,221.2671814,-0.4668669,6.1817970,9.5097208,29.5648861,136.0305328,58.9618340
850,10.2255831,-5.0062504,-4.9918852,-80.2061081,-28.2900772,164.9007568,-0.6200951,6.1123657,9.9861641,33.0228996,144.9694672,63.1145020
860,12.4880924,-9.9909525,-3.3398943,-85.0381699,-26.8091602,93.0381699,-0.8666966,6.0572991,10.2112179,37.5496178,149.7404633,66.2824402
870,15.3946381,-17.3291435,-1.3503228,-84.0457993,-31.6183205,9.0534353,-1.0893562,6.0237808,10.3931761,42.4961815,147.1450348,69.8015289
880,15.2845058,-19.6131992,4.1395535,-52.0228996,-68.2977066,-64.0534363,-1.0486550,5.9591374,10.1729107,45.9389305,140.5419922,73.6641235
890,13.3452120,-19.6131992,7.8433647,4.7251906,-88.1679382,-74.2977066,-0.7565638,5.9974446,9.9789820,48.1603050,131.7099304,76.8244247
900,8.7459745,-19.6131992,3.5362179,32.7404594,-47.6412201,6.8244276,-0.4046180,5.9471664,9.5671806,48.9312973,124.6870193,77.9770966
910,5.2456689,-18.9739513,-2.7844424,-27.9083977,46.6183205,165.0076294,-0.2059003,5.7388721,9.3564920,48.6412201,118.7709961,77.2519073
920,15.2414103,-9.8185711,-1.1180865,-145.3587799,115.2061081,250.1297760,0.0167593,5.9830794,9.1434097,47.8931313,115.6641235,75.9083939
930,19.6126022,-1.2713146,11.4849272,-186.5572510,145.0381622,250.1297760,-1.2617378,5.2289100,7.7643566,44.7938919,117.5190811,79.2595444
940,19.6126022,6.9623032,19.6126022,-106.1679382,126.5954208,130.9618378,-0.1484398,6.1099715,8.8585014,38.1832047,122.7938919,90.0229034
950,19.6126022,9.4115591,19.6126022,33.3664131,84.2137375,-78.3587799,1.0893562,6.3302369,9.1625633,39.1679382,136.1832123,90.1297684
960,19.6126022,4.1874375,15.2892942,132.7175598,95.1755753,-250.1374054,0.7254394,5.5114241,8.8656836,41.0228996,142.7022858,81.9007645
970,19.6126022,-7.4363523,4.2401094,176.9084015,161.3053436,-250.1374054,-0.6512195,4.6638808,8.5688038,38.9083977,138.9694672,83.6870193
980,18.9619808,-16.3954086,-5.5952206,166.6793823,224.1297760,-250.1374054,0.6775556,5.7652082,9.3469152,42.7633591,133.4351196,86.7480927
990,11.8703909,-19.6131992,-11.0635490,118.6106873,250.1297760,-250.1374054,1.2114599,5.9926562,9.2846670,45.4580154,134.9313049,84.0687027
1000,7.8409705,-19.6131992,-13.1800127,58.2442741,250.1297760,-250.1374054,-0.0526722,5.5545197,8.2958660,45.7328262,124.2900772,78.5725174
1010,7.0341287,-15.6723642,-11.1018562,8.5877867,234.2595367,-250.1374054,1.5777708,6.2991123,9.1266499,46.3664131,113.7022934,76.1297684
1020,7.6781654,-10.7642756,-6.5145893,-5.4351144,189.8549652,-250.1374054,1.3694763,6.1315193,8.0061693,43.4885483,108.3358765,71.7480927
1030,8.1402445,-6.9287844,-2.9616125,10.3816795,145.0305328,-250.1374054,0.6153067,5.9112539,7.4602942,36.3893127,94.6412201,72.7633591
1040,7.3980455,-4.1850433,-2.6336083,31.3282452,118.6412201,-250.1374054,1.7070571,6.2344694,7.7499914,31.9923668,84.6259537,71.2137375
1050,5.6000090,-1.8147956,-5.0637107,36.8473282,115.1526718,-249.0915985,2.1906834,6.2560172,8.2407999,28.8625946,73.1068726,64.8778610
1060,2.7557120,1.1970947,-6.4786768,24.3587780,123.7557220,-216.6030579,0.7852941,5.5976148,7.3142486,26.3664131,57.3435097,60.0992355
1070,1.2186425,5.6239510,-7.0652533,2.3969467,133.7099304,-173.0534363,0.7733232,5.1762376,7.4052281,23.2900772,50.8015251,56.6946564
1080,1.2713146,10.5009146,-6.9216018,-22.1221371,143.1832123,-135.3664093,2.7748656,6.0285692,7.8074517,27.2748089,48.8320618,46.5419846
1090,2.6407909,13.6827927,-5.8657641,-40.9083977,149.9160309,-110.7099228,2.8969693,5.9687142,7.8792777,23.3664131,47.6564903,41.3206100
1100,4.0102673,16.5318775,-3.5577655,-43.5801544,130.3893127,-97.9007645,2.8969693,5.8921003,6.9814563,22.4045811,53.0458031,36.3587799
1110,5.8106980,19.0792961,-1.2521610,-26.6793900,89.9847336,-95.9312973,2.5785420,5.9711084,6.4307928,17.5114498,61.0228996,31.4961834
1120,6.5912037,19.6126022,-1.3431402,-1.9770992,42.7328262,-102.3816757,1.7429699,5.7412663,6.1051831,8.5496187,63.6870232,28.6793900
1130,6.0644817,19.6126022,-3.0621684,6.7633586,-20.7862587,-110.8625946,1.7333932,6.2081332,6.9503322,-4.0305343,59.6183205,15.6717558
1140,5.7556314,19.6126022,-2.8131726,1.1526718,-29.2290077,-109.1755753,1.8100072,6.6031747,7.9080076,-5.1984735,42.6106873,7.7480917
1150,6.1506729,19.6126022,-0.8331779,5.7099237,-39.2137413,-108.9312973,1.0031654,6.3062949,7.8433647,-5.0916033,33.1374054,3.2519083
1160,5.5593081,18.8638191,0.1963235,18.8549614,-49.6335869,-112.2137375,1.6807210,6.6079631,8.3437500,-5.8702292,27.2748089,1.1679389
1170,5.3821378,17.3052006,0.3256098,29.7938938,-52.8702278,-116.4809189,1.1061156,6.6750002,7.9702568,-6.2748094,20.9770985,-2.8091602
1180,4.6854286,15.4568872,0.1173153,39.8625946,-56.3587799,-120.9770966,0.7254394,6.5648675,7.6853480,-7.2595420,13.2213745,-7.9312978
1190,3.7229645,13.1249466,-0.2059003,46.7709923,-55.9541969,-121.5190811,0.7709290,6.8928714,7.9511032,-10.2061071,8.1755724,-8.1755724
1200,2.3175755,10.9222927,-0.2537841,47.5877876,-65.2977066,-114.8091583,0.1651991,6.9910331,7.3190370,-12.0152674,9.0610685,-10.9847326
1210,1.3263810,8.9542685,0.5123565,48.7633591,-82.2977066,-105.5343475,-0.1963235,6.9287844,7.4722652,-12.7633591,8.4351149,-11.8854961
1220,0.9409165,7.3645267,1.6208663,54.6946564,-95.4122162,-95.7557220,-0.5362985,6.9287844,7.5919747,-12.4351149,12.8320608,-10.9770994
1230,0.7661406,6.0572991,2.4396791,62.2061081,-100.3358765,-85.9694672,-0.4668669,7.1682034,7.7284436,-9.4961834,17.5801525,-8.6717558
1240,0.8523315,5.1499014,2.8251436,70.3129807,-94.7251892,-75.7633591,-0.4740495,7.2974896,7.5536675,-7.3511453,20.3816795,-7.1450381
1250,0.9624642,4.1778607,3.0094962,79.5572510,-76.6488571,-64.5572510,-0.5410868,7.4555058,7.3645267,-5.9618320,19.5114498,-6.4961834
1260,0.9888002,3.4404502,2.8849983,88.6564865,-52.1221390,-52.0381660,-0.7805058,7.2687593,7.3573442,-7.6412215,14.5496187,-5.4732823
1270,0.6967092,2.9233053,2.1571648,94.0152664,-29.8015270,-41.0992355,-0.5458752,7.4890246,7.5033898,-9.1374044,5.5114503,-4.8167939
1280,0.7206510,1.8459201,1.2976507,80.2061081,30.9923668,-11.1755724,-0.2657550,7.5273318,7.2017217,-10.5877867,-7.7404580,-11.3969469
1290,1.6112895,2.0901275,0.6320660,76.2671738,25.1374054,-8.6335878,-0.5530578,7.4722652,7.1538382,-11.4885492,-13.2595415,-13.9847326
1300,3.0693510,2.5809362,-0.3902529,71.6106873,9.5419846,-12.9770994,-0.6440369,7.5369086,6.9311786,-13.4351149,-16.3587780,-15.0305347
1310,3.6655040,2.1667414,-0.8906385,57.7633591,-5.3511453,-27.1221371,-0.7948709,7.4674768,6.6007805,-15.9465647,-16.7175579,-15.2366409
1320,4.9487896,1.9704180,-0.7398046,41.0534363,-6.3587785,-39.9694672,-0.7445929,7.4914188,6.5337429,-18.2748089,-12.4885492,-14.9541988
1330,5.3845320,1.8961980,-0.4596844,29.6641216,-4.1832061,-55.7022896,-0.9504932,7.5297260,6.5600791,-19.9465656,-4.6717558,-12.6412210
1340,5.1618724,1.9297167,-0.4788379,21.1297703,1.3740458,-75.9847336,-1.0079538,7.4195933,6.5552907,-20.8320618,2.7480917,-10.8396950
1350,4.0174499,1.5250987,-0.6584021,11.0610685,5.5572519,-95.5343475,-1.2425843,7.4076223,6.9646969,-20.0076332,9.2061071,-9.4045801
1360,3.1076579,1.3622938,-0.3998296,4.1908398,12.6488552,-107.7175598,-1.2114599,7.2519999,7.1035600,-16.7099228,15.4274807,-8.2290077
1370,2.5498118,1.7693061,-0.5339043,2.3206108,25.3435116,-117.3511429,-1.1109039,7.2927012,6.8593526,-13.6641226,18.0763359,-6.7786260
1380,1.8076130,1.9392935,-1.0606259,0.7404580,35.2366409,-126.2137375,-0.9289455,7.0580707,6.1578555,-13.7557249,14.1526718,-6.8091602
1390,1.7046629,2.9855542,-2.2385671,-4.9236641,49.1068687,-131.6030579,-0.5841822,7.0532823,6.3206601,-15.8320608,16.4122143,-9.3129768
1400,1.1276633,4.5322008,-3.9815371,-18.5190830,73.4274826,-134.7557220,-0.6488253,6.9120250,6.9766679,-16.2137413,17.4198475,-13.5038166
1410,-1.6783268,5.2097564,-5.8873119,-41.6259537,94.3816757,-124.2671738,-0.6943150,6.8425937,6.9766679,-16.5267181,14.1374044,-15.9389315
1420,-4.7285242,6.5121951,-6.3469963,-68.0610657,92.2519073,-100.0381699,-0.6200951,6.7061248,7.2352405,-14.5572519,7.4045801,-19.1145039
1430,-5.8226686,7.4962072,-5.0182209,-82.2290039,67.2977066,-72.2595444,-0.7541697,6.8809004,7.1729918,-15.3511448,-1.4580153,-22.5954189
1440,-6.5528965,8.8345594,-2.1140692,-67.7862625,18.8854961,-53.7328262,-0.9959828,6.8090749,6.9718795,-16.7404575,-10.9007635,-24.7175579
1450,-6.6702118,14.7386303,-1.0965388,-40.8854980,-7.2442746,-15.8091602,-1.8914096,5.9447722,6.5672617,-23.9312973,-16.9236641,-21.4122143
1460,-4.3622131,16.5606079,-1.6256547,-17.7175579,-28.7099228,-1.4045801,-0.5410868,6.8856888,7.0413113,-25.0305347,-12.9618320,-23.2366409
1470,-1.6519908,17.3985748,-2.6862805,-3.1221373,-47.6335869,-4.2900763,-1.3551112,6.8138633,6.8210459,-24.1297703,-1.4122137,-23.8854961
1480,0.5746055,17.1543674,-3.3590479,2.8015268,-55.0228996,-15.9541988,-1.2952565,7.5488791,7.2998838,-21.0152664,16.5954189,-23.6870232
1490,1.0103480,16.8766422,-4.7357068,-2.6793892,-49.5267181,-32.1221390,-2.3151813,7.1849627,7.8266053,-19.5801525,31.4885502,-22.1908398
1500,-1.0654143,15.9764261,-5.1307478,-18.0534344,-44.1984749,-37.4122124,-2.9903426,6.9958215,8.9015961,-19.8167934,38.3129768,-19.8625946
1510,-2.2361729,14.8822813,-3.7109938,-29.6183205,-44.6564903,-24.1145039,-3.8426740,6.7971039,10.1082678,-16.3969460,41.1908379,-16.9694653
1520,-2.8849983,13.6708221,-0.4501076,-28.7175579,-22.5572510,-6.9236641,-4.3454537,6.6797886,11.3005743,-9.4045801,39.8931313,-11.4809160
1530,-1.1132981,11.6573086,0.7661406,-12.7251911,-21.9618320,8.5648851,-4.7165532,6.5385313,12.0331964,-0.5114504,36.6946564,-4.6183205
1540,-1.0438666,10.4554253,0.8068419,2.2977099,-18.1297703,15.0610685,-4.6471219,6.4236102,12.4689388,9.6259546,26.8320618,-0.1145038
1550,-0.9361281,9.6677370,0.6033357,11.4198475,-13.7404585,19.8549614,-4.3286943,6.3613615,12.2367020,19.5190830,15.1908398,1.8244275
1560,-0.1843526,8.5257082,0.9385223,21.0916023,14.7862597,25.4351139,-3.8426740,6.2296810,11.1593170,34.2442741,12.2366409,1.9007634
1570,0.1101327,7.6829538,-0.0311245,25.4732819,14.7557249,21.2671757,-3.7900019,6.2943239,11.1257982,38.6106873,16.3206100,8.1068707
1580,-0.8020535,7.1275020,-1.6280488,23.8091602,15.2366409,15.1297712,-3.3782012,6.9479380,10.4338779,43.3740463,18.7022896,8.8167934
1590,-0.8786675,6.1985564,-2.0709739,19.5114498,16.0839691,8.2595415,-3.5745249,6.4044566,10.1465750,46.8167953,18.2061062,8.9236641
1600,-0.7254394,5.8418221,-1.7525467,14.2137403,14.7251911,-3.1145039,-3.6367738,6.6007805,9.6653433,49.0687027,15.3129768,13.9160309
1610,-0.4381367,5.1522956,-2.1715298,7.8854961,-7.6564884,-12.9236641,-3.4236910,6.9407554,9.0811605,50.6412201,15.3664122,20.1221371
1620,0.1029501,5.4180508,-3.3231349,1.1145039,-31.1145039,-22.8091602,-2.9735832,6.8952656,8.5520449,51.6564903,17.9847336,26.4198475
1630,0.6272776,5.8777351,-3.8474624,-10.1145039,-10.8015270,-29.2213745,-2.2170193,6.5169835,7.9391322,52.4045792,16.7862587,29.5343513
1640,-0.2154770,7.2376347,-4.1802549,-20.8167934,8.7175570,-28.0610695,-1.3144100,6.7587967,6.9407554,49.3740463,15.8015270,27.3282452
1650,-0.0095768,10.8025827,-4.2784166,-33.6564903,40.7251892,-19.7786255,-1.1252691,6.8401995,6.6534524,44.6870232,17.0381680,25.5801525
1660,-3.7181761,15.1911325,-4.2664456,-47.0152664,82.1450348,3.8702290,-0.9409165,7.0389171,6.2320752,38.9847336,16.3969460,23.9236641
1670,-7.5249376,17.6763000,-2.5857246,-57.0152664,82.8167953,55.5038185,-0.8116302,6.9575148,5.9160423,32.0839691,14.8396950,21.9923668
1680,-6.4068508,12.4761209,-1.4125718,-66.1832047,8.7557249,104.8320618,-0.7613522,7.0652533,5.7963328,25.0534344,11.9236641,19.9160309
1690,-4.2209558,9.2894554,-1.1899122,-60.9923668,-29.6106873,116.4656525,-0.6703730,6.8186517,5.9184365,19.5572510,11.0763359,17.3435116
1700,-2.3439114,10.0579901,1.8267666,-23.0152664,-41.6717567,96.2442780,-0.5769997,6.9527264,5.7125359,13.9083967,16.8854961,15.3587790
1710,-3.6415622,12.4809093,3.5649481,41.0763359,-60.6641235,78.6564865,-0.3734936,7.0460997,5.8418221,10.1374044,29.4351139,14.1832066
1720,-4.6878228,12.4449968,2.6934631,110.1755753,-82.4656525,81.2137375,-0.6320660,6.8282285,6.2105274,7.5114503,46.5954208,11.7938929
1730,-4.2616572,11.9805241,0.0430954,165.5190887,-97.3282471,92.0000000,-0.9504932,6.7324610,6.4547348,5.0458016,50.4045792,10.5038166
1740,-3.8809812,11.8656025,-3.0358322,204.0305328,-106.3053436,96.5343475,-1.4436963,6.8378053,6.5026188,2.2824428,44.8167953,8.1450386
1750,-4.5178356,11.8679972,-5.9304070,225.5572510,-114.8931274,101.3587799,-1.7309990,6.9072366,6.6773944,-0.6030535,35.7099228,6.2137403
1760,-5.0613165,12.0140429,-8.0205345,228.8778687,-139.0992432,108.7404556,-1.8842272,7.0844064,6.6678176,-4.0381680,21.5343513,4.3053436
1770,-4.3167233,11.3652172,-8.2431946,223.8396912,-161.3206177,114.4122162,-1.9512644,7.1634150,6.6845770,-7.0000000,5.5648856,2.5648854
1780,-4.7093706,10.2878323,-8.0971489,222.8167877,-179.1755676,117.0457993,-2.1116750,7.2112985,6.9024482,-8.7251911,-6.3206105,0.4961832
1790,-5.4539638,9.3229742,-7.3980455,228.6946564,-188.7709961,126.5190811,-2.1523764,7.1777802,6.9742737,-9.3206110,-12.8625956,-1.4885496
1800,-6.5433197,8.5400734,-6.7157016,240.3358765,-192.2824402,146.5496216,-2.3415172,7.0963774,7.1610208,-9.7251911,-17.0076332,-3.4274809
1810,-6.3900914,6.4523406,-6.3182659,250.1297760,-200.7557220,170.3129730,-2.3486998,7.1346846,7.3118544,-9.7480917,-21.1679382,-6.2290077
1820,-5.1690550,5.1139889,-5.8178802,250.1297760,-184.3740387,187.5343475,-2.6383967,7.6015515,7.3645267,-6.7022901,-23.6564884,-2.4656489
1830,-5.1570840,4.1706781,-6.4020624,250.1297760,-170.7480927,203.7022858,-2.4947455,7.6590118,7.1945391,-4.1374044,-15.6946564,3.2595420
1840,-4.2185616,3.4835455,-7.1083484,250.1297760,-171.0992432,218.9084015,-2.3032103,7.6661944,6.9144192,-2.1450381,-6.1374044,10.2519083
1850,-1.6687500,2.5067163,-7.3166428,250.1297760,-169.9007568,222.3206177,-2.1212518,7.4602942,7.1586266,-0.4809160,0.8854962,15.6030531
1860,0.9073978,1.0965388,-7.6063399,250.1297760,-154.0076294,209.0381622,-1.6543850,7.3381906,7.1562324,0.9618320,0.5877863,19.4122143
1870,3.2034254,-0.2801202,-7.9319496,250.1297760,-139.4580078,179.2671814,-1.1348459,7.0915890,7.0221577,1.7862595,-1.7862595,19.4045811
1880,6.2512288,-1.8602852,-6.8641410,250.1297760,-134.0381622,135.1374054,-0.6895266,7.0030041,7.0748301,1.7557251,-5.0229006,17.9312973
1890,11.6453371,-4.4867110,-4.4747400,250.1297760,-129.2213745,76.9694672,-0.0550664,7.0077925,6.7180958,0.1068702,-9.3129768,15.0534353
1900,18.1982346,-7.3788919,-1.8363433,250.1297760,-101.5267181,7.4732823,0.3423691,7.1490498,6.5792327,-3.3511450,-11.5419846,10.3358774
1910,19.6126022,-9.7563219,1.4556671,250.1297760,-40.2519073,-61.3206100,0.6368544,7.1969333,6.4810710,-7.0229006,-10.2519083,5.1374044
1920,19.6126022,-12.7969427,3.4667864,250.1297760,73.3129807,-102.0916061,0.5362985,7.2328463,6.7276726,-8.9694653,-12.5038166,0.8244275
1930,19.6126022,-13.6588507,-0.9624642,250.1297760,173.8625946,-71.6946564,0.1675933,7.0197635,6.7444315,-11.1526718,-16.2748089,-1.8015267
1940,15.8423519,-10.0172882,-7.1107426,235.6870270,250.1297760,44.2671738,0.0550664,7.0173693,7.0868006,-14.9847326,-21.7480907,-2.4122138
1950,15.6340570,-5.2696109,-15.4880114,157.0915985,250.1297760,198.3664093,0.1460456,7.2089043,7.6422529,-14.3740454,-31.3358784,-7.5267177
1960,17.3554802,1.3790531,-19.6131992,60.6488533,250.1297760,250.1297760,-0.0287303,7.3214312,7.6015515,-12.7480917,-37.8931313,-14.2519083
1970,19.6126022,13.5798426,-19.6131992,-52.4122124,250.1297760,250.1297760,-0.4764437,7.2304521,7.4267755,-11.5801525,-41.6564903,-18.3053436
1980,19.6126022,19.6126022,-19.6131992,-143.5114441,89.5648880,206.1603088,-0.6799498,7.2519999,7.2424231,-11.3435116,-43.6183205,-18.1526718
1990,19.6126022,19.6126022,-9.0835552,-175.5190887,-109.0229034,-40.9465637,-0.8140244,7.2567883,7.1179252,-11.9389315,-42.1068687,-16.8625946
2000,19.6126022,12.3707771,-2.9185169,-177.5725250,-133.8396912,-250.1374054,-0.8092360,7.3812861,7.3669209,-11.8015270,-39.2748108,-15.1603050
2010,19.6126022,0.1364688,-2.6455793,-196.1221313,-87.6488571,-250.1374054,-0.4716553,7.5177550,7.6997132,-9.4656487,-37.9465637,-14.0687027
2020,17.7409439,-8.0348997,-4.9344244,-236.6412201,-15.4198475,-250.1374054,-0.2585725,7.7499914,7.4459291,-8.8015270,-36.1832047,-15.9923668
2030,9.5911226,-12.4330254,-5.8346395,-250.1374054,21.9770985,-250.1374054,-0.5243275,7.7595682,7.3932571,-9.6335878,-35.3740463,-16.1068707
2040,5.8059096,-11.5375986,-4.6471219,-250.1374054,11.0839691,-250.1374054,-0.5746055,7.7787213,7.5560617,-11.1068707,-35.8854980,-15.3587790
2050,6.9623032,-8.6765423,-3.6655040,-241.8549652,-25.4351139,-246.9694672,-0.5626345,7.7643566,7.8098459,-12.4961834,-37.9160309,-16.7404575
2060,10.6014709,-6.3206601,-2.5354466,-189.6793823,-43.7938919,-203.3816833,-0.5674229,7.5488791,8.1809454,-11.6717558,-41.4809151,-19.8702297
2070,11.4921093,-4.8673873,-4.0916696,-138.3969421,-33.2977104,-207.1679382,-0.7350162,7.4315639,8.4778252,-7.3893127,-41.5114517,-22.1068707
2080,9.1553802,-2.4133430,-7.1753860,-110.3664093,-4.4885497,-222.0076294,-1.0462608,7.3932571,8.2743187,-2.1221373,-39.4503822,-23.0152664
2090,4.5345950,0.4094064,-11.5471754,-122.5038147,29.1297703,-215.0839691,-1.3742647,7.4579000,7.7021074,1.3893130,-36.0076332,-23.4885502
2100,1.6926919,2.1523764,-14.3603487,-167.2442780,66.4122162,-190.5496216,-1.6591733,7.3621325,6.6726060,1.8854961,-28.9007626,-24.4580154
2110,0.4692611,3.2848279,-14.9397421,-217.1374054,100.5038147,-171.2061005,-1.9680238,7.1298962,5.9232249,-0.6335878,-17.3282452,-24.7022896
2120,-1.0007712,4.3741841,-13.9964314,-247.3435059,125.9923630,-159.2824402,-2.3870070,6.9599090,5.4276276,-5.3282442,-2.5419848,-24.9236641
2130,-2.2505381,6.5576849,-12.8831339,-248.9007568,142.9160309,-144.1374054,-2.9855542,6.8018923,5.4779053,-10.9618320,14.5572519,-25.5343513
2140,-2.8299320,8.7387915,-12.4761209,-227.9084015,144.3816833,-126.9618301,-3.9264708,6.6295104,6.0118098,-14.7022905,29.8320618,-24.8320618
2150,-3.0908985,10.6038647,-12.3396521,-197.8320618,136.5038147,-109.9083939,-4.9847026,6.4164276,6.8856888,-14.8320608,41.6183205,-23.6717548
2160,-3.1220231,12.1050215,-11.9661589,-165.1755676,121.4351120,-95.8015289,-5.8705525,6.5361371,7.6398587,-12.2061071,46.3664131,-20.2366409
2170,-2.2960277,13.2709923,-11.4298601,-129.8091583,92.5419846,-86.0687027,-6.2392578,6.7803445,7.5728211,-5.8320613,32.8167953,-12.0152674
2180,-1.2330076,13.8743277,-11.0874910,-94.5496216,55.4732819,-80.0381699,-6.1291251,6.7827387,7.3645267,-0.1068702,14.7480917,-0.2671756
2190,-0.1819584,14.0419216,-10.4003592,-64.2748108,19.1374054,-79.4045792,-5.2456689,6.5026188,6.8306227,4.1068702,3.4274809,10.8473282
2200,1.0151364,13.7019463,-9.7108326,-42.7709923,-8.3435116,-83.8167953,-4.3095412,6.5816269,6.5361371,7.6106873,0.0916031,19.6488552
2210,2.0470319,12.9166517,-8.9207497,-31.6564884,-30.4274807,-91.0305328,-3.0525916,6.5672617,6.0740585,9.5954199,-3.7022901,25.0839691
2220,2.4181314,12.1792421,-7.8313937,-31.7862587,-43.0763359,-98.0381699,-1.6735384,6.7420373,5.8944945,9.4045801,3.0305343,26.8091602
2230,2.5857246,11.1162214,-6.7492199,-40.3435097,-47.1068687,-103.0534363,-0.9624642,7.0006099,5.8250628,9.3816795,16.0381680,26.6259537
2240,2.6048782,9.5264797,-5.1929970,-51.6641235,-44.2442741,-107.6335907,-0.3782819,7.3836803,5.7197185,10.0992365,29.8396950,25.2748089
2250,2.8897867,8.3916340,-3.5649481,-61.4198456,-39.1832047,-112.6946564,-0.1628049,7.2879128,5.6933827,9.8244276,39.8702278,21.7633591
2260,2.7269819,7.5345144,-2.0685797,-67.6106873,-34.4351158,-117.9542007,1.4293311,5.5018473,5.4970589,8.2977095,57.2290077,15.9160309
2270,2.2313845,6.1243367,-0.5937590,-69.8778610,-28.0076332,-122.8778610,0.3878587,8.2384062,6.8665352,9.6412210,72.4503784,5.7251906
2280,1.3814473,4.7788019,0.3519458,-65.5343475,-19.0687027,-124.6870193,-1.9177457,9.0021524,7.8266053,11.5190840,67.9618301,7.9618320
2290,0.4740495,3.7660601,1.2330076,-54.5267181,-12.4274807,-120.6335907,-1.3120158,8.8058290,7.0437055,10.5954199,64.6793900,11.3435116
2300,-0.5195391,3.1148405,1.9201399,-37.4885483,-8.0610685,-112.8473282,-1.2138541,8.5424681,7.5680327,7.0687022,55.4656487,7.4809160
2310,-1.1755470,2.4636209,1.9728121,-18.6488552,-8.4656487,-102.1984711,-1.4772149,9.4139528,8.1282730,6.7709923,35.7786255,2.9083970
2320,-1.8483143,1.9799947,1.5705882,-1.1679389,-11.1603050,-86.0839691,-1.2928623,9.8640604,8.2264347,6.0687022,27.0687027,1.4427481
2330,-2.0997043,1.5897418,1.2593436,17.6641216,-7.5267177,-69.3282471,-1.2138541,10.4434547,8.3844519,-0.1526718,28.7709923,0.5572519
2340,-1.9823889,1.5179161,0.4357425,31.2519093,-14.4656487,-57.5725174,-1.2880739,10.4937325,9.0404596,-6.4351144,8.9770994,-1.2900764
2350,-1.6567791,1.4939742,-0.3327923,36.9389305,-19.8167934,-49.1450386,-1.6280488,9.8018112,10.1202393,-10.3358774,-21.3587780,-5.6030536
2360,-1.3287752,1.5969244,-0.9816177,33.5267181,-22.5190830,-43.3587799,-1.5227045,9.5169029,10.6709023,-8.5877867,-32.7786255,-9.4961834
2370,-1.1659702,2.0973101,-1.9345051,21.7480907,-22.2977104,-39.5343513,-1.6352314,9.6988611,11.4538021,-1.6488550,-35.9083977,-9.0839691
2380,-1.2976507,2.0757623,-2.5617826,0.7938932,-21.8167934,-38.3511467,-1.5227045,9.9550400,12.2367020,9.4503813,-27.3587780,-4.3435116
2390,-1.6280488,2.2792683,-2.8730273,-27.0992374,-11.5419846,-36.2748108,-1.1324517,9.7491398,12.5575237,24.7480907,-13.8015270,-1.2977099
2400,-2.2289903,2.6312141,-2.7940190,-57.3740463,6.1297708,-32.4732819,-0.4429250,7.9822278,12.6197729,41.2977104,-5.0763359,-6.9847326
2410,-3.3207407,2.6240315,-2.4899571,-85.1221390,20.3969460,-23.7251911,-0.9720409,8.9925756,12.1600885,58.0839691,-5.4503818,-16.3664131
2420,-4.4867110,2.4013720,-1.9919657,-105.7480927,32.9923668,-6.6793895,-1.4006008,9.5240860,11.4107065,72.7251892,-8.2671757,-21.7099228
2430,-5.4324160,2.7006457,-1.0175306,-115.3435135,42.9389305,16.9007626,-2.0973101,9.9526453,10.3452930,82.3664093,-9.4961834,-21.4198475
2440,-6.0237808,3.0908985,-0.0981618,-116.2366409,42.5954208,42.0534363,-2.5426292,9.5264797,9.1888990,87.2595444,-4.1221375,-18.8473282
2450,-6.3230543,4.4938936,0.7589580,-109.7480927,37.0763359,69.3969498,-3.2034254,9.2655134,8.5089493,88.3893127,-3.6183207,-14.3053436
2460,-5.3151007,5.5138183,0.5291159,-99.9618301,34.8396950,92.4732819,-3.2776453,8.7340031,7.6949248,88.8244247,-6.2595420,-10.3969469
2470,-4.1563129,5.8513989,0.7421987,-86.8702316,29.4274807,106.1145020,-3.5050933,8.4610653,6.9335728,86.5038147,-9.0000000,-7.8244276
2480,-4.2113791,6.9168134,0.7398046,-66.5801544,21.7404575,112.9847336,-3.4979107,8.0540533,6.4475522,82.2900772,-12.4503813,-2.6717558
2490,-3.9959023,8.2312231,-0.0622489,-46.8396950,14.3587790,120.1221390,-3.2824337,7.8409705,6.2129216,79.3893127,-18.5267181,1.4427481
2500,-3.4619980,9.6581602,-0.2944853,-30.2824421,4.2290077,126.9542007,-3.0669568,7.7595682,5.9471664,78.1908417,-23.9847336,4.3664122
2510,-2.5857246,10.9725704,0.3184272,-11.9541988,4.5343513,130.2213745,-2.8083842,7.5440907,5.5521255,76.9160309,-27.3893127,7.0305343
2520,-0.7086801,11.9613705,0.1795642,11.7633591,2.6488550,125.0152664,-2.6168492,7.1586266,5.0637107,73.2671738,-33.8549614,9.0381680
2530,0.6775556,12.9645357,-0.0766141,36.8091621,3.0305343,109.4122162,-2.5785420,6.5361371,4.6255741,66.9312973,-43.4427490,8.3587790
2540,2.0949159,13.5271702,-0.8571198,59.4198456,3.5648854,90.2595444,-2.1763182,6.5792327,4.2233500,60.4885483,-54.7557259,7.6946564
2550,2.4540441,13.3236647,-1.6017127,74.3969498,5.2977099,72.1068726,-1.7764885,6.9934273,3.7516949,54.8473282,-68.9847336,5.5572519
2560,2.2696917,13.3284531,-2.9352763,80.7557220,7.2290077,59.6030540,-1.7046629,6.4020624,3.0813217,47.2671738,-77.8320618,2.1068702
2570,1.9345051,13.3787308,-4.2113791,77.7251892,4.3587785,53.4732819,-1.3455344,5.3917146,2.7652888,34.7938919,-85.6488571,-5.1984735
2580,1.8171898,13.2757807,-5.0325861,66.4656525,-4.1374044,48.5419846,-1.0965388,5.0230093,3.0597742,20.6412220,-104.0305328,-16.5267181
2590,1.9273225,13.0507269,-4.7740140,51.1908379,-12.5343513,40.7709923,-0.6224893,4.8697815,2.8203552,8.7786255,-118.7786255,-27.7404575
2600,2.2792683,12.4210548,-4.0126615,38.8396950,-16.4198475,29.2671757,-0.9361281,4.7644372,3.0980811,-0.5267175,-122.8396912,-34.8015251
2610,2.1212518,11.8560257,-3.0717452,35.1145020,-11.0534353,16.7709923,-1.2904681,5.1355362,3.3638363,-4.7175574,-123.8091583,-34.9160309
2620,1.5179161,11.2957859,-2.7365584,38.9618340,-1.7480916,7.0305343,-1.5083394,5.3438311,3.7205703,-4.6717558,-118.9312973,-30.4580154
2630,-0.0335187,10.6589317,-3.6224086,45.2290077,6.5419846,6.4580154,-1.5538290,5.2121506,4.1084290,-1.3816794,-104.0000000,-22.3053436
2640,-1.4413021,10.4889441,-4.8147149,46.2366409,13.0687027,19.4809170,-1.9009864,4.5824785,3.8761928,3.3740458,-88.6259537,-11.7099237
2650,-2.0350611,10.4985209,-5.6024032,41.9694672,13.6183205,39.3587799,-0.1532281,5.5688848,5.1594782,0.9160305,-65.8015289,-1.9236641
2660,-1.7022687,10.6852674,-5.8059096,41.2671738,10.4885492,55.2900772,-1.3766589,5.3797436,4.3454537,7.0839696,-50.0076332,-1.4045801
2670,-1.1731528,10.7116032,-6.2560172,46.3740463,7.7480917,60.6488533,-1.3598996,5.1929970,4.2568688,7.2213740,-33.2671738,3.0839694
2680,-1.2090657,10.7163916,-6.8809004,52.8015251,2.9236641,60.7633591,-1.5993185,5.5832496,4.3789725,9.6641226,-26.0839691,8.0992365
2690,-1.4963684,10.7546988,-7.9870162,54.2900772,2.3969467,58.9236641,-1.0941446,6.1291251,4.5393834,10.4198475,-16.5114498,12.4274807
2700,-2.0422437,10.4410601,-9.1721401,49.4885483,-0.3358779,60.4045792,-1.1539993,6.4116392,4.7189474,11.3511448,-9.4351149,16.4809170
2710,-2.9472473,10.0460186,-9.9382801,39.5801544,-4.4732823,69.2366409,-0.5578461,7.0772243,4.8218975,10.7328243,-6.4961834,20.3282452
2720,-3.6846576,10.0819321,-10.3740225,27.8931293,-11.3740454,81.7099228,-0.1628049,7.3046722,4.7955613,9.9770994,-4.2061067,22.1755733
2730,-4.1611013,10.1609402,-10.2950144,19.6870232,-23.8244267,94.7328262,0.3136388,7.9295554,4.5178356,6.2977099,0.1297710,21.7175579
2740,-4.2377152,10.2519188,-9.5384512,19.4580154,-41.0763359,102.7099228,0.5339043,8.2096758,4.3861551,2.2595420,6.1603055,20.3816795
2750,-4.2688398,10.0508070,-9.2798786,28.3129768,-60.4809151,108.6793900,0.6272776,8.2695303,4.4531922,-6.2442746,9.0152674,16.3893127
2760,-4.6471219,9.8496952,-9.3253679,40.7709923,-81.7709961,114.9389343,0.7876883,8.7747040,5.2504573,-7.7938933,11.4503813,12.5419846
2770,-5.5042415,9.4546537,-9.6006994,53.7709923,-103.8702316,126.9923630,0.8403605,9.2990322,5.7843618,-8.4809160,17.7251911,2.7175572
2780,-6.7827387,8.8225880,-10.0172882,64.5190811,-123.5343475,148.9313049,-0.0598547,9.3205795,5.6933827,-11.4045801,17.1908398,-6.2671757
2790,-7.6302819,8.4490948,-10.0077124,76.5572510,-147.8015289,180.1832123,-1.0414724,9.5456333,5.9328012,-13.2366409,11.1374044,-9.2977095
2800,-7.3070664,7.9511032,-9.7754755,91.6030502,-174.4503784,212.2442780,-1.8435259,9.1218615,6.0213866,-15.8167934,2.3206108,-9.3740454
2810,-6.4714942,7.2950954,-9.3852224,105.9847336,-184.5190887,243.4503784,-2.1140692,8.6549950,5.4850879,-20.0534344,-6.1450381,-6.0152674
2820,-5.0780759,6.4403696,-9.4307127,118.5725174,-171.1832123,250.1297760,-1.7429699,8.3150196,5.1427188,-26.6106873,-11.3435116,-2.0992367
2830,-4.0796990,5.4731169,-9.1888990,123.9083939,-144.6717529,250.1297760,-1.4508789,7.9774394,5.3917146,-33.7480927,-13.9007635,-3.3587787
2840,-2.9783716,4.0557570,-9.1458035,123.6335907,-125.2137375,250.1297760,-1.4341195,7.9175844,5.8585815,-38.5801544,-14.0763359,-5.4503818
2850,-1.6041069,2.6886747,-8.7699156,120.1297684,-106.7862625,250.1297760,-1.4604555,7.8936424,6.3565731,-40.7786255,-11.7786255,-7.4274807
2860,0.8331779,1.5753766,-8.0229292,113.3740463,-72.9770966,250.1297760,-1.6639616,8.0660238,7.0628591,-39.3511467,-9.4503813,-9.1068707
2870,2.7126167,-0.1532281,-6.4906478,103.2137375,-40.3893127,250.1297760,-2.2026544,8.2862902,7.5057840,-34.3893127,-11.2519083,-9.9083967
2880,5.5186067,-2.0326669,-4.5681133,93.7709961,-32.7022896,248.2977142,-2.3151813,8.4443064,7.5249376,-27.5954189,-14.6641226,-7.1221375
2890,10.1346035,-4.8386569,-0.6512195,93.7709961,-48.8244286,189.8854980,-2.3558824,8.6813307,7.3717093,-20.5267181,-15.9236641,-2.6259542
2900,15.1791611,-7.9630742,3.1866663,108.3511429,-66.4198456,115.7404556,-2.0230901,8.8848372,6.8809004,-15.4198475,-13.7251911,0.2061069
2910,19.6126022,-12.7179346,6.2488346,127.2290039,-82.6946564,39.8244286,-1.9081690,9.0691900,6.6007805,-11.0152674,-11.0916033,5.6717558
2920,19.6126022,-17.3099899,8.9207497,138.6946564,-39.2137413,-21.1908398,-1.7118455,8.9782104,6.3158717,-6.9007635,-10.0687027,10.3358774
2930,19.6126022,-17.2597122,5.9184365,115.5572510,95.4351120,-22.5114498,-1.1563935,9.1003141,5.6239510,-6.6717558,-9.6488552,14.6717558
2940,19.6126022,-10.3261395,-3.2441268,13.1526718,250.1297760,69.2595444,-0.4141948,9.0596132,5.5545197,-7.9007635,-10.6870232,15.5725193
2950,18.2628765,0.9337339,-6.8473821,-159.1068726,250.1297760,206.6946564,-0.0598547,9.0428534,5.4731169,-9.9389315,-12.5648851,14.0610685
2960,19.6126022,10.3069859,-2.0039365,-250.1374054,250.1297760,246.3893127,0.1268920,8.9255381,5.4946647,-11.4045801,-14.3053436,10.5877867
2970,19.6126022,18.6842537,8.5711985,-250.1374054,250.1297760,144.8320618,0.0598547,8.8513184,5.5569139,-13.1297712,-17.1984730,6.9160304
2980,19.6126022,19.2995605,13.8168669,-250.1374054,242.5190887,-23.2671757,0.0000000,8.7555504,5.5880380,-15.0534353,-21.3511448,4.0610685
2990,19.6126022,10.2543135,16.5246964,-183.7175598,139.1450348,-238.9160309,-0.0837966,8.7316093,5.9304070,-15.7633591,-26.8931293,2.3511450
3000,19.6126022,-2.2337787,12.2175484,-48.2137413,73.7862625,-250.1374054,-0.0215477,8.6837254,5.8753409,-14.9007635,-30.3969460,1.9465649
3010,19.6126022,-10.8624372,4.7117648,30.7786255,93.0305328,-250.1374054,-0.1125269,8.8656836,5.6143742,-13.9160309,-26.6564884,3.3053436
3020,10.7211800,-12.0164366,-2.0206959,41.7557259,136.2671814,-250.1374054,-0.0598547,8.9494801,5.3246775,-13.6030531,-20.2748089,6.7404580
3030,2.7581062,-8.7699156,-6.5576849,2.0076337,158.4961853,-250.1374054,0.2944853,9.1936874,5.1834202,-15.1755724,-14.7251911,10.5419846
3040,1.8052188,-5.1906028,-5.9830794,-28.4122143,141.9236603,-235.7404633,0.7014975,9.2631187,5.1522956,-18.9923668,-10.8167934,13.0458012
3050,4.3119354,-1.0749911,-4.3167233,-34.1908379,115.2366409,-175.6183167,0.9050036,9.1218615,5.1283536,-24.2366409,-7.6870227,13.6717558
3060,6.7899213,1.1875180,-3.9791429,-26.2977104,102.2595444,-158.7022858,1.0606259,8.8513184,5.5186067,-29.2977104,-6.8320613,13.3282442
3070,7.0484939,3.7181761,-4.6423335,-19.8702297,107.1984711,-164.1603088,1.0749911,8.4897957,5.9351954,-32.9923668,-7.7938933,10.9541988
3080,5.6622581,5.1594782,-6.1315193,-25.3206100,113.7938919,-169.7328186,1.1013272,8.1306677,6.4547348,-35.1755714,-8.4351149,7.3969464
3090,3.5098817,5.9160423,-7.2543941,-40.3511467,119.0457993,-164.7404633,0.9361281,7.9439206,6.8401995,-36.0992355,-8.1221371,3.0076337
3100,1.2976507,6.5409255,-7.3070664,-56.2290077,128.0992432,-143.2900696,0.5003856,7.8888540,7.1466556,-35.7251892,-5.1908398,-0.7328244
3110,-0.1532281,7.7404146,-6.9503322,-63.3587799,134.7633514,-107.2442780,-0.0407012,7.8792777,7.6829538,-33.4503822,0.9770992,-2.2595420
3120,-0.9241571,9.8113880,-6.4164276,-57.2290077,136.3740387,-60.4580154,-0.5865764,7.8481531,7.9175844,-29.0687027,5.7022901,-2.8244274
3130,0.3974355,11.9757357,-5.8921003,-40.3893127,128.2977142,-19.6335869,-1.1132981,7.7164726,7.9654684,-24.0076332,8.6335878,-1.7709924
3140,2.7724714,13.3835192,-5.7963328,-17.8091602,110.1984711,3.2442749,-1.5705882,7.4171991,7.9319496,-19.5572510,11.4885492,-2.4503818
3150,4.4627690,14.3651371,-6.3134775,4.0381680,83.9160309,9.1755724,-1.9656296,7.2615767,7.6733770,-15.1221371,15.4961834,-2.5419848
3160,5.8394279,15.1073351,-6.8473821,21.1908398,51.3969460,1.4961832,-2.5593886,7.0341287,7.5776095,-10.7404585,21.9618320,-2.0305343
3170,6.6797886,15.7346134,-7.2807302,30.5877857,18.8931293,-10.8244276,-3.0669568,6.8593526,7.3908629,-6.2213740,31.8854961,-0.1297710
3180,7.6949248,16.5582142,-7.1131368,29.9541988,-5.0152674,-23.1984730,-3.6463506,6.8138633,7.2759418,-0.1908397,44.6335869,2.9618320
3190,7.9487090,17.0418396,-6.6941538,20.5114498,-20.4809170,-33.6259537,-4.0078731,6.6893654,7.2424231,6.8931298,59.2366409,7.8549619
3200,8.4275465,17.1352139,-6.0596933,6.9923663,-33.5038185,-44.2519073,-4.3550305,6.7276726,7.3884687,14.5038166,67.9007645,13.7480917
3210,8.4921904,16.6539822,-4.5369892,-5.6564884,-46.6564903,-56.9389305,-4.5130472,7.0101867,7.1298962,21.4198475,68.7022934,20.5877857
3220,8.2695303,15.8136215,-2.7437410,-9.9923668,-58.4122124,-71.2061081,-4.1682839,7.2041159,6.7659793,24.8778629,62.7786255,28.6564884
3230,7.6853480,14.7865143,-1.0031654,-4.4580154,-75.3282471,-85.9923630,-3.3686244,7.3788919,6.0429344,24.8702297,53.2366409,35.9083977
3240,6.6175399,13.2374735,0.2130829,10.8091602,-87.9923630,-96.6870193,-2.1858950,7.2879128,5.5257893,21.9236641,41.9694672,40.1068687
3250,5.7292953,11.7458935,0.5674229,30.8396950,-96.2671738,-101.8931274,-1.2737088,7.2400289,5.3893204,17.2442741,33.8015251,40.3435097
3260,4.7548604,10.4147243,0.8307837,50.9007645,-100.6870193,-102.8091583,-0.2873027,7.3094602,5.2959471,13.7099237,30.9389305,39.0916023
3270,3.9791429,9.0763721,0.7972651,69.7328262,-102.9007645,-102.3206100,0.5003856,7.4387465,5.3941088,11.4427481,37.9618340,36.2061081
3280,3.2872221,8.0995426,0.5219333,83.7709961,-102.3587799,-100.2824402,1.0989330,7.4722652,5.6191626,10.9160309,47.1755714,31.2977104
3290,2.7245877,7.1442614,0.0311245,92.4198456,-97.9923630,-98.0763321,1.5945302,7.4483232,5.8609757,12.0839691,60.5648842,24.3129768
3300,2.1571648,6.1985564,-0.3639168,93.9465637,-91.0457993,-97.5038147,2.5186872,6.8066807,5.9854736,14.1221371,76.1832047,12.2900763
3310,1.7262106,5.3438311,-0.5243275,91.1221390,-84.8473282,-99.0839691,1.7932479,7.5560617,6.7707677,20.0152664,96.1908417,-2.2595420
3320,1.3790531,4.2736282,-0.6248835,85.4732819,-78.4885483,-101.0839691,1.4029950,8.1474266,6.8138633,27.6641216,114.0457993,-11.8625956
3330,0.8164186,3.3446827,-0.8595140,76.9618301,-71.4580154,-100.1755753,0.6153067,8.9686337,6.5337429,31.0076332,127.9312973,-17.7938938
3340,0.1795642,2.7078283,-0.6703730,66.4427490,-65.4732819,-95.2442780,-0.6871324,9.6509781,6.2751703,31.1755733,126.4580154,-18.1984730
3350,-0.2537841,2.4229198,-0.6512195,55.5038185,-60.1679382,-87.2137375,-1.6495966,9.8712435,6.0716643,25.4503822,115.2213745,-11.9847326
3360,-0.8643024,2.0398495,-0.6440369,44.5419846,-56.3435097,-77.0687027,-1.9488702,10.1585455,6.2584114,17.1526718,96.9618301,-5.3740458
3370,-1.1659702,2.1308286,-0.3447633,34.9007645,-55.6335869,-66.4503784,-1.6735384,10.3931761,6.3158717,8.8320608,67.9236679,-1.0687023
3380,-1.1587877,2.9903426,-0.0598547,28.7175579,-56.2824440,-59.2824440,-1.2856797,10.4290895,6.5720501,-1.0000000,37.4274826,1.8167939
3390,-0.8140244,3.8354914,-0.0790083,25.3740463,-50.6335869,-58.5801544,-0.8236012,10.2686787,7.1466556,-9.8167934,15.1374044,2.2061069
3400,-0.4189832,4.6088147,-0.8403605,21.4351139,-36.1374054,-64.0152664,-0.5793939,10.4913378,7.9918046,-12.4427481,1.1603054,1.7938931
3410,-1.2234308,5.5856438,-1.7357874,13.4885492,-14.0839691,-68.8167953,-0.3184272,10.5368280,8.8968077,-10.2366409,-7.9770994,2.2290077
3420,-2.4803803,6.9048424,-3.0382264,2.4427481,11.1679392,-67.4885483,-0.0023942,10.4554253,9.4091644,-3.9770992,-11.1450386,1.8702290
3430,-3.5314295,8.7675219,-4.6566987,-9.6259546,38.3129768,-59.3129768,0.1651991,10.4578199,9.7275915,5.2442746,-8.3206110,1.0305344
3440,-3.5529771,10.2591019,-6.2775645,-21.5801525,58.7328262,-50.9923668,0.2130829,10.4051476,10.0316534,16.5419846,-3.4274809,-1.0000000
3450,-3.6870518,10.9701757,-7.7452030,-35.0305328,65.1374054,-46.6106873,-0.0335187,10.4338779,9.7706871,27.2366409,0.3969466,-3.1145039
3460,-3.9839313,11.9206696,-8.1761570,-46.3435097,62.7251892,-41.1526718,-0.3710994,10.3955708,9.2703018,35.9923668,3.0687022,-4.4961834
3470,-3.6032550,12.6173782,-7.7068958,-48.1145020,47.9847336,-34.9923668,-0.5578461,10.3237448,8.9087791,43.0916023,4.0916033,-5.1603055
3480,-2.7221935,13.0052376,-7.0341287,-40.2519073,24.0534344,-31.9694653,-0.6320660,10.2638903,8.4371233,49.3282433,2.9847329,-6.3358779
3490,-1.9297167,13.0507269,-6.0980005,-24.9083977,1.9694656,-32.7328262,-0.6536137,10.0316534,7.7356262,53.3129768,0.6412213,-8.8854961
3500,-0.9600700,12.8951044,-5.3845320,-5.1297708,-11.0687027,-35.4274826,-0.8595140,9.7419567,7.3357964,54.8473282,-2.7633588,-11.3587790
3510,-0.4285599,12.3300753,-4.9320302,13.9694653,-15.6335878,-39.1984749,-1.1132981,9.5312681,6.8258343,56.4198456,-3.3511450,-14.1068707
3520,-0.2681492,11.8249016,-4.7572546,28.3358784,-16.0152664,-42.8396950,-1.4077834,9.0380650,6.4691000,56.6870232,-2.5038168,-14.7633591
3530,-0.2920911,11.1856527,-4.8338685,35.8167953,-16.3435116,-46.3206100,-1.8578910,8.6238708,6.3374195,57.8091621,0.1068702,-14.8931293
3540,-0.5171449,10.3261395,-4.7357068,37.8473282,-18.4580154,-48.7557259,-2.3247581,8.2599535,6.1051831,59.7633591,0.0305344,-13.8091602
3550,-1.0079538,9.4450769,-4.5106530,36.2671738,-22.5038166,-47.8702278,-2.7676830,8.0013809,5.8178802,61.1755714,-4.0839696,-13.3129768
3560,-1.4556671,8.5975342,-3.8522508,33.5190849,-27.8702297,-43.7328262,-3.0166788,7.8361821,5.2815819,60.7557259,-10.7557249,-11.1068707
3570,-1.7286048,7.7595682,-3.0597742,32.0076332,-35.9618340,-37.1832047,-3.3255291,7.5560617,4.6758518,58.8244286,-17.8473282,-7.3664122
3580,-2.0613971,7.0293403,-2.1787124,32.8625946,-45.8854980,-26.8549614,-3.3398943,7.2160869,4.2760224,56.4656487,-20.5343513,-2.3664122
3590,-2.1667414,6.4379754,-1.5490406,36.1908379,-51.4274826,-13.7251911,-3.2010312,6.8473821,4.0246325,54.8473282,-20.2213745,3.8396947
3600,-1.7453641,5.8609757,-0.9457048,41.0000000,-53.7480927,-2.2366412,-2.8586621,6.5935979,3.4931223,52.8320618,-17.9923668,9.3969469
3610,-1.0725969,5.4994531,-0.5889706,46.0534363,-51.6870232,5.3893127,-2.5258698,6.2943239,3.1986370,50.3816795,-15.1068707,13.4503813
3620,-0.4788379,5.0086441,-0.5674229,52.0305328,-43.4045792,9.5496187,-2.2313845,6.0453281,2.8730273,46.4427490,-12.1679392,15.6641226
3630,-0.0263361,4.3837609,-0.9624642,57.5343513,-30.1526718,10.2519083,-1.9225341,5.5664907,2.7844424,42.6259537,-10.2595415,18.1526718
3640,-0.1077385,4.1227942,-1.4317253,58.7786255,-18.0916023,9.8854961,-2.2313845,4.9487896,3.2489152,40.8244286,-6.0687022,23.6183205
3650,-0.3998296,4.1180058,-2.1380112,53.1450386,-12.6717558,11.1908398,-2.4109488,4.9296360,4.1443419,43.7099228,-5.9847326,30.0381680
3660,-0.6895266,3.9695661,-2.5976956,42.2824440,-11.9923668,13.7557249,-2.7988074,5.0134325,4.5657191,48.5648842,-8.2366409,34.5419846
3670,-0.6224893,3.9743545,-2.8754215,26.9236641,-11.5038166,17.3816795,-2.6168492,4.7883787,4.1682839,51.1450386,-18.8931293,34.5114517
3680,-0.2489957,4.0318151,-2.7006457,11.3129768,-6.6641221,19.7404575,-1.9345051,4.9535780,3.5864959,49.2061081,-35.1908379,31.5343513
3690,-0.0790083,4.0150557,-2.6743097,-0.8625954,0.5877863,20.1221371,-1.1061156,5.9735026,2.3870070,41.3587799,-52.7328262,22.9236641
3700,-0.1316804,4.0892754,-2.9472473,-11.7175570,9.4885492,21.4732819,-1.0797794,5.5138183,1.7788827,28.2061062,-67.0687027,17.4274807
3710,-0.4788379,4.4699516,-3.5960727,-21.5877857,19.9465656,26.5572510,-0.5985473,5.9088597,1.1947005,13.1832066,-76.7099228,14.0687027
3720,-0.2968795,5.3103123,-4.3861551,-33.2366409,30.3587780,34.4885483,-0.7613522,6.5696559,1.1324517,-4.4045801,-81.7328262,10.4274807
3730,1.0031654,6.7994981,-5.1092005,-45.4580154,42.0916023,39.3358765,-0.5530578,6.7276726,1.3407460,-20.3511448,-81.0763321,8.5267172
3740,1.7262106,8.1330614,-6.4978304,-56.0916023,47.2748108,36.3282433,-0.4644727,7.3022780,1.8746504,-32.4045792,-80.3358765,6.1603055
3750,0.7134684,9.0883436,-7.9319496,-68.2137375,39.8931313,26.3893127,-0.3375807,7.8337879,2.5019281,-39.9389305,-73.7709961,4.7022901
3760,-1.0678085,10.1561518,-7.7930865,-74.7862625,19.1068707,18.2977104,-0.3447633,8.1186962,3.1842721,-45.9771004,-65.3969498,4.3053436
3770,-3.2848279,11.6070309,-7.2998838,-73.1145020,-3.0381680,22.6946564,-0.0670373,8.8321648,3.8977404,-47.0916023,-57.4274826,3.3587787
3780,-5.0517397,12.6676559,-7.3693151,-63.8167953,-13.3206110,40.6564903,0.2106887,9.0236998,4.4771342,-44.7404594,-43.4885483,3.4122138
3790,-5.9208307,13.3523941,-7.5919747,-48.1832047,-16.1908398,63.3816795,0.3471575,9.6581602,5.0661049,-37.8625946,-29.6412220,0.5496183
3800,-7.0365229,14.5159702,-8.1306677,-28.9847336,-19.2290077,88.5114517,0.5458752,10.0053177,4.7740140,-33.3053436,-15.8244276,-5.4427481
3810,-7.1682034,15.7394018,-8.7244263,-14.0305347,-30.2366409,111.7251892,0.2801202,10.3524752,5.1690550,-23.7786255,-4.8702292,-7.0610685
3820,-5.7221127,15.9524841,-8.5257082,1.6106870,-36.3206100,122.0916061,0.3327923,11.0587606,5.1666608,-16.7099228,11.1755724,-14.8702288
3830,-4.5872669,15.9955797,-8.6095057,20.4580154,-35.1145020,116.5648880,0.0143651,11.1856527,4.8530221,-14.4809160,19.7633591,-23.0687027
3840,-5.3629842,15.5526543,-9.4283180,35.3206100,-36.2519073,106.0000000,-0.6105183,11.1784706,5.1810260,-11.0076332,22.6335869,-26.5725193
3850,-7.2424231,14.2047262,-9.4067707,42.9007645,-45.6030540,103.5877838,-1.2210367,11.2072010,5.2193332,-8.4503813,26.2977104,-29.7251911
3860,-8.1498213,12.3899307,-8.9925756,50.3893127,-56.7251892,112.5648880,-1.9345051,10.9055328,4.9655490,-6.6106873,26.7022896,-29.4045811
3870,-9.5121145,10.7882175,-8.5304966,60.9389305,-65.3587799,131.8091583,-1.7693061,11.3340931,5.4228392,-4.7480917,23.1984730,-30.6946564
3880,-10.2830439,9.9239149,-7.7045016,73.2290039,-70.5190811,157.5954132,-2.1906834,11.1018562,5.5210009,-1.8091604,16.6488552,-33.0687027
3890,-10.0005293,9.1027079,-7.2496057,87.7633591,-74.4274826,181.6259613,-2.7557120,10.4266949,5.6383162,0.7251908,11.7328243,-31.8396950
3900,-9.9023676,8.3461447,-6.8521700,102.5648880,-73.1908417,201.8778687,-3.3782012,9.9263096,5.6407104,3.5190840,6.9236641,-27.6564884
3910,-9.7156210,7.8816719,-6.3924856,115.6412201,-66.1068726,219.1526642,-3.6798692,9.4139528,5.6957769,7.5648856,0.5343512,-21.8549614
3920,-9.4283180,7.2879128,-6.5624733,123.8167953,-49.1450386,238.7557220,-3.7325413,8.9183559,5.3079181,10.7099237,-3.2671757,-15.6335878
3930,-8.7675219,6.5433197,-7.1035600,123.9083939,-22.1450386,250.1297760,-3.6080434,8.4850073,5.0373745,11.9618320,-6.1984735,-8.8549614
3940,-7.9606800,5.5880380,-7.2903070,114.4885483,4.6717558,250.1297760,-3.3422885,8.0612354,4.7644372,12.0458012,-9.7404585,-3.1908398
3950,-6.6223278,4.5729017,-7.1825686,99.5114517,17.4045811,250.1297760,-2.8395088,7.7212610,4.3813667,10.9847326,-11.9541988,2.6106870
3960,-4.8338685,3.0118904,-6.3086891,85.6641235,22.5877857,250.1297760,-2.3774302,7.5153608,4.2664456,8.6488552,-11.5954199,6.1374044
3970,-1.6519908,1.0055596,-4.6088147,77.6793900,14.0534353,250.1297760,-1.9009864,7.3286138,3.9288650,4.3511453,-11.7404585,8.3282442
3980,2.0326669,-1.3335636,-2.6958573,78.8473282,-4.3969464,250.1297760,-1.5897418,7.1466556,3.9743545,0.6564885,-14.2900763,9.0076332
3990,5.9663200,-3.7708483,-0.8044477,85.3129807,-33.0992355,247.9084015,-1.2114599,7.3621325,3.7564833,-5.2290077,-15.6488552,9.8091602
4000,11.9565821,-6.2464404,2.0039365,98.8167953,-58.5114517,208.1679382,-0.9600700,7.1370788,4.0294209,-10.4503813,-20.5496178,9.1145039
4010,19.6126022,-9.0931320,6.4954362,124.3893127,-69.3969498,141.2290039,-0.6871324,7.3717093,3.7181761,-17.2977104,-23.9007626,7.5343513
4020,19.6126022,-16.0338860,11.6644907,149.5190887,-84.1832047,52.6870232,-0.3447633,7.6949248,3.8163381,-23.7938938,-27.0458012,6.3893127
4030,19.6126022,-19.6131992,17.6236286,139.6259613,-74.2824402,15.1450386,-0.2729376,7.9223728,3.8690102,-30.3129768,-28.7404575,5.4274807
4040,19.6126022,-8.6095057,19.3163204,113.9312973,48.5267181,44.1526718,-0.2729376,8.0803890,4.0868812,-36.1832047,-25.8854961,4.9618320
4050,19.6126022,16.1009235,13.8719339,97.4427490,126.1450348,83.3206100,-0.0143651,8.3700867,4.3047528,-40.8473282,-19.7633591,5.5801525
4060,19.6126022,19.6126022,8.3772688,90.4656525,8.4045801,-10.6488552,-0.1723816,8.5304966,4.9032998,-43.3282433,-13.7786255,6.2137403
4070,19.6126022,4.1323709,-5.1283536,22.1297703,-131.0686951,-250.1374054,-0.0550664,8.5065556,5.2097564,-43.1603050,-8.7099237,7.3587785
4080,19.6126022,-13.8120794,-9.4642305,-109.7480927,-99.4961853,-250.1374054,-0.0047884,8.7292147,5.4180508,-41.2900772,-4.8702292,7.5725193
4090,10.6637201,-19.6131992,-5.5880380,-223.2900696,18.9312973,-250.1374054,0.3375807,8.7555504,5.3893204,-39.6259537,-1.8625954,6.7251906
4100,-8.5328913,-17.2405586,-5.0206151,-250.1374054,125.7404556,-250.1374054,0.4118006,8.8896255,5.3414369,-38.4885483,0.0458015,4.1145039
4110,-13.1895895,-10.6756907,-4.9535780,-223.7328186,103.5801544,-250.1374054,0.3974355,8.9518747,5.4276276,-37.0152664,0.6335878,2.0534351
4120,-8.9207497,-4.2640514,-3.5266411,-144.9007568,39.1221390,-182.2137451,0.3974355,9.0787668,5.5449429,-35.6793900,0.9236641,-1.9541985
4130,-2.6575503,2.5498118,-4.1419477,-45.3358765,-5.4809160,-139.5725250,0.1101327,8.9207497,5.5545197,-34.3435097,0.3206107,-6.1679387
4140,-0.1699875,7.1035600,-8.6502066,37.3129768,-25.1221371,-143.9389343,-0.0454896,9.0548248,5.5976148,-33.2748108,0.3816794,-10.7099237
4150,-2.2505381,10.7714586,-14.8248215,70.3282471,-28.2748089,-157.8015289,-0.5291159,9.0931320,5.6478930,-32.6946564,-0.5877863,-14.4198475
4160,-5.0708933,12.9405937,-19.6131992,40.1221390,-29.9160309,-156.6564941,-0.9600700,9.2463598,5.6957769,-33.0152664,-2.0229008,-13.6870232
4170,-7.4722652,14.1807842,-19.6131992,-12.0458012,-29.9160309,-142.3053436,-1.1037214,9.3205795,5.8130918,-33.4198456,-3.5114503,-11.2595415
4180,-8.5376797,15.3706961,-19.4025116,-48.1526718,-18.2671757,-114.0534363,-1.1061156,9.2367830,6.1363077,-33.0000000,-3.4045801,-8.1679392
4190,-6.7204900,15.5598373,-16.7832680,-53.4809151,0.8778626,-87.7786255,-1.0079538,9.1410151,6.1889796,-32.0992355,-1.6106870,-5.9236641
4200,-4.5441718,15.2198620,-15.1983147,-37.1297722,15.1755724,-77.6870193,-0.9480990,8.9973640,6.4858594,-30.6335869,-0.3511450,-4.2977099
4210,-2.9161227,13.9365768,-14.4704809,-17.1374054,16.6183205,-79.5496216,-0.8523315,8.9135675,6.7994981,-27.5267181,0.9007633,-3.5725191
4220,-1.7357874,12.1672707,-13.9557304,-4.9465647,14.4656487,-86.6335907,-0.8355721,8.9015961,7.0221577,-23.4809170,2.5267177,-3.3969467
4230,-1.6208663,10.2782555,-13.0986109,-1.4503816,9.7862597,-91.9847336,-0.7996593,9.0260944,7.0460997,-18.5725193,2.8931298,-3.5114503
4240,-2.3056045,8.3892403,-11.7961712,-2.4961832,0.5801527,-90.1603088,-0.8451489,9.1170731,6.9527264,-15.0992365,1.4045801,-2.8244274
4250,-3.3446827,6.8665352,-9.8784256,-4.0610685,-13.2061071,-80.4961853,-0.9888002,9.2822723,6.6534524,-13.4122133,-2.1450381,-1.5496184
4260,-3.9121056,5.6862001,-7.8289995,-3.3740458,-28.5801525,-66.1068726,-0.9193687,9.3612804,6.5169835,-13.5572519,-6.9083967,1.6946565
4270,-4.0198441,4.6495161,-5.7604198,1.4045801,-43.5801544,-49.4198456,-0.8068419,9.3205795,6.2057390,-15.1832066,-12.6641226,4.1297708
4280,-3.9097114,3.9073172,-4.0964580,9.9541988,-56.7557259,-33.5114517,-0.3830703,9.1027079,6.1506729,-17.2748089,-18.0381680,6.4351144
4290,-3.4380560,3.3279233,-2.6862805,22.0229015,-67.6335907,-20.8091602,-0.0335187,8.8728657,6.2081332,-19.8473282,-22.3664131,8.0839691
4300,-2.6790979,2.5474176,-1.5777708,36.1145020,-76.4580154,-12.8320608,0.3519458,8.8130112,6.1387019,-22.1450386,-25.4961834,8.9236641
4310,-1.8459201,1.9273225,-0.8882443,47.8625946,-83.5877838,-8.7099237,0.7637464,8.7172441,6.2368636,-23.7557259,-27.2137413,8.9160309
4320,-1.1731528,1.5394639,-0.3375807,54.7404594,-87.5190811,-6.5267177,1.1061156,8.6454182,6.3493905,-24.1603050,-27.2977104,8.4427481
4330,-0.3447633,1.1994889,0.2825144,57.5725174,-86.6183243,-5.6946564,1.2617378,8.5855637,6.5050125,-24.6259537,-25.8167934,6.7175574
4340,0.3543400,0.7876883,0.4261657,56.9694672,-78.9694672,-5.6183205,1.3000449,8.4083929,6.3853035,-25.7709923,-24.2824421,3.1068702
4350,0.9121862,0.4381367,0.2633608,52.2290077,-63.3893127,-3.4045801,1.1875180,8.2479830,6.4810710,-27.0305347,-24.5572510,-1.7938931
4360,1.1444225,0.5889706,-0.1723816,41.9541969,-40.1297722,3.3358779,0.8283895,8.0085640,6.8832946,-27.6564884,-25.6793900,-7.8015265
4370,1.6448082,1.1396341,-0.7254394,23.9389305,-14.0610685,12.3893127,0.0909792,7.6709828,7.1394730,-26.7175579,-26.6030540,-13.4351149
4380,2.0829449,1.8770446,-1.4987626,-1.1908396,13.3435116,19.9236641,-0.5793939,7.2879128,7.3884687,-22.7175579,-24.8931293,-18.1908398
4390,2.8514795,2.7605004,-2.2768741,-29.8473282,39.8625946,19.1984730,-1.2425843,7.0030041,7.5560617,-16.4427490,-22.2977104,-21.7175579
4400,3.0669568,3.4500270,-3.3710186,-57.5954208,66.2137375,6.4274807,-1.8435259,6.8354111,7.5345144,-8.6488552,-18.1221371,-24.2290077
4410,2.4564383,3.6702924,-4.7764082,-87.0610657,88.9083939,-14.3587790,-2.4612267,6.7875271,7.2160869,-1.4274809,-13.4809160,-23.9923668
4420,1.5274929,3.6391680,-6.0046272,-120.3435135,99.8931274,-32.6030540,-3.1052637,6.7587967,6.5983863,3.7480917,-10.2290077,-21.1832066
4430,0.3423691,4.4914994,-6.6127515,-154.2442780,108.4351120,-41.3282433,-3.4739690,6.9072366,5.9735026,4.9541984,-8.7786255,-17.4045811
4440,-0.9816177,5.5233951,-6.4307928,-178.6717529,113.0305328,-43.5954208,-3.5338237,7.0748301,5.6598639,3.1221373,-11.2290077,-12.4122133
4450,-2.9927368,6.7492199,-5.8705525,-191.4274750,109.7404556,-38.4656487,-3.2920105,7.3597383,5.3342543,-1.6946565,-18.0458012,-6.6564884
4460,-5.0349803,8.5592270,-5.0062504,-193.4580078,96.8473282,-24.2366409,-2.5474176,7.5512733,5.0349803,-7.0305343,-25.3435116,-2.3358779
4470,-6.0357518,10.3548698,-4.1443419,-182.4732819,79.3129807,-3.4732823,-1.5418580,7.6183109,5.3246775,-11.6641226,-29.0687027,-0.4503817
4480,-5.9040713,11.4538021,-3.5793133,-158.1068726,59.0305328,17.4885502,-0.7924767,7.5297260,5.5138183,-13.2519083,-29.5572510,-2.0687022
4490,-4.7404952,12.3707771,-3.5721307,-126.8549652,40.0381660,33.6259537,-0.2633608,7.6063399,5.9663200,-11.4961834,-25.4961834,-4.2671757
4500,-3.1244173,13.6157551,-3.4811516,-93.0229034,25.4351139,43.8549614,0.0909792,7.7691450,6.0908179,-6.7328243,-17.1832066,-7.8473282
4510,-1.5466464,14.4441452,-3.7732425,-61.1755714,16.1603050,46.7709923,0.1723816,7.9630742,6.1937680,-1.3053435,-6.0000000,-10.0534353
4520,-0.0718257,14.7649660,-4.2018023,-33.3587799,8.2366409,41.1068687,0.0000000,8.3509331,6.2009506,3.3664122,4.2061067,-11.4809160
4530,1.0438666,14.4561157,-4.6902170,-14.6412210,3.0916030,30.6488552,-0.2418131,8.5233145,5.8873119,4.9694657,9.5496187,-12.1145039
4540,1.9416877,13.9844608,-5.1738434,-4.1221375,0.0534351,16.1374054,-0.7278336,8.8728657,5.9567432,4.2519083,12.2671757,-12.1908398
4550,1.8411317,13.5128050,-5.3151007,-3.4961832,-4.6106873,4.3740458,-1.0438666,9.2463598,6.0453281,1.8778626,11.2595415,-10.6335878
4560,1.7333932,12.8017311,-4.6279683,-6.7175574,-11.9160309,-5.3587785,-1.2617378,9.2415714,6.0620875,-1.4732825,5.9618320,-9.9541988
4570,1.5442522,11.8703909,-3.5362179,-8.2290077,-19.8244267,-13.1374044,-1.2928623,9.3253679,6.3086891,-4.9236641,2.1603053,-7.5725193
4580,1.3431402,10.8576488,-2.8849983,-9.2213745,-24.6183205,-18.4045811,-1.3742647,9.3493099,6.5983863,-6.7099237,-1.6106870,-4.9541984
4590,0.9361281,9.5192976,-2.2649033,-9.4122133,-26.3893127,-20.2977104,-1.2880739,9.3469152,6.8521700,-7.4503818,-5.8854961,0.0381679
4600,0.0814024,8.3461447,-1.8124014,-8.8473282,-26.8167934,-16.0839691,-0.9768293,9.1793222,6.9263902,-8.3129768,-10.0305347,4.9770994
4610,-0.5195391,7.6973190,-1.3072275,-6.1221375,-23.9160309,-7.7862597,-0.4046180,9.0979195,6.9575148,-8.8167934,-11.4274807,7.8091602
4620,-0.5865764,7.2831244,-1.1013272,-0.5648855,-15.5343513,0.5648855,0.1053443,8.9087791,7.2256637,-7.6030536,-10.0000000,8.3206110
4630,-0.6967092,7.0413113,-1.3096216,5.9312978,-2.1297710,7.4274807,0.4740495,8.8154058,7.4195933,-4.9694657,-6.6717558,7.9312978
4640,-2.6479735,6.9670911,-3.7900019,9.3053436,18.3893127,30.8549614,0.8164186,8.7316093,7.6781654,2.5038168,0.1908397,0.6259542
4650,-2.9376705,7.3741035,-4.6327567,4.1145039,16.0381680,46.8549614,0.4955972,8.6573887,7.6685886,2.9923663,-0.4198473,-2.0534351
4660,-2.5593886,7.9223728,-5.1834202,-0.5954198,14.1297712,59.2290077,-0.2633608,8.6909075,8.0277176,2.8854961,-1.0458015,-3.0534351
4670,-3.0980811,8.1929159,-5.9926562,-4.1755724,12.9007635,69.5954208,-1.1420283,8.6430235,8.4490948,3.9541984,-4.7862597,-1.0916030
4680,-3.5553713,12.2821922,-6.8713236,20.5801525,-20.4809170,133.5572510,-4.3191175,7.9343438,8.3557215,-7.7938933,-27.3664131,23.2977104
4690,-3.3111639,12.1648769,-7.0221577,45.3664131,-37.7099228,141.3511505,-3.2010312,7.8361821,9.6342182,-10.2137403,-27.3664131,32.0458031
4700,-3.9288650,12.0260134,-7.2807302,71.0916061,-64.2748108,142.9770966,-3.6655040,7.6087341,9.6749191,-11.2213745,-27.7938938,38.2442741
4710,-4.9703374,11.5543585,-7.9104018,95.1679382,-94.0076370,147.4809113,-3.3111639,7.2831244,11.4346485,-9.0381680,-35.0534363,43.6946564
4720,-6.2009506,10.9318695,-8.3916340,113.8625946,-119.5877838,158.4503784,-3.6846576,7.3094602,11.6309719,-1.7175573,-51.6412201,48.6335869
4730,-7.7212610,9.8137827,-9.1817169,122.9236679,-136.8320618,177.6793823,-4.1395535,6.5744443,11.6908274,6.3740458,-81.0152664,61.1145020
4740,-9.2631187,8.5520449,-9.7491398,122.6564865,-141.1832123,207.5496216,-2.7317703,7.0868006,11.3436699,16.4885502,-100.1679382,67.2671738
4750,-9.9765873,7.9965930,-9.8425131,118.2671738,-132.2061005,247.1068726,-2.0015423,6.8785062,10.5871058,26.1755733,-115.1832047,69.0229034
4760,-9.6749191,7.1298962,-9.4474716,114.8625946,-116.2595444,250.1297760,-0.8164186,6.6869712,9.4307127,33.4809151,-124.9770966,69.7175598
4770,-8.5328913,6.5864153,-9.2535419,115.6870193,-99.7862625,250.1297760,0.1675933,6.7013364,8.4179697,37.7862587,-127.5801544,68.7786255
4780,-7.0030041,6.1363077,-9.1410151,119.3435135,-83.8625946,250.1297760,1.2186425,6.9479380,7.0796180,41.1068687,-118.4503784,67.2824402
4790,-5.3031297,6.0261750,-9.3373384,122.0076370,-62.0687027,250.1297760,1.6184721,7.2112985,6.1315193,40.2442741,-97.2290039,66.9160309
4800,-3.0956869,5.7795734,-9.1601686,124.9312973,-40.9541969,250.1297760,1.4197544,7.3812861,5.3151007,35.0305328,-85.7328262,65.6564865
4810,-1.6256547,5.5018473,-9.2750902,125.8320618,-21.4351139,250.1297760,1.8291607,7.3669209,4.8266859,24.3358784,-88.0000000,65.3587799
4820,0.0598547,5.7269011,-9.6533718,119.6030502,-3.1145039,250.1297760,1.7453641,7.0006099,5.3174949,15.4732828,-93.7786255,64.5038147
4830,2.8921809,6.0022330,-9.9550400,104.5496216,6.0534353,250.1297760,2.2912393,7.0700417,5.6933827,12.3129768,-106.6106873,61.5419846
4840,5.4898763,5.4707227,-8.9925756,88.1297684,-8.8549614,250.1297760,2.3894010,7.1586266,5.8490047,13.0610685,-111.2061081,57.5496178
4850,8.9901810,3.0717452,-6.9694853,75.5954208,-57.2290077,183.1297760,2.6431851,7.2089043,5.4898763,16.3664131,-115.2824402,54.7022896
4860,17.3004131,-1.4700323,-2.0781565,66.0992355,-125.3129807,69.3587799,2.8658447,7.5009956,5.0421629,18.3358784,-120.4351120,51.3435097
4870,19.6126022,-8.0133524,7.7571740,74.8702316,-152.3282471,-86.0992355,3.1172347,7.5105724,4.6423335,19.7099228,-122.9007645,47.0000000
4880,19.6126022,-19.6131992,17.5685616,89.7557220,-73.2671738,-250.1374054,4.1060348,7.7523856,3.8642218,20.2900772,-129.4961853,40.3664131
4890,19.6126022,-19.6131992,15.6005383,26.0534344,156.7862549,-250.1374054,4.5058646,7.8984308,2.9927368,20.6183205,-117.1221390,31.5419846
4900,19.3091373,-18.6842537,-10.5200682,-154.9007568,250.1297760,-229.3740387,4.3047528,8.0420828,2.0566087,19.0534344,-91.3740463,25.3129768
4910,4.9176650,-8.1665802,-14.4417505,-250.1374054,250.1297760,84.9847336,3.9911139,8.4107876,1.0869620,14.0763359,-55.0076332,25.7099228
4920,19.6126022,7.8649125,-0.0143651,-250.1374054,250.1297760,250.1297760,2.9256995,8.8944139,-1.0965388,2.4427481,12.0687027,33.3664131
4930,19.6126022,18.5166607,18.8183289,-180.1145020,122.4656525,189.6106873,3.2082138,8.0899658,1.2306134,-17.4351139,27.8625946,40.1679382
4940,19.6126022,19.6126022,19.6126022,108.5801544,-132.2137451,-108.2900772,3.2800395,7.6350703,4.1658897,-33.0992355,-10.5038166,37.6412201
4950,19.6126022,9.6677370,12.3564119,208.9160309,-214.7099304,-250.1374054,4.0222383,7.4219875,5.0780759,-36.5801544,-57.3435097,25.9770985
4960,19.6126022,-6.3589673,-0.9433106,104.9618301,-116.2824402,-250.1374054,4.6854286,7.6278877,5.2480631,-30.8396950,-78.9770966,12.4198475
4970,9.1697454,-16.6108856,-5.3198891,-65.2366409,-29.6183205,-250.1374054,4.9511838,7.5823979,5.4132624,-20.1679382,-84.5267181,-0.1832061
4980,4.6495161,-11.5926657,2.3463056,-139.8320618,-21.8702297,-250.1374054,4.9942794,7.5991573,5.6957769,-8.4656487,-92.6106873,-11.2213745
4990,10.6900558,-10.2902260,5.6431046,-115.8625946,-62.3282433,-217.0000000,4.8961172,7.7667508,5.4755111,2.1297710,-97.2519073,-22.9770985
5000,14.4776640,-7.8481531,5.7556314,-54.5801544,-90.1221390,-214.5190887,4.1299767,8.4921904,4.8817525,9.7099237,-94.9923630,-29.5572510
5010,14.5662489,-5.7340837,3.2632802,2.9847329,-98.7709961,-247.5038147,3.1866663,8.7411861,4.2975702,12.2595415,-84.1145020,-27.7175579
5020,10.9677820,-4.5226240,-0.5722113,40.7709923,-85.3969498,-250.1374054,2.5258698,8.7890692,3.9312592,11.0152674,-68.4122162,-21.7099228
5030,4.1227942,-2.2505381,-5.3151007,41.6564903,-56.0228996,-250.1374054,1.9297167,8.6549950,3.6942344,7.8625956,-56.6259537,-13.2671757
5040,-2.2002602,0.3471575,-9.6054878,6.4961834,-23.2824421,-233.1221313,1.7860653,8.5089493,4.0581512,3.3358779,-54.8015251,-6.2290077
5050,-5.8490047,3.2752512,-11.0683374,-45.4427490,9.0229006,-174.6412201,2.0733681,8.5137377,4.5681133,-1.4122137,-60.4809151,-1.7862595
5060,-6.2224984,5.3246775,-10.5368280,-81.3664093,25.3969460,-121.3587799,2.6982515,8.4467001,5.0421629,-4.7786260,-72.0305328,0.4732825
5070,-5.2336984,7.6135225,-9.8161764,-90.1068726,31.4274807,-88.0305328,3.3039815,8.1953106,5.3653784,-6.5877862,-82.4656525,0.1832061
5080,-5.2504573,9.7443514,-9.8903971,-79.6793900,26.5954189,-70.6488571,4.0964580,7.8840661,5.8825235,-6.6564884,-92.2977066,-1.9160305
5090,-5.6550756,10.9007444,-10.2950144,-61.6030540,5.9541984,-63.3587799,4.7309184,7.5632443,6.3398137,-4.7633586,-100.7862625,-8.2595415
5100,-5.3127065,11.6070309,-10.5440102,-44.3740463,-24.2977104,-65.5267181,4.8865409,7.5033898,6.5696559,-0.5572519,-107.0916061,-15.6946564
5110,-4.8721757,11.8320847,-10.5942879,-37.0000000,-47.9389305,-72.3358765,4.8745699,7.5153608,6.3829093,4.9694657,-105.1755753,-20.7175579
5120,-4.6830344,11.9446115,-10.2543135,-42.7404594,-53.5038185,-76.4809189,4.7452836,7.5656385,6.2392578,11.2290077,-97.8015289,-23.4809170
5130,-4.4077029,11.8129311,-9.7467451,-54.7099228,-49.6412201,-80.8091583,4.3239059,7.8074517,5.6981707,16.7480907,-88.5648880,-23.4198475
5140,-4.7452836,11.5423870,-9.1841106,-69.5725174,-38.4351158,-89.1526718,4.2257442,8.0181408,4.8075323,19.9465656,-70.4656525,-20.2290077
5150,-5.0828643,11.0228481,-7.8936424,-85.6564865,-26.3816795,-97.1984711,3.6583214,8.1019373,3.7876077,21.9694653,-42.5877876,-14.0229006
5160,-5.6981707,10.3405046,-6.5672617,-97.8167953,-13.4503813,-99.1374054,2.9113343,8.1881275,3.6295912,21.4732819,-23.3053436,-5.6793895
5170,-6.4020624,9.5743637,-5.1331420,-102.4274826,1.8473282,-91.5954208,2.6886747,8.4371233,3.6894460,17.0305347,-14.9236641,1.4198474
5180,-6.6989422,9.2248116,-3.9623835,-99.8473282,14.1526718,-77.1603088,2.9879484,8.3868456,4.1850433,12.4885492,-17.0992374,6.7786260
5190,-6.1865854,9.0739784,-2.9520357,-90.0534363,20.8854961,-61.8167953,3.9097114,8.0013809,5.1115947,12.6946564,-23.7709923,7.5801525
5200,-5.4707227,8.9159613,-2.2433555,-74.2061081,20.5343513,-48.7480927,4.9152708,7.8146343,5.4012914,20.6259537,-22.2748089,4.5190840
5210,-4.8530221,8.9901810,-1.7477583,-54.2671738,13.3053436,-37.9007645,5.1403246,7.7428088,5.2049680,32.8015251,-8.9236641,0.7633588
5220,-4.3813667,9.0859489,-1.3407460,-32.5877876,6.1908398,-29.4427490,4.7261300,7.8337879,4.5202298,41.1221390,4.5419846,-0.3664122
5230,-3.0310438,8.8561068,-1.7812769,6.0687022,-2.8778627,-13.0992365,4.0222383,7.9941988,3.3829896,34.3358765,2.6946564,2.4580152
5240,-0.7254394,9.0452480,-3.4907281,27.9847336,14.5496187,7.1068702,5.4467812,7.2352405,4.4651632,-8.0000000,-25.4580154,-1.2748091
5250,-0.0454896,9.0141230,-3.7756367,19.6946564,24.6641216,3.6946564,5.6407104,6.9263902,4.8434453,-9.3435116,-31.0152664,-4.7557254
5260,0.3734936,9.0835552,-4.0605454,9.4351149,35.1832047,-2.3206108,6.0213866,6.9718795,4.7620430,-7.3664122,-32.6106873,-10.6488552
5270,0.0933734,9.1027079,-4.3215117,-1.8702290,45.7633591,-7.3358779,5.8537931,7.1993275,4.4938936,-4.9923663,-26.9083977,-16.0839691
5280,-0.3974355,9.1960821,-4.3526363,-12.8167934,47.1679382,-7.6259542,5.4707227,7.3477674,4.3670015,-3.1221373,-20.4885502,-20.4961834
5290,-0.9672526,9.5073261,-3.8307030,-17.5954189,38.8625946,-1.6488550,5.1235652,7.4579000,4.3191175,-0.0534351,-13.8473282,-22.9312973
5300,-1.4197544,9.7108326,-3.0956869,-13.0687027,23.9541988,6.1984735,4.3478479,7.7571740,3.9097114,3.0000000,-8.9236641,-23.5114498
5310,-1.9009864,10.1010857,-4.0270267,24.4351139,-9.5496187,24.2748089,3.9360476,8.2407999,3.6726866,-0.0992366,-21.6946564,-10.5572519
5320,-2.4061604,10.4841557,-4.8482337,32.4045792,-2.9160306,28.9541988,4.8769641,8.2527714,3.8354914,1.1526718,-21.3129768,-7.7022901
5330,-4.1275826,11.0276365,-5.9064655,37.4274826,4.3816795,38.4656487,5.5569139,8.0923605,4.2592630,3.5190840,-22.9847336,-8.6259546
5340,-5.2360926,11.5711174,-7.0532823,43.2061081,6.5267177,54.9847336,5.8561873,7.9630742,4.5441718,4.7328243,-32.2442741,-10.1297712
5350,-5.2839761,11.7219515,-8.2551651,49.2595406,2.6335878,73.7557220,6.1410961,7.8409705,4.5226240,5.3969464,-40.5419846,-13.3129768
5360,-4.3310885,11.8919392,-9.3086090,54.9771004,-6.5343513,88.9236679,6.3517847,8.0061693,4.3071470,5.6564884,-41.4045792,-15.9541988
5370,-4.6806402,11.7554703,-10.4458485,59.3816795,-18.7328243,101.2442780,5.8968887,8.2120695,4.1515245,7.4961834,-35.5725174,-16.9389305
5380,-6.1770086,12.5407648,-10.8217363,62.2671738,-39.4427490,116.5267181,5.3318601,8.3293848,3.9121056,9.8091602,-27.3587780,-15.2442751
5390,-8.6621771,13.5750542,-10.1322098,67.7786255,-71.9542007,131.2366486,5.2097564,8.6166878,3.2824337,11.0152674,-20.6641216,-13.3358774
5400,-11.2862091,13.7689838,-9.3876171,81.2137375,-119.4503784,146.9694672,5.1259594,8.9039907,2.7557120,10.1832066,-8.3129768,-11.4427481
5410,-11.9781294,13.7833490,-8.4443064,96.8320618,-177.1526642,167.8854980,4.9009056,8.9279327,2.4229198,6.2137403,-3.1755726,-12.3129768
5420,-10.1106625,11.6620970,-6.5648675,118.1679382,-174.0992432,179.9389343,4.4723458,8.9446917,1.8554969,-1.7404580,1.0381680,-13.4351149
5430,-12.3204985,10.2614956,-6.8018923,139.2824402,-125.7480927,193.8778687,3.4500270,8.8992023,2.0781565,-10.2519083,4.6259542,-15.7938929
5440,-15.3874559,9.4594421,-8.1953106,150.4198456,-83.3206100,233.6488495,2.5210814,8.9829988,2.4971397,-17.4732819,6.9770994,-15.8396950
5450,-14.4297800,7.3525558,-8.5281029,152.8396912,-53.1755714,250.1297760,1.7597293,8.9375095,2.8897867,-22.1374054,8.1679392,-13.0992365
5460,-11.8009596,4.8602047,-8.6047173,152.8473358,-21.3358784,250.1297760,0.9864060,8.9829988,3.2920105,-24.3053436,10.4809160,-8.7175570
5470,-8.4826136,2.3798244,-8.4826136,147.6488495,0.1832061,250.1297760,0.3088504,8.9183559,3.4835455,-25.1297703,11.5725193,-2.7938931
5480,-3.7612717,-0.1388630,-7.7835097,136.1374054,6.8778625,250.1297760,0.1364688,8.7244263,3.5577655,-25.7938938,10.8931293,4.6183205
5490,1.6208663,-2.1236460,-6.4762826,124.5648880,1.5572519,250.1297760,0.4261657,8.9901810,3.6032550,-26.0687027,12.3206110,13.4351149
5500,7.8289995,-4.9487896,-4.7117648,113.8244247,-12.6717558,250.1297760,0.7709290,9.0308828,3.8402798,-26.3358784,18.1068707,23.7938938
5510,15.9453020,-8.9518747,-1.8459201,101.9847336,-21.7328243,226.4961853,1.4149660,8.8297710,4.6255741,-24.1145039,24.8167934,35.2137413
5520,19.6126022,-13.8240499,1.2234308,92.8778610,-9.7480917,149.4274750,2.5067163,8.6142941,5.4276276,-16.3282452,32.2900772,43.1832047
5530,19.6126022,-19.6131992,5.2336984,80.7938919,32.3129768,55.4351158,3.7708483,8.4251528,5.6407104,-4.4198475,44.5267181,47.0381660
5540,19.6126022,-19.6131992,7.6422529,62.5114517,127.7175598,-50.0916023,4.5561423,8.5424681,5.3797436,6.6106873,61.4427490,49.9236641
5550,19.6126022,-15.8519287,4.6878228,19.8320618,237.0076294,-117.6641235,4.9368186,8.6621771,5.1858144,14.4580154,78.2366409,52.1832047
5560,19.6126022,-2.8538737,-5.3462253,-73.9007645,250.1297760,-63.0305328,5.3917146,8.6430235,5.1115947,18.8854961,86.0000000,52.6564903
5570,6.3876977,19.6126022,-7.6590118,-207.1297760,250.1297760,102.6564865,6.0261750,8.9806042,5.0325861,20.0610695,83.4274826,51.8473282
5580,19.6126022,19.6126022,9.8640604,-250.1374054,127.2442780,188.8320618,6.5576849,9.2679071,4.5633249,17.6488552,70.8778610,49.1221390
5590,19.6126022,15.4999828,19.6126022,-179.7251892,32.1068687,17.8320618,7.5512733,9.3205795,3.9288650,8.4503813,54.4656487,43.6870232
5600,19.6126022,7.6111283,19.6126022,-11.2061071,-34.5801544,-250.1374054,8.3437500,9.3804340,3.7516949,-4.4656487,32.0687027,33.3893127
5610,19.6126022,-3.2632802,11.7985659,101.8702316,-106.0381699,-250.1374054,8.6645718,9.4546537,4.0126615,-16.6641216,11.4274807,21.8167934
5620,16.0626163,-11.1257982,2.8490853,102.0000000,-127.2671738,-250.1374054,8.5448618,9.1434097,4.3310885,-24.9160309,-3.1755726,12.2137403
5630,9.3397331,-12.9836893,-0.7230452,30.3740463,-127.8244247,-250.1374054,8.1498213,8.5376797,4.8123207,-28.5038166,-7.9160304,5.8778625
5640,7.2639709,-9.9550400,-0.5434810,-51.6183205,-102.2519073,-250.1374054,7.7092900,7.8673067,5.5784616,-25.8091602,-6.8549619,2.2977099
5650,9.0811605,-7.8792777,0.9528874,-105.6717529,-56.9083977,-236.6641235,7.1729918,7.3310080,6.1027889,-17.2595425,-7.0916033,-1.0610687
5660,10.9103212,-7.2136927,1.7669119,-127.4961853,-11.5877867,-225.3435059,6.6055689,7.0891948,6.1147599,-8.5038166,-12.2977095,-4.3587785
5670,9.7658987,-5.2767935,2.0159075,-122.7099228,26.4274807,-240.6870270,6.5505023,7.0939832,5.6718349,-0.6030535,-16.5267181,-8.6030531
5680,6.4068508,-3.0885043,0.1460456,-105.0763321,76.0076370,-250.1374054,6.5792327,7.1155310,5.1858144,5.2595420,-16.3664131,-13.8015270
5690,0.7398046,-0.6440369,-3.6702924,-100.1679382,120.7404556,-250.1374054,6.3613615,7.0891948,4.6351509,7.1145039,-18.1450386,-20.5496178
5700,-5.5497313,2.1380112,-7.3070664,-114.3358765,133.0915985,-242.0458069,5.8513989,7.2879128,4.4484038,4.2824426,-25.5954189,-29.3206100
5710,-11.5783005,4.7979555,-9.1194677,-132.1603088,110.4198456,-197.3816833,4.7835903,7.9080076,4.3646073,-1.7404580,-40.4885483,-38.4656487
5720,-13.4649220,6.7109132,-7.5081782,-135.0763397,66.3816757,-127.2595444,3.9743545,8.2360115,3.9432299,-11.4122133,-63.3435097,-43.6488533
5730,-12.1265697,8.3796635,-5.0924411,-109.2442780,27.4732819,-61.0610695,3.3159523,8.4131813,3.9384418,-22.9618320,-84.5648880,-45.4885483
5740,-9.1745338,10.6421719,-3.5577655,-52.0992355,11.0916033,-13.0152674,3.0047078,8.4586716,4.5154414,-31.2213745,-101.3587799,-43.0687027
5750,-6.1315193,11.7770176,-4.1563129,14.6106873,4.5267177,11.4045801,2.9256995,8.3198080,5.0325861,-33.8015251,-109.7633591,-38.8396950
5760,-4.6566987,12.0475616,-6.8521700,62.2519073,-1.3206106,14.4351149,3.0358322,8.0803890,5.4012914,-30.8244267,-105.2595444,-31.7862587
5770,-4.5800843,13.2662039,-10.6086531,76.6183243,-8.9847326,9.1450386,3.1483591,7.7859039,5.8992829,-23.0076332,-88.0000000,-22.5877857
5780,-4.0796990,13.9006643,-12.7777891,57.6564903,-23.7251911,-1.4885496,3.4452386,7.4243813,6.1817970,-11.1297712,-67.9847336,-13.8167934
5790,-3.9288650,13.5511122,-13.3954897,14.0381680,-31.7557259,-16.2137413,3.8761928,7.2280579,6.2009506,2.6183207,-50.9771004,-9.2671757
5800,-3.6894460,13.0363617,-12.4330254,-38.4961815,-30.4961834,-28.1984730,4.0294209,7.2879128,5.5377603,12.3358774,-43.4656487,-8.4961834
5810,-3.3782012,12.0355902,-9.4307127,-84.8625946,-19.9923668,-36.6030540,3.9312592,7.2927012,4.5633249,13.0000000,-47.4732819,-10.6564884
5820,-3.4356618,10.8361015,-6.0596933,-106.8015289,-5.8854961,-42.7633591,4.0677280,7.3549500,3.9312592,7.0381680,-57.5114517,-11.6488552
5830,-3.6248028,9.9287033,-3.4284792,-105.7557220,8.3816795,-46.4580154,4.3095412,7.3357964,3.5936785,-0.2748092,-63.9847336,-13.6488552
5840,-3.7445123,9.4809904,-1.9919657,-89.8244247,28.0763359,-43.6564903,4.3382711,7.2543941,3.6846576,-6.3511453,-65.7480927,-14.8396950
5850,-3.5745249,9.2272062,-1.5514348,-66.9694672,46.8320618,-36.9236641,4.5130472,7.3166428,4.0509686,-10.7251911,-63.4427490,-15.5114508
5860,-3.4619980,8.9758167,-2.0781565,-44.4198456,57.5954208,-28.1755733,4.5992379,7.2687593,4.2377152,-12.4961834,-56.8396950,-14.9007635
5870,-3.0980811,8.8585014,-2.8562679,-28.7786255,61.2213745,-17.4351139,4.2425036,7.6374645,4.7955613,-10.9770994,-49.6793900,-12.4122133
5880,-2.4995339,9.1146793,-3.3542595,-18.1603050,59.4656487,-5.7557254,4.3334827,7.3788919,4.7620430,-8.4503813,-44.3358765,-8.0381680
5890,-2.0350611,9.1865053,-3.5050933,-7.9923663,55.9236641,5.0839696,4.5800843,7.4028339,4.8266859,-6.0305343,-42.1603050,-4.4961834
5900,-1.6041069,9.4235296,-3.7133877,3.2900763,53.8167953,13.2748089,4.9032998,7.4650826,5.0876527,-3.9694657,-45.0992355,-4.0763359
5910,-0.7709290,9.9717989,-4.0653338,13.4503813,53.7328262,18.0000000,5.3749552,7.5105724,5.0277977,-0.8625954,-44.6870232,-4.9618320
5920,0.1268920,10.6254129,-4.5489597,19.6641216,53.7099228,20.4198475,5.5257893,7.5847921,4.9703374,2.7938931,-41.7938919,-8.0229006
5930,0.5530578,11.0803089,-5.1810260,20.2290077,52.2366409,20.4656487,5.1929970,7.9774394,4.6231799,3.5496182,-39.3740463,-11.0000000
5940,1.1563935,11.4538021,-5.3749552,15.3816795,51.5419846,16.9770985,4.7907729,8.2671366,4.8171091,3.2671757,-35.8091621,-11.9389315
5950,1.7956421,11.6812506,-5.6574697,6.4732823,52.0763359,10.9923668,4.3622131,8.2647419,5.1475072,4.8396945,-33.5801544,-10.1145039
5960,1.1539993,12.0715036,-6.1817970,-19.2061062,39.6488533,1.4503816,4.4244623,8.3988171,4.9511838,13.7251911,-27.7709923,-6.2213740
5970,1.1013272,12.0284081,-5.1403246,-31.3435116,24.1068707,0.2061069,4.8578105,8.4107876,4.5681133,17.4732819,-24.2442741,-4.9389315
5980,1.2186425,11.8296900,-3.7588775,-33.9160309,5.8702292,-1.7175573,5.2696109,8.4778252,3.9767487,20.5725193,-15.3053436,-4.7404580
5990,1.0438666,11.0779142,-1.8746504,-15.6641226,-27.7404575,1.4656489,4.8697815,8.6095057,2.7581062,21.8702297,-1.7328244,-7.0458016
6000,0.9385223,10.7475166,-1.4676381,-2.5877862,-34.6793900,5.1450381,4.7596488,8.6262646,2.3534882,17.2900772,-6.2213740,-8.5267172
6010,-6.4116392,8.1210909,-6.8569584,25.4809170,-80.8625946,122.1297684,6.0980005,7.9415264,5.6287394,8.5190840,-14.8015270,-17.3282452
6020,-7.7188668,9.1793222,-6.3589673,33.7022896,-92.3282471,155.5648804,5.9375896,7.6901364,5.5688848,14.8625956,-9.7557249,-19.3816795
6030,-8.7747040,9.4929609,-5.9471664,52.7404594,-98.3511429,190.3206177,5.8059096,7.3310080,5.6598639,22.4274807,-2.6793892,-21.2977104
6040,-5.7580256,11.5639353,-6.9814563,133.4732819,-83.3664093,250.1297760,5.2887645,7.0077925,4.3837609,61.0000000,31.9770985,-42.6259537
6050,-4.7548604,12.2558556,-9.1122847,146.9618378,-68.1374054,250.1297760,4.3717899,7.2711535,3.3590479,69.1145020,39.9618340,-45.9007645
6060,-4.2353210,12.3420467,-10.5823174,141.2519073,-47.0839691,250.1297760,3.2776453,7.5584559,2.0925217,70.9847336,43.2137413,-47.8702278
6070,-4.0701222,12.3947191,-11.4490137,119.5801544,-20.8015270,250.1297760,1.4460905,8.3892403,1.4149660,67.2977066,41.2442741,-44.1374054
6080,-3.5888901,11.8632088,-11.0755205,93.4274826,2.7022901,250.1297760,0.5506636,8.6382351,0.7972651,61.0152664,32.7786255,-34.6793900
6090,-2.3702476,11.1545286,-10.5942879,72.9160309,24.5343513,250.1297760,0.6943150,9.0260944,0.3423691,51.2671738,26.9083977,-24.7557259
6100,-0.4261657,10.7044210,-10.4195127,57.3435097,38.0610695,250.1297760,1.2761030,8.9159613,0.4070122,40.8931313,23.3129768,-16.4274807
6110,0.7805058,9.7898407,-10.7523050,44.8854980,35.1374054,250.1297760,1.6591733,8.8321648,0.8499373,32.3969460,18.8244267,-10.8091602
6120,1.4987626,7.6422529,-11.2574787,27.6183205,19.5038166,247.1374054,2.2481439,8.8297710,1.3598996,25.6793900,12.6183205,-6.3511453
6130,3.8139439,-5.2049680,-6.5720501,-59.1984749,-93.9083939,163.7022858,3.9671719,7.9487090,2.5067163,13.7404585,14.9465647,-6.5496182
6140,7.6207051,-10.5057030,-1.6376256,-71.0152664,-137.6030579,135.7328186,4.2616572,8.0109577,1.8267666,10.9541988,30.8167934,-7.7938933
6150,14.1759958,-16.7090473,5.3151007,-56.8702278,-159.4427490,98.5267181,3.0932927,8.2886839,1.6184721,10.3282442,46.9771004,-7.6641221
6160,19.6126022,-19.6131992,11.8033543,-13.4503813,-131.0458069,52.3969460,3.0908985,7.9918046,1.6208663,8.6870232,64.9847336,-3.0152671
6170,19.6126022,-19.6131992,15.3252068,38.8473282,-69.7099228,1.6412214,3.1196289,7.8337879,1.5514348,5.3053436,73.8015289,-2.9923663
6180,19.6126022,-19.6131992,14.8894644,71.0457993,56.9389305,-17.1221371,3.0454090,7.7475972,1.5681942,1.3587786,81.0076370,-4.7175574
6190,19.6126022,-19.6131992,7.2496057,48.9694672,236.3893127,39.5725174,2.9233053,7.3884687,1.7286048,-0.0763359,94.3664093,-4.4885497
6200,12.2510672,-3.4643922,-6.2201042,-58.4809151,250.1297760,206.2748108,2.7652888,7.1993275,2.0853391,1.2061069,115.7328262,-3.8244274
6210,17.6882725,9.2894554,-7.2065101,-219.9847260,250.1297760,250.1297760,3.0334380,7.3286138,2.9568241,7.7709923,140.9847260,-2.8244274
6220,19.6126022,17.2094345,3.1507533,-250.1374054,250.1297760,250.1297760,2.9065459,7.2376347,3.3063757,19.0229015,166.6564941,-2.7938931
6230,19.6126022,19.6126022,14.2047262,-250.1374054,147.6412201,146.6030579,2.3391230,7.6278877,2.9735832,28.6946564,189.2442780,0.2671756
6240,19.6126022,17.6188393,19.6126022,-169.1374054,54.8091621,-105.6412201,2.3870070,8.0492649,2.8179610,32.4656487,208.3435059,6.4503818
6250,19.6126022,7.0891948,19.6126022,16.4580154,37.2977104,-250.1374054,2.8395088,8.3461447,2.9496415,33.5877876,217.3816833,9.5114508
6260,19.6126022,-3.1986370,13.8647509,153.1755676,62.0000000,-250.1374054,3.2896163,8.6502066,2.8490853,32.3587799,220.1984711,9.7786255
6270,15.1097298,-10.6014709,4.5800843,212.3740387,81.0687027,-250.1374054,3.6200144,8.7842808,2.8275378,27.9847336,217.7175598,8.6564884
6280,9.2798786,-13.4218264,-2.8754215,197.8702240,70.8854980,-250.1374054,0.1029501,6.1291251,2.0302727,22.3435116,205.7862549,11.7099237
6290,7.4243813,-11.2862091,-6.6247220,130.8244324,59.8015251,-250.1374054,2.5546002,9.2319946,2.1380112,10.6412210,177.4045868,24.0458012
6300,6.6582408,-8.5927458,-5.2648225,61.6335869,73.3587799,-228.1297760,5.1953912,10.1465750,3.4045374,-1.5496184,180.4351196,16.1526718
6310,9.8473015,-6.6678176,-3.0166788,21.4885502,72.3816757,-191.1450348,4.5609307,7.9271612,4.7045822,-0.4732825,188.9007568,7.8244276
6320,10.4099360,-4.9894910,-1.5945302,7.1984735,92.1984711,-187.7862549,4.0366035,8.0660238,4.9296360,5.1832061,189.8625946,2.5572519
6330,8.0779953,-2.6838863,-1.3958124,5.3206105,122.8015289,-192.6106873,3.8929520,8.8154058,5.4898763,8.4427481,188.6870270,-0.6717557
6340,5.7819676,-0.2418131,-2.0446377,11.5419846,152.1145020,-190.2519073,4.0796990,8.8441362,5.5593081,13.3129768,194.0000000,-3.9465649
6350,3.6248028,1.6448082,-3.2991931,20.3129768,165.9389343,-172.5190887,4.1371593,8.5352850,5.8609757,20.8854961,209.1984711,-8.2824430
6360,2.2074428,2.7437410,-5.1355362,25.6870232,161.1297760,-139.8549652,3.0597742,8.6358414,6.4140334,30.9694653,219.2061005,-12.2290077
6370,2.4109488,3.7684543,-6.5505023,24.6870232,148.5572510,-100.4656525,2.3894010,8.4850073,7.1514440,43.1068687,215.0305328,-14.3435116
6380,3.3494711,5.9543490,-7.6230993,19.8931293,138.6030579,-64.6106873,2.5330524,8.1929159,7.2136927,60.0534363,211.6030579,-18.5572510
6390,3.0669568,8.5281029,-7.4315639,17.9465656,128.7633514,-38.8091621,2.8826041,7.7021074,6.6869712,78.9923630,210.9923706,-23.1450386
6400,3.6271970,10.2974091,-7.0149751,20.6641216,99.4885483,-23.2519093,3.2153964,7.7930865,5.4467812,93.6412201,214.8091583,-29.3435116
6410,5.3366485,10.7618818,-6.6342988,26.9007626,60.9771004,-21.9389305,1.4676381,7.3836803,3.9456241,101.8320618,241.3282471,-30.9618320
6420,6.7587967,10.4913378,-6.1985564,33.4274826,27.2290077,-32.9694672,2.3654592,9.0260944,3.1866663,104.5496216,241.7328186,-19.5267181
6430,7.2041159,10.2088242,-6.4188218,35.3053436,8.0458012,-45.2290077,2.8706331,8.3940287,1.9368993,96.6183243,236.0076294,-15.2061071
6440,7.5105724,10.0508070,-6.7276726,28.6335869,-1.7862595,-55.1297722,2.5761478,8.1258793,1.2258250,83.8854980,228.9084015,-15.9083967
6450,7.1035600,9.6868906,-7.0508881,14.4122133,-0.8702290,-66.1832047,1.9752063,8.0684185,0.9337339,67.6793900,216.7938995,-11.4732828
6460,5.4515696,9.9215212,-7.5728211,-5.9618320,5.6335878,-75.0534363,0.9983770,7.5752153,0.6943150,47.1068687,203.1679382,-7.0229006
6470,4.0485744,10.2926207,-6.9766679,-29.4198475,0.3664122,-78.1832047,0.0766141,7.5512733,1.8219782,29.4656487,203.3740387,-1.2442749
6480,3.0262554,10.3500814,-5.7891502,-47.5343513,-11.6030531,-78.1984711,0.4836263,8.7938576,1.9704180,18.3587780,186.2213745,11.5190840
6490,2.6168492,9.9095497,-4.4938936,-55.7633591,-30.7938938,-77.9542007,1.5394639,8.9590569,1.9297167,0.6641222,164.4351196,21.2442741
6500,2.0973101,9.6797075,-2.9137285,-53.0916023,-48.1832047,-78.4198456,1.8507085,7.5129666,2.9640064,-6.5572519,144.0915985,31.9847336
6510,1.8914096,9.1601686,-1.8147956,-45.6793900,-61.6946564,-79.0610657,2.0254843,7.3405848,3.1555417,-25.4045811,137.6106873,31.0458012
6520,1.2497669,8.9853926,-1.3359578,-37.3435097,-62.1679382,-76.7175598,1.8794388,6.9239960,2.8012016,-44.7786255,111.6488571,28.0534344
6530,0.5530578,9.2798786,-1.3503228,-30.6259537,-48.5572510,-69.4122162,1.6424140,7.8912482,3.1100521,-65.6030502,96.2061081,23.9541988
6540,0.8355721,9.3493099,-1.4006008,-29.0916023,-36.5343513,-62.2900772,0.6416427,8.3652983,3.4955165,-82.1984711,57.2061081,18.5801525
6550,1.3383518,9.3373384,-1.5945302,-30.2366409,-26.8854961,-58.7480927,-0.7134684,8.4658537,4.6064205,-93.4274826,22.7404575,18.1450386
6560,0.9552816,9.1098909,-1.8794388,-32.0381660,-23.8091602,-55.0687027,-2.4875629,8.6526003,5.6215568,-93.6946564,-4.2977099,22.6259537
6570,0.8786675,8.8968077,-1.9440818,-35.3587799,-29.5038166,-47.7786255,-3.1555417,10.4434547,7.0197635,-85.0000000,-12.1755724,34.2137413
6580,1.0654143,8.9327211,-1.3455344,-33.8091621,-36.3664131,-41.0763359,-2.7317703,11.8392668,7.7356262,-65.8396912,-4.6106873,47.8473282
6590,1.3096216,8.7627335,-0.5267217,-23.8549614,-41.4351158,-39.3358765,-2.4468615,13.4481621,7.8697009,-41.9236641,-7.9618320,58.9236641
6600,0.7421987,8.2288294,-0.2681492,3.4427481,-41.7328262,-41.4809151,2.0159075,16.8526993,7.2591825,6.7480917,-32.6564903,60.4580154
6610,0.2609667,8.2192526,-0.6991033,11.5954199,-38.0610695,-38.2595406,4.4029145,16.7186241,6.8952656,26.5725193,-16.0076332,42.0076332
6620,-0.1029501,8.1977043,-1.4245427,14.3435116,-31.8702297,-32.9236641,5.3629842,14.8679161,6.4475522,39.7709923,18.5267181,14.4198475
6630,-0.6392486,7.8337879,-2.1092808,11.2519083,-28.6335869,-27.0763359,4.5944495,12.3827477,6.1674318,46.5954208,55.5877876,-8.5343513
6640,6.6558466,14.1544485,2.0542145,42.6946564,-49.2900772,17.1679382,0.0143651,12.6485033,7.5273318,72.8167953,-66.4274826,-22.6641216
6650,6.5002246,14.3148584,1.4460905,65.5190811,-45.9160309,10.8549614,0.2705434,11.3532467,6.8258343,85.6793900,-52.7633591,-23.7175579
6660,5.4683285,13.9892492,0.0407012,78.8854980,-44.8931313,3.7022901,-0.3088504,11.0252428,6.5433197,99.1145020,-53.6106873,-22.1068707
6670,4.8147149,13.5630836,-0.7086801,82.2977066,-45.9389305,-0.2595420,-0.8283895,10.5009146,6.2248926,111.8854980,-50.5572510,-13.8854961
6680,4.1012464,12.7753954,-1.3431402,82.2137375,-44.6870232,-1.3587786,-1.3790531,9.5839405,4.8985114,123.5725174,-49.7938919,-0.1984733
6690,3.3973548,11.8967276,-1.9321109,80.1603088,-41.6793900,0.7633588,-1.2737088,8.4610653,3.5625539,128.0152740,-47.0916023,14.1297712
6700,3.0932927,11.3939476,-2.1906834,76.9542007,-40.3206100,4.2977099,-0.7996593,7.7523856,2.3199697,123.7862625,-46.0687027,25.0152664
6710,3.0071020,10.9198980,-2.5450234,75.4274826,-37.2900772,9.1755724,-0.0383070,7.1203194,1.1180865,111.7404556,-47.4045792,30.1755733
6720,2.4971397,10.5176744,-3.0262554,74.4580154,-32.6564903,12.5419846,0.4046180,6.4451580,0.0670373,94.4351120,-46.6870232,30.1297703
6730,2.6982515,10.2614956,-4.0342093,70.7175598,-30.9389305,11.5725193,0.3399749,5.6694407,0.1053443,74.1297684,-43.8702278,26.6183205
6740,2.6862805,9.9095497,-4.8865409,63.0610695,-33.8320618,6.2366414,0.1340746,4.8027439,0.4477134,55.2061081,-47.6412201,22.7022896
6750,2.5905130,9.4929609,-5.2863703,52.7938919,-39.1374054,1.3358779,-0.1508339,4.1132174,0.5554519,39.5877876,-51.0228996,15.3587790
6760,2.7581062,9.1529865,-5.0445571,43.6870232,-45.0000000,-1.2137405,-0.6775556,3.7445123,0.6823440,27.0076332,-46.4885483,10.3129768
6770,2.8083842,8.8249826,-4.6997938,38.4885483,-52.3664131,-2.1297710,-0.9361281,3.1220231,1.3359578,20.1908398,-38.8244286,9.2442751
6780,2.6671271,8.2647419,-4.3909435,37.3206100,-61.2977104,-3.5877862,-0.7829000,2.9304879,1.8698620,18.7175579,-28.4045811,9.9541988
6790,2.5641768,7.8170285,-4.2209558,37.6946564,-70.4961853,-4.4656487,-0.6751614,2.8897867,1.8578910,19.6335869,-15.6183205,11.7404585
6800,1.9847831,7.3908629,-4.1874375,39.0687027,-74.2442780,-4.6335878,-0.6560079,2.6096666,1.7621235,20.8396950,-3.5267177,11.7709923
6810,1.2808913,7.1634150,-4.3191175,39.7480927,-76.2213745,-3.4732823,-0.7493813,2.4851687,1.4269369,20.2442741,2.6717558,10.9618320
6820,-0.5291159,6.9072366,-4.9056940,32.1450386,-69.8549652,10.8931293,-1.3455344,3.4500270,-0.3495516,0.7557252,-18.2595425,9.2900763
6830,-1.0582317,7.0820122,-4.9200592,29.9007626,-59.7709923,16.9465656,-0.5267217,4.1132174,-0.7661406,-12.5343513,-30.9236641,8.8778629
6840,-1.4436963,7.6661944,-5.3941088,26.9160309,-46.3816795,23.2824421,0.3543400,4.9440012,-1.1204807,-26.4732819,-36.6641235,7.3740458
6850,-2.0757623,8.1713686,-6.1099715,23.3282452,-32.9389305,29.1068707,0.9792235,5.5832496,-1.4987626,-40.2900772,-35.8015251,3.2671757
6860,-2.8538737,8.4107876,-6.9982157,17.9160309,-20.7786255,37.3969460,1.6136837,6.7396431,-1.5418580,-52.0305328,-31.7022896,-2.5038168
6870,-3.3375001,8.7842808,-7.7308378,9.4274807,-8.6412210,49.1221390,1.7357874,7.6278877,-0.9169745,-60.7862587,-27.9007626,-9.3358774
6880,-3.8330972,8.9997578,-7.6183109,2.6488550,1.9770992,63.2366409,1.8746504,9.0811605,-0.2609667,-66.3358765,-24.9541988,-13.7099237
6890,-4.5776901,9.1553802,-7.3477674,1.3969465,8.3969469,82.3664093,2.0709739,10.3644457,0.5889706,-68.6030502,-20.0076332,-16.1984730
6900,-5.1690550,9.0787668,-6.5528965,6.6488547,10.7633591,106.4274826,2.5450234,11.4921093,1.5155219,-66.5801544,-13.5572519,-16.6183205
6910,-5.4515696,8.8249826,-6.0333576,22.0076332,7.4045801,134.7251892,2.8802099,12.3204985,2.2481439,-58.4961815,-6.3053436,-17.2061062
6920,-5.0900469,8.1450329,-6.0764527,43.2748108,4.5572519,165.0915985,3.3183465,13.3859129,2.6407909,-46.1984749,1.7404580,-20.3740463
6930,-4.4196739,8.1186962,-6.5672617,64.9694672,3.2595420,193.8396912,2.9161227,13.2470503,2.9903426,-34.0839691,6.9770994,-29.7480907
6940,-4.1874375,8.0181408,-7.2663651,82.5572510,6.0152674,219.2137451,2.5929072,13.6061783,3.3207407,-18.1755733,7.4427481,-35.3206100
6950,-3.3207407,8.2671366,-7.9223728,92.5038147,14.9541988,243.3358765,2.3678534,13.9677010,3.6271970,-1.2900764,9.4580154,-45.3969460
6960,-2.3486998,8.5975342,-8.6190825,94.9923630,23.3969460,250.1297760,1.0295014,13.8719339,2.9951310,13.2595415,10.7557249,-50.1221390
6970,-1.1444225,8.6023226,-9.0667953,90.9847336,36.4503822,250.1297760,-0.1628049,13.6780043,2.2768741,21.4503822,8.3282442,-47.5267181
6980,-0.2849085,8.9111729,-9.4929609,82.0229034,49.7786255,250.1297760,-1.0199248,13.2733860,1.5131277,23.9160309,3.8015268,-39.0000000
6990,-0.1197095,8.9662399,-10.3117743,66.8625946,56.0916023,250.1297760,-1.2473727,12.8735571,1.1396341,22.6030540,1.2290076,-29.4274807
7000,-0.4094064,9.3373384,-11.4705620,46.5343513,62.1526718,250.1297760,-1.2761030,12.2295198,0.9193687,18.2061062,1.8320611,-20.7175579
7010,-0.8571198,8.8154058,-12.6676559,16.2824421,64.9465637,250.1297760,-1.2665262,11.2287483,1.0797794,12.5114508,4.4274807,-13.0305347
7020,-0.7110743,7.4818420,-12.1529055,-21.6106873,58.9160309,250.1297760,-1.0725969,10.3931761,1.4077834,9.3664122,8.0992365,-7.0305343
7030,0.1316804,4.7476778,-10.7163916,-50.6564903,36.3206100,247.6412201,-0.7541697,9.6844959,1.7860653,8.7404585,11.6259546,-3.9770992
7040,0.0694315,0.7469871,-9.7108326,-79.7175598,5.6412215,227.0839691,-0.5841822,9.0404596,2.2098370,11.2595415,14.6488552,-3.9083970
7050,1.3096216,-4.0318151,-7.2543941,-111.0534363,-32.5954208,207.0610657,-0.2274480,8.5903521,2.4013720,13.4580154,16.6793900,-6.4580154
7060,16.4001980,-19.6131992,7.0125809,-125.7557220,-113.7022934,145.7633514,0.3902529,8.0756006,2.2002602,15.5572519,6.7251906,-12.4274807
7070,19.6126022,-19.6131992,13.4984398,-84.6793900,-81.6793900,116.1908417,0.5530578,8.0181408,1.9895715,14.4427481,3.9770992,-15.9847326
7080,19.6126022,-19.6131992,15.6101151,-23.0916023,14.7328243,93.1450348,0.5410868,8.2455883,1.9105632,12.2900763,2.6412213,-18.1068707
7090,19.6126022,-19.6131992,9.5408449,2.1374047,133.7633514,124.7480927,0.7134684,8.4083929,1.9201399,9.7557249,1.7786260,-20.7557259
7100,19.6126022,-2.2960277,2.7916248,-85.2137375,217.5648804,224.3206177,0.6272776,8.7196379,1.8315549,5.6870227,-0.3358779,-24.3358784
7110,19.6126022,15.9405136,3.3207407,-190.9007568,250.1297760,250.1297760,0.5841822,9.0667953,2.0278785,2.8244274,-1.4809160,-25.6564884
7120,19.6126022,19.6126022,17.3123837,-209.0763397,212.8320618,185.4045868,0.4644727,9.2655134,2.0159075,0.5343512,0.1908397,-25.2824421
7130,19.6126022,13.8743277,19.6126022,104.7404556,3.3053436,-250.1374054,0.7398046,9.7826586,2.3917952,2.4961832,5.8931298,-23.9236641
7140,19.6126022,-6.4020624,12.0810804,240.6946564,2.9541984,-250.1374054,0.7876883,9.9933472,2.7652888,8.6106873,7.6183205,-26.1221371
7150,19.6126022,-19.6131992,-2.0925217,250.1297760,12.3435116,-250.1374054,0.8810617,10.4410601,3.0358322,18.6488552,9.5496187,-28.6183205
7160,4.5322008,-19.6131992,-14.9588957,-26.4274807,182.3740387,-250.1374054,0.8547257,11.3508520,2.3558824,35.7175560,20.5725193,-27.4122143
7170,2.6168492,-14.3244352,-8.3485384,-128.2290039,219.1755676,-250.1374054,0.9313397,11.0228481,1.8195840,40.9694672,28.4580154,-24.8091602
7180,5.7819676,-10.6230183,-0.3088504,-139.3664093,178.8473358,-250.1374054,0.8044477,11.1832590,1.1444225,42.0152664,37.1221390,-21.0687027
7190,7.5871863,-7.5584559,4.1898317,-89.1832047,123.3511429,-250.1374054,0.5650287,10.9079275,0.7972651,40.4198456,46.3740463,-16.4045811
7200,8.1570034,-5.0254035,4.9894910,-19.2671757,88.8778610,-250.1374054,0.5458752,10.7834291,0.3974355,36.4885483,53.5954208,-11.9770994
7210,7.1251078,-3.0190730,3.2704628,45.2519073,76.9923630,-250.1374054,0.5913648,10.1369982,0.6033357,35.0152664,58.9694672,-7.2213740
7220,4.4651632,-1.1156923,-0.3160330,87.4274826,79.0763321,-250.1374054,0.9744351,9.8568783,0.4955972,34.0839691,60.1450386,-6.3206105
7230,0.6823440,1.9321109,-5.0062504,99.0687027,94.8167953,-234.8091583,1.1492109,9.3780403,0.4644727,33.0916023,58.8396950,-8.3435116
7240,-0.4525018,4.9224534,-7.8912482,83.2824402,101.4961853,-185.1221313,1.2832855,9.0524302,0.0287303,28.7328243,55.4045792,-11.9541988
7250,0.8595140,6.9575148,-9.3469152,56.5190849,99.0534363,-147.6183167,1.2210367,8.5544386,0.0359128,22.6946564,49.6641235,-16.4427490
7260,1.7381816,9.4139528,-10.4003592,35.9312973,93.9694672,-129.2213745,0.8882443,8.2288294,0.2130829,17.6412220,41.2671738,-21.9541988
7270,1.3024391,13.2518387,-10.8073711,18.1984730,82.4732819,-121.6030502,0.7733232,8.4251528,0.2849085,15.1145039,33.2137413,-27.2748089
7280,0.2513899,15.7872849,-10.1489687,3.0534351,59.6259537,-120.5801544,0.6105183,8.7962523,-0.0694315,12.0839691,28.8549614,-32.3282433
7290,-0.5195391,16.6348286,-9.2894554,-2.8854961,42.0152664,-122.8015289,0.1316804,8.3533268,-0.0239419,12.2442751,27.2824421,-31.2748089
7300,-1.6448082,16.8718529,-8.6717539,0.8778626,34.2213745,-121.0534363,0.7493813,8.9279327,0.0191535,12.2442751,30.6183205,-30.8931293
7310,-2.7605004,17.6739063,-8.2024927,8.8854961,33.4732819,-107.1297684,0.6560079,8.9087791,0.0311245,11.2595415,36.3206100,-30.2290077
7320,-2.3056045,18.3514614,-7.4076223,19.7022896,26.5267181,-88.5343475,0.3543400,9.0284882,-0.1484398,8.3511448,38.9465637,-26.5572510
7330,-0.8930327,18.3323078,-6.6462698,37.7633591,19.4045811,-78.6183243,0.1628049,9.1865053,-0.1053443,2.5572519,34.2213745,-22.7251911
7340,0.0861908,17.6044750,-6.7204900,58.7709923,8.6870232,-81.6564865,0.4692611,9.3684635,-0.0646431,-4.4198475,24.6564884,-22.2442741
7350,0.3639168,16.2134514,-6.9168134,74.5038147,-5.7938933,-89.3358765,0.8666966,9.5983057,-0.1580165,-12.8015270,14.7633591,-25.7099228
7360,0.3806761,14.6644106,-6.8282285,82.2442780,-16.4885502,-92.8015289,0.9026094,9.8042059,-0.2729376,-21.4961834,5.1755724,-29.9083977
7370,0.4644727,13.0459385,-6.1099715,85.8702316,-26.9541988,-92.0457993,0.3950413,9.7395630,-0.2011119,-30.3129768,-3.0381680,-33.6488533
7380,0.9433106,11.6070309,-5.1762376,88.6412201,-36.9541969,-94.3435135,-0.2082945,9.9263096,-0.0143651,-37.9007645,-9.1068707,-37.0228996
7390,1.0582317,10.0627785,-4.4005203,90.6030502,-47.0839691,-98.5343475,-1.3144100,9.7539282,0.3423691,-41.5267181,-11.0610685,-37.4809151
7400,0.6536137,8.5137377,-3.6655040,91.2137375,-55.6335869,-101.4045792,-2.4085546,9.3133974,0.6344602,-39.3129768,-8.1297712,-36.3053436
7410,0.0742199,7.2065101,-3.2800395,90.5114517,-62.7022896,-97.8396912,-3.2441268,9.3732519,0.9672526,-31.1908398,-1.2366412,-34.0381660
7420,-0.4189832,6.0213866,-3.0310438,86.1374054,-66.5954208,-88.6030502,-4.1682839,9.7922344,0.9816177,-21.4580154,7.3129773,-30.9007626
7430,-0.3687052,5.0900469,-2.4708035,78.6183243,-67.6641235,-78.8167953,-5.1139889,9.9598284,0.8834559,-12.9618320,12.3129768,-25.9923668
7440,-0.2466015,4.1587071,-1.7669119,71.9847336,-66.0457993,-71.7557220,-5.8968887,10.4219065,0.7589580,-9.8549614,11.0229006,-18.9465656
7450,-0.2442073,3.4165084,-1.0366840,67.0992355,-61.7709923,-66.4580154,-6.0142040,10.8480721,0.2322364,-12.9312973,3.7633588,-10.1526718
7460,-0.5075682,2.6264257,-0.6296718,64.1145020,-57.6793900,-61.7862587,-5.4970589,10.6637201,0.0694315,-20.1908398,-8.3511448,0.0305344
7470,-0.8475431,2.0518203,-0.3687052,60.9618340,-53.9312973,-56.3664131,-4.1084290,10.4650021,0.1029501,-29.2671757,-18.7709923,8.5648851
7480,-0.9026094,1.4317253,-0.2561783,56.5496178,-51.0305328,-49.5954208,-2.6072724,10.1776991,0.3303981,-35.9312973,-21.2748089,11.9236641
7490,-0.9385223,0.9935886,-0.0263361,49.8320618,-46.8625946,-41.6641235,-1.2737088,9.9071560,1.0462608,-36.2366409,-18.8931293,11.8091602
7500,-1.0725969,0.7302278,-0.1029501,41.4503822,-40.4732819,-33.3206100,-0.3902529,9.8137827,1.6639616,-31.5190830,-13.3129768,8.2366409
7510,-1.3670821,0.5769997,-0.3375807,30.8625946,-31.8091602,-25.7175579,0.3519458,10.1106625,2.0206959,-23.6564884,-5.7786260,5.7786260
7520,-1.5777708,0.4189832,-0.4740495,16.9618320,-25.6717548,-19.9465656,0.6751614,10.4123297,2.1380112,-16.0839691,2.9923663,4.3587785
7530,-2.0111191,0.3950413,-0.6512195,1.6030535,-17.9236641,-13.7862597,0.2801202,10.4721851,2.4995339,-11.3664122,9.6030531,3.0534351
7540,-2.4923513,0.5841822,-1.0749911,-13.0763359,-7.4961834,-5.8854961,0.0047884,10.7427282,2.4109488,-9.1221371,9.3358774,1.7786260
7550,-3.3542595,0.4884146,-1.7693061,-26.6183205,-2.3664122,5.5267177,-0.1508339,10.8576488,2.5330524,-9.1374044,5.2977099,2.6259542
7560,-3.8737986,0.6177009,-2.3367288,-41.3358765,2.7862597,22.2519093,-0.3136388,10.9127159,2.6048782,-11.5801525,0.2213740,1.6412214
7570,-4.4579806,0.7661406,-2.8730273,-54.7328262,10.1832066,42.6412201,-0.3519458,10.8456783,2.9209111,-14.7633591,-6.2595420,0.1297710
7580,-5.1163831,1.1803354,-3.3398943,-68.6335907,18.3969460,71.9770966,-0.4884146,10.7882175,3.2991931,-16.0839691,-11.5496187,-0.6030535
7590,-4.8961172,2.2505381,-3.7995787,-82.4274826,30.8931293,105.7099228,-0.7900825,10.7403336,3.8881636,-14.6106873,-16.3893127,-1.6641221
7600,-3.2297616,4.8171091,-3.7133877,-91.4580154,43.8854980,131.2748108,-0.9552816,10.7259684,4.0342093,-10.2748089,-21.5114498,-1.5190840
7610,-1.3694763,7.2400289,-4.0892754,-94.2519073,54.3816795,134.5801544,-1.1611819,10.5775290,3.8785870,-4.5648856,-24.7022896,-0.4732825
7620,-0.8571198,8.6023226,-5.0349803,-94.1679382,58.5114517,121.6259537,-1.1563935,10.4985209,3.6678982,1.1068702,-25.3358784,1.5648855
7630,-1.6663558,9.4331064,-6.0788469,-99.3587799,56.6717567,108.6183243,-0.8643024,10.4362717,3.3518653,5.2900763,-23.5190830,3.5877862
7640,-2.7437410,10.3955708,-6.1099715,-108.4122162,48.4274826,111.2748108,-0.7445929,10.3859940,3.1052637,7.2519083,-20.5725193,5.5496182
7650,-2.8275378,11.3245163,-4.4627690,-106.8549652,39.0152664,131.1832123,-0.7326220,10.1729107,3.0430148,8.2977095,-16.0839691,9.3282442
7660,-1.9057748,11.7818060,-3.4811516,-91.5343475,27.4580154,152.2366486,-0.8259954,9.8712435,3.2130022,8.8396950,-13.0839691,12.4961834
7670,-1.4173602,11.8656025,-2.7820482,-68.0152664,15.5496187,170.5954132,-0.8882443,9.8592720,3.1459649,11.3358774,-11.1526718,15.3893127
7680,0.0454896,12.3468351,-2.0853391,-40.3129768,10.3053436,187.2366486,-1.0869620,9.2056589,3.1292057,14.7480917,-12.2366409,15.9694653
7690,2.4492557,14.2645807,-2.2529323,-10.3511448,10.2366409,196.0992432,-0.8355721,9.0524302,2.9592183,16.9770985,-16.4351139,14.7022905
7700,5.1834202,16.3164005,-3.1268115,18.1374054,4.5419846,188.5496216,-0.8140244,9.0596132,2.4779861,17.5648861,-20.0381680,12.8931293
7710,7.4363523,17.3794212,-4.8985114,40.8702278,-6.6335878,161.9084015,-0.7326220,8.9470863,2.1380112,16.5114498,-20.8702297,11.5877867
7720,7.8337879,17.5134964,-6.9048424,50.6793900,-18.5954189,126.3435135,-0.7158626,8.7818871,1.7788827,14.2977095,-21.0305347,12.0839691
7730,6.8090749,16.7353840,-8.5855637,43.2977104,-25.9770985,95.5343475,-0.6703730,8.6047173,1.5658000,11.9236641,-20.4885502,10.8473282
7740,4.6710634,15.3706961,-9.1912937,30.1145039,-29.7480907,84.1374054,-0.5913648,8.7411861,1.4341195,9.0152674,-19.1679382,11.2824430
7750,3.0334380,14.2095146,-9.0236998,21.2595425,-39.9007645,87.0839691,-0.5003856,8.7268209,1.2713146,6.4961834,-16.2519093,10.9389315
7760,1.7190280,13.1441002,-8.2144642,23.1908398,-53.2213745,97.7175598,-0.4501076,8.6621771,0.9552816,3.8931298,-12.6488552,10.8854961
7770,0.6224893,12.1193867,-7.6853480,34.8015251,-65.4656525,113.4732819,-0.4213773,8.6502066,0.9744351,1.2900764,-9.1755724,9.7099237
7780,-0.0909792,11.4490137,-7.5656385,50.1908379,-76.4809189,130.4503784,-0.4357425,8.5281029,0.9696468,-1.1526718,-7.8167939,8.6793890
7790,-0.1747758,11.0348196,-7.4291697,66.1755753,-80.6488571,146.5648804,-0.3040621,8.7244263,1.0558375,-3.3053436,-7.6870227,6.1450381
7800,0.0335187,10.7954006,-7.9175844,76.7709961,-77.2671738,158.9923706,-0.1149211,9.1194677,0.9552816,-6.0458016,-8.4503813,2.0992367
7810,0.3256098,10.6709023,-8.6262646,78.5648880,-68.4885483,166.3206177,-0.2657550,9.1649570,0.8738791,-9.1221371,-8.9847326,0.3206107
7820,0.4165890,10.4554253,-9.4642305,72.1679382,-52.7938919,170.8778687,-0.3687052,9.2367830,0.8355721,-12.6030531,-8.9847326,-1.5801526
7830,0.1939293,10.4793673,-10.8025827,57.4045792,-44.2442741,174.4198456,-0.3782819,9.3493099,0.9911944,-14.6335878,-7.7404580,-2.9541984
7840,-0.2537841,9.7036495,-10.8720140,39.5038185,-44.4656487,178.6488495,-0.5267217,9.6198530,1.1180865,-14.4809160,-4.9007635,-4.3358779
7850,-1.1803354,8.7794924,-10.2112179,25.7022896,-42.5877876,189.9541931,-0.7517755,9.6174593,1.3766589,-11.8625956,-1.9160305,-4.4198475
7860,-1.4724265,7.7595682,-9.5384512,16.2595425,-42.8549614,211.3969421,-0.7517755,9.8496952,1.3503228,-8.8473282,0.3053435,-4.3129773
7870,-0.9840119,6.9551206,-8.7148495,12.9541988,-35.8854980,235.9923706,-0.7014975,10.0747490,1.2928623,-5.5267177,1.7557251,-4.0076337
7880,0.2609667,6.0453281,-8.0205345,10.1603050,-23.4961834,250.1297760,-0.6584021,10.2064295,1.1587877,-3.3282442,3.4732823,-2.9465649
7890,1.7214222,5.4180508,-7.4507174,9.1832066,-9.5877867,250.1297760,-0.6009415,10.4266949,1.0247130,-3.4885497,5.8320613,-1.1908396
7900,3.8498566,4.3310885,-6.7109132,15.6183205,26.3587780,250.1297760,-0.2561783,10.5248566,1.1109039,-7.5496182,6.9389315,1.5648855
7910,7.4219875,3.1723011,-10.6086531,-22.5496178,32.7251892,250.1297760,-0.1340746,10.5104914,1.6495966,-9.3587790,7.7328243,2.6488550
7920,7.7523856,1.0510491,-11.3149395,-72.9083939,21.6030540,236.9007568,0.0502780,10.4985209,1.8195840,-8.5419846,6.0381680,3.5648854
7930,7.8936424,-2.5785420,-10.3620520,-133.5267181,2.8854961,191.2824402,0.5099624,10.2950144,2.1236460,-7.0076337,4.8854961,2.6641221
7940,8.3964224,-7.2400289,-8.7244263,-195.9160309,-21.6641216,152.0839691,0.8259954,10.3381100,2.1523764,-4.7633586,4.4045801,0.0687023
7950,9.4067707,-14.1616306,-5.0637107,-250.1374054,-56.8625946,120.3358765,0.8475431,10.2638903,2.1164634,-1.6488550,4.5954199,-2.5572519
7960,10.6062593,-19.6131992,0.4716553,-250.1374054,-80.6946564,106.0229034,0.8212070,10.4362717,2.2385671,2.5648854,4.4198475,-5.9770994
7970,13.8767223,-19.6131992,8.5328913,-250.1374054,-77.4580154,110.9694672,0.6560079,10.5511932,2.0613971,6.1908398,4.1755724,-8.1145039
7980,16.9197369,-19.6131992,12.6676559,-250.1374054,-45.1755714,127.6946564,0.2442073,10.6278067,1.7238164,7.2290077,4.2366414,-8.6183205
7990,18.5908813,-19.6131992,12.8376436,-215.4351196,68.4732819,154.3282471,-0.3447633,10.3428984,1.2880739,5.1221375,3.7404580,-5.2824426
8000,19.1966114,-12.6772327,14.2238798,-179.9465637,180.9618378,176.5419922,-0.4955972,10.1274214,1.1420283,0.7633588,1.8396946,-1.0305344
8010,19.6126022,-1.7788827,15.9836092,-148.3816833,216.8931274,173.7251892,-0.4022238,9.9574337,1.2545552,-5.0687022,-0.5725191,3.6793892
8020,19.6126022,7.5656385,18.4089222,-97.7709961,178.4427490,130.5725250,-0.0933734,9.7347746,1.2401901,-11.0076332,-3.0763359,7.2824426
8030,19.6126022,9.9741936,19.5964413,-12.9847326,113.6488571,37.5572510,0.4213773,9.6318245,1.4915800,-15.3129768,-4.7022901,8.2519083
8040,19.6126022,7.0245519,16.7449608,82.1145020,80.3816757,-91.1908417,0.6607963,9.4139528,1.5777708,-18.6946564,-6.2748094,6.1832061
8050,19.6126022,1.4676381,9.5647869,139.8015289,90.1068726,-212.3664093,0.6320660,9.4283180,1.7381816,-23.2671757,-7.8473282,2.7328243
8060,19.6126022,-3.9480183,3.8474624,144.7099304,111.9236679,-250.1374054,0.2968795,9.4833841,2.0829449,-27.7404575,-8.9847326,1.1755725
8070,18.2221756,-9.0548248,0.5506636,113.7251892,140.5648804,-250.1374054,0.0957676,9.5695753,2.6934631,-31.0839691,-10.0687027,1.5114504
8080,13.9102411,-13.5630836,-0.0790083,78.9236679,177.8320618,-250.1374054,-0.0478838,9.5935173,3.2656744,-31.8396950,-12.4198475,3.4503818
8090,10.0675669,-14.4776640,1.0702027,61.9160309,209.9618378,-250.1374054,0.1508339,9.9789820,3.7540891,-30.5190830,-16.8473282,5.5725193
8100,9.6318245,-11.3364868,2.6719155,67.4198456,224.5801544,-250.1374054,0.3734936,10.2830439,3.9695661,-29.0992374,-22.2061062,8.3435116
8110,10.1417866,-10.1753054,3.6846576,84.3358765,225.6106873,-250.1374054,0.6344602,10.3117743,4.0533628,-28.4809170,-26.6870232,8.2977095
8120,11.1712875,-7.7045016,2.2289903,98.1908417,250.1297760,-250.1374054,0.7398046,10.3788109,4.0509686,-28.2442741,-30.6946564,7.7099237
8130,10.4937325,-4.9583664,1.1611819,110.2671738,250.1297760,-250.1374054,0.7996593,10.3500814,3.9935081,-28.2290077,-34.8091621,5.2213740
8140,8.0181408,-1.7166338,-1.3287752,118.8244247,250.1297760,-250.1374054,0.4908088,10.1729107,4.0749106,-26.0763359,-37.3282433,3.7709923
8150,4.5872669,0.3232156,-4.4053087,114.2748108,250.1297760,-250.1374054,0.1771700,10.0867205,4.1108232,-21.6030540,-37.7404594,1.4732825
8160,1.4891858,1.9728121,-7.1179252,95.5496216,250.1297760,-250.1374054,-0.0718257,10.1106625,4.0701222,-15.3969469,-36.0916023,-0.1450382
8170,-1.4939742,5.7915444,-8.9782104,70.8931274,250.1297760,-188.5954132,-0.4309541,10.0053177,3.7493007,-8.2519083,-34.1297722,-0.6946565
8180,-3.1315999,10.9821472,-9.3517036,46.7786255,250.1297760,-105.6946564,-0.7230452,9.6629486,3.2153964,-1.4503816,-31.2824421,-0.9770992
8190,-1.7166338,15.1073351,-8.4203644,34.5038185,233.4732819,-30.4503822,-0.9624642,9.2750902,2.6455793,3.7786260,-27.7786255,-2.0305343
8200,1.6041069,18.2269650,-7.0006099,35.9312973,147.1297760,20.1450386,-1.3551112,8.7387915,1.9656296,8.2900763,-22.5877857,-3.9847329
8210,5.8370337,19.6126022,-5.7843618,46.9465637,76.5190811,39.9389305,-1.7812769,8.2168579,1.5514348,12.9389315,-16.4961834,-7.0534353
8220,9.3517036,19.6126022,-5.2648225,65.9847336,24.6183205,31.5038166,-2.0853391,7.9846220,1.2210367,17.9847336,-11.6183205,-9.3816795
8230,11.0683374,19.6126022,-5.1475072,84.1603088,-14.9923668,-0.4732825,-2.1044924,8.2575598,0.8786675,22.6488552,-10.5954199,-11.9083967
8240,11.5064745,18.8805771,-4.5896611,92.8549652,-58.4198456,-44.0228996,-2.2146254,8.5448618,0.4165890,24.2748089,-12.2290077,-12.4885492
8250,10.2543135,16.8694592,-3.6846576,91.6183243,-81.5801544,-77.6793900,-2.1906834,8.7627335,-0.0766141,20.6335869,-15.5419846,-10.7328243
8260,8.2647419,15.1217003,-2.3032103,87.4885483,-95.4427490,-93.5419846,-1.9823889,8.8130112,-0.5841822,10.5954199,-21.3816795,-7.0839696
8270,6.7180958,13.1441002,-1.2952565,83.3282471,-100.4732819,-96.5648880,-1.4413021,8.6813307,-0.6775556,-1.6870229,-26.8320618,-2.7862597
8280,5.3677726,11.3532467,-0.4812321,78.9083939,-103.1145020,-91.2442780,-0.6512195,8.5065556,-0.5578461,-13.0305347,-28.6717548,-0.8931298
8290,4.5609307,9.8353300,0.2178712,72.8167953,-106.7251892,-85.0152664,0.1987177,8.4443064,0.0598547,-20.0839691,-24.8931293,-2.9847329
8300,4.4507980,8.4299412,0.7086801,68.4427490,-109.3511429,-82.4045792,0.6895266,8.3892403,1.0797794,-19.6641216,-16.3816795,-5.8396945
8310,4.2688398,7.1610208,1.2976507,66.8931274,-104.8473282,-82.0229034,0.6607963,8.5520449,1.9009864,-13.1068707,-4.7938933,-10.6793890
8320,3.8283088,6.1530671,1.6711442,66.9083939,-99.0992355,-80.6183243,0.2753318,8.7603388,2.3989778,-1.9236641,7.1603055,-15.3816795
8330,3.3063757,5.1810260,1.5370697,68.5877838,-91.9312973,-76.4732819,-0.1963235,9.0548248,2.2960277,9.7251911,15.9312973,-18.1679382
8340,2.8012016,4.4148855,1.1563935,69.2671738,-84.8702316,-68.1755753,-0.6703730,9.0236998,1.9536586,18.1221371,20.0458012,-19.3511448
8350,2.4995339,3.8833754,1.1037214,68.8091583,-76.5954208,-57.4503822,-0.4884146,9.5887289,1.0199248,19.0000000,19.7175579,-18.4885502
8360,2.2457497,3.5721307,1.2976507,67.2137375,-71.4045792,-46.5801544,0.1460456,10.2040358,0.5578461,12.0992365,15.6564884,-18.2977104
8370,2.2194135,3.7062054,0.9672526,64.9160309,-67.5877838,-36.3511467,0.9480990,10.5631638,0.3758878,-1.0076336,9.9083967,-20.1526718
8380,2.3127871,3.6248028,0.5530578,61.2748108,-64.1297684,-27.9007626,1.2425843,10.9821472,0.7709290,-15.9236641,5.3511453,-23.8015270
8390,2.2289903,3.3614421,0.1221037,58.6030540,-53.1221390,-23.5343513,1.0007712,11.1162214,1.5107336,-27.7404575,2.0000000,-27.8320618
8400,1.4053892,3.7947903,-0.7110743,54.4580154,-51.9541969,-21.0534344,0.4548960,11.1281929,2.6958573,-33.4427490,-0.5114504,-29.8167934
8410,0.7733232,4.0988522,-1.7884595,48.0763359,-58.1221390,-19.3587780,-0.0742199,11.1952295,3.7349355,-33.1603050,-0.3282443,-29.0534344
8420,0.3256098,4.2544746,-2.4253139,40.3511467,-66.5572510,-16.5572510,-0.5099624,11.2479019,4.4436154,-26.8549614,1.0000000,-25.4732819
8430,0.2178712,4.4867110,-3.0885043,28.4122143,-66.8549652,-13.4045801,-0.8810617,11.1545286,4.8027439,-17.5114498,5.1526718,-20.6946564
8440,0.3734936,4.6686692,-3.7516949,11.5725193,-59.8244286,-10.4961834,-1.2569494,11.1234045,4.8937230,-7.8396945,9.0305347,-14.6335878
8450,0.5099624,4.7764082,-4.6064205,-8.2290077,-47.8778610,-6.8396945,-1.5250987,10.9629936,4.7740140,0.5572519,10.5648851,-7.6030536
8460,0.5722113,5.4994531,-5.6694407,-28.5954189,-36.2977104,-1.7480916,-1.5705882,10.6804790,4.6710634,6.8167939,9.2366409,-0.7022901
8470,0.3519458,6.2631998,-6.4906478,-49.3893127,-24.9236641,5.4274807,-1.4460905,10.3357162,4.3765783,10.9389315,6.5572519,4.9694657
8480,-0.0071826,7.3142486,-7.1322904,-69.4503784,-15.6335878,14.8167934,-1.1707586,10.0723553,4.0413918,13.3282442,2.6946564,8.9007635
8490,-0.4070122,8.5281029,-6.9646969,-84.9160309,-11.5267172,23.6641216,-0.7876883,9.7323799,3.7277529,13.2290077,-2.3969467,9.5954199
8500,-0.4213773,9.6294298,-6.3565731,-96.5114517,-14.7709923,29.9007626,-0.6871324,9.4594421,3.5194585,12.3740454,-6.1297708,7.8015265
8510,-0.8116302,10.7882175,-5.7245069,-99.5114517,-23.7175579,37.1221390,-0.7493813,9.2966375,3.1483591,10.3358774,-10.0687027,5.3129773
8520,-1.6017127,12.0834742,-5.3869262,-95.2137375,-24.0839691,46.0152664,-1.0702027,9.2176294,3.1028695,8.4580154,-12.0000000,4.4274807
8530,-2.6000898,13.0411501,-5.1786318,-87.0534363,-31.8473282,55.7633591,-1.1492109,9.0572186,3.0286496,6.7557254,-14.8702288,4.7938933
8540,-4.2089849,13.5439301,-5.0732875,-75.5038147,-38.1145020,71.7938919,-1.2737088,8.9710283,2.8419030,5.5496182,-15.4580154,5.7328243
8550,-5.8633699,14.2047262,-5.7819676,-67.4045792,-53.5801544,99.9312973,-1.0773853,8.8154058,2.6431851,4.7709923,-14.7328243,6.8778625
8560,-5.0613165,14.6021614,-6.5026188,-64.0687027,-71.7328262,135.7557220,-0.9792235,8.7076674,2.6168492,3.9083970,-12.1679392,7.9007635
8570,-2.4851687,15.3826675,-6.4667058,-60.1145020,-84.8854980,164.7251892,-0.8595140,8.5520449,2.4492557,2.9083970,-9.3129768,6.8702292
8580,0.9361281,16.2110577,-7.3381906,-56.5190849,-79.4580154,173.2977142,-0.8906385,8.4658537,2.3846128,1.7022901,-7.1832061,6.2824426
8590,2.9352763,16.4169579,-7.8768835,-57.3129768,-64.8625946,160.2519073,-0.8427547,8.4395180,2.4157372,0.4885496,-5.8244276,4.6183205
8600,3.2034254,16.2852764,-7.8313937,-59.9236641,-55.3129768,141.3435059,-0.9385223,8.3078375,2.4324965,0.0916031,-5.3206105,3.6793892
8610,2.2265961,15.3012648,-7.6925306,-61.5572510,-53.1221390,125.5267181,-0.8499373,8.3222027,2.5354466,0.0076336,-6.1984735,2.5190840
8620,0.6751614,13.9940376,-7.1346846,-58.1755714,-51.0534363,118.8473282,-0.5674229,8.4586716,2.5426292,-0.3282443,-7.2671757,0.8625954
8630,-0.9169745,12.7107515,-6.9479380,-51.3893127,-52.3282433,123.9312973,-0.5003856,8.5017672,2.5115047,-0.5572519,-8.2671757,-3.0534351
8640,-2.5210814,12.0068598,-7.5464849,-48.9465637,-62.0992355,143.5496216,-0.4477134,8.6166878,2.4540441,-1.3664122,-9.2366409,-5.3664122
8650,-2.4420733,11.6573086,-8.0181408,-54.5419846,-65.0076370,168.8778687,-0.5434810,8.7052727,2.4444675,-1.2519084,-9.7251911,-9.1984730
8660,-2.1140692,11.9110928,-8.3868456,-64.0992355,-54.8778610,194.1603088,-0.5171449,9.0811605,2.3558824,-0.3740458,-8.4885492,-12.8778629
8670,-2.0015423,12.8496151,-8.0516596,-75.4656525,-38.7938919,219.3893127,-0.6320660,9.3421268,2.1427996,0.7862595,-5.8320613,-15.5190840
8680,-0.8595140,13.9437590,-7.5440907,-88.8854980,-0.4885496,238.5190887,-0.7876883,9.4977493,2.1499822,1.5496184,-3.5343511,-17.6641216
8690,-0.2130829,14.3292236,-6.2296810,-101.2671738,31.5877857,248.2748108,-0.8571198,9.7635050,1.9153515,2.2061069,-2.8015268,-18.3206100
8700,0.8666966,12.8735571,-4.2688398,-110.1145020,41.5038185,250.1297760,-1.0007712,10.1178446,1.7142396,2.5954199,-2.9007633,-19.3282452
8710,2.1140692,11.1976242,-2.8083842,-112.5343475,16.4274807,250.1297760,-1.2234308,10.1298151,1.6807210,2.3816793,-2.1908398,-18.0381680
8720,3.3638363,9.8568783,-2.1978660,-107.4503784,0.1297710,250.1297760,-1.3431402,10.4602137,1.5035510,1.2671756,0.3129771,-14.9923668
8730,5.5210009,6.3062949,-2.4636209,-105.5954208,3.2900763,236.0000000,-1.5179161,10.8121595,1.5490406,-0.7633588,2.2900763,-10.7938929
8740,6.7971039,2.6503677,-2.7341642,-122.1679382,4.8854961,204.6870270,-1.5610116,10.8648319,1.6208663,-3.0534351,4.2442746,-5.1297708
8750,8.7220325,-1.4317253,-2.1308286,-151.2061005,0.5343512,165.4732819,-1.6472024,10.8648319,1.7621235,-6.0000000,5.5419846,0.7099237
8760,11.9493999,-6.6127515,-0.4884146,-180.9694672,-2.0839694,115.1603088,-1.5634058,10.7977943,1.9201399,-9.1832066,6.5419846,6.4198475
