timestamp,rxacclX,rxacclY,rxacclZ,rxgyroX,rxgyroY,rxgyroZ,txacclX,txacclY,txacclZ,txgyroX,txgyroY,txgyroZ
0,3.2967989,0.1101327,13.4697094,250.1297760,-250.1374054,-250.1374054,0.1436514,-0.4453192,10.5511932,-11.8320608,-1.0229008,-12.1450386
10,2.1930776,1.5658000,10.8624372,250.1297760,-250.1374054,-248.1603088,0.3758878,-0.7733232,10.7283630,-14.1068707,5.6717558,-20.8167934
20,1.8459201,2.5929072,9.6366129,250.1297760,-250.1374054,-231.9313049,-0.1795642,-0.9241571,10.7546988,-13.9618320,12.9923668,-25.5877857
30,1.4939742,3.5290353,7.8098459,250.1297760,-198.0229034,-208.4809113,-0.3184272,-0.6464311,10.5751352,-12.2290077,19.5496178,-28.2824421
40,1.2258250,4.6351509,5.3318601,250.1297760,-145.0534363,-188.9618378,-0.5674229,-0.5722113,10.2782555,-11.4351149,25.0076332,-30.2977104
50,-0.3088504,7.4507174,-5.9687142,167.2213745,-134.5496216,-160.2519073,-1.5298871,-0.6248835,10.6613255,-27.6641216,4.9847326,-39.1526718
60,-1.1683644,7.9463148,-7.7763271,131.8931274,-114.3740463,-151.5954132,-1.9345051,-0.7374104,10.4506369,-27.8778629,-10.6106873,-37.1297722
70,-2.5785420,8.2815018,-9.0524302,87.5725174,-83.3816757,-134.4427490,-1.6543850,-0.8068419,10.2806492,-33.6564903,-29.8167934,-35.6564903
80,-3.9767487,8.7004843,-9.7706871,39.0458031,-41.5267181,-108.4351120,-1.5897418,-0.8451489,10.1896706,-40.6259537,-38.2748108,-35.7328262
90,-6.3182659,9.1458035,-10.6397781,-58.6030540,41.1832047,-36.6946564,-1.6112895,-1.1013272,10.4123297,-47.0839691,-28.0152664,-26.5648861
100,-6.3398137,8.8944139,-10.4530315,-106.7251892,65.4503784,4.0763359,-1.4317253,-1.0414724,10.4410601,-43.5038185,-22.1145039,-17.4045811
110,-5.7245069,8.6286592,-9.7587166,-153.2442780,78.9618301,39.0839691,-1.5059452,-1.0055596,10.3476868,-39.8854980,-0.4503817,-14.0000000
120,-4.8913293,8.0085640,-8.4682484,-196.5267181,95.3435135,67.8778610,-1.9704180,-1.0941446,10.6038647,-34.5954208,11.4351149,-9.7175570
130,-4.3406653,7.1227136,-6.8761120,-233.7099304,111.9847336,92.5114517,-2.0350611,-1.0295014,10.7139978,-29.3664131,21.7709923,-3.8549619
140,-4.0174499,6.0453281,-4.5896611,-250.1374054,124.1221390,117.1450348,-2.0829449,-1.0151364,10.9486284,-25.6030540,30.6335869,2.5267177
150,-2.9328821,4.7883787,-2.3151813,-250.1374054,126.6717529,136.4045868,-2.0374553,-1.1563935,11.0420017,-21.3435116,34.1450386,7.0305343
160,-1.5993185,4.2329268,1.0151364,-250.1374054,100.5419846,149.7022858,-2.0590029,-1.2832855,10.8384953,-16.9312973,35.1297722,10.1221371
170,0.0263361,3.7828193,4.3837609,-250.1374054,60.8320618,156.4809113,-2.2792683,-1.3982066,10.7714586,-11.5954199,33.6412201,11.2977095
180,2.7221935,4.1802549,8.0540533,-250.1374054,25.9694653,156.4198456,-2.4516499,-1.3120158,10.4290895,-6.9847326,33.9771004,11.5725193
190,5.4898763,4.5824785,10.9270811,-222.8702240,6.0305343,145.3740387,-2.3941894,-1.1013272,10.2207947,-3.7099237,38.8625946,12.5572519
200,8.2479830,4.9152708,13.6803989,-169.8702240,-7.3816795,122.4732819,-2.5665710,-0.9457048,10.3788109,-1.4885496,43.1145020,14.6412210
210,10.6565371,5.4779053,15.6723642,-106.6946564,-34.7099228,87.6717529,-2.6838863,-0.9337339,10.3979645,0.2977099,43.8091621,17.5114498
220,12.6293497,5.8322453,17.4488525,-34.9236641,-73.2137375,39.7633591,-2.6144550,-0.9073978,10.2327662,0.6335878,43.8931313,19.3282452
230,12.5455532,5.5952206,17.4273052,37.5725174,-95.1908417,-11.0076332,-2.6910689,-1.0558375,10.2519188,-0.0305344,41.3053436,22.5801525
240,10.3788109,5.3893204,16.3307667,100.2442780,-110.0381699,-49.2290077,-2.5713594,-1.2545552,10.3740225,-1.0458015,36.2900772,28.0076332
250,8.4036045,5.0661049,15.0259333,150.4045868,-117.5343475,-70.6030502,-2.1260402,-1.6615674,10.6397781,-2.0610688,34.6793900,33.7709923
260,6.6175399,4.8147149,13.9844608,192.0305328,-106.9160309,-77.5801544,-2.0422437,-1.9704180,11.6261835,1.0992366,42.2824440,35.8931313
270,5.1522956,5.2193332,12.8352499,224.0992432,-99.2137375,-76.5190811,-2.1188576,-2.2792683,12.6724443,13.4809160,49.3969460,33.8549614
280,4.4771342,5.3174949,11.5232334,250.1297760,-84.0381699,-72.2213745,-2.5091105,-2.7724714,14.1065645,29.3893127,64.4885483,33.6717567
290,3.7397239,5.3174949,9.4833841,250.1297760,-72.3358765,-68.3129807,-3.1555417,-3.1292057,16.6515884,51.1908379,109.5954208,37.2519073
300,3.4739690,5.5257893,6.6750002,250.1297760,-82.5496216,-65.5038147,-4.2137733,-3.3015873,18.8733959,82.0916061,150.4274750,42.9236641
310,3.8522508,5.6478930,3.5984666,250.1297760,-102.3893127,-70.1068726,-5.7005649,-3.6631098,19.6126022,127.2977066,154.2748108,60.5877876
320,3.9192882,6.0142040,0.2585725,250.1297760,-115.4198456,-80.4809189,-5.5688848,-3.8809812,18.6890430,178.5954132,131.5038147,83.5648880
330,3.9025288,6.7564025,-2.6575503,250.1297760,-126.5648880,-89.2824402,-4.2832050,-3.8905578,16.3738613,219.7404633,115.0610657,95.3129807
340,3.8378856,7.2591825,-5.4707227,250.1297760,-118.3816757,-98.3129807,-2.6599445,-3.4093258,14.0084028,243.5419922,110.0229034,96.9694672
350,4.7428894,8.0444765,-6.8832946,243.2213745,-107.6412201,-110.7175598,-1.3287752,-2.9209111,12.5072460,250.1297760,100.8244247,89.4427490
360,5.4395986,8.0756006,-8.2719250,204.4885559,-57.2213745,-125.0916061,-0.7278336,-2.2265961,11.9661589,250.1297760,95.4122162,73.5190811
370,5.1187773,7.9151902,-9.3157911,162.4580078,26.9160309,-139.6030579,-0.5841822,-1.1061156,11.3580351,250.1297760,89.7328262,53.9771004
380,3.4093258,8.2407999,-9.7419567,123.9770966,103.1984711,-144.8931274,-1.1994889,-0.5099624,10.3428984,250.1297760,74.5267181,35.9389305
390,1.9297167,7.8984308,-10.2902260,88.9542007,162.1526642,-138.6412201,-1.9776005,-0.0670373,8.6980906,250.1297760,54.1832047,19.8015270
400,1.1085097,7.9846220,-10.8720140,59.2290077,207.4656525,-124.0763321,-2.5593886,0.5746055,7.0820122,250.1297760,25.1450386,6.7404580
410,-0.2418131,8.6023226,-12.3085279,30.5038166,226.1450348,-108.1603088,-3.0932927,1.4580613,5.3893204,228.2213745,-14.3435116,-5.8320613
420,-1.5753766,9.0763721,-13.5942078,-2.1526718,184.4503784,-95.9923630,-3.8402798,2.3965836,3.9049230,187.9618378,-95.7862625,-21.2824421
430,-2.9161227,9.3971939,-13.6947641,-39.4732819,118.4656525,-81.9236679,-4.2640514,3.0573800,4.2089849,148.3358765,-154.4122162,-39.1526718
440,-3.6559272,9.6366129,-12.6389265,-78.5343475,80.3587799,-59.8931313,-5.7221127,3.6942344,5.7412663,121.2900772,-179.0381622,-51.0534363
450,-3.9504125,9.2535419,-11.8081427,-119.9236679,86.4961853,-32.4809151,-6.5313487,4.3598189,6.3039007,101.3740463,-192.9160309,-47.3282433
460,-3.8714044,8.8896255,-10.8193426,-163.8396912,114.2137375,-4.9618320,-7.0101867,4.6207857,7.0652533,88.5572510,-185.4045868,-26.2824421
470,-3.3422885,8.3964224,-9.3756456,-204.3816833,141.2671814,17.1832066,-6.5576849,4.4316444,7.3764977,90.0229034,-166.6870270,2.9236641
480,-3.0430148,7.8433647,-7.6805596,-234.8320618,157.2977142,32.0687027,-5.0325861,4.2879934,6.7540083,94.9847336,-141.4580078,24.1450386
490,-2.9520357,7.2376347,-6.1578555,-250.1374054,163.5725250,46.5572510,-3.3255291,4.3813667,5.6047974,94.4503784,-110.9542007,33.9160309
500,-3.0358322,6.5720501,-4.8458395,-250.1374054,162.9313049,59.9694672,-2.0829449,4.4268565,4.4100971,83.7175598,-85.7022934,33.5877876
510,-2.8682389,5.7676024,-3.3183465,-250.1374054,157.0305328,75.4809189,-1.2210367,4.7237358,3.0142846,65.1297684,-76.1297684,28.3969460
520,-2.0470319,5.0756817,-1.6376256,-250.1374054,156.2366486,91.4732819,-0.7733232,4.8865409,2.0805507,39.2977104,-82.3053436,18.8702297
530,-1.1970947,4.5154414,0.2035061,-250.1374054,161.0763397,101.7862625,-0.4189832,4.8338685,2.0422437,8.4885492,-82.4274826,8.0534353
540,-0.7254394,4.1180058,2.2361729,-250.1374054,158.6870270,107.3206100,-0.2178712,4.9032998,2.5019281,-21.9770985,-74.0763321,-0.7175573
550,0.0861908,3.9623835,4.8793583,-250.1374054,139.8244324,110.2519073,0.0023942,4.9152708,3.2010312,-47.4885483,-66.6564865,-8.4045801
560,1.2138541,4.2592630,7.7116842,-250.1374054,109.5954208,107.8854980,-0.0407012,4.1706781,4.2137733,-67.6183243,-88.2519073,-18.3206100
570,2.8107784,4.6902170,11.3771887,-241.4122162,66.2061081,100.5648880,0.5865764,3.3805954,4.4986820,-83.3587799,-115.9694672,-34.5725174
580,4.4699516,5.5138183,14.4417505,-184.0534363,17.0152664,88.0229034,1.2976507,3.2728570,4.3143296,-99.4198456,-116.4198456,-51.4656487
590,6.6079631,6.0740585,17.3363266,-110.2900772,-30.2748089,67.1374054,1.3431402,3.5194585,4.3358769,-116.2748108,-91.8396912,-63.2137413
600,7.9247670,6.3900914,18.4232883,-26.9465656,-63.2290077,40.5114517,0.6560079,3.8091555,4.8817525,-132.5496216,-69.3358765,-67.8015289
610,8.3533268,6.5361371,18.1982346,51.5267181,-83.8931274,14.0763359,0.9480990,3.7397239,6.9575148,-143.6106873,-24.4122143,-67.8854980
620,7.9511032,6.7803445,16.7952385,121.2671738,-95.3358765,-11.5343513,0.4261657,2.5043221,8.5400734,-142.4274750,42.3969460,-68.3816757
630,7.1298962,6.7635851,14.6763811,178.8320618,-104.6335907,-29.8244267,-0.4141948,1.7812769,9.7611103,-133.5954132,88.1603088,-70.0839691
640,6.1243367,6.7587967,12.1481171,224.0534363,-112.6717529,-40.5801544,-1.4963684,1.4915800,10.7139978,-120.2137375,95.8931274,-71.3969498
650,5.8059096,7.0652533,9.7539282,250.1297760,-124.4198456,-46.5190849,-1.7166338,1.5634058,11.2479019,-105.9618301,91.0763321,-74.8396912
660,5.9088597,7.3573442,6.6103573,250.1297760,-132.9389343,-54.2595406,-2.6120608,1.4389079,11.3819771,-95.7099228,71.4351120,-78.2137375
670,5.9854736,7.6207051,3.9911139,250.1297760,-143.8702240,-64.3129807,-4.6040263,1.3263810,11.2574787,-105.4503784,7.4198475,-72.0381699
680,6.5050125,8.0923605,1.4125718,250.1297760,-158.9465637,-78.9770966,-3.2297616,1.1683644,10.4458485,-119.1679382,-45.4122124,-66.6946564
690,6.5121951,8.6286592,-1.0390782,250.1297760,-168.6106873,-99.5114517,-3.6607156,1.2569494,10.6565371,-132.5496216,-89.0152664,-65.3053436
700,5.7676024,8.5520449,-3.0478032,250.1297760,-184.4274750,-123.6030502,-2.6048782,1.9656296,10.5559816,-142.5725250,-110.3511429,-67.1297684
710,4.2616572,8.1546097,-4.7979555,247.3511505,-191.4580078,-143.3664093,-2.7581062,2.1092808,10.3979645,-147.8702240,-109.9083939,-67.7328262
720,2.3510940,8.1857338,-6.7204900,215.8244324,-162.3358765,-147.5877838,-2.0087249,1.4365137,10.3141680,-151.8702240,-87.8320618,-61.9618340
730,0.9768293,8.3988171,-8.2862902,176.0076294,-125.2824402,-141.9084015,-2.0135133,0.3926471,9.7826586,-151.1374054,-46.8396950,-53.4656487
740,0.0598547,8.6621771,-9.4187412,136.1755676,-98.7938919,-138.4961853,-3.0118904,0.3040621,11.3053627,-146.2213745,-20.4198475,-45.8702278
750,-1.2761030,8.5209198,-10.2351599,96.7938919,-75.4885483,-131.0000000,-2.7988074,0.0383070,12.0834742,-138.8167877,-18.8854961,-38.9465637
760,-2.9400647,8.4036045,-11.0156660,55.6106873,-56.2366409,-115.2824402,-2.3846128,-0.1795642,12.2510672,-128.1068726,-1.1526718,-32.4809151
770,-3.7636659,8.6071110,-11.4035244,11.6030531,-37.1297722,-94.2748108,-2.9783716,-0.2035061,14.3028879,-113.8091583,30.6335869,-27.0534344
780,-4.4244623,8.7340031,-11.5711174,-32.6488533,-16.5190830,-72.0687027,-3.5146701,-0.4884146,15.8208036,-89.0763321,59.3511467,-21.8931293
790,-4.8913293,8.4083929,-11.3700056,-76.9465637,13.2748089,-48.0610695,-4.2185616,-0.3519458,16.7928448,-54.0763359,74.5038147,-14.6259546
800,-5.2767935,8.2024927,-10.8983507,-121.5954208,48.0305328,-22.0229015,-4.6734576,-0.8068419,17.0777531,-19.5801525,72.0610657,-6.7557254
810,-5.3701668,7.6997132,-10.4338779,-163.3435059,79.0457993,1.6870229,-4.4723458,-0.7829000,15.9046001,5.8244276,62.4656487,0.2137405
820,-5.7053533,7.2352405,-9.3612804,-200.9236603,98.0076370,23.9694653,-3.6774750,-0.6991033,14.8152447,23.4885502,49.3893127,7.0458016
830,-5.8968887,6.6702118,-7.6183109,-230.0229034,104.4045792,46.9694672,-2.7748656,-0.1316804,13.3092995,36.9923668,40.5114517,8.6793890
840,-5.9998388,5.8466105,-5.9878678,-249.8244324,99.8244247,72.8549652,-2.5258698,0.1963235,11.7961712,47.0305328,39.8931313,9.6793890
850,-5.8825235,5.3749552,-4.3670015,-250.1374054,93.7099228,99.9389343,-2.6886747,0.3112446,10.7714586,50.2977104,35.2748108,12.2519083
860,-5.0661049,4.6854286,-2.4109488,-250.1374054,86.8320618,128.0534363,-2.9376705,0.4285599,10.0771437,47.2824440,26.0534344,15.1145039
870,-3.6391680,4.1611013,-0.3830703,-250.1374054,78.7862625,150.3969421,-3.4715748,0.7278336,9.6102762,40.4961815,13.7328243,18.8473282
880,-1.8339491,3.8785870,1.8698620,-250.1374054,73.5190811,166.1832123,-3.7349355,1.0031654,9.6318245,33.1221390,0.7786260,24.6030540
890,-0.2705434,3.6176202,3.6104376,-250.1374054,71.3587799,174.7328186,-3.2800395,0.7421987,11.2933912,31.2137413,12.4732828,32.2748108
900,1.7597293,3.6774750,5.8705525,-250.1374054,58.1832047,175.0458069,-3.2345500,0.4261657,12.9286232,41.1679382,42.9312973,41.4580154
910,4.4579806,4.3454537,9.3924055,-232.4122162,23.9694653,163.5954132,-3.3470769,0.3064562,13.9389706,59.2748108,69.2595444,53.1984749
920,7.5488791,5.0230093,13.2781744,-189.7862549,-5.8015265,138.1526642,-3.3805954,0.4740495,13.7641954,77.3587799,89.0305328,66.8931274
930,10.0172882,5.6670465,16.3092194,-129.6106873,-32.0763359,103.4580154,-3.6487448,-0.0095768,14.1855726,95.2137375,91.6946564,78.5343475
940,11.7075863,6.3613615,18.7656574,-55.6183205,-63.0763359,57.8320618,-3.8307030,-0.4261657,15.0881815,116.2748108,100.6030502,84.0381699
950,12.3468351,6.6414814,19.6126022,24.6335869,-88.5267181,9.3816795,-3.9575951,-0.5674229,15.8064384,141.1068726,99.3664093,86.4961853
960,11.1114330,6.2201042,19.1415443,103.9618301,-95.8702316,-32.3206100,-3.9168940,-0.9073978,15.8638992,170.9084015,87.1832047,88.4580154
970,8.3317795,5.9782910,16.1248665,170.4961853,-96.7786255,-56.9771004,-3.9887197,-1.3694763,15.2174683,203.3053436,65.4503784,87.7328262
980,6.0716643,6.1123657,12.7418766,216.3206177,-91.6335907,-63.2213745,-4.0701222,-1.6160779,14.0179796,231.8702240,30.8091602,81.0992355
990,5.0900469,6.4954362,9.5145092,244.8167877,-80.6030502,-58.7786255,-3.5122759,-1.2449785,11.9206696,248.6488495,-4.1984735,72.9770966
1000,4.8985114,7.0437055,6.0716643,250.1297760,-64.9847336,-54.9312973,-2.7078283,-0.2777260,9.7635050,246.3664093,-20.3893127,65.9312973
1010,4.9703374,7.6997132,2.9568241,250.1297760,-59.8625946,-56.8320618,-2.4684093,1.0175306,7.0125809,218.7938995,-23.2442741,62.2824440
1020,5.0732875,8.2862902,0.0861908,246.7480927,-56.5572510,-66.3053436,-2.7006457,2.2912393,4.9655490,175.7557220,-19.7404575,60.6564903
1030,4.9655490,8.3676920,-1.8124014,228.7404633,-58.2290077,-79.4045792,-2.9256995,3.4141142,3.3351059,140.4274750,-41.6488533,53.9771004
1040,4.3670015,8.2336178,-3.4093258,214.3893127,-65.3740463,-94.6030502,-2.7772598,3.9288650,2.3654592,108.0610657,-81.8396912,44.7557259
1050,3.3710186,8.1234846,-4.9104824,201.8854980,-72.0610657,-107.0305328,-2.3367288,4.1180058,1.5322813,70.6183243,-119.0916061,34.9465637
1060,1.4197544,8.1402445,-7.0604649,181.5343475,-75.5190811,-108.9618301,-2.9041519,3.0669568,1.5753766,27.4198475,-150.9313049,25.0000000
1070,0.0239419,8.3940287,-8.9806042,152.8702240,-61.0992355,-101.9618301,-2.3391230,4.4100971,1.8746504,-12.9007635,-175.6870270,19.8091602
1080,-1.1779412,8.7004843,-10.9917240,114.4351120,-30.5038166,-90.1526718,0.1891410,6.0572991,6.9216018,-42.4045792,-203.5572510,10.0534353
1090,-2.2050486,9.1386213,-12.7346935,63.6488533,12.1603050,-74.1984711,-2.3941894,5.9447722,8.8225880,-42.2290077,-195.9389343,-9.1374044
1100,-3.4428444,9.1865053,-14.0491037,4.5877862,63.3053436,-52.9465637,-2.9352763,3.6655040,11.5687237,-27.4885502,-189.0229034,-14.4045801
1110,-4.9463954,8.9135675,-14.2933111,-57.1755714,111.0305328,-25.1145039,-3.5984666,2.3439114,13.5702658,-1.5419847,-162.1755676,-8.2671757
1120,-5.9208307,8.6286592,-13.4074612,-114.8244247,139.9236603,8.8549614,-4.0605454,2.9041519,17.7385502,40.6641235,-102.0839691,3.4274809
1130,-6.0333576,8.3341732,-12.2367020,-160.1603088,144.0992432,42.3893127,-4.7021880,3.1986370,19.6126022,103.3206100,-61.2519073,23.7251911
1140,-5.2935529,7.9822278,-10.4099360,-197.3358765,134.9084015,73.2213745,-3.8785870,2.7269819,19.3043499,168.5572510,-31.1145039,49.1221390
1150,-4.6471219,7.3118544,-8.7292147,-228.8931274,133.5038147,99.9160309,-2.3343346,2.2242019,15.5550489,214.3740387,-11.0000000,64.4961853
1160,-3.7325413,6.5169835,-7.0484939,-250.1374054,137.3893127,127.7251892,-0.5147507,2.6886747,11.0467901,225.9389343,-4.4961834,64.3282471
1170,-2.0159075,5.7987270,-5.3198891,-250.1374054,143.3435059,150.4656525,0.3303981,3.9025288,7.8409705,204.7786255,-3.2519083,55.3435097
1180,0.0478838,5.1115947,-3.7588775,-250.1374054,158.1908417,163.0000000,0.4596844,5.2696109,6.3134775,172.1832123,-25.5877857,40.2900772
1190,1.4508789,4.4124913,-2.4396791,-250.1374054,175.8167877,166.1145020,0.6009415,5.9447722,5.4850879,137.7480927,-66.9160309,23.3435116
1200,2.5785420,3.9168940,-0.4836263,-250.1374054,175.6412201,160.8244324,0.3423691,6.2272868,5.3821378,103.6335907,-103.9465637,8.8473282
1210,3.9360476,3.4284792,2.9041519,-250.1374054,143.8244324,149.6793823,0.0311245,6.3972740,5.6670465,75.7633591,-126.2061081,0.1679389
1220,6.0692701,3.4428444,7.7260494,-250.1374054,74.7251892,129.5572510,-0.2298422,6.5959921,6.8066807,56.9541969,-135.5725250,-2.6564887
1230,9.9502516,4.5776901,14.9756546,-250.1374054,-47.2900772,96.9542007,-0.2825144,6.5816269,7.4770536,48.5419846,-134.6030579,0.2213740
1240,14.8511572,6.0812411,19.6126022,-176.3969421,-169.0381622,39.9083977,0.0622489,6.2823529,7.7380204,47.1526718,-128.7633514,3.2137403
1250,17.4608231,6.1841912,19.6126022,-42.4885483,-240.4809113,-38.0458031,0.7110743,6.1626434,7.1897511,48.4961815,-119.9694672,5.0839696
1260,15.3850613,5.4635406,19.6126022,88.7251892,-250.1374054,-103.7480927,1.3694763,6.1506729,6.4236102,48.0458031,-107.0381699,5.1297708
1270,11.0228481,5.2648225,18.3275204,187.6641235,-250.1374054,-141.3435059,1.7740943,6.1554613,5.5018473,44.5801544,-96.6946564,1.8702290
1280,7.3573442,5.6790175,12.5575237,241.9084015,-250.1374054,-159.9313049,2.1906834,6.0453281,4.6950054,36.4885483,-86.9465637,-2.4885497
1290,5.5257893,6.0908179,8.3629036,250.1297760,-250.1374054,-165.2748108,2.5091105,6.1482787,4.7524662,27.6412220,-73.9389343,-7.9923663
1300,4.5106530,6.7324610,4.0820932,250.1297760,-250.1374054,-165.3053436,1.7573351,6.2727766,4.7093706,22.3587780,-65.5801544,-15.0992365
1310,4.0677280,7.7835097,0.2059003,250.1297760,-250.1374054,-165.9160309,0.8547257,6.2248926,4.0294209,15.6946564,-63.0763359,-17.2595425
1320,3.2704628,8.8656836,-4.1371593,237.3511505,-250.1374054,-170.2671814,0.4668669,6.6175399,2.8778157,3.2519083,-66.0076370,-15.7786255
1330,3.0693510,9.7778702,-7.9487090,169.5114441,-250.1374054,-173.7175598,0.3136388,6.8689294,2.1260402,-14.2900763,-72.1145020,-13.4732828
1340,3.0956869,9.2272062,-8.6358414,93.2366409,-250.1374054,-170.4503784,0.2370248,6.8952656,1.6879035,-35.5725174,-75.6641235,-10.6793890
1350,3.1220231,9.5073261,-8.3700867,24.4732819,-250.1374054,-164.0229034,0.3327923,6.7803445,1.5059452,-57.1832047,-78.1679382,-7.7251906
1360,2.2840567,9.0931320,-7.7475972,-35.1526718,-234.8015289,-155.5190887,0.5410868,6.7994981,1.8195840,-78.1374054,-77.1679382,-1.8854961
1370,0.0694315,8.7411861,-6.6678176,-85.7175598,-148.5725250,-136.7557220,1.2976507,6.7444315,3.4524212,-96.1145020,-59.9771004,6.8396945
1380,-1.8339491,8.4275465,-5.4539638,-124.4885483,-83.2595444,-113.6870193,1.9105632,6.4355812,5.2121506,-104.1526718,-32.4274826,13.6030531
1390,-3.7062054,8.4323349,-3.9671719,-154.6870270,-27.0458012,-84.8244247,2.1691356,5.6718349,6.2727766,-104.6717529,-15.9312973,15.4885492
1400,-5.1355362,8.0516596,-2.1116750,-172.8320618,18.1908398,-52.6335869,2.5234756,4.9870968,6.8617468,-102.3053436,-11.2671757,12.0076332
1410,-6.2344694,7.4722652,-1.2330076,-183.2748108,52.2595406,-19.9312973,2.8921809,4.6543045,6.9670911,-100.8778610,-12.0610685,3.5572519
1420,-7.1370788,6.8066807,-0.9624642,-194.8396912,63.4045792,19.6106873,3.0621684,4.4603748,6.9335728,-101.1679382,-15.8244276,-7.2977099
1430,-7.1562324,6.1698260,-0.4405309,-207.6793823,70.7633591,64.2519073,3.1387823,4.2664456,6.8042865,-101.2442780,-20.9007626,-20.6717548
1440,-6.6486640,5.0110383,-0.0119709,-223.4427490,82.9770966,110.8778610,3.2273674,4.3263001,6.3972740,-102.1984711,-24.0381680,-33.7938919
1450,-5.2720051,4.0270267,1.1348459,-241.8244324,91.5572510,151.9389343,3.7085996,4.4196739,6.7971039,-105.6641235,-7.4045801,-42.6717567
1460,-2.4660151,3.3662305,4.1467361,-250.1374054,73.5801544,176.4656525,3.4739690,4.3813667,7.3381906,-105.5343475,24.7022896,-49.2137413
1470,0.9217629,3.2249732,8.8872309,-250.1374054,22.5267181,181.0915985,2.8826041,4.1371593,7.1634150,-99.5343475,51.0610695,-56.2671738
1480,6.6175399,3.0885043,14.7601776,-222.4274750,-60.7022896,153.8396912,2.9304879,3.9216824,7.2448173,-93.8854980,76.1526718,-63.9923668
1490,12.1098099,5.0804701,19.6126022,-167.1526642,-155.4274750,101.2519073,2.7437410,4.0054789,7.4411407,-90.8625946,103.8320618,-70.2137375
1500,16.8646698,6.0740585,19.6126022,-89.9465637,-195.1984711,40.6946564,1.7429699,3.8570392,7.2112985,-90.5725174,117.8854980,-75.7633591
1510,19.6126022,5.9423780,19.6126022,0.5267175,-143.2366486,-30.3129768,0.5746055,3.7277529,7.1131368,-93.9923630,117.1679382,-80.0305328
1520,19.5629215,5.0038562,19.6126022,100.5038147,-55.6488533,-104.6870193,-0.4357425,3.6032550,7.6757712,-101.0000000,114.2366409,-81.6335907
1530,14.8320036,3.8977404,18.3993454,202.5572510,2.2290077,-166.7099304,-1.2401901,3.6822634,8.6118994,-108.4274826,108.6564865,-80.2748108
1540,9.5839405,2.9711890,13.8503857,250.1297760,13.5801525,-199.7099304,-0.9959828,4.1850433,10.7810354,-114.0839691,121.1679382,-76.2671738
1550,5.6454988,2.9041519,8.3030491,250.1297760,-9.3358774,-213.2977142,-1.5705882,4.3191175,13.9389706,-107.1832047,150.8854980,-65.9770966
1560,3.9959023,3.5864959,2.6790979,250.1297760,-75.0916061,-228.9007568,-2.7964132,3.9767487,17.1040897,-78.8015289,171.9084015,-49.3282433
1570,3.3853838,4.2616572,-2.4348907,250.1297760,-143.2671814,-250.1374054,-3.6607156,3.2728570,18.3131542,-34.8778610,173.2900696,-32.4045792
1580,1.2545552,4.8290801,-6.6055689,250.1297760,-173.9007568,-250.1374054,-3.7756367,2.9137285,18.4639893,12.3053436,157.8549652,-17.6030540
1590,-1.8602852,5.3797436,-9.2463598,250.1297760,-171.8320618,-250.1374054,-3.5218527,3.0094962,17.9109306,53.9389305,132.8549652,-8.4351149
1600,-5.6335278,6.0094156,-12.2558556,250.1297760,-125.3969498,-250.1374054,-3.1675127,3.2393384,16.5246964,83.9847336,103.4656525,-3.5190840
1610,-9.2367830,6.0118098,-15.1743727,187.0000000,-41.6030540,-250.1374054,-2.8849983,3.6966286,14.9181948,99.3053436,73.6259537,-3.4656489
1620,-15.0905762,7.5345144,-17.6810894,96.0610657,34.1755714,-193.4351196,-2.7581062,3.9025288,13.6277266,101.3511429,45.8778610,-6.2671757
1630,-19.6131992,7.7332320,-17.7744617,15.7786255,81.9618301,-114.9236679,-3.2058196,4.0653338,13.0962162,99.9236679,13.2290077,-11.0916033
1640,-19.6131992,6.9646969,-17.0059280,-48.2900772,101.3816757,-16.6793900,-3.6607156,4.1036406,12.8376436,101.8244247,-23.6412220,-14.8167934
1650,-19.6131992,6.2631998,-15.5478659,-107.2671738,73.1984711,89.0534363,-4.1706781,4.1898317,12.1624823,104.9007645,-57.4656487,-16.5267181
1660,-18.8566360,5.8585815,-13.9461536,-166.6793823,40.2519073,176.1450348,-4.7404952,4.3286943,10.9869356,105.8702316,-83.6870193,-13.1679392
1670,-13.8240499,5.0086441,-11.7746239,-227.3893127,51.2824440,236.9236603,-5.1714492,4.9248476,9.3804340,102.6412201,-102.1526718,-2.8015268
1680,-10.0771437,3.6056492,-9.0236998,-250.1374054,56.8167953,250.1297760,-5.6646523,5.5329719,8.1210909,97.9465637,-114.1603088,8.2900763
1690,-6.4164276,2.6767037,-5.9615316,-250.1374054,65.4732819,250.1297760,-5.6742291,6.1363077,7.0724359,89.0610657,-116.6412201,23.9618320
1700,-2.6048782,1.2090657,-3.2800395,-250.1374054,83.1374054,250.1297760,-5.5090299,6.4116392,6.0980005,81.2366409,-111.2977066,39.5038185
1710,2.0494261,0.5506636,0.0383070,-250.1374054,90.1450348,250.1297760,-5.4156566,6.5337429,5.3677726,71.5648880,-99.9770966,54.5496178
1720,9.3660688,-0.1173153,4.4962878,-250.1374054,38.1908379,250.1297760,-5.0565281,6.4691000,4.7117648,60.4274826,-87.2748108,68.2519073
1730,18.4472294,0.8619082,8.3293848,-250.1374054,-38.9618340,249.0305328,-4.3143296,6.4978304,3.8881636,45.8702278,-76.7480927,79.5343475
1740,19.6126022,2.7341642,12.8855276,-250.1374054,-105.6030502,127.1832047,-3.5625539,6.4571290,3.1938488,28.3740463,-60.6717567,86.6564865
1750,19.6126022,7.2017217,19.6126022,-250.1374054,-33.8854980,-36.3587799,-2.0087249,6.1027889,2.8826041,7.3511453,-38.0305328,93.8473282
1760,19.6126022,5.1738434,19.6126022,-128.8167877,12.1984730,-172.0381622,-1.1899122,6.3805151,2.6000898,-15.3053436,-23.1221371,96.4503784
1770,18.5262375,1.1492109,19.6126022,41.3893127,-13.9770994,-250.1374054,-1.2521610,6.2033448,2.4253139,-40.6641235,-19.8167934,94.4122162
1780,12.1098099,-0.3423691,19.6126022,182.6106873,-124.7022934,-250.1374054,-0.7517755,5.9543490,2.1116750,-70.9236679,-33.2366409,93.6030502
1790,6.9096308,-0.2322364,17.5661678,250.1297760,-179.1068726,-250.1374054,-0.3016679,5.7101417,1.7669119,-105.1832047,-53.8091621,92.4580154
1800,3.9695661,1.1109039,10.7906122,250.1297760,-195.6259613,-250.1374054,-0.0335187,5.1020179,1.6974803,-142.2671814,-76.2366409,90.5190811
1810,1.0175306,2.8395088,3.7253587,250.1297760,-177.6335907,-250.1374054,0.5243275,4.2185616,1.9536586,-177.7022858,-103.1603088,87.6030502
1820,-6.7683735,1.1468167,-2.5737536,250.1297760,-149.0305328,-250.1374054,2.2098370,3.6511390,2.4803803,-207.4427490,-123.0305328,81.5725174
1830,-4.6303625,5.8346395,-3.8402798,250.1297760,-71.3969498,-250.1374054,3.3135581,3.0693510,3.4069316,-231.7633514,-129.2290039,71.5648880
1840,-7.6470413,6.9862447,-6.7899213,228.7175598,-24.3969460,-250.1374054,3.9528067,2.0949159,4.8530221,-248.9389343,-119.8778610,61.4885483
1850,-13.4864693,5.6526814,-9.0548248,183.7175598,33.7328262,-218.2061005,4.8338685,1.2042773,6.8761120,-250.1374054,-96.1755753,53.8778610
1860,-17.8822002,6.4547348,-9.9526453,129.4732819,73.3282471,-130.4656525,5.6454988,0.4955972,9.1027079,-250.1374054,-51.3664131,48.1450386
1870,-19.6131992,6.6797886,-10.6014709,73.8702316,99.9083939,-38.5038185,6.4834652,-0.1915352,11.6668854,-238.8854980,16.4045811,40.4122124
1880,-19.6131992,6.3996682,-11.1281929,20.2213745,116.2137375,48.6335869,6.8737178,-0.2801202,13.9341822,-210.2519073,96.0000000,29.1832066
1890,-18.6004581,6.9599090,-11.0396080,-34.3587799,135.7328186,127.1068726,7.4986014,-0.4812321,14.9708662,-174.7022858,185.7557220,14.5190840
1900,-15.3084478,7.0293403,-10.6924505,-91.6793900,156.7557220,190.2366486,5.9974446,-0.5267217,16.6324348,-135.2977142,250.1297760,-4.8473282
1910,-11.9158812,6.5624733,-9.9765873,-148.2824402,174.5190887,235.3664093,4.3598189,-0.7613522,18.0904961,-86.7175598,250.1297760,-19.9694653
1920,-9.2870607,6.0764527,-8.7148495,-200.1450348,181.0534363,250.1297760,2.2026544,-1.3742647,19.0194416,-35.4122124,250.1297760,-28.0381680
1930,-5.8657641,4.9487896,-6.1123657,-244.6030579,166.8091583,250.1297760,0.7278336,-1.2856797,18.9667683,11.3358774,250.1297760,-32.6335869
1940,-4.6950054,4.9104824,-3.4332676,-250.1374054,118.1297684,250.1297760,-0.0622489,-0.2035061,18.4591999,45.7175560,250.1297760,-36.8702278
1950,-2.4396791,3.2513094,-1.3622938,-250.1374054,92.2900772,250.1297760,-0.9696468,0.8595140,17.5111008,64.6717529,250.1297760,-42.6793900
1960,-0.6368544,1.8866212,2.0877333,-250.1374054,63.5954208,250.1297760,-1.9871773,1.2880739,16.6898956,70.1145020,208.8396912,-45.3740463
1970,2.7509236,1.0007712,5.8609757,-241.4885559,26.1832066,250.1297760,-2.6383967,1.3024391,15.7178535,67.8854980,149.8702240,-46.6412201
1980,7.6685886,1.7405758,9.7706871,-207.7022858,-14.3129768,250.1297760,-2.8466914,1.2042773,15.4137917,65.5114517,90.6030502,-48.7099228
1990,13.7833490,4.1970143,13.8647509,-160.3587799,-72.9007645,250.1297760,-2.6407909,1.1587877,15.2749290,67.7480927,39.1374054,-54.5648842
2000,19.6126022,7.2400289,15.0474806,-122.8931274,-136.5267181,202.4580078,-2.4660151,1.1707586,14.8176384,74.4427490,-1.0458015,-62.7175560
2010,19.6126022,8.9399033,15.1360655,-95.1145020,-119.2290039,63.3206100,-2.6072724,1.1755470,14.2095146,85.8625946,-27.2824421,-72.5801544
2020,19.6126022,8.0684185,16.0171280,-63.3435097,-49.0763359,-48.3664131,-3.0382264,1.2832855,13.4792862,100.5801544,-36.5572510,-79.5267181
2030,18.2987900,6.0620875,17.3937855,-19.6335869,-15.3282442,-117.4961853,-3.9097114,1.7645177,12.5766773,117.5419846,-30.2595425,-80.3816757
2040,14.4537220,3.8761928,16.5749741,44.1679382,-30.5954189,-159.3740387,-4.8123207,2.5665710,11.3293047,136.6259613,-6.8320613,-74.9007645
2050,11.7267399,3.5074875,14.6021614,111.4122162,-51.8015251,-185.2442780,-6.2895355,3.5194585,10.1465750,154.7022858,20.0000000,-62.3969460
2060,9.5264797,3.7828193,11.5328102,161.7557220,-67.3129807,-204.3740387,-7.8266053,4.3741841,8.9303265,168.3435059,42.8625946,-41.8167953
2070,8.2527714,4.1754665,9.0452480,191.4045868,-87.1374054,-220.7175598,-8.8968077,5.0948353,7.2089043,173.7633514,63.7099228,-14.9923668
2080,7.6494355,4.6854286,6.1602492,207.7938995,-89.9083939,-242.9694672,-9.4331064,6.0046272,4.9703374,168.7786255,79.5954208,16.7786255
2090,6.3733325,4.8985114,3.6870518,211.3129730,-80.1679382,-250.1374054,-9.5671806,6.5169835,3.6128318,152.8320618,89.6183243,49.7022896
2100,4.2568688,4.7644372,0.4740495,205.3816833,-58.9007645,-250.1374054,-9.2703018,6.6797886,3.1435707,128.1450348,96.4045792,80.8244247
2110,2.1116750,4.5154414,-2.1116750,189.0458069,-46.4122124,-250.1374054,-8.7507620,6.3757267,2.8083842,102.0534363,77.3053436,105.2290039
2120,0.2705434,4.0294209,-3.8953462,166.7709961,-46.2748108,-250.1374054,-7.4746594,5.6287394,2.3271523,74.1908417,39.2671738,115.5114517
2130,-2.0302727,3.4907281,-4.6375451,147.8091583,-34.1832047,-250.1374054,-6.4571290,4.9942794,1.3982066,41.1755714,-16.3511448,113.6793900
2140,-5.3079181,3.1914546,-5.2911587,129.8167877,-12.0610685,-250.1374054,-5.8442163,4.4938936,0.8331779,6.6641221,-95.8931274,107.1068726
2150,-9.1601686,3.3949606,-5.8250628,108.6870193,9.1145039,-250.1374054,-4.6231799,4.2736282,0.5578461,-31.1221371,-168.9160309,99.0457993
2160,-13.6588507,3.7756367,-6.5816269,87.0839691,33.4809151,-250.1374054,-3.3398943,4.4340386,0.5746055,-67.6870193,-221.0381622,91.1145020
2170,-18.5956688,4.8123207,-7.5895805,59.4961815,52.6870232,-223.0381622,-1.4221486,4.2257442,0.8906385,-94.1450348,-243.0839691,84.8167953
2180,-19.6131992,5.8274570,-8.6382351,30.8549614,52.3129768,-147.7175598,-0.0071826,3.5817075,1.0510491,-112.4427490,-226.6488495,80.6183243
2190,-19.6131992,6.7707677,-9.7299862,-1.5877863,30.8091602,-56.1297722,1.3311694,3.2537034,1.5969244,-126.8320618,-186.8167877,76.6183243
2200,-19.6131992,7.1275020,-10.6445665,-36.1145020,11.7328243,45.2900772,2.8179610,3.1507533,2.3247581,-139.9694672,-129.9541931,72.1679382
2210,-19.6131992,7.4507174,-11.5232334,-78.2213745,10.6183205,141.1145020,4.1156116,2.7197993,3.4763632,-149.2442780,-57.3816795,63.1603050
2220,-18.7560806,7.2112985,-11.7578640,-128.6488495,26.8702297,214.8931274,4.8290801,2.4301023,5.0038562,-152.7557220,34.3435097,52.1984749
2230,-15.3132353,5.8106980,-10.7235746,-180.3129730,42.3816795,250.1297760,4.4507980,1.9584470,6.5385313,-149.0000000,128.9465637,38.5954208
2240,-11.6956158,4.0270267,-8.6095057,-222.4045868,52.6259537,250.1297760,3.3686244,1.2210367,8.0444765,-141.0839691,201.9847260,24.2824421
2250,-8.5759869,2.2289903,-6.2081332,-250.1374054,56.6946564,250.1297760,1.9943599,0.8810617,9.0596132,-133.3664093,239.0534363,11.1984730
2260,-5.5664907,0.5339043,-3.7181761,-250.1374054,58.5114517,250.1297760,0.7589580,0.7589580,9.7994175,-130.4122162,241.3816833,-1.9465649
2270,-2.3343346,-0.8283895,-0.9289455,-250.1374054,60.0228996,250.1297760,0.0311245,1.4915800,10.1298151,-132.6793823,216.8549652,-15.8244276
2280,1.1875180,-1.9177457,2.6383967,-250.1374054,38.9465637,250.1297760,-0.2370248,2.6000898,9.5240860,-141.1068726,152.8778687,-33.7633591
2290,6.3015065,-1.9704180,7.3549500,-250.1374054,-21.0381680,250.1297760,-1.1492109,1.6112895,10.1274214,-158.5114441,107.2442780,-45.9694672
2300,13.9030581,0.1675933,12.8711624,-221.0305328,-103.1374054,250.1297760,-1.8961980,0.4740495,10.5847120,-176.5496216,69.5496216,-51.6488533
2310,19.6126022,3.3063757,17.1735210,-153.9160309,-143.1374054,250.1297760,-2.2481439,-0.6081241,10.8480721,-185.3664093,12.7480917,-56.7938919
2320,19.6126022,6.1937680,19.6126022,-79.2595444,-122.6717529,170.2137451,-2.6264257,-1.3766589,11.0276365,-182.3740387,-57.9465637,-64.2977066
2330,19.6126022,7.1514440,19.6126022,2.8549619,-93.5343475,50.9312973,-3.7373297,-1.9368993,12.3995075,-175.7557220,-100.2061081,-73.4961853
2340,19.6126022,6.7252784,17.7074261,79.1603088,-98.2442780,-60.0152664,-4.0437860,-1.3766589,12.8855276,-175.6030579,-111.0839691,-83.7862625
2350,19.6126022,5.3222833,13.4409800,140.3511505,-140.8091583,-150.7022858,-4.8578105,-0.5123565,13.7522240,-175.0076294,-128.1908417,-94.1984711
2360,15.6340570,4.8386569,8.9399033,172.5190887,-178.1374054,-211.0839691,-5.2815819,-0.0383070,14.3292236,-169.6793823,-144.1145020,-99.3969498
2370,11.6357603,5.3917146,5.7364779,179.2595367,-170.8549652,-245.5114441,-4.3382711,0.4812321,14.1903610,-154.6946564,-166.7175598,-100.2748108
2380,8.2360115,6.2488346,3.3614421,171.5954132,-123.3511429,-250.1374054,-2.5857246,-0.6320660,13.7713776,-137.5572510,-146.9007568,-101.8702316
2390,5.0158267,6.7971039,1.2904681,156.9313049,-79.7328262,-250.1374054,-2.4372849,-1.1037214,12.8807392,-122.5954208,-87.8931274,-98.8625946
2400,2.6479735,6.6079631,0.0933734,146.5267181,-58.0076332,-250.1374054,-2.5641768,-1.8004304,12.2989511,-106.1221390,-7.4198475,-79.0763321
2410,0.1771700,6.3015065,-1.5083394,138.0534363,-56.8015251,-250.1374054,-3.4524212,-2.8131726,12.3061342,-82.0534363,67.8244247,-38.9618340
2420,-2.2696917,6.4116392,-3.3734128,124.8778610,-61.2977104,-250.1374054,-3.4643922,-2.5713594,11.8679972,-55.3816795,141.2290039,2.0229008
2430,-4.7788019,6.6342988,-4.6806402,100.7786255,-58.2671738,-250.1374054,-3.1435707,-1.9177457,11.3293047,-31.4885502,224.8778687,29.1679382
2440,-7.5536675,7.0891948,-5.7245069,70.8778610,-32.4427490,-226.8702240,-3.4093258,-1.1851238,11.0922794,-12.4198475,250.1297760,43.2595406
2450,-11.1736822,7.4171991,-6.1339135,35.5572510,17.6335869,-181.8702240,-3.6295912,-0.8259954,10.5559816,0.3435115,250.1297760,53.5038185
2460,-14.6261034,7.9247670,-6.0142040,3.4045801,66.2061081,-120.3893127,-3.6559272,-1.5322813,9.4283180,-0.0992366,250.1297760,59.6717567
2470,-17.2980194,8.6621771,-5.4587522,-24.3740463,95.9083939,-46.4656487,-3.1507533,-2.1475880,8.3365679,-14.9007635,245.7633514,58.0305328
2480,-18.4520187,9.0667953,-5.2839761,-51.8320618,101.4961853,33.6946564,-2.5474176,-2.2265961,7.1059542,-27.8167934,220.0305328,47.9312973
2490,-17.4153347,8.5975342,-4.6303625,-79.9770966,90.0229034,112.3435135,-11.5878773,-2.4013720,14.4752693,-43.0992355,102.0763321,31.5419846
2500,-14.9660778,7.8601241,-3.7277529,-104.4961853,73.2519073,181.6106873,-10.9007444,-3.6032550,15.7058830,-45.7480927,-133.0305328,10.5190840
2510,-11.1617117,6.3158717,-2.6264257,-126.3206100,68.8015289,241.0076294,-2.6383967,-1.9129574,10.9462337,-51.5267181,-90.8778610,-10.7709923
2520,-7.2759418,5.2193332,-1.3742647,-143.6183167,68.7862625,250.1297760,-2.2984219,-0.0478838,10.8025827,-55.5801544,42.3511467,-23.3740463
2530,-3.6439564,4.2927818,-0.2944853,-153.5572510,60.8931313,250.1297760,-3.9982965,-0.3064562,10.0053177,-51.1679382,104.1679382,-21.9770985
2540,0.0095768,3.9097114,1.4221486,-155.4198456,40.8167953,250.1297760,2.4660151,-1.8459201,6.9168134,13.6030531,42.3358765,6.8702292
2550,4.3119354,4.1611013,3.4021432,-147.2977142,14.4198475,250.1297760,0.5578461,-1.1061156,5.1403246,16.3358784,87.1832047,6.3206105
2560,8.5065556,5.1211715,5.3605900,-128.4961853,-13.9541988,250.1297760,-19.6131992,-3.8953462,19.6126022,31.5343513,63.2061081,9.4122133
2570,12.3564119,6.7157016,7.1227136,-101.8396912,-37.9694672,238.3969421,-2.8155668,-0.5554519,5.0373745,42.1984749,38.1603050,4.5648856
2580,15.0977583,8.0612354,8.5448618,-71.9083939,-56.1984749,178.6564941,-1.6208663,-0.2729376,4.9823084,55.9465637,-24.5190830,-3.6793892
2590,16.3858318,8.9494801,9.2631187,-36.5496178,-59.3206100,116.1450348,-2.6671271,-0.9768293,5.9758968,61.1984749,-59.1221390,-16.7251911
2600,15.9883976,9.1577749,9.2918491,2.4198472,-48.2900772,54.0152664,-5.3677726,-1.1755470,8.5951405,72.9007645,-124.5572510,-27.1832066
2610,14.1041698,8.7627335,8.2838955,36.5725174,-46.6793900,2.6793892,-3.9025288,-1.2569494,6.4283986,69.9389343,-179.3740387,-44.9312973
2620,11.5447817,8.5304966,6.1602492,59.4885483,-58.5419846,-34.8473282,-2.5162930,-1.5083394,5.8418221,67.5801544,-229.9465637,-58.0763359
2630,9.1697454,8.3700867,4.2568688,70.8625946,-66.5496216,-59.6641235,-5.5425487,-1.3910241,10.2495251,62.5343513,-250.1374054,-65.9694672
2640,6.7109132,8.4179697,2.9017577,73.1832047,-61.6106873,-70.3893127,-1.7764885,-1.1563935,6.0956063,55.0534363,-250.1374054,-73.7633591
2650,5.0373745,8.5783806,1.7190280,69.4427490,-43.1221390,-67.9389343,-1.7405758,-0.7350162,6.8330169,52.5725174,-250.1374054,-74.0610657
2660,3.7157819,8.9255381,0.9073978,61.8931313,-11.1526718,-58.0992355,-5.8370337,-3.0549858,17.2190113,43.2824440,-126.9236679,-36.6717567
2670,2.4803803,9.3157911,0.1364688,52.6259537,17.2748089,-43.6412201,-2.0422437,-3.3327117,13.8862991,44.9160309,92.3358765,7.2519083
2680,1.6376256,9.4402885,-0.8020535,41.5267181,34.9465637,-29.2900772,-3.4667864,-1.0223188,9.3876171,44.7099228,179.0839691,30.2671757
2690,1.2976507,9.6102762,-1.1587877,29.8473282,40.3358765,-15.9389315,-6.4164276,0.8355721,12.6341381,52.8702278,164.4885559,32.9007645
2700,0.8762733,9.7563219,-1.7405758,17.8778629,44.8167953,-3.4274809,-3.6678982,0.4046180,9.5647869,60.3358765,137.0534363,33.6870232
2710,0.3998296,9.7275915,-2.5330524,3.8320611,49.6259537,8.5801525,-5.0325861,0.1891410,15.0522690,61.0610695,143.8244324,31.1832066
2720,-0.3758878,9.6749191,-3.1483591,-14.2061071,56.8931313,22.6030540,-4.3143296,0.0837966,10.2375546,4.6946564,88.8320618,19.0305347
2730,-1.2018831,9.5887289,-3.7229645,-36.3740463,66.1221390,41.8015251,-2.4037662,-0.8643024,9.5169029,-6.2366414,78.2137375,18.1374054
2740,-1.7740943,9.2774839,-3.8881636,-62.2137413,83.7938919,65.4580154,-2.8562679,-0.6871324,10.3045912,8.9847326,121.2595444,29.6564884
2750,-2.2313845,8.8608952,-3.6894460,-89.2900772,107.6641235,92.3893127,-3.0956869,-0.2226596,9.5983057,19.4274807,142.0152740,34.3206100
2760,-2.2888451,8.2072811,-2.9807658,-117.1297684,132.1526642,120.7633591,-4.2640514,0.1244979,9.2296000,8.5954199,132.9770966,26.3053436
2770,-2.1691356,7.5800037,-1.9201399,-142.7862549,152.7099304,147.8473358,-4.7524662,-0.0814024,9.0955257,2.2824428,113.6183243,16.1679382
2780,-1.3862357,6.8761120,0.1149211,-161.6870270,158.6030579,170.5648804,-4.9104824,0.0383070,9.1984758,11.1450386,101.2442780,12.7786255
2790,0.1005560,5.6909885,2.0661855,-167.5496216,138.7328186,183.3511505,-4.4819226,0.2106887,7.7356262,17.0305347,97.0229034,9.4961834
2800,4.3358769,5.3438311,5.7197185,-153.1755676,61.5648842,179.5114441,-5.4515696,0.1675933,8.2623482,16.2366409,79.3664093,5.2137403
2810,10.4458485,6.0812411,9.7706871,-112.4961853,-68.6946564,146.9389343,-5.6095858,-0.2250538,8.0732069,5.1374044,29.3664131,-0.5648855
2820,16.1583843,6.6366930,11.5447817,-55.2671738,-168.2137451,88.8320618,-3.0765336,-1.7980363,7.4938130,0.4274809,-28.4351139,14.4809160
2830,19.4671535,7.7763271,11.0300312,-5.8625956,-199.8396912,20.1755733,-5.4348102,-2.4372849,8.4586716,3.3587787,-106.9160309,50.7862587
2840,19.6126022,8.2767134,9.7706871,22.5343513,-184.4656525,-42.1297722,0.7038917,-1.1372399,5.5521255,-41.0000000,-136.6106873,44.2595406
2850,19.6126022,7.6446471,8.8345594,39.2748108,-144.7404633,-98.9083939,-4.3765783,-0.3758878,10.0603838,-44.6488533,-112.0992355,63.8549614
2860,16.4337158,6.7683735,8.5831690,54.6946564,-110.9847336,-143.8931274,-4.0461802,0.2250538,7.6805596,-36.2290077,-136.5114441,77.1832047
2870,13.1488886,6.1434903,8.6573887,73.2137375,-105.3206100,-171.0992432,-3.5888901,0.0239419,6.4547348,-43.4045792,-207.2442780,70.1526718
2880,10.7690639,5.7340837,8.1067257,93.6717529,-108.6030502,-184.1374054,-3.7181761,0.0335187,7.4770536,-35.1755714,-250.1374054,72.8091583
2890,9.8808203,6.1003947,7.0508881,109.1832047,-105.9694672,-191.8167877,-2.7102225,0.0718257,9.4833841,-32.0534363,-250.1374054,68.5038147
2900,8.2431946,6.5816269,5.2241216,117.0916061,-81.4427490,-196.4732819,-3.2944047,0.5147507,19.1056328,-26.4198475,-180.1603088,61.7862587
2910,6.5552907,6.9646969,3.8139439,116.9618301,-59.1297722,-196.9770966,-3.2130022,1.2928623,12.5024576,-18.9007626,-41.8931313,49.8015251
2920,5.2169390,7.2041159,2.6288199,113.7404556,-47.3358765,-196.4809113,-2.7509236,0.7398046,8.5281029,-13.8778629,-47.7404594,38.4351158
2930,3.7062054,7.2927012,1.3718705,110.9770966,-29.5114498,-195.6183167,-2.9400647,0.3998296,9.4594421,-10.3816795,-77.1450348,27.1374054
2940,2.1308286,7.4387465,0.1651991,106.8320618,-13.3206110,-192.3969421,-2.6407909,0.1436514,10.0460186,-6.8320613,-84.6412201,17.4809170
2950,0.6631905,7.5033898,-1.0295014,99.3740463,-5.9236641,-187.3969421,-2.9735832,0.1891410,9.8760319,-4.3893127,-85.4427490,10.4732828
2960,-0.9217629,7.5871863,-2.1427996,87.9923630,-2.2519083,-178.9313049,-2.2960277,0.3112446,10.3548698,-2.3969467,-83.2442780,4.5877862
2970,-2.4061604,7.8002691,-2.8897867,74.0992355,3.2595420,-165.3816833,-2.2361729,0.2968795,10.2782555,0.5114504,-88.0305328,-2.8473282
2980,-4.1443419,7.9678626,-3.6200144,58.0458031,19.6488552,-145.3587799,-2.4660151,0.0502780,9.3828287,0.1984733,-104.6030502,-2.4274809
2990,-5.8083038,8.3461447,-4.3813667,38.7786255,45.6106873,-116.8854980,-2.0326669,0.1484398,9.6725254,-0.3664122,-120.6641235,-2.8931298
3000,-7.5297260,8.7220325,-5.2696109,14.4122133,75.1984711,-81.0305328,-1.6065011,0.0885850,10.4697905,-0.4045801,-122.4351120,-2.4732823
3010,-8.8010406,8.6885138,-5.6646523,-13.3282442,97.3664093,-39.5419846,-1.2473727,0.0335187,11.2431135,-0.1145038,-110.1603088,-2.5190840
3020,-9.7275915,8.7363977,-5.6287394,-40.0763359,109.2366409,6.5954199,-1.1516051,-0.0311245,11.1688938,0.0610687,-95.9694672,-1.9541985
3030,-9.8856087,8.3365679,-5.4084740,-63.9312973,113.3358765,52.5496178,-0.6153067,0.1723816,11.2526903,-1.4045801,-74.9770966,-2.2213740
3040,-8.9901810,7.9989872,-4.7404952,-85.8320618,106.5648880,96.0076370,-0.7900825,0.0837966,11.2072010,-1.2137405,-45.3893127,-2.3664122
3050,-7.3932571,7.5847921,-3.6295912,-104.2595444,98.1450348,133.3435059,-1.7693061,0.0598547,8.7842808,-3.4580152,-65.5419846,-2.9160306
3060,-5.8106980,7.1059542,-2.8754215,-120.2977066,99.0839691,164.0458069,-3.6008608,-0.1244979,5.3534074,-7.2442746,-167.3740387,-1.8931298
3070,-4.0701222,6.6007805,-1.5945302,-132.5419922,96.9770966,189.1908417,-6.7037306,-0.3280039,9.0811605,-12.5343513,-250.1374054,8.2137403
3080,-2.0183017,6.1817970,-0.1364688,-138.0076294,91.0610657,206.1450348,19.6126022,4.1970143,19.6126022,-18.6488552,-28.8396950,-5.1526718
3090,-0.1197095,5.7077475,0.9193687,-138.6946564,75.7938919,215.7786255,-0.0814024,-0.2992737,1.6256547,-6.9312978,124.5419846,-12.3053436
3100,2.5474176,5.6024032,2.2242019,-134.2900696,51.1679382,216.9007568,-1.9584470,-0.6967092,9.4594421,13.4503813,-117.4732819,0.1755725
3110,5.9543490,5.8394279,4.0557570,-122.5572510,19.2977104,206.5725250,3.3853838,0.6320660,10.1513634,0.3511450,-16.0000000,-2.2442749
3120,9.0189114,6.3733325,5.4372044,-105.4580154,-8.4351149,182.7404633,-1.5753766,0.0502780,11.3484583,0.4351145,-9.4351149,-2.2290077
3130,11.8105364,6.7779503,6.9527264,-85.4961853,-32.2061081,148.0458069,0.2274480,0.0574605,11.1234045,0.2977099,-2.3206108,-2.7328243
3140,14.9636841,7.5416965,8.3629036,-59.8625946,-57.8549614,102.4885483,0.1723816,0.0742199,10.9629936,0.3664122,-6.7328243,-2.4198472
3150,16.6851063,7.9008250,9.5599985,-29.5572510,-82.9160309,46.3969460,0.2466015,0.0574605,10.3788109,-0.0229008,-4.1908398,-2.6488550
3160,16.7377777,7.9415264,10.1130562,2.7709923,-98.2595444,-9.6183205,0.1436514,0.0550664,10.5392218,-0.0458015,-2.4580152,-2.2977099
3170,15.5287132,7.5321202,9.8760319,32.7022896,-99.6412201,-55.6717567,0.0790083,0.0239419,10.8935623,-0.0076336,-2.5343511,-1.8854961
3180,13.7139168,7.4148049,9.2415714,57.9694672,-94.6412201,-90.8625946,0.0287303,0.0550664,10.6421719,0.1679389,-3.9923663,-2.3435113
3190,11.3987360,7.1729918,8.2216463,78.3893127,-93.8625946,-113.3053436,-1.0462608,-0.1029501,10.6613255,2.5648854,-22.4656487,-2.7633588
3200,10.0436249,7.4219875,7.3693151,95.6030502,-96.0534363,-128.1603088,-1.4317253,-0.1364688,11.3724003,9.8396950,-86.2061081,-2.7404580
3210,9.6126709,7.9487090,6.5888095,111.0534363,-99.2061081,-142.2442780,-0.9409165,-0.3064562,11.4945040,16.6793900,-151.4580078,-2.5114503
3220,8.5831690,8.7411861,5.4204450,125.2366409,-86.5954208,-156.5114441,14.0203733,-3.3159523,12.6939926,-32.9618340,2.9694657,0.2137405
3230,7.3741035,9.5192976,4.2137733,138.1755676,-73.4427490,-171.2748108,6.4810710,-1.4436963,15.9285421,8.3435116,28.1755733,-5.1374044
3240,5.4946647,9.5576038,2.0853391,151.4351196,-74.3053436,-189.9847260,-3.6271970,-0.3016679,16.0530396,-8.8244276,14.5877867,-1.1908396
3250,3.3183465,9.0739784,-1.1683644,158.9618378,-96.0916061,-208.7022858,-1.3287752,-0.0981618,12.4258432,4.1908398,-41.8778610,-2.3435113
3260,1.4460905,8.4826136,-3.8043671,153.2748108,-135.9541931,-223.3664093,1.7525467,-0.2633608,10.0532017,1.3206106,12.1297712,-2.7022901
3270,-0.7709290,8.0372944,-6.1051831,136.0381622,-169.4580078,-228.2748108,1.2880739,0.0933734,10.3883877,-0.0992366,-7.4122138,-2.3053436
3280,-2.7772598,8.2503767,-7.7092900,107.7404556,-170.9847260,-220.0305328,0.4501076,0.0766141,10.8744087,-0.0534351,-6.3358779,-2.4351146
3290,-5.5162125,8.4778252,-8.7555504,67.0457993,-137.5954132,-194.2366486,0.5650287,0.1077385,10.7187862,0.1297710,-3.8854961,-1.9541985
3300,-8.2791071,8.8513184,-9.3038206,19.9770985,-79.2366409,-151.5114441,0.6464311,0.0981618,10.6637201,-0.0152672,-3.2824428,-2.5801528
3310,-10.5009146,9.2942438,-9.5408449,-33.5877876,-2.7862597,-95.9236679,0.5937590,0.0981618,10.7499104,0.0687023,-3.3893130,-2.7328243
3320,-13.1943779,8.9806042,-9.7730818,-87.3969498,80.9160309,-31.1068707,0.6272776,0.1149211,10.7690639,0.1068702,-3.4732823,-2.4656489
3330,-14.5183649,8.4682484,-8.8728657,-137.3969421,139.0610657,40.9389305,0.5698171,0.0598547,10.7906122,0.1221374,-3.7862597,-2.1755726
3340,-13.9485474,7.6422529,-6.9623032,-177.9007568,155.0610657,108.5877838,0.7038917,0.0191535,10.7020273,0.0305344,-3.9389312,-2.2519083
3350,-12.0786858,6.2248926,-4.5345950,-208.5038147,164.5725250,169.8167877,0.7254394,0.0933734,10.6780853,0.0381679,-4.0152674,-2.3511450
3360,-10.1633339,4.7381010,-2.3582766,-231.5572510,194.5725250,227.4656525,0.5554519,0.0933734,10.5655584,0.0992366,-3.8320611,-2.1450381
3370,-8.1785507,3.4500270,-0.6991033,-250.1374054,215.4961853,250.1297760,0.6679789,0.0646431,10.6685085,0.0458015,-4.0458016,-2.3129771
3380,-5.5976148,1.9416877,1.7477583,-250.1374054,217.8702240,250.1297760,0.5937590,0.0000000,10.7594872,-0.0229008,-3.7022901,-2.4427481
3390,-2.2625091,0.9552816,4.9535780,-250.1374054,201.8320618,250.1297760,0.6775556,0.1077385,10.8001890,0.1145038,-3.8625953,-2.6259542
3400,1.5993185,0.1723816,8.8177996,-250.1374054,161.5725250,250.1297760,0.6248835,0.0359128,10.7475166,0.0916031,-3.7786260,-2.6335878
3410,7.1586266,1.6495966,13.1943779,-232.5038147,92.7938919,250.1297760,0.6488253,0.0454896,10.6421719,0.0763359,-3.6412213,-2.3969467
3420,14.7721491,3.3518653,17.1998577,-166.4122162,6.8931298,246.8320618,0.6967092,0.1005560,10.7331514,0.0076336,-3.9465649,-2.1603053
3430,19.6126022,4.8673873,19.6126022,-79.9694672,-67.0916061,156.6183167,0.6679789,0.0574605,10.7020273,0.1450382,-3.7938931,-2.2900763
3440,19.6126022,5.6790175,19.6126022,12.4427481,-116.9770966,60.1908379,0.6296718,0.0981618,10.6876621,0.0229008,-3.7938931,-2.1908398
3450,19.6126022,5.7963328,17.3219604,92.4503784,-136.4045868,-33.3435097,0.6416427,0.0957676,10.6421719,0.0839695,-3.6412213,-2.3969467
3460,17.4536419,5.2336984,12.2247314,143.4732819,-150.0992432,-108.5190811,0.6536137,0.0837966,10.6493549,-0.0687023,-3.7022901,-2.3893130
3470,12.5216112,4.9751258,7.9750452,162.9313049,-161.6870270,-155.7404633,0.6631905,0.0933734,10.6900558,0.0076336,-3.6793892,-2.3969467
3480,7.7380204,5.2983413,4.9559722,161.4885559,-155.2061005,-170.9084015,0.6033357,0.0981618,10.7259684,0.1908397,-3.6564887,-2.8167939
3490,4.7165532,6.0836353,3.1052637,151.4885559,-131.0915985,-161.8625946,0.5913648,0.1436514,10.6349897,0.0610687,-3.7022901,-2.2290077
3500,2.6264257,7.0460997,1.5370697,138.6641235,-96.9542007,-142.6259613,0.6296718,0.1173153,10.6254129,-0.0229008,-3.7862597,-1.7709924
3510,1.1372399,7.7930865,0.0407012,123.6412201,-59.8549614,-118.7938919,0.5865764,0.1101327,10.6445665,0.1221374,-3.8320611,-2.3358779
3520,0.1125269,8.3772688,-1.3622938,104.9770966,-25.7709923,-92.8778610,0.6057299,0.0814024,10.7283630,0.1603053,-3.7557251,-2.7709923
3530,-0.5506636,8.8130112,-2.3798244,83.5419846,1.0458015,-68.8244247,0.7086801,0.0814024,10.7283630,0.0687023,-3.7099237,-2.2137403
3540,-0.8882443,9.1290445,-2.9256995,61.7862587,23.7557259,-47.0610695,0.6703730,0.0766141,10.6421719,0.1374046,-3.8015268,-2.2671757
3550,-1.0869620,9.3852224,-3.3662305,40.4656487,43.3816795,-27.1755733,0.6512195,0.0670373,10.7618818,0.0916031,-3.7404580,-1.9770992
3560,-1.2808913,9.4235296,-3.4452386,19.8244267,60.8702278,-9.3358774,0.5913648,0.0574605,10.7259684,0.0229008,-3.9465649,-2.4732823
3570,-1.4365137,9.2583303,-3.0861101,2.5877862,68.3816757,6.1145039,0.6440369,0.1173153,10.6661139,0.0534351,-4.0534353,-2.7099237
3580,-0.8643024,9.2726955,-2.5019281,-7.6183205,57.5419846,17.9923668,0.6248835,0.1029501,10.7499104,0.0381679,-3.7022901,-2.6946564
3590,-0.3687052,9.2415714,-1.8578910,-13.4045801,40.8396950,26.0916023,0.6560079,0.0526722,10.7092094,0.1374046,-3.8244274,-2.7786260
3600,0.3208214,9.2870607,-1.2066715,-16.5572510,29.3740463,33.2061081,0.6224893,0.0861908,10.5416164,0.0687023,-3.6564887,-2.6564887
3610,0.9864060,9.3277617,-0.9983770,-19.6412220,26.8473282,38.5267181,0.6057299,0.1077385,10.7331514,0.1908397,-3.8702290,-2.4885497
3620,1.4987626,9.3038206,-0.8810617,-23.9541988,28.2290077,43.1984749,0.7110743,0.0933734,10.6804790,0.0610687,-3.9312978,-2.1450381
3630,1.9249283,9.2200232,-0.3519458,-29.6488552,32.7328262,48.0610695,0.6464311,0.0861908,10.7618818,-0.0152672,-3.8702290,-2.0687022
3640,5.1092005,8.9231443,2.3175755,-29.5343513,8.0534353,47.1679382,0.7038917,0.0885850,10.7499104,0.1984733,-3.9389312,-2.2900763
3650,5.5066357,8.8297710,2.7054341,-27.6488552,8.2671757,43.5496178,0.6177009,0.1268920,10.7403336,0.1145038,-3.8091602,-2.8244274
3660,5.6694407,8.7220325,2.9041519,-23.2137413,7.4885497,38.7175560,0.6440369,0.1651991,10.6421719,0.0610687,-3.7709923,-2.5343511
3670,5.9064655,8.7842808,3.0956869,-17.8854961,2.4045801,33.9694672,0.6631905,0.0622489,10.6445665,0.1984733,-3.6183207,-2.3206108
3680,6.1219425,8.8800488,3.2824337,-12.4503813,-5.3129773,29.0229015,0.7469871,0.1604107,10.7044210,-0.2137405,-3.0000000,-2.5114503
3690,7.1251078,8.7507620,2.2289903,1.2519084,-0.9465649,3.8931298,0.6129125,0.0622489,10.7259684,0.1755725,-3.9465649,-2.2442749
3700,6.8401995,8.7986460,2.1523764,-1.0305344,9.9770994,-1.9007634,0.5626345,0.0119709,10.6900558,0.0381679,-4.0534353,-2.2366412
3710,5.7819676,8.3748751,2.4013720,-5.3969464,18.6870232,-9.2061071,0.6416427,0.0622489,10.6948442,0.0916031,-3.8091602,-2.6106870
3720,5.4324160,8.3437500,2.6336083,-5.9312978,23.1908398,-10.3740454,0.5937590,0.0383070,10.7475166,-0.0076336,-3.7557251,-1.8549619
3730,4.6997938,8.2312231,2.7557120,-6.1832061,33.7099228,-8.1145039,0.6224893,0.0574605,10.7307568,0.1221374,-3.7633588,-2.0992367
3740,9.4235296,5.9711084,6.4092450,-14.5419846,-7.5114503,4.1755724,0.6512195,0.0814024,10.6661139,0.1908397,-3.8015268,-2.5725191
3750,12.9932661,6.3781209,9.1170731,-5.7328243,-38.4961815,-14.8015270,0.6464311,0.0335187,10.6565371,0.1145038,-3.7633588,-2.7557251
3760,16.2038746,7.2041159,11.8656025,13.2977095,-51.6412201,-50.2137413,0.6847382,0.0790083,10.6661139,-0.1068702,-3.8702290,-2.6183207
3770,16.9867744,7.6159167,13.4361916,42.7557259,-11.3587790,-91.4045792,0.5793939,0.0933734,10.6804790,0.0992366,-3.8625953,-2.7862597
3780,14.6284971,7.4986014,12.9501705,81.1755753,55.0381660,-128.0381622,0.6392486,0.1316804,10.6661139,0.1603053,-3.7862597,-2.5877862
3790,11.1641054,7.3788919,11.1928358,122.7709961,66.6641235,-159.0610657,0.7014975,0.0742199,10.8097658,0.1526718,-3.8778627,-2.6793892
3800,7.6877422,6.9263902,8.6885138,163.5877838,37.0687027,-183.4961853,0.6847382,0.1316804,10.6828737,-0.0534351,-3.7633588,-2.0000000
3810,5.0206151,6.7348547,5.1283536,200.8244324,-2.0534351,-197.9084015,0.5865764,0.0837966,10.7259684,0.1221374,-3.7404580,-2.6335878
3820,2.8035958,6.7300668,0.4596844,221.7709961,-39.3893127,-207.8167877,0.7062859,0.1340746,10.7977943,0.0534351,-3.8167939,-2.3816793
3830,0.0263361,6.7396431,-5.2935529,220.1145020,-83.7633591,-220.1145020,0.6392486,0.1244979,10.7762470,0.0763359,-3.8091602,-2.2977099
3840,-2.8203552,7.0868006,-10.0077124,194.1832123,-123.7099228,-227.0839691,0.6607963,0.0143651,10.6685085,-0.0076336,-4.0229006,-2.0534351
3850,-6.4595232,7.0820122,-13.7689838,145.7709961,-131.0763397,-218.2595367,0.6847382,0.0694315,10.6565371,0.0076336,-3.6793892,-2.3587787
3860,-10.3668404,7.4698710,-15.7082767,84.6259537,-92.8473282,-187.2442780,0.4453192,0.0383070,11.1664991,-0.0610687,-4.9694657,-2.3816793
3870,-14.5327301,7.5680327,-16.5007534,21.2595425,-37.5114517,-137.4885559,0.4955972,0.1005560,10.4386663,0.1297710,-5.6335878,-2.1374047
3880,-18.1575336,7.6853480,-16.4289284,-41.5954208,25.4198475,-71.5648880,0.6584021,0.0670373,10.6948442,0.0610687,-4.5114503,-2.1526718
3890,-19.6131992,7.6614060,-15.2031031,-106.5190811,103.5190811,5.6793895,0.6871324,0.0742199,10.6613255,0.0763359,-3.9312978,-2.1068702
3900,-19.6131992,7.3693151,-12.2582502,-165.1450348,162.2061005,85.2748108,0.5937590,0.0383070,10.6732969,0.0916031,-3.5877862,-2.7862597
3910,-19.6131992,6.2440462,-9.1362267,-210.7099304,197.8320618,165.5648804,0.6631905,0.0646431,10.6709023,0.0534351,-3.7175572,-2.0381680
3920,-17.7098198,4.7285242,-5.7316895,-245.4732819,209.8625946,242.9007568,0.6344602,0.1388630,10.6445665,0.1984733,-3.7099237,-2.4198472
3930,-13.9916430,2.5546002,-2.7557120,-250.1374054,218.5877838,250.1297760,0.6153067,0.0885850,10.7690639,0.0687023,-4.0000000,-2.2213740
3940,-8.8920193,0.2322364,0.4860204,-250.1374054,219.2290039,250.1297760,0.6703730,0.1292862,10.6828737,0.2519084,-3.9160306,-2.6946564
3950,-2.8347204,-1.3862357,4.3837609,-250.1374054,185.9236603,250.1297760,0.6607963,0.0861908,10.6421719,0.0458015,-3.8244274,-2.0381680
3960,6.1027889,-1.6472024,10.2806492,-250.1374054,107.4503784,250.1297760,0.6584021,0.0430954,10.6517487,-0.0152672,-4.0687022,-2.5038168
3970,17.1759148,-0.1460456,16.5558205,-215.0000000,-4.3282442,250.1297760,0.5985473,0.0981618,10.7618818,0.1297710,-3.9083970,-2.2824428
3980,19.6126022,3.5601597,19.6126022,-131.3358765,-88.8015289,209.3740387,0.6224893,0.0454896,10.6972389,-0.0839695,-3.9465649,-2.3587787
3990,19.6126022,5.4970589,19.6126022,-40.3740463,-119.5267181,56.4656487,0.6224893,0.1436514,10.7475166,0.1908397,-3.6183207,-2.2977099
4000,19.6126022,4.9918852,19.6126022,46.1603050,-140.8396912,-98.5572510,0.5913648,0.0837966,10.7714586,0.0610687,-3.7786260,-2.7022901
4010,19.6126022,2.9304879,18.9667683,130.7938995,-146.9084015,-208.3893127,0.6272776,0.0957676,10.7259684,0.0763359,-3.7175572,-2.4427481
4020,16.7952385,2.0661855,14.3364067,191.8625946,-177.7938995,-250.1374054,0.6272776,0.0407012,10.6565371,0.1374046,-3.8473282,-2.5496182
4030,10.4147243,2.6551561,9.4235296,219.7251892,-185.3435059,-250.1374054,0.6775556,0.0407012,10.6804790,0.1679389,-3.8015268,-2.7404580
4040,6.2081332,4.2257442,4.6303625,221.2824402,-161.8015289,-250.1374054,0.6296718,0.0694315,10.7092094,0.0000000,-3.7175572,-2.5954199
4050,2.5546002,5.5497313,1.4843974,206.8396912,-120.8931274,-250.1374054,0.6751614,0.1316804,10.7427282,0.0687023,-3.8931298,-2.1603053
4060,-1.0606259,6.4978304,-1.5155219,187.2519073,-68.9007645,-250.1374054,0.6344602,0.0454896,10.7642756,0.1374046,-4.0381680,-1.8702290
4070,-4.6064205,6.7109132,-4.4077029,162.0686951,-30.6488552,-238.9618378,0.6536137,0.0598547,10.7930059,0.0763359,-3.8167939,-2.3587787
4080,-8.5999289,7.3549500,-7.4914188,131.6946564,-11.1603050,-203.8091583,0.6153067,0.0694315,10.7187862,0.1603053,-3.8854961,-2.2748091
4090,-12.7682123,7.7715387,-10.2686787,94.5725174,3.3511450,-151.7557220,0.6248835,0.0646431,10.7068148,0.0534351,-3.7099237,-2.4122138
4100,-16.2397861,8.7962523,-12.8687687,46.3893127,30.1221371,-83.3587799,0.6847382,0.0718257,10.6493549,0.0458015,-3.8473282,-2.0610688
4110,-18.9093075,9.0524302,-13.9006643,-12.6946564,73.3206100,-1.7404580,0.6584021,0.1077385,10.7211800,0.1984733,-3.9160306,-2.0610688
4120,-19.6131992,8.4131813,-13.6971579,-78.1603088,125.4656525,94.1679382,0.5817881,0.0622489,10.6709023,0.2366412,-3.8931298,-2.0152671
4130,-18.7034073,7.1370788,-11.5447817,-150.5419922,169.4809113,190.3129730,0.6081241,0.0957676,10.6972389,0.2137405,-3.8473282,-2.6717558
4140,-15.6125097,4.6159973,-7.7164726,-217.6259613,209.5038147,250.1297760,0.6392486,0.0861908,10.6685085,0.1145038,-3.8702290,-2.2519083
4150,-12.0403786,1.4724265,-3.0286496,-250.1374054,236.7404633,250.1297760,0.6512195,0.0861908,10.7259684,0.0839695,-3.8396947,-2.3893130
4160,-6.3876977,-1.1396341,3.0071020,-250.1374054,215.9236603,250.1297760,0.6320660,0.0622489,10.7546988,0.0229008,-3.9465649,-2.4122138
4170,2.4301023,-1.2976507,10.6685085,-250.1374054,125.5267181,250.1297760,0.6943150,0.0071826,10.7116032,0.1450382,-3.7862597,-2.5114503
4180,16.1895084,0.9097920,19.1846409,-222.5877838,11.3587790,250.1297760,0.5937590,0.0359128,10.7116032,0.2519084,-3.8167939,-2.4961832
4190,19.6126022,4.9823084,19.6126022,-129.1145020,-60.3816795,237.2366486,0.7278336,0.1053443,10.7379398,0.0152672,-3.8854961,-2.3893130
4200,19.6126022,6.5265603,19.6126022,-10.9007635,-87.5877838,72.4122162,0.6751614,0.1221037,10.6972389,0.0381679,-3.6793892,-2.6259542
4210,19.6126022,4.1994085,19.6126022,118.5954208,-96.9389343,-90.8549652,0.6153067,0.0861908,10.7499104,0.1221374,-3.8854961,-2.2748091
4220,19.6126022,2.4061604,19.6126022,221.4274750,-138.3740387,-213.5954132,0.6392486,0.1244979,10.7020273,0.0534351,-3.7557251,-2.6259542
4230,17.1471844,1.2473727,11.7099810,250.1297760,-196.1908417,-250.1374054,0.6488253,0.1197095,10.7499104,-0.0076336,-4.0000000,-2.6259542
4240,11.3364868,2.1523764,5.7915444,250.1297760,-195.7175598,-250.1374054,0.6871324,0.0598547,10.7546988,0.0687023,-3.6793892,-2.2671757
4250,8.2407999,3.5505829,1.6519908,250.1297760,-141.9465637,-250.1374054,0.6009415,0.1029501,10.6469603,0.1221374,-3.8854961,-2.7480917
4260,4.6159973,5.2001796,-1.7094513,226.2290039,-77.3664093,-250.1374054,0.6943150,0.0885850,10.6397781,0.0687023,-3.7862597,-2.0534351
4270,2.1308286,5.9280128,-4.0892754,200.5343475,-42.2824440,-250.1374054,0.6512195,0.1221037,10.7259684,0.0458015,-3.9618320,-2.0610688
4280,-0.0119709,6.2201042,-6.5552907,175.3740387,-35.5267181,-250.1374054,0.6560079,0.1173153,10.6972389,0.1679389,-3.9694657,-2.3206108
4290,-2.5354466,6.3996682,-8.7459745,148.1297760,-44.5190849,-250.1374054,0.6799498,0.1053443,10.7139978,0.0076336,-3.8778627,-2.7099237
4300,-5.4515696,6.5672617,-10.1776991,119.0381699,-48.1755714,-250.1374054,0.5913648,0.1221037,10.6948442,0.0687023,-3.9312978,-2.7786260
4310,-8.9063845,6.9503322,-11.7387114,84.5343475,-38.8396950,-232.7480927,0.6488253,0.0814024,10.7259684,-0.0610687,-3.9007633,-1.9770992
4320,-13.0339670,7.8649125,-13.2159262,38.7938919,6.1755724,-191.3206177,0.6177009,0.0909792,10.6613255,0.0152672,-3.8625953,-2.5801528
4330,-18.3275204,8.3772688,-14.5423069,-14.6717558,82.1755753,-124.8015289,0.6033357,0.1005560,10.7211800,0.1603053,-3.9007633,-2.5038168
4340,-19.6131992,8.8920193,-15.2390156,-78.2671738,149.2977142,-32.2671738,0.6081241,0.1005560,10.7235746,0.1526718,-3.7633588,-2.2442749
4350,-19.6131992,8.5927458,-13.6803989,-140.2519073,170.1068726,66.5190811,0.6440369,0.1077385,10.5990763,0.2595420,-3.9465649,-2.0076337
4360,-19.6131992,7.3884687,-10.3045912,-189.8473358,170.0152740,157.8320618,0.6129125,0.0814024,10.6756907,0.1068702,-3.7709923,-2.2519083
4370,-17.3937855,5.8130918,-7.2927012,-225.6030579,183.9847260,234.2442780,0.6368544,0.0407012,10.6517487,0.0992366,-3.8931298,-2.5954199
4380,-12.5359764,4.0461802,-4.1012464,-250.1374054,194.2977142,250.1297760,0.7038917,0.1197095,10.6637201,0.0916031,-4.0305343,-2.2595420
4390,-6.9527264,2.0063307,-0.4165890,-250.1374054,179.4885559,250.1297760,0.6033357,0.0957676,10.7331514,0.1297710,-3.6946564,-1.9465649
4400,-0.7876883,1.1372399,3.3422885,-250.1374054,126.0687027,250.1297760,0.6177009,0.0742199,10.6565371,0.0458015,-3.9465649,-2.2061069
4410,6.8497758,1.3886299,7.6015515,-237.1145020,40.9847336,250.1297760,0.6655847,0.0646431,10.7642756,0.0305344,-3.9083970,-2.3358779
4420,17.6834831,3.8522508,12.8735571,-190.5648804,-50.0763359,250.1297760,0.6009415,0.1340746,10.6685085,0.1755725,-3.8320611,-3.0458016
4430,19.6126022,6.1817970,17.0131111,-124.7175598,-101.4198456,158.0152740,0.6416427,0.0885850,10.6182299,0.2213740,-3.9618320,-2.5419848
4440,19.6126022,7.1466556,19.5485573,-42.5801544,-112.0457993,25.6335869,0.7014975,0.0766141,10.6493549,0.0839695,-4.0076337,-2.3587787
4450,19.6126022,6.9718795,19.1942177,40.1908379,-124.7175598,-101.2519073,0.6751614,0.1221037,10.7570934,0.1832061,-3.9618320,-2.3816793
4460,19.6126022,5.6550756,16.3164005,119.4961853,-135.6870270,-204.0229034,0.6248835,0.1149211,10.6661139,0.0916031,-3.7862597,-2.1603053
4470,15.8399572,4.7811961,11.9541883,171.0686951,-153.2519073,-250.1374054,0.6033357,0.0646431,10.7379398,0.0610687,-3.7862597,-2.5725191
4480,9.1122847,4.6040263,7.5847921,195.5419922,-155.5954132,-250.1374054,0.6416427,0.0670373,10.7427282,0.1221374,-3.7786260,-2.3969467
4490,4.6351509,5.0948353,4.0605454,202.9847260,-135.9541931,-250.1374054,0.6177009,0.1077385,10.6373835,0.1755725,-3.6564887,-2.4274809
4500,0.5506636,5.8274570,0.4429250,196.5725250,-104.7022934,-250.1374054,0.6823440,0.0383070,10.6254129,-0.0229008,-3.9465649,-2.2213740
4510,-2.4660151,6.2368636,-2.5857246,178.9160309,-75.2290039,-250.1374054,0.6368544,0.1292862,10.6517487,-0.0381679,-3.8854961,-2.6564887
4520,-5.7819676,6.5265603,-5.5138183,154.5419922,-53.6030540,-250.1374054,0.6919208,0.0981618,10.6996326,0.0076336,-3.7404580,-2.1450381
4530,-9.1410151,6.8856888,-8.2527714,123.6412201,-32.9618340,-239.2366486,0.6703730,0.0837966,10.7068148,0.0381679,-3.8320611,-2.0916030
4540,-13.2135315,7.4842362,-11.0874910,82.9007645,-8.8625956,-192.6870270,0.6440369,0.1053443,10.7834291,0.0534351,-3.8167939,-2.6641221
4550,-16.7569313,8.2455883,-12.9812956,32.8931313,22.4351139,-128.5114441,0.6512195,0.0550664,10.6373835,0.1679389,-3.7786260,-2.3740458
4560,-19.5294037,8.6861191,-13.6756105,-21.3587780,59.0534363,-50.1984749,0.6177009,0.0550664,10.6732969,-0.0458015,-3.9236641,-2.5801528
4570,-19.6131992,8.6789370,-12.7299051,-74.7633591,78.0839691,32.0458031,0.6703730,0.1244979,10.6469603,0.0992366,-3.8702290,-2.5801528
4580,-17.9827576,8.2527714,-10.9031391,-122.3053436,81.8549652,105.9770966,0.5937590,0.1149211,10.6014709,0.1679389,-3.6106870,-2.3358779
4590,-15.2102852,7.5393028,-8.9207497,-165.0458069,102.1908417,169.0000000,0.6631905,0.1364688,10.8049774,0.0610687,-3.4045801,-2.1908398
4600,-12.0260134,6.6175399,-6.1746144,-199.0381622,123.1603088,217.2977142,0.5410868,0.0933734,10.7523050,0.1221374,-3.7251909,-2.2671757
4610,-9.5432396,5.5521255,-3.6750808,-220.5038147,126.3053436,250.1297760,0.6177009,0.0311245,10.6828737,0.0305344,-3.9083970,-2.2671757
4620,-6.5505023,4.4699516,-1.1659702,-229.0763397,115.7404556,250.1297760,0.6607963,0.1580165,10.6373835,0.0305344,-3.7251909,-2.5267177
4630,-3.7923961,3.7660601,0.7829000,-227.8702240,93.1374054,250.1297760,0.6631905,0.1292862,10.6373835,0.1221374,-3.9847329,-2.0687022
4640,-0.4740495,3.2130022,3.0262554,-217.4427490,57.0458031,250.1297760,0.5937590,0.0909792,10.7044210,0.0763359,-3.7786260,-2.0687022
4650,3.2369442,2.9927368,5.2600341,-197.2290039,12.3129768,250.1297760,0.6320660,0.1268920,10.6972389,-0.0687023,-3.9389312,-1.8396946
4660,8.2360115,3.6559272,7.4650826,-168.0229034,-40.4427490,250.1297760,0.6751614,0.0670373,10.7403336,0.2442748,-3.9007633,-2.3053436
4670,13.4577389,4.6495161,9.1386213,-133.9770966,-71.0152664,218.7251892,0.6727672,0.1053443,10.7068148,0.0839695,-3.9236641,-2.6564887
4680,17.3650570,5.8657641,10.2878323,-100.4198456,-73.2824402,161.5343475,0.6560079,0.0670373,10.6828737,0.1145038,-3.8091602,-1.8931298
4690,19.6126022,7.0437055,11.8153248,-67.5038147,-65.1984711,92.5038147,0.6344602,0.0837966,10.7403336,0.1679389,-3.6717558,-2.4656489
4700,19.6126022,7.1107426,13.3452120,-27.3129768,-69.8625946,19.6488552,0.6153067,0.0670373,10.6589317,0.3053435,-4.0534353,-2.8015268
4710,19.6126022,6.7947097,13.9102411,21.4961834,-95.4656525,-55.7633591,0.6200951,0.0790083,10.7211800,0.0229008,-3.8320611,-2.1374047
4720,18.5022964,6.2895355,12.3228931,68.2442780,-117.0305328,-119.3358765,0.6153067,0.1532281,10.7475166,0.1068702,-3.8625953,-2.6335878
4730,15.4329453,6.3278427,10.1561518,99.8778610,-135.6412201,-163.3664093,0.6392486,0.1029501,10.7163916,0.1679389,-3.7099237,-2.3053436
4740,12.4186611,6.6031747,8.2623482,116.6412201,-131.6183167,-192.2519073,0.6679789,0.1173153,10.5799236,0.1297710,-3.6259542,-2.4274809
4750,9.4355011,6.8880830,6.6845770,128.1145020,-109.1755753,-207.4503784,0.6200951,0.0742199,10.7355452,0.1221374,-3.8244274,-2.5954199
4760,6.4930420,7.2974896,4.7883787,133.9160309,-80.5190811,-212.3206177,0.6224893,0.0191535,10.7403336,0.0076336,-3.8473282,-2.0305343
4770,3.5888901,7.7284436,2.7126167,133.1679382,-62.8320618,-210.5572510,0.6464311,0.1316804,10.6589317,0.0916031,-3.7786260,-2.6030533
4780,1.3431402,7.9894104,0.7541697,127.5954208,-56.6030540,-203.9770966,0.6560079,0.0814024,10.8073711,0.1450382,-3.8625953,-2.3664122
4790,-0.4046180,8.1210909,-1.1994889,116.6641235,-50.9923668,-194.5954132,0.6392486,0.1149211,10.6804790,0.0305344,-3.8702290,-2.1603053
4800,-2.3798244,8.4323349,-3.1339941,97.8702316,-40.4656487,-180.3816833,0.6392486,0.0718257,10.6469603,0.0305344,-3.7328243,-1.7175573
4810,-4.1347651,8.6526003,-4.4747400,73.9770966,-19.9389305,-160.7786255,0.5985473,0.0430954,10.6589317,0.2213740,-3.6259542,-2.2290077
4820,-6.3469963,8.7747040,-5.6119800,46.1068687,10.2442751,-133.6717529,0.6799498,0.0622489,10.7020273,0.0916031,-3.7328243,-2.4351146
4830,-8.7292147,8.9542685,-6.4571290,14.8473282,41.8931313,-97.0534363,0.5961532,0.0407012,10.7523050,0.1374046,-3.8091602,-2.2977099
4840,-10.8432837,8.8561068,-6.7492199,-17.4885502,71.2442780,-50.3664131,0.7038917,0.0598547,10.7331514,0.0000000,-3.8778627,-2.1297710
4850,-11.6094246,8.9015961,-6.1243367,-46.9847336,102.1526718,0.6641222,0.6416427,0.0550664,10.6685085,-0.0381679,-3.8702290,-2.1221373
4860,-12.0547438,8.7387915,-6.0357518,-72.3282471,106.6946564,51.9083977,0.6009415,0.0478838,10.6876621,0.1679389,-3.7862597,-2.2748091
4870,-11.1377697,8.3652983,-5.5425487,-101.3435135,89.2519073,100.5877838,0.6129125,0.0861908,10.7570934,0.2137405,-3.9312978,-2.7480917
4880,-9.1290445,7.5632443,-4.2999644,-129.0305328,83.9618301,143.2366486,0.6320660,0.0861908,10.7355452,0.1068702,-3.9236641,-1.8549619
4890,-7.4243813,6.8330169,-2.8706331,-149.8015289,94.5190811,180.2824402,0.5961532,0.0909792,10.7163916,-0.0381679,-3.7404580,-2.3053436
4900,-5.4132624,5.9016771,-0.9840119,-165.5343475,102.0839691,210.7404633,0.6871324,0.0742199,10.6996326,0.0610687,-3.9847329,-2.3206108
4910,-3.6343796,5.2217274,0.6105183,-175.0152740,107.5267181,233.5572510,0.5769997,0.1077385,10.7403336,0.1755725,-3.9694657,-2.1068702
4920,-1.6112895,4.4077029,2.5306582,-176.4809113,100.3664093,247.5648804,0.6679789,0.1292862,10.7283630,-0.0839695,-3.9236641,-2.1145039
4930,0.9097920,4.1419477,4.7476778,-167.1984711,68.6030502,250.1297760,0.5530578,0.0526722,10.7714586,0.1297710,-3.9083970,-2.0610688
4940,4.5058646,4.2425036,6.9455438,-144.0305328,25.4885502,241.9541931,0.6631905,0.1077385,10.6780853,0.0305344,-3.8320611,-2.6412213
4950,8.0181408,4.6566987,7.9582858,-114.4961853,-8.8015270,220.6641235,0.6392486,0.0550664,10.6397781,0.0458015,-4.0381680,-2.1832061
4960,11.7961712,5.4874821,8.6861191,-82.8167953,-37.2061081,187.2137451,0.6607963,0.0814024,10.7666702,-0.0305344,-3.7786260,-2.2671757
4970,14.8918581,6.4164276,9.3325500,-52.2519073,-56.3893127,138.1908417,0.6727672,0.0909792,10.7403336,0.0763359,-3.7786260,-2.3740458
4980,16.5031471,7.0556765,9.4163475,-23.5877857,-58.5725174,82.3129807,0.4070122,0.0814024,10.4290895,0.4580153,-6.1603055,-2.2748091
4990,15.3946381,7.8385763,8.8441362,28.6793900,-46.7099228,-18.4427490,0.7421987,0.0981618,10.6780853,0.2519084,-3.9618320,-2.3435113
5000,13.1656475,7.8122401,8.1929159,50.6335869,-55.5725174,-55.6106873,0.7062859,0.0957676,10.5296450,0.2442748,-3.7404580,-2.4045801
5010,10.9582052,8.0756006,7.4986014,72.5877838,-73.4732819,-82.4351120,0.6464311,0.1149211,10.6780853,0.1832061,-3.6335878,-1.6259542
5020,9.4402885,8.6741486,6.5624733,91.3435135,-85.6183243,-99.4961853,0.6368544,0.0742199,10.7331514,0.1603053,-3.5343511,-2.7557251
5030,8.3078375,9.3876171,5.1235652,102.8167953,-86.4656525,-109.9847336,0.6224893,0.0359128,10.7283630,0.1984733,-3.7862597,-2.1603053
5040,7.6183109,9.8496952,3.1555417,105.9160309,-74.0457993,-119.0305328,0.6344602,0.0670373,10.6685085,0.1297710,-4.0610685,-2.2900763
5050,6.4499464,10.0340481,1.4867916,104.3282471,-63.5190849,-127.3969498,0.6512195,0.0239419,10.6445665,0.0992366,-3.9083970,-2.6183207
5060,5.0038562,10.0962973,-0.0287303,97.4885483,-59.1603050,-133.6870270,0.5674229,0.0790083,10.6325951,0.0916031,-3.9618320,-2.2442749
5070,3.0190730,10.0268650,-1.5897418,84.6946564,-51.1832047,-132.0686951,0.6775556,0.0957676,10.6661139,0.0152672,-3.8091602,-2.4198472
5080,0.6464311,10.0244713,-3.2130022,61.9923668,-30.5038166,-117.6870193,0.6177009,0.1149211,10.7666702,0.0687023,-3.8473282,-2.1679389
5090,-1.7693061,10.2854376,-4.3861551,27.9847336,9.6641226,-86.9618301,0.6392486,0.1053443,10.7235746,0.0381679,-3.8778627,-2.9312978
5100,-6.6678176,10.6110477,-5.9136481,-22.8931293,96.1832047,-30.8854961,0.6679789,0.0790083,10.6972389,-0.0229008,-4.0000000,-2.3969467
5110,-10.7499104,10.7116032,-7.6254935,-95.4580154,230.1450348,60.1450386,0.6416427,0.0981618,10.7379398,0.0381679,-4.0534353,-2.7099237
5120,-12.9980545,9.5169029,-8.3389616,-185.2213745,250.1297760,160.7099304,0.7110743,0.0909792,10.7307568,0.0839695,-3.9083970,-2.1755726
5130,-14.3866844,5.9878678,-6.8138633,-250.1374054,250.1297760,250.1297760,0.6009415,0.1484398,10.6349897,0.1221374,-4.0534353,-2.2671757
5140,-11.3724003,1.7573351,-0.8164186,-250.1374054,250.1297760,250.1297760,0.5961532,0.0957676,10.7499104,0.1145038,-4.0687022,-2.0916030
5150,-3.7301471,0.0694315,8.8417416,-250.1374054,250.1297760,250.1297760,0.2777260,0.0454896,10.2614956,0.3664122,-7.2290077,-2.2137403
5160,10.9773588,0.1508339,19.5485573,-250.1374054,40.3435097,250.1297760,0.7421987,0.0861908,10.3093796,-0.0534351,-5.8167939,-2.2519083
5170,19.6126022,3.6822634,19.6126022,-153.3969421,-174.1679382,165.8167877,0.7661406,0.0359128,10.6110477,0.1450382,-3.9847329,-2.5419848
5180,19.6126022,7.0101867,19.6126022,-28.8549614,-217.5496216,43.6793900,0.7757174,0.0646431,10.6493549,0.0916031,-3.6641221,-2.7328243
5190,19.6126022,6.5528965,19.6126022,83.7175598,-132.2519073,-95.1984711,0.6296718,0.0837966,10.6445665,0.1374046,-3.5572519,-2.6946564
5200,19.6126022,3.7349355,19.4408188,177.9847260,-42.8167953,-209.3053436,0.5961532,0.0191535,10.6182299,0.0458015,-3.7099237,-1.8396946
5210,15.6891232,0.8714849,14.2717638,238.4503784,-25.0000000,-250.1374054,0.6200951,0.0646431,10.6685085,0.1374046,-4.1068702,-2.2137403
5220,8.2000990,-0.7565638,9.5336628,250.1297760,-73.9618301,-250.1374054,0.6703730,0.0861908,10.8097658,0.1603053,-3.9847329,-2.2366412
5230,3.0047078,-0.1771700,6.1003947,246.2366486,-143.3893127,-250.1374054,0.6799498,0.0861908,10.6589317,0.1221374,-3.9236641,-2.3282442
5240,-0.8236012,1.0247130,4.0461802,228.1832123,-156.4045868,-250.1374054,0.6655847,0.0981618,10.6349897,-0.0152672,-3.9923663,-2.2977099
5250,-3.0813217,3.0190730,2.2960277,209.6946564,-109.3587799,-250.1374054,0.6200951,0.1125269,10.7738523,0.0687023,-3.8854961,-2.4961832
5260,-4.7165532,4.9392128,0.2394189,186.7938995,-48.5419846,-214.5954132,0.6775556,0.1292862,10.7331514,0.0152672,-3.9389312,-1.9236641
5270,-6.0501165,6.7133074,-2.0997043,155.8015289,-12.3969469,-169.7786255,0.6775556,0.1460456,10.7163916,-0.0610687,-4.1679387,-2.2824428
5280,-6.8473821,7.6518297,-4.0940638,122.3740463,7.0610685,-129.7328186,0.6296718,0.0766141,10.6804790,0.1450382,-4.1526718,-2.3816793
5290,-7.5249376,8.2934723,-5.7173243,91.5419846,25.9007626,-91.5801544,0.6895266,0.1077385,10.6876621,0.1068702,-3.7633588,-2.5038168
5300,-9.8089943,7.3070664,-4.6638808,-161.0381622,250.1297760,233.8931274,0.5530578,0.0574605,10.7307568,0.1679389,-3.8625953,-2.6183207
5310,-8.3605099,5.5688848,-2.3630650,-195.1755676,250.1297760,250.1297760,0.6536137,0.1077385,10.7068148,0.1603053,-3.8015268,-2.2977099
5320,-5.8968887,3.6918402,0.1699875,-224.7175598,250.1297760,250.1297760,0.6153067,0.0263361,10.6445665,0.1755725,-3.8702290,-2.1297710
5330,4.8195033,0.8882443,9.8999729,-250.1374054,250.1297760,250.1297760,0.7110743,0.0814024,10.6876621,0.1603053,-3.9083970,-2.5954199
5340,8.9327211,0.8978211,14.0682573,-239.0610657,250.1297760,250.1297760,0.6727672,0.1077385,10.7163916,0.1832061,-3.8091602,-2.3435113
5350,13.1656475,1.4293311,18.5142670,-193.7709961,212.5877838,227.6183167,0.6512195,0.0981618,10.6732969,0.1603053,-4.0992365,-2.1145039
5360,17.2788658,2.8586621,19.6126022,-119.9160309,70.9923630,145.8625946,0.6536137,0.0981618,10.6828737,0.1374046,-3.8702290,-1.8778626
5370,19.6126022,3.2656744,19.6126022,-14.7557249,-73.2061081,39.6793900,0.6416427,0.0454896,10.6948442,0.2366412,-3.9236641,-2.7404580
5380,19.6126022,3.3662305,19.6126022,101.6946564,-174.1908417,-71.6717529,0.7014975,0.1340746,10.6948442,0.1908397,-3.8091602,-2.4351146
5390,15.2126799,3.2513094,17.8869896,205.3664093,-223.3893127,-151.1145020,0.6631905,0.0191535,10.6421719,0.0610687,-3.7557251,-2.7480917
5400,10.2734671,4.3478479,12.8639803,250.1297760,-227.4198456,-176.0381622,0.6272776,0.1173153,10.6948442,0.0229008,-3.9007633,-2.3282442
5410,6.7348547,6.7252784,6.7372489,250.1297760,-203.1603088,-161.3587799,0.6057299,0.0742199,10.7427282,0.0763359,-3.9007633,-2.3282442
5420,5.1115947,9.6294298,-0.6991033,250.1297760,-175.7557220,-135.0915985,0.6105183,0.1077385,10.5823174,0.0229008,-3.7938931,-2.2900763
5430,5.8083038,11.6668854,-4.8266859,190.6488495,-184.5572510,-136.0458069,0.6200951,0.0311245,10.6589317,0.2213740,-3.9007633,-2.0534351
5440,4.9032998,11.2790270,-6.4738884,136.9847260,-176.1450348,-146.1145020,0.6344602,0.0718257,10.6709023,0.1068702,-3.8091602,-2.8702290
5450,2.5522060,10.9342632,-8.3533268,97.2671738,-149.2595367,-136.4198456,0.6847382,0.1125269,10.6397781,0.1679389,-3.8473282,-2.3511450
5460,0.5315101,10.9701757,-10.1274214,58.5419846,-127.0687027,-117.5648880,0.5865764,0.0622489,10.6397781,0.1450382,-3.8931298,-2.3587787
5470,-1.5658000,11.3532467,-11.1976242,8.0534353,-109.8702316,-89.9160309,0.6320660,0.0359128,10.6828737,0.1755725,-3.9160306,-2.0763359
5480,-3.0549858,11.4849272,-10.9079275,-50.7633591,-74.5801544,-51.1603050,0.6512195,0.0933734,10.7283630,0.0381679,-3.8320611,-2.0305343
5490,-4.1084290,11.0587606,-9.3924055,-110.5190811,-3.0229008,-4.1603055,0.6177009,0.0957676,10.7163916,0.0076336,-3.9694657,-2.4503818
5500,-5.0158267,9.9622221,-7.2232695,-160.1145020,82.4274826,43.0076332,0.6560079,0.1077385,10.6637201,0.1145038,-3.9465649,-2.0763359
5510,-5.6431046,8.6478119,-4.9655490,-199.6946564,144.6183167,85.7022934,0.6081241,0.0909792,10.7259684,0.1755725,-3.7633588,-2.4580152
5520,-5.0565281,6.3709383,-2.4133430,-228.1603088,166.8091583,119.9770966,0.6320660,0.1244979,10.7020273,0.0839695,-3.7938931,-2.4656489
5530,-2.1763182,4.5657191,1.0175306,-236.0534363,127.2290039,135.7480927,0.6320660,0.0383070,10.7187862,0.1679389,-3.9465649,-2.5954199
5540,2.7389526,3.8833754,5.7652082,-220.0152740,23.6106873,124.0534363,0.5913648,0.0646431,10.6900558,0.0839695,-3.8244274,-2.6412213
5550,6.9814563,3.8977404,8.4586716,-192.0915985,-70.3282471,94.1450348,0.6009415,0.1077385,10.6732969,0.0992366,-3.7862597,-2.1908398
5560,10.0029240,3.9719603,10.4793673,-164.1221313,-112.2748108,58.9541969,0.6224893,0.0646431,10.6565371,-0.1832061,-3.7099237,-2.5954199
5570,13.5151997,4.2568688,14.0323448,-134.3664093,-129.2748108,13.8473282,0.6033357,0.0814024,10.6637201,0.0763359,-4.0076337,-2.2824428
5580,16.0793762,3.8809812,17.7960110,-93.8625946,-134.3053436,-45.4656487,0.5841822,0.0383070,10.7259684,0.0610687,-3.7557251,-2.2137403
5590,16.0171280,3.1052637,19.6126022,-37.4961815,-128.2824402,-109.4885483,0.6272776,0.0766141,10.7259684,0.0992366,-4.0229006,-2.4122138
5600,12.8520088,1.6304430,19.6126022,28.4885502,-121.8778610,-161.0763397,0.6727672,0.0598547,10.5990763,0.1374046,-3.8244274,-2.4885497
5610,9.2032642,0.6703730,19.6126022,94.2900772,-140.4045868,-193.9694672,0.6560079,0.0598547,10.6828737,0.2671756,-3.8702290,-2.9770992
5620,6.0022330,0.6464311,19.6126022,149.0763397,-178.3129730,-201.2213745,0.5913648,0.1125269,10.7618818,0.0229008,-3.9083970,-2.5801528
5630,5.9758968,1.5634058,18.7201672,192.2671814,-197.2671814,-197.1984711,0.5985473,0.1412572,10.7211800,0.1297710,-3.9236641,-2.5954199
5640,6.4236102,2.6527619,16.0027618,226.5954132,-172.7099304,-194.8625946,0.6105183,0.0742199,10.7810354,0.2213740,-3.9541984,-2.3740458
5650,6.4930420,3.3662305,13.0866394,250.1297760,-126.2671738,-196.3511505,0.6655847,0.0478838,10.7594872,0.1526718,-3.8244274,-2.2061069
5660,5.5880380,3.9959023,9.4067707,250.1297760,-101.5114517,-200.8167877,0.5530578,0.0766141,10.6709023,0.0610687,-3.8473282,-2.4274809
5670,4.8506279,4.4053087,5.2624283,250.1297760,-111.0687027,-216.4351196,0.6943150,0.0526722,10.6373835,0.2290076,-3.9312978,-2.6412213
5680,2.9448531,4.5465660,0.0861908,250.1297760,-144.6106873,-240.9160309,0.6392486,0.0407012,10.6780853,0.1450382,-3.5114503,-2.0916030
5690,-0.2250538,4.4747400,-5.3318601,250.1297760,-191.0458069,-250.1374054,0.6320660,0.0574605,10.7163916,0.0992366,-3.9923663,-2.1755726
5700,-4.6351509,5.3581958,-10.1824875,250.1297760,-237.1832123,-250.1374054,0.6368544,0.1125269,10.6876621,0.1908397,-3.8091602,-2.6030533
5710,-8.8130112,6.6127515,-13.3092995,198.9923706,-242.9465637,-250.1374054,0.6536137,0.0263361,10.6637201,0.1603053,-4.0916033,-2.8091602
5720,-12.6963863,7.4986014,-14.9828377,125.1679382,-196.1755676,-207.5343475,0.7014975,0.0957676,10.4458485,0.2519084,-3.7099237,-2.2748091
5730,-16.1320477,7.9654684,-14.0131912,46.7633591,-112.3129807,-133.7480927,0.7709290,0.0143651,10.7187862,0.0534351,-2.9465649,-2.5343511
5740,-19.1056328,8.0827837,-12.0667152,-21.9694653,-5.8244276,-40.8396950,0.6991033,0.0502780,10.6493549,0.1984733,-3.5877862,-2.5038168
5750,-19.6131992,7.2448173,-10.1417866,-79.2366409,102.9389343,64.7633591,0.5937590,0.0071826,10.7379398,0.2137405,-3.6717558,-2.2824428
5760,-19.4623661,6.6941538,-8.4227581,-126.4427490,187.5343475,166.5648804,0.5961532,0.0574605,10.7163916,0.1297710,-3.7633588,-2.5343511
5770,-16.1631737,5.4180508,-6.8354111,-168.1297760,244.1526642,250.0458069,0.6368544,0.0718257,10.6804790,0.0000000,-3.9312978,-1.8625954
5780,-12.6365318,4.3095412,-5.0301919,-208.5801544,250.1297760,250.1297760,0.7038917,0.0861908,10.7211800,0.0381679,-3.6870229,-2.1068702
5790,-9.3110027,2.7700772,-2.5426292,-250.1374054,250.1297760,250.1297760,0.6631905,0.0933734,10.6804790,0.0763359,-3.8167939,-2.7938931
5800,-5.9375896,1.7022687,0.5291159,-250.1374054,250.1297760,250.1297760,0.6224893,0.0766141,10.7211800,0.0076336,-3.9770992,-2.7404580
5810,-4.0030847,0.3639168,3.7516949,-250.1374054,250.1297760,250.1297760,0.6248835,0.0909792,10.7187862,0.0687023,-3.8015268,-2.1145039
5820,-1.7980363,-1.5227045,6.6869712,-250.1374054,250.1297760,250.1297760,0.6129125,0.0167593,10.6924505,0.0229008,-3.9160306,-2.2061069
5830,3.0166788,-2.7988074,10.4003592,-250.1374054,250.1297760,250.1297760,0.6033357,0.1149211,10.6349897,0.1450382,-3.8778627,-2.6106870
5840,11.6142130,-2.2864509,16.3116131,-250.1374054,190.3358765,250.1297760,0.6679789,0.1125269,10.7092094,0.1755725,-3.8931298,-2.0152671
5850,19.6126022,0.6129125,19.6126022,-188.7480927,-27.9389305,250.1297760,0.6344602,0.0814024,10.6852674,0.1755725,-3.9465649,-2.4809160
5860,19.6126022,3.8618276,19.6126022,-68.9083939,-208.4885559,109.9160309,0.6009415,0.0143651,10.6038647,0.1145038,-3.7633588,-2.4732823
5870,19.6126022,3.2752512,19.6126022,62.7404594,-250.1374054,-82.5877838,0.6847382,0.0981618,10.6685085,0.2290076,-3.9694657,-2.2137403
5880,19.6126022,2.5665710,19.6126022,163.7633514,-250.1374054,-222.8320618,0.6392486,0.1292862,10.6756907,0.0152672,-3.7251909,-2.0687022
5890,16.8072090,2.9328821,17.1184540,218.6183167,-250.1374054,-250.1374054,0.5602403,0.0981618,10.7666702,0.1068702,-3.7938931,-2.7175572
5900,12.0451670,3.4739690,12.0595322,230.1755676,-250.1374054,-250.1374054,0.6607963,0.0790083,10.6349897,0.1603053,-3.6564887,-1.7862595
5910,11.2933912,4.0030847,9.2032642,226.9389343,-250.1374054,-250.1374054,0.6033357,0.0646431,10.7116032,0.0305344,-3.6259542,-2.6717558
5920,9.9837704,4.8410511,7.1346846,228.0992432,-250.1374054,-250.1374054,0.6512195,0.0790083,10.6756907,0.0610687,-3.9007633,-2.7480917
5930,7.2927012,5.7676024,5.2193332,229.7786255,-225.2977142,-250.1374054,0.5554519,0.1268920,10.5823174,0.0763359,-4.0000000,-1.6259542
5940,5.0206151,6.2512288,2.7150109,228.3664093,-212.3740387,-250.1374054,0.6081241,0.1173153,10.6852674,0.1145038,-3.8778627,-2.1908398
5950,2.8658447,6.9263902,-0.1221037,224.2290039,-203.2671814,-250.1374054,0.6655847,0.0861908,10.6661139,-0.0381679,-3.8015268,-2.5114503
5960,-0.2442073,6.9646969,-2.7892308,215.9694672,-206.6717529,-250.1374054,0.6607963,0.1604107,10.7906122,0.0000000,-3.8244274,-1.9541985
5970,-3.7062054,6.6079631,-5.4898763,202.0152740,-227.4961853,-250.1374054,0.6775556,0.0454896,10.7187862,0.1679389,-3.7862597,-2.6717558
5980,-6.6750002,6.7755561,-8.0372944,180.6641235,-246.3053436,-250.1374054,0.6296718,0.0454896,10.6852674,-0.0610687,-3.9541984,-2.3435113
5990,-9.0883436,7.1227136,-9.6174593,148.1832123,-249.1297760,-250.1374054,0.6153067,0.0359128,10.6349897,0.1297710,-3.7938931,-2.3358779
6000,-10.9175043,7.5919747,-11.0491848,102.7557220,-222.4885559,-210.9923706,0.6177009,0.1005560,10.7977943,0.0152672,-3.9389312,-2.7251909
6010,-12.8448267,7.6494355,-11.2909975,50.0000000,-166.8396912,-156.8091583,0.6943150,0.1125269,10.6685085,0.0381679,-3.8702290,-1.9923664
6020,-14.5638542,7.4555058,-10.2279778,-1.6030535,-98.7251892,-94.4122162,0.5913648,0.0766141,10.6948442,-0.1145038,-3.7175572,-2.3969467
6030,-16.5270901,6.9359670,-8.4538832,-45.4274826,-29.2824421,-22.4198475,0.6057299,0.1244979,10.6445665,0.1068702,-3.9465649,-2.2977099
6040,-17.2477417,6.5409255,-6.5074067,-75.3816757,29.8473282,53.3893127,0.6536137,0.0694315,10.7187862,0.0534351,-3.7404580,-2.4656489
6050,-16.4696293,6.0620875,-5.1115947,-94.9312973,77.0381699,127.0457993,0.6488253,0.0909792,10.7666702,0.1221374,-3.9389312,-2.6183207
6060,-14.6213150,5.7245069,-4.5681133,-109.0687027,117.3740463,193.8396912,0.6512195,0.1197095,10.6996326,0.0687023,-3.9389312,-2.2748091
6070,-11.3867655,5.0493455,-4.3909435,-124.0381699,146.6641235,250.1297760,0.6368544,0.1125269,10.5918941,0.1984733,-3.9465649,-2.4885497
6080,-8.0803890,4.6279683,-4.1874375,-144.9084015,166.4427490,250.1297760,0.6272776,0.1388630,10.6709023,0.1603053,-3.8778627,-2.4656489
6090,-3.5338237,3.6655040,-3.1746953,-164.8931274,175.1526642,250.1297760,0.6009415,0.1197095,10.6637201,0.0992366,-3.8625953,-2.7709923
6100,1.6400198,3.5912843,-1.2234308,-175.0763397,163.8167877,250.1297760,0.5434810,0.0885850,10.6661139,0.0076336,-3.7099237,-2.2061069
6110,8.6837254,4.2688398,1.3239868,-167.5267181,113.9847336,250.1297760,0.6512195,0.0766141,10.6828737,0.1374046,-3.8778627,-1.8473282
6120,16.9724083,6.0549049,4.1611013,-137.3969421,17.1526718,245.2671814,0.6033357,0.0790083,10.7451220,0.1984733,-4.1221375,-2.4809160
6130,17.5829277,6.8162575,9.1936874,51.5877876,-141.2900696,-247.8702240,0.6296718,0.0718257,10.6732969,0.0076336,-3.8015268,-2.3435113
6140,13.1752243,5.7484488,7.9965930,86.1526718,-131.3969421,-250.1374054,0.6105183,0.1005560,10.7499104,0.0305344,-3.7938931,-2.3816793
6150,9.0356712,5.8059096,5.8944945,113.2519073,-111.8473282,-250.1374054,0.6584021,0.0335187,10.7379398,0.1832061,-3.9007633,-2.1832061
6160,6.7061248,6.1770086,3.2848279,125.0381699,-88.3282471,-250.1374054,0.6392486,0.0502780,10.6541433,0.0305344,-3.8702290,-2.3358779
6170,4.0174499,6.2272868,0.3926471,122.0916061,-64.8091583,-250.1374054,0.6368544,0.0790083,10.6900558,0.1679389,-3.8015268,-2.6183207
6180,0.7565638,5.8897061,-1.7309990,111.9923630,-50.5496178,-250.1374054,0.6584021,0.1292862,10.7044210,0.0305344,-3.6946564,-2.5954199
6190,-2.6000898,4.8793583,-3.3566537,100.3740463,-56.8625946,-250.1374054,0.6200951,0.0981618,10.8337069,0.0763359,-3.9007633,-2.3816793
6200,-6.8880830,4.0964580,-4.6303625,92.4961853,-80.0916061,-250.1374054,0.6488253,0.1292862,10.6086531,0.1679389,-3.8702290,-2.2213740
6210,-12.4976692,3.3039815,-5.3893204,84.8625946,-117.4198456,-250.1374054,0.6631905,0.1173153,10.6828737,0.0305344,-3.8549619,-2.2290077
6220,-17.9755745,3.1315999,-5.8897061,75.9618301,-151.3129730,-250.1374054,0.5937590,0.0646431,10.6661139,0.1374046,-3.7786260,-2.6335878
6230,-19.6131992,4.0796990,-6.6534524,53.9160309,-145.5648804,-186.6183167,0.6488253,0.0933734,10.7403336,0.0229008,-3.9160306,-2.4351146
6240,-19.6131992,4.9248476,-6.9048424,15.0534353,-95.1984711,-93.8015289,0.7062859,0.0742199,10.6756907,0.1374046,-3.7862597,-2.0839694
6250,-19.6131992,5.0038562,-6.0764527,-25.7480907,-21.9541988,4.8473282,0.5937590,0.0550664,10.6086531,0.1526718,-3.7480917,-2.1603053
6260,-19.6131992,4.8266859,-4.6973996,-54.7251892,48.4274826,99.2366409,0.6560079,0.0263361,10.7235746,0.2061069,-3.7480917,-2.3129771
6270,-19.6131992,4.4723458,-3.6655040,-72.0000000,95.4503784,174.5572510,0.6560079,0.0526722,10.5655584,-0.0839695,-3.8473282,-2.2671757
6280,-17.7864342,4.1587071,-3.0932927,-82.7328262,117.4732819,234.9618378,0.6607963,0.0766141,10.6709023,0.2519084,-3.8549619,-2.3587787
6290,-14.1927547,3.9935081,-3.0645626,-91.4503784,130.7862549,250.1297760,0.6703730,-0.0095768,10.7235746,0.0916031,-3.9007633,-2.3206108
6300,-10.7235746,3.4572096,-3.5936785,-105.0992355,139.3816833,250.1297760,0.6464311,0.0191535,10.6828737,0.0839695,-3.8702290,-2.0687022
6310,-7.7428088,2.7509236,-3.5864959,-126.2900772,152.0686951,250.1297760,0.6368544,0.1053443,10.6302013,0.0229008,-3.9083970,-2.2977099
6320,-3.5434003,2.1140692,-2.8323262,-148.5114441,157.3664093,250.1297760,0.6320660,0.1029501,10.7116032,0.0687023,-3.8625953,-2.2290077
6330,1.1994889,1.6783268,-1.4365137,-163.3740387,150.7175598,250.1297760,0.6464311,0.1005560,10.6828737,0.2061069,-3.7480917,-2.6793892
6340,7.6614060,2.1356170,0.7876883,-166.1679382,123.7328262,250.1297760,0.6823440,0.1580165,10.6661139,0.0229008,-3.7022901,-2.0839694
6350,15.5263186,3.8833754,3.5625539,-148.9770966,52.5648842,250.1297760,0.6368544,0.1340746,10.7139978,-0.0152672,-3.9312978,-2.5877862
6360,19.6126022,7.2496057,6.0453281,-115.3740463,-32.1832047,237.2671814,0.6799498,0.0383070,10.7475166,-0.0305344,-3.8473282,-2.4351146
6370,19.6126022,10.4482431,8.1450329,-75.5572510,-63.1068687,114.2977066,0.6320660,0.0407012,10.6756907,-0.0610687,-3.9847329,-2.5954199
6380,19.6126022,11.4705620,9.3301563,-45.9541969,-62.3816795,-5.9541984,0.6177009,0.0694315,10.6685085,0.1297710,-3.8778627,-2.1908398
6390,19.6126022,10.0172882,10.8480721,-14.9083967,-61.9312973,-118.7099228,0.6416427,0.1029501,10.7546988,0.0229008,-3.7404580,-2.4274809
6400,19.6126022,7.3741035,11.5495701,26.9618320,-78.6106873,-202.7175598,0.5937590,0.1149211,10.7307568,0.0992366,-3.8854961,-2.2900763
6410,16.5582142,5.4324160,10.5775290,73.7099228,-100.0305328,-250.1374054,0.6296718,0.0598547,10.6828737,0.1755725,-3.8167939,-2.2824428
6420,11.8392668,4.9823084,8.5735922,113.4809189,-105.9083939,-250.1374054,0.6153067,0.0670373,10.7331514,0.0305344,-3.8396947,-2.1908398
6430,8.2862902,5.7771792,6.1339135,140.8091583,-87.4198456,-250.1374054,0.6368544,0.1029501,10.6709023,0.1526718,-3.9541984,-2.7633588
6440,5.3534074,6.1171541,3.2369442,148.8473358,-56.9923668,-250.1374054,0.6584021,0.0598547,10.6828737,0.1755725,-3.7633588,-2.7557251
6450,2.5881188,6.2153158,0.3112446,142.4427490,-27.8854961,-250.1374054,0.6081241,0.1053443,10.6134415,0.1755725,-3.8244274,-2.2061069
6460,-0.3208214,5.6909885,-2.2649033,131.4274750,-10.7862597,-250.1374054,0.6272776,0.1125269,10.6852674,0.0534351,-4.0076337,-2.1221373
6470,-3.3925664,4.7093706,-4.2089849,118.6793900,-10.3816795,-250.1374054,0.6679789,0.1125269,10.7092094,0.1755725,-3.7480917,-1.9847329
6480,-7.9965930,3.7085996,-5.9806852,105.2519073,-30.2671757,-250.1374054,0.5746055,0.0550664,10.7331514,0.0534351,-4.0076337,-2.8549619
6490,-12.9238348,3.2249732,-7.2615767,89.7938919,-60.0076332,-250.1374054,0.6105183,0.1316804,10.5942879,0.0458015,-4.0458016,-2.6870229
6500,-18.2700596,3.5050933,-7.9511032,67.9007645,-72.8854980,-237.2900696,0.6703730,0.0574605,10.6062593,0.0992366,-3.6106870,-2.0610688
6510,-19.6131992,4.2592630,-8.3916340,31.9541988,-47.1908379,-156.4809113,0.6464311,0.0861908,10.4219065,0.2442748,-4.4045801,-2.3893130
6520,-19.6131992,4.9823084,-7.9582858,-12.8702288,10.3129768,-64.7175598,0.7374104,0.0718257,10.5775290,0.0534351,-3.8167939,-2.2595420
6530,-19.6131992,5.1427188,-6.3948798,-56.0152664,85.2137375,26.4427490,0.7230452,0.0622489,10.6732969,0.0305344,-3.2671757,-2.3969467
6540,-19.6131992,5.0038562,-4.6136031,-88.7633591,150.9236603,104.9465637,0.6679789,0.0933734,10.7762470,0.1526718,-3.6335878,-2.3969467
6550,-17.6451759,4.9009056,-3.1842721,-111.4885483,201.0992432,170.0686951,0.6033357,0.0407012,10.6541433,0.1221374,-3.9236641,-2.5801528
6560,-15.1025467,5.0493455,-2.4420733,-129.6030579,236.9389343,222.7404633,0.6464311,0.0933734,10.7618818,0.2519084,-3.9694657,-2.1679389
6570,-12.6532917,5.0996237,-2.0183017,-147.5648804,250.1297760,250.1297760,0.6129125,0.0646431,10.6397781,0.1145038,-4.2442746,-2.7709923
6580,-9.7132263,4.4364328,-1.7166338,-164.0686951,250.1297760,250.1297760,0.6512195,0.1221037,10.6349897,0.1068702,-3.8854961,-2.5877862
6590,-6.7228842,3.7540891,-1.6376256,-174.6564941,229.1297760,250.1297760,0.6607963,0.0885850,10.6828737,0.0229008,-3.9007633,-2.3740458
6600,-3.5984666,3.2153964,-1.4101776,-181.4122162,198.1908417,250.1297760,0.6224893,0.1268920,10.6709023,0.1755725,-3.8702290,-1.9007634
6610,0.6536137,2.8586621,-0.4955972,-182.6259613,151.8625946,250.1297760,0.6272776,0.1029501,10.6948442,0.0839695,-3.7557251,-2.4580152
6620,5.7580256,2.9233053,1.1444225,-172.2519073,78.2977066,250.1297760,0.6895266,0.0933734,10.7355452,0.0763359,-3.9465649,-2.8396947
6630,11.3197279,4.3717899,3.4739690,-144.1908417,-22.3740463,250.1297760,0.6631905,0.0766141,10.6900558,0.1450382,-3.7633588,-2.4885497
6640,17.3866043,6.1458845,6.6175399,-96.1374054,-122.5877838,194.4885559,0.6703730,0.1029501,10.6014709,0.2137405,-3.8091602,-2.2900763
6650,19.6126022,8.5304966,8.8154058,-37.1145020,-177.3435059,101.0610657,0.6248835,0.0454896,10.7858238,0.1832061,-3.7862597,-2.3053436
6660,19.6126022,10.6709023,9.2750902,12.5190840,-170.8091583,7.2824426,0.5123565,0.1077385,10.6972389,0.0763359,-4.0610685,-2.2137403
6670,19.6126022,10.9845409,9.9765873,41.2824440,-137.8015289,-63.2366409,0.6416427,0.0167593,10.7762470,-0.0305344,-3.8854961,-2.3893130
6680,17.8391056,10.7211800,10.2303715,60.7557259,-104.5114517,-119.7480927,0.5698171,0.0550664,10.7475166,0.0992366,-3.8167939,-2.1603053
6690,14.6069498,9.6701307,9.5360565,82.9923630,-87.5572510,-169.1908417,0.6105183,0.0670373,10.6254129,-0.0229008,-4.2442746,-2.1679389
6700,11.5399933,8.3796635,8.0540533,111.9160309,-81.3206100,-208.7328186,0.6200951,0.1244979,10.5990763,0.0305344,-3.6717558,-2.4961832
6710,8.6286592,7.5129666,6.4236102,146.8015289,-69.7786255,-242.5343475,0.6799498,0.1508339,10.8432837,0.0534351,-3.5038168,-2.6106870
6720,5.6598639,6.9838505,3.9312592,176.6946564,-71.8473282,-250.1374054,0.5817881,0.0718257,10.4697905,0.1374046,-4.3969464,-2.3206108
6730,2.5546002,6.4020624,0.4046180,192.5496216,-83.6335907,-250.1374054,0.6679789,0.1149211,10.7187862,0.1679389,-4.1450381,-2.5419848
6740,0.5602403,6.1985564,-2.4205256,191.9389343,-95.0534363,-250.1374054,0.6344602,0.0742199,10.6134415,0.1374046,-3.7709923,-2.5190840
6750,-1.3838415,5.8801293,-4.2281384,178.8625946,-104.3969498,-250.1374054,0.6344602,0.0454896,10.7882175,0.2137405,-3.8625953,-2.8396947
6760,-4.2018023,5.3893204,-5.4731169,158.0763397,-110.7938919,-250.1374054,0.6943150,0.1053443,10.6924505,0.0305344,-3.6564887,-2.1679389
6770,-8.2838955,4.8051381,-6.4499464,131.6870270,-109.5419846,-250.1374054,0.6607963,0.0885850,10.5918941,0.1450382,-3.8244274,-2.4580152
6780,-13.2781744,4.5681133,-6.8306227,103.8167953,-99.8167953,-250.1374054,0.6320660,0.1077385,10.6661139,0.1068702,-3.8931298,-2.4503818
6790,-19.3211098,4.5609307,-7.4100165,72.7480927,-79.9770966,-202.1450348,0.6464311,0.0718257,10.7762470,0.0992366,-3.9389312,-2.1832061
6800,-19.6131992,4.7285242,-8.2288294,38.0763359,-47.2213745,-111.8015289,0.6584021,0.0957676,10.5942879,0.0687023,-3.9465649,-2.4885497
6810,-19.6131992,4.8458395,-9.1146793,-1.2213740,-4.4351144,-3.7557251,0.6153067,0.1340746,10.6421719,0.0076336,-3.9312978,-2.3053436
6820,-19.6131992,5.0397687,-9.4307127,-42.9083977,49.4122124,100.6259537,0.6416427,0.1316804,10.5727406,0.1984733,-3.9618320,-2.0152671
6830,-19.6131992,4.8889351,-9.0644016,-87.5496216,105.4503784,188.1603088,0.7014975,0.1101327,10.6373835,0.1679389,-3.5572519,-2.5496182
6840,-16.7210197,4.3071470,-7.9774394,-134.8167877,155.5801544,250.1297760,0.6224893,0.1125269,10.7163916,0.1145038,-3.4198472,-3.2290077
6850,-13.3452120,4.0725164,-6.6989422,-177.4198456,190.6946564,250.1297760,0.4836263,0.0909792,10.6852674,0.0000000,-4.0076337,-2.7938931
6860,-9.9574337,3.4260850,-4.9056940,-211.3893127,206.9236603,250.1297760,0.6991033,0.1867468,10.5990763,0.0610687,-3.6412213,-1.9236641
6870,-7.7021074,2.6455793,-3.2489152,-234.8931274,212.2290039,250.1297760,0.5841822,0.0790083,10.6493549,0.0534351,-4.0152674,-2.5496182
6880,-5.1786318,1.5921360,-1.4436963,-248.3664093,208.9160309,250.1297760,0.5482694,0.0550664,10.8408899,0.2061069,-4.3664122,-2.3816793
6890,-1.6400198,0.4572902,0.1819584,-250.1374054,188.5190887,250.1297760,0.5817881,0.0574605,10.6206245,0.4045801,-4.6870227,-2.4503818
6900,3.4572096,0.2202654,2.4013720,-244.3358765,144.2442780,250.1297760,0.7996593,0.1125269,10.6661139,0.0381679,-3.6030533,-2.2671757
6910,10.0244713,1.1324517,5.2720051,-222.0000000,69.2061081,250.1297760,0.6105183,0.1125269,10.7810354,0.0534351,-3.7938931,-1.8854961
6920,-4.1132174,5.7915444,-5.2217274,127.0610657,-93.0229034,-250.1374054,0.6775556,0.0766141,10.6421719,0.0458015,-3.9465649,-2.2824428
6930,-7.2807302,5.5018473,-5.2049680,93.6106873,-73.5496216,-250.1374054,0.6631905,0.0550664,10.6182299,-0.0992366,-3.7328243,-2.4427481
6940,-11.2622671,5.1953912,-5.7676024,67.4122162,-46.6870232,-236.7251892,0.5698171,0.1053443,10.7116032,0.1145038,-3.8778627,-2.1297710
6950,-15.7801027,5.3438311,-6.9958215,40.2977104,-17.7480907,-179.0152740,0.5722113,0.0670373,10.6804790,0.1908397,-3.8549619,-2.4885497
6960,-19.6131992,5.4132624,-7.9032192,6.5648856,9.0152674,-102.0916061,0.6368544,0.0526722,10.6804790,0.0763359,-3.9923663,-2.5190840
6970,-19.6131992,5.4419928,-8.8632889,-34.1832047,45.3358765,-10.9694653,0.6344602,0.0526722,10.7570934,0.1450382,-4.0916033,-2.7557251
6980,-19.6131992,5.3941088,-9.0356712,-81.0457993,99.6793900,84.7862625,0.5602403,0.0622489,10.6421719,0.2137405,-3.9236641,-2.1755726
6990,-18.4807491,5.3174949,-7.8840661,-126.5114517,160.3053436,168.7175598,0.5985473,0.0814024,10.6421719,0.0763359,-3.9389312,-2.5801528
7000,-15.3276005,4.8649931,-6.0716643,-167.0305328,214.1908417,233.0992432,0.6464311,0.0215477,10.7427282,0.2366412,-3.6870229,-2.0763359
7010,-12.8400383,4.3622131,-4.2640514,-200.1908417,250.1297760,250.1297760,0.5913648,0.1364688,10.7642756,0.1145038,-3.7709923,-2.1221373
7020,-10.1346035,3.7493007,-2.4540441,-224.4809113,250.1297760,250.1297760,0.6368544,0.1197095,10.7523050,0.0534351,-3.7175572,-2.1603053
7030,-7.6230993,3.0047078,-1.2186425,-240.3664093,250.1297760,250.1297760,0.6105183,0.0694315,10.7762470,0.0000000,-3.7022901,-2.6335878
7040,-4.8961172,1.9656296,0.3016679,-248.5496216,246.5648804,250.1297760,0.6512195,0.0191535,10.7044210,0.0916031,-3.8244274,-2.2824428
7050,-2.1571648,0.7637464,1.6280488,-250.1374054,237.1679382,250.1297760,0.5817881,0.0526722,10.8839855,0.1297710,-3.8244274,-2.4656489
7060,2.1092808,0.7972651,3.9863255,-247.8320618,207.2595367,250.1297760,0.5554519,0.0622489,10.6565371,0.1068702,-4.0381680,-2.5572519
7070,7.1658092,1.3551112,6.6414814,-231.7557220,154.5038147,250.1297760,0.6224893,0.0359128,10.7139978,0.0763359,-4.0076337,-2.4351146
7080,13.2231083,2.9137285,9.1553802,-201.3969421,81.3206100,250.1297760,0.6009415,0.1292862,10.6254129,0.1450382,-3.8091602,-2.3740458
7090,19.6126022,5.9375896,12.5192165,-152.3206177,-16.7404575,202.2671814,0.5769997,0.1029501,10.6996326,0.1145038,-3.5343511,-2.6946564
7100,19.6126022,7.9630742,15.2318335,-85.0687027,-88.9083939,83.5419846,0.5961532,0.0861908,10.8097658,-0.0381679,-3.4503818,-2.1908398
7110,19.6126022,8.7627335,16.0027618,-12.1832066,-124.9923630,-39.5725174,0.5793939,0.1221037,10.8361015,0.0534351,-3.6641221,-2.8549619
7120,19.6126022,8.3030491,15.6220865,55.2900772,-150.9847260,-139.7022858,0.6153067,0.1436514,10.6637201,0.0076336,-3.6259542,-2.6564887
7130,17.2309818,7.1275020,13.0794573,116.5496216,-180.9923706,-212.5343475,0.5746055,0.1484398,10.6493549,0.1603053,-3.7557251,-2.2748091
7140,13.0746689,6.8114691,10.3572636,168.3358765,-187.5496216,-250.1374054,0.6871324,0.1484398,10.6732969,0.1068702,-3.8854961,-2.2748091
7150,8.6502066,6.7157016,7.1658092,202.4961853,-182.4351196,-250.1374054,0.6320660,0.0814024,10.7307568,-0.0229008,-4.0458016,-2.5572519
7160,4.8913293,6.9982157,4.0342093,215.5725250,-173.3282471,-250.1374054,0.5386927,0.0933734,10.6996326,0.0992366,-4.0381680,-2.6412213
7170,1.3886299,7.1131368,0.2896969,208.8778687,-157.7633514,-250.1374054,0.6368544,0.1221037,10.7235746,0.0839695,-3.7251909,-2.5190840
7180,-1.1516051,7.4100165,-2.0661855,186.0534363,-135.5572510,-250.1374054,0.5602403,0.0861908,10.7068148,0.1603053,-3.9618320,-2.2213740
7190,-3.9623835,7.9798336,-4.1754665,151.3435059,-110.1755753,-250.1374054,0.6153067,0.0861908,10.6732969,-0.0687023,-4.2671757,-2.0000000
7200,-6.1985564,8.0301113,-5.5784616,108.3511429,-80.7251892,-250.1374054,0.6679789,0.1053443,10.6780853,-0.0076336,-4.2290077,-2.0381680
7210,-8.8010406,8.2000990,-6.4547348,65.5496216,-40.1832047,-214.3206177,0.6177009,0.1005560,10.6780853,0.1526718,-4.3893127,-2.0763359
7220,-11.7267399,7.9391322,-6.6151457,26.6412220,3.4045801,-162.4198456,0.7230452,0.0550664,10.6852674,0.0763359,-3.8167939,-2.8320611
7230,-13.7857428,8.3868456,-5.0732875,-2.8167939,16.4274807,-111.4351120,0.7302278,0.1005560,10.7523050,0.1297710,-3.5496182,-2.7786260
7240,-16.9125538,6.8880830,-5.4084740,-27.0076332,23.0839691,-42.6870232,0.5937590,0.0981618,10.6685085,-0.1221374,-3.6335878,-2.8015268
7250,-16.6252518,7.3429790,-5.5138183,-44.2748108,47.7480927,33.7404594,0.6488253,0.0622489,10.7427282,0.0458015,-4.0610685,-2.2366412
7260,-14.5399122,7.1514440,-5.3725610,-58.7099228,62.1374054,100.9542007,0.7493813,0.1268920,10.6206245,0.1374046,-3.7251909,-2.1374047
7270,-11.5447817,7.1011658,-5.3007355,-74.3740463,84.2977066,156.5419922,0.6129125,0.0622489,10.8025827,0.0076336,-3.6259542,-2.0229008
7280,-9.4187412,6.6055689,-4.9799142,-96.0534363,117.7480927,200.7480927,0.5051740,0.0454896,10.8600435,0.1755725,-3.9694657,-2.4961832
7290,-7.6829538,5.9519548,-4.4412212,-121.6335907,142.4274750,239.9389343,0.5865764,0.0742199,10.7283630,0.0839695,-4.0763359,-2.6259542
7300,-5.2193332,5.3821378,-3.6678982,-145.5496216,155.9160309,250.1297760,0.5817881,0.0766141,10.6206245,0.1374046,-3.9541984,-2.3511450
7310,-3.5266411,4.7357068,-2.9161227,-164.1832123,153.9084015,250.1297760,0.6727672,0.1029501,10.7403336,-0.0152672,-3.6412213,-2.7175572
7320,-1.6495966,3.9288650,-1.9656296,-177.4656525,143.6641235,250.1297760,0.6368544,0.0837966,10.6852674,0.1603053,-3.9160306,-2.5801528
7330,0.3567342,3.5362179,-0.8331779,-183.9694672,123.9694672,250.1297760,0.6057299,0.0478838,10.5990763,0.1068702,-4.0458016,-2.3969467
7340,3.6008608,3.4093258,0.4692611,-182.6870270,92.2595444,250.1297760,0.6655847,0.0718257,10.7379398,0.1221374,-4.0534353,-2.2977099
7350,8.0037756,3.9312592,1.8076130,-173.0610657,48.2061081,250.1297760,0.6105183,0.0454896,10.7810354,0.0076336,-3.9770992,-2.3740458
7360,12.4306316,5.3462253,3.2369442,-157.8702240,-2.1221373,225.9236603,0.6368544,0.0981618,10.7139978,0.0839695,-3.8702290,-2.5038168
7370,16.1368370,7.0317345,7.2280579,-121.0229034,-28.0839691,158.8702240,0.6775556,0.1197095,10.7235746,0.1068702,-3.8167939,-2.4427481
7380,18.2293587,7.4602942,8.0995426,-81.8244247,-68.6335907,84.3740463,0.6799498,0.1077385,10.6828737,0.2290076,-3.9389312,-2.1145039
7390,17.5637741,7.8242111,9.0835552,-38.2748108,-85.1603088,14.4732828,0.6248835,0.0430954,10.8265247,0.0534351,-3.8396947,-2.3969467
7400,16.0386753,7.8864598,9.3708572,4.9083967,-100.5496216,-41.7099228,0.6272776,0.0622489,10.7475166,0.0610687,-3.8549619,-2.2595420
7410,13.4290085,7.4986014,9.1649570,42.6870232,-113.9542007,-82.8167953,0.6560079,0.1340746,10.7020273,0.0458015,-3.9541984,-2.4656489
7420,10.8863792,7.1107426,8.5783806,73.9694672,-123.1755753,-108.8778610,0.7014975,0.0790083,10.6493549,0.0839695,-3.9312978,-2.5038168
7430,8.5472565,7.0532823,7.7739329,97.5343475,-132.5648804,-122.8320618,0.6177009,0.1292862,10.7523050,0.1755725,-3.9389312,-2.1297710
7440,2.8586621,9.1721401,2.9520357,130.6564941,-52.1297722,-107.0076370,0.6679789,0.0670373,10.6254129,0.1603053,-3.7480917,-2.5114503
7450,2.0542145,9.6916790,1.9153515,126.3740463,-27.7328243,-97.9083939,0.6727672,0.0574605,10.7427282,0.0839695,-3.9465649,-2.5725191
7460,1.4652439,9.7946291,1.0917504,120.0381699,-12.6183205,-89.1297684,0.6679789,0.0598547,10.7714586,0.1450382,-3.7862597,-2.8854961
7470,0.9097920,9.8377247,0.1029501,113.2977066,-4.6946564,-81.2977066,0.6296718,0.0933734,10.8001890,0.2137405,-3.7404580,-2.2137403
7480,0.6703730,9.9741936,-0.9935886,106.4885483,-3.2671757,-75.0381699,0.6200951,0.0957676,10.7858238,0.0305344,-4.0381680,-2.5496182
7490,0.3758878,9.8305416,-1.9416877,100.4656525,-6.7557254,-70.2748108,0.6009415,0.0885850,10.7020273,0.0992366,-3.9083970,-2.4580152
7500,0.0263361,9.8113880,-2.8921809,92.4732819,-9.6946564,-66.0229034,0.6248835,0.0622489,10.7116032,-0.0534351,-3.8549619,-2.7022901
7510,-0.4237715,9.8185711,-3.5386121,84.4580154,-19.3435116,-59.9847336,0.5626345,0.1221037,10.5966825,0.0000000,-3.9160306,-2.1603053
7520,-0.3519458,9.8520899,-4.1180058,74.7022934,-24.2671757,-52.6564903,0.6871324,0.0790083,10.7139978,0.0916031,-3.8931298,-2.7786260
7530,-0.6296718,10.0244713,-4.2233500,64.2213745,-23.4580154,-42.8396950,0.7062859,0.1292862,10.6804790,0.1832061,-3.9007633,-2.2366412
7540,-0.4932030,9.9574337,-4.6997938,51.9160309,-15.7251911,-30.1679382,0.5985473,0.1508339,10.6876621,0.1145038,-3.6488550,-2.3740458
7550,-0.1675933,9.9239149,-4.6902170,38.0534363,-1.9541985,-18.8549614,0.6607963,0.1221037,10.6325951,0.2366412,-3.7328243,-2.5877862
7560,-0.1508339,9.7706871,-4.4436154,23.7251911,16.9541988,-6.5572519,0.5865764,0.0790083,10.7930059,0.2061069,-3.9541984,-2.2900763
7570,0.1173153,9.5432396,-4.2233500,11.1755724,31.4122143,6.2290077,0.6392486,0.0598547,10.6493549,0.1374046,-3.8244274,-2.4885497
7580,0.5889706,9.4546537,-4.1036406,0.5114504,44.5038185,15.8625956,0.6416427,0.0981618,10.7044210,0.0534351,-3.7862597,-2.4045801
7590,1.1228749,9.1338329,-3.3925664,-12.3740454,57.8625946,29.3740463,0.6440369,0.1005560,10.6996326,0.0839695,-3.7709923,-2.3435113
7600,1.7309990,9.0308828,-2.8371146,-12.7709923,52.6717567,29.4809170,0.5841822,0.0742199,10.6828737,0.0381679,-4.0534353,-2.6030533
7610,2.1212518,8.7818871,-1.8746504,6.9618320,26.9007626,18.1450386,0.6607963,0.0837966,10.7020273,0.1679389,-3.8702290,-2.6335878
7620,2.0590029,8.7627335,-1.9129574,8.6259546,21.3282452,17.5648861,0.7206510,0.0885850,10.7020273,0.2442748,-3.9618320,-2.4961832
7630,1.9776005,8.7842808,-2.0733681,9.3969469,16.8396950,18.4732819,0.5913648,0.0263361,10.7570934,0.0839695,-4.1526718,-2.5190840
7640,2.1236460,8.7962523,-2.0805507,9.5801525,11.2977095,19.5801525,0.6919208,0.0766141,10.6278067,0.0992366,-3.5725191,-2.4045801
7650,2.2816625,8.8154058,-1.8890154,9.7557249,4.9694657,19.2442741,0.6751614,0.0718257,10.7259684,0.0305344,-3.8931298,-2.3664122
7660,2.4037662,8.7770987,-1.8602852,8.9389315,-6.3282442,18.5496178,0.5746055,0.1221037,10.7092094,0.1297710,-3.9007633,-2.4503818
7670,4.0820932,8.3150196,-0.7996593,4.0916033,-54.0916023,-6.9083967,0.6153067,0.0574605,10.6469603,-0.0305344,-3.8702290,-2.3511450
7680,3.5697365,8.9231443,-0.7996593,10.0076332,-39.3282433,-14.5114508,0.6105183,0.0430954,10.7259684,0.0763359,-3.9312978,-1.8244275
7690,2.6910689,9.2463598,-1.0414724,16.2290077,-19.2748089,-10.9083967,0.5386927,0.0550664,10.5942879,0.0687023,-3.7709923,-2.4427481
7700,2.5019281,9.2008705,-1.9416877,20.0763359,1.2977099,-3.2671757,0.6272776,0.0430954,10.7068148,0.0839695,-3.7709923,-2.2137403
7710,2.2960277,9.3445215,-2.6000898,20.6259537,20.1984730,2.0305343,0.6105183,0.0670373,10.6230183,0.1068702,-3.8091602,-2.3587787
7720,2.4061604,9.1817169,-3.2082138,17.1221371,27.4274807,3.6335878,0.6057299,0.0574605,10.6541433,0.2442748,-3.9923663,-2.5648854
7730,2.2361729,9.1146793,-3.2752512,11.4732828,22.9618320,3.0152671,0.6799498,0.0383070,10.7139978,0.1755725,-3.9160306,-2.3129771
7740,2.1763182,9.0500364,-3.2513094,6.2519083,10.4732828,1.0534351,0.6655847,0.0837966,10.6589317,0.0992366,-3.7404580,-1.9312977
7750,2.4133430,9.2511482,-2.8921809,3.4198472,0.2977099,-0.1526718,0.6416427,0.0430954,10.6948442,0.2519084,-3.8320611,-2.5877862
7760,2.5091105,9.4211359,-2.4779861,1.2900764,-1.6717557,0.8015267,0.5913648,0.1388630,10.6972389,0.1221374,-4.2061067,-3.1221373
7770,2.8658447,9.4331064,-2.1236460,-1.0916030,2.2366412,4.2137403,0.5913648,0.0957676,10.7163916,0.1297710,-3.8702290,-2.6259542
7780,3.6535332,9.3397331,-1.7812769,-3.6717558,7.8320613,6.0458016,0.6200951,0.1364688,10.7163916,0.0534351,-3.7557251,-2.2519083
7790,4.6973996,9.4594421,-1.2377959,-5.1755724,18.1832066,3.7328243,0.6296718,0.0502780,10.6110477,0.2061069,-3.9007633,-2.3435113
7800,5.8777351,9.2559366,0.1149211,3.2290077,28.8931293,-15.8320608,0.6991033,0.0454896,10.6900558,0.2442748,-3.7175572,-2.6717558
7810,4.8434453,8.8824425,-0.1675933,52.4885483,13.4503813,-86.3893127,0.6584021,0.1101327,10.6685085,0.0305344,-3.8091602,-2.5877862
7820,3.7708483,8.9279327,-1.2282192,60.5954208,19.6641216,-95.5877838,0.5985473,0.0957676,10.6278067,0.2137405,-3.9312978,-2.6564887
7830,2.5210814,8.9542685,-2.3894010,65.2671738,24.2824421,-102.8320618,0.6607963,0.0766141,10.6421719,0.0534351,-3.8091602,-2.2748091
7840,1.4652439,8.9542685,-3.8115497,65.7709961,29.0305347,-107.1145020,0.6248835,0.0861908,10.7810354,0.1374046,-3.8854961,-2.6106870
7850,-0.1867468,9.0763721,-5.3151007,60.7022896,30.6870232,-107.0457993,0.6057299,0.0957676,10.7163916,0.0687023,-3.8167939,-2.2061069
7860,-1.9536586,8.9255381,-6.5361371,49.8244286,31.2671757,-100.8320618,0.6224893,0.0574605,10.7379398,0.0458015,-4.0000000,-2.6030533
7870,-1.9895715,9.2200232,-7.7475972,28.9160309,17.8931293,-91.9160309,0.6440369,0.1149211,10.7235746,0.1068702,-3.9770992,-2.4427481
7880,-5.3031297,8.8082228,-7.5584559,5.1145039,20.8473282,-77.9542007,0.6200951,0.0574605,10.5823174,0.0839695,-3.9083970,-2.4885497
7890,-7.7092900,8.7220325,-7.8912482,-12.2442751,49.6335869,-39.4274826,0.6248835,0.0909792,10.7738523,0.1221374,-3.8244274,-2.5190840
7900,-8.1617918,9.6342182,-8.2288294,-29.6259537,83.0610657,8.8549614,0.6153067,0.0622489,10.7475166,0.2061069,-3.7404580,-2.0687022
7910,-7.4890246,9.6605549,-8.5137377,-52.0687027,119.8473282,58.7938919,0.6033357,0.1173153,10.6996326,-0.0839695,-3.9923663,-2.3664122
7920,-6.9790621,9.2774839,-8.8776541,-78.7633591,167.1145020,104.0229034,0.6153067,0.0861908,10.6852674,0.0076336,-3.8854961,-2.2290077
7930,-5.8944945,8.9901810,-8.5951405,-112.5725174,220.6793823,148.0839691,0.6536137,0.0814024,10.7163916,0.0687023,-3.8091602,-2.5419848
7940,-4.2113791,8.7076674,-7.9295554,-150.4961853,250.1297760,188.0305328,0.5985473,0.1197095,10.7139978,0.1755725,-3.9083970,-2.3282442
7950,-3.1028695,8.0971489,-7.0580707,-190.0000000,250.1297760,221.0381622,0.6607963,0.0622489,10.7714586,0.0839695,-3.9770992,-2.1145039
7960,-1.6376256,7.4507174,-5.2097564,-228.8778687,250.1297760,243.4122162,0.5650287,0.1101327,10.6278067,0.0000000,-3.9389312,-1.9236641
7970,0.2873027,6.4236102,-3.4189026,-250.1374054,250.1297760,250.1297760,0.6560079,0.1125269,10.7068148,0.0000000,-3.8854961,-2.3435113
7980,1.8794388,5.5281835,-0.8547257,-250.1374054,250.1297760,249.4961853,0.5889706,0.0718257,10.7618818,0.0687023,-3.7328243,-2.3129771
7990,6.1626434,5.6071916,4.9392128,-250.1374054,250.1297760,234.1984711,0.6440369,0.1125269,10.5847120,0.2137405,-3.6183207,-2.1832061
8000,5.6359220,5.2576399,9.9023676,-250.1374054,243.4274750,205.1679382,0.6703730,0.0981618,10.7116032,0.1908397,-3.8167939,-2.3435113
8010,9.3971939,2.9903426,12.8280668,-207.5648804,195.5038147,163.6793823,0.5961532,0.0359128,10.6876621,0.1221374,-3.7709923,-2.7328243
8020,10.3381100,3.2345500,16.1512012,-120.3282471,127.3511429,110.9160309,0.6679789,0.0742199,10.6517487,0.0610687,-3.9465649,-2.2977099
8030,13.8168669,2.9496415,18.7465038,-20.9389305,4.5648856,36.1908379,0.6009415,0.0598547,10.6804790,0.0763359,-4.0458016,-2.4427481
8040,16.2589397,1.9632354,18.6651001,90.3816757,-112.0916061,-64.2213745,0.6033357,0.0478838,10.6948442,0.2671756,-3.9160306,-2.1297710
8050,16.5103302,2.7174051,15.9668493,199.1679382,-227.5038147,-177.3282471,0.6943150,0.0742199,10.6732969,0.1832061,-3.9007633,-2.6946564
8060,13.0387554,2.7940190,11.0707321,250.1297760,-250.1374054,-250.1374054,0.6607963,0.0981618,10.7020273,0.0763359,-3.9694657,-2.1374047
8070,8.7675219,3.6726866,6.3589673,250.1297760,-250.1374054,-250.1374054,0.6727672,0.0766141,10.6900558,0.2137405,-3.9541984,-2.2519083
8080,3.9599893,5.3438311,1.9584470,250.1297760,-250.1374054,-250.1374054,0.6009415,0.0933734,10.7427282,0.1221374,-4.0000000,-2.6412213
8090,-0.0167593,6.6630292,-1.3766589,250.1297760,-250.1374054,-250.1374054,0.6129125,0.1029501,10.6876621,0.1908397,-3.9007633,-2.7022901
8100,-1.4436963,8.0612354,-4.4053087,250.1297760,-250.1374054,-250.1374054,0.6440369,0.1053443,10.6852674,0.3053435,-3.6564887,-2.4732823
8110,-3.4476328,9.5240860,-6.5313487,233.3664093,-240.6564941,-250.1374054,0.6847382,0.1149211,10.6517487,0.0763359,-3.7633588,-2.0229008
8120,-6.1410961,9.6701307,-8.6549950,197.4656525,-194.5038147,-244.0229034,0.5937590,0.0263361,10.6732969,0.2213740,-3.9236641,-2.5877862
8130,-8.9399033,9.9119444,-10.6493549,154.1908417,-152.9618378,-192.6412201,0.6631905,0.1149211,10.6948442,0.1145038,-4.0152674,-2.3740458
8140,-10.8648319,10.0699606,-12.3252869,100.6641235,-116.2748108,-130.1755676,0.6320660,0.0454896,10.6972389,0.1603053,-3.7404580,-2.5267177
8150,-10.9366570,10.0651722,-13.0219965,38.8015251,-83.8396912,-67.1068726,0.6344602,0.0598547,10.7762470,-0.0229008,-3.8244274,-2.5648854
8160,-10.8097658,10.3812056,-12.8591919,-24.3816795,-41.1679382,-8.2213745,0.6847382,0.0502780,10.6565371,0.1450382,-3.7557251,-2.6106870
8170,-11.2622671,9.7994175,-11.9565821,-83.2519073,7.5114503,54.2671738,0.5769997,0.1364688,10.7163916,0.0381679,-4.0305343,-2.1526718
8180,-10.9438400,8.9494801,-10.6062593,-135.2290039,51.3664131,118.7633591,0.6584021,0.0311245,10.6804790,0.0916031,-3.8473282,-2.3435113
8190,-9.8784256,8.2120695,-9.2391768,-181.9541931,93.6564865,176.4732819,0.6775556,0.0909792,10.6924505,0.1374046,-3.8625953,-2.7175572
8200,-9.0979195,7.0963774,-7.1107426,-219.1526642,132.4045868,226.5801544,0.6847382,0.0191535,10.6230183,0.1526718,-3.9160306,-2.2977099
8210,-7.6518297,5.8657641,-4.6950054,-246.8396912,158.3511505,250.1297760,0.6081241,0.0646431,10.6780853,-0.0152672,-3.6641221,-2.6870229
8220,-5.2456689,4.5345950,-2.3343346,-250.1374054,174.4351196,250.1297760,0.6416427,0.0622489,10.5871058,0.1984733,-3.8549619,-2.5038168
8230,-2.0757623,3.5146701,0.0407012,-250.1374054,188.2977142,250.1297760,0.5937590,0.0670373,10.7163916,0.0229008,-3.9694657,-2.3129771
8240,2.0613971,3.3614421,2.4588325,-250.1374054,184.5801544,250.1297760,0.6871324,0.0790083,10.6996326,0.2061069,-4.0534353,-2.5343511
8250,7.3764977,3.7038112,5.3629842,-250.1374054,160.9007568,250.1297760,0.6296718,0.0766141,10.7594872,0.0152672,-3.7480917,-2.4427481
8260,13.1369171,4.2185616,8.7196379,-215.7099304,118.0381699,245.3740387,0.6177009,0.0430954,10.6972389,0.0839695,-3.9618320,-2.4580152
8270,19.5796814,5.1020179,12.6580801,-156.1984711,55.4656487,150.8015289,0.5961532,0.0478838,10.6756907,0.1297710,-3.7633588,-2.1984732
8280,19.6126022,5.2743993,15.5191364,-73.8854980,-8.4045801,27.5114498,0.6440369,0.1005560,10.6565371,0.0687023,-3.7938931,-2.7099237
8290,19.6126022,4.8147149,16.2589397,14.8854961,-76.5114517,-102.3129807,0.6224893,0.0383070,10.6062593,0.1068702,-3.9923663,-2.0916030
8300,18.2245693,4.0653338,14.3292236,94.9389343,-152.8320618,-209.3816833,0.5626345,0.0478838,10.6134415,0.1374046,-3.9541984,-2.1755726
8310,13.7689838,3.3782012,11.8488436,158.6641235,-212.4580078,-250.1374054,0.5841822,0.0885850,10.7738523,0.0687023,-3.8320611,-2.3664122
8320,9.8880024,3.5266411,9.3181858,202.6106873,-244.4580078,-250.1374054,0.6105183,0.0526722,10.6397781,0.1374046,-3.9312978,-2.4274809
8330,6.8904772,4.0725164,6.9599090,231.6335907,-250.1374054,-250.1374054,0.6248835,0.0790083,10.5775290,0.2061069,-3.7404580,-2.6564887
8340,3.8259149,4.6231799,3.9863255,244.8854980,-245.0992432,-250.1374054,0.5506636,0.0215477,10.6972389,-0.0381679,-3.7786260,-2.5572519
8350,1.5274929,5.3701668,0.5578461,244.8931274,-194.8396912,-250.1374054,0.6057299,0.1077385,10.7044210,0.1832061,-3.9541984,-2.2366412
8360,-1.1468167,6.2584114,-1.7118455,232.3129730,-141.5038147,-250.1374054,0.6751614,0.0861908,10.6589317,0.1221374,-3.7099237,-2.3664122
8370,-3.0741394,6.4978304,-4.3430595,205.9160309,-98.2671738,-250.1374054,0.6823440,0.0790083,10.6924505,0.1145038,-3.9083970,-2.2519083
8380,-5.4443870,6.5552907,-6.9024482,172.0305328,-58.8091621,-250.1374054,0.6775556,0.1268920,10.7092094,0.1068702,-3.8702290,-2.4809160
8390,-8.7555504,6.6007805,-8.4443064,136.9694672,-34.2442741,-236.8015289,0.6320660,0.0861908,10.6924505,0.0839695,-3.7862597,-2.6946564
8400,-12.1169930,6.6534524,-9.3133974,102.9847336,-32.4198456,-190.7480927,0.5937590,0.0885850,10.6996326,0.0305344,-3.8167939,-1.7633588
8410,-14.6596222,6.9551206,-9.7611103,70.1450348,-35.0076332,-129.3435059,0.5602403,0.0718257,10.6589317,0.1221374,-3.9389312,-2.3816793
8420,-15.8447456,7.9534974,-10.0723553,36.6870232,-18.5343513,-60.5725174,0.6224893,0.0598547,10.7116032,0.1297710,-3.8396947,-2.3893130
8430,-14.8750992,7.9702568,-9.9239149,-1.0152671,19.1221371,11.5267172,0.6727672,0.0311245,10.7020273,-0.0152672,-3.9541984,-2.4503818
8440,-13.3164816,8.1809454,-9.3995876,-44.4045792,64.9694672,79.1526718,0.6560079,0.1221037,10.6397781,0.1526718,-3.8702290,-2.5496182
8450,-12.1050215,7.7068958,-8.6502066,-89.5114517,109.2977066,136.9236603,0.6105183,0.0335187,10.7762470,0.2442748,-3.8396947,-2.2290077
8460,-10.6900558,6.9838505,-7.1969333,-129.3740387,143.0610657,185.6183167,0.6464311,0.0742199,10.7810354,0.0076336,-3.9694657,-2.2137403
8470,-9.3612804,6.3565731,-5.3055239,-156.3740387,165.2671814,224.7786255,0.6631905,0.0933734,10.8384953,0.1450382,-3.9083970,-2.6641221
8480,-8.1043310,5.7891502,-3.9432299,-170.2900696,179.0381622,250.1297760,0.6368544,0.0526722,10.7092094,0.1603053,-3.7557251,-1.9694656
8490,-6.4355812,5.3151007,-2.8323262,-176.8931274,189.7328186,250.1297760,0.6320660,0.0335187,10.6421719,-0.0076336,-3.6641221,-2.8167939
8500,-4.3813667,5.1882086,-2.0063307,-181.3206177,192.2671814,250.1297760,0.6631905,0.0909792,10.7427282,0.1832061,-3.8625953,-2.5954199
8510,-1.7717001,4.8649931,-1.1468167,-184.0076294,186.3282471,250.1297760,0.6536137,0.0933734,10.7235746,0.0076336,-3.7557251,-2.1068702
8520,1.2832855,4.7476778,-0.0861908,-183.8320618,158.3511505,250.1297760,0.6248835,0.0981618,10.6780853,-0.0076336,-4.0000000,-2.6259542
8530,5.2624283,4.3933377,1.4125718,-174.9618378,112.4274826,250.1297760,0.6440369,0.1508339,10.6685085,0.2748092,-4.0305343,-2.2519083
8540,10.5895004,4.9176650,3.3686244,-151.5114441,46.8473282,230.1068726,0.6488253,0.1173153,10.6613255,0.1450382,-4.0152674,-1.8778626
8550,17.8486824,7.2232695,6.0956063,-111.3587799,-35.1297722,145.0839691,0.6536137,0.1316804,10.6493549,0.1221374,-3.8091602,-1.9389313
8560,19.6126022,8.3413563,8.5855637,-58.3740463,-105.1526718,26.5496178,0.6033357,0.0790083,10.7403336,0.0992366,-3.9541984,-2.2824428
8570,19.6126022,7.3836803,10.1274214,-6.5877862,-153.8473358,-93.7251892,0.6464311,0.0454896,10.6589317,0.1679389,-3.8015268,-2.7480917
8580,17.8127689,6.2823529,11.3125448,39.4274826,-197.3435059,-181.8396912,0.6009415,0.1029501,10.7116032,0.0610687,-3.7786260,-2.4274809
8590,14.7553892,5.6167684,11.4849272,87.1679382,-219.7175598,-236.3893127,0.7086801,0.1125269,10.7068148,0.1450382,-3.9389312,-2.2595420
8600,12.0044661,5.9256191,10.4530315,139.4122162,-213.9313049,-250.1374054,0.6560079,0.0502780,10.7044210,0.1908397,-3.8549619,-2.4809160
8610,9.5169029,6.2057390,7.8146343,183.7099304,-191.9007568,-250.1374054,0.6344602,0.0790083,10.6996326,0.0687023,-3.7633588,-2.2595420
8620,6.4068508,6.5121951,3.9480183,203.9236603,-162.4351196,-250.1374054,0.6416427,0.0790083,10.6349897,0.2061069,-3.8396947,-2.2824428
8630,4.2448978,7.1275020,0.3710994,200.5190887,-136.4427490,-250.1374054,0.6368544,0.0287303,10.6637201,0.0992366,-3.7709923,-2.8931298
8640,1.8794388,7.6278877,-2.9735832,184.0152740,-103.1984711,-250.1374054,0.6536137,0.0885850,10.6685085,0.0152672,-3.9694657,-2.7099237
8650,-0.4213773,7.7859039,-5.5449429,160.9770966,-84.0839691,-250.1374054,0.5769997,0.1125269,10.6780853,0.2366412,-3.8167939,-3.1068702
8660,-3.0549858,7.7068958,-7.6111283,130.4045868,-79.1450348,-250.1374054,0.6584021,0.0718257,10.6780853,0.1374046,-3.8167939,-1.9541985
8670,-6.5169835,7.2304521,-8.9542685,96.1221390,-81.6259537,-250.1374054,0.5865764,0.0885850,10.7499104,0.0534351,-3.7175572,-2.0534351
8680,-9.7251978,7.0796180,-8.4514885,65.6488571,-84.6488571,-232.1603088,0.6153067,0.0670373,10.6302013,0.1297710,-3.8778627,-2.0534351
8690,-12.1337519,7.1873569,-7.9941988,39.3282433,-82.2137375,-191.0686951,0.6248835,0.1053443,10.6661139,0.1374046,-3.6412213,-2.7480917
8700,-13.4170380,7.4698710,-7.5201492,15.0000000,-61.2977104,-136.9236603,0.6105183,0.0909792,10.6445665,0.1526718,-3.9770992,-2.5038168
8710,-14.5470953,7.7308378,-7.2256637,-12.6564884,-24.1679382,-72.4503784,0.5602403,0.0670373,10.6804790,0.0839695,-3.8778627,-2.6106870
8720,-15.7944679,7.2400289,-7.3788919,-44.8702278,28.7404575,0.5190840,0.6248835,0.0981618,10.6206245,0.0152672,-3.7633588,-2.5419848
8730,-14.8272152,7.2232695,-7.8409705,-79.2366409,75.4427490,77.0076370,0.5698171,0.0861908,10.7092094,0.1297710,-3.8702290,-2.0076337
