timestamp,rxacclX,rxacclY,rxacclZ,rxgyroX,rxgyroY,rxgyroZ,txacclX,txacclY,txacclZ,txgyroX,txgyroY,txgyroZ
0,4.4675574,2.1260402,6.9263902,171.5496216,-238.4427490,-250.1374054,0.3495516,0.5219333,10.7954006,0.6564885,-2.6183207,-0.9389313
10,4.0198441,2.0973101,6.8186517,166.0152740,-230.1145020,-250.1374054,0.4572902,0.4094064,10.6709023,0.9083970,-2.0305343,-1.1145039
20,3.4284792,2.1811066,6.5672617,164.5496216,-216.1450348,-250.1374054,0.4692611,0.4501076,10.7594872,0.6106870,-1.8473282,-0.3206107
30,2.3343346,2.1954718,5.6957769,164.5877838,-202.8015289,-250.1374054,0.5362985,0.4189832,10.6038647,0.1450382,-1.7328244,-0.3969466
40,1.0462608,2.1499822,4.9104824,163.7022858,-200.0381622,-250.1374054,0.6344602,0.4716553,10.6373835,-0.3129771,-2.4122138,-0.8702290
50,0.0000000,2.4612267,4.7045822,162.8625946,-213.9847260,-250.1374054,0.6368544,0.4596844,10.6086531,-0.6641222,-3.0000000,-0.7557252
60,-1.1132981,2.9304879,4.8602047,166.7938995,-222.4732819,-250.1374054,0.7182568,0.4165890,10.6278067,-0.8396947,-2.8854961,-1.2671756
70,-1.2521610,3.3710186,3.8809812,170.7404633,-216.4122162,-250.1374054,0.6655847,0.4740495,10.6685085,-1.0076336,-2.5496182,-1.3511450
80,-1.7860653,3.6128318,2.6144550,163.0839691,-200.0000000,-250.1374054,0.6919208,0.4070122,10.6493549,-1.3664122,-2.3969467,-1.5725191
90,-2.7389526,3.5793133,1.5059452,146.4351196,-173.4351196,-250.1374054,0.6200951,0.3567342,10.7020273,-1.4732825,-2.5038168,-1.9389313
100,-3.7325413,3.4572096,0.9792235,127.0000000,-157.3435059,-250.1374054,0.6344602,0.4357425,10.7594872,-1.5343511,-2.4045801,-1.7709924
110,-3.9815371,3.5601597,0.6320660,108.2442780,-132.3358765,-235.4122162,0.5769997,0.4022238,10.6996326,-1.6793894,-2.1374047,-2.0229008
120,-4.1946201,3.6056492,0.6536137,91.9083939,-93.4961853,-217.5725250,0.5817881,0.3806761,10.6661139,-1.6183206,-2.4656489,-2.2748091
130,-5.1738434,3.0478032,-0.1747758,76.9618301,-58.8549614,-198.4503784,0.5482694,0.4118006,10.7020273,-1.5954199,-2.4351146,-1.7633588
140,-5.8490047,2.9304879,-0.6847382,56.2442741,-37.8396950,-178.8396912,0.6057299,0.4189832,10.7403336,-1.4656489,-2.8854961,-1.9770992
150,-6.5505023,2.4420733,-0.6129125,35.1068687,-18.4885502,-160.4503784,0.5722113,0.3854645,10.8528605,-1.6183206,-3.3129771,-2.5267177
160,-7.3142486,1.8746504,-0.2322364,18.4885502,1.7251909,-137.9618378,0.6081241,0.3830703,10.7044210,-1.2061069,-3.3740458,-2.7557251
170,-7.8194227,1.2593436,-0.1221037,6.3282442,21.0229015,-110.5725174,0.5075682,0.3208214,10.6948442,-1.1221374,-3.4732823,-2.3816793
180,-8.0229292,0.9480990,-0.5027798,-6.8549619,37.6030540,-81.6335907,0.5267217,0.4309541,10.6996326,-1.0534351,-3.2137403,-2.3893130
190,-8.2934723,0.4285599,-1.1013272,-25.2213745,54.2519073,-52.2900772,0.5434810,0.3351865,10.6637201,-1.2442749,-3.0229008,-2.6030533
200,-8.5113440,-0.1005560,-1.4604555,-51.5190849,62.0763359,-22.6030540,0.5769997,0.3495516,10.6541433,-1.5572519,-3.1297710,-2.3740458
210,-9.2703018,-0.7757174,-0.4046180,-79.9236679,67.8015289,9.4274807,0.5434810,0.3016679,10.6134415,-1.8091604,-3.5419848,-2.3435113
220,-10.9917240,-1.3455344,1.6615674,-101.3206100,80.5954208,49.4885483,0.5554519,0.3615226,10.7379398,-2.3664122,-3.9618320,-3.0687022
230,-14.9301653,-2.0997043,3.6487448,-110.3206100,123.5954208,114.9542007,0.4932030,0.4022238,10.6732969,-2.7251909,-4.0763359,-2.8625953
240,-19.6131992,-2.6479735,4.3143296,-117.4045792,198.0381622,220.6488495,0.5458752,0.2896969,10.7187862,-2.7557251,-4.0839696,-3.5648854
250,-19.6131992,-3.3853838,4.7931671,-135.2977142,250.1297760,250.1297760,0.5961532,0.2920911,10.7618818,-2.8549619,-4.5648856,-3.1984732
260,-19.6131992,-5.2384863,6.1363077,-159.9694672,250.1297760,250.1297760,0.6368544,0.3208214,10.7618818,-2.9465649,-5.0076337,-3.5419848
270,-19.6131992,-8.4562769,6.4738884,-188.0839691,250.1297760,250.1297760,0.6560079,0.3088504,10.7379398,-2.8320611,-4.8854961,-4.4351144
280,-19.6131992,-17.4512463,7.9223728,-187.7175598,245.5572510,250.1297760,0.6943150,0.3878587,10.7834291,-3.1068702,-4.9160304,-4.9847326
290,-10.7714586,-19.6131992,7.7643566,-137.5954132,72.9847336,250.1297760,0.7110743,0.3208214,10.7187862,-3.2824428,-5.3587785,-5.6335878
300,10.6278067,-19.6131992,6.9335728,-57.4656487,13.0000000,250.1297760,0.8092360,0.3519458,10.6134415,-3.9236641,-6.0381680,-6.3893127
310,19.6126022,-19.6131992,5.2767935,-17.1679382,163.1221313,250.1297760,0.7852941,0.3902529,10.5176744,-4.8320613,-6.1297708,-7.3435116
320,19.6126022,-19.6131992,12.5958309,-54.0534363,250.1297760,250.1297760,0.7661406,0.3806761,10.4458485,-6.0916033,-6.0763359,-8.1068707
330,19.6126022,-12.8352499,19.6126022,-39.5725174,250.1297760,250.1297760,0.6919208,0.3734936,10.4650021,-7.3587785,-5.5572519,-7.4656487
340,19.6126022,7.1849627,19.6126022,37.2595406,250.1297760,250.1297760,0.6775556,0.3639168,10.4506369,-8.5114508,-5.0076337,-8.2824430
350,19.6126022,9.5121145,9.7682934,86.9389343,250.1297760,100.7786255,0.6320660,0.4548960,10.4027529,-9.7175570,-4.1908398,-7.8473282
360,19.6126022,3.5338237,0.4118006,101.0305328,45.3282433,-118.8931274,0.5003856,0.3782819,10.4003592,-11.0000000,-3.9694657,-7.8854961
370,19.6126022,0.7469871,-1.8578910,72.0305328,-203.7480927,-203.0610657,0.4333483,0.4285599,10.4602137,-12.3435116,-4.6564884,-6.6183205
380,10.4626083,0.4381367,1.9608412,28.7557259,-250.1374054,-168.0000000,0.3710994,0.3543400,10.4937325,-13.5572519,-4.4809160,-6.3816795
390,9.5599985,2.0159075,5.8274570,5.5038166,-211.5038147,-84.6488571,0.3232156,0.2537841,10.7738523,-13.6641226,-4.8778625,-5.2366414
400,11.2766323,3.9647777,6.5505023,-10.1068707,-14.5648851,-6.0229006,0.2442073,0.1843526,10.9701757,-12.3206110,-3.8091602,-3.7633588
410,13.0962162,5.7676024,5.6502872,-29.6259537,141.3129730,40.9541969,0.1795642,0.0790083,11.3532467,-10.0610685,0.4732825,-0.8473282
420,13.1057930,6.3015065,4.5465660,-33.5572510,203.5038147,43.5648842,-0.0646431,0.0790083,12.1074162,-3.0534351,11.7938929,5.3206105
430,11.5974541,5.4922705,3.5960727,-31.9465656,208.4274750,34.8244286,-0.3878587,0.0023942,13.3308468,10.4045801,28.4885502,15.3206110
440,9.8640604,4.9966736,3.2800395,-30.2213745,185.6564941,24.7251911,-0.0071826,-0.2801202,14.2669754,29.1679382,52.9541969,26.3893127
450,8.5017672,4.4771342,2.8107784,-26.6717548,154.6717529,18.5954189,0.2011119,-0.4237715,14.6213150,49.9923668,75.9923630,33.0458031
460,7.6063399,4.0629396,2.1571648,-25.5419846,123.2213745,16.3511448,0.5291159,-0.4860204,14.8990412,70.2366409,91.2290039,35.5648842
470,7.0413113,4.0054789,1.5945302,-31.7633591,101.8854980,16.3206100,0.7158626,-0.5099624,15.0331154,91.8854980,100.0839691,34.5725174
480,6.3685441,3.8785870,1.8004304,-45.2290077,89.4732819,18.2213745,1.0725969,-0.6799498,14.7984848,112.1679382,105.4961853,31.4656487
490,5.9184365,3.5146701,2.4684093,-59.2366409,86.0534363,23.2671757,1.5203103,-0.5458752,14.2071199,131.1832123,108.7404556,25.2595425
500,5.7819676,3.0525916,3.3734128,-70.2824402,86.3053436,31.1297703,1.7597293,-0.3926471,13.1201582,145.5725250,111.8931274,16.0763359
510,5.5162125,2.6862805,4.5752959,-76.8320618,85.4961853,39.6488533,1.9488702,-0.1053443,11.7267399,153.6183167,114.0152664,5.4274807
520,5.6239510,2.3702476,5.3845320,-79.6335907,81.7633591,46.9312973,2.3415172,0.2585725,10.7211800,154.4198456,112.0305328,-6.6259542
530,5.9423780,1.9967541,6.3134775,-78.7786255,75.0992355,52.3511467,2.2313845,0.3399749,9.8927908,151.1908417,109.5801544,-19.8244267
540,6.3110833,1.7405758,7.0604649,-74.0152664,67.7480927,57.2213745,1.9967541,0.7996593,9.0548248,144.7786255,106.6946564,-31.9083977
550,6.9766679,1.3838415,7.4195933,-67.8396912,61.4122124,60.3053436,1.5849534,1.4221486,8.2958660,136.4580078,105.4656525,-41.3664131
560,7.4842362,1.0606259,7.5967631,-63.0076332,59.3129768,63.0610695,0.8858501,1.7190280,7.8242111,125.7328262,99.9083939,-48.7175560
570,8.1498213,0.8714849,7.6590118,-61.6106873,67.2900772,66.6870193,0.2944853,1.8243724,7.6254935,112.0229034,86.0457993,-55.5572510
580,8.9734221,0.8259954,7.8768835,-64.2519073,81.4503784,69.1221390,-0.1197095,2.1571648,7.2831244,95.5496216,67.6412201,-63.1221390
590,9.7874460,0.7038917,8.1234846,-70.4656525,98.2671738,68.4809189,-0.4836263,2.4492557,7.3525558,80.4961853,48.8396950,-71.0457993
600,10.3620520,0.6416427,8.7723103,-79.6870193,110.7404556,64.8778610,-1.1444225,2.6790979,7.8553357,66.5801544,29.2900772,-78.4885483
610,10.9701757,0.6488253,9.7706871,-88.7709961,122.6488571,58.4122124,-1.3335636,2.6264257,8.0756006,54.6946564,6.0076337,-87.3511429
620,11.6070309,0.4046180,10.9198980,-95.5190811,132.1755676,48.7786255,-1.3622938,2.5737536,8.2000990,43.1679382,-19.1908398,-94.9923630
630,12.1768475,0.2082945,11.9110928,-100.0992355,126.1603088,32.8320618,-1.4197544,2.7533178,8.4467001,34.4503822,-34.7709923,-105.0457993
640,12.4234495,0.0981618,12.2007895,-110.4045792,84.9236679,11.0839691,-1.8794388,2.8610563,8.6023226,27.3816795,-43.7251892,-114.0000000
650,14.0251617,2.8275378,10.9007444,-114.4809189,94.9694672,-12.1450386,-2.3079987,2.9879484,8.5855637,17.6717548,-58.6106873,-120.6717529
660,14.1783895,-0.7374104,11.5088692,-126.5648880,61.6335869,-37.3587799,-2.6719155,2.9664006,8.4036045,5.2977099,-81.4961853,-127.2442780
670,15.3802729,-1.7286048,12.4402084,-133.2595367,37.2061081,-85.5343475,-2.6144550,3.1866663,8.5568333,-9.0229006,-103.1603088,-132.8778687
680,15.5335016,-1.9943599,14.1305065,-119.0305328,22.3969460,-136.5190887,-2.8610563,2.7748656,8.5688038,-21.7633591,-115.2748108,-134.7404633
690,15.2150736,-2.8706331,16.2900658,-77.7938919,24.5801525,-176.4732819,-3.0478032,2.6048782,8.8106174,-26.4503822,-125.6793900,-129.6030579
700,13.8455973,-4.0629396,17.4943428,-17.4274807,20.9923668,-209.1450348,-2.9472473,2.6479735,8.5903521,-26.0916023,-125.7328262,-122.1832047
710,12.9405937,-4.5250182,18.0066986,49.8091621,-2.4274809,-238.2061005,-2.8921809,2.8514795,8.0564480,-27.5190830,-121.6488571,-114.2290039
720,12.6437149,-4.8649931,17.6403885,118.5343475,-37.6106873,-250.1374054,-2.5953014,2.8347204,7.1801744,-38.9771004,-123.2900772,-107.8091583
730,11.7004042,-4.8769641,16.3259773,180.2137451,-94.9389343,-250.1374054,-2.2505381,2.8131726,6.7827387,-56.2748108,-123.5496216,-103.9083939
740,10.9821472,-4.9272418,14.4561157,228.9313049,-154.3129730,-250.1374054,-2.3199697,2.7892308,6.6151457,-74.8625946,-121.5877838,-101.1068726
750,9.8377247,-4.9200592,12.2079716,250.1297760,-194.5954132,-250.1374054,-2.6383967,2.6958573,6.5361371,-94.9160309,-123.5954208,-94.0457993
760,8.4419117,-4.7476778,9.8257532,250.1297760,-215.9618378,-250.1374054,-2.8179610,2.5282640,6.5457139,-116.8931274,-123.6717529,-83.2366409
770,6.0453281,-4.2568688,7.6063399,250.1297760,-223.1755676,-250.1374054,-2.7461352,2.0829449,6.8114691,-139.7786255,-112.6641235,-71.2061081
780,4.2425036,-3.6894460,5.6478930,250.1297760,-235.8854980,-250.1374054,-2.7437410,1.6615674,7.3525558,-157.4427490,-87.1297684,-59.2213745
790,2.8826041,-3.1268115,4.5322008,236.2213745,-250.1374054,-250.1374054,-3.4380560,1.3359578,8.2695303,-169.2977142,-71.1832047,-49.3282433
800,1.5490406,-2.4612267,4.5968437,203.7938995,-250.1374054,-250.1374054,-4.2137733,0.9816177,9.1386213,-176.1908417,-69.3587799,-37.2595406
810,1.1611819,-2.5450234,4.6303625,177.5190887,-250.1374054,-250.1374054,-4.8889351,0.4189832,10.2423429,-177.7633514,-73.5572510,-21.4274807
820,1.2617378,-2.5426292,5.2552457,160.8931274,-250.1374054,-250.1374054,-4.8338685,-0.0766141,11.2239599,-175.8244324,-74.9847336,-0.1068702
830,0.8858501,-2.0733681,5.6574697,147.2977142,-250.1374054,-250.1374054,-4.3861551,-0.1436514,12.3659887,-167.3435059,-70.4961853,21.0458012
840,0.7398046,-2.0997043,6.5744443,135.9541931,-250.1374054,-250.1374054,-3.8498566,-0.2657550,13.5750542,-153.1221313,-59.6946564,40.6412201
850,0.8762733,-2.3630650,7.6877422,132.7557220,-250.1374054,-250.1374054,-3.2297616,-0.8116302,14.1257181,-132.9084015,-46.3435097,57.3969460
860,1.0342898,-2.4564383,8.2479830,134.2900696,-250.1374054,-250.1374054,-2.7054341,-1.2234308,14.5327301,-110.1984711,-33.1908379,71.2824402
870,-0.2561783,-2.8419030,7.3932571,129.2671814,-250.1374054,-250.1374054,-2.1284344,-1.6639616,14.6476507,-87.5343475,-24.7938938,80.6030502
880,-2.5761478,-2.8419030,6.6079631,111.5114517,-250.1374054,-250.1374054,-1.7357874,-1.9057748,14.6620159,-64.9007645,-17.8244267,87.0381699
890,-4.9296360,-2.7724714,5.5257893,88.0381699,-189.0839691,-250.1374054,-1.8339491,-1.9440818,14.7410240,-43.4274826,-15.1603050,91.0229034
900,-6.4786768,-2.4779861,4.8218975,65.7328262,-87.8396912,-250.1374054,-1.8674678,-2.1284344,14.4920292,-21.6259537,-17.0534344,95.8854980
910,-8.8944139,-1.8650736,3.9791429,47.8854980,-2.7328243,-250.1374054,-1.5897418,-2.3295465,13.9772778,-2.7022901,-18.3129768,98.9770966
920,-11.4825325,-0.8810617,3.2345500,37.4274826,50.4122124,-233.4045868,-1.1707586,-2.5833304,13.4050665,12.0076332,-20.7786255,98.3969498
930,-13.8240499,0.0502780,2.5306582,32.5114517,74.5954208,-170.2595367,-0.5865764,-2.7030399,12.6556854,22.6870232,-26.5877857,93.8091583
940,-15.3347836,1.2401901,1.5250987,28.8091602,76.5648880,-97.9923630,-0.1675933,-2.4348907,12.1960011,31.4809170,-36.5114517,85.6106873
950,-16.0195217,1.9943599,0.5674229,20.9160309,77.3282471,-20.3206100,-0.0383070,-2.1547706,11.6477318,37.9465637,-50.0687027,77.8854980
960,-16.6994705,2.5210814,-0.3351865,6.6641221,96.2137375,63.1297722,-0.0167593,-2.1140692,11.0731258,42.2061081,-64.7633591,72.7099228
970,-17.7577038,2.7102225,-1.6472024,-19.0763359,133.9389343,152.8931274,0.3232156,-1.9273225,10.4602137,42.8549614,-79.2671738,66.7251892
980,-19.6131992,1.8674678,-2.6096666,-59.9618340,189.7557220,250.1297760,0.8499373,-1.7214222,9.8113880,40.8244286,-93.6335907,60.8778610
990,-19.6131992,0.7134684,-1.7932479,-114.9083939,250.1297760,250.1297760,1.2425843,-1.5227045,9.2535419,35.7938919,-103.2442780,53.6488533
1000,-19.6131992,-1.7621235,1.7238164,-167.4809113,250.1297760,250.1297760,1.5035510,-1.3407460,8.7387915,27.7328243,-106.8244247,48.6793900
1010,-19.6131992,-5.7939386,6.1913738,-200.2595367,250.1297760,250.1297760,1.7549409,-1.2880739,8.1761570,17.2213745,-102.9389343,46.0992355
1020,-19.6131992,-12.0906563,9.3852224,-204.9007568,250.1297760,250.1297760,1.9895715,-1.1683644,7.9104018,6.0992365,-90.7251892,45.1526718
1030,-13.5487185,-19.6131992,9.4043760,-179.7251892,250.1297760,250.1297760,2.3247581,-0.7852941,7.6590118,-5.0610685,-75.1755753,44.7251892
1040,-2.6767037,-19.6131992,8.3006544,-148.2366486,215.9770966,250.1297760,2.4516499,-0.3854645,7.8026633,-16.0534344,-58.6793900,44.9847336
1050,13.0387554,-19.6131992,7.7404146,-122.3893127,235.1221313,250.1297760,2.2553265,-0.3375807,8.1713686,-26.6717548,-43.8396950,47.8015251
1060,19.6126022,-19.6131992,9.7706871,-136.3206177,250.1297760,250.1297760,2.1308286,-0.4261657,8.8537130,-34.7633591,-32.4274826,51.5496178
1070,19.6126022,-19.6131992,19.5988350,-185.1755676,250.1297760,250.1297760,2.1404054,-0.5578461,9.6581602,-39.1832047,-25.2442741,57.3969460
1080,19.6126022,-1.7238164,19.6126022,-157.0915985,250.1297760,250.1297760,2.4731977,-0.6967092,10.5655584,-39.2290077,-20.6412220,60.7099228
1090,19.6126022,-0.0718257,19.6126022,-18.9465656,250.1297760,250.1297760,2.8538737,-0.9792235,11.1257982,-35.8167953,-16.8931293,62.1450386
1100,19.6126022,-0.0239419,18.1695042,123.3893127,41.6717567,-39.6259537,3.1723011,-1.2066715,11.6573086,-29.2900772,-13.0076332,60.0916023
1110,19.6126022,-0.8571198,6.3206601,174.6717529,-250.1374054,-208.2366486,3.5003049,-1.4676381,11.8679972,-21.4503822,-7.9007635,56.7404594
1120,8.9255381,-1.0342898,3.1579359,137.1526642,-250.1374054,-220.8244324,3.7469065,-1.5945302,12.0116482,-13.7786255,-2.6183207,51.1450386
1130,7.4650826,0.4596844,6.0261750,81.8473282,-250.1374054,-137.7557220,3.7708483,-1.7908537,11.9374285,-6.7938933,2.8778627,43.6488533
1140,9.4067707,2.1308286,8.1522150,42.0152664,-232.6717529,-42.0763359,3.5888901,-1.9081690,11.8225079,-0.4809160,7.3282442,34.8015251
1150,9.8185711,3.5505829,8.0085640,15.2595415,41.8320618,27.1603050,3.3111639,-1.8602852,11.6980095,4.9160304,8.4351149,26.9465656
1160,6.9623032,3.6942344,7.5345144,2.2595420,199.4198456,73.5954208,3.0717452,-1.8914096,11.3316984,9.5419846,7.3511453,19.2290077
1170,6.0046272,3.4476328,7.2783360,4.7938933,247.6030579,107.0839691,2.8826041,-1.7118455,11.2383251,12.4732828,5.6641221,12.7709923
1180,6.0046272,3.1651185,7.0772243,20.1297703,230.0915985,125.1603088,2.7174051,-1.7597293,10.9629936,14.6259546,4.0687022,7.7251906
1190,7.2208753,3.0214672,6.5313487,39.2442741,178.8320618,132.1374054,2.5737536,-1.6567791,10.7930059,16.3893127,3.9847329,3.2137403
1200,9.0284882,3.1124463,5.5952206,55.3435097,132.7862549,125.7022934,2.4779861,-1.6759326,10.6876621,17.1221371,4.0229006,-0.2595420
1210,10.3500814,3.3782012,4.4244623,63.0687027,104.4427490,110.1603088,2.4660151,-1.6208663,10.5320396,17.3587780,4.3206105,-3.6793892
1220,10.5535870,3.3973548,3.1363883,60.8244286,85.4198456,90.6564865,2.4612267,-1.5538290,10.2998028,16.6488552,5.3664122,-6.7175574
1230,10.3381100,3.1004753,2.2529323,53.2366409,68.6870193,71.3206100,2.3870070,-1.4915800,10.3309278,15.4045801,6.6870227,-9.7786255
1240,10.0148945,2.9113343,1.8770446,44.2977104,51.3893127,55.6335869,2.2361729,-1.4006008,10.3428984,13.5267172,7.2595420,-11.9389315
1250,9.6246414,2.6264257,1.5921360,34.3587799,35.5343513,41.9618340,2.0326669,-1.2473727,10.4865494,11.7404585,6.0610685,-14.2900763
1260,9.1721401,2.3822186,1.5825592,22.7175579,17.2366409,31.8167934,1.7309990,-1.2066715,10.5033092,10.9618320,3.9389312,-15.8320608
1270,9.0117292,2.0973101,1.8602852,11.4809160,3.3816793,25.8244267,1.6663558,-1.1228749,10.5440102,9.8778629,3.3206108,-16.3282452
1280,9.1984758,2.0901275,2.2553265,1.3282443,-3.1450381,22.4427490,1.6232605,-1.0127422,10.6517487,9.9007635,2.5419848,-17.3129768
1290,10.0029240,1.9440818,2.9592183,-19.0229015,17.5419846,16.9541988,1.2784972,-0.8738791,10.6349897,10.3893127,0.4580153,-18.0000000
1300,9.8042059,1.6567791,3.4189026,-29.3511448,40.1755714,17.4427490,1.2114599,-0.8762733,10.4147243,9.9007635,-0.6946565,-18.2366409
1310,9.6964674,1.2880739,4.0270267,-38.0305328,59.1450386,21.0687027,1.1037214,-0.8164186,10.4171181,9.0000000,-1.3358779,-18.0610695
1320,9.7251978,1.0869620,4.6471219,-44.0228996,76.8549652,27.1755733,1.0055596,-0.6512195,10.2638903,7.4809160,-1.5114504,-17.4351139
1330,10.1609402,0.9816177,5.3486195,-47.5496178,95.9923630,33.3053436,0.8954269,-0.6512195,10.4051476,5.9007635,-1.2977099,-16.2061062
1340,10.9007444,1.1300575,5.8059096,-49.0610695,115.5877838,36.7099228,0.8427547,-0.5865764,10.4482431,4.4122138,-0.8625954,-15.0839691
1350,11.4729557,1.1779412,5.9639258,-49.5190849,136.4122162,36.2900772,0.8595140,-0.5315101,10.3117743,3.0000000,-0.6870229,-12.8091602
1360,11.4992924,1.2210367,6.2895355,-49.9618340,152.2748108,33.0687027,0.9457048,-0.6392486,10.3740225,1.5877863,-0.3816794,-11.3587790
1370,11.7722292,1.2641320,6.3039007,-50.8854980,161.9618378,27.5648861,0.9600700,-0.6224893,10.4458485,0.4732825,-0.6641222,-10.0305347
1380,12.1888189,1.2665262,6.3110833,-52.8015251,169.6870270,19.2824421,0.9504932,-0.6105183,10.4290895,0.3740458,0.0763359,-9.3053436
1390,12.3923244,1.4413021,6.3900914,-56.4732819,172.9541931,7.0381680,0.9528874,-0.6344602,10.4458485,-0.5572519,0.3206107,-7.6793895
1400,12.4426022,1.4867916,6.5241661,-61.5725174,173.7251892,-8.6488552,0.9504932,-0.6177009,10.3357162,-2.4198472,-0.0763359,-5.3053436
1410,12.1505117,1.3263810,6.8234401,-66.2519073,168.9847260,-26.5419846,0.9959828,-0.6248835,10.2279778,-4.4503818,-0.5648855,-4.1068702
1420,11.9493999,1.1109039,7.0820122,-70.0916061,156.3511505,-45.1908379,1.0749911,-0.7110743,10.2160063,-7.2366414,-1.7251909,-3.1374047
1430,11.7267399,0.5865764,7.2280579,-74.0687027,137.0152740,-64.3435135,1.2282192,-0.7398046,10.1896706,-10.2748089,-2.1526718,-1.9389313
1440,11.7626524,0.3064562,7.5752153,-80.2824402,113.9007645,-85.3435135,1.3168042,-0.8595140,10.3021975,-13.1679392,-3.0000000,-1.9770992
1450,11.5016861,0.1987177,8.3006544,-87.6106873,84.3587799,-109.3053436,1.4676381,-0.9217629,10.3069859,-15.4809160,-4.7786260,-2.3664122
1460,11.6860390,-0.3567342,9.3062143,-92.7022934,46.9389305,-136.8854980,1.5466464,-1.0271072,10.2878323,-17.7786255,-7.4503818,-3.4961832
1470,12.1361465,-0.9624642,10.6110477,-92.0916061,6.5725193,-168.8396912,1.7070571,-1.0725969,10.4865494,-19.7175579,-10.1679392,-5.7480917
1480,12.1433287,-1.7669119,11.8967276,-86.2213745,-36.7786255,-203.4274750,1.6400198,-1.1132981,10.6038647,-20.3129768,-10.8167934,-7.9618320
1490,12.7945480,-2.6120608,13.0387554,-74.6564865,-84.3893127,-238.6946564,1.4748207,-1.2210367,10.7116032,-19.8167934,-13.1603050,-9.7633591
1500,13.9270000,-3.3590479,14.0131912,-58.6183205,-130.4198456,-250.1374054,1.3575054,-1.2521610,10.7666702,-19.1832066,-13.6641226,-11.4045801
1510,15.6340570,-3.8785870,14.7098999,-41.4732819,-171.8167877,-250.1374054,1.1228749,-1.4053892,10.7977943,-18.4274807,-14.3740454,-11.9389315
1520,17.8965664,-5.1379304,15.3898497,-23.4656487,-199.3129730,-250.1374054,1.0055596,-1.4341195,10.8265247,-17.6412220,-13.1145039,-11.5419846
1530,19.2444954,-7.1634150,16.1966915,-2.6183207,-190.2748108,-250.1374054,0.7948709,-1.4365137,10.9342632,-16.1526718,-11.6030531,-10.3893127
1540,17.4177284,-7.8960366,16.5151196,21.4198475,-164.2824402,-250.1374054,0.6536137,-1.3910241,11.0204544,-13.6335878,-9.2748089,-7.9618320
1550,13.6875811,-8.0947542,15.9405136,42.7251892,-137.8854980,-250.1374054,0.6200951,-1.4341195,10.9103212,-11.1145039,-7.3358779,-4.8396945
1560,10.2830439,-7.9223728,15.6412401,60.7251892,-115.5725174,-250.1374054,0.6320660,-1.4700323,10.7834291,-9.3664122,-6.8167939,-2.0458016
1570,6.9934273,-7.1466556,15.1791611,82.5343475,-91.3587799,-250.1374054,0.9026094,-1.4029950,10.8121595,-7.6412215,-6.3587785,0.1679389
1580,4.2353210,-6.3493905,14.4800577,108.0305328,-67.1755753,-250.1374054,1.0438666,-1.3838415,10.6182299,-6.6564884,-6.2748094,1.4045801
1590,2.3678534,-5.4922705,12.9741125,137.1374054,-48.9771004,-250.1374054,1.3886299,-1.4317253,10.7403336,-6.2671757,-5.7862597,1.6564885
1600,0.8619082,-4.7189474,10.5847120,161.7328186,-47.4732819,-250.1374054,1.6400198,-1.4365137,10.9701757,-4.4427481,-2.3358779,1.9541985
1610,0.0000000,-3.8163381,8.2647419,175.3129730,-64.3435135,-250.1374054,1.7717001,-1.3838415,11.3029680,-0.9694657,4.1374044,2.2442749
1620,-1.2425843,-2.9017577,6.2895355,177.5038147,-86.6488571,-250.1374054,1.7573351,-1.4532729,11.7458935,3.7099237,12.4961834,3.3816793
1630,-2.0709739,-1.9919657,4.6447277,169.5725250,-104.3664093,-250.1374054,1.9728121,-1.5562232,12.4019012,11.7557249,19.5114498,4.4885497
1640,-2.4971397,-1.2066715,3.4907281,153.9847260,-108.8625946,-250.1374054,1.9536586,-1.7286048,13.1704359,25.4351139,28.4503822,4.7862597
1650,-3.0430148,-0.4932030,2.7150109,134.1145020,-108.1145020,-250.1374054,2.0733681,-1.7980363,13.4218264,41.3664131,37.8473282,5.0534353
1660,-3.4931223,0.1292862,2.6958573,114.4198456,-101.3129807,-250.1374054,2.0135133,-1.6974803,13.7402534,57.9771004,44.5419846,4.0839696
1670,-4.0030847,0.7350162,2.6599445,98.8396912,-85.4045792,-250.1374054,1.9345051,-1.6424140,13.8025026,76.0839691,51.2748108,3.3587787
1680,-4.5896611,1.1611819,2.5833304,83.9312973,-66.3816757,-250.1374054,1.6879035,-1.5298871,13.7282820,92.4656525,59.3358765,2.7328243
1690,-5.3629842,1.4341195,2.7724714,70.2595444,-46.4503822,-250.1374054,1.4365137,-1.2210367,13.6780043,112.0916061,66.5267181,3.1832061
1700,-5.9328012,1.7357874,2.6312141,59.5496178,-28.3740463,-233.9084015,1.0965388,-1.1132981,14.1400833,132.5648804,75.5343475,4.9770994
1710,-6.7085190,1.9033806,2.6910689,51.3816795,-13.5496187,-211.4122162,0.7565638,-1.1013272,15.0355101,157.3893127,90.0305328,7.7938933
1720,-7.2543941,2.0015423,2.7940190,46.0381660,-3.6870229,-187.3358765,0.2442073,-1.1947005,16.0123386,187.4427490,114.9312973,13.7862597
1730,-7.8170285,2.0470319,2.6479735,42.7633591,1.8778626,-163.0839691,-0.4548960,-1.1994889,16.5366669,218.8778687,145.6870270,22.6564884
1740,-8.5831690,1.9799947,2.4516499,40.2671738,3.1068702,-136.4503784,-1.2114599,-1.1492109,16.6994705,250.1297760,178.5954132,37.4045792
1750,-9.6868906,2.1811066,2.2720859,36.9923668,0.0152672,-107.3206100,-1.6495966,-1.4341195,16.4624462,250.1297760,212.3129730,58.1221390
1760,-10.3069859,2.3510940,2.2577207,31.8396950,-6.2824426,-74.0534363,-2.1739240,-1.5825592,16.5175133,250.1297760,234.4885559,83.4885483
1770,-10.7307568,2.4157372,2.3415172,26.9541988,-8.5343513,-38.6106873,-2.1930776,-1.2545552,15.5311069,250.1297760,244.3511505,107.2137375
1780,-11.1856527,2.3127871,2.1164634,22.3129768,-6.2366414,0.1832061,-1.6759326,-1.6831152,13.5032282,250.1297760,236.0839691,123.0610657
1790,-11.4514084,2.1427996,1.8459201,14.2900763,-4.1984735,40.4580154,-0.7134684,-1.7070571,11.1856527,250.1297760,201.6870270,132.8320618
1800,-11.3915539,1.8938038,1.4413021,3.9160306,-3.7175572,83.4198456,1.7022687,-0.3639168,7.3286138,250.1297760,196.9236603,120.5267181
1810,-10.9342632,1.5705882,1.5107336,-8.1603050,-4.6412215,125.2366409,5.3510137,2.4708035,1.5897418,250.1297760,250.1297760,83.6335907
1820,-10.7020273,0.7733232,1.5801650,-19.1068707,4.1984735,169.6488495,3.3542595,4.0078731,0.8619082,250.1297760,250.1297760,41.7175560
1830,-12.1074162,0.0047884,1.5969244,-35.4961815,25.3435116,224.2671814,-0.4620786,3.9863255,2.5641768,204.7480927,167.7709961,18.8778629
1840,-14.6572275,-1.5203103,2.8419030,-56.4045792,62.2977104,250.1297760,-1.6687500,4.0773048,3.1603301,168.1603088,85.8473282,15.0381680
1850,-17.1735210,-3.1699069,4.8075323,-71.7786255,101.2061081,250.1297760,-1.1587877,4.1443419,3.1723011,142.3435059,22.9236641,12.1145039
1860,-19.0721130,-6.2584114,7.1179252,-81.6183243,135.0305328,250.1297760,-0.4860204,4.5848727,2.6216373,116.4122162,-21.6488552,4.0610685
1870,-18.9978924,-11.1832590,8.8345594,-89.7022934,179.5954132,250.1297760,-0.3423691,5.2887645,2.2481439,87.2595444,-51.9083977,-6.4503818
1880,-15.9165716,-18.9643745,10.0986910,-110.9160309,250.1297760,250.1297760,-0.6416427,5.7963328,2.2433555,62.0610695,-73.9236679,-14.9541988
1890,-9.5959110,-19.6131992,11.7339230,-133.3664093,250.1297760,250.1297760,-0.8978211,6.3876977,2.8203552,39.2824440,-83.9236679,-22.2213745
1900,0.9289455,-19.6131992,12.6197729,-132.9923706,250.1297760,250.1297760,-1.4532729,6.5361371,3.4093258,21.4274807,-85.4427490,-29.2748089
1910,16.0482521,-19.6131992,10.7020273,-147.6030579,250.1297760,250.1297760,-1.8866212,6.8641410,3.5721307,8.1374044,-86.7328262,-34.3206100
1920,19.6126022,-19.6131992,13.1153698,-195.6183167,250.1297760,250.1297760,-2.3941894,7.1179252,3.7923961,-3.7328243,-87.0763321,-37.6641235
1930,19.6126022,-18.0952835,19.6126022,-147.0305328,164.8778687,250.1297760,-2.7174051,7.1969333,3.6559272,-16.5114498,-86.3282471,-39.3664131
1940,19.6126022,-5.2839761,19.6126022,77.3740463,-196.0992432,250.1297760,-2.8730273,7.2783360,3.7349355,-29.8167934,-86.4045792,-40.0076332
1950,19.6126022,2.7197993,15.4353390,250.1068726,-250.1374054,67.5038147,-2.9161227,7.2927012,3.8618276,-43.0228996,-88.1374054,-39.5038185
1960,19.6126022,4.5369892,-5.1594782,175.3816833,-250.1374054,-104.1908417,-2.9113343,7.1777802,4.0725164,-55.3587799,-87.9465637,-39.1755714
1970,19.6126022,1.0558375,-2.5210814,15.1450386,-250.1374054,-114.9542007,-2.8490853,6.9670911,4.5800843,-66.2061081,-88.1374054,-38.4656487
1980,14.0227680,1.1563935,6.7827387,-57.9389305,-32.1374054,-34.2213745,-2.7078283,6.6606350,5.0086441,-75.5954208,-87.6259537,-36.7938919
1990,11.5902710,2.5091105,9.7251978,-73.8778610,177.9313049,51.5725174,-2.4995339,6.3733325,5.2097564,-84.4656525,-87.0610657,-35.6183205
2000,12.5383701,4.2999644,11.7794123,-77.6641235,240.2290039,88.2748108,-2.1858950,6.1267309,5.3629842,-95.0839691,-86.4503784,-33.2748108
2010,14.9421368,4.7788019,13.8958759,-50.6793900,213.0839691,84.5343475,-1.8387375,5.9064655,5.6598639,-106.5725174,-85.3129807,-32.6259537
2020,16.7114429,4.7141590,13.1728306,-4.7633586,149.1450348,51.1297722,-1.7070571,5.5138183,5.8633699,-118.9083939,-83.0152664,-31.6870232
2030,15.5885677,3.9384418,10.4482431,33.4732819,86.9007645,10.6564884,-1.5466464,5.1570840,6.1841912,-130.6717529,-80.4732819,-30.9236641
2040,13.0076313,3.0813217,7.3836803,51.6259537,59.1297722,-14.0992365,-1.4963684,4.8051381,6.6007805,-142.5572510,-78.5572510,-31.2137413
2050,10.1082678,2.5402350,4.1395535,48.7480927,62.1755714,-20.9694653,-1.3048333,4.1251884,6.9958215,-156.7786255,-77.5877838,-31.7480907
2060,7.6757712,2.0374553,2.2409613,29.6641216,76.2595444,-12.5801525,-1.2880739,4.0677280,7.6877422,-166.8931274,-78.6641235,-32.6259537
2070,6.0405402,1.6926919,1.5969244,4.9236641,93.1908417,3.3435113,-1.2665262,3.8211265,8.1474266,-175.5572510,-79.8778610,-33.7938919
2080,5.2480631,1.4341195,2.0302727,-17.3129768,103.2900772,20.0458012,-1.3718705,3.4476328,8.5520449,-184.4961853,-79.3664093,-32.6106873
2090,5.1427188,1.1755470,3.1507533,-33.0381660,102.4580154,33.5877876,-1.2928623,3.0956869,9.4355011,-189.2900696,-78.5419846,-31.4045811
2100,5.2576399,0.9840119,4.3071470,-41.4122124,90.7557220,42.0076332,-1.2473727,2.8634505,10.0125008,-189.4885559,-79.6488571,-31.0763359
2110,5.4922705,0.7661406,5.5736732,-42.2671738,67.1068726,46.2824440,-1.1587877,2.5617826,10.5703468,-187.5496216,-78.8396912,-30.9770985
2120,6.1889796,0.5530578,6.3134775,-37.3740463,42.5572510,45.0610695,-1.1851238,2.2696917,10.6349897,-185.2442780,-74.9542007,-29.3053436
2130,7.2855186,0.5458752,6.6678176,-32.2061081,26.1908398,39.4122124,-1.2449785,2.0230901,10.8768024,-183.5267181,-70.3511429,-26.8015270
2140,7.9534974,0.5243275,6.7635851,-30.8931293,24.5725193,31.6183205,-1.0678085,1.9057748,10.9534168,-181.9770966,-63.4656487,-24.5496178
2150,7.9606800,0.3830703,6.8713236,-34.5267181,30.6335869,25.8015270,-0.9121862,1.7405758,10.9821472,-181.7938995,-57.3816795,-24.7175579
2160,7.9726510,0.1963235,7.0580707,-42.4351158,40.7251892,21.6412220,-1.2066715,1.0199248,11.1880474,-180.3969421,-55.7633591,-23.6030540
2170,7.9223728,0.0837966,7.4890246,-51.4961815,51.8778610,18.8931293,-1.2449785,0.5123565,11.6836443,-177.6259613,-55.2519073,-21.7175579
2180,7.8074517,-0.3806761,8.3700867,-59.6106873,61.3435097,18.1603050,-1.2784972,0.1675933,11.9877062,-172.0076294,-59.3664131,-18.2290077
2190,8.0325060,-0.6033357,9.2032642,-64.6870193,64.4351120,18.8702297,-1.1923064,-0.1101327,12.3803539,-162.9847260,-68.5267181,-14.3816795
2200,8.5831690,-0.7685348,9.9430685,-66.5038147,61.7633591,17.8320618,-0.9624642,-0.4668669,12.6987810,-150.7557220,-73.2824402,-10.9160309
2210,9.1817169,-0.5722113,10.9965124,-65.6335907,56.1374054,13.2900763,-0.7398046,-0.6871324,12.9789009,-137.3664093,-72.1145020,-6.9770994
2220,9.9143381,-0.7972651,11.5950594,-61.6641235,55.6793900,5.8167939,-0.6512195,-0.6296718,13.3835192,-122.6259537,-71.9847336,-2.9389312
2230,10.1441803,-1.0342898,12.0906563,-56.4503822,54.9541969,-1.6641221,-0.7924767,-0.9097920,14.7506008,-108.9160309,-98.5801544,0.4274809
2240,10.5080976,-1.0725969,12.5024576,-50.2137413,48.8473282,-10.5114508,0.2657550,-1.1180865,14.8463688,-94.1450348,-99.5038147,1.5725191
2250,10.8313131,-1.1180865,12.7179346,-42.3358765,40.1450386,-21.8244267,0.5746055,-1.1013272,13.9844608,-79.8473282,-105.9236679,3.9236641
2260,11.6836443,-2.0015423,12.7322998,-34.2366409,31.2824421,-35.0458031,1.5490406,-1.4580613,13.3164816,-59.5572510,-79.7786255,0.9083970
2270,12.3635941,-2.2170193,13.3954897,-22.3053436,17.4961834,-59.2595406,1.2737088,-1.2832855,12.9334116,-39.6946564,-60.2900772,-2.9236641
2280,13.3763361,-1.7501525,14.7266598,1.2213740,-9.0992365,-90.6335907,0.9911944,-1.1204807,12.4737272,-22.2748089,-41.2442741,-1.5267175
2290,14.5782194,-2.1260402,15.8710823,34.6793900,-34.8549614,-129.5419922,0.7182568,-0.9050036,12.0212250,-9.2061071,-27.1984730,2.0687022
2300,15.5765963,-2.5019281,17.0322647,81.8625946,-61.0916023,-179.4656525,0.5889706,-0.8738791,11.6333666,-1.0076336,-17.4885502,8.0610685
2310,15.2653522,-2.9352763,16.9125538,136.8167877,-91.3282471,-232.0534363,0.8523315,-0.8619082,11.2670555,4.0610685,-10.5572519,11.7557249
2320,13.4290085,-2.6671271,14.9732609,185.3129730,-134.6030579,-250.1374054,1.0558375,-0.8762733,11.0515785,7.1450381,-5.5267177,12.6488552
2330,13.1871958,-2.9711890,12.6389265,217.5190887,-174.9847260,-250.1374054,1.2689204,-0.8930327,10.8049774,8.3435116,-4.5343513,11.9541988
2340,11.8919392,-2.6120608,9.6749191,227.9084015,-207.0610657,-250.1374054,1.3455344,-0.9050036,10.5296450,8.1908398,-3.8931298,7.9923663
2350,10.2423429,-1.6687500,6.9982157,216.1450348,-240.4809113,-250.1374054,1.1994889,-0.8666966,10.4147243,6.8015265,-3.8091602,4.9236641
2360,9.7946291,-1.0702027,5.1259594,189.1755676,-250.1374054,-250.1374054,0.9480990,-0.7876883,10.3931761,4.4427481,-5.2824426,2.5190840
2370,8.8177996,-1.1659702,4.0533628,157.3053436,-250.1374054,-250.1374054,0.7972651,-0.7254394,10.2950144,1.7709924,-9.1984730,0.0534351
2380,7.8697009,-1.3455344,3.6152260,128.5038147,-250.1374054,-250.1374054,0.6655847,-0.7445929,10.3357162,-1.1755725,-13.6946564,-1.2290076
2390,6.5337429,-1.9440818,3.4811516,105.4427490,-241.5343475,-250.1374054,0.4644727,-0.7134684,10.4985209,-2.1145039,-17.5801525,-1.8091604
2400,4.9368186,-2.1954718,3.8043671,86.8854980,-239.6030579,-250.1374054,0.2849085,-0.6488253,11.0013008,-0.5572519,-18.2748089,-1.2900764
2410,3.6487448,-2.4755919,4.1754665,73.7557220,-239.8320618,-250.1374054,0.2035061,-0.7541697,11.5232334,4.0763359,-15.1984730,1.9541985
2420,2.0326669,-2.6072724,4.2736282,64.5496216,-240.1297760,-250.1374054,-0.1197095,-0.9217629,12.3492289,13.6793890,-7.4580154,6.7633586
2430,0.6847382,-2.5737536,4.4172797,56.4885483,-247.9694672,-250.1374054,-0.1604107,-0.9768293,13.0722742,27.8702297,3.1526718,14.9236641
2440,-0.1149211,-2.5378408,5.5569139,52.4503822,-250.1374054,-250.1374054,0.1819584,-1.0366840,14.3579540,47.1068687,19.2366409,22.5038166
2450,-0.9409165,-3.3327117,6.6582408,54.6793900,-250.1374054,-250.1374054,0.4572902,-1.1707586,15.3683023,73.1679382,40.5877876,29.9847336
2460,-2.0805507,-3.9312592,7.6997132,62.6183205,-250.1374054,-250.1374054,0.8810617,-1.3718705,16.2589397,102.1526718,66.4045792,36.3282433
2470,-3.7014170,-4.6136031,8.2431946,72.7022934,-250.1374054,-250.1374054,1.2928623,-1.5729824,17.1376076,135.9694672,92.1908417,41.3587799
2480,-5.3294659,-5.0301919,8.9662399,81.6870193,-250.1374054,-250.1374054,1.7357874,-1.5658000,17.3075962,172.3969421,114.2671738,43.8167953
2490,-7.3932571,-5.2672167,9.1793222,88.9694672,-218.3511505,-250.1374054,2.1739240,-1.5658000,16.3116131,206.0000000,129.7709961,42.6946564
2500,-9.1074963,-4.9009056,9.0596132,91.8549652,-149.4503784,-250.1374054,2.4899571,-1.3287752,14.9708662,233.0076294,140.4198456,38.8854980
2510,-11.1257982,-4.4268565,6.6989422,84.1374054,-26.9694653,-250.1374054,2.5019281,-0.9911944,14.1041698,250.1297760,139.6946564,31.2900772
2520,-15.6532106,-2.1691356,2.7628946,51.2824440,171.3358765,-173.1984711,2.7748656,-0.9648584,12.7394819,250.1297760,140.3893127,21.9160309
2530,-19.6131992,-0.8810617,-3.2441268,-13.1755724,250.1297760,-65.0381699,3.2848279,-0.7924767,10.5703468,250.1297760,156.4732819,13.5114508
2540,-19.6131992,0.6368544,-8.3581152,-113.2824402,250.1297760,64.9542007,3.8187323,-0.1723816,8.2815018,250.1297760,172.4885559,1.4580153
2550,-19.6131992,-1.3000449,-9.9957409,-223.2748108,250.1297760,210.0534363,3.3829896,-0.4189832,7.5153608,250.1297760,176.2595367,-15.3893127
2560,-19.6131992,-7.1610208,-5.8130918,-250.1374054,250.1297760,250.1297760,3.5457945,1.8626794,5.3103123,223.9541931,167.9770966,-39.6412201
2570,-19.6131992,-12.0116482,-0.4118006,-250.1374054,250.1297760,250.1297760,2.1691356,2.4013720,4.7596488,192.6641235,139.1374054,-59.5343513
2580,-19.6131992,-15.9907913,3.4428444,-250.1374054,250.1297760,250.1297760,0.9528874,3.2393384,3.9863255,157.1450348,91.1297684,-72.2519073
2590,-19.6131992,-19.6131992,8.7794924,-250.1374054,250.1297760,250.1297760,0.1651991,3.9288650,3.5218527,114.9694672,32.9312973,-82.0687027
2600,-9.3828287,-19.6131992,15.7322187,-250.1374054,250.1297760,250.1297760,-0.0718257,3.9025288,3.1268115,70.3969498,-31.2519093,-93.9007645
2610,3.7181761,-19.6131992,19.6126022,-250.1374054,250.1297760,250.1297760,-0.1723816,3.8977404,3.3805954,26.6335869,-97.0229034,-111.6106873
2620,11.3125448,-19.6131992,19.6126022,-250.1374054,250.1297760,250.1297760,-0.8978211,3.6559272,4.7596488,-13.7175570,-147.7557220,-128.2824402
2630,19.6126022,-19.6131992,19.6126022,-250.1374054,-56.4961815,250.1297760,-1.3742647,3.3758070,6.9383612,-38.1603050,-173.6259613,-139.7938995
2640,19.6126022,-11.2072010,19.6126022,53.5496178,-250.1374054,250.1297760,-1.6065011,3.1028695,8.7914639,-43.8396950,-177.2290039,-148.1068726
2650,19.6126022,13.5439301,19.6126022,250.1297760,-250.1374054,97.3969498,-2.1978660,3.3015873,9.5192976,-39.0076332,-166.4809113,-151.9160309
2660,19.6126022,6.2320752,5.2145448,199.7328186,-250.1374054,-158.9541931,-3.0118904,3.6343796,9.8832140,-31.2137413,-143.1297760,-147.4503784
2670,17.4512463,1.1563935,-1.9009864,43.9694672,-102.6030502,-144.3587799,-3.7133877,4.1036406,9.9957409,-24.3969460,-109.8625946,-133.4885559
2680,9.3157911,0.0263361,2.9927368,-64.6259537,132.8473358,-58.0076332,-4.1587071,4.4603748,9.7419567,-20.2137413,-76.4427490,-115.6946564
2690,4.3981261,0.1412572,7.7859039,-90.0916061,250.1297760,34.0916023,-3.9839313,4.4100971,9.2296000,-19.8015270,-50.6717567,-99.6183243
2700,6.3062949,1.9967541,9.9837704,-83.5419846,250.1297760,100.0152664,-3.6391680,4.2808108,8.5951405,-24.5877857,-38.4274826,-86.7786255
2710,11.0180597,4.0366035,10.7283630,-60.1679382,223.9007568,114.3740463,-3.0525916,3.9767487,8.0109577,-34.0152664,-37.3740463,-80.1603088
2720,14.9804430,5.2672167,10.0747490,-27.6870232,145.4580078,80.8015289,-2.5330524,3.6200144,7.6207051,-45.3053436,-40.4427490,-76.6488571
2730,15.8375635,5.6143742,8.2384062,1.6106870,89.0076370,26.7099228,-2.1356170,3.4428444,7.2496057,-58.5725174,-45.5572510,-75.2213745
2740,13.2542324,5.0182209,5.8537931,15.8091602,57.4503822,-19.5419846,-1.9464760,3.3566537,7.0221577,-72.9770966,-54.6564903,-74.4427490
2750,9.8951855,4.1850433,3.9767487,11.9312973,41.6030540,-44.0076332,-1.9129574,3.1579359,7.1251078,-86.9694672,-63.6717567,-73.3282471
2760,6.8042865,3.4643922,3.2920105,-1.6106870,31.9160309,-49.0381660,-2.0829449,3.0430148,7.6254935,-98.3358765,-67.1068726,-70.9542007
2770,5.1187773,2.8490853,3.5481887,-12.4045801,19.4732819,-44.2213745,-2.3510940,2.9137285,8.1067257,-106.7557220,-66.1908417,-64.9542007
2780,3.8570392,2.2601149,4.0533628,-18.0839691,2.3358779,-33.4732819,-2.5833304,2.6479735,8.6406298,-113.3206100,-64.3206100,-58.9923668
2790,3.2752512,2.0901275,4.6423335,-21.0381680,-16.4045811,-18.4045811,-2.7102225,2.4971397,9.2367830,-118.4122162,-63.2671738,-52.2671738
2800,3.5146701,1.8722562,5.3605900,-20.1068707,-30.7099228,-4.1984735,-2.7772598,2.2457497,9.6198530,-122.3511429,-62.1832047,-45.6488533
2810,3.8330972,1.8770446,5.8729467,-17.5954189,-38.4809151,6.4045801,-2.8179610,1.9177457,9.8760319,-125.2137375,-62.1679382,-40.1832047
2820,3.9767487,1.8554969,6.0094156,-15.0916033,-41.3511467,16.4274807,-2.9544299,1.5658000,10.0532017,-126.6564865,-61.7251892,-32.1145020
2830,4.5274124,1.7908537,5.4228392,-15.2442751,-36.4274826,26.5419846,-3.1292057,1.3958124,10.4434547,-125.8091583,-59.5267181,-21.9694653
2840,4.9344244,1.7860653,4.7357068,-23.1755733,-22.9923668,36.3740463,-3.1268115,1.2114599,10.8959560,-122.0076370,-54.6106873,-10.5190840
2850,5.4946647,1.7501525,4.2592630,-39.8015251,-2.8854961,46.0152664,-2.8993635,0.8451489,11.2095947,-116.0000000,-45.9312973,0.1297710
2860,6.0022330,1.5418580,4.2736282,-61.8473282,22.9770985,55.0992355,-2.8610563,0.6153067,11.4202833,-108.8473282,-37.8702278,10.4732828
2870,6.3637557,1.5586174,4.8554163,-86.3969498,53.5648842,62.7175560,-2.7102225,0.4022238,11.5543585,-102.9694672,-28.5954189,19.6870232
2880,5.4491754,2.7916248,5.5736732,-112.8396912,66.0610657,75.6564865,-2.7772598,0.2585725,11.7985659,-97.7480927,-24.0763359,30.3053436
2890,7.6614060,0.5458752,6.3781209,-138.2137451,84.1984711,82.1679382,-2.6120608,-0.0167593,11.8033543,-91.9160309,-20.3282452,38.6412201
2900,8.6933022,-0.4884146,7.9223728,-158.3435059,94.8396912,78.6564865,-2.2577207,-0.2442073,12.0451670,-85.0534363,-16.4427490,46.1297722
2910,9.5863342,-0.2609667,9.9095497,-171.6412201,85.6259537,69.3816757,-1.9512644,-0.3399749,12.0762920,-76.9312973,-9.7175570,51.7328262
2920,10.6828737,-0.4955972,11.3508520,-173.8778687,84.6106873,56.0000000,-1.9297167,-0.5362985,12.0355902,-69.0610657,-4.6106873,58.2213745
2930,11.9877062,-1.3335636,12.9908724,-167.0610657,81.7022934,35.2977104,-1.7118455,-0.7493813,12.1433287,-61.5954208,0.0763359,62.4580154
2940,12.8304615,-2.1356170,14.6189203,-153.2671814,76.6641235,9.8015270,-1.3598996,-0.8643024,11.8512383,-55.9236641,3.0000000,64.9236679
2950,12.9166517,-1.8411317,16.3451309,-130.9847260,60.6946564,-14.9541988,-1.2856797,-1.0079538,11.5830889,-51.8702278,3.7251909,65.8473282
2960,14.4680872,-2.4899571,17.4225159,-97.1984711,63.1374054,-35.8778610,-1.2354017,-1.0773853,11.4945040,-49.9389305,1.4656489,66.2595444
2970,15.2964764,-5.4539638,19.3115330,-44.8244286,36.7022896,-76.3282471,-0.8547257,-1.2186425,11.2550850,-47.2519073,-7.4961834,64.8931274
2980,16.0626163,-4.9248476,19.6126022,22.9389305,-7.9618320,-127.3129807,-0.6392486,-1.3958124,11.4729557,-43.4580154,-22.9465656,60.6870232
2990,15.9381189,-4.6902170,19.3211098,86.2977066,-64.6870193,-180.3969421,-0.3471575,-1.4891858,11.7698355,-38.4885483,-46.8091621,54.9389305
3000,14.9205885,-4.2209558,17.0131111,129.3206177,-125.9465637,-234.1374054,0.2298422,-1.5035510,11.6644907,-34.7251892,-59.6412201,47.8854980
3010,14.4249916,-3.6607156,14.5901909,146.6106873,-187.3358765,-250.1374054,0.4046180,-1.4173602,11.4633789,-30.6946564,-66.0992355,40.3893127
3020,14.4609041,-3.2345500,12.9884777,146.1679382,-240.6564941,-250.1374054,0.6153067,-1.2856797,11.0635490,-27.1984730,-67.4732819,34.4503822
3030,15.1983147,-4.1443419,12.6293497,142.0381622,-250.1374054,-250.1374054,0.5386927,-1.0965388,10.8528605,-24.0381680,-68.1450348,29.1068707
3040,15.0259333,-3.8378856,12.5575237,144.0686951,-250.1374054,-250.1374054,0.5458752,-1.0438666,10.7092094,-22.4656487,-69.2061081,28.4732819
3050,13.4194317,-3.8450682,11.3724003,142.5954132,-241.2595367,-250.1374054,0.6129125,-0.9720409,10.8456783,-21.7404575,-69.8244247,26.9694653
3060,11.7650471,-4.0366035,9.6725254,132.7862549,-215.1603088,-250.1374054,0.6607963,-1.0462608,10.8456783,-20.8244267,-71.3740463,25.5419846
3070,7.4962072,-3.7756367,8.2455883,109.6106873,-157.5190887,-250.1374054,0.8978211,-1.1539993,11.0013008,-16.5267181,-72.5648880,25.1221371
3080,6.2153158,-3.6798692,8.2503767,109.1068726,-147.7175598,-250.1374054,1.0438666,-1.1444225,10.8001890,-14.5038166,-68.2977066,25.6488552
3090,4.8937230,-3.2321558,7.3525558,112.7251892,-142.6946564,-250.1374054,1.1779412,-1.1396341,10.8552551,-12.3740454,-60.1832047,26.2442741
3100,3.2728570,-2.7581062,5.9471664,114.4198456,-130.7099304,-250.1374054,1.4556671,-1.1731528,10.7930059,-9.7175570,-51.7099228,27.9160309
3110,2.0230901,-2.0925217,4.9751258,108.6641235,-126.1145020,-250.1374054,1.5466464,-1.2425843,10.7810354,-7.2213740,-41.5801544,29.1908398
3120,1.1109039,-1.3814473,4.4914994,97.9923630,-125.1297684,-250.1374054,1.7405758,-1.2066715,10.7020273,-4.8778625,-31.7633591,29.8625946
3130,0.0478838,-1.1228749,4.7357068,88.3282471,-121.3053436,-250.1374054,1.8890154,-1.2258250,10.7379398,-3.5572519,-22.5419846,29.6641216
3140,-1.2330076,-1.1061156,5.5114241,85.0381699,-124.6946564,-250.1374054,1.8842272,-1.2234308,10.5535870,-2.7938931,-15.4732828,29.6946564
3150,-2.3510940,-1.1061156,6.0764527,88.0457993,-127.2442780,-250.1374054,1.9464760,-1.3144100,10.6038647,-2.0229008,-9.5648851,28.4961834
3160,-3.8761928,-1.1037214,6.8617468,94.6030502,-126.0076370,-250.1374054,1.8746504,-1.3479286,10.5871058,-1.6030535,-6.1450381,26.7862587
3170,-5.3749552,-0.9097920,7.4602942,103.1374054,-126.5648880,-250.1374054,1.9057748,-1.3527170,10.6062593,-1.0610687,-4.7480917,23.5572510
3180,-6.1865854,-0.7421987,7.7116842,115.2824402,-126.1908417,-250.1374054,1.9225341,-1.4221486,10.5464048,-0.8167939,-3.7862597,20.5190830
3190,-6.9287844,-0.4860204,7.6350703,127.6641235,-132.9770966,-250.1374054,1.9488702,-1.5011568,10.6158361,-1.0076336,-3.8244274,16.4122143
3200,-7.6422529,-0.2346306,7.3597383,137.7557220,-137.5877838,-250.1374054,2.0278785,-1.6567791,10.6421719,-1.3587786,-3.7022901,12.1984730
3210,-8.2910776,-0.1101327,6.6941538,144.0534363,-136.9007568,-226.1832123,1.9033806,-1.6472024,10.5583754,-1.5038168,-4.9847326,8.3740454
3220,-8.4802189,0.2873027,6.2129216,145.6870270,-143.6946564,-195.6717529,1.8387375,-1.6543850,10.7379398,-2.0534351,-5.8320613,3.9465649
3230,-8.3413563,0.8020535,5.7245069,145.9389343,-146.0839691,-165.6335907,1.6567791,-1.6663558,10.7427282,-1.9389313,-6.0610685,0.7480916
3240,-8.3150196,1.1707586,5.1762376,143.7633514,-132.0915985,-132.8091583,1.4269369,-1.5634058,10.5487986,-1.4045801,-6.2137403,-1.8396946
3250,-8.7244263,1.3838415,5.1355362,138.4503784,-111.1450348,-96.5496216,1.2497669,-1.4748207,10.6948442,-1.1297710,-5.8854961,-3.0458016
3260,-8.8872309,1.6831152,5.4084740,134.0839691,-94.7251892,-55.6564903,1.1324517,-1.3670821,10.8193426,-0.8778626,-5.6335878,-4.2442746
3270,-8.3341732,2.0254843,5.3510137,134.9313049,-79.7862625,-14.0763359,1.0606259,-1.2449785,10.7738523,-0.2824427,-4.1755724,-4.8778625
3280,-7.5632443,2.0398495,5.3198891,142.1221313,-70.8091583,25.8244267,1.0486550,-1.1276633,10.7475166,-0.0229008,-6.4122138,-4.7175574
3290,-6.3876977,1.8171898,4.3957319,151.0915985,-42.5877876,66.0457993,0.9888002,-1.0318956,10.6637201,0.9312977,-6.6946564,-4.6488547
3300,-4.9463954,1.8124014,3.4021432,153.3206177,10.2442751,104.5877838,1.0438666,-0.8427547,10.5487986,1.4198474,-6.2519083,-4.8473282
3310,-4.3909435,1.4772149,2.5138988,145.2824402,91.8778610,147.6106873,1.0941446,-0.7661406,10.6230183,1.6183206,-4.6412215,-4.1297708
3320,-4.9918852,1.1923064,2.2888451,135.3969421,203.2748108,197.5038147,1.1444225,-0.7541697,10.5224628,1.6870229,-1.7328244,-3.2900763
3330,-6.4236102,1.0749911,1.0869620,121.3587799,250.1297760,250.1297760,1.1827296,-0.7805058,10.5272512,1.6106870,0.3435115,-2.7480917
3340,-11.3795824,0.7972651,-0.5267217,91.6564865,250.1297760,250.1297760,1.1372399,-0.8379663,10.5535870,1.4656489,0.8625954,-3.4656489
3350,-16.0602226,0.1149211,-0.3280039,53.8320618,250.1297760,250.1297760,1.1659702,-0.9241571,10.5392218,0.5954198,0.3206107,-3.7633588
3360,-19.6131992,-3.3901722,-0.7182568,24.1374054,250.1297760,250.1297760,1.1539993,-1.0031654,10.5176744,-0.2442748,-0.7099237,-4.6030536
3370,-19.6131992,-10.5033092,-0.0885850,-1.4809160,250.1297760,250.1297760,1.0749911,-1.1109039,10.6110477,-1.0687023,-1.8702290,-4.6030536
3380,-16.9604378,-19.6131992,3.0358322,-20.1297703,250.1297760,250.1297760,1.0438666,-1.1180865,10.6421719,-1.5801526,-2.8167939,-5.7251906
3390,1.1827296,-19.6131992,3.6415622,-40.2137413,250.1297760,250.1297760,0.9169745,-1.2545552,10.5320396,-1.8091604,-3.6793892,-6.1374044
3400,19.6126022,-19.6131992,6.1770086,-76.5190811,250.1297760,250.1297760,0.9361281,-1.3263810,10.5895004,-1.9312977,-3.3358779,-5.2824426
3410,19.6126022,-19.6131992,13.5247765,-106.4656525,250.1297760,250.1297760,0.8212070,-1.2904681,10.5152798,-1.9160305,-2.0229008,-4.9694657
3420,19.6126022,-3.8570392,19.6126022,-86.0076370,250.1297760,250.1297760,0.7206510,-1.3575054,10.5416164,-2.0076337,-0.6641222,-3.9618320
3430,19.6126022,10.0220766,19.6126022,20.9541988,250.1297760,250.1297760,0.6105183,-1.3263810,10.4362717,-2.3816793,1.1374046,-2.1221373
3440,19.6126022,4.3286943,10.0340481,123.2900772,250.1297760,-7.9236641,0.5243275,-1.2880739,10.3883877,-2.7022901,1.9847329,-0.5954198
3450,19.6126022,2.1882892,-8.5041609,105.2366409,250.1297760,-155.9007568,0.5434810,-1.3527170,10.4290895,-4.0381680,-0.1832061,1.2137405
3460,0.8738791,0.9457048,-14.4800577,-27.7633591,-118.8702316,-160.1068726,0.5913648,-1.2713146,10.4673967,-5.4427481,-5.4198475,1.7099236
3470,0.9265513,-1.7597293,-6.1698260,-142.2061005,-250.1374054,-78.8167953,0.6775556,-1.2761030,10.5248566,-7.3740458,-10.9541988,1.7404580
3480,12.3037395,-0.7158626,5.5114241,-177.3664093,-250.1374054,-3.7175572,0.6153067,-1.3335636,10.6445665,-9.2671757,-14.0076332,1.3969465
3490,19.6126022,2.2409613,12.0379848,-174.5038147,-203.7633514,16.8396950,0.7613522,-1.4173602,10.8839855,-8.7709923,-17.7557259,0.4274809
3500,19.6126022,3.8115497,13.6947641,-161.4198456,56.2900772,-10.6641226,0.9337339,-1.4772149,10.9773588,-7.6030536,-21.1908398,-1.1374046
3510,15.6292686,2.9041519,12.7777891,-136.6564941,230.2442780,-37.4351158,0.8906385,-1.4389079,11.0060892,-5.6870227,-23.1908398,-2.2977099
3520,7.3070664,2.4947455,10.2662840,-106.3664093,250.1297760,-32.4732819,0.9935886,-1.4341195,11.1018562,-4.1755724,-25.1297703,-2.6030533
3530,3.5218527,2.5019281,8.2623482,-83.8244247,239.1679382,-14.1374044,1.1827296,-1.4939742,10.9342632,-2.2900763,-25.3282452,-2.9160306
3540,3.4212968,2.1906834,7.4842362,-66.1526718,150.1450348,-1.6793894,1.1899122,-1.4413021,10.7834291,-0.4732825,-24.5419846,-3.1450381
3550,4.3406653,1.7693061,7.6566176,-48.1603050,69.3053436,2.4503818,1.3144100,-1.3000449,10.7187862,0.8625954,-22.1984730,-3.2824428
3560,5.5880380,1.7238164,7.6877422,-28.4885502,20.7938938,3.9389312,1.2808913,-1.2952565,10.6278067,2.2595420,-19.3206100,-2.9160306
3570,6.7827387,1.4197544,6.2823529,-1.2671756,0.1374046,8.6335878,1.4197544,-1.2282192,10.5009146,3.9160306,-10.8931293,-1.4885496
3580,8.6861191,0.7398046,4.7644372,-50.1755714,70.7786255,17.0305347,1.3287752,-1.2473727,10.3524752,0.0229008,5.0763359,0.1374046
3590,7.5416965,0.2130829,5.6622581,-71.8320618,50.0000000,-3.4732823,1.0462608,-1.3096216,10.8815908,-1.3358779,0.4122137,-0.5725191
3600,7.2735476,0.1173153,5.9160423,-76.8702316,32.2595406,-6.8167939,1.0318956,-1.3287752,11.0084829,0.2748092,-0.5267175,-0.9007633
3610,7.5105724,0.1364688,6.2679882,-82.4351120,18.0229015,-8.8473282,1.1156923,-1.3455344,10.8049774,2.2824428,-0.9160305,-0.8015267
3620,8.2982607,-0.0646431,6.7396431,-97.8625946,11.6259546,-4.8778625,1.1468167,-1.3383518,10.5751352,4.0229006,-0.6183206,-0.7862595
3630,8.7723103,-0.3926471,7.3908629,-103.8625946,23.9694653,-7.4503818,1.1156923,-1.2976507,10.4913378,3.5648854,-0.6488550,-1.5648855
3640,8.8680773,-0.5602403,8.2000990,-108.0687027,32.8549614,-11.4885492,1.0606259,-1.2282192,10.4745789,2.9465649,-1.2824427,-1.6717557
3650,8.7986460,-0.4189832,8.9901810,-108.7938919,40.3893127,-14.3129768,1.0869620,-1.2162483,10.5607700,2.2900763,-1.7480916,-1.4045801
3660,8.9925756,-0.6679789,9.5576038,-107.0305328,49.2137413,-12.6488552,1.0725969,-1.1779412,10.4314833,1.7099236,-1.7251909,-1.3587786
3670,9.6078825,-1.2354017,10.2255831,-106.9465637,53.7938919,-10.4732828,1.1779412,-1.2138541,10.4027529,1.3206106,-1.3129771,-1.0000000
3680,11.3197279,-1.5442522,11.5663290,-101.5496216,45.9541969,-18.2366409,1.1396341,-1.2282192,10.2088242,0.2748092,2.9618320,-0.8473282
3690,13.2925396,-1.9416877,13.1895895,-86.1679382,39.9389305,-38.0152664,1.0103480,-1.1372399,10.0986910,-0.8091603,5.6870227,-0.6335878
3700,14.3938665,-2.3032103,14.8224268,-61.7938919,31.2900772,-66.4732819,0.8906385,-1.1228749,10.3524752,-2.6793892,4.6030536,1.1450381
3710,14.5973730,-2.4372849,16.0099449,-31.2290077,17.6870232,-96.6641235,0.7565638,-1.2377959,10.4266949,-3.6183207,3.2442749,2.4351146
3720,14.3196468,-2.4540441,16.5175133,5.7404580,-0.7633588,-128.5877838,0.6368544,-1.3072275,10.8456783,-3.3129771,1.1145039,4.1679387
3730,14.3603487,-2.5138988,16.1535969,46.1755714,-27.9007626,-161.6946564,0.5003856,-1.2665262,11.2215662,-0.7251908,-0.2061069,4.8015265
3740,14.2669754,-2.6216373,15.1959200,80.0076370,-70.6183243,-198.6564941,0.2298422,-1.3646880,11.5998478,5.1984735,-0.7938932,8.1374044
3750,14.0491037,-2.3319404,14.3818960,107.9770966,-127.3587799,-240.0610657,0.2130829,-1.2713146,11.8392668,12.3435116,0.9083970,12.4198475
3760,13.9413652,-2.1212518,13.3667593,131.0839691,-176.7099304,-250.1374054,0.4381367,-1.2545552,11.6836443,19.0152664,5.3206105,16.9389305
3770,13.8072910,-2.0829449,12.2726154,146.9160309,-208.4122162,-250.1374054,0.6033357,-1.1779412,11.3149395,23.8396950,12.0763359,18.5038166
3780,13.9940376,-2.1260402,10.9294748,153.7404633,-226.6641235,-250.1374054,0.6105183,-1.0199248,11.1377697,26.4351139,15.3358774,19.2442741
3790,14.1951494,-1.7309990,10.6709023,151.6717529,-237.5572510,-250.1374054,0.6392486,-0.9073978,10.9749641,27.4732819,13.8396950,20.2366409
3800,13.4792862,-1.9249283,9.6629486,146.0610657,-224.6870270,-250.1374054,0.7733232,-0.8283895,10.7211800,27.5877857,10.4580154,19.4045811
3810,11.5567522,-2.3726418,8.3916340,136.8473358,-206.7175598,-250.1374054,0.7685348,-0.6919208,10.4410601,26.9694653,9.5725193,18.2748089
3820,10.1465750,-2.2984219,7.7260494,125.1755753,-192.8702240,-250.1374054,0.8954269,-0.6392486,10.2255831,24.2977104,4.9618320,17.5877857
3830,8.7100611,-1.7812769,6.9239960,116.0687027,-176.1450348,-250.1374054,0.9002152,-0.6943150,10.1082678,21.0381680,-0.2748092,15.8320608
3840,7.2136927,-1.2473727,6.0860295,109.0534363,-155.1603088,-250.1374054,1.1324517,-0.6512195,9.8927908,16.9847336,-0.1145038,14.5954199
3850,5.8849177,-0.4094064,5.3510137,100.7175598,-138.6717529,-250.1374054,1.3048333,-0.7326220,9.7539282,12.7633591,-1.1679389,13.0076332
3860,5.2265158,0.1580165,3.9863255,88.3511429,-121.8549652,-250.1374054,1.2928623,-0.7924767,9.7515335,8.1374044,-0.6412213,11.1297712
3870,4.6495161,0.7517755,3.2824337,73.1755753,-106.8320618,-250.1374054,1.3000449,-0.8427547,9.8688488,4.1450381,-2.0992367,8.7557249
3880,3.8666160,1.2449785,3.5912843,58.5496178,-99.9770966,-250.1374054,1.2689204,-0.9648584,9.8736372,-0.4732825,-5.2977099,7.8167939
3890,2.7245877,1.3263810,4.1108232,47.8549614,-94.5343475,-250.1374054,1.1875180,-1.1228749,10.0747490,-4.4122138,-8.7328243,4.6259542
3900,1.4724265,1.2473727,4.8554163,44.3664131,-87.8167953,-250.1374054,1.0606259,-1.3263810,10.3907824,-7.0992365,-11.5572519,2.7251909
3910,0.3663110,1.2066715,5.1068063,47.3969460,-73.5190811,-250.1374054,0.9600700,-1.3622938,10.7116032,-8.1450386,-14.0610685,0.6259542
3920,-1.4389079,1.1755470,5.2863703,53.4580154,-59.7099228,-250.1374054,0.9552816,-1.3790531,10.8241301,-8.2671757,-15.3587790,-1.0305344
3930,-2.7054341,1.3742647,5.3103123,59.4580154,-57.8015251,-250.1374054,0.8834559,-1.3934183,10.9031391,-7.3053436,-15.7099237,-1.9923664
3940,-3.6774750,1.7693061,5.1570840,66.3358765,-59.6641235,-250.1374054,0.9840119,-1.3503228,11.0994625,-5.6641221,-15.4045801,-2.2595420
3950,-4.5178356,2.3175755,5.1115947,73.1068726,-61.6030540,-249.0458069,0.9744351,-1.2880739,11.0276365,-3.8473282,-13.9618320,-2.0000000
3960,-5.0397687,2.6814921,4.8554163,78.2137375,-63.8091621,-221.9694672,0.8762733,-1.1611819,11.1210098,-1.6641221,-11.7709923,-1.3435115
3970,-5.4850879,2.8730273,4.0006905,77.2977066,-61.0152664,-191.0915985,0.9169745,-1.0390782,11.0348196,0.6564885,-9.4732828,-1.1908396
3980,-5.9160423,2.8035958,3.0501974,64.8015289,-53.6793900,-157.1526642,1.0342898,-0.9744351,10.9773588,2.6870229,-7.2977099,-0.0687023
3990,-6.4068508,2.8083842,2.8514795,40.8244286,-42.5343513,-119.6183243,1.1228749,-0.8810617,10.7810354,4.7022901,-5.9007635,-0.3358779
4000,-6.5840211,2.6958573,3.9168940,16.4274807,-26.0305347,-81.6183243,1.0869620,-0.8236012,10.5751352,5.0534353,-4.6641221,-0.2595420
4010,-6.0549049,2.7221935,5.1929970,1.8702290,2.6488550,-47.6106873,1.0725969,-0.5817881,10.5655584,4.1374044,-4.1221375,0.2290076
4020,-4.6375451,2.7437410,7.1873569,13.8625956,59.7404594,-15.2442751,1.0438666,-0.5698171,10.3931761,1.5419847,-4.2061067,0.1679389
4030,-4.3286943,2.5857246,7.1825686,37.8473282,59.9694672,-11.7251911,0.9888002,-0.4405309,10.4817610,0.2137405,-5.2519083,0.3664122
4040,-3.9432299,2.4803803,6.5744443,69.9389343,43.0000000,-15.8625956,1.0055596,-0.5482694,10.6804790,0.0839695,-5.7328243,0.2061069
4050,-3.6750808,2.4157372,5.3414369,103.7251892,18.5572510,-25.7709923,0.9600700,-0.5937590,10.7618818,0.2442748,-5.2366414,1.0305344
4060,-3.8929520,2.0326669,3.7540891,133.5343475,-9.4427481,-39.3816795,0.9696468,-0.6512195,10.9414454,1.3053435,-4.6717558,0.5572519
4070,-4.5992379,1.5346755,1.6017127,155.5648804,-31.4732819,-48.2442741,1.0558375,-0.8259954,10.8528605,2.1526718,-3.2137403,0.8854962
4080,-6.2272868,1.4939742,-0.9792235,164.6488495,-35.7251892,-42.5648842,1.1037214,-0.9480990,10.7139978,3.4580152,-1.1145039,0.5114504
4090,-8.7603388,1.6328372,-3.7253587,153.5801544,-3.8549619,-15.5267172,1.0462608,-1.0390782,10.7834291,4.0229006,1.0152671,-0.2748092
4100,-11.7842007,1.9033806,-6.4068508,122.9694672,60.4351158,35.1603050,1.0558375,-1.1516051,10.6613255,4.0458016,2.0610688,-1.2748091
4110,-16.6252518,2.4133430,-8.6741486,66.6564865,178.4885559,119.5648880,1.0965388,-1.1061156,10.4937325,3.9160306,2.4351146,-1.6030535
4120,-19.6131992,2.8371146,-9.1170731,-1.7862595,250.1297760,233.0610657,0.9935886,-1.2449785,10.5104914,3.2671757,1.9465649,-2.3358779
4130,-19.6131992,2.2218077,-7.9558916,-59.4427490,250.1297760,250.1297760,0.9744351,-1.1970947,10.5799236,2.4809160,0.8015267,-3.4580152
4140,-19.6131992,-0.3184272,-6.1770086,-100.5877838,250.1297760,250.1297760,0.9265513,-1.1803354,10.3979645,1.3282443,0.0076336,-4.6488547
4150,-19.6131992,-5.9160423,-2.8083842,-129.3664093,250.1297760,250.1297760,0.8307837,-1.0749911,10.5296450,0.1984733,-0.5877863,-5.0916033
4160,-16.4887829,-14.3052816,0.8834559,-150.6412201,250.1297760,250.1297760,0.7541697,-1.0510491,10.5487986,-0.8625954,-1.8702290,-5.3358779
4170,-6.9048424,-19.6131992,4.1060348,-171.5648804,250.1297760,250.1297760,0.7661406,-1.0031654,10.5990763,-1.3053435,-2.9618320,-5.7709923
4180,7.3932571,-19.6131992,6.5528965,-193.6717529,250.1297760,250.1297760,0.7254394,-0.9552816,10.6685085,-1.6183206,-4.1297708,-5.4809160
4190,19.6126022,-19.6131992,11.5375986,-225.4351196,250.1297760,250.1297760,0.6416427,-0.9002152,10.6110477,-1.8854961,-5.7251906,-5.1526718
4200,19.6126022,-19.6131992,19.6126022,-250.1374054,250.1297760,250.1297760,0.5410868,-0.7900825,10.7882175,-1.7786260,-7.3664122,-4.8854961
4210,19.6126022,-4.9942794,19.6126022,-237.9770966,250.1297760,250.1297760,0.6512195,-0.7278336,11.1138277,-0.2442748,-9.1068707,-3.7328243
4220,19.6126022,0.1460456,19.6126022,-104.4809189,250.1297760,250.1297760,0.6368544,-0.7350162,11.0539722,1.2748091,-9.4351149,-2.3816793
4230,19.6126022,-0.6200951,19.6126022,54.9847336,210.9847260,5.0610685,0.5961532,-0.6919208,11.0036945,2.8473282,-8.9007635,-1.4656489
4240,19.6126022,-1.1803354,7.0628591,118.7938919,-233.3664093,-159.1908417,0.7589580,-0.6224893,10.7139978,4.3511453,-7.4122138,-0.3282443
4250,7.8002691,0.1795642,0.0550664,76.9847336,-250.1374054,-208.9007568,0.8236012,-0.6392486,10.6924505,5.6259542,-5.6183205,1.4580153
4260,7.3190370,-0.0478838,3.3279233,8.4732828,-250.1374054,-155.5572510,0.9169745,-0.5937590,10.5248566,5.9389315,-3.1374047,1.6335878
4270,12.9501705,0.6081241,8.8058290,-26.4427490,-250.1374054,-74.2671738,0.9480990,-0.5458752,10.4171181,5.2519083,-2.8625953,2.8549619
4280,15.2270451,2.4684093,10.7906122,-35.0534363,-144.2900696,-13.3358774,1.0989330,-0.6320660,10.4219065,4.6335878,-3.5496182,3.2061069
4290,11.6525202,3.3398943,9.5887289,-36.4122124,104.6793900,24.2519093,1.0725969,-0.7374104,10.3524752,3.4885497,-3.6106870,2.4885497
4300,7.4219875,3.1962428,8.2120695,-32.7480927,208.0458069,53.4809151,1.2234308,-0.7565638,10.3740225,2.0839694,-3.0992367,1.1526718
4310,5.6694407,3.1148405,7.1155310,-20.9618320,201.5038147,77.2290039,1.1420283,-0.7948709,10.5104914,1.0839695,-2.9541984,0.1755725
4320,6.0165982,3.5146701,5.9208307,-4.7404580,142.1145020,86.4503784,1.0558375,-0.8379663,10.5296450,0.6564885,-3.6412213,-0.8396947
4330,7.1945391,3.8354914,5.3869262,9.0763359,70.6564865,82.3893127,1.0247130,-0.8738791,10.6661139,0.3969466,-4.0610685,-1.5496184
4340,11.8153248,0.6224893,3.6056492,-48.9160309,60.8931313,34.4656487,0.8930327,-0.8331779,10.6804790,4.2442746,-2.7022901,-2.2061069
4350,12.3013458,0.3519458,3.9959023,-65.3206100,82.5114517,25.9694653,0.9026094,-0.8044477,10.6014709,3.8702290,-2.6335878,-2.6488550
4360,12.1409349,0.2777260,5.2648225,-81.5114517,102.9083939,18.9389305,0.9337339,-0.7876883,10.6565371,3.7786260,-2.5038168,-2.6641221
4370,11.0779142,0.0359128,6.4116392,-84.5496216,105.9236679,8.8015270,0.7900825,-0.7613522,10.6876621,3.9236641,-2.2748091,-2.4122138
4380,9.9215212,-0.3351865,7.1705976,-78.9542007,105.0687027,5.5114503,0.8547257,-0.8307837,10.5440102,4.0076337,-2.0839694,-2.0152671
4390,9.0213060,-0.2226596,7.9343438,-67.0610657,94.5725174,7.9007635,0.7996593,-0.7302278,10.6709023,3.7022901,-2.0152671,-1.6183206
4400,9.0931320,-0.0454896,8.2072811,-53.5038185,70.3358765,12.1755724,0.6895266,-0.6991033,10.6685085,3.4503818,-2.1450381,-1.5038168
4410,10.0771437,0.0047884,8.1522150,-43.3969460,57.1221390,15.2442751,0.6919208,-0.7206510,10.6780853,3.4732823,-2.6564887,-0.6564885
4420,11.4561968,0.4285599,7.7859039,-39.0458031,65.4732819,16.1526718,0.6847382,-0.7014975,10.8576488,3.5648854,-3.2595420,-0.2061069
4430,12.4689388,0.8571198,7.3884687,-42.8473282,82.6183243,13.8320608,0.5841822,-0.7421987,10.9342632,4.6183205,-3.2061069,0.7099237
4440,13.4816809,0.5291159,7.2639709,-51.3893127,100.2290039,4.2290077,0.5937590,-0.7302278,10.9677820,6.7480917,-2.4809160,1.7557251
4450,13.7977142,0.1963235,7.4914188,-58.6717567,120.0457993,-9.7404585,0.4141948,-0.7134684,11.5663290,10.9160309,-0.8549618,3.1908398
4460,13.6612453,0.1364688,7.8673067,-63.4198456,127.5190811,-24.5343513,0.0885850,-0.7350162,12.4138727,19.3358784,3.5038168,5.9236641
4470,13.8360205,0.0526722,8.4514885,-64.8854980,119.6793900,-43.6717567,-0.2992737,-0.7062859,13.2231083,31.0152664,10.1374044,10.9389315
4480,14.4848461,-0.3926471,8.8896255,-62.8702278,97.3740463,-70.9542007,-0.5985473,-0.7086801,14.2238798,45.6870232,19.2977104,16.8625946
4490,14.8703108,-0.8475431,9.3517036,-58.6183205,58.0305328,-107.7175598,-1.3263810,-0.8259954,15.9213600,66.9083939,34.0152664,21.5419846
4500,15.0786057,-1.0678085,10.3548698,-51.0992355,12.0687027,-150.3282471,-2.8634505,-1.0103480,17.4201221,99.6335907,48.2824440,35.4351158
4510,15.0355101,-1.4628497,11.3963413,-37.5648842,-31.6564884,-195.0305328,-4.2209558,-1.1755470,17.9252968,142.6030579,59.0000000,58.0000000
4520,14.8822813,-1.8938038,12.5766773,-14.4885492,-68.5954208,-238.5725250,-4.8386569,-1.1252691,17.0466290,187.5877838,64.6106873,86.1450348
4530,13.8551741,-2.4348907,12.8903160,13.9618320,-98.0839691,-250.1374054,-3.8785870,-0.8427547,14.6308918,224.4961853,66.1145020,112.1374054
4540,13.1153698,-2.7078283,12.7322998,41.4656487,-117.5114517,-250.1374054,-2.6240315,-0.4525018,11.3795824,238.1068726,73.1221390,131.3740387
4550,12.4066896,-2.6240315,11.9685535,63.7099228,-127.5190811,-250.1374054,-0.8355721,0.0574605,9.1410151,228.6717529,88.4198456,140.0686951
4560,11.7458935,-2.4636209,11.0491848,77.8778610,-127.2595444,-250.1374054,-0.0502780,0.8092360,8.2192526,201.9084015,124.0916061,138.6793823
4570,10.7714586,-2.2649033,10.1082678,86.1374054,-120.0229034,-250.1374054,-0.0909792,1.4029950,8.8010406,178.8549652,137.7786255,134.0992432
4580,9.7419567,-1.7405758,9.2631187,89.0687027,-113.0229034,-250.1374054,-0.0766141,1.2186425,9.8903971,165.1603088,140.3129730,132.6412201
4590,9.2224178,-1.0917504,8.4682484,87.9007645,-114.9847336,-250.1374054,0.0143651,1.2593436,10.9965124,152.1374054,137.2595367,126.4351120
4600,9.2846670,-0.6847382,8.2503767,86.8702316,-117.2366409,-250.1374054,0.2202654,0.9576758,12.6963863,153.9313049,127.0534363,120.9236679
4610,8.9997578,-0.3471575,7.9534974,89.4961853,-113.3969498,-250.1374054,0.4501076,0.8212070,13.2709923,163.4122162,121.5267181,115.7480927
4620,8.1809454,-0.2106887,7.0652533,90.2748108,-103.3664093,-250.1374054,0.4812321,0.8595140,13.1464939,175.5267181,119.1755753,109.5496216
4630,7.1131368,0.0622489,6.1003947,86.2671738,-92.1526718,-250.1374054,0.4836263,1.0773853,12.7873659,186.3587799,113.7633591,103.1297684
4640,6.1626434,0.1197095,5.3270717,79.1450348,-85.8854980,-250.1374054,0.7206510,1.1683644,11.7411051,194.0763397,102.2442780,95.2213745
4650,5.0206151,0.5171449,5.0062504,70.8091583,-86.4580154,-250.1374054,1.2761030,1.6902977,10.2902260,190.7175598,99.4427490,86.8015289
4660,4.2688398,0.6919208,4.8410511,64.6946564,-88.6641235,-250.1374054,1.1109039,2.2409613,9.1386213,180.7480927,95.9465637,78.5419846
4670,3.0621684,1.0318956,4.9966736,60.9312973,-92.0457993,-250.1374054,0.9576758,2.8634505,8.1761570,164.1984711,77.8396912,71.0152664
4680,2.0949159,1.2952565,4.9392128,57.7709923,-93.6564865,-250.1374054,1.2354017,3.3710186,7.2400289,146.6641235,43.6793900,61.6259537
4690,1.1324517,1.5729824,5.0277977,56.6412201,-94.1908417,-250.1374054,1.7070571,3.7612717,6.7827387,129.5648804,5.7557254,49.0763359
4700,0.1891410,1.8554969,5.3414369,58.2137413,-96.9160309,-250.1374054,2.4468615,3.9839313,6.2895355,113.4961853,-24.6564884,35.7251892
4710,-0.7254394,1.9392935,5.0589223,61.4122124,-94.4809189,-250.1374054,3.3470769,4.2616572,5.8729467,98.3969498,-38.1755714,20.7633591
4720,-1.5586174,2.2625091,5.2265158,64.7175598,-94.5954208,-250.1374054,3.7253587,4.5992379,5.4802995,84.3511429,-37.2442741,6.1603055
4730,-3.0142846,2.3894010,5.3031297,67.9542007,-99.3969498,-250.1374054,3.6415622,4.9870968,5.2001796,72.1450348,-29.0152664,-8.1755724
4740,-3.7133877,2.5138988,5.4635406,72.1145020,-99.3969498,-250.1374054,3.2537034,5.2073622,5.0828643,61.3587799,-17.8320618,-22.0305347
4750,-4.4843168,2.7293761,5.0637107,75.2671738,-92.6106873,-237.8015289,2.8203552,5.7340837,5.0469513,50.7862587,-10.0763359,-34.2900772
4760,-5.0110383,3.2225790,4.6950054,75.5038147,-82.0305328,-216.2290039,2.6671271,6.0285692,4.9296360,39.8778610,-12.9694653,-46.1221390
4770,-5.3893204,3.5362179,4.2999644,73.2595444,-71.8167953,-195.8778687,2.4229198,5.9423780,5.0206151,27.7862587,-22.7862587,-59.9541969
4780,-5.4802995,3.6391680,3.7876077,69.3053436,-61.9771004,-177.9694672,1.9680238,6.0956063,5.3342543,15.3435116,-28.5267181,-73.4122162
4790,-5.8442163,3.6056492,3.3805954,64.4351120,-53.8549614,-161.4274750,1.2114599,6.0285692,5.8681583,4.6412215,-32.2519073,-83.0457993
4800,-6.3757267,3.5026991,3.4117200,60.2900772,-47.0381660,-142.6641235,0.4477134,6.3900914,6.1626434,-6.2442746,-43.8015251,-89.9923630
4810,-6.8018923,3.3782012,3.5266411,57.8244286,-40.9771004,-122.6030502,0.1292862,6.5888095,6.1458845,-17.9923668,-66.8549652,-99.5190811
4820,-7.1298962,3.2513094,3.2106080,54.3816795,-30.0610695,-101.8244247,0.2513899,6.4427638,6.0644817,-35.0228996,-98.1450348,-110.9007645
4830,-7.5488791,3.0549858,2.8562679,47.9618340,-21.8473282,-81.1450348,0.2130829,6.1865854,6.0836353,-54.4580154,-132.3129730,-123.2290039
4840,-7.6781654,2.6862805,2.9017577,40.3358765,-17.5648861,-59.6717567,0.2513899,5.4826937,6.1817970,-74.5877838,-167.7175598,-132.5343475
4850,-7.6302819,2.2553265,3.0358322,34.9007645,-21.9312973,-38.6946564,0.4309541,5.0373745,6.2368636,-95.2213745,-199.1755676,-138.9770966
4860,-7.2160869,1.8794388,3.2130022,33.3511467,-27.2290077,-18.6259537,0.5985473,4.7381010,6.1482787,-115.4961853,-223.5725250,-146.6259613
4870,-6.7468257,1.5298871,3.0573800,32.5190849,-28.0076332,0.0229008,1.0031654,4.3526363,6.0237808,-139.2137451,-234.1297760,-152.8549652
4880,-6.3805151,1.0390782,2.5761478,28.6564884,-19.2519093,17.9236641,1.0438666,3.9216824,5.8178802,-165.1908417,-233.8854980,-159.1984711
4890,-6.4212160,0.7230452,2.3822186,22.1755733,-2.6106870,38.1526718,0.9864060,3.5218527,5.9519548,-191.7251892,-226.0839691,-164.1145020
4900,-6.8162575,0.4644727,2.4731977,13.6717558,26.7328243,64.5267181,1.0199248,3.0549858,6.1458845,-216.4961853,-213.1755676,-167.2366486
4910,-8.0636301,0.4189832,2.1308286,3.5114503,70.9923630,100.3206100,1.4508789,2.8921809,6.5672617,-238.2900696,-186.0229034,-170.3969421
4920,-10.1968527,1.1420283,1.6759326,-11.6793890,128.3511505,149.1526642,0.8666966,2.1068866,7.1753860,-250.1374054,-153.2213745,-170.2671814
4930,-13.5678720,2.4684093,1.5729824,-29.4427490,195.3358765,217.5801544,0.1628049,1.2641320,8.1139078,-250.1374054,-113.2900772,-166.5038147
4940,-18.0450058,2.0542145,1.6759326,-51.3206100,250.1297760,250.1297760,-0.5530578,0.4165890,8.7387915,-250.1374054,-83.9083939,-155.6564941
4950,-19.6131992,0.4046180,2.1811066,-79.5496216,250.1297760,250.1297760,-1.1683644,0.0407012,9.4426832,-250.1374054,-51.4274826,-143.8931274
4960,-19.6131992,-2.8993635,2.9233053,-112.1526718,250.1297760,250.1297760,-2.2122312,-0.2202654,10.5057030,-250.1374054,-21.6259537,-128.2213745
4970,-19.6131992,-9.5935173,3.4643922,-148.5496216,250.1297760,250.1297760,-3.3782012,-0.6464311,11.4897156,-246.3740387,1.3740458,-109.5190811
4980,-16.0386753,-19.6131992,4.1563129,-185.1297760,250.1297760,250.1297760,-3.9791429,-0.9145803,12.3276815,-234.4045868,14.7404585,-88.3511429
4990,-4.6016321,-19.6131992,4.1395535,-224.7862549,250.1297760,250.1297760,-4.0294209,-1.0390782,12.9908724,-222.1221313,29.2442741,-71.1603088
5000,9.6174593,-19.6131992,6.1339135,-250.1374054,250.1297760,250.1297760,-4.1658897,-1.0630201,13.8982697,-208.2824402,40.2366409,-55.3816795
5010,19.6126022,-19.6131992,13.8862991,-250.1374054,250.1297760,250.1297760,-4.6878228,-1.3479286,14.8104563,-192.0381622,55.1145020,-40.3664131
5020,19.6126022,-18.4639893,19.6126022,-250.1374054,250.1297760,250.1297760,-5.0182209,-1.7812769,15.2318335,-168.6335907,52.3358765,-21.2900772
5030,19.6126022,2.1499822,19.6126022,-182.6870270,250.1297760,250.1297760,-5.5210009,-1.6017127,15.2916880,-147.0763397,38.2213745,-1.1755725
5040,19.6126022,-3.5266411,19.6126022,6.3664122,250.1297760,26.9236641,-4.0270267,-2.2481439,14.8822813,-127.8473282,26.3435116,16.5572510
5050,19.6126022,-5.2217274,19.1032372,145.3206177,108.9847336,-177.3969421,-2.7820482,-2.5785420,14.9804430,-103.9923630,31.4503822,22.9312973
5060,8.7459745,-4.3693957,9.6294298,171.4274750,-250.1374054,-250.1374054,-2.1116750,-2.5330524,14.7577839,-81.8473282,27.5267181,27.5648861
5070,0.4740495,-3.0262554,7.6877422,148.5496216,-250.1374054,-202.6183167,-1.4413021,-2.7269819,14.6572275,-56.6488533,25.5419846,26.3435116
5080,3.4117200,-0.0287303,7.8266053,122.4045792,-250.1374054,-94.6793900,-0.9002152,-2.6383967,14.1257181,-33.6030540,24.0839691,24.5954189
5090,9.4570484,2.9496415,7.0580707,86.5801544,-250.1374054,-2.0916030,-0.6871324,-2.4061604,13.5247765,-11.7557249,22.3969460,20.5343513
5100,12.5383701,4.5681133,6.0213866,44.7404594,-21.7251911,46.2519073,-0.7493813,-2.1811066,12.9405937,5.7404580,18.9465656,19.6412220
5110,11.4107065,4.3574247,5.5210009,13.6641226,157.3664093,64.5725174,-0.5913648,-1.9704180,12.3109226,16.9847336,17.8244267,19.1297703
5120,9.2200232,3.4955165,5.9136481,0.7480916,228.6717529,72.1221390,-0.5243275,-1.8028246,11.5854826,23.2213745,16.6641216,18.2061062
5130,7.9702568,2.6910689,5.8178802,3.6412213,219.5496216,76.3893127,-0.3256098,-1.5873476,11.0515785,26.3587780,19.7251911,16.5267181
5140,7.6661944,2.2888451,5.7580256,14.4656487,160.2519073,72.2824402,-0.6272776,-1.1061156,11.2646618,33.2900772,29.4885502,17.0076332
5150,7.7236552,2.2074428,5.4683285,27.8931293,89.5038147,60.9618340,-1.1132981,-1.0678085,11.0491848,42.9618340,42.8549614,22.1755733
5160,8.0157461,1.3431402,4.8242917,-4.3664122,4.3587785,57.3969460,-1.4077834,-0.6895266,10.9007444,105.8167953,146.5648804,93.7709961
5170,8.4419117,1.4245427,4.9176650,-7.6870227,23.7480907,63.7557259,-1.3934183,-0.4118006,10.1465750,104.2900772,143.8244324,83.3664093
5180,8.9015961,1.4029950,4.8961172,-11.5725193,43.2213745,67.7328262,-1.5610116,-0.3256098,9.2966375,100.0457993,124.6106873,69.6335907
5190,9.3397331,1.3503228,4.9823084,-17.4351139,63.1908379,69.2290039,-1.6280488,0.2729376,8.6741486,92.8091583,104.5801544,54.0534363
5200,9.4785957,1.3072275,5.1115947,-25.8396950,80.4122162,68.6641235,-2.0278785,0.8858501,8.1857338,82.0534363,95.2290039,38.8015251
5210,9.8377247,1.2330076,5.4204450,-34.8015251,91.7404556,65.5954208,-2.7868366,1.2330076,8.1043310,66.7480927,87.7938919,29.3511448
5220,10.0125008,1.1635761,5.8202744,-42.2595406,98.3358765,59.6030540,-3.1555417,1.4101776,7.7954807,49.7404594,79.8549652,23.5114498
5230,9.9191265,0.7948709,6.2847471,-47.3740463,100.1679382,52.8549614,-3.3183465,1.5514348,7.5704269,33.8625946,74.3053436,17.2824421
5240,9.7682934,0.4261657,7.1514440,-50.0000000,80.9236679,39.4198456,-3.7708483,1.6950861,8.1426382,7.0839696,60.3053436,1.0458015
5250,10.0627785,0.4046180,7.5129666,-47.9618340,64.4427490,31.3129768,-3.9073172,1.6352314,8.4993725,-4.0152674,65.9083939,-5.4122138
5260,10.4602137,0.5243275,7.8170285,-44.4503822,48.5954208,22.5419846,-4.2353210,1.4508789,8.9638453,-12.9007635,74.7557220,-9.0076332
5270,10.9773588,0.6679789,7.9870162,-41.0458031,35.5343513,12.7709923,-4.3286943,1.4987626,9.0955257,-17.1297703,77.5877838,-11.4732828
5280,11.6118193,0.6751614,7.8984308,-38.3435097,26.8091602,-0.2137405,-4.6303625,1.3838415,9.2367830,-14.6412210,72.7404556,-10.9923668
5290,11.7506819,0.8044477,7.8122401,-37.2595406,25.4809170,-17.2977104,-4.7979555,1.3886299,9.5743637,-8.4809160,72.3053436,-4.4198475
5300,11.4035244,0.3854645,7.5153608,-39.5267181,24.9007626,-34.7022896,-5.2887645,1.0654143,9.7611103,-1.9312977,81.8931274,5.9847326
5310,10.5775290,0.0383070,7.6326761,-41.9312973,23.3664131,-51.1450386,-5.6167684,1.1348459,10.2591019,6.0381680,86.7709961,16.6259537
5320,9.5001440,-0.0335187,7.8984308,-41.5801544,19.9007626,-61.1755714,-5.6814117,1.2114599,10.3668404,17.3053436,89.7938919,24.4961834
5330,8.6597834,-0.3256098,8.1043310,-38.9007645,10.7099237,-66.6335907,-5.5042415,1.1372399,10.0412302,29.2595425,89.7709961,31.1526718
5340,8.4682484,-0.3758878,8.2982607,-33.4274826,2.3740458,-69.7099228,-5.4994531,1.2880739,9.8353300,36.8015251,101.0992355,36.5343513
5350,8.5185261,-0.3974355,8.4059992,-26.3664131,-2.7709923,-71.6030502,-5.6359220,1.3215926,9.5025377,39.0305328,114.0534363,40.8549614
5360,8.6837254,-0.3710994,8.3269911,-19.5954189,-6.7862597,-74.8778610,-5.3749552,1.4484847,9.1290445,38.6030540,118.1374054,39.6564903
5370,8.5161324,-0.1819584,8.1833391,-14.2977095,-7.4732823,-78.0000000,-4.9296360,1.6711442,8.2503767,36.8549614,112.1755753,33.0152664
5380,8.2384062,-0.1053443,8.0899658,-10.0152674,-5.4961834,-80.5190811,-4.5729017,1.9273225,7.4890246,32.0610695,98.0457993,22.3206100
5390,7.8768835,-0.2035061,7.8888540,-7.9770994,0.3969466,-80.6183243,-4.7333126,2.1140692,6.8569584,25.2213745,89.3435135,11.4274807
5400,6.6989422,-0.1915352,7.7236552,-10.1145039,13.7022905,-74.0381699,-6.4427638,2.7341642,6.7372489,11.1297712,80.8854980,3.2748091
5410,6.4020624,-0.2489957,7.8026633,-12.3511448,17.3969460,-69.3893127,-7.0365229,2.6934631,6.8354111,5.9007635,78.4274826,7.7786260
5420,6.3422079,-0.3303981,8.0732069,-14.4961834,20.8091602,-64.6183243,-7.4650826,2.6024840,6.8856888,4.0839696,69.7251892,15.7404585
5430,6.2631998,-0.3399749,8.5376797,-15.2137403,23.9160309,-59.6946564,-7.3381906,2.5091105,7.0844064,5.3511453,59.3129768,22.9083977
5440,6.2057390,-0.1628049,9.0596132,-12.5877867,24.6106873,-54.5877876,-6.9838505,2.4779861,6.9982157,7.2137403,48.6183205,26.0458012
5450,6.9551206,-0.1891410,9.4738073,-6.8091602,24.3664131,-50.5343513,-6.9120250,2.4947455,6.9479380,8.0305347,40.6564903,26.6259537
5460,8.2815018,-0.1292862,9.5480280,-0.4351145,28.1221371,-50.0992355,-6.9024482,2.3151813,6.8689294,6.6488547,35.5648842,25.6412220
5470,9.8305416,0.0814024,9.5384512,4.3206105,27.6183205,-57.7633591,-6.7444315,2.2505381,6.7444315,3.9083970,30.6106873,23.9465656
5480,12.0906563,0.4548960,10.1824875,16.2900772,-3.0839694,-130.5725250,-6.8832946,2.5091105,6.6773944,-2.7099237,20.1603050,14.8015270
5490,13.0459385,0.0454896,10.6876621,24.6030540,-12.6488552,-159.3206177,-6.5600791,2.4923513,6.7707677,-5.0839696,15.0534353,13.0076332
5500,12.7370882,-0.0550664,10.8791971,34.7480927,-24.4961834,-190.8778687,-6.7061248,2.6551561,6.6031747,-5.3435116,12.0992365,13.1450386
5510,11.4394369,0.0119709,10.8313131,45.7480927,-37.8015251,-217.0305328,-6.5576849,2.7988074,6.6702118,-4.8549619,0.1145038,12.2366409
5520,9.4115591,0.0933734,10.3907824,56.5114517,-49.6106873,-233.6793823,-6.3086891,2.8299320,6.3781209,-4.6030536,-10.1603050,8.9236641
5530,7.9151902,-0.0430954,9.8975792,65.4427490,-66.3053436,-241.7938995,-6.4283986,2.7317703,6.3541789,-6.3664122,-17.1297703,4.8854961
5540,6.7755561,0.4620786,9.5959110,74.5496216,-85.7404556,-242.4274750,-6.3039007,2.6910689,6.3374195,-9.6488552,-24.9770985,0.6030535
5550,6.0118098,0.8116302,9.0093346,81.4045792,-103.9618301,-237.6870270,-6.0764527,2.6264257,6.4691000,-12.9236641,-36.2290077,-3.3129771
5560,6.4786768,1.1156923,8.2120695,82.7633591,-117.9083939,-230.2824402,-5.7412663,2.5378408,6.7157016,-15.0152674,-48.1679382,-8.8396950
5570,7.5656385,1.7956421,7.4650826,77.7862625,-116.0610657,-223.6717529,-5.8657641,2.5881188,6.6390872,-16.3587780,-55.0610695,-15.1068707
5580,8.6382351,2.6886747,7.0030041,67.3206100,-106.9618301,-222.7022858,-6.1482787,2.5569944,6.9311786,-18.4656487,-64.0916061,-19.6793900
5590,9.1170731,3.0454090,6.6414814,54.9923668,-88.6488571,-227.6259613,-6.4667058,2.5498118,7.2711535,-20.2137413,-69.0992355,-21.9541988
5600,8.5664101,3.1483591,6.7276726,44.5114517,-72.4809189,-235.0381622,-6.6702118,2.6096666,7.7332320,-21.2824421,-67.8854980,-21.3893127
5610,7.8888540,3.1172347,7.2472115,39.2213745,-66.2748108,-241.6564941,-6.8018923,2.4708035,7.8888540,-21.3740463,-62.7633591,-18.4503822
5620,8.5281029,3.2225790,8.2551651,43.2061081,-67.6564865,-250.1374054,-6.6247220,2.4181314,8.1953106,-20.7480907,-56.1526718,-14.7633591
5630,8.6190825,2.9640064,8.8537130,55.6030540,-76.8396912,-250.1374054,-6.4595232,2.3032103,8.4514885,-19.8091602,-49.8854980,-11.0381680
5640,7.9630742,2.6838863,8.9135675,73.4274826,-87.4198456,-250.1374054,-5.9208307,2.1930776,8.3916340,-18.5419846,-46.0610695,-8.7328243
5650,6.8713236,2.2577207,8.2791071,90.4503784,-95.7709961,-250.1374054,-5.4850879,2.1260402,8.4299412,-16.5572510,-42.1984749,-8.4122133
5660,5.6933827,1.9536586,7.7260494,103.8091583,-101.4122162,-250.1374054,-5.3605900,2.1284344,8.4706421,-14.6030531,-43.0992355,-9.6412210
5670,3.9599893,1.7046629,6.7875271,111.9694672,-103.9007645,-250.1374054,-5.2360926,1.9153515,8.6573887,-13.8702288,-44.4274826,-11.8778629
5680,2.1715298,1.4101776,6.1985564,116.1984711,-102.7480927,-250.1374054,-5.0708933,1.7309990,8.5520449,-13.4274807,-44.8854980,-14.9923668
5690,0.1532281,1.1635761,5.7915444,118.0229034,-111.4427490,-250.1374054,-5.2480631,1.7405758,8.8177996,-12.9541988,-39.3893127,-16.9541988
5700,-1.1300575,1.1228749,5.9711084,120.4732819,-123.3893127,-250.1374054,-5.7532372,1.7693061,8.7411861,-11.9160309,-29.2061062,-14.7786255
5710,-2.3510940,0.8738791,6.4116392,126.0763321,-141.5190887,-250.1374054,-6.2272868,1.6352314,8.9710283,-10.8396950,-15.9007635,-10.2671757
5720,-3.5457945,0.5865764,6.5744443,133.7175598,-159.3511505,-250.1374054,-6.4355812,1.6448082,9.1362267,-8.1755724,-4.0152674,-3.6030533
5730,-4.4579806,0.4333483,6.7180958,139.1908417,-170.3282471,-250.1374054,-6.6678176,1.7812769,9.3014259,-3.8244274,5.8091602,2.3435113
5740,-5.6478930,0.0430954,6.3278427,140.3740387,-173.7328186,-250.1374054,-6.4451580,1.8339491,8.8944139,1.6412214,15.1297712,7.6564884
5750,-7.0939832,-0.3088504,6.0357518,135.4503784,-173.1603088,-250.1374054,-6.5576849,1.9368993,8.6214762,5.3587785,20.3740463,11.9389315
5760,-8.7124557,-0.1867468,5.9304070,125.7404556,-172.6717529,-250.1374054,-6.3230543,1.9105632,8.3054428,6.7786260,21.9389305,16.0229015
5770,-9.7658987,0.2082945,5.9064655,113.0992355,-172.6641235,-234.6564941,-5.9758968,1.8243724,8.0612354,6.9007635,21.2900772,18.2290077
5780,-10.2399483,0.8762733,6.9934273,100.7557220,-171.1526642,-196.6946564,-5.9256191,1.9392935,7.8912482,5.9083967,21.9618320,17.3664131
5790,-10.0747490,1.0893562,8.2192526,96.8702316,-148.0915985,-153.3969421,-6.1937680,1.9512644,7.8050575,4.1603055,21.1297703,16.4427490
5800,-9.9694052,0.8307837,8.9135675,102.1984711,-104.8167953,-103.7404556,-6.3206601,1.8842272,7.9367380,1.9847329,18.8167934,16.6717548
5810,-9.4833841,0.6967092,9.0021524,109.0687027,-50.0228996,-51.8549614,-6.5983863,1.7812769,8.0827837,1.4198474,23.4122143,18.5725193
5820,-8.5783806,0.5698171,8.2096758,116.0534363,16.9694653,-3.8625953,-6.8641410,1.9225341,8.0971489,1.7404580,27.8625946,21.0152664
5830,-8.0708122,0.1316804,7.2424231,123.4656525,68.9007645,38.0916023,-6.7540083,2.0374553,7.9894104,3.3282442,33.1221390,24.0152664
5840,-7.3046722,-0.4692611,6.5385313,131.6030579,107.9007645,73.2824402,-6.7157016,2.1404054,8.0061693,5.2213740,33.2519073,27.1145039
5850,-6.9263902,-0.6512195,5.9088597,140.5801544,148.1526642,107.6412201,-6.2464404,2.0422437,7.6661944,6.7862597,31.5419846,28.4961834
5860,-7.1179252,-1.3646880,5.3725610,151.2290039,197.8549652,147.7404633,-6.3781209,2.1930776,7.2783360,7.5496182,41.2061081,27.6946564
5870,-9.5312681,-0.9504932,4.4771342,166.3511505,250.1297760,206.0686951,-6.6773944,2.4636209,7.1275020,5.2213740,42.3435097,29.4809170
5880,-12.1098099,-1.5203103,2.7772598,177.6717529,250.1297760,250.1297760,-6.8186517,2.5665710,7.0365229,1.5572519,40.7251892,31.7099228
5890,-15.0091734,-2.2481439,0.2035061,176.5114441,250.1297760,250.1297760,-6.6247220,2.4947455,7.1586266,-1.7251909,43.9389305,34.1145020
5900,-17.8414993,-4.6638808,-2.7221935,156.6946564,250.1297760,250.1297760,-6.6103573,2.4755919,7.2519999,-4.3129773,46.1984749,35.7251892
5910,-16.7018661,-10.6828737,-6.4906478,117.5267181,250.1297760,250.1297760,-6.3948798,2.6312141,7.4459291,-5.9236641,46.2061081,34.4274826
5920,-7.8553357,-18.9547977,-7.0868006,57.3358765,250.1297760,250.1297760,-5.7460546,2.8466914,7.4770536,-7.9160304,41.5801544,29.2519093
5930,5.7795734,-19.6131992,-7.3453732,-12.3511448,250.1297760,250.1297760,-5.6694407,2.2936335,7.5847921,-9.1679392,32.5190849,23.1755733
5940,18.1838684,-19.6131992,-8.1953106,-111.9770966,250.1297760,250.1297760,-4.9870968,2.4253139,7.9295554,-11.6259546,18.7175579,14.7022905
5950,19.6126022,-19.6131992,-2.8514795,-247.6259613,250.1297760,250.1297760,-5.1786318,2.5138988,8.0564480,-9.3893127,27.8931293,6.6870227
5960,19.6126022,-14.0443153,8.0253229,-250.1374054,250.1297760,250.1297760,-5.9974446,2.5402350,8.1809454,-7.1908398,25.6030540,4.4732823
5970,19.6126022,-3.5050933,19.6126022,-250.1374054,250.1297760,250.1297760,-6.0070214,2.5929072,8.2719250,-3.6946564,18.5267181,2.9847329
5980,19.6126022,-0.0454896,19.6126022,-250.1374054,250.1297760,250.1297760,-5.7197185,2.6240315,8.0157461,0.5114504,12.3053436,0.3511450
5990,19.6126022,-2.8921809,19.6126022,-127.6870193,250.1297760,110.9160309,-5.7843618,2.7221935,7.5608501,4.5114503,9.9083967,-3.3816793
6000,19.6126022,-3.4332676,18.2940025,-12.6717558,250.1297760,-13.1221371,-6.2177100,2.7413468,7.2807302,7.0000000,5.8091602,-4.4656487
6010,12.5838594,-1.3096216,9.1338329,19.9923668,-122.1374054,-101.0381699,-6.3206601,2.7293761,7.0269461,7.8549619,-1.1526718,-6.4809160
6020,11.3412752,-0.1316804,7.5895805,-0.1145038,-250.1374054,-140.5343475,-6.3900914,2.8035958,6.6750002,7.3893127,-8.4198475,-9.3053436
6030,14.3723192,0.7493813,10.1585455,-23.3664131,-250.1374054,-144.9694672,-6.5481081,2.7892308,6.4978304,5.7709923,-16.2824421,-12.8778629
6040,15.8782644,1.6112895,11.9182749,-35.2137413,-250.1374054,-133.3053436,-6.5959921,2.8490853,6.3302369,4.0381680,-25.7404575,-15.7328243
6050,14.1688128,1.7238164,11.2024126,-42.4198456,-117.9618301,-114.3435135,-6.7133074,2.8323262,6.3422079,1.9694656,-34.2900772,-18.3282452
6060,9.6701307,1.4413021,9.4977493,-50.5038185,35.2977104,-86.7862625,-6.9072366,2.7820482,6.4068508,-0.1679389,-40.3282433,-19.7938938
6070,6.6678176,1.4796091,8.5592270,-56.3587799,111.8702316,-55.8931313,-7.0628591,2.6575503,6.6295104,-2.6106870,-43.9083977,-18.8625946
6080,5.4635406,1.6735384,8.4610653,-54.5114517,132.4809113,-30.1374054,-7.0293403,2.5162930,6.9431496,-4.6412215,-47.1603050,-18.3740463
6090,5.2767935,2.0230901,8.6190825,-46.4198456,116.6870193,-13.6259546,-6.8904772,2.3774302,7.2017217,-5.7175574,-49.9541969,-18.5877857
6100,5.3462253,2.5258698,8.9111729,-34.5877876,84.3435135,-5.6259542,-6.8401995,2.3008161,7.4028339,-6.5725193,-47.3587799,-16.7557259
6110,5.8753409,2.5905130,9.0045462,-23.8091602,53.1526718,-5.2290077,-6.8832946,2.2912393,7.5752153,-7.5496182,-42.5190849,-14.8396950
6120,6.3326311,2.0159075,8.7603388,-13.5267172,34.0534363,-7.5267177,-6.7731619,2.2026544,7.8194227,-7.8473282,-36.9236641,-11.9160309
6130,6.7947097,1.4365137,8.7100611,-3.3358779,19.8854961,-9.5114508,-6.4954362,2.1930776,8.0348997,-7.5343513,-32.2442741,-8.9312973
6140,7.3477674,1.2545552,8.4083929,5.3358779,12.0610685,-10.6183205,-6.2967181,2.1404054,8.0348997,-6.1221375,-29.9465656,-8.5801525
6150,7.7547798,1.3072275,7.9582858,10.6641226,11.3358774,-11.6412210,-6.1291251,2.2529323,7.9798336,-4.2595420,-27.5114498,-8.8702288
6160,8.1378498,1.2425843,7.5201492,11.6106873,12.1374044,-13.2900763,-6.2129216,2.2649033,8.0899658,-3.4885497,-25.1908398,-7.6946564
6170,8.9877872,1.3431402,7.2017217,8.4580154,11.9389315,-14.7633591,-6.1913738,2.1811066,8.0947542,-3.0687022,-19.7709923,-5.9083967
6180,10.4362717,1.3598996,6.6462698,0.8702290,20.8931293,-20.2824421,-6.2584114,2.2984219,8.1186962,-2.8625953,-14.4045801,-4.9923663
6190,11.3293047,1.4843974,6.4283986,-11.6106873,30.0152664,-34.7862587,-6.2009506,2.2912393,8.1593981,-1.9083970,-11.9389315,-3.3435113
6200,11.4921093,1.6567791,6.5600791,-27.4732819,29.7175579,-58.9312973,-6.0309634,2.2457497,8.1546097,-0.4656489,-10.2900763,-3.5725191
6210,11.0276365,1.2617378,7.2184811,-40.5725174,26.8167934,-84.5648880,-6.2344694,2.3415172,8.0732069,0.4198473,-5.4045801,-1.9541985
6220,10.4147243,0.9217629,8.1354561,-47.4351158,14.4351149,-105.0229034,-6.3278427,2.2050486,8.1019373,0.3053435,-1.3206106,0.1526718
6230,9.3780403,0.7541697,9.9741936,-44.1832047,-19.6183205,-136.7099304,-6.2368636,2.1715298,8.1282730,2.0381680,7.5648856,2.8396947
6240,8.9782104,0.4932030,10.6900558,-35.2595406,-32.9007645,-146.3282471,-6.1889796,2.1835008,7.9846220,3.0381680,7.5801525,3.0992367
6250,8.9207497,0.4596844,11.1066446,-22.7862587,-39.9541969,-151.8473358,-6.0620875,2.2625091,7.6949248,4.2061067,6.5877862,1.9465649
6260,8.7459745,0.5123565,11.2909975,-9.1374044,-42.8167953,-155.2366486,-6.2009506,2.4061604,7.5440907,4.2213740,3.4198472,1.8473282
6270,9.1194677,0.7613522,10.8720140,15.9007635,-45.1679382,-161.6412201,-6.2224984,2.5115047,7.3477674,1.3740458,0.4961832,0.3053435
6280,9.6030941,1.0462608,10.4817610,24.6717548,-48.4198456,-167.3816833,-6.2608056,2.4779861,7.4507174,-0.0916031,-1.3893130,-0.6183206
6290,10.1058741,1.3383518,10.2064295,32.1603050,-50.9923668,-176.4580078,-6.3230543,2.4660151,7.2496057,-1.0839695,-4.7404580,-1.6259542
6300,10.8025827,1.4772149,9.7754755,39.0992355,-49.6335869,-189.8625946,-6.2703824,2.4612267,7.4267755,-1.6488550,-10.8396950,-3.0534351
6310,10.8720140,1.6567791,9.6126709,44.1755714,-52.8015251,-205.7099304,-6.3158717,2.5186872,7.5009956,-1.8549619,-15.8015270,-3.9160306
6320,10.8145542,1.7429699,9.4402885,48.3358765,-59.2900772,-223.2748108,-6.3206601,2.4755919,7.4674768,-2.7480917,-18.1145039,-4.3664122
6330,10.4602137,1.8076130,9.3732519,52.2900772,-62.5190849,-241.3358765,-6.3278427,2.4420733,7.6422529,-4.1908398,-19.0687027,-3.9694657
6340,9.4283180,1.7214222,9.5336628,57.4961815,-68.3664093,-250.1374054,-6.2248926,2.3989778,7.6326761,-5.2900763,-16.2824421,-3.9847329
6350,8.5807753,1.6567791,9.6868906,66.5572510,-76.6412201,-250.1374054,-6.2991123,2.4061604,7.6207051,-6.1603055,-13.9694653,-3.3206108
6360,8.0971489,1.6950861,9.5216913,79.7557220,-78.5419846,-250.1374054,-6.1722202,2.4277081,7.8122401,-6.0992365,-11.7633591,-2.2290077
6370,7.5105724,1.7908537,8.7507620,91.4580154,-78.1832047,-250.1374054,-6.2296810,2.4181314,7.8912482,-5.5114503,-11.7709923,-1.9770992
6380,6.7468257,1.9728121,7.9343438,98.7251892,-80.4274826,-250.1374054,-6.1171541,2.3917952,8.0708122,-4.8778625,-11.8320608,-1.8549619
6390,5.8418221,2.1356170,7.1059542,101.5572510,-88.3358765,-250.1374054,-6.1195483,2.2816625,7.9199786,-4.7557254,-11.8396950,-1.8015267
6400,4.4172797,2.1475880,6.2560172,103.4503784,-99.6183243,-250.1374054,-6.0405402,2.2337787,8.0708122,-4.1832061,-12.0381680,-1.5038168
6410,3.3207407,2.4037662,5.7101417,100.6641235,-110.6641235,-250.1374054,-5.9663200,2.2840567,8.0396881,-3.0076337,-14.1679392,-1.9847329
6420,2.6048782,2.7628946,5.2265158,96.5419846,-115.1526718,-250.1374054,-5.9902620,2.3079987,7.9846220,-1.8396946,-19.6870232,-3.0916030
6430,1.8866212,3.0501974,4.9751258,90.1908417,-113.0229034,-250.1374054,-6.0118098,2.3008161,7.9080076,-0.9007633,-24.3816795,-4.9236641
6440,1.1563935,3.1507533,4.9990678,84.2290039,-103.9618301,-250.1374054,-6.1889796,2.2625091,7.8481531,-0.6412213,-27.8549614,-5.7938933
6450,0.1197095,3.4691806,4.9918852,81.3129807,-94.9770966,-250.1374054,-6.5002246,2.4444675,7.8194227,-1.1679389,-30.8854961,-6.4122138
6460,-0.7924767,3.7995787,4.9272418,81.6335907,-86.5343475,-250.1374054,-6.6366930,2.5546002,7.7212610,-1.6870229,-33.2137413,-4.8244276
6470,-1.5753766,4.1515245,4.5345950,81.8702316,-83.8778610,-244.9847260,-6.5026188,2.5737536,7.4626884,-1.7099236,-31.3587780,-2.9160306
6480,-2.0326669,4.5274124,3.9623835,80.7099228,-83.1297684,-228.8244324,-6.8497758,2.7293761,7.3357964,-2.6183207,-32.1908379,-0.4198473
6490,-2.2002602,4.8721757,3.4141142,76.5648880,-78.7328262,-214.3587799,-6.4475522,2.6000898,7.1969333,-4.5572519,-35.9312973,2.5114503
6500,-2.6264257,5.1355362,3.0645626,69.7633591,-74.5877838,-200.2137451,-6.1410961,2.6599445,7.3262196,-7.1068702,-39.3206100,3.4885497
6510,-3.0238612,5.4012914,2.9496415,61.8473282,-66.7786255,-186.2061005,-6.0046272,2.6264257,7.3190370,-10.0610685,-43.5038185,3.3587787
6520,-3.5194585,5.4659348,2.9616125,54.4580154,-57.9007645,-170.6564941,-5.8130918,2.5761478,7.4219875,-13.9770994,-48.0228996,1.5038168
6530,-3.8881636,5.8059096,3.2201848,49.0839691,-52.1374054,-153.2442780,-5.5138183,2.3750360,7.4004397,-18.9465656,-48.4198456,0.1145038
6540,-3.9336534,5.9998388,3.1818779,44.9618340,-44.5114517,-136.5038147,-5.5329719,2.3056045,7.8266053,-23.1221371,-45.5877876,-0.3587786
6550,-3.9575951,6.1051831,3.2680686,42.1832047,-41.5343513,-121.4580154,-5.6622581,2.1499822,8.2455883,-26.0381680,-43.7480927,-0.1679389
6560,-3.7109938,6.2224984,3.1579359,39.9771004,-40.6335869,-108.8931274,-5.6095858,2.0877333,8.4850073,-26.4274807,-44.0381660,-0.5725191
6570,-3.2441268,6.1674318,2.9352763,37.5877876,-36.2900772,-99.8320618,-5.4994531,2.2122312,8.7052727,-24.8244267,-49.5572510,-0.0610687
6580,-3.1339941,6.0094156,2.8514795,33.7022896,-30.1908398,-93.3358765,-5.1738434,2.0159075,8.6573887,-22.5877857,-57.1984749,-2.1908398
6590,-3.2153964,5.8106980,2.5809362,28.7862587,-23.0152664,-87.3053436,-4.8913293,2.0015423,8.7244263,-20.8625946,-64.0381699,-4.6412215
6600,-3.5314295,5.5186067,2.7724714,23.7099228,-17.4274807,-82.2061081,-4.8578105,1.9752063,8.8154058,-19.7786255,-65.9083939,-6.1832061
6610,-3.6583214,5.1451130,2.9137285,20.1450386,-15.8091602,-78.1832047,-4.8961172,1.9321109,8.9255381,-18.6793900,-64.6641235,-6.8931298
6620,-3.9623835,4.8625989,3.2201848,17.8396950,-17.7862587,-74.1297684,-4.8961172,1.8507085,8.9039907,-18.6335869,-68.1984711,-7.5725193
6630,-4.1634955,4.6447277,3.3853838,17.9389305,-20.9007626,-70.6870193,-4.7069764,1.8435259,8.9542685,-18.2977104,-71.1679382,-9.0534353
6640,-4.2975702,4.1994085,3.3710186,18.5801525,-27.3282452,-67.4045792,-4.5250182,1.8866212,8.8177996,-17.8244267,-74.7251892,-10.1908398
6650,-4.4029145,3.6271970,3.5721307,19.4045811,-32.0992355,-62.2595406,-4.3502421,1.7309990,8.8656836,-17.4122143,-82.0076370,-11.7480917
6660,-4.3526363,3.0454090,3.1699069,20.4122143,-33.5190849,-56.3511467,-4.2018023,1.6663558,8.9877872,-17.1526718,-89.8244247,-13.1145039
6670,-4.0485744,2.3917952,2.7293761,18.0610695,-34.6946564,-52.1450386,-3.9384418,1.5442522,9.1242561,-16.9160309,-91.7786255,-15.0381680
6680,-4.1180058,1.6615674,2.3391230,13.8244276,-33.6946564,-47.7862587,-3.9240766,1.5322813,9.1529865,-16.7404575,-90.6564865,-15.7328243
6690,-4.2496862,1.0031654,1.8459201,8.2748089,-25.3282452,-39.8015251,-3.8283088,1.4508789,9.3181858,-16.3740463,-90.3053436,-17.2748089
6700,-5.4635406,0.8810617,0.7182568,-2.6946564,12.2900763,-20.2595425,-3.5793133,1.3024391,9.2679071,-16.0305347,-94.4580154,-19.0229015
6710,-7.9606800,0.1915352,-0.8762733,-25.8625946,83.4732819,14.9083967,-3.3015873,1.4053892,9.1769285,-15.9160309,-104.0610657,-22.0992374
6720,-11.3436699,-0.4453192,-2.1571648,-63.8244286,164.0458069,66.5038147,-3.2417326,1.4724265,9.1721401,-16.4885502,-113.5572510,-25.1679382
6730,-14.9493189,-1.0845678,-2.0805507,-108.2061081,233.2900696,137.8702240,-3.1339941,1.5131277,9.2726955,-17.0229015,-121.5343475,-27.3893127
6740,-19.3306866,-2.1044924,-1.6376256,-145.7099304,250.1297760,229.4351196,-3.2249732,1.5993185,9.8736372,-16.9847336,-126.2061081,-28.5877857
6750,-19.6131992,-2.9280937,-0.8259954,-178.6183167,250.1297760,250.1297760,-3.1651185,1.7118455,10.1298151,-16.8167934,-128.6106873,-29.2290077
6760,-19.6131992,-5.2600341,0.0047884,-213.4809113,250.1297760,250.1297760,-3.2920105,1.6831152,10.3859940,-16.0916023,-129.6870270,-27.5572510
6770,-19.6131992,-8.4634600,1.8507085,-247.5038147,218.1374054,250.1297760,-3.0597742,1.6663558,10.4075413,-15.7022905,-128.0076294,-24.8167934
6780,-19.6131992,-14.5494890,4.4220681,-250.1374054,160.0915985,250.1297760,-3.0071020,1.6136837,10.2471304,-15.6183205,-126.0687027,-21.5877857
6790,-17.9157200,-19.6131992,6.9838505,-250.1374054,91.9083939,250.1297760,-2.7820482,1.5705882,9.9861641,-16.0916023,-129.6030579,-19.1526718
6800,-4.1611013,-19.6131992,7.1107426,-250.1374054,72.0152664,250.1297760,-2.4372849,1.5131277,9.6653433,-18.4809170,-139.4274750,-18.9618320
6810,18.1551380,-19.6131992,4.7955613,-250.1374054,127.6488571,250.1297760,-2.2218077,1.3646880,9.3205795,-22.9312973,-153.1603088,-19.9312973
6820,19.6126022,-19.6131992,11.3652172,-250.1374054,148.4274750,250.1297760,-1.9584470,1.3144100,9.0739784,-30.3816795,-172.7251892,-23.0381680
6830,19.6126022,-19.6131992,19.6126022,-250.1374054,175.3893127,250.1297760,-1.3958124,1.1635761,8.7866755,-40.5648842,-194.0381622,-25.5648861
6840,19.6126022,0.7134684,19.6126022,-150.0152740,201.5877838,250.1297760,-0.1436514,1.1779412,8.1617918,-67.2595444,-166.1755676,-29.1068707
6850,19.6126022,-0.4094064,19.6126022,38.5877876,79.5648880,-71.3053436,-0.2992737,1.0318956,8.1977043,-101.2824402,-123.1603088,-30.8015270
6860,19.6126022,-6.0309634,19.6126022,174.6335907,-183.1450348,-250.1374054,-0.4764437,0.7829000,8.8752604,-118.5190811,-118.8244247,-35.7938919
6870,8.6430235,-5.2959471,13.0531206,196.2900696,-250.1374054,-250.1374054,-0.3184272,0.3447633,9.7251978,-126.0305328,-120.9770966,-39.9236641
6880,1.1037214,-0.6727672,9.8257532,171.4351196,-250.1374054,-208.7022858,-0.5171449,-0.3399749,10.4482431,-127.2671738,-123.2824402,-40.6030540
6890,3.4907281,3.3470769,6.4092450,132.3969421,-195.2748108,-68.5725174,-0.5458752,-0.7972651,10.8696203,-123.0839691,-127.5725174,-37.8320618
6900,8.1665802,5.4587522,3.1315999,83.4732819,12.8702288,21.7099228,-0.2896969,-0.9193687,11.3843708,-116.3511429,-124.9770966,-33.3740463
6910,10.9725704,6.7492199,1.8459201,42.2900772,139.8549652,51.9541969,-0.4381367,-1.1204807,12.3228931,-104.3893127,-111.7175598,-27.9160309
6920,11.8608141,6.6342988,1.6950861,13.6259546,188.9541931,47.6946564,-0.4644727,-1.2186425,12.9453821,-87.6259537,-96.3206100,-18.3358784
6930,11.4921093,6.1698260,2.0470319,-1.9770992,174.5801544,26.4427490,-0.3064562,-1.2042773,13.3332415,-69.2213745,-80.6793900,-7.7404580
6940,10.2614956,5.5042415,2.4995339,-7.3587785,129.1221313,0.4961832,-0.0335187,-1.2282192,13.6516685,-51.6259537,-63.1297722,2.1908398
6950,8.9207497,4.6806402,2.7221935,-6.6030536,76.5877838,-20.0916023,0.2873027,-1.2354017,13.7210999,-35.4885483,-46.4580154,10.8778629
6960,7.4626884,4.2760224,2.9448531,-6.0610685,35.1068687,-31.6564884,0.5362985,-1.2569494,13.4601336,-20.1679382,-32.9160309,16.5801525
6970,6.2248926,3.7469065,3.4548154,-7.6641221,9.2290077,-32.6717567,0.7086801,-1.2162483,13.2494440,-5.7709923,-22.7557259,20.0992374
6980,5.5521255,3.2513094,3.9839313,-8.4045801,-5.5801525,-24.3129768,0.7565638,-1.2210367,12.7706070,7.1908398,-15.5190840,22.3969460
6990,5.5473371,3.0166788,4.3310885,-7.7175574,-8.7633591,-14.2595415,0.8738791,-1.1013272,12.2893744,17.3969460,-9.3129768,23.8091602
7000,5.7843618,2.6767037,4.5154414,-7.2824426,-4.9541984,-2.5801528,0.9792235,-0.9600700,11.9493999,25.8854961,-4.7022901,24.3587780
7010,6.1530671,2.3391230,4.5226240,-9.0000000,3.1679389,9.8778629,1.0702027,-0.9504932,11.6932211,33.7328262,-2.2290077,24.9389305
7020,6.4858594,2.2696917,4.4268565,-13.3587790,13.0534353,18.9847336,1.1947005,-0.8403605,11.4250717,39.9618340,-0.5572519,25.8167934
7030,6.7971039,2.2050486,4.6878228,-19.1297703,20.1908398,23.4809170,1.3598996,-0.7829000,11.1976242,44.4732819,0.6030535,25.1068707
7040,7.0580707,2.1978660,5.0325861,-22.8931293,19.7099228,23.6259537,1.4700323,-0.7062859,10.9677820,47.4580154,1.3053435,23.1679382
7050,7.2280579,2.1595588,5.3438311,-23.1068707,14.3816795,20.8320618,1.5969244,-0.7637464,10.6206245,48.7251892,1.5267175,20.6641216
7060,6.8904772,1.7142396,5.7412663,-18.6030540,-3.4656489,22.5725193,1.8722562,-0.4908088,10.1848822,46.7938919,6.3282442,14.3511448
7070,6.8354111,1.5873476,5.7963328,-15.7099237,-12.2824430,27.7404575,1.8722562,-0.4237715,10.2423429,44.1984749,9.6564884,11.5648851
7080,7.1322904,1.4676381,5.8801293,-14.3893127,-15.8854961,35.0305328,1.7764885,-0.2609667,10.2543135,41.9465637,12.1145039,9.4274807
7090,7.3908629,1.4221486,6.0477223,-14.2137403,-13.9236641,43.4045792,1.6472024,-0.2705434,10.2638903,40.3587799,13.5267172,7.2900763
7100,7.8768835,1.5897418,6.3757267,-14.3358774,-6.0687022,52.6564903,1.6879035,-0.2657550,10.1776991,38.5648842,15.3282442,4.1068702
7110,10.7187862,1.8291607,6.5624733,-14.9465647,24.2137413,63.7709923,1.2282192,-0.0383070,10.2974091,34.0916023,19.9847336,-0.8320611
7120,12.0954447,2.2026544,6.4331870,-20.0534344,49.9694672,60.3740463,0.9816177,0.0047884,10.4243011,32.2519073,19.8244267,-2.8854961
7130,12.8256731,2.2409613,6.3326311,-30.3816795,74.6793900,51.1832047,0.8188128,0.0790083,10.5320396,30.2977104,17.7251911,-4.1145039
7140,12.9693241,2.2481439,6.6797886,-42.4809151,90.0381699,39.0000000,0.6392486,0.1723816,10.5296450,29.0839691,15.2290077,-4.9007635
7150,13.0794573,2.1523764,7.5321202,-52.0305328,100.5267181,25.2442741,0.5817881,0.2130829,10.5966825,27.6030540,12.9770994,-6.7099237
7160,13.0363617,2.0111191,8.2815018,-55.9771004,103.8167953,10.5190840,0.3854645,0.3016679,10.7283630,26.7022896,11.7633591,-7.8396945
7170,13.0770626,1.7525467,9.1601686,-54.8167953,96.0839691,-6.9083967,0.3064562,0.4309541,10.5799236,26.0381680,10.6335878,-7.3816795
7180,12.8544035,1.6184721,9.6868906,-48.9541969,78.2595444,-26.3816795,0.2633608,0.3830703,10.5775290,25.1603050,10.5190840,-7.3664122
7190,12.5024576,1.5586174,10.0172882,-41.2137413,57.3511467,-46.7099228,0.1149211,0.4788379,10.6469603,25.2213745,11.7328243,-6.0992365
7200,11.8201132,1.4891858,9.9598284,-34.3282433,35.4122124,-65.7328262,0.0526722,0.5769997,10.6996326,25.3816795,11.8854961,-5.6488547
7210,11.4035244,1.0797794,9.8449068,-30.8854961,13.9618320,-80.2824402,0.0335187,0.5578461,10.8289185,26.4122143,13.4427481,-4.1984735
7220,11.9039097,0.5889706,9.8640604,-27.8167934,2.6488550,-97.5801544,-0.0766141,0.6057299,10.7403336,27.2290077,14.7175570,-2.1526718
7230,11.9110928,0.2825144,10.1034794,-20.8244267,1.5572519,-114.8854980,0.0359128,0.6177009,10.6014709,27.4732819,16.8854961,-1.0000000
7240,11.7458935,0.0622489,10.2471304,-12.1832066,-3.8396947,-131.3740387,0.0861908,0.7182568,10.5679522,27.5190830,19.1908398,-0.2824427
7250,12.1840305,0.2466015,10.4027529,-1.7251909,-18.7786255,-150.0915985,0.1436514,0.7062859,10.5847120,26.5572510,19.5343513,0.4198473
7260,12.5431585,0.1939293,10.3285332,7.2366414,-40.3358765,-176.5572510,0.1316804,0.6775556,10.6206245,25.2671757,18.4503822,0.0000000
7270,12.7418766,0.1460456,10.4362717,15.6183205,-64.7404556,-208.3969421,0.1268920,0.7469871,10.7163916,24.7709923,18.8015270,-1.3587786
7280,12.7322998,0.0287303,10.6828737,25.2977104,-85.9923630,-242.1068726,-0.0239419,0.6727672,10.7642756,25.2519093,18.7557259,-1.3282443
7290,12.8903160,-0.3232156,10.8528605,36.7938919,-101.1908417,-250.1374054,-0.0766141,0.7230452,10.7618818,25.9618320,18.0839691,-1.3206106
7300,12.4138727,-0.5985473,10.9007444,50.8091621,-110.6793900,-250.1374054,-0.1364688,0.7278336,10.6158361,25.9694653,16.4732819,-1.1832061
7310,11.1664991,-1.1180865,10.8097658,64.8396912,-118.2519073,-250.1374054,-0.1125269,0.7469871,10.5799236,25.1908398,15.5954199,-1.5267175
7320,9.7587166,-1.5250987,10.6613255,78.2366409,-123.2061081,-250.1374054,-0.1963235,0.8954269,10.4985209,23.8091602,15.0076332,-1.2137405
7330,7.8720951,-1.7333932,10.4506369,92.2595444,-127.7862625,-250.1374054,-0.1771700,0.8882443,10.4961262,22.7480907,14.4122133,-1.0839695
7340,5.9735026,-1.8746504,9.7132263,106.4045792,-136.6488495,-250.1374054,-0.3016679,0.9169745,10.3285332,21.7251911,13.5419846,-0.4351145
7350,4.0174499,-1.4077834,8.5161324,115.9847336,-148.6870270,-250.1374054,-0.3232156,1.1085097,10.3907824,20.4198475,12.0076332,-0.6259542
7360,2.7030399,-0.9768293,7.2519999,118.0992355,-167.8015289,-250.1374054,-0.3495516,1.1563935,10.4075413,18.7175579,9.6488552,-0.0458015
7370,2.3295465,-0.4309541,6.1841912,113.3511429,-180.5496216,-250.1374054,-0.3998296,1.2856797,10.3213511,17.0152664,6.4122138,-0.2824427
7380,2.1140692,0.2322364,5.9232249,104.8320618,-191.1984711,-250.1374054,-0.4022238,1.3144100,10.2782555,15.0916033,2.9541984,-0.8015267
7390,1.6950861,0.7374104,5.8992829,96.1832047,-198.0000000,-250.1374054,-0.3016679,1.4293311,10.2279778,12.6946564,0.2519084,-0.1145038
7400,1.1180865,0.8307837,5.9591374,90.8167953,-202.4351196,-250.1374054,-0.2489957,1.4077834,10.2614956,10.0076332,-2.0763359,-0.6259542
7410,0.4836263,0.9217629,6.3062949,87.7480927,-207.9084015,-250.1374054,-0.1460456,1.3886299,10.2495251,7.1832061,-3.5190840,-1.8244275
7420,-0.0981618,1.0965388,6.6055689,88.5267181,-214.5267181,-250.1374054,-0.0550664,1.4173602,10.2854376,5.1984735,-4.2061067,-2.9770992
7430,-0.9576758,1.3383518,6.5313487,91.5801544,-214.8473358,-250.1374054,-0.1197095,1.4221486,10.2926207,3.9923663,-3.1908398,-2.9312978
7440,-1.5969244,1.4101776,6.3661499,93.7633591,-207.9618378,-250.1374054,-0.0790083,1.4652439,10.4075413,4.0763359,-0.6183206,-3.4503818
7450,-2.3774302,1.5993185,5.9998388,92.8015289,-198.0076294,-250.1374054,-0.0215477,1.4173602,10.4913378,4.6641221,2.5114503,-2.9465649
7460,-3.0861101,1.6735384,5.6909885,89.5419846,-185.8473358,-250.1374054,0.0191535,1.4221486,10.3668404,5.1068702,7.5267177,-2.3816793
7470,-4.0677280,1.6998745,5.4180508,86.7938919,-166.1374054,-250.1374054,0.0670373,1.3790531,10.3309278,5.3816795,13.3587790,-2.2366412
7480,-5.2384863,1.7309990,4.8625989,83.1984711,-144.7099304,-250.1374054,0.0622489,1.4101776,10.2519188,5.7251906,22.2519093,-1.4656489
7490,-6.1913738,2.0087249,4.4627690,79.0916061,-123.4885483,-250.1374054,-0.0502780,1.5274929,10.1154509,6.3206105,36.8015251,0.7557252
7500,-7.0365229,2.3822186,4.3358769,74.0076370,-105.9389343,-234.7328186,-0.2226596,1.5083394,9.8281479,7.2290077,53.9541969,3.8244274
7510,-7.6949248,2.5833304,4.0605454,69.9007645,-82.6412201,-204.4580078,-0.3567342,1.4987626,9.8520899,7.8320613,69.7251892,7.2137403
7520,-8.1354561,2.8179610,3.6032550,65.0916061,-55.1374054,-170.1374054,-0.3782819,1.4796091,9.7635050,8.8320608,82.6030502,9.2290077
7530,-8.3030491,3.0071020,2.9640064,57.9847336,-21.2824421,-134.4580078,-0.4955972,1.4125718,9.9646168,9.5648851,91.6488571,9.8702288
7540,-8.2982607,3.1148405,2.2816625,48.8320618,13.9236641,-99.1145020,-0.9169745,1.5490406,10.2974091,10.0916033,98.4274826,10.5038166
7550,-8.1450329,3.2800395,1.6639616,37.7709923,50.5343513,-67.3587799,-1.1276633,1.4676381,10.4673967,11.6793890,103.1374054,11.4656487
7560,-8.3557215,3.1531475,1.1635761,23.9694653,83.6946564,-37.0305328,-1.3215926,1.5801650,10.5057030,10.2061071,112.5572510,11.1908398
7570,-8.8872309,2.7269819,0.5793939,8.3816795,113.8320618,-3.8854961,-1.8411317,1.7214222,10.5511932,8.8091602,127.1679382,13.2900763
7580,-9.5169029,2.3917952,-0.0430954,-10.2900763,148.8625946,34.6488533,-2.5546002,1.8483143,11.0204544,9.1221371,152.5572510,19.5190830
7590,-10.4793673,2.2696917,-1.0199248,-36.2213745,192.5419922,80.0305328,-3.3758070,1.8195840,11.3771887,10.1374044,178.9923706,29.0610695
7600,-12.4545736,1.9823889,-1.7166338,-72.3664093,242.2519073,135.2595367,-3.5625539,1.8219782,11.0348196,8.0992365,206.7404633,37.2137413
7610,-14.7242651,1.3479286,-1.3072275,-111.5648880,250.1297760,202.9236603,-5.7197185,1.8674678,13.3978844,4.7557254,163.2290039,45.2824440
7620,-17.0657825,0.2489957,-0.4237715,-146.7862549,250.1297760,250.1297760,-4.8673873,1.3096216,13.6133614,14.2519083,127.2290039,46.7480927
7630,-19.5820751,-1.5179161,0.8858501,-180.3129730,250.1297760,250.1297760,-3.8187323,1.1037214,13.0698805,27.8396950,124.2519073,41.6641235
7640,-19.6131992,-4.7596488,2.8610563,-212.4198456,250.1297760,250.1297760,-3.5864959,1.2258250,11.3987360,36.3664131,145.0915985,40.4122124
7650,-19.6131992,-7.6446471,5.0804701,-246.3664093,250.1297760,250.1297760,-4.0725164,1.8387375,9.8233595,38.9694672,174.5725250,43.8931313
7660,-19.6131992,-13.4433737,7.8242111,-250.1374054,250.1297760,250.1297760,-4.7261300,1.9512644,8.5424681,36.9236641,196.2519073,54.0610695
7670,-17.1447906,-19.6131992,9.8018112,-250.1374054,250.1297760,250.1297760,-4.8051381,2.0733681,7.7475972,30.5877857,197.7938995,63.8473282
7680,-9.6126709,-19.6131992,10.1178446,-250.1374054,250.1297760,250.1297760,-4.8434453,1.9392935,7.8601241,20.6259537,177.0000000,68.0534363
7690,3.9216824,-19.6131992,9.8042059,-250.1374054,238.2977142,250.1297760,-4.7476778,1.7812769,8.3006544,12.1374044,166.9694672,68.5954208
7700,19.6126022,-19.6131992,11.6908274,-250.1374054,183.0381622,250.1297760,-5.3390427,1.9512644,9.0931320,7.6106873,175.9160309,70.5877838
7710,19.6126022,-19.6131992,19.6126022,-223.9923706,72.3969498,250.1297760,-5.9878678,2.1930776,9.0380650,5.2748094,181.7557220,74.4732819
7720,19.6126022,-1.3694763,19.6126022,-100.4503784,96.2213745,250.1297760,-6.0692701,2.2194135,8.7292147,2.9694657,183.4198456,78.5496216
7730,19.6126022,8.1282730,19.6126022,9.4198475,175.4580078,24.5267181,-5.9112539,2.1906834,8.3748751,0.7328244,177.6946564,80.6412201
7740,19.6126022,-1.8842272,12.6939926,36.5572510,155.5954132,-250.1374054,-5.7915444,2.2601149,8.1163025,-0.0305344,169.8320618,79.4656525
7750,19.6126022,-7.8385763,8.9590569,27.4656487,-72.8931274,-250.1374054,-5.8011212,2.2960277,7.9151902,-0.1450382,162.6030579,76.9542007
7760,1.0462608,-7.3118544,13.1536770,25.4274807,-250.1374054,-250.1374054,-5.7125359,2.3774302,7.7308378,0.6717557,151.2671814,74.5190811
7770,-5.4539638,-1.9895715,15.1719790,61.8473282,-250.1374054,-250.1374054,-5.7771792,2.3989778,7.7499914,1.6412214,134.4809113,68.9542007
7780,-2.9568241,3.6104376,11.3867655,90.8473282,-211.3435059,-132.3664093,-5.8274570,2.5378408,7.6135225,2.8244274,114.1297684,64.1526718
7790,2.2002602,6.4092450,6.1147599,79.8778610,-66.6335907,-27.7938938,-6.0716643,2.7365584,7.5991573,4.0610685,85.8244247,58.7862587
7800,6.7300668,7.6757712,2.3582766,46.0000000,70.6259537,27.7328243,-6.0046272,3.0047078,7.4962072,4.9160304,52.7557259,50.4809151
7810,7.2448173,6.9575148,1.0702027,-13.3282442,191.8702240,43.7175560,-5.3151007,3.1770895,7.4195933,7.3053436,19.3587780,35.3053436
7820,4.9559722,6.0692701,1.7549409,-32.2519073,169.6870270,41.1908379,-5.3653784,3.0382264,7.2543941,8.5496187,21.1297703,30.9083977
7830,2.8514795,5.3366485,3.3375001,-38.4045792,109.2213745,42.5725174,-5.3988972,3.0286496,7.1538382,9.0152674,25.5801525,28.6183205
7840,1.7262106,3.7923961,5.8322453,-15.7404585,-19.3587780,58.4503822,-5.3749552,3.4069316,7.1705976,8.8244276,21.6106873,23.6335869
7850,2.1380112,2.6623387,6.0860295,4.3206105,-66.5648880,70.7251892,-5.1666608,3.3853838,7.2974896,9.1679392,16.7022896,18.0381680
7860,3.8570392,1.7884595,5.9304070,22.3053436,-94.1984711,85.2137375,-4.9128766,3.3422885,7.4579000,9.8625956,8.8091602,10.7480917
7870,6.4714942,1.6591733,5.3558016,36.1755714,-94.3816757,97.1832047,-4.4340386,3.3949606,7.5943689,10.5954199,-7.7709923,-0.1679389
7880,8.5281029,1.6855093,4.3598189,40.6717567,-70.1679382,100.4351120,-3.8402798,3.3686244,7.8098459,8.3969469,-40.7938919,-17.3587780
7890,9.7946291,1.8578910,3.5098817,33.8625946,-38.3816795,95.6946564,-3.4835455,3.1220231,8.1139078,6.4351144,-78.8167953,-37.3435097
7900,10.6924505,2.0374553,3.1148405,18.2519093,-1.6717557,89.3511429,-3.4212968,3.0214672,8.1617918,5.1068702,-110.6106873,-58.6870232
7910,10.8337069,1.9560528,2.9640064,-1.8015267,29.5114498,79.5572510,-3.5793133,2.8802099,8.4682484,6.2290077,-136.7480927,-77.7862625
7920,10.3500814,1.7693061,3.2465210,-21.4045811,50.3664131,69.3511429,-3.9216824,2.6671271,8.8585014,10.3511448,-154.5648804,-90.4961853
7930,9.6054878,1.6232605,3.9456241,-36.9541969,58.6412201,60.6106873,-4.1323709,2.6719155,8.9806042,16.1145039,-168.0992432,-102.4580154
7940,8.8776541,1.3072275,4.6662750,-47.1984749,55.7480927,55.1526718,-4.2784166,2.6240315,9.1888990,23.8015270,-177.7862549,-109.0305328
7950,8.3317795,1.3072275,5.5521255,-52.5801544,44.5648842,52.0000000,-4.5345950,2.5522060,8.9303265,31.3206100,-183.0610657,-111.1832047
7960,8.3222027,1.5131277,6.3924856,-53.1755714,29.0458012,52.0610695,-5.1068063,2.5976956,9.1769285,38.9312973,-174.9770966,-110.2137375
7970,9.1003141,1.5634058,7.1921453,-49.7709923,15.9465647,52.6641235,-5.3581958,2.5067163,9.0069408,43.5419846,-152.7862549,-104.4503784
7980,10.1657286,1.7501525,7.7547798,-43.9160309,14.0458012,48.7099228,-5.8944945,2.5115047,8.6909075,45.4045792,-122.0992355,-93.5343475
7990,11.0946741,1.9632354,8.0037756,-38.3206100,22.1603050,39.7633591,-6.3493905,2.6551561,8.4467001,44.6183205,-86.5419846,-80.7862625
8000,11.2239599,2.0039365,8.1546097,-33.8778610,36.1755714,29.5267181,-6.4858594,2.8275378,8.3772688,42.7022896,-52.4656487,-67.6641235
8010,10.8193426,1.9057748,8.1665802,-29.5343513,48.9465637,22.6259537,-6.0429344,2.6048782,8.3509331,39.1984749,-32.4122124,-59.2290077
8020,10.2040358,1.8052188,8.1067257,-23.6870232,57.4427490,19.7328243,-5.4419928,2.2744799,8.3772688,34.5190849,-26.1679382,-58.5954208
8030,9.8880024,1.6352314,7.9151902,-18.0076332,59.6946564,19.7938938,-5.2743993,2.3415172,8.1593981,31.3511448,-32.6030540,-65.1450348
8040,10.0603838,1.5586174,7.7428088,-14.2671757,58.8625946,21.4045811,-5.2432747,2.2864509,7.7643566,30.2900772,-57.1603050,-74.7099228
8050,10.6373835,1.6184721,7.4722652,-12.9923668,57.7557259,19.9465656,-5.2791877,2.2337787,7.2879128,28.2595425,-98.4274826,-84.5648880
8060,11.2263546,1.6160779,7.4052281,-14.5038166,52.9389305,14.7251911,-5.2696109,2.2744799,6.9216018,23.8167934,-146.6793823,-94.9770966
8070,12.2702208,1.4006008,7.3932571,-19.1145039,47.2061081,5.8396945,-4.9847026,2.2242019,6.9479380,17.2824421,-192.6488495,-105.1145020
8080,13.3619709,1.2186425,7.5345144,-25.1908398,40.6106873,-7.6564884,-4.7955613,2.2002602,6.8569584,7.4427481,-236.9389343,-117.9618301
8090,14.3795023,1.0702027,8.1378498,-32.0381660,29.8625946,-27.8854961,-4.6686692,2.2122312,7.0652533,-6.1679387,-250.1374054,-129.0000000
8100,15.1121235,0.9457048,8.9590569,-37.5801544,14.0687027,-54.9312973,-4.8578105,2.1595588,8.4155760,-21.0076332,-250.1374054,-133.1450348
8110,15.1695843,0.7445929,10.0555954,-38.1908379,0.6717557,-85.9465637,-4.8673873,1.9273225,9.3540983,-33.1374054,-250.1374054,-128.5801544
8120,14.5087881,0.3423691,11.0491848,-31.8778629,-12.0687027,-115.9236679,-4.8003497,1.9392935,10.1058741,-40.1068687,-224.2137451,-118.7175598
8130,14.0060081,-0.1388630,11.7363167,-17.9923668,-30.2977104,-141.7786255,-4.9655490,2.1954718,10.7044210,-41.9771004,-173.0992432,-104.3740463
8140,14.4920292,-0.5578461,11.6644907,1.8778626,-48.6870232,-165.8931274,-4.8673873,2.3463056,11.3173332,-39.4732819,-125.6564865,-86.3511429
8150,14.6763811,-0.4189832,11.4729557,19.6793900,-65.8625946,-194.4427490,-4.5633249,2.1739240,11.3293047,-34.7557259,-88.4732819,-69.6030502
8160,13.9964314,-0.3878587,11.0611553,33.0076332,-77.7022934,-223.9541931,-4.2544746,2.2194135,11.2191715,-27.4427490,-66.6488571,-53.8167953
8170,13.4960461,-0.6153067,10.3620520,43.2137413,-78.4809189,-246.3053436,-3.8187323,2.0302727,10.8217363,-19.3893127,-66.4351120,-41.7480927
8180,13.1105814,-0.5746055,9.7180147,49.7480927,-68.6183243,-250.1374054,-3.3303175,1.9105632,10.2231894,-12.4656487,-85.0381699,-36.0152664
8190,12.1074162,-0.7014975,9.0524302,54.9083977,-57.0152664,-250.1374054,-2.4636209,1.7525467,9.7036495,-8.1526718,-115.9160309,-35.5496178
8200,11.1904411,-0.5650287,8.4850073,59.5725174,-54.6259537,-250.1374054,-1.4843974,1.6543850,9.2583303,-7.1603055,-147.8473358,-40.3435097
8210,10.7546988,-0.2992737,7.9630742,63.7786255,-57.2519073,-250.1374054,-0.9169745,1.5155219,8.9925756,-9.0839691,-171.8167877,-46.3053436
8220,9.8688488,-0.2226596,7.6973190,68.2519073,-67.7175598,-250.1374054,-0.2801202,1.3742647,8.8585014,-15.7786255,-181.1145020,-52.4198456
8230,9.1865053,-0.0814024,7.2687593,73.0992355,-84.2137375,-250.1374054,0.0023942,1.3958124,8.6118994,-27.5190830,-174.4809113,-56.2442741
8240,8.5448618,-0.0885850,7.0652533,77.6717529,-102.1984711,-250.1374054,0.1771700,1.5634058,8.6238708,-42.4122124,-157.3129730,-58.4809151
8250,7.6015515,-0.0167593,6.8761120,82.1450348,-116.6335907,-250.1374054,0.0143651,1.6639616,8.7699156,-58.2061081,-133.6412201,-56.7404594
8260,6.7133074,0.0694315,6.4571290,85.7938919,-122.9923630,-250.1374054,-0.1173153,1.4413021,9.2152348,-70.4732819,-112.1603088,-52.8549614
8270,5.8490047,0.0861908,5.5736732,87.0534363,-123.8015289,-250.1374054,-0.5506636,1.1899122,9.6294298,-78.0305328,-94.1221390,-46.5496178
8280,4.5681133,0.2202654,5.0493455,84.1908417,-127.5343475,-250.1374054,-0.7278336,1.1539993,10.0819321,-79.5725174,-81.4427490,-38.3587799
8290,3.0334380,0.2322364,4.6159973,79.2900772,-133.4274750,-250.1374054,-0.8451489,0.8858501,10.4338779,-77.4198456,-72.8931274,-30.0610695
8300,1.6855093,0.3208214,4.0557570,73.6106873,-143.4274750,-250.1374054,-0.8643024,0.7541697,10.5272512,-74.3358765,-67.4045792,-21.2595425
8310,0.8283895,0.4405309,4.2018023,65.9465637,-163.9389343,-250.1374054,-0.7445929,0.6177009,10.6206245,-72.3435135,-63.4427490,-12.6564884
8320,0.0191535,0.4070122,4.4843168,61.1984749,-179.3969421,-250.1374054,-0.4094064,0.4860204,10.6780853,-71.3816757,-59.0458031,-6.2442746
8330,-0.8643024,0.2202654,4.7093706,59.3435097,-180.2290039,-250.1374054,-0.0837966,0.4070122,10.8001890,-70.7099228,-48.8931313,-3.6870229
8340,-1.7693061,0.1508339,4.9344244,56.7175560,-167.5267181,-250.1374054,-0.0311245,0.1723816,11.0898857,-69.5038147,-36.6183205,-0.8702290
8350,-2.5402350,0.2322364,4.5705075,51.9007645,-157.6106873,-250.1374054,-0.1316804,-0.0215477,11.3245163,-66.0076370,-27.5725193,2.5343511
8360,-2.7341642,0.2250538,4.0006905,44.5114517,-141.0763397,-250.1374054,-0.2035061,-0.1843526,11.7099810,-59.9541969,-20.5954189,6.9923663
8370,-2.9376705,-0.1460456,3.3686244,33.6412201,-122.7786255,-250.1374054,-0.1891410,-0.3543400,11.7506819,-53.3435097,-15.6259546,11.2442751
8380,-4.5489597,-2.0302727,1.9009864,-15.9770994,-52.7480927,-250.1374054,0.1412572,-0.6703730,11.6525202,-36.4122124,-4.1068702,21.8320618
8390,-6.5074067,-2.5210814,2.0973101,-35.9694672,-39.9312973,-250.1374054,0.1771700,-0.7924767,11.6980095,-31.7786255,-5.1908398,22.8473282
8400,-8.2623482,-3.0358322,3.4931223,-49.8702278,-34.6641235,-250.1374054,0.3615226,-0.8355721,11.6573086,-27.5801525,-7.6564884,23.5190830
8410,-9.6916790,-3.1124463,5.5593081,-52.0381660,-21.9312973,-217.1832123,0.3639168,-0.8595140,11.5280218,-23.5343513,-11.2748089,22.7557259
8420,-11.3316984,-2.8993635,7.2831244,-43.4427490,7.8473282,-175.1297760,0.4046180,-0.7829000,11.3628235,-19.4961834,-15.0916033,21.9618320
8430,-13.8479919,-2.3606708,8.6956959,-29.7480907,45.0000000,-124.1603088,0.4620786,-0.8499373,11.3125448,-15.8015270,-17.4427490,22.8473282
8440,-16.9484673,-2.5019281,9.7994175,-9.4809160,81.5114517,-59.8702278,0.4141948,-0.9193687,11.2862091,-13.0000000,-17.2671757,22.8167934
8450,-19.6131992,-3.0382264,9.5432396,16.2671757,113.2595444,26.1832066,0.5961532,-0.8571198,11.1521349,-10.5648851,-15.5648851,24.2213745
8460,-19.6131992,-3.1986370,8.5257082,36.5954208,129.3206177,140.5343475,0.6392486,-0.8762733,11.0850973,-8.3435116,-13.2137403,25.4809170
8470,-19.6131992,-3.6774750,6.5313487,46.2442741,149.0229034,250.1297760,0.7972651,-0.9792235,11.0491848,-6.4809160,-10.5572519,25.9160309
8480,-19.6131992,-4.2688398,4.2089849,36.3893127,184.5114441,250.1297760,0.8164186,-0.9217629,10.9103212,-4.6564884,-7.9465647,26.5267181
8490,-19.6131992,-5.4276276,2.6958573,8.8702288,209.4427490,250.1297760,0.9193687,-0.8786675,10.8504667,-3.2442749,-6.6106873,26.0381680
8500,-19.5701046,-7.9008250,2.7317703,-20.4198475,215.5648804,250.1297760,0.9935886,-0.8882443,10.7451220,-2.2671757,-5.9770994,26.5648861
8510,-15.0738173,-9.9502516,3.9001346,-41.1832047,222.3969421,250.1297760,0.9840119,-0.8834559,10.7092094,-2.3282442,-6.9465647,25.0458012
8520,-9.7299862,-15.2461987,4.5872669,-58.2595406,250.1297760,250.1297760,1.0175306,-0.9073978,10.5392218,-2.6183207,-8.0687027,24.6564884
8530,-4.6183915,-19.6131992,4.0366035,-83.8931274,250.1297760,250.1297760,0.9385223,-0.8523315,10.4937325,-3.8396947,-9.9465647,22.8854961
8540,5.6071916,-19.6131992,0.8762733,-125.7175598,250.1297760,250.1297760,0.9792235,-0.8499373,10.5368280,-5.0000000,-13.9923668,20.9694653
8550,13.2087431,-19.6131992,-0.7182568,-195.8091583,250.1297760,250.1297760,0.9528874,-0.8164186,10.4554253,-6.1603055,-17.3969460,20.1832066
8560,19.6126022,-19.6131992,1.7357874,-250.1374054,250.1297760,250.1297760,1.0007712,-0.9337339,10.5607700,-6.6641221,-18.5190830,18.5496178
8570,19.6126022,-19.6131992,13.0746689,-250.1374054,187.8854980,250.1297760,0.9696468,-0.9050036,10.5918941,-7.0076337,-17.1679382,18.0763359
8580,19.6126022,-18.2652721,19.6126022,-250.1374054,144.9160309,250.1297760,1.0773853,-0.8666966,10.6900558,-7.0152674,-15.3206110,17.6030540
8590,19.6126022,3.6463506,19.6126022,-110.8473282,250.1297760,250.1297760,1.1037214,-0.9145803,10.6828737,-6.7709923,-12.7480917,17.0992374
8600,19.6126022,-1.2234308,19.6126022,38.7022896,250.1297760,-52.8854980,1.1803354,-0.9576758,10.7882175,-6.7404580,-10.0839691,17.4961834
8610,19.6126022,-5.7245069,17.0131111,139.9313049,25.1755733,-241.2900696,1.2521610,-1.0151364,10.7116032,-6.5648856,-8.2061071,16.6564884
8620,9.6078825,-5.5090299,9.2726955,160.0915985,-238.7480927,-250.1374054,1.1923064,-1.0079538,10.6948442,-6.1526718,-7.1297708,15.4809160
8630,1.3072275,-2.4660151,7.6207051,144.8778687,-250.1374054,-229.8625946,1.2066715,-1.0510491,10.7139978,-5.7786260,-6.3816795,14.7251911
8640,1.7501525,0.5937590,6.6079631,127.8702316,-250.1374054,-127.2061081,1.2545552,-1.1037214,10.7546988,-5.4656487,-5.7404580,13.5343513
8650,5.5305777,2.9256995,4.2520804,105.0381699,-158.5114441,-39.0076332,1.3694763,-1.1300575,10.8504667,-5.0687022,-5.1832061,11.8931293
8660,7.9056134,4.7644372,2.1308286,70.0457993,-2.6030533,13.5343513,1.3120158,-1.1731528,10.8815908,-4.3358779,-5.0152674,10.4427481
8670,6.8282285,4.4938936,2.3271523,-4.2061067,171.1068726,40.2595406,1.2641320,-1.1252691,10.8791971,-0.5801527,-4.8702292,7.0076337
8680,4.8386569,3.6702924,3.7469065,1.1068702,62.4045792,46.8015251,1.1707586,-1.1013272,10.8025827,2.6335878,-1.1603054,5.3282442
8690,5.1882086,3.3686244,3.8666160,5.4198475,32.1526718,50.6641235,1.2377959,-1.1109039,10.7355452,3.4885497,-0.5801527,4.6030536
8700,5.9830794,2.9711890,3.9671719,7.7938933,12.8625956,54.0687027,1.2186425,-1.1085097,10.7331514,3.9007633,0.1603053,3.3664122
