timestamp,rxacclX,rxacclY,rxacclZ,rxgyroX,rxgyroY,rxgyroZ,txacclX,txacclY,txacclZ,txgyroX,txgyroY,txgyroZ
0,10.4219065,-1.7429699,11.6237898,241.8778687,-250.1374054,-250.1374054,3.7923961,0.0861908,11.9302464,-27.6641216,-19.7328243,1.3816794
10,9.1170731,-2.7030399,10.6924505,230.8015289,-250.1374054,-250.1374054,3.5577655,0.0430954,12.1505117,-15.0839691,0.6335878,-0.5419847
20,7.1705976,-3.3087699,10.9462337,217.6870270,-250.1374054,-250.1374054,3.0214672,0.0981618,12.4449968,-2.5725191,16.0305347,-3.0381680
30,5.2791877,-3.6367738,11.4777441,208.1832123,-250.1374054,-250.1374054,2.3367288,0.2226596,12.2175484,9.1755724,23.6412220,-3.7480917
40,4.1395535,-3.6367738,11.5926657,201.6259613,-250.1374054,-250.1374054,1.5490406,0.2418131,11.5615406,18.0992374,24.8549614,-1.0687023
50,2.9640064,-3.1603301,11.3340931,194.5725250,-250.1374054,-250.1374054,1.3096216,0.1340746,10.4937325,22.5801525,21.7328243,3.0610688
60,2.0901275,-2.9256995,10.9222927,184.2366486,-250.1374054,-250.1374054,1.3191984,0.3064562,9.7060442,20.2977104,14.9236641,7.3053436
70,1.4939742,-1.8842272,10.7858238,170.7175598,-250.1374054,-250.1374054,1.7142396,0.5650287,9.6222477,13.5801525,8.1984730,8.8167934
80,1.4077834,-0.3926471,10.8791971,154.1984711,-250.1374054,-250.1374054,1.4796091,0.6033357,9.4642305,6.2061067,-0.2519084,7.9160304
90,-9.8209648,6.8354111,-11.7411051,199.2748108,-65.4656525,-208.2900696,1.6376256,0.7302278,10.1154509,28.4961834,8.0381680,-3.6259542
100,-11.3724003,8.0013809,-15.7106714,144.7022858,-96.0457993,-172.5954132,1.5083394,0.9433106,9.8712435,25.1145039,4.6259542,-2.1068702
110,-13.2662039,8.9877872,-18.3993454,48.5572510,-48.5267181,-126.1145020,1.2210367,1.0055596,9.6437950,19.6335869,0.9465649,-0.8015267
120,-14.6811695,9.0691900,-18.7177734,-55.7022896,23.7251911,-72.3358765,0.9217629,0.8619082,9.5983057,12.9694653,-4.5954199,2.2824428
130,-16.2661228,8.8561068,-16.1847210,-144.7557220,83.3435135,-12.9312973,1.4101776,1.0390782,9.6461897,6.2748094,-10.1679392,5.0839696
140,-16.9724083,8.5711985,-13.4266148,-205.7099304,96.4809189,48.3053436,1.6615674,1.0247130,9.7299862,0.1297710,-14.3282442,4.6870227
150,-16.4169579,8.3006544,-11.6573086,-249.0839691,76.8702316,106.3358765,1.6424140,0.8954269,9.7587166,-5.5572519,-19.5267181,3.9007633
160,-14.7553892,6.9838505,-10.4769726,-250.1374054,53.0916023,162.7633514,1.6974803,1.0486550,10.0053177,-10.2137403,-25.1755733,1.8320611
170,-12.3707771,5.4587522,-8.4826136,-250.1374054,38.9923668,213.7786255,1.5131277,1.0295014,10.1465750,-13.1374044,-31.4427490,2.6183207
180,-10.4434547,3.4787574,-6.0142040,-250.1374054,42.0228996,250.1297760,1.4125718,0.9169745,10.1393919,-14.9160309,-33.6335869,5.2061067
190,-8.2527714,1.4365137,-2.5522060,-250.1374054,59.4809151,250.1297760,1.0582317,0.6248835,9.7515335,-17.7404575,-44.1908379,8.8549614
200,-5.4946647,-1.3335636,1.1731528,-250.1374054,84.2595444,250.1297760,1.6065011,1.0127422,8.8872309,-25.5801525,-61.9389305,12.3664122
210,-1.6448082,-3.8857694,5.0397687,-250.1374054,97.7099228,250.1297760,2.2792683,1.2282192,9.6749191,-38.7404594,-52.9389305,15.3053436
220,5.6215568,-4.7835903,11.5136566,-250.1374054,65.1755753,250.1297760,2.4372849,1.3311694,10.7331514,-41.1450386,-50.4656487,14.6564884
230,17.5254669,-3.1842721,19.6126022,-250.1374054,-8.3282442,250.1297760,2.4755919,0.3112446,11.0635490,-35.2137413,-51.6946564,12.3206110
240,19.6126022,0.0598547,19.6126022,-187.7480927,-71.9770966,136.8778687,2.9879484,0.0239419,11.0779142,-29.5267181,-48.3358765,12.7633591
250,19.6126022,1.7693061,19.6126022,14.9160309,-100.5801544,-25.1145039,3.5026991,0.2442073,10.9031391,-26.0381680,-41.4427490,13.2061071
260,19.6126022,0.9792235,19.6126022,196.3511505,-113.8015289,-177.2137451,4.1132174,0.2418131,10.5320396,-24.0076332,-29.2290077,10.1679392
270,19.6126022,-0.8882443,19.6126022,250.1297760,-126.7938919,-250.1374054,4.2808108,0.1723816,10.3955708,-22.5343513,-24.2900772,2.8473282
280,13.2925396,-2.0015423,16.8335457,250.1297760,-139.6183167,-250.1374054,4.2185616,0.4525018,10.5679522,-21.6717548,-19.8015270,-5.0076337
290,6.7516141,-2.8634505,10.0795374,250.1297760,-125.3969498,-250.1374054,3.9264708,0.4812321,10.6230183,-19.4351139,-15.0152674,-10.1297712
300,1.6687500,-2.7389526,4.3478479,250.1297760,-87.3282471,-250.1374054,3.3949606,0.3423691,10.4314833,-17.5343513,-10.0229006,-12.7480917
310,-3.4811516,-2.3127871,-1.8818330,250.1297760,-54.3816795,-250.1374054,2.9304879,0.4237715,10.0196829,-18.2366409,-7.6793895,-12.2671757
320,-8.2551651,-0.9193687,-7.6661944,250.1297760,-42.9312973,-250.1374054,2.7844424,0.4884146,10.3572636,-19.9694653,-7.7251906,-11.4885492
330,-13.0483322,1.3862357,-13.1153698,250.1297760,-54.4656487,-250.1374054,2.6527619,0.4979914,10.3859940,-20.8473282,-8.3435116,-10.3664122
340,-17.6355991,4.6878228,-17.8343182,250.1297760,-81.1145020,-250.1374054,2.5713594,0.3639168,10.3740225,-20.3969460,-9.5267172,-8.3129768
350,-19.6131992,7.0676475,-19.6131992,154.7862549,-80.1374054,-188.1526642,2.6120608,0.1747758,10.4554253,-20.0916023,-11.1984730,-6.0000000
360,-19.6131992,8.7723103,-19.6131992,28.9770985,-17.6946564,-88.6412201,2.5905130,0.2370248,10.8911676,-18.3664131,-12.6717558,-4.4656487
370,-19.6131992,7.9080076,-19.6131992,-100.4809189,64.6106873,11.9770994,2.7413468,0.0167593,10.7882175,-14.8244276,-10.3053436,-2.8091602
380,-19.6131992,6.6295104,-19.3258972,-216.0839691,113.1755753,122.5496216,2.8059900,-0.1173153,10.7235746,-11.7862597,-6.3358779,-1.1374046
390,-19.6131992,6.6869712,-13.6947641,-250.1374054,113.4198456,214.5572510,2.8275378,-0.3016679,10.6230183,-9.4961834,-4.3511453,-0.3969466
400,-19.6131992,4.5752959,-9.0596132,-250.1374054,105.1221390,250.1297760,3.1723011,-0.3591284,10.4745789,-8.8320608,-2.3816793,-0.5114504
410,-15.0618458,1.9488702,-5.5138183,-250.1374054,82.2824402,250.1297760,3.2249732,-0.3734936,10.3500814,-8.3740454,-0.1297710,-0.7938932
420,-9.8616667,-0.7805058,-2.9664006,-250.1374054,56.4503822,250.1297760,3.0789278,-0.4333483,10.2878323,-8.2748089,1.2290076,-1.3664122
430,-2.8826041,-2.8873925,0.3136388,-250.1374054,30.7175579,250.1297760,3.0861101,-0.4357425,10.4266949,-8.6488552,3.1068702,-1.5801526
440,5.3366485,-3.9743545,5.6981707,-250.1374054,-21.7328243,250.1297760,2.9687948,-0.2705434,10.7499104,-7.0687022,5.4809160,-1.2595420
450,17.0083218,-2.7940190,15.2892942,-250.1374054,-93.2061081,250.1297760,2.9759774,-0.3543400,11.0060892,-2.8473282,8.2595415,-1.0458015
460,19.6126022,0.4405309,19.6126022,-238.6412201,-134.6793823,212.1221313,2.9185169,-0.3184272,11.0874910,2.4503818,12.0992365,-0.4122137
470,19.6126022,3.1842721,19.6126022,-91.7099228,-112.6946564,52.8091621,3.0334380,-0.2777260,11.0539722,7.5038166,16.0458012,-0.6335878
480,19.6126022,3.1411765,19.6126022,44.7480927,-83.0457993,-107.5190811,2.8993635,-0.2106887,10.9941177,11.8244276,20.9236641,-1.6412214
490,19.6126022,1.6017127,19.6126022,160.4809113,-87.4351120,-239.0534363,2.7030399,-0.0383070,10.7738523,13.9236641,21.5572510,-2.7099237
500,16.3523140,-0.3208214,19.3857517,246.6870270,-110.7404556,-250.1374054,2.4708035,0.0718257,10.7020273,16.0229015,22.4045811,-3.0305343
510,8.3629036,-0.2944853,14.2933111,250.1297760,-119.8396912,-250.1374054,2.1619530,0.1197095,10.6062593,17.9770985,21.1603050,-3.8244274
520,3.9767487,0.3088504,9.5264797,250.1297760,-75.4045792,-250.1374054,2.0470319,0.2968795,10.6325951,18.5419846,20.2442741,-3.2824428
530,0.8858501,1.1779412,4.6447277,250.1297760,-20.3587780,-250.1374054,2.1308286,0.4189832,10.6732969,18.3664131,17.4351139,-3.9541984
540,-2.1691356,1.7764885,0.0095768,250.1297760,19.3053436,-250.1374054,2.0973101,0.3998296,10.6206245,16.8015270,13.9541988,-5.5190840
550,-6.0142040,2.3678534,-4.2903876,250.1297760,33.1908379,-250.1374054,2.0350611,0.3495516,10.7307568,17.1145039,13.5038166,-7.1755724
560,-10.7044210,2.9161227,-7.8984308,250.1297760,6.8320613,-250.1374054,1.9919657,-0.0550664,11.0420017,20.0916023,10.9312973,-10.0610685
570,-16.1368370,4.5896611,-12.0954447,237.8091583,-47.0610695,-239.5419922,1.9105632,0.1460456,11.4873209,24.4198475,16.2671757,-15.2748089
580,-19.6131992,6.7252784,-16.7353840,175.3511505,-69.0229034,-165.6641235,1.5849534,0.0311245,11.6788559,30.0992374,17.4274807,-17.5572510
590,-19.6131992,7.8146343,-19.6131992,76.5725174,-25.2061062,-77.1603088,1.6495966,0.1101327,11.6525202,36.5267181,26.3740463,-18.2977104
600,-19.6131992,8.1019373,-19.6131992,-45.4122124,51.2748108,20.9007626,1.5538290,0.0814024,11.9661589,43.4885483,35.2977104,-19.6106873
610,-19.6131992,7.6230993,-18.3993454,-158.1984711,102.8473282,119.1526718,1.3766589,0.1723816,12.0738974,51.4122124,42.3511467,-22.2366409
620,-19.6131992,6.7827387,-13.7043400,-239.6412201,114.8702316,211.8320618,0.8355721,0.1580165,11.9350348,60.3358765,45.5801544,-25.0687027
630,-19.6131992,4.9942794,-9.2631187,-250.1374054,100.7099228,250.1297760,0.2920911,0.4285599,11.5878773,68.4885483,45.7404594,-25.1450386
640,-16.0410690,2.8323262,-5.9064655,-250.1374054,79.2137375,250.1297760,0.0263361,0.8858501,10.8121595,73.0992355,47.2671738,-21.6717548
650,-10.9486284,0.2274480,-3.1363883,-250.1374054,60.2366409,250.1297760,-0.1963235,1.3503228,10.1681223,71.9236679,50.3358765,-14.6946564
660,-6.1961622,-1.8650736,-0.9289455,-250.1374054,49.4122124,250.1297760,-0.1843526,1.5298871,9.7922344,66.3129807,50.6335869,-8.4503813
670,0.4405309,-3.7636659,2.5713594,-250.1374054,33.0763359,250.1297760,-0.1532281,1.5921360,9.6916790,58.0839691,46.1526718,-6.5038166
680,8.4490948,-4.0629396,7.5919747,-250.1374054,7.7099237,250.1297760,-0.2346306,1.7980363,9.5432396,49.5877876,38.3511467,-4.8549619
690,19.6126022,-2.3439114,15.5813847,-250.1374054,-24.7480907,250.1297760,-0.3926471,2.0398495,9.4881725,42.2213745,32.1603050,-1.6946565
700,19.6126022,1.2138541,19.6126022,-203.7938995,-47.4198456,246.8320618,-0.3040621,2.1930776,9.4546537,35.1908379,29.9465656,3.7557251
710,19.6126022,4.0557570,19.6126022,-80.8625946,-45.1603050,71.1374054,-0.0837966,2.1308286,9.7084379,28.7480907,28.8702297,7.3282442
720,19.6126022,3.5194585,19.6126022,46.6412201,-62.4045792,-110.1145020,0.0646431,2.1380112,9.8736372,23.4045811,26.3816795,10.4198475
730,19.6126022,1.1970947,19.6126022,162.4198456,-112.6488571,-250.1374054,0.1484398,2.1858950,9.9981356,18.9389305,26.0076332,13.9694653
740,17.6547527,-0.4165890,19.6126022,250.1297760,-157.6717529,-250.1374054,0.1867468,2.2313845,10.1154509,15.8702288,25.5496178,16.5114498
750,9.8951855,-0.8259954,15.7609491,250.1297760,-170.0686951,-250.1374054,0.4548960,2.1523764,10.0891142,12.6641226,23.6412220,19.0687027
760,4.5800843,-0.0263361,12.0092545,250.1297760,-138.3282471,-250.1374054,0.6033357,2.1691356,9.9909525,9.1297712,18.1068707,23.5114498
770,1.5849534,0.6775556,7.4986014,250.1297760,-73.7938919,-250.1374054,1.0917504,2.1020982,9.6006994,5.8549619,18.9465656,27.6793900
780,-0.6344602,1.1875180,3.4667864,250.1297760,-6.0916033,-250.1374054,1.4652439,1.9536586,9.7395630,2.0687022,18.9541988,31.8854961
790,-2.6838863,1.1468167,-0.8786675,250.1297760,42.2595406,-250.1374054,1.7693061,1.7190280,9.8784256,-2.7786260,19.4274807,35.9771004
800,-4.1970143,1.0390782,-4.0964580,250.1297760,69.9160309,-250.1374054,2.0925217,1.7262106,10.3524752,-7.5419846,23.7404575,39.0610695
810,-7.2256637,0.8499373,-7.0030041,250.1297760,74.9542007,-250.1374054,2.5115047,1.3718705,10.7523050,-9.0763359,31.7175579,42.7938919
820,-12.9501705,1.4700323,-10.5679522,250.1297760,40.0076332,-250.1374054,3.0908985,1.1516051,11.0539722,-8.9465647,44.4580154,47.3053436
830,-18.4711723,3.2441268,-13.9174232,241.0152740,-21.3358784,-218.1145020,3.5050933,0.9050036,11.6597023,-7.4503818,58.4732819,49.6641235
840,-19.6131992,5.4563580,-16.7976341,193.2061005,-47.3358765,-133.1297760,3.8139439,0.3806761,12.1864243,-3.6564887,69.6030502,49.6870232
850,-19.6131992,7.0963774,-19.5030670,110.4427490,-23.2748089,-45.0916023,4.3263001,-0.0814024,12.3372583,2.6641221,74.8625946,48.2824440
860,-19.6131992,8.0756006,-19.6131992,-1.1374046,42.0687027,36.6335869,4.9080882,-0.2418131,12.2558556,7.0839696,78.8854980,42.5725174
870,-19.6131992,7.8625183,-19.6131992,-115.9465637,108.5343475,113.7786255,5.1642666,-0.2202654,12.6317434,10.7328243,85.8320618,36.3664131
880,-18.7967815,7.2352405,-15.5718079,-204.4274750,140.9541931,185.0152740,5.2336984,-0.3232156,12.7442703,17.3511448,94.4045792,30.3816795
890,-16.5414543,6.3326311,-11.9278517,-250.1374054,147.9389343,246.1374054,5.1929970,-0.4932030,12.8352499,26.8091602,103.7175598,24.6030540
900,-13.4170380,4.8625989,-9.7802639,-250.1374054,142.0229034,250.1297760,4.9847026,-0.5841822,12.5862541,37.1984749,108.6183243,18.1603050
910,-9.5695753,3.2489152,-7.6685886,-250.1374054,138.0000000,250.1297760,4.8003497,-0.5051740,12.0044661,45.8396950,110.8625946,11.8396950
920,-6.4188218,1.5873476,-5.5257893,-250.1374054,148.8320618,250.1297760,4.1802549,-0.2513899,11.3604288,49.8778610,105.6717529,4.9923663
930,-3.4476328,0.0191535,-3.0597742,-250.1374054,175.1679382,250.1297760,3.6966286,0.1508339,10.8935623,46.9236641,87.6106873,-1.6259542
940,-0.9744351,-1.7333932,-0.4022238,-250.1374054,200.1526642,250.1297760,3.4596038,0.4453192,10.3716288,40.3282433,61.1755714,-10.4503813
950,1.3790531,-3.1387823,2.0829449,-250.1374054,211.3435059,250.1297760,3.3063757,0.6536137,10.0196829,31.5954189,33.7938919,-20.8549614
960,4.9751258,-4.0964580,6.9910331,-250.1374054,182.3358765,250.1297760,2.7605004,0.9241571,9.8760319,21.3587780,5.4885497,-32.4732819
970,10.5344334,-3.2441268,15.4137917,-250.1374054,96.5801544,250.1297760,2.0111191,1.2665262,9.8832140,11.0687027,-22.2900772,-41.9923668
980,16.7689037,-0.8786675,19.6126022,-250.1374054,-17.9618320,214.7709961,1.3191984,1.5538290,9.9478569,3.7709923,-50.3969460,-49.5725174
990,19.6126022,1.4197544,19.6126022,-150.2748108,-111.4961853,108.3053436,1.0103480,1.6160779,10.0196829,-0.4961832,-71.3129807,-53.3969460
1000,19.6126022,3.0741394,19.6126022,12.9847326,-151.0000000,0.9083970,0.9050036,1.8195840,10.0555954,-0.3358779,-78.4961853,-57.3053436
1010,19.6126022,3.1818779,19.6126022,143.6641235,-159.9694672,-95.3129807,0.6177009,2.0063307,10.1130562,5.0229006,-73.4656525,-59.6183205
1020,16.9987450,2.6072724,19.6126022,234.5343475,-172.2061005,-176.2671814,0.2777260,2.1332228,9.8592720,15.0076332,-61.3740463,-60.0228996
1030,12.9286232,1.7860653,16.0745888,250.1297760,-199.8244324,-238.0839691,-0.1867468,2.3439114,8.9087791,22.8167934,-42.8396950,-58.9541969
1040,8.7794924,1.6160779,12.3300753,250.1297760,-223.1526642,-250.1374054,-0.7254394,2.6455793,7.9319496,26.8473282,-23.3282452,-55.7328262
1050,4.9607606,1.9368993,9.0141230,250.1297760,-229.5572510,-250.1374054,-1.2952565,3.0358322,7.4028339,26.1450386,-8.3129768,-52.2290077
1060,2.4851687,2.6695213,5.6957769,250.1297760,-212.3129730,-250.1374054,-1.9847831,3.2417326,6.9000540,20.9541988,-0.7633588,-47.2824440
1070,1.4413021,3.4859397,2.4301023,250.1297760,-163.6106873,-250.1374054,-2.4947455,3.3015873,6.8354111,11.7022905,-0.6488550,-41.6488533
1080,0.7900825,4.1515245,-0.9600700,250.1297760,-98.5954208,-250.1374054,-2.8873925,3.3566537,6.8617468,-0.4809160,-7.9160304,-34.9007645
1090,-0.1963235,4.6279683,-3.4093258,250.1297760,-41.1297722,-250.1374054,-2.7221935,3.1148405,7.0963774,-14.3053436,-23.4427490,-28.3435116
1100,-1.2880739,4.8195033,-5.6000090,250.1297760,0.4045801,-250.1374054,-2.2720859,2.8658447,7.7619624,-27.4045811,-38.8015251,-25.8473282
1110,-4.0725164,4.6997938,-7.7619624,236.5343475,30.1450386,-250.1374054,-1.8483143,2.6862805,8.6406298,-35.7938919,-50.7709923,-25.5114498
1120,-7.7021074,5.3605900,-9.7874460,207.9389343,33.6870232,-247.6946564,-1.6998745,2.4731977,9.3397331,-39.0000000,-60.0610695,-25.7175579
1130,-10.9246864,6.1434903,-11.4418316,176.3511505,14.6870232,-209.2824402,-1.4676381,2.2505381,9.7084379,-38.2366409,-66.0457993,-25.8702297
1140,-13.3667593,7.0868006,-13.3787308,134.4961853,-13.6641226,-159.0076294,-1.4580613,1.9919657,9.7922344,-36.5190849,-68.8244247,-26.0229015
1150,-14.3004932,8.0875721,-14.5231533,76.2900772,-26.0687027,-102.6946564,-1.4053892,1.9105632,9.7970228,-35.3587799,-68.7786255,-25.4961834
1160,-14.1616306,8.6645718,-14.6739874,4.2748094,-0.2366412,-44.3664131,-1.6567791,1.8363433,10.1681223,-33.7480927,-66.7480927,-24.1297703
1170,-13.4529505,8.3964224,-13.4601336,-65.0687027,42.8549614,9.6259546,-3.4189026,1.9297167,11.7482872,-43.0687027,-129.4427490,-22.2977104
1180,-11.8991213,8.2719250,-11.3173332,-118.6488571,76.6717529,57.8549614,-3.7732425,2.1667414,13.0555153,-50.5419846,-170.0839691,-19.3282452
1190,-10.6134415,8.2360115,-9.5576038,-157.7633514,99.6259537,98.7557220,-2.5330524,0.8858501,12.7466650,-46.6564903,-187.4961853,-13.1679392
1200,-9.9047613,7.9511032,-7.8601241,-187.7251892,116.0000000,134.9160309,-1.2784972,1.2689204,12.4617558,-38.3511467,-194.6488495,-10.1068707
1210,-9.2008705,7.4674768,-6.2895355,-211.4274750,121.7862625,172.5114441,-0.5219333,0.8786675,11.5878773,-28.2137413,-192.1450348,-8.7022905
1220,-8.0037756,6.8545642,-5.0661049,-229.9541931,116.1832047,209.6870270,0.2920911,0.5243275,10.4985209,-21.1526718,-174.7328186,-6.0687022
1230,-6.2320752,6.3182659,-4.1060348,-245.8244324,112.8549652,242.6870270,0.5506636,0.6703730,9.4762020,-19.4580154,-129.5190887,-0.7175573
1240,-4.4819226,5.3917146,-3.1315999,-250.1374054,119.2061081,250.1297760,0.2274480,1.6017127,9.8018112,-44.3587799,-41.5877876,15.6946564
1250,-2.7605004,4.0413918,-2.2242019,-250.1374054,139.5648804,250.1297760,1.1707586,2.7485294,13.8958759,-78.9770966,-15.0152674,35.9160309
1260,-1.3072275,2.5426292,-0.7254394,-250.1374054,168.6030579,250.1297760,2.7509236,1.1180865,15.4568872,-58.2137413,-23.4427490,30.4198475
1270,-0.0263361,1.4436963,1.4772149,-250.1374054,193.6259613,250.1297760,2.1020982,-0.4884146,14.8152447,-17.1908398,-11.9389315,25.3664131
1280,1.5705882,0.6919208,4.0892754,-250.1374054,206.6564941,250.1297760,2.0853391,-0.9121862,12.8735571,23.1832066,-13.3664122,25.4198475
1290,3.7708483,-0.1340746,7.5393028,-250.1374054,190.3969421,250.1297760,2.7245877,0.2178712,10.5033092,40.5343513,-8.3129768,28.4198475
1300,7.6877422,0.2154770,12.4617558,-250.1374054,130.4503784,250.1297760,3.6104376,1.1444225,8.7794924,28.9541988,1.8625954,28.9847336
1310,13.4768925,1.9368993,19.5605278,-216.4961853,22.9618320,232.5267181,3.8235207,1.4413021,7.9295554,5.7786260,1.6564885,25.6870232
1320,18.4831429,3.7373297,19.6126022,-97.6793900,-98.4809189,142.8931274,4.7213416,0.3639168,6.9910331,-11.7251911,9.2213745,18.7557259
1330,19.6126022,4.8266859,19.6126022,50.2595406,-191.2519073,35.0305328,3.9695661,0.3950413,7.8098459,-23.1297703,15.0152674,9.6564884
1340,19.6126022,5.4443870,19.6126022,181.5496216,-226.3129730,-69.6717529,3.2153964,0.5722113,8.4036045,-34.7480927,3.6870229,5.1145039
1350,19.6126022,5.2887645,15.4161863,250.1297760,-229.9923706,-161.9923706,3.0214672,0.6967092,9.0213060,-46.4351158,-13.4351149,4.8702292
1360,16.4432926,4.7285242,9.9310980,250.1297760,-226.3206177,-238.7404633,3.1579359,0.7924767,9.9215212,-54.8396950,-24.9618320,3.8625953
1370,12.1864243,4.3071470,6.5457139,250.1297760,-215.7557220,-250.1374054,3.0071020,0.7613522,11.1976242,-54.9007645,-25.2671757,1.7251909
1380,7.7092900,4.1946201,3.1076579,250.1297760,-196.1908417,-250.1374054,2.6886747,0.5315101,11.9853125,-48.6870232,-20.8854961,1.8702290
1390,3.5434003,4.1611013,0.5123565,250.1297760,-167.5725250,-250.1374054,2.5450234,0.3160330,12.5958309,-37.2137413,-16.3969460,3.8091602
1400,0.3375807,4.8673873,-1.8052188,250.1297760,-156.0839691,-250.1374054,2.6551561,0.3184272,12.7873659,-23.3129768,-12.8778629,5.4274807
1410,-1.3048333,5.7053533,-4.3047528,250.1297760,-135.1450348,-250.1374054,2.6503677,0.3064562,12.6461086,-10.6488552,-11.4656487,5.3664122
1420,-2.7940190,5.3414369,-6.1698260,230.5877838,-87.3511429,-250.1374054,3.0956869,0.2657550,12.0595322,0.1526718,-10.4122133,4.8625956
1430,-5.3869262,5.5784616,-8.4395180,192.8702240,-46.3435097,-250.1374054,3.0908985,0.1843526,11.5184450,7.5038166,-11.2748089,2.4427481
1440,-8.0372944,6.0812411,-10.6038647,152.2442780,-23.9694653,-250.1374054,3.0908985,0.1891410,10.6661139,10.2824430,-13.1068707,-1.8396946
1450,-11.3029680,6.9407554,-12.8328552,105.8625946,-30.1297703,-217.9923706,2.8466914,0.4189832,10.0196829,9.8320608,-9.3893127,-5.1755724
1460,-14.0443153,7.5680327,-14.0898046,52.5648842,-55.5419846,-160.7480927,2.5833304,0.6440369,9.5839405,6.9236641,-4.6335878,-5.6946564
1470,-14.4704809,8.1402445,-14.2885227,-6.9083967,-62.5419846,-95.3435135,2.4851687,0.7613522,9.5815458,2.0992367,-6.3816795,-4.2061067
1480,-14.1209297,8.4969788,-13.6684275,-68.3969498,-35.6183205,-31.4809170,2.6431851,0.7062859,9.6892843,-3.6488550,-11.7480917,-4.1221375
1490,-13.9389706,8.6286592,-12.8591919,-130.0458069,9.3282442,34.1450386,2.7964132,0.6320660,10.0555954,-7.4656487,-11.6183205,-6.7557254
1500,-14.0491037,8.5400734,-11.9230633,-189.3587799,64.9083939,101.5572510,2.7772598,0.4955972,10.2614956,-8.7328243,-9.1145039,-7.7862597
1510,-13.4457684,7.9199786,-10.9653873,-246.6793823,108.3511429,167.4809113,2.7150109,0.4165890,10.6828737,-8.4809160,-6.9465647,-8.0458012
1520,-11.9493999,6.6462698,-9.8305416,-250.1374054,136.3358765,226.7251892,2.6934631,0.4141948,10.8576488,-6.6259542,-6.0916033,-8.1984730
1530,-10.3261395,4.6327567,-7.5512733,-250.1374054,166.0305328,250.1297760,2.7221935,0.3232156,10.8887739,-4.2061067,-5.7557254,-8.7022905
1540,-8.1426382,2.1547706,-4.4244623,-250.1374054,194.7404633,250.1297760,3.0142846,0.2442073,10.8313131,-0.7786260,-1.6488550,-9.5190840
1550,-5.7245069,-0.2896969,-1.3982066,-250.1374054,216.8702240,250.1297760,2.8514795,0.2705434,10.8097658,3.3511450,4.7480917,-9.5419846
1560,-2.7054341,-3.0358322,2.0661855,-250.1374054,234.3511505,250.1297760,2.7868366,0.3160330,10.6110477,5.0152674,5.6335878,-9.1374044
1570,0.8427547,-4.6351509,6.6151457,-250.1374054,225.5572510,250.1297760,2.7293761,0.4237715,10.5990763,5.1145039,2.9923663,-8.9847326
1580,6.2895355,-4.4100971,14.2334566,-250.1374054,164.9160309,250.1297760,2.7197993,0.4932030,10.4554253,5.2290077,2.0763359,-9.0381680
1590,14.4896345,-1.5658000,19.6126022,-250.1374054,47.8854980,250.1297760,2.6838863,0.5291159,10.3955708,5.7022901,1.7938931,-8.7709923
1600,19.6126022,1.1707586,19.6126022,-142.5267181,-86.5725174,151.9465637,2.6360025,0.5339043,10.2471304,5.5954199,0.8320611,-7.4732823
1610,19.6126022,3.6439564,19.6126022,54.3893127,-174.3587799,11.5572519,2.7102225,0.6967092,10.2088242,4.1679387,-0.1068702,-6.6717558
1620,19.6126022,3.2249732,19.6126022,203.2442780,-191.6946564,-116.6183243,2.7174051,0.7062859,10.1369982,1.5190840,0.1450382,-5.8320613
1630,19.6126022,1.8578910,19.6126022,250.1297760,-219.1068726,-223.2824402,2.7269819,0.5769997,10.1848822,0.4580153,-0.6030535,-5.5343513
1640,14.2741575,0.9337339,13.1033993,250.1297760,-250.1374054,-250.1374054,2.8586621,0.6847382,10.4458485,0.8015267,0.0992366,-6.6183205
1650,9.3421268,0.4309541,8.5281029,250.1297760,-250.1374054,-250.1374054,2.7820482,0.6823440,10.3548698,0.8015267,0.0076336,-7.1908398
1660,4.9894910,0.5889706,4.2999644,250.1297760,-248.8396912,-250.1374054,2.7652888,0.6991033,10.4362717,0.9694657,-1.1984733,-7.8931298
1670,1.7764885,1.2641320,1.0366840,250.1297760,-228.8015289,-250.1374054,2.7485294,0.6823440,10.3979645,0.8244275,-1.6564885,-9.7099237
1680,-0.2609667,1.8435259,-2.1906834,250.1297760,-186.0915985,-250.1374054,2.5522060,0.7062859,10.4554253,1.1908396,-1.8167939,-9.9389315
1690,-1.9464760,2.3582766,-4.6159973,250.1297760,-128.6717529,-250.1374054,2.3534882,0.7014975,10.3931761,0.7251908,-3.0076337,-10.8320608
1700,-4.7835903,2.3582766,-7.2711535,250.1297760,-69.0534363,-250.1374054,2.2074428,0.7972651,10.1034794,-1.0229008,-3.9694657,-9.8854961
1710,-9.6390066,2.6144550,-9.9406748,229.5877838,-37.4427490,-250.1374054,2.1140692,0.7254394,9.9789820,-3.3129771,-3.8091602,-9.5572519
1720,-16.2517586,3.6224086,-13.1321287,188.2061005,-45.1526718,-250.1374054,2.1164634,0.6153067,10.1034794,-5.2137403,-4.2595420,-7.9236641
1730,-19.6131992,6.0572991,-16.1344433,132.6793823,-70.1450348,-175.0458069,2.0829449,0.5602403,10.2064295,-6.8854961,-4.2442746,-6.5419846
1740,-19.6131992,8.0540533,-19.1511211,48.2824440,-47.4274826,-71.3282471,2.1332228,0.5243275,10.2614956,-9.1145039,-4.3129773,-4.5038166
1750,-19.6131992,8.4706421,-19.6131992,-65.9694672,31.0992374,26.3511448,2.1571648,0.3040621,10.4051476,-9.6870232,-5.0687022,-3.8396947
1760,-19.6131992,8.2958660,-18.9212799,-180.7099304,114.2366409,117.8167953,2.3127871,0.3112446,10.5224628,-10.3893127,-4.8625956,-3.2671757
1770,-19.2660427,6.8401995,-15.0091734,-250.1374054,191.9389343,203.6183167,2.3439114,0.2154770,10.5392218,-10.1068707,-5.0000000,-3.0000000
1780,-17.3866043,5.0086441,-11.0108776,-250.1374054,235.1145020,250.1297760,2.4875629,0.2274480,10.7594872,-9.3053436,-5.2213740,-3.4809160
1790,-14.6045561,3.0382264,-6.7611909,-250.1374054,245.1450348,250.1297760,2.4923513,0.1843526,10.7331514,-7.7557254,-6.2137403,-4.6793895
1800,-10.3117743,1.1085097,-2.6695213,-250.1374054,238.0152740,250.1297760,2.4995339,0.2944853,10.7187862,-6.0534353,-5.6564884,-4.9923663
1810,-6.1650376,-0.5051740,-0.3064562,-250.1374054,234.0839691,250.1297760,2.5234756,0.2801202,10.6565371,-4.8396945,-4.3129773,-5.4580154
1820,-1.4149660,-2.3750360,1.1516051,-250.1374054,245.0305328,250.1297760,2.4564383,0.2968795,10.7930059,-2.8091602,-4.2442746,-5.2137403
1830,3.3901722,-3.5170643,3.1914546,-250.1374054,242.1374054,250.1297760,2.2744799,0.2920911,10.7762470,-1.0458015,-3.9618320,-4.4198475
1840,10.3117743,-3.3015873,9.1122847,-250.1374054,171.0839691,250.1297760,2.3319404,0.2992737,10.6900558,0.8778626,-2.6564887,-2.5267177
1850,19.4049053,-0.7086801,18.3418846,-250.1374054,19.8015270,242.5648804,2.4516499,0.2968795,10.6302013,2.1908398,-1.0687023,-1.7099236
1860,19.6126022,3.2752512,19.6126022,-197.4274750,-153.9160309,86.1450348,2.5761478,0.2561783,10.5607700,3.0916030,0.9770992,-1.7786260
1870,19.6126022,4.8242917,19.6126022,-18.0152664,-250.1374054,-74.9694672,2.5593886,0.2561783,10.5033092,3.2977099,0.9618320,-1.9083970
1880,19.6126022,3.4715748,19.6126022,129.1908417,-250.1374054,-212.2748108,2.4851687,0.2681492,10.4482431,2.9770992,0.3358779,-2.6717558
1890,19.6126022,1.9033806,19.6126022,220.1984711,-250.1374054,-250.1374054,2.6000898,0.2370248,10.4745789,2.7328243,-0.5801527,-3.4656489
1900,14.3172531,0.3902529,16.0195217,250.1297760,-250.1374054,-250.1374054,2.5402350,0.2801202,10.3333216,2.4122138,-1.4656489,-4.0916033
1910,8.2910776,0.0071826,12.7945480,250.1297760,-250.1374054,-250.1374054,2.4803803,0.3974355,10.2854376,1.8091604,-3.3816793,-3.8931298
1920,3.8235207,0.2130829,8.8489246,250.1297760,-240.3740387,-250.1374054,2.4612267,0.4884146,10.3165627,0.7251908,-3.4274809,-3.4809160
1930,0.7134684,0.8068419,4.6734576,250.1297760,-214.9847260,-250.1374054,2.4205256,0.5530578,10.3357162,0.6564885,-3.0763359,-2.8854961
1940,-1.4365137,1.4700323,-0.0478838,250.1297760,-160.8396912,-250.1374054,2.5450234,0.6584021,10.5775290,0.6870229,-3.3893130,-1.7404580
1950,-3.1196289,1.5250987,-3.3063757,250.1297760,-90.2748108,-250.1374054,2.7341642,0.6871324,10.6349897,1.2061069,-3.3511450,-1.1984733
1960,-6.8545642,1.1875180,-6.0716643,247.1221313,-45.6564903,-250.1374054,2.8849983,0.7374104,10.6900558,2.1832061,-2.3358779,-2.0992367
1970,-12.1313581,1.4652439,-8.6047173,214.1679382,-40.3740463,-250.1374054,2.8371146,0.8259954,10.4626083,3.0534351,-1.8015267,-2.8549619
1980,-19.0026817,2.7461352,-11.8129311,178.1679382,-53.9160309,-250.1374054,2.8466914,0.7326220,10.3045912,3.3511450,-1.1145039,-3.9694657
1990,-19.6131992,4.8242917,-15.6077213,125.6412201,-63.6030540,-187.1526642,2.7054341,0.8882443,10.3428984,3.0610688,-0.1603053,-4.7862597
2000,-19.6131992,6.3541789,-18.9284611,39.6641235,-30.9007626,-72.6717529,2.7772598,0.7398046,10.2998028,2.8549619,-0.7328244,-5.0381680
2010,-19.6131992,7.1538382,-19.6131992,-77.2900772,49.7709923,35.4427490,2.7341642,0.8068419,10.2399483,1.3282443,-0.4427481,-5.9694657
2020,-19.6131992,6.8952656,-17.5446205,-196.1755676,126.7709961,132.7404633,2.6072724,0.6416427,10.1106625,-0.3511450,-1.5877863,-6.7862597
2030,-19.6131992,5.8178802,-12.7730007,-250.1374054,177.6641235,223.1908417,2.5258698,0.4908088,10.3835993,-1.0839695,-1.2290076,-8.1679392
2040,-19.6131992,4.1515245,-9.0763721,-250.1374054,197.4809113,250.1297760,2.3510940,0.5913648,10.3572636,-1.7251909,-1.2137405,-8.7022905
2050,-15.6603928,1.9943599,-5.4108682,-250.1374054,185.2366486,250.1297760,2.3343346,0.4429250,10.4769726,-2.2595420,-1.3206106,-8.4274807
2060,-10.8576488,0.1149211,-2.6814921,-250.1374054,168.0610657,250.1297760,2.2218077,0.4118006,10.5751352,-2.3816793,-1.5114504,-8.6870232
2070,-5.7245069,-1.4748207,-0.7493813,-250.1374054,157.0610657,250.1297760,2.0829449,0.2753318,10.4458485,-2.3816793,-2.7328243,-8.5343513
2080,0.6177009,-3.3183465,0.6847382,-250.1374054,157.8320618,250.1297760,2.0949159,0.2777260,10.4266949,-2.2977099,-3.4198472,-7.4656487
2090,7.6422529,-4.3550305,3.5769191,-250.1374054,143.1450348,250.1297760,2.0470319,0.2226596,10.3716288,-2.7480917,-2.7251909,-6.3969464
2100,16.0219154,-3.5170643,9.9670105,-250.1374054,68.8702316,250.1297760,2.0470319,0.0885850,10.5009146,-3.5343511,-2.9694657,-4.8854961
2110,19.6126022,0.5961532,19.6126022,-250.1374054,-45.2519073,227.9694672,2.0302727,0.0766141,10.5080976,-3.7404580,-3.5648854,-4.5114503
2120,19.6126022,3.7421181,19.6126022,-199.6717529,-127.7633591,57.0916023,2.0494261,0.0478838,10.6589317,-3.5038168,-4.5954199,-3.2977099
2130,19.6126022,4.1634955,19.6126022,-40.3435097,-134.4503784,-114.5877838,2.0925217,0.0861908,10.7163916,-2.6335878,-5.6793895,-2.2061069
2140,19.6126022,2.2649033,19.6126022,108.7251892,-110.9007645,-247.0534363,2.2553265,0.1221037,10.7116032,-1.4045801,-5.7709923,-1.1526718
2150,16.8072090,-0.0790083,19.6126022,237.9084015,-122.5801544,-250.1374054,2.3127871,0.1651991,10.7163916,-0.1068702,-4.9694657,-1.0305344
2160,9.5384512,-1.5442522,18.9787407,250.1297760,-158.0381622,-250.1374054,2.5091105,0.1628049,10.7020273,1.1908396,-3.9007633,-0.5725191
2170,5.4683285,-1.6855093,14.0060081,250.1297760,-190.9313049,-250.1374054,2.5593886,0.3040621,10.6373835,2.1297710,-4.6106873,-0.8015267
2180,1.9895715,-1.5107336,8.4012108,250.1297760,-201.7404633,-250.1374054,2.5953014,0.4094064,10.5080976,2.5954199,-4.5725193,-1.5190840
2190,-0.7685348,-1.6974803,3.2106080,250.1297760,-179.4427490,-250.1374054,2.7461352,0.4165890,10.5296450,2.7938931,-3.9694657,-2.3435113
2200,-3.9049230,-1.9776005,-1.6041069,250.1297760,-138.7404633,-250.1374054,2.7197993,0.5985473,10.2303715,2.3206108,-4.1984735,-2.8473282
2210,-8.1306677,-1.6902977,-6.1363077,250.1297760,-88.1526718,-250.1374054,2.8251436,0.6871324,10.1920643,1.5190840,-4.0763359,-3.1755726
2220,-14.1065645,-0.5554519,-10.0029240,250.1297760,-58.4809151,-250.1374054,2.7964132,0.7374104,10.1226330,0.0687023,-3.2595420,-4.2290077
2230,-19.6131992,1.6424140,-14.2909164,250.1297760,-66.0000000,-250.1374054,2.8155668,0.7781116,10.0867205,-1.4503816,-3.8625953,-5.1679387
2240,-19.6131992,4.3502421,-18.6100349,179.9389343,-76.9389343,-181.1221313,2.7006457,0.9193687,10.1034794,-4.3358779,-4.1145039,-5.8778625
2250,-19.6131992,5.8753409,-19.6131992,75.0839691,-41.4427490,-55.8625946,2.6814921,0.7876883,10.3045912,-5.3435116,-5.2748094,-6.2977099
2260,-19.6131992,6.9527264,-19.6131992,-53.1908379,35.6488533,58.4656487,2.6072724,0.7685348,10.4171181,-4.8931298,-5.0381680,-6.9770994
2270,-19.6131992,6.4188218,-18.3897686,-175.8702240,113.0000000,156.9923706,2.5210814,0.7230452,10.4338779,-4.4503818,-5.7251906,-6.2824426
2280,-19.6131992,5.2241216,-13.8839045,-250.1374054,157.0381622,242.9847260,2.5857246,0.6991033,10.5272512,-4.4885497,-5.2213740,-7.2519083
2290,-17.8989601,3.9097114,-9.9143381,-250.1374054,161.3358765,250.1297760,2.4923513,0.6631905,10.5320396,-4.5725193,-4.0610685,-7.7938933
2300,-14.2621870,2.3582766,-7.0341287,-250.1374054,147.3129730,250.1297760,2.5354466,0.4668669,10.7139978,-3.3206108,-2.8625953,-8.1526718
2310,-10.0675669,0.3950413,-4.7021880,-250.1374054,134.3435059,250.1297760,2.5426292,0.3926471,10.8313131,-1.5725191,-1.8931298,-8.1755724
2320,-5.7173243,-1.9345051,-2.8179610,-250.1374054,128.2977142,250.1297760,2.4875629,0.2920911,10.8097658,0.7709923,-0.3740458,-8.0458012
2330,-0.8116302,-4.3382711,-0.3136388,-250.1374054,130.1221313,250.1297760,2.4324965,0.1843526,11.2048063,2.4961832,3.6183207,-7.2824426
2340,5.0445571,-5.9998388,4.3406653,-250.1374054,107.5725174,250.1297760,2.4564383,0.1292862,11.6477318,6.8931298,9.8015270,-7.0305343
2350,13.9940376,-5.1331420,13.2015610,-250.1374054,27.2671757,250.1297760,2.4564383,-0.0383070,11.8177195,13.8015270,15.2748089,-5.9618320
2360,19.6126022,-0.2585725,19.6126022,-250.1374054,-76.9923630,250.1297760,2.4229198,-0.2011119,11.8440552,21.5954189,19.7251911,-6.3129773
2370,19.6126022,3.9575951,19.6126022,-152.8396912,-116.8549652,93.1374054,2.2936335,-0.1101327,11.4370432,27.2671757,22.3358784,-7.3740458
2380,19.6126022,4.5896611,19.6126022,-0.8320611,-88.0305328,-77.3816757,2.0901275,0.0407012,10.7499104,29.6641216,22.0916023,-8.2442751
2390,19.6126022,2.5833304,19.6126022,135.5419922,-83.3129807,-212.4198456,2.0063307,0.0957676,10.2734671,29.4122143,19.9083977,-9.1832066
2400,19.4934902,0.8714849,19.6126022,250.1297760,-112.9160309,-250.1374054,1.8171898,0.1939293,9.9813757,27.1832066,15.3816795,-8.2748089
2410,12.1050215,-0.2753318,16.2780933,250.1297760,-140.1221313,-250.1374054,1.8028246,0.3950413,9.8688488,24.2671757,11.8320608,-6.9236641
2420,6.4571290,0.0239419,10.4171181,250.1297760,-156.5801544,-250.1374054,1.7190280,0.6129125,9.9071560,20.2366409,9.3893127,-7.1145039
2430,2.9664006,0.3088504,5.6981707,250.1297760,-142.3587799,-250.1374054,1.4053892,0.6823440,10.2423429,16.7709923,8.4274807,-5.7786260
2440,0.5769997,0.7086801,1.0055596,250.1297760,-98.5038147,-250.1374054,1.2114599,0.7541697,11.4154949,17.2213745,12.6793890,-2.9312978
2450,-1.3383518,0.6703730,-2.5450234,250.1297760,-36.1068687,-250.1374054,1.3000449,0.7302278,13.7163115,29.2290077,27.2290077,2.8244274
2460,-4.8793583,0.4979914,-5.1953912,250.1297760,11.6183205,-250.1374054,1.5993185,0.6416427,15.4999828,54.1374054,48.7404594,6.9694657
2470,-11.6357603,0.5961532,-8.8058290,250.1297760,15.4503813,-250.1374054,1.8626794,0.2777260,16.2852764,82.9694672,74.2290039,8.4274807
2480,-18.5477848,2.0518203,-12.2917690,226.4656525,-25.2519093,-250.1374054,1.5969244,0.0454896,16.8670654,115.7251892,95.5725174,11.2290077
2490,-19.6131992,4.5776901,-15.8471403,178.0381622,-99.6641235,-214.2061005,2.1284344,-0.1388630,15.9405136,149.8015289,109.0305328,13.0610685
2500,-19.6131992,6.6869712,-19.1032372,98.4427490,-112.5038147,-105.4427490,2.7197993,0.0646431,14.3100700,177.5801544,127.8931274,11.7557249
2510,-19.6131992,7.2424231,-19.6131992,-12.9770994,-33.8396950,2.0458016,2.8442972,0.4070122,12.4306316,192.6946564,144.7328186,7.9770994
2520,-19.6131992,6.7348547,-18.4568062,-134.1450348,46.3511467,99.4885483,2.2122312,1.0271072,10.7523050,194.8625946,151.2137451,4.8167939
2530,-19.6131992,5.8849177,-14.8583393,-239.2595367,94.0000000,183.3129730,1.8890154,1.3886299,9.5456333,188.8244324,143.0915985,4.1068702
2540,-18.8015690,4.7811961,-10.1393919,-250.1374054,105.5877838,249.6259613,1.7190280,1.6879035,8.6214762,178.1984711,135.0610657,3.7862597
2550,-15.9860029,3.3782012,-6.1722202,-250.1374054,83.7557220,250.1297760,1.7956421,2.3151813,7.7092900,164.3969421,129.9084015,1.8015267
2560,-12.5000629,1.7621235,-3.7085996,-250.1374054,41.5114517,250.1297760,3.0765336,3.2776453,7.1035600,141.7480927,156.0381622,-10.0381680
2570,-8.8082228,-0.2322364,-1.7812769,-250.1374054,-6.5114503,250.1297760,1.7860653,3.4500270,7.7140784,127.0916061,178.3282471,-26.1526718
2580,-3.5960727,-2.5953014,0.8666966,-250.1374054,-47.1984749,250.1297760,-0.1173153,3.2082138,8.1737623,121.6106873,170.7099304,-22.7709923
2590,3.4787574,-3.9671719,5.3222833,-250.1374054,-86.0229034,250.1297760,-0.5674229,3.5625539,8.6717539,116.4656525,176.7862549,-13.7175570
2600,12.3013458,-3.4069316,10.9342632,-250.1374054,-143.2366486,250.1297760,-0.8236012,3.8330972,9.4498653,112.9694672,193.2977142,-2.9618320
2610,19.6126022,1.0845678,19.6126022,-242.1679382,-214.7328186,250.1297760,-1.2234308,4.1874375,9.6557665,110.6412201,202.0229034,3.2290077
2620,19.6126022,5.6047974,19.6126022,-140.9847260,-211.0686951,142.4351196,-1.6065011,4.2568688,9.3349447,111.4274826,183.4809113,2.8702290
2630,19.6126022,7.5752153,19.6126022,-40.7480927,-153.9847260,-32.0992355,-1.8411317,4.1682839,9.1481981,114.5190811,150.6641235,-0.4427481
2640,19.6126022,6.0884237,19.6126022,53.7786255,-129.9007568,-195.5954132,-1.8794388,4.4531922,8.7435799,115.4274826,123.6793900,-3.1374047
2650,19.6126022,4.0940638,14.5159702,132.4961853,-137.1679382,-250.1374054,-1.8866212,4.6734576,8.5113440,115.1221390,104.7557220,-5.3664122
2660,16.8742466,2.3726418,9.5911226,188.9160309,-117.4961853,-250.1374054,-1.4197544,4.6710634,8.1785507,113.9007645,92.5648880,-9.0000000
2670,9.3229742,1.5634058,5.8298512,216.5343475,-95.8396912,-250.1374054,-0.7709290,4.8697815,8.0301113,112.9694672,89.9923630,-15.2977095
2680,4.2113791,1.1516051,2.8706331,214.0915985,-78.8320618,-250.1374054,-0.3950413,4.9918852,7.7595682,112.5496216,92.0916061,-25.6259537
2690,3.0741394,0.8475431,0.5219333,188.4885559,-64.8244247,-250.1374054,-0.1819584,4.8602047,7.1562324,111.4351120,81.1984711,-41.7862587
2700,-5.2552457,0.5841822,1.0103480,155.7938995,-74.0229034,-250.1374054,-0.2394189,4.7572546,6.4595232,107.5190811,63.4809151,-62.6412201
2710,-11.1090393,-1.5370697,-0.7469871,142.0686951,-74.2061081,-250.1374054,-0.0311245,5.1115947,6.0357518,98.2595444,44.3358765,-84.5954208
2720,-18.3466740,0.0454896,-0.8690908,135.6793823,-96.6641235,-250.1374054,0.4189832,5.2432747,5.8777351,82.0076370,28.5038166,-108.6488571
2730,-19.6131992,2.2361729,-2.2098370,127.0457993,-142.7328186,-250.1374054,0.8236012,5.1283536,5.9471664,63.7938919,20.0458012,-134.5648804
2740,-19.6131992,4.1323709,-3.6583214,107.6870193,-149.7786255,-230.1603088,0.2489957,4.6255741,6.3493905,49.1297722,11.0076332,-161.0458069
2750,-19.6131992,5.0948353,-4.7931671,67.8778610,-103.9083939,-97.4122162,-0.6440369,4.3550305,6.7635851,38.8931313,-1.4198474,-183.6717529
2760,-19.6131992,5.0637107,-5.2815819,11.3282442,-29.2748089,53.4503822,-1.4413021,3.8378856,6.7276726,33.4503822,2.8320611,-198.3206177
2770,-19.6131992,4.1275826,-4.6423335,-55.1297722,28.1297703,207.1221313,-2.2265961,3.4476328,6.5337429,29.5419846,25.3664131,-206.9770966
2780,-19.6131992,3.0023136,-3.6080434,-117.0610657,65.5343475,250.1297760,-3.4069316,3.2034254,6.5720501,25.3969460,50.1755714,-213.6030579
2790,-17.9252968,1.9799947,-2.2361729,-162.3435059,80.6335907,250.1297760,-4.7381010,3.0765336,6.9958215,24.4580154,58.2213745,-220.0839691
2800,-12.5838594,1.0342898,-1.0606259,-188.8549652,82.1526718,250.1297760,-5.7460546,3.0549858,7.3429790,29.8167934,49.9618340,-225.8702240
2810,-7.5728211,-0.2489957,-0.4213773,-197.4503784,71.0229034,250.1297760,-6.5983863,3.1196289,6.5983863,36.1603050,23.3053436,-229.0839691
2820,-2.3295465,-1.9225341,0.7302278,-196.0839691,49.7862587,250.1297760,-7.4507174,3.3566537,5.3462253,33.8778610,-16.2137413,-230.7633514
2830,4.8625989,-3.3542595,2.1164634,-189.6259613,13.9389315,250.1297760,-7.9941988,3.7971845,3.9097114,13.9618320,-52.9465637,-233.6335907
2840,18.1718979,-1.3144100,5.2480631,-172.7480927,-25.7328243,250.1297760,-9.8425131,5.1546898,3.2728570,-21.4427490,-81.3053436,-216.7480927
2850,19.6126022,2.7150109,16.4361115,-110.1374054,28.0152664,250.1297760,-10.8720140,5.1451130,3.3853838,-62.0916023,-98.7709961,-184.3129730
2860,19.6126022,6.3110833,17.2070389,-54.6183205,-17.6870232,142.0000000,-10.8384953,5.2720051,4.3550305,-96.4122162,-118.4274826,-153.5267181
2870,19.6126022,5.2504573,18.4927197,35.6870232,-22.2442741,-82.0457993,-10.6230183,5.5593081,5.3845320,-120.7099228,-141.1679382,-123.0457993
2880,19.6126022,2.6743097,16.1631737,123.9236679,-89.2213745,-250.1374054,-9.6629486,4.9631548,5.9902620,-137.9694672,-172.6793823,-92.0152664
2890,19.6126022,0.1101327,10.9151096,190.7786255,-161.7404633,-250.1374054,-7.4243813,3.9911139,6.2272868,-148.6793823,-194.1679382,-67.4961853
2900,12.2797976,-0.9816177,6.1794028,216.3053436,-200.3816833,-250.1374054,-5.1858144,3.0501974,6.2943239,-154.0915985,-193.2213745,-54.9312973
2910,4.8673873,-1.0893562,2.6862805,208.9084015,-202.7175598,-250.1374054,-3.2967989,2.2720859,6.6007805,-157.0763397,-186.8549652,-53.3129768
2920,-1.6160779,-0.9720409,0.6009415,176.1297760,-196.5496216,-250.1374054,-2.5498118,1.7238164,7.0820122,-156.6488495,-185.7786255,-57.8931313
2930,-8.4826136,-0.7182568,0.4141948,136.3358765,-174.6717529,-250.1374054,-2.1978660,1.4676381,7.3334022,-154.0000000,-183.4274750,-65.5496216
2940,-16.6779232,0.4979914,0.9361281,119.5877838,-124.9083939,-250.1374054,-2.6407909,1.4556671,7.7236552,-151.3129730,-185.3053436,-74.4885483
2950,-19.6131992,2.1906834,-0.3591284,107.3206100,-84.3435135,-250.1374054,-3.3207407,1.4604555,8.1139078,-148.9770966,-196.9236603,-78.9542007
2960,-19.6131992,4.2832050,-2.6288199,87.5877838,-25.7633591,-250.1374054,-3.3470769,1.5035510,8.0588417,-147.6488495,-212.9313049,-81.9083939
2970,-19.6131992,5.8274570,-4.1826491,47.9771004,45.0992355,-99.2824402,-4.1515245,0.3926471,8.3676920,-148.9313049,-219.0458069,-80.8854980
2980,-19.6131992,6.0381460,-4.2401094,-6.0839696,132.0610657,101.0000000,-4.5633249,0.1939293,9.1553802,-146.3206177,-224.7557220,-73.3511429
2990,-19.6131992,4.7716198,-4.6136031,-60.9541969,219.7709961,250.1297760,-5.2241216,0.1364688,9.7563219,-141.7709961,-226.9541931,-63.1832047
3000,-19.6131992,3.4332676,-4.1347651,-119.3358765,250.1297760,250.1297760,-5.3845320,-0.3064562,10.1346035,-133.3206177,-225.4503784,-48.0152664
3010,-19.6131992,1.8507085,-2.0973101,-175.0152740,250.1297760,250.1297760,-5.6431046,-0.4884146,10.7451220,-122.7328262,-214.8396912,-30.0610695
3020,-14.2047262,-0.8786675,-0.3112446,-216.5114441,250.1297760,250.1297760,-5.4587522,-0.4812321,11.5423870,-108.6564865,-193.0534363,-4.8778625
3030,-8.3676920,-2.6838863,1.0965388,-241.3816833,250.1297760,250.1297760,-5.0086441,-0.6105183,12.3133163,-90.3816757,-155.1221313,23.2595425
3040,-1.9943599,-4.9655490,1.3838415,-250.1374054,250.1297760,250.1297760,-4.5178356,-1.0534433,12.7394819,-67.7938919,-110.6335907,50.5190849
3050,8.8848372,-5.3965030,3.6104376,-250.1374054,191.1603088,250.1297760,-3.9839313,-1.4700323,13.5271702,-41.3816795,-66.5419846,75.8015289
3060,19.6126022,-2.8083842,8.5185261,-250.1374054,112.8244247,250.1297760,-3.2776453,-1.6735384,13.6540623,-14.7099237,-25.9923668,94.1297684
3070,19.6126022,0.3998296,17.6403885,-196.6335907,34.8625946,250.1297760,-2.6934631,-1.8411317,13.4721041,8.6793890,3.2137403,104.3206100
3080,19.6126022,2.5737536,19.6126022,-90.2595444,-38.5114517,-19.4503822,-2.4157372,-2.0470319,13.1273403,26.2748089,22.0305347,109.9465637
3090,19.6126022,1.1779412,19.6126022,15.5648851,-116.5725174,-250.1374054,-2.0254843,-1.9632354,12.6987810,39.6030540,32.5267181,115.1297684
3100,19.6126022,-0.9792235,17.8582592,100.8167953,-190.8854980,-250.1374054,-2.1978660,-2.1356170,12.7155399,48.4122124,16.0687027,117.4198456
3110,17.1328201,-2.1882892,14.0107965,166.6412201,-227.8091583,-250.1374054,-1.6807210,-2.0398495,12.8137016,45.1526718,-28.2290077,111.0763321
3120,8.8010406,-2.8802099,9.9119444,204.0305328,-209.2900696,-250.1374054,-0.8020535,-2.0590029,12.9238348,44.3053436,-56.8015251,102.7633591
3130,2.0206959,-3.1100521,6.8449879,224.9694672,-160.4427490,-250.1374054,-0.2849085,-2.0781565,12.7490587,51.1603050,-80.1755753,92.7251892
3140,-4.1204000,-2.7988074,4.1012464,236.2519073,-117.2290039,-250.1374054,0.2130829,-2.1595588,12.1553001,61.1755714,-92.7938919,83.0839691
3150,-9.7754755,-1.7860653,0.9576758,238.7404633,-94.7862625,-250.1374054,0.0167593,-1.9584470,12.2462788,70.6564865,-87.1221390,76.0000000
3160,-16.0027618,0.2561783,-2.4372849,229.6259613,-73.3206100,-250.1374054,-0.4453192,-1.5610116,12.2965574,82.1221390,-78.7022934,75.1145020
3170,-19.6131992,2.9424589,-5.6742291,201.3282471,-63.4274826,-250.1374054,-0.8068419,-1.3790531,12.1960011,97.0000000,-76.6946564,79.1068726
3180,-19.6131992,5.7364779,-8.7004843,142.5801544,-60.4274826,-250.1374054,-0.6296718,-1.2258250,11.2790270,110.5343475,-77.8931274,85.3816757
3190,-19.6131992,7.9415264,-10.1992474,59.4427490,-31.7786255,-111.4122162,-0.5769997,-1.0749911,10.6110477,119.9770966,-72.8549652,92.5801544
3200,-19.6131992,8.4323349,-9.8568783,-30.4656487,27.9160309,54.7022896,-0.8666966,-0.5075682,10.6685085,110.7175598,-45.6106873,101.9007645
3210,-19.6131992,7.0460997,-7.4171991,-112.0916061,86.3282471,217.4885559,0.3303981,0.2322364,11.1281929,84.5190811,2.0152671,114.2519073
3220,-19.6131992,5.4012914,-4.4077029,-165.7404633,148.5572510,250.1297760,1.9488702,0.7134684,11.4681673,60.1984749,27.1603050,115.4274826
3230,-19.6131992,3.8259149,-0.9002152,-191.6412201,195.2748108,250.1297760,3.0597742,0.3280039,12.1122046,57.3206100,35.8396950,101.7022934
3240,-15.0522690,1.6184721,1.3958124,-200.3053436,216.4122162,250.1297760,3.0861101,0.2130829,11.9781294,68.9923630,61.8091621,83.9847336
3250,-10.8983507,-0.1987177,2.5761478,-200.9084015,216.8549652,250.1297760,2.3415172,0.1388630,11.0563669,83.9312973,78.1374054,68.3511429
3260,-5.3198891,-1.5203103,3.4117200,-199.7938995,208.3664093,250.1297760,1.7812769,0.4022238,9.1936874,90.6793900,70.8473282,56.2213745
3270,-0.0861908,-2.8993635,3.8737986,-198.4580078,188.3435059,250.1297760,1.9249283,0.9768293,7.7978749,83.0839691,49.3587799,46.6793900
3280,7.9056134,-3.5266411,4.9152708,-191.9465637,151.7709961,250.1297760,2.2816625,1.5586174,6.7180958,60.1832047,19.9083977,31.4885502
3290,19.6126022,-1.3598996,8.2431946,-163.3511505,65.9694672,250.1297760,2.3199697,1.8961980,5.7412663,30.2824421,-15.5038166,11.7480917
3300,19.6126022,1.4389079,12.9741125,-97.0229034,-13.2061071,250.1297760,2.2792683,2.1667414,5.5066357,-1.3893130,-37.1374054,-4.4580154
3310,19.6126022,2.7605004,15.9883976,-10.8473282,-77.4961853,-10.9083967,1.8961980,2.4301023,5.7197185,-33.5801544,-41.4427490,-16.1374054
3320,19.6126022,2.5593886,12.9789009,43.7709923,-161.7099304,-250.1374054,1.2593436,2.2122312,6.0740585,-59.8854980,-47.7022896,-23.9618320
3330,19.6126022,1.0342898,9.8449068,58.1297722,-233.4198456,-250.1374054,0.5889706,2.0302727,6.4451580,-80.6106873,-63.1145020,-29.0229015
3340,18.5429974,-0.1747758,8.9638453,72.0152664,-250.1374054,-250.1374054,0.2322364,1.7932479,7.0317345,-98.1450348,-80.3664093,-31.2442741
3350,11.5974541,-1.3239868,7.6015515,87.2061081,-236.6717529,-250.1374054,0.3208214,1.6232605,7.7619624,-115.4503784,-94.8473282,-31.8854961
3360,4.6686692,-1.5155219,5.6574697,94.4351120,-211.8473358,-250.1374054,-0.0119709,1.5083394,8.4059992,-129.9313049,-101.6717529,-30.7099228
3370,-1.8195840,-0.8283895,3.8737986,93.1755753,-183.2824402,-250.1374054,-0.0790083,1.3814473,9.4259243,-143.4503784,-108.6870193,-26.1603050
3380,-9.2607250,-0.8475431,1.8100072,81.2137375,-163.3435059,-250.1374054,-0.3256098,1.0007712,10.6924505,-148.3587799,-110.7862625,-20.1908398
3390,-16.0362816,0.1556223,1.0414724,62.0534363,-147.6030579,-250.1374054,-0.4237715,0.5482694,12.3348637,-144.4274750,-106.5038147,-12.8778629
3400,-19.6131992,2.8490853,1.0989330,49.7022896,-133.9618378,-250.1374054,-0.2178712,-0.0047884,13.8288383,-131.0839691,-94.2442780,-4.9389315
3410,-19.6131992,6.2943239,-0.4213773,29.3587780,-92.0763321,-247.1068726,0.1699875,-0.5339043,14.9804430,-108.8244247,-72.8244247,2.6870229
3420,-19.6131992,8.3676920,-2.0973101,-3.9160306,-13.2290077,-61.4961815,-0.1053443,-0.9121862,16.7329903,-81.6488571,-72.9465637,7.7938933
3430,-19.6131992,7.6685886,-2.8538737,-47.4732819,84.2290039,157.1832123,0.9121862,-1.1228749,16.5773678,-50.1145020,-57.0458031,10.1908398
3440,-19.6131992,5.2576399,-1.6232605,-86.8320618,167.7633514,250.1297760,1.5753766,-1.4006008,15.6963062,-13.9618320,-26.0305347,9.3206110
3450,-19.6131992,2.6743097,-0.1891410,-114.6641235,233.1221313,250.1297760,1.7884595,-1.2497669,14.5854025,18.0458012,5.2900763,7.9312978
3460,-17.4081516,-0.0957676,2.0685797,-136.5190887,250.1297760,250.1297760,1.8914096,-0.8810617,13.0291786,38.1297722,25.0381680,7.6793895
3470,-10.9941177,-2.3534882,4.5082588,-149.7480927,246.4656525,250.1297760,1.8890154,-0.7398046,11.6309719,47.3816795,33.9771004,6.3435116
3480,-5.2648225,-4.1084290,6.8689294,-147.0610657,221.4809113,250.1297760,1.9536586,-0.4955972,10.3189564,47.8931313,35.6259537,3.1832061
3490,1.4029950,-4.8817525,7.7595682,-128.8320618,195.1526642,250.1297760,1.8674678,-0.1795642,9.6653433,43.6717567,32.5954208,-0.4580153
3500,8.1282730,-4.4148855,8.1210909,-99.9694672,156.0534363,250.1297760,1.6328372,-0.0167593,9.2176294,35.9847336,28.4427490,-3.6259542
3510,19.6126022,-3.2513094,9.0596132,-59.9236641,79.3129807,250.1297760,1.3144100,0.2609667,8.9949694,27.2213745,21.8931293,-5.3129773
3520,19.6126022,-0.9911944,10.3261395,-7.9160304,-7.4198475,250.1297760,1.0295014,0.3974355,9.0452480,17.1450386,14.1679392,-6.5572519
3530,19.6126022,3.3638363,8.3581152,73.6641235,-175.6335907,-247.0839691,0.4094064,0.6177009,9.6844959,-1.9770992,-0.5877863,-4.8625956
3540,19.6126022,2.4085546,5.1163831,70.8015289,-231.6946564,-250.1374054,0.3998296,0.4644727,10.3069859,-6.7786260,-6.8244276,-3.0687022
3550,19.6126022,-0.0885850,4.2377152,53.3587799,-250.1374054,-250.1374054,0.4189832,0.4333483,10.9510221,-6.3129773,-8.0458012,-1.8854961
3560,12.9429884,-1.3646880,4.6638808,39.8320618,-250.1068726,-250.1374054,0.4381367,0.3710994,11.2886028,-2.7786260,-7.0458016,-0.8015267
3570,6.5576849,-1.3622938,5.1283536,41.4122124,-220.6030579,-250.1374054,0.6081241,0.3040621,11.4609852,0.9541985,-3.9312978,1.4732825
3580,-0.8762733,-0.3591284,5.3198891,54.4198456,-180.7251892,-250.1374054,0.8523315,0.1484398,11.3388815,4.2977099,0.1679389,2.6946564
3590,-7.0844064,-0.0957676,4.8171091,68.7404556,-153.4351196,-250.1374054,1.0725969,0.0885850,11.1377697,7.5114503,3.7328243,1.5648855
3600,-12.1672707,0.0239419,3.7947903,79.9465637,-127.5496216,-250.1374054,1.0247130,-0.0215477,10.9318695,10.1450386,5.4885497,1.0076336
3610,-18.1216202,1.2641320,2.6790979,85.7862625,-110.4656525,-250.1374054,0.9241571,0.0622489,10.7570934,10.6564884,4.8625956,0.7251908
3620,-19.6131992,3.2656744,1.5538290,81.7633591,-98.7480927,-250.1374054,0.9313397,0.0167593,10.4985209,9.8931293,3.5725191,0.0839695
3630,-19.6131992,5.9304070,-0.5051740,62.3664131,-71.5572510,-236.0610657,0.8307837,0.0933734,10.3189564,7.9465647,2.7480917,-0.7938932
3640,-19.6131992,7.7404146,-2.5929072,21.2824421,-16.3893127,-87.2824402,0.9073978,0.0478838,10.4171181,6.1068702,2.0000000,-1.8015267
3650,-19.6131992,7.6063399,-3.3231349,-29.5496178,52.0458031,74.9542007,0.8427547,0.0646431,10.3333216,3.6335878,0.9923664,-2.7709923
3660,-19.6131992,5.9471664,-2.2361729,-77.6183243,114.7633591,247.5038147,0.7374104,0.0742199,10.2638903,0.8473282,-0.9083970,-4.7862597
3670,-19.6131992,4.1802549,0.0981618,-108.5114517,174.8549652,250.1297760,0.5554519,0.1316804,10.3859940,-1.6259542,-3.3969467,-6.0992365
3680,-19.6131992,1.4676381,1.7429699,-122.4885483,218.2061005,250.1297760,0.5291159,0.0957676,10.5152798,-3.6870229,-5.8702292,-6.3282442
3690,-16.8407288,-0.5865764,2.4061604,-128.9007568,250.1297760,250.1297760,0.3687052,0.1173153,10.8600435,-3.2824428,-6.6488547,-5.2900763
3700,-11.2263546,-2.1571648,3.1172347,-136.2671814,250.1297760,250.1297760,0.4022238,0.1221037,11.1090393,-1.5954199,-5.1145039,-3.1068702
3710,-4.9535780,-3.4859397,4.1874375,-142.0458069,250.1297760,250.1297760,0.5841822,0.0454896,11.0467901,0.9236641,-3.5114503,-1.0305344
3720,1.8483143,-5.0301919,4.8338685,-146.2595367,248.7709961,250.1297760,0.6919208,0.0957676,11.0276365,3.0763359,-1.0687023,-0.4045801
3730,7.6805596,-5.5353661,6.6223278,-140.9007568,197.6793823,250.1297760,0.9337339,0.0383070,10.8528605,4.2977099,0.0000000,-0.2900763
3740,19.6126022,-4.1204000,9.7108326,-103.9542007,101.8015289,250.1297760,0.9121862,0.0909792,10.6900558,5.0687022,0.6183206,-1.2671756
3750,19.6126022,-1.6591733,12.3252869,-30.1603050,-14.0458012,250.1297760,0.8858501,0.1292862,10.6469603,5.2748094,1.4809160,-1.2595420
3760,19.6126022,-0.2178712,10.6038647,35.6870232,-78.7938919,52.2290077,0.7924767,0.1460456,10.5272512,4.8931298,1.3664122,-1.6641221
3770,19.6126022,2.3798244,8.2934723,49.1297722,-137.9694672,-250.1374054,0.7541697,0.2298422,10.5942879,3.9083970,1.4122137,-3.0916030
3780,19.6126022,1.3191984,7.1251078,35.2442741,-203.3282471,-250.1374054,0.7110743,0.2082945,10.5104914,2.5954199,0.5496183,-3.4732823
3790,19.6126022,-0.5961532,6.2823529,34.1145020,-223.5190887,-250.1374054,0.7469871,0.2657550,10.5440102,1.5877863,-0.4885496,-4.4809160
3800,13.0435438,-0.7996593,6.1458845,45.4427490,-208.1068726,-250.1374054,0.5913648,0.2561783,10.6685085,1.1832061,-1.3664122,-3.8702290
3810,6.3398137,-0.2370248,5.4874821,60.3587799,-169.9389343,-250.1374054,0.4812321,0.3710994,10.5679522,1.1984733,-2.3129771,-4.0000000
3820,-1.6136837,0.7254394,5.0589223,75.4122162,-132.7175598,-250.1374054,0.5195391,0.4668669,10.5799236,0.7022901,-2.9236641,-2.8167939
3830,-7.4626884,1.4843974,4.1778607,91.7022934,-112.2748108,-250.1374054,0.5913648,0.4692611,10.5990763,0.2290076,-3.1755726,-2.2519083
3840,-12.5479469,2.6120608,2.0542145,101.8473282,-88.2519073,-250.1374054,0.7565638,0.3663110,10.6565371,-0.2977099,-3.5114503,-2.4656489
3850,-17.7648849,3.7085996,0.7278336,101.7557220,-76.0839691,-250.1374054,0.7421987,0.4453192,10.7546988,0.0610687,-3.2824428,-2.3129771
3860,-19.6131992,6.0836353,-0.8475431,87.6717529,-59.4580154,-250.1374054,0.8379663,0.3998296,10.7762470,1.1068702,-1.9923664,-2.6030533
3870,-19.6131992,8.2000990,-2.7054341,54.5419846,-25.1297703,-164.0915985,0.8259954,0.3734936,10.8049774,2.0839694,-0.7099237,-2.3435113
3880,-19.6131992,8.9973640,-4.3454537,4.7557254,27.4961834,-10.0229006,0.8116302,0.4070122,10.7307568,2.3664122,-0.1755725,-2.9847329
3890,-19.6131992,8.7651272,-4.6543045,-52.5572510,94.5954208,158.4122162,0.7326220,0.3495516,10.6206245,2.1832061,-0.2519084,-2.9847329
3900,-19.6131992,6.5289545,-3.1100521,-102.9007645,162.8473358,250.1297760,0.7326220,0.2920911,10.5607700,1.4580153,-1.4122137,-3.5648854
3910,-19.6131992,3.7109938,-0.5769997,-130.9236603,215.5496216,250.1297760,0.6655847,0.2896969,10.6589317,0.6870229,-2.0000000,-4.3358779
3920,-17.6451759,1.6041069,1.1228749,-143.5572510,250.1297760,250.1297760,0.6440369,0.2011119,10.5320396,-0.1297710,-2.0992367,-4.7175574
3930,-11.8536320,-0.2753318,2.8562679,-150.9541931,250.1297760,250.1297760,0.5913648,0.1675933,10.6541433,-0.7709923,-2.4122138,-4.5954199
3940,-6.0094156,-1.8578910,4.4579806,-154.2137451,250.1297760,250.1297760,0.6248835,0.0718257,10.6900558,-0.9465649,-2.6412213,-4.9312978
3950,-0.6751614,-3.1770895,5.3773494,-154.0381622,250.1297760,250.1297760,0.5386927,0.1268920,10.7594872,-0.5877863,-2.6412213,-5.2595420
3960,5.7723908,-3.7660601,6.9455438,-144.8244324,215.4732819,250.1297760,0.4213773,0.0359128,10.8552551,0.2213740,-1.9465649,-4.9007635
3970,16.3618908,-3.3662305,8.6526003,-111.8320618,112.9083939,250.1297760,0.3423691,0.0790083,10.7762470,1.1755725,-1.3129771,-4.3358779
3980,19.6126022,-1.4963684,11.2095947,-49.4580154,-2.5190840,250.1297760,0.2873027,0.0191535,10.8121595,1.9770992,-0.5877863,-3.6106870
3990,19.6126022,-1.2497669,11.0683374,13.5419846,-97.7251892,58.7328262,0.3902529,0.0670373,10.6732969,2.5419848,-0.5572519,-3.0763359
4000,19.6126022,0.5291159,9.9598284,39.2442741,-191.3129730,-250.1374054,0.3208214,0.0957676,10.7403336,2.4503818,-1.0992366,-2.5343511
4010,19.6126022,-0.5267217,7.8337879,30.3358784,-250.1374054,-250.1374054,0.2753318,0.0933734,10.7642756,2.2290077,-2.2290077,-1.4580153
4020,19.6126022,-2.4205256,7.2400289,22.9770985,-250.1374054,-250.1374054,0.3160330,0.1819584,10.6589317,1.8854961,-3.6106870,-0.1908397
4030,13.7450418,-3.1890604,7.9343438,32.1679382,-250.1374054,-250.1374054,0.3902529,0.1795642,10.7187862,1.4732825,-3.8015268,0.5877863
4040,6.8066807,-2.6551561,7.7882981,54.5877876,-239.6335907,-250.1374054,0.4740495,0.1771700,10.7570934,1.2137405,-3.3358779,0.7557252
4050,-1.1827296,-0.4357425,7.4435349,81.4274826,-182.1984711,-250.1374054,0.6584021,0.2035061,10.8193426,1.6488550,-2.7099237,1.4656489
4060,-7.7691450,0.8643024,5.7197185,103.7022934,-139.9770966,-250.1374054,0.7086801,0.2322364,10.7594872,2.6488550,-2.0534351,0.7404580
4070,-11.8272963,1.3024391,3.0861101,117.5954208,-100.1984711,-250.1374054,0.7541697,0.2705434,10.7762470,3.2366412,-1.3053435,0.5648855
4080,-17.0873299,3.1220231,1.0007712,117.7328262,-68.8015289,-250.1374054,0.7685348,0.2705434,10.7977943,3.8320611,-0.0687023,0.2290076
4090,-19.6131992,5.2241216,-0.7661406,103.5038147,-45.8625946,-250.1374054,0.7637464,0.4596844,10.7379398,3.8854961,0.4427481,-0.2137405
4100,-19.6131992,7.7523856,-3.1627243,67.7557220,-5.5114503,-151.3740387,0.7398046,0.3854645,10.5775290,4.2748094,-0.3893130,-1.0152671
4110,-19.6131992,9.1242561,-5.2959471,11.8167934,61.1984749,16.3969460,0.7278336,0.5147507,10.4697905,2.5954199,-1.1374046,-0.5954198
4120,-19.6131992,8.6334467,-6.0429344,-53.2442741,141.6717529,206.6412201,0.7254394,0.6224893,10.5248566,1.4427481,-0.9847328,-1.2061069
4130,-19.6131992,6.1841912,-4.0677280,-109.3358765,209.7633514,250.1297760,0.6991033,0.7014975,10.4554253,0.7633588,-0.5267175,-1.0458015
4140,-19.6131992,3.8905578,-1.4341195,-142.7938995,250.1297760,250.1297760,0.7134684,0.6105183,10.5751352,0.0152672,-1.2824427,-1.6335878
4150,-15.4975882,1.2186425,1.0223188,-160.2366486,250.1297760,250.1297760,0.8020535,0.6177009,10.6421719,-0.3053435,-2.1297710,-2.2671757
4160,-10.0196829,-0.9097920,3.5649481,-170.0839691,250.1297760,250.1297760,0.6775556,0.5865764,10.6756907,0.4427481,-1.9007634,-3.4503818
4170,-3.5888901,-2.7245877,5.6000090,-167.5343475,250.1297760,250.1297760,0.6943150,0.5362985,10.9031391,0.8091603,-1.5877863,-3.8854961
4180,2.9687948,-4.3119354,7.5800037,-149.1068726,240.1755676,250.1297760,0.6248835,0.5075682,10.7786407,0.9083970,-1.3511450,-4.7633586
4190,15.1240950,-3.0334380,10.2543135,-97.2519073,136.8091583,250.1297760,0.5626345,0.3160330,10.7068148,1.1374046,-1.6641221,-5.1679387
4200,19.6126022,-0.9337339,12.8687687,-10.9389315,5.0229006,250.1297760,0.5195391,0.3902529,10.6254129,0.8625954,-1.7175573,-4.5496182
4210,19.6126022,-0.9361281,12.1553001,69.1068726,-114.2366409,8.7938929,0.5243275,0.3327923,10.5631638,0.0687023,-2.4198472,-4.2061067
4220,19.6126022,1.0702027,8.5640154,89.9618301,-243.1297760,-250.1374054,0.5003856,0.1963235,10.5511932,-0.5419847,-2.4045801,-4.4274807
4230,19.6126022,0.0837966,5.1307478,59.3358765,-250.1374054,-250.1374054,0.5650287,0.1508339,10.6661139,-0.7480916,-2.9618320,-5.5190840
4240,17.7720680,-1.0893562,5.1499014,33.7251892,-250.1374054,-250.1374054,0.4501076,0.0909792,10.6589317,-0.9541985,-3.3358779,-6.8625956
4250,8.5903521,-1.3359578,6.0788469,33.1297722,-250.1374054,-250.1374054,0.3758878,0.0550664,10.5918941,-1.1908396,-3.8931298,-6.2595420
4260,-0.1340746,-0.3758878,6.3685441,53.6717567,-237.3358765,-250.1374054,0.3064562,0.0981618,10.6876621,-1.6335878,-3.9160306,-6.6335878
4270,-8.1282730,2.2098370,5.8490047,88.4198456,-177.1526642,-250.1374054,0.2992737,0.0454896,10.6828737,-1.9312977,-4.0534353,-6.1908398
4280,-12.3707771,3.8283088,2.8490853,114.4961853,-115.7404556,-250.1374054,0.2035061,0.0885850,10.8504667,-1.1984733,-4.2824426,-5.5190840
4290,-16.3906212,5.2169390,-0.5003856,118.7404556,-64.5801544,-250.1374054,0.1939293,0.0790083,11.0420017,0.8015267,-3.4732823,-3.7404580
4300,-19.6131992,7.4171991,-3.0071020,101.0229034,-22.0076332,-227.5648804,0.2920911,0.1268920,11.0803089,2.7328243,-1.9083970,-2.3893130
4310,-19.6131992,9.6605549,-5.3127065,59.3206100,31.2900772,-76.2366409,0.3758878,0.1843526,10.9342632,3.9618320,-0.4885496,-1.2519084
4320,-19.6131992,10.6110477,-7.1179252,2.2366412,94.9389343,77.7557220,0.4740495,0.1460456,10.7499104,4.3282442,-0.0916031,-1.1984733
4330,-19.6131992,10.2567072,-7.4650826,-65.5801544,167.1603088,228.0229034,0.6248835,0.1077385,10.6493549,4.5496182,-0.0305344,-1.6793894
4340,-19.6131992,7.9175844,-5.2743993,-126.5190811,231.5725250,250.1297760,0.5506636,0.2106887,10.3788109,3.4580152,-0.2213740,-1.4274809
4350,-19.6131992,5.5784616,-1.9105632,-161.4656525,250.1297760,250.1297760,0.5027798,0.2561783,10.4578199,2.0305343,-0.9694657,-2.7786260
4360,-17.1112728,3.0549858,0.2537841,-177.5496216,250.1297760,250.1297760,0.5410868,0.2561783,10.6732969,0.8702290,-2.3282442,-3.2061069
4370,-12.7562418,0.5913648,1.8818330,-185.8396912,250.1297760,250.1297760,0.4333483,0.3710994,10.6661139,0.6488550,-3.3740458,-3.3816793
4380,-8.0277176,-1.5897418,3.3805954,-194.3358765,250.1297760,250.1297760,0.4165890,0.4237715,10.7307568,1.0076336,-3.2671757,-3.1145039
4390,-1.4556671,-2.6431851,5.9184365,-199.6412201,250.1297760,250.1297760,0.4405309,0.4596844,10.8432837,1.3435115,-2.1755726,-2.6183207
4400,3.2991931,-4.1587071,7.1969333,-192.2824402,250.1297760,250.1297760,0.5482694,0.5698171,10.8648319,2.0687022,-1.1374046,-1.8015267
4410,10.8744087,-4.8482337,9.7874460,-159.0152740,205.1297760,250.1297760,0.6224893,0.6536137,10.8121595,2.9007633,-0.6259542,-1.5648855
4420,19.6126022,-3.6894460,13.9820662,-88.4045792,72.3740463,250.1297760,0.5195391,0.7398046,10.8121595,3.8549619,-0.2366412,-1.0458015
4430,19.6126022,-4.9248476,13.4936514,-3.1374047,-47.5572510,120.2824402,0.5123565,0.7733232,10.6254129,4.0992365,-0.4427481,-0.3816794
4440,19.6126022,-2.0398495,11.6860390,42.6030540,-165.6183167,-247.5114441,0.5123565,0.7110743,10.4626083,3.4198472,-0.4580153,-0.4885496
4450,19.6126022,-2.5665710,8.0732069,26.6488552,-250.1374054,-250.1374054,0.6081241,0.7374104,10.4290895,2.3282442,-0.6259542,-0.9389313
4460,19.6126022,-4.2688398,7.0365229,0.1145038,-250.1374054,-250.1374054,0.5769997,0.7254394,10.3309278,0.5419847,-1.9312977,-2.0305343
4470,16.4025917,-5.2743993,7.9558916,-3.6870229,-250.1374054,-250.1374054,0.5434810,0.5458752,10.4745789,-1.0839695,-3.8396947,-3.1679389
4480,9.5169029,-4.5489597,8.7603388,15.2595415,-250.1374054,-250.1374054,0.4979914,0.4381367,10.4889441,-2.2213740,-5.1832061,-3.4580152
4490,3.3494711,-2.3079987,8.7794924,50.8396950,-228.0686951,-250.1374054,0.4213773,0.2896969,10.6589317,-2.6793892,-5.5648856,-3.3435113
4500,-3.5936785,0.6296718,7.2903070,85.6259537,-169.2442780,-250.1374054,0.4333483,0.2059003,10.7475166,-2.6183207,-5.0916033,-3.9541984
4510,-8.3245964,1.9081690,4.2712340,106.7938919,-117.6793900,-250.1374054,0.3758878,0.1532281,10.8169479,-2.2748091,-5.0000000,-3.7557251
4520,-11.5112629,2.1619530,1.2186425,111.8625946,-73.7557220,-250.1374054,0.3734936,0.0359128,10.9222927,-1.6259542,-4.0763359,-3.6030533
4530,-15.6723642,3.2441268,-0.2657550,103.3816757,-49.6259537,-250.1374054,0.3974355,0.0047884,10.8337069,-0.5496183,-3.2900763,-3.3206108
4540,-19.6131992,5.6215568,-0.9672526,83.5572510,-28.7175579,-250.1374054,0.3543400,-0.0766141,10.7092094,0.2213740,-2.5114503,-2.9465649
4550,-19.6131992,7.9463148,-2.7365584,50.8396950,12.7938929,-146.3740387,0.2849085,0.0526722,10.8624372,0.7328244,-1.9694656,-3.6030533
4560,-19.6131992,8.3700867,-4.2520804,3.7557251,67.0534363,17.1679382,0.2346306,0.1340746,10.8001890,1.5496184,-2.2366412,-3.3435113
4570,-19.6131992,7.8026633,-5.0828643,-49.2595406,129.1297760,200.3358765,0.2346306,0.2370248,10.8624372,2.1755726,-2.1068702,-2.6030533
4580,-19.6131992,6.2129216,-3.7684543,-98.9236679,194.6641235,250.1297760,0.2777260,0.2513899,10.7068148,2.7328243,-1.9770992,-1.5114504
4590,-19.6131992,4.2760224,-1.8842272,-133.6259613,250.1297760,250.1297760,0.3208214,0.2298422,10.6493549,2.8778627,-1.9694656,-1.1679389
4600,-17.0346584,1.8315549,-0.2896969,-157.0305328,250.1297760,250.1297760,0.2298422,0.2873027,10.7044210,3.0000000,-2.2137403,-0.2290076
4610,-12.9166517,-0.5434810,1.2856797,-175.8473358,250.1297760,250.1297760,0.3543400,0.3615226,10.8049774,3.3587787,-2.2671757,-0.2977099
4620,-7.4100165,-2.3319404,3.9264708,-188.9923706,250.1297760,250.1297760,0.3399749,0.3950413,10.7451220,3.3587787,-2.1679389,0.4732825
4630,-1.5466464,-3.5314295,6.6031747,-191.3893127,250.1297760,250.1297760,0.4141948,0.4189832,10.6565371,3.5801528,-2.0916030,0.3053435
4640,4.0725164,-4.9703374,8.0396881,-178.9618378,250.1297760,250.1297760,0.4525018,0.5027798,10.5942879,3.3587787,-2.0229008,0.4961832
4650,12.0308018,-5.3414369,11.0396080,-138.7022858,178.6335907,250.1297760,0.4955972,0.5267217,10.6421719,2.6793892,-2.0229008,0.7022901
4660,19.6126022,-4.2257442,15.7968616,-57.6259537,35.5725174,250.1297760,0.5171449,0.6368544,10.5895004,2.2748091,-2.5877862,-0.1908397
4670,19.6126022,-5.3701668,16.1128960,41.5954208,-102.9236679,85.6946564,0.4932030,0.5578461,10.5727406,2.2977099,-3.9770992,-1.1832061
4680,19.6126022,-2.7054341,12.9262285,98.6946564,-234.1374054,-250.1374054,0.5889706,0.5985473,10.4554253,0.0610687,-5.0992365,-1.4961832
4690,19.6126022,-2.2792683,7.8337879,94.7633591,-250.1374054,-250.1374054,0.6177009,0.6967092,10.5847120,-0.6335878,-4.7404580,-1.8320611
4700,19.6126022,-2.8155668,5.6742291,69.3282471,-250.1374054,-250.1374054,0.6057299,0.6823440,10.6756907,-0.2748092,-3.4885497,-1.6335878
4710,13.4625273,-2.9328821,5.8585815,53.1374054,-250.1374054,-250.1374054,0.5746055,0.6943150,10.6876621,0.3129771,-3.9847329,-1.6641221
4720,6.5169835,-1.8243724,6.6438756,59.8931313,-250.1374054,-250.1374054,0.6009415,0.6105183,10.7690639,0.5648855,-3.4045801,-1.5648855
4730,-2.2242019,0.6823440,6.8401995,87.1374054,-250.1374054,-250.1374054,0.5650287,0.5769997,10.6996326,0.4503817,-2.9618320,-3.4427481
4740,-8.5185261,2.5953014,5.3725610,118.1832047,-217.9236603,-250.1374054,0.4548960,0.5291159,10.5966825,-0.0076336,-3.4809160,-3.3206108
4750,-13.0483322,3.1962428,2.2888451,135.3969421,-169.7099304,-250.1374054,0.3926471,0.4955972,10.6038647,-0.6564885,-3.8549619,-3.6412213
4760,-17.3770275,4.7931671,-0.2130829,131.0381622,-125.5725174,-250.1374054,0.3375807,0.4979914,10.6517487,-0.9465649,-4.0076337,-2.6488550
4770,-19.6131992,7.2663651,-2.8634505,103.5572510,-75.3740463,-250.1374054,0.4979914,0.3806761,10.6110477,-1.3816794,-4.1603055,-2.6183207
4780,-19.6131992,9.0117292,-5.2480631,55.4732819,-13.1221371,-110.4961853,0.3758878,0.3806761,10.7858238,-1.1450381,-4.0763359,-2.9847329
4790,-19.6131992,9.9310980,-6.5457139,-5.5648856,65.3816757,66.1984711,0.4405309,0.2370248,10.8361015,-0.5725191,-3.2442749,-3.0458016
4800,-19.6131992,9.1601686,-5.9519548,-67.3206100,152.1832123,242.5114441,0.4668669,0.2609667,10.8337069,0.1374046,-2.6335878,-4.3053436
4810,-19.5485573,7.2663651,-3.3829896,-110.9389343,234.5038147,250.1297760,0.4381367,0.1771700,10.7570934,0.5267175,-2.2824428,-4.0458016
4820,-17.1807041,4.9176650,-1.1324517,-136.9847260,250.1297760,250.1297760,0.4405309,0.2394189,10.7379398,0.6259542,-2.2213740,-4.3282442
4830,-14.7889080,2.4827745,0.3088504,-155.9313049,250.1297760,250.1297760,0.4333483,0.2705434,10.5799236,0.2824427,-2.3969467,-5.5496182
4840,-10.7044210,0.1436514,1.8578910,-172.8473358,250.1297760,250.1297760,0.2609667,0.2346306,10.5727406,-0.3511450,-3.1450381,-5.8167939
4850,-5.5329719,-1.5011568,4.2185616,-182.5114441,250.1297760,250.1297760,0.2298422,0.3136388,10.5751352,-0.7022901,-4.0610685,-5.6946564
4860,0.9720409,-2.0326669,6.9407554,-180.0610657,250.1297760,250.1297760,0.1915352,0.2394189,10.6325951,-0.8625954,-4.7938933,-4.5877862
4870,5.6502872,-2.8945751,8.3629036,-162.9007568,250.1297760,250.1297760,0.2442073,0.2801202,10.6397781,-1.0839695,-4.7480917,-4.5572519
4880,14.9732609,-2.8706331,11.3077564,-118.4885483,201.6488495,250.1297760,0.2513899,0.3280039,10.6828737,-1.4274809,-5.0000000,-3.4351146
4890,19.6126022,-1.4389079,15.4137917,-30.5877857,38.4122124,250.1297760,0.3351865,0.2370248,10.7187862,-1.6030535,-4.7175574,-3.4427481
4900,19.6126022,-3.6607156,13.7234936,64.5190811,-111.0992355,25.0610695,0.4022238,0.3136388,10.7930059,-1.2824427,-4.8320613,-3.1984732
4910,19.6126022,-1.9656296,9.5552101,100.8091583,-240.9160309,-250.1374054,0.4764437,0.3687052,10.8504667,-0.9007633,-4.8244276,-3.1984732
4920,19.6126022,-1.6783268,5.3031297,64.5648880,-250.1374054,-250.1374054,0.4453192,0.4165890,10.7882175,-0.4885496,-4.4809160,-2.8167939
4930,17.6499653,-2.0829449,4.9607606,25.7633591,-250.1374054,-250.1374054,0.2633608,0.4501076,10.8217363,0.9312977,-4.8091602,-3.0152671
4940,11.5615406,-1.8243724,6.2847471,17.4198475,-250.1374054,-250.1374054,0.4213773,0.4620786,10.6613255,0.5190840,-5.1908398,-2.4122138
4950,4.0102673,-0.3327923,7.1897511,35.6793900,-250.1374054,-250.1374054,0.4237715,0.6224893,10.7762470,0.9541985,-3.8549619,-2.1908398
4960,-4.0413918,1.7621235,7.5249376,69.1603088,-250.1374054,-250.1374054,0.3303981,0.5913648,10.8121595,1.6946565,-2.9847329,-1.5648855
4970,-10.1346035,3.3135581,5.9040713,106.1526718,-209.7175598,-250.1374054,0.4333483,0.6464311,10.7044210,2.4732823,-3.2824428,-0.5267175
4980,-13.1824074,4.3143296,2.5162930,128.6335907,-158.2748108,-250.1374054,0.6153067,0.6943150,10.7187862,2.7557251,-2.4961832,-0.6564885
4990,-16.8934002,6.7324610,-0.5075682,125.0000000,-106.2977066,-250.1374054,0.6368544,0.6392486,10.5368280,2.2290077,-1.8473282,-1.1603054
5000,-19.6131992,8.7866755,-3.3949606,97.0000000,-45.9160309,-207.2900696,0.5722113,0.6248835,10.4602137,1.2290076,-2.3969467,-1.8778626
5010,-19.6131992,9.9789820,-5.6550756,47.4961815,24.3511448,-56.9923668,0.5027798,0.6009415,10.4482431,-0.1984733,-3.6335878,-1.8702290
5020,-19.6131992,10.7235746,-6.9862447,-13.4503813,104.1526718,101.0076370,0.4692611,0.5339043,10.4530315,-1.6793894,-4.7480917,-2.1603053
5030,-19.6131992,9.4139528,-6.7635851,-81.5954208,192.4961853,250.1297760,0.3758878,0.4716553,10.3931761,-3.4427481,-5.6259542,-2.6946564
5040,-18.7105904,7.2256637,-4.0605454,-133.1526642,250.1297760,250.1297760,0.4405309,0.4285599,10.6014709,-4.2671757,-6.4656487,-2.2595420
5050,-16.2445755,4.5537481,-1.2425843,-163.6259613,250.1297760,250.1297760,0.3998296,0.3016679,10.7642756,-4.2213740,-6.5190840,-2.7480917
5060,-12.1385403,1.9297167,1.5921360,-179.3664093,250.1297760,250.1297760,0.3375807,0.2011119,10.7690639,-3.8091602,-6.2290077,-2.7709923
5070,-7.1251078,0.0359128,3.7516949,-182.3969421,250.1297760,250.1297760,0.3687052,0.1532281,10.8839855,-3.0916030,-5.7175574,-2.3969467
5080,-0.9744351,-0.8571198,6.2488346,-176.4656525,250.1297760,250.1297760,0.3495516,0.1077385,10.8289185,-2.2671757,-5.1832061,-3.6335878
5090,19.6126022,-0.3782819,11.9158812,-45.1450386,55.3511467,250.1297760,0.2609667,0.1364688,10.9151096,0.7938932,-3.9847329,-4.2213740
5100,-19.6131992,9.5911226,-4.4005203,88.0916061,-29.0839691,-174.2519073,0.4237715,0.6153067,10.7570934,0.0381679,-4.2595420,-1.8244275
5110,-19.6131992,10.8504667,-7.0197635,31.5954189,54.9618340,-8.6946564,0.4932030,0.6224893,10.6349897,0.0610687,-4.1374044,-1.4656489
5120,-19.6131992,10.8432837,-7.5177550,-33.5114517,138.7557220,159.5267181,0.5339043,0.6895266,10.6373835,0.3816794,-4.4274807,-1.6717557
5130,-13.4649220,4.7907729,-1.1013272,-157.0992432,250.1297760,250.1297760,0.5650287,0.6727672,10.5296450,-1.4809160,-4.8778625,-1.6412214
5140,-10.4290895,2.5474176,1.1276633,-168.5877838,250.1297760,250.1297760,0.5458752,0.5602403,10.6158361,-2.2977099,-5.3206105,-2.0687022
5150,-5.5952206,0.9959828,3.2752512,-173.5877838,250.1297760,250.1297760,0.5386927,0.5051740,10.5823174,-3.0381680,-5.6564884,-2.5572519
5160,-0.3926471,0.7469871,5.2001796,-169.8625946,250.1297760,250.1297760,0.4596844,0.3782819,10.6948442,-3.3282442,-5.6793895,-2.4198472
5170,4.8841467,0.3710994,6.2320752,-153.9313049,250.1297760,250.1297760,0.4716553,0.3280039,10.7283630,-3.1755726,-5.4885497,-2.5572519
5180,12.1193867,0.1747758,7.8313937,-118.4580154,180.7022858,250.1297760,0.4764437,0.2154770,10.8480721,-2.2900763,-4.4122138,-2.5572519
5190,19.6126022,1.3838415,10.3476868,-57.3206100,14.8702288,250.1297760,0.4165890,0.1173153,10.9845409,-1.0687023,-3.4961832,-2.8931298
5200,19.6126022,-0.6847382,9.3445215,3.9160306,-130.3282471,34.5954208,0.4716553,0.0981618,10.8576488,-0.2824427,-2.9770992,-3.3358779
5210,19.6126022,-1.4389079,7.1562324,21.2671757,-225.6183167,-250.1374054,0.2920911,0.0957676,10.7930059,0.5496183,-2.4732823,-3.5038168
5220,19.6126022,-1.3622938,6.0381460,-16.1297703,-250.1374054,-250.1374054,0.2346306,0.0957676,10.7618818,0.9847328,-2.4045801,-3.4732823
5230,19.3043499,-2.6958573,6.9886389,-53.2671738,-250.1374054,-250.1374054,0.2561783,0.1795642,10.6780853,0.8854962,-2.8702290,-3.3282442
5240,14.6907463,-2.4037662,9.0739784,-47.0610695,-250.1374054,-250.1374054,0.1939293,0.2178712,10.6206245,0.5725191,-3.5496182,-2.5038168
5250,8.9087791,-1.4341195,9.4905672,-11.4351149,-250.1374054,-250.1374054,0.2394189,0.2849085,10.5152798,-0.0152672,-4.1755724,-2.5419848
5260,2.4372849,0.5530578,9.4570484,33.8167953,-225.5038147,-250.1374054,0.2681492,0.3160330,10.5990763,-0.5877863,-4.7175574,-1.9618320
5270,-4.3502421,2.3726418,8.3916340,78.3435135,-173.3511505,-250.1374054,0.3591284,0.3351865,10.6828737,-0.8320611,-5.0763359,-1.4580153
5280,-8.8800488,2.6240315,5.3917146,113.3664093,-141.1221313,-250.1374054,0.4357425,0.2825144,10.7475166,-0.2977099,-4.9618320,-1.3282443
5290,-13.0626974,2.9831600,2.3846128,132.8396912,-110.5648880,-250.1374054,0.4932030,0.2992737,10.8097658,0.4427481,-3.9465649,-1.6183206
5300,-17.2405586,5.5018473,0.0981618,133.9694672,-80.1603088,-250.1374054,0.5578461,0.3184272,10.7882175,1.0763359,-2.8320611,-1.6946565
5310,-19.6131992,8.6813307,-3.3925664,109.7022934,-40.2366409,-220.2213745,0.5051740,0.3471575,10.6685085,1.6412214,-2.5343511,-2.2442749
5320,-19.6131992,10.3405046,-6.3350253,53.9083977,30.0610695,-74.2671738,0.4357425,0.3902529,10.7307568,1.8473282,-1.9541985,-2.5038168
5330,-19.6131992,10.3405046,-7.9080076,-17.7404575,116.5725174,89.0534363,0.4118006,0.4333483,10.6397781,1.9694656,-2.6717558,-1.8091604
5340,-19.6131992,8.7052727,-7.7571740,-90.6183243,194.0458069,250.1297760,0.4381367,0.5291159,10.5152798,1.4656489,-3.5038168,-2.0000000
5350,-19.6131992,6.3709383,-4.9655490,-148.7251892,249.2977142,250.1297760,0.3663110,0.5099624,10.5487986,0.6183206,-4.4427481,-2.3816793
5360,-16.9891682,4.4627690,-2.0350611,-180.2137451,250.1297760,250.1297760,0.3399749,0.5913648,10.4889441,-0.4198473,-5.1068702,-2.2213740
5370,-12.6245613,2.5210814,-0.0646431,-198.0381622,250.1297760,250.1297760,0.2657550,0.6200951,10.5799236,-1.2824427,-5.7480917,-0.5801527
5380,-8.0636301,0.6751614,2.1020982,-211.5954132,250.1297760,250.1297760,0.3758878,0.5410868,10.6756907,-1.0381680,-5.8015265,0.1374046
5390,-3.6822634,-0.2059003,4.6471219,-217.3664093,250.1297760,250.1297760,0.5985473,0.5386927,10.7092094,-0.9923664,-5.4351144,0.6717557
5400,1.2186425,-1.0845678,6.7635851,-209.3053436,250.1297760,250.1297760,0.6344602,0.5003856,10.7235746,-0.8778626,-4.9847326,-0.0763359
5410,5.9304070,-1.6136837,7.3453732,-189.1755676,237.8625946,250.1297760,0.7493813,0.4237715,10.7858238,-0.8549618,-4.8015265,-1.2137405
5420,14.2143030,-1.0271072,9.3612804,-147.7404633,134.8015289,250.1297760,0.6895266,0.3710994,10.7235746,-1.0152671,-4.4580154,-1.7404580
5430,19.6126022,0.4141948,10.8911676,-83.6564865,8.0000000,250.1297760,0.5841822,0.2896969,10.7068148,-1.2290076,-4.3129773,-2.1908398
5440,19.6126022,0.8714849,11.2502966,-15.9312973,-99.7557220,59.0305328,0.5027798,0.2825144,10.7786407,-1.0000000,-4.1526718,-2.2900763
5450,19.6126022,0.6248835,10.4961262,34.6030540,-177.3664093,-203.2671814,0.4620786,0.2753318,10.8265247,-0.6106870,-4.4274807,-2.8549619
5460,19.6126022,0.5386927,8.7004843,45.4961815,-250.1374054,-250.1374054,0.3351865,0.2394189,10.7379398,-0.0076336,-5.0763359,-3.5648854
5470,18.5549679,0.3878587,7.3908629,33.0076332,-250.1374054,-250.1374054,0.3710994,0.2130829,10.6517487,-0.7328244,-3.9160306,-3.8854961
5480,14.3651371,0.7876883,7.6661944,29.9618320,-250.1374054,-250.1374054,0.3423691,0.2346306,10.8887739,-0.3740458,-3.1526718,-3.4122138
5490,9.9382801,1.6831152,7.4986014,44.3206100,-250.1374054,-250.1374054,0.3375807,0.2011119,10.8241301,0.9007633,-3.5877862,-3.6717558
5500,5.1211715,3.0908985,6.3661499,63.2595406,-239.8320618,-250.1374054,0.4141948,0.2801202,10.7139978,1.1755725,-3.6946564,-3.7633588
5510,-0.0885850,4.8482337,4.6662750,77.0839691,-183.4656525,-250.1374054,0.4884146,0.3016679,10.5918941,0.7633588,-3.6488550,-4.3358779
5520,-4.0509686,5.2672167,2.8514795,82.7786255,-135.6641235,-250.1374054,0.3950413,0.2920911,10.6804790,0.1908397,-4.0763359,-3.6641221
5530,-7.2903070,5.3151007,0.9097920,81.5114517,-88.1526718,-250.1374054,0.3495516,0.3351865,10.5751352,-0.2519084,-4.3282442,-4.2671757
5540,-10.5009146,5.9663200,-0.5482694,72.6412201,-56.0152664,-250.1374054,0.3830703,0.3136388,10.6517487,-0.7175573,-4.6488547,-3.9389312
5550,-13.8168669,7.1921453,-1.2593436,58.1832047,-37.6335869,-250.1374054,0.3088504,0.2633608,10.6158361,-0.9694657,-4.9007635,-3.8015268
5560,-16.8718529,8.0636301,-1.9512644,40.2137413,-24.3740463,-157.2213745,0.3136388,0.2992737,10.7642756,-0.6717557,-4.6717558,-2.8320611
5570,-18.3179436,8.6980906,-2.7964132,16.2442741,-2.7099237,-51.5190849,0.4357425,0.3256098,10.7427282,-0.3435115,-4.4656487,-2.8015268
5580,-17.8989601,8.8201942,-3.4811516,-16.8625946,31.2977104,60.4122124,0.4046180,0.3495516,10.8504667,0.2366412,-3.6412213,-2.5725191
5590,-16.0697994,8.7052727,-3.1962428,-53.7633591,77.4045792,169.8091583,0.4525018,0.4189832,10.7858238,0.8473282,-3.3587787,-2.2824428
5600,-14.1975431,8.0181408,-1.8985922,-84.2519073,131.6259613,250.1297760,0.4668669,0.3710994,10.7690639,1.6183206,-2.6106870,-1.6793894
5610,-12.6389265,6.6223278,-0.8020535,-107.8931274,183.0305328,250.1297760,0.4860204,0.3878587,10.7499104,2.3511450,-3.1450381,-1.8473282
5620,-10.6828737,5.2911587,0.1316804,-126.0229034,223.5343475,250.1297760,0.4740495,0.4836263,10.6397781,2.3435113,-3.3740458,-2.3053436
5630,-8.4227581,3.9384418,0.9600700,-140.1374054,250.1297760,250.1297760,0.5386927,0.5985473,10.5368280,1.7251909,-3.6488550,-2.8931298
5640,-5.8681583,2.4588325,1.7477583,-152.4351196,250.1297760,250.1297760,0.4812321,0.6129125,10.5631638,1.0076336,-3.9465649,-2.3358779
5650,-3.3111639,1.2497669,2.8490853,-163.4885559,250.1297760,250.1297760,0.5051740,0.5482694,10.4961262,0.2366412,-4.4427481,-2.2366412
5660,-0.3280039,0.2274480,4.1395535,-172.1145020,250.1297760,250.1297760,0.5003856,0.5315101,10.5368280,-0.6106870,-4.8625956,-2.1603053
5670,2.8275378,-0.5410868,5.9902620,-176.6259613,250.1297760,250.1297760,0.5458752,0.4453192,10.6373835,-1.0305344,-4.6717558,-2.6488550
5680,5.0900469,-0.9768293,7.3812861,-173.6412201,242.1984711,250.1297760,0.5722113,0.4213773,10.7187862,-1.0916030,-4.2442746,-2.7709923
5690,7.8792777,-1.5777708,8.0803890,-159.7251892,216.5038147,250.1297760,0.5458752,0.3639168,10.7163916,-0.8625954,-3.9312978,-2.1374047
5700,10.6062593,-1.5634058,9.1505919,-136.4809113,195.7022858,250.1297760,0.4788379,0.2920911,10.8001890,-0.6412213,-3.7175572,-3.0763359
5710,14.0682573,-1.1803354,10.1585455,-105.2748108,166.6564941,250.1297760,0.4429250,0.2298422,10.6852674,-0.8320611,-3.1679389,-2.7709923
5720,16.5079365,-0.4525018,11.3269100,-68.0305328,131.7328186,250.1297760,0.3830703,0.2513899,10.8408899,-0.5343512,-3.2671757,-3.2519083
5730,17.0394459,0.5386927,12.0667152,-26.1297703,99.4122162,156.8091583,0.4022238,0.2418131,10.7762470,0.0458015,-3.7099237,-2.8091602
5740,13.5582952,1.4293311,11.0396080,29.6564884,-0.1450382,-10.4885492,0.3136388,0.2418131,10.6517487,-0.0839695,-3.8931298,-3.5114503
5750,12.6915979,0.8427547,10.0148945,38.9083977,-62.6641235,-73.0534363,0.2489957,0.2346306,10.6852674,-0.0076336,-3.3358779,-3.1984732
5760,12.3276815,0.4620786,9.4019823,48.2977104,-109.1832047,-125.9847336,0.2585725,0.2513899,10.6565371,0.2671756,-4.2748094,-2.6030533
5770,11.8272963,1.5059452,9.6006994,65.5419846,-138.0763397,-165.8778687,0.4118006,0.2681492,10.6804790,0.2748092,-5.0687022,-2.8702290
5780,13.3308468,2.5402350,10.3716288,93.0000000,-174.5801544,-201.7862549,0.4333483,0.3232156,10.5775290,-0.6641222,-5.0000000,-2.9770992
5790,16.6252518,3.5410061,9.8401184,126.4503784,-212.2442780,-250.0610657,0.4644727,0.2896969,10.6565371,-1.3816794,-5.2824426,-3.4503818
5800,17.6092644,5.0613165,8.5137377,157.7099304,-241.8244324,-250.1374054,0.4908088,0.2849085,10.7954006,-1.3358779,-5.4198475,-3.3358779
5810,17.6763000,6.3422079,6.5265603,174.5648804,-250.1374054,-250.1374054,0.5051740,0.3208214,10.7235746,-0.7022901,-4.7786260,-3.5419848
5820,15.6723642,6.4236102,4.9104824,174.5267181,-250.1374054,-250.1374054,0.3926471,0.3543400,10.8456783,-0.0458015,-4.2442746,-2.8167939
5830,12.7873659,5.9064655,3.3015873,166.4809113,-250.1374054,-250.1374054,0.3806761,0.3256098,10.8696203,0.5267175,-3.4274809,-2.4274809
5840,9.0404596,5.4539638,2.8586621,154.3129730,-246.4656525,-250.1374054,0.4405309,0.2873027,10.6972389,1.0229008,-2.8015268,-1.9236641
5850,4.6614871,4.5992379,2.3032103,140.2824402,-241.1068726,-250.1374054,0.4884146,0.3399749,10.6732969,0.9923664,-3.2595420,-2.1068702
5860,0.3758878,4.0509686,1.7525467,130.6183167,-240.4503784,-250.1374054,0.4213773,0.3543400,10.5871058,0.9083970,-3.9160306,-2.5419848
5870,-2.9687948,4.1251884,1.2761030,125.3664093,-222.8244324,-250.1374054,0.3998296,0.4525018,10.6876621,0.6412213,-4.5343513,-2.8015268
5880,-5.7005649,4.2784166,0.6679789,122.9312973,-211.9007568,-250.1374054,0.3399749,0.4908088,10.6852674,0.1526718,-4.5496182,-2.5190840
5890,-8.7459745,4.4196739,-0.4357425,116.6793900,-206.0839691,-250.1374054,0.3758878,0.5434810,10.7906122,0.1297710,-4.6488547,-1.8473282
5900,-12.5072460,5.4755111,-2.3702476,98.6412201,-187.1221313,-250.1374054,0.3615226,0.5698171,10.7666702,0.2595420,-4.1374044,-1.3282443
5910,-16.7928448,7.4890246,-3.8163381,61.1526718,-113.4503784,-250.1374054,0.5386927,0.5362985,10.7163916,0.4809160,-4.1679387,-0.3893130
5920,-18.1311970,8.4275465,-4.0030847,16.7175579,-42.2519073,-122.0839691,0.7278336,0.5315101,10.6493549,0.4045801,-4.0992365,-0.7328244
5930,-18.7512913,8.7507620,-4.0389977,-36.7862587,33.0610695,19.5648861,0.7374104,0.5243275,10.5871058,-0.1603053,-4.1145039,-1.4351145
5940,7.0915890,-6.2296810,10.3069859,-250.1374054,212.2366486,250.1297760,0.3710994,0.2466015,10.9414454,0.5267175,-3.3435113,-4.2824426
5950,19.6126022,-3.4955165,13.6301203,-192.5343475,106.4351120,250.1297760,0.3064562,0.1795642,10.8313131,1.4809160,-2.2290077,-4.3435116
5960,19.6126022,-1.1755470,18.3849812,-76.7328262,32.0839691,250.1297760,0.3447633,0.2298422,10.7092094,2.0458016,-2.0992367,-3.5343511
5970,19.6126022,-0.0550664,19.2780132,52.0152664,-46.8473282,-40.2900772,0.4022238,0.2849085,10.6637201,1.8167939,-2.1679389,-3.6183207
5980,19.6126022,-0.9816177,14.2597923,121.2137375,-177.2137451,-250.1374054,0.3519458,0.3016679,10.5009146,1.2137405,-2.5648854,-2.9007633
5990,19.6126022,-2.0111191,10.2806492,142.9923706,-250.1374054,-250.1374054,0.4381367,0.2968795,10.5416164,0.2366412,-3.3282442,-3.1679389
6000,15.1360655,-2.4636209,8.6549950,149.5877838,-250.1374054,-250.1374054,0.3998296,0.3327923,10.5248566,-0.3053435,-3.7786260,-3.6946564
6010,8.6047173,-2.5617826,6.8258343,151.0076294,-250.1374054,-250.1374054,0.3399749,0.2825144,10.7714586,-0.3282443,-4.2671757,-3.3511450
6020,2.2553265,-1.4484847,5.3605900,155.3969421,-250.1374054,-250.1374054,0.3639168,0.2394189,10.7834291,-0.3511450,-4.0610685,-3.0076337
6030,-4.4388270,0.1651991,4.3023586,170.2519073,-226.9389343,-250.1374054,0.3495516,0.3016679,10.7690639,0.1603053,-4.0305343,-2.2900763
6040,-10.1250277,1.7453641,1.9776005,182.0152740,-203.8091583,-250.1374054,0.3615226,0.2753318,10.7714586,0.4885496,-3.8702290,-1.8931298
6050,-12.9022865,2.8347204,0.3232156,178.5419922,-195.1908417,-250.1374054,0.3136388,0.2777260,10.6397781,0.6259542,-4.3511453,-1.8320611
6060,-16.0697994,5.2911587,-1.6112895,160.2061005,-179.0763397,-250.1374054,0.4022238,0.2920911,10.6804790,0.8625954,-5.0381680,-1.9083970
6070,-19.6131992,8.4658537,-3.8498566,127.0839691,-128.8854980,-250.1374054,0.3184272,0.4070122,10.6325951,0.7633588,-5.1603055,-1.2137405
6080,-19.6131992,10.4841557,-5.5114241,79.1526718,-44.6259537,-150.3893127,0.3567342,0.3878587,10.7092094,0.4656489,-5.2671757,-1.8091604
6090,-19.6131992,10.7882175,-7.5393028,12.0000000,52.3511467,16.5725193,0.4285599,0.4764437,10.6086531,0.1832061,-5.2824426,-0.7175573
6100,-19.6131992,10.0579901,-7.8816719,-60.7938919,143.2519073,183.2290039,0.4285599,0.5195391,10.6062593,0.0610687,-5.5648856,-0.3435115
6110,-17.9468441,8.4993725,-6.5241661,-128.7251892,220.1297760,250.1297760,0.6416427,0.5410868,10.6732969,0.0000000,-5.3358779,0.8854962
6120,-15.6795464,6.2320752,-3.9144998,-181.6717529,250.1297760,250.1297760,0.7230452,0.5602403,10.6732969,-0.0458015,-4.7557254,0.0687023
6130,-11.8344784,3.9504125,-3.0262554,-226.4045868,250.1297760,250.1297760,0.7972651,0.5339043,10.6541433,-0.3587786,-4.4427481,-0.2061069
6140,-9.8281479,1.4796091,1.2282192,-250.1374054,250.1297760,250.1297760,0.8044477,0.4429250,10.6038647,-0.3816794,-3.8931298,-1.5343511
6150,-7.2232695,-0.6727672,4.6854286,-250.1374054,250.1297760,250.1297760,0.7517755,0.4764437,10.6062593,-0.4961832,-3.6793892,-2.5572519
6160,-2.2649033,-2.1260402,8.7818871,-242.5267181,246.7328186,250.1297760,0.5003856,0.4094064,10.7163916,-0.2595420,-4.2519083,-4.0076337
6170,2.8969693,-2.4492557,10.6182299,-195.8396912,241.9236603,250.1297760,0.4836263,0.3327923,10.8001890,-0.8396947,-4.1908398,-4.1450381
6180,7.7859039,-3.2177906,10.2830439,-149.7862549,216.6183167,250.1297760,0.4668669,0.3232156,10.8217363,-0.7404580,-3.1221373,-3.6335878
6190,14.8727045,-3.4859397,12.7730007,-94.8167953,155.9007568,250.1297760,0.3519458,0.1771700,10.8265247,0.3358779,-2.6259542,-3.8931298
6200,19.6126022,-2.6407909,13.8264437,-27.6183205,49.1450386,250.1297760,0.4572902,0.2729376,10.7379398,0.7862595,-3.0687022,-4.2671757
6210,19.6126022,-0.7733232,12.7777891,36.6106873,-94.0916061,25.9694653,0.3663110,0.2394189,10.6302013,0.8625954,-3.1221373,-4.8015265
6220,19.6126022,1.4676381,11.9039097,85.3587799,-225.1679382,-250.1374054,0.3663110,0.2059003,10.6134415,0.2748092,-3.1374047,-5.5572519
6230,19.6126022,-0.2106887,8.2695303,113.3053436,-250.1374054,-250.1374054,0.2896969,0.1939293,10.6038647,-0.3129771,-3.2290077,-4.9618320
6240,16.9029770,-2.6431851,6.0620875,98.8702316,-250.1374054,-250.1374054,0.2346306,0.2178712,10.6709023,-0.5648855,-3.7709923,-4.5954199
6250,11.2143831,-2.9687948,6.4762826,83.1297684,-250.1374054,-250.1374054,0.3040621,0.2011119,10.6254129,-0.9618320,-3.9618320,-4.0534353
6260,6.1147599,-1.1013272,7.0365229,83.4580154,-250.1374054,-250.1374054,0.2609667,0.1795642,10.7570934,-0.8778626,-4.2595420,-3.4503818
6270,0.6416427,1.3431402,6.8856888,97.5343475,-250.1374054,-250.1374054,0.2968795,0.2561783,10.7594872,-0.6412213,-4.2290077,-3.2748091
6280,-5.6909885,2.7652888,6.0261750,114.7938919,-235.1450348,-250.1374054,0.4381367,0.1580165,10.7570934,-0.5038168,-4.3129773,-2.1679389
6290,-9.5216913,3.3015873,3.7085996,133.3893127,-190.4885559,-250.1374054,0.3830703,0.2346306,10.7092094,-0.2671756,-4.0381680,-2.5267177
6300,-13.1967726,4.0342093,0.7829000,134.9007568,-155.3282471,-250.1374054,0.3710994,0.2681492,10.6038647,-0.4274809,-4.7786260,-2.8473282
6310,-18.2173882,5.7173243,-0.8954269,121.6488571,-126.9389343,-250.1374054,0.3830703,0.4189832,10.6661139,-0.3740458,-5.2442746,-2.3969467
6320,-19.6131992,7.3405848,-2.6599445,95.6870193,-83.4122162,-228.3664093,0.4884146,0.4381367,10.6421719,-0.8854962,-5.6564884,-2.6488550
6330,-19.6131992,8.9710283,-4.9032998,48.9771004,-25.8854961,-85.1297684,0.4094064,0.5195391,10.7331514,-0.6870229,-5.9160304,-2.3053436
6340,-19.6131992,9.6414013,-6.0620875,-11.5419846,39.6870232,55.6641235,0.4644727,0.5554519,10.8289185,-0.3587786,-5.4045801,-1.5038168
6350,-17.5613804,9.2391768,-5.1115947,-70.3282471,109.4809189,192.0686951,0.5458752,0.6033357,10.8337069,0.6183206,-4.6564884,0.0992366
6360,-16.3858318,8.2527714,-2.8538737,-113.4809189,182.1832123,250.1297760,0.7302278,0.6320660,10.8073711,1.5877863,-3.4503818,0.3740458
6370,-15.4592810,6.6534524,-1.3120158,-143.4961853,250.1297760,250.1297760,0.7302278,0.5267217,10.7163916,2.2900763,-2.5877862,-0.3282443
6380,-14.5231533,4.4053087,-0.2849085,-168.4045868,250.1297760,250.1297760,0.7350162,0.4453192,10.6110477,1.7022901,-1.9236641,-1.0229008
6390,-11.8608141,2.0637913,0.8020535,-190.1603088,250.1297760,250.1297760,0.7398046,0.4668669,10.6014709,0.9694657,-2.3206108,-2.0152671
6400,-8.3437500,0.1939293,1.9632354,-207.9694672,250.1297760,250.1297760,0.6392486,0.4094064,10.5009146,0.2290076,-2.9160306,-3.1068702
6410,-4.1323709,-1.6591733,3.6870518,-222.7786255,250.1297760,250.1297760,0.5506636,0.3088504,10.6038647,-0.5038168,-3.3587787,-3.6259542
6420,0.1053443,-3.0525916,6.3493905,-234.6870270,250.1297760,250.1297760,0.5051740,0.1963235,10.6397781,-0.9541985,-3.8396947,-4.0687022
6430,3.1699069,-4.2185616,8.3102312,-238.2442780,250.1297760,250.1297760,0.4189832,0.1388630,10.7810354,-0.5725191,-3.3893130,-4.6259542
6440,6.6151457,-5.5952206,9.9119444,-224.2213745,250.1297760,250.1297760,0.3543400,0.2178712,10.8791971,0.2824427,-2.9541984,-4.7175574
6450,16.7712975,-4.9727316,15.0331154,-177.4656525,152.1755676,250.1297760,0.2968795,0.1436514,10.7546988,0.7022901,-2.7633588,-4.7404580
6460,19.6126022,-6.1051831,19.6126022,-86.5190811,-2.6717558,250.1297760,0.2466015,0.2442073,10.7499104,0.9541985,-2.4732823,-4.6641221
6470,19.6126022,-8.8776541,18.8686066,26.5114498,-103.1068726,-68.8473282,0.2226596,0.2226596,10.6254129,0.6793893,-2.8167939,-4.1221375
6480,19.6126022,-4.6614871,18.2293587,112.1908417,-250.1374054,-250.1374054,0.3375807,0.3016679,10.5128860,0.0763359,-3.6106870,-3.6259542
6490,19.6126022,-5.2767935,11.9781294,139.2519073,-250.1374054,-250.1374054,0.3303981,0.3256098,10.5320396,-0.8015267,-4.3358779,-2.9083970
6500,16.7305965,-5.9830794,9.7132263,145.1832123,-250.1374054,-250.1374054,0.4165890,0.3567342,10.5535870,-1.5038168,-5.0152674,-2.3740458
6510,11.4609852,-5.2672167,8.6406298,148.7328186,-250.1374054,-250.1374054,0.4405309,0.3088504,10.7403336,-1.8244275,-5.5114503,-2.8091602
6520,5.2456689,-2.7293761,6.8665352,157.6946564,-250.1374054,-250.1374054,0.4261657,0.2849085,10.7020273,-1.8015267,-5.4885497,-2.5954199
6530,-3.9408360,0.6416427,5.7388721,166.5190887,-250.1374054,-250.1374054,0.3758878,0.2681492,10.8337069,-1.2213740,-5.3969464,-2.8320611
6540,-10.5847120,2.0973101,4.5729017,175.4885559,-238.3053436,-250.1374054,0.3495516,0.2466015,10.8313131,-0.1679389,-4.8091602,-1.8854961
6550,-13.4074612,0.8044477,1.6160779,180.8015289,-212.9770966,-250.1374054,0.3088504,0.2346306,10.8959560,1.1984733,-3.8015268,-1.1374046
6560,-18.0234585,2.5210814,-0.0574605,172.3206177,-196.0763397,-250.1374054,0.2609667,0.2561783,10.8408899,2.3511450,-3.4045801,-0.6412213
6570,-19.6131992,6.0309634,-1.9823889,141.3511505,-154.0686951,-250.1374054,0.3232156,0.2274480,10.7211800,2.8015268,-3.1984732,-0.1374046
6580,-19.6131992,8.2479830,-4.8721757,94.3740463,-76.1908417,-231.5114441,0.3878587,0.3040621,10.6517487,2.4580152,-3.5343511,0.0305344
6590,-19.6131992,9.3660688,-7.2615767,27.7633591,7.8167939,-45.0381660,0.3687052,0.4165890,10.4290895,1.2366412,-4.5343513,-0.1984733
6600,-19.6131992,9.3828287,-8.3150196,-56.1755714,106.4885483,156.0686951,0.3710994,0.4118006,10.5033092,-0.1984733,-5.3282442,-0.0076336
6610,-19.6131992,7.7116842,-6.6223278,-135.9465637,204.7328186,250.1297760,0.5362985,0.4979914,10.5511932,-0.9694657,-6.1068702,0.6259542
6620,-19.6131992,5.2887645,-3.4332676,-187.3435059,250.1297760,250.1297760,0.5291159,0.4812321,10.7283630,-0.9236641,-6.3511453,0.6946565
6630,-17.3602676,2.2026544,-0.8714849,-216.0305328,250.1297760,250.1297760,0.7134684,0.5410868,10.8384953,-0.6106870,-5.9389315,0.3587786
6640,-12.7514534,-0.3830703,0.6488253,-236.0992432,250.1297760,250.1297760,0.8116302,0.5219333,10.8432837,0.0534351,-4.7938933,0.0763359
6650,-8.0803890,-2.1667414,2.6024840,-250.1374054,250.1297760,250.1297760,0.7972651,0.5626345,10.7977943,0.1832061,-3.8320611,-1.2595420
6660,-2.0829449,-3.9408360,6.0620875,-250.1374054,250.1297760,250.1297760,0.7709290,0.5626345,10.6589317,0.2061069,-3.0839694,-2.2290077
6670,3.3901722,-3.3494711,9.0907373,-243.2213745,250.1297760,250.1297760,0.7661406,0.5267217,10.6445665,-0.0992366,-2.7633588,-2.3816793
6680,8.2288294,-3.7421181,10.2998028,-202.7022858,233.0534363,250.1297760,0.6009415,0.3926471,10.6278067,-0.5343512,-3.0305343,-3.0916030
6690,18.4615955,-2.4301023,13.4409800,-128.8015289,109.5343475,250.1297760,0.6272776,0.3639168,10.6158361,-1.0458015,-3.4732823,-4.2519083
6700,19.6126022,-3.3686244,15.8447456,-18.8015270,-36.3129768,246.9160309,0.5123565,0.2561783,10.6996326,-0.8625954,-4.1068702,-5.0000000
6710,19.6126022,-4.4316444,13.4673157,75.9083939,-165.6488495,-161.1145020,0.3543400,0.2585725,10.6709023,-1.4885496,-3.9083970,-5.5190840
6720,19.6126022,-3.0071020,8.6286592,75.1755753,-250.1374054,-250.1374054,0.4094064,0.2753318,10.7618818,-1.2061069,-3.5648854,-5.3206105
6730,19.6126022,-4.0174499,6.0908179,33.0381660,-250.1374054,-250.1374054,0.2801202,0.2059003,10.7355452,-0.6564885,-3.4656489,-4.6793895
6740,15.4449158,-4.5345950,8.0660238,15.4351149,-250.1374054,-250.1374054,0.2777260,0.1939293,10.7618818,-0.2137405,-3.7404580,-4.1832061
6750,8.7962523,-4.3765783,8.8513184,29.4503822,-250.1374054,-250.1374054,0.3591284,0.1771700,10.7116032,0.0152672,-3.4580152,-4.0687022
6760,2.1308286,-2.6527619,8.9518747,59.7022896,-250.1374054,-250.1374054,0.3280039,0.2035061,10.6613255,0.0305344,-3.2213740,-3.7404580
6770,-5.7364779,-0.4812321,8.6956959,94.6793900,-237.8167877,-250.1374054,0.3687052,0.2298422,10.6924505,0.0229008,-3.4580152,-3.5190840
6780,-11.1210098,0.2873027,6.7492199,132.7251892,-194.4503784,-250.1374054,0.3615226,0.2370248,10.6254129,-0.3435115,-3.5419848,-3.3664122
6790,-15.4185801,1.4580613,3.7325413,156.5954132,-146.7557220,-250.1374054,0.3998296,0.2442073,10.6565371,-0.5267175,-3.8015268,-2.9312978
6800,-19.6131992,4.0461802,0.8858501,153.8091583,-98.8167953,-250.1374054,0.2968795,0.3064562,10.6445665,-1.0381680,-4.3206105,-2.4809160
6810,-19.6131992,7.3022780,-2.7700772,121.9694672,-28.0839691,-225.5954132,0.3567342,0.2801202,10.6924505,-1.1603054,-5.3358779,-2.3969467
6820,-19.6131992,9.2703018,-6.5169835,56.8625946,71.2595444,-13.5267172,0.2992737,0.2849085,10.8193426,-0.4885496,-5.1374044,-1.4427481
6830,-19.6131992,9.1410151,-8.6669655,-32.2519073,166.5038147,210.2824402,0.3232156,0.3854645,10.8001890,-0.1374046,-5.8854961,-1.2977099
6840,-19.6131992,6.7133074,-6.6486640,-123.4274826,241.5801544,250.1297760,0.3447633,0.3064562,10.8025827,-0.0076336,-6.2137403,-0.9770992
6850,-19.6131992,4.5010762,-2.9544299,-182.8320618,250.1297760,250.1297760,0.3471575,0.3303981,10.8073711,0.5725191,-5.5496182,-0.1984733
6860,-15.9668493,1.0223188,-0.3710994,-216.8167877,250.1297760,250.1297760,0.4333483,0.3782819,10.7355452,1.0916030,-5.0381680,0.6412213
6870,0.1651991,-3.1794837,8.9686337,42.7251892,-250.1374054,-250.1374054,0.5315101,0.2202654,10.8121595,0.0992366,-2.5114503,-4.9389315
6880,-9.2176294,-0.2394189,9.5504217,87.3129807,-250.1374054,-250.1374054,0.4141948,0.1675933,10.6852674,0.5267175,-2.3358779,-5.5419846
6890,-15.5071650,1.6160779,8.7579451,141.8396912,-250.1374054,-250.1374054,0.3136388,0.2154770,10.6158361,0.7251908,-2.2900763,-5.5496182
6900,-17.7265778,3.8666160,4.4436154,181.2824402,-190.3740387,-250.1374054,0.2537841,0.1963235,10.6445665,0.6030535,-2.6946564,-5.0305343
6910,-19.6131992,8.8010406,-0.9193687,173.0381622,-98.9542007,-250.1374054,0.3327923,0.2753318,10.6134415,0.1221374,-2.9236641,-4.1603055
6920,-19.6131992,10.2447367,-6.0644817,112.5114517,27.7022896,-117.3206100,0.2753318,0.2968795,10.8265247,-0.0763359,-3.6412213,-3.1832061
6930,-19.6131992,11.3652172,-9.7132263,19.6335869,156.7404633,136.0610657,0.2322364,0.2968795,10.7139978,-0.0916031,-3.9694657,-2.4198472
6940,-19.6131992,8.7770987,-9.2535419,-91.4198456,250.1297760,250.1297760,0.2633608,0.3088504,10.7475166,0.1984733,-4.2977099,-1.5419847
6950,-19.6131992,5.9304070,-4.7045822,-171.4198456,250.1297760,250.1297760,0.3375807,0.3112446,10.6756907,0.2442748,-4.3435116,-1.1603054
6960,-15.7202482,2.0661855,-0.7733232,-213.6335907,250.1297760,250.1297760,0.3615226,0.2801202,10.7020273,0.0916031,-4.5496182,-0.8931298
6970,-11.3532467,-1.1947005,2.6790979,-235.9236603,250.1297760,250.1297760,0.4285599,0.2346306,10.6661139,0.0534351,-5.0839696,-0.6564885
6980,-4.4891052,-2.7820482,7.4459291,-235.2671814,250.1297760,250.1297760,0.3615226,0.2753318,10.7235746,-0.1068702,-5.5954199,-0.9541985
6990,2.3223639,-4.0078731,10.3716288,-206.6870270,250.1297760,250.1297760,0.4213773,0.2681492,10.6828737,-0.1832061,-5.8396945,-0.8702290
7000,5.2336984,-5.5401545,10.5966825,-156.5267181,250.1297760,250.1297760,0.4213773,0.2466015,10.7044210,-0.2137405,-6.0534353,-0.0458015
7010,14.6500454,-2.8610563,14.6117382,-77.9083939,154.6183167,250.1297760,0.4477134,0.3663110,10.6086531,-0.0229008,-5.7862597,-0.3587786
7020,19.6126022,1.4149660,15.8686876,38.0534363,-32.9618340,250.1297760,0.5626345,0.3591284,10.7930059,-0.0305344,-5.2366414,0.1221374
7030,19.6126022,-2.8083842,9.2846670,127.7938919,-183.6946564,-30.8778629,0.5985473,0.3758878,10.8337069,0.4656489,-4.8396945,0.7786260
7040,19.6126022,-0.9361281,3.0837159,111.7938919,-250.1374054,-250.1374054,0.7541697,0.4094064,10.7930059,0.8473282,-4.5877862,0.4656489
7050,19.6126022,-0.5051740,2.9185169,39.9465637,-250.1374054,-250.1374054,0.7086801,0.4812321,10.6493549,1.0992366,-4.4961834,0.0229008
7060,15.8638992,-2.1906834,4.6854286,-6.2290077,-250.1374054,-250.1374054,0.7398046,0.5123565,10.6397781,0.9923664,-4.2213740,-0.5648855
7070,11.2646618,-2.8658447,7.1322904,-12.2290077,-250.1374054,-250.1374054,0.7589580,0.5027798,10.6469603,0.5725191,-3.3511450,-1.4198474
7080,4.5992379,-2.0422437,7.8218169,9.7022905,-250.1374054,-250.1374054,0.6823440,0.5458752,10.5320396,0.2366412,-2.5419848,-2.3435113
7090,-2.0997043,-0.0023942,7.9534974,43.6106873,-250.1374054,-250.1374054,0.6775556,0.4596844,10.6110477,-0.1755725,-3.0839694,-2.9847329
7100,-7.7380204,1.4532729,7.8649125,85.2366409,-237.5343475,-250.1374054,0.6607963,0.3543400,10.6948442,-0.6259542,-4.0305343,-3.9007633
7110,-11.7027979,1.3096216,5.8059096,124.2366409,-203.1221313,-250.1374054,0.4788379,0.3064562,10.6804790,-0.8625954,-4.6183205,-4.8778625
7120,-16.5630035,2.5665710,2.9328821,141.6259613,-165.7633514,-250.1374054,0.5243275,0.2896969,10.7163916,-1.4885496,-4.1145039,-4.9465647
7130,-19.6131992,6.6750002,-0.7757174,124.9542007,-103.1145020,-250.1374054,0.3878587,0.2250538,10.7930059,-0.9541985,-3.3053436,-4.2824426
7140,-19.6131992,8.5927458,-4.2305326,83.8091583,-9.5419846,-144.6564941,0.4118006,0.2059003,10.8887739,0.5419847,-2.6030533,-4.2671757
7150,-19.6131992,9.8305416,-9.5192976,0.1679389,98.7633591,85.7557220,0.4094064,0.1460456,10.8504667,1.5038168,-2.2519083,-3.7251909
7160,-19.6131992,8.4610653,-10.7331514,-109.5801544,190.2595367,250.1297760,0.4860204,0.1747758,10.7355452,1.9847329,-1.4809160,-4.0458016
7170,-19.6131992,6.2967181,-6.4307928,-198.7480927,250.1297760,250.1297760,0.4548960,0.2298422,10.7068148,1.9923664,-1.2748091,-3.9083970
7180,-19.1654873,2.8275378,-2.2481439,-249.5343475,250.1297760,250.1297760,0.4022238,0.2035061,10.5631638,1.6412214,-1.8015267,-4.1374044
7190,-15.4856176,-1.0127422,0.9337339,-250.1374054,250.1297760,250.1297760,0.2705434,0.2920911,10.5128860,0.8396947,-3.0458016,-3.1221373
7200,-11.8320847,-4.1634955,3.2321558,-250.1374054,250.1297760,250.1297760,0.2059003,0.2705434,10.5176744,0.0381679,-3.6488550,-2.7251909
7210,-6.1626434,-6.2895355,6.4523406,-250.1374054,250.1297760,250.1297760,0.2585725,0.3064562,10.6325951,-0.6030535,-4.4045801,-2.1984732
7220,0.3926471,-6.2991123,10.1657286,-250.1374054,250.1297760,250.1297760,0.2394189,0.2873027,10.6804790,-0.7480916,-4.3893127,-1.7938931
7230,5.1475072,-6.3086891,12.7658186,-212.8015289,250.1297760,250.1297760,0.2920911,0.1771700,10.7259684,-0.6870229,-5.4045801,-0.9236641
7240,10.0962973,-6.4930420,14.4106264,-145.4198456,212.1297760,250.1297760,0.2968795,0.1651991,10.7762470,0.1603053,-6.1832061,-0.8931298
7250,18.8638191,-2.5905130,15.9046001,-61.2977104,100.0916061,250.1297760,0.3663110,0.2777260,10.7355452,0.4045801,-5.8778625,-1.3816794
7260,19.6126022,-2.4037662,15.5765963,33.9465637,-20.0458012,250.1297760,0.3136388,0.2705434,10.7570934,0.4198473,-5.7404580,-0.3816794
7270,19.6126022,-5.2073622,10.3716288,99.1755753,-107.0381699,-68.8244247,0.3447633,0.3878587,10.6780853,0.9007633,-5.1374044,0.1908397
7280,19.6126022,-2.1739240,8.2431946,102.0610657,-223.8473358,-250.1374054,0.3615226,0.4405309,10.6206245,0.9236641,-5.5267177,1.2213740
7290,19.6126022,-1.6543850,6.6630292,75.3129807,-250.1374054,-250.1374054,0.5841822,0.4716553,10.7331514,0.8320611,-5.5114503,2.1221373
7300,15.2294388,-1.6831152,6.3326311,61.8702278,-250.1374054,-250.1374054,0.7972651,0.4836263,10.6469603,0.8091603,-4.8625956,1.7251909
7310,11.6046362,-0.7350162,7.1586266,65.6488571,-250.1374054,-250.1374054,0.8810617,0.5195391,10.7139978,0.3206107,-4.6564884,0.3969466
7320,7.9702568,0.6464311,7.1083484,82.5038147,-250.1374054,-250.1374054,0.8427547,0.6177009,10.5248566,0.1297710,-4.2748094,-0.3206107
7330,3.1603301,2.3582766,5.9016771,103.9083939,-229.8854980,-250.1374054,0.7661406,0.5889706,10.6972389,0.0839695,-3.0763359,-1.1221374
7340,-1.4532729,3.4236910,4.7500720,121.2748108,-182.7938995,-250.1374054,0.7038917,0.5147507,10.5775290,-0.2977099,-3.4274809,-1.3816794
7350,-5.6263452,3.2967989,3.1220231,131.4809113,-150.8473358,-250.1374054,0.6847382,0.4644727,10.5583754,-0.7480916,-3.2061069,-2.6183207
7360,-10.2399483,2.6383967,1.9991482,137.4580078,-139.7557220,-250.1374054,0.6679789,0.4046180,10.7259684,-1.1603054,-3.5572519,-3.2061069
7370,-17.3554802,3.4763632,1.6352314,144.1755676,-148.9084015,-250.1374054,0.6344602,0.3543400,10.6517487,-1.1755725,-3.4656489,-4.1984735
7380,-19.6131992,6.1722202,-0.4572902,140.1603088,-150.8931274,-250.1374054,0.5746055,0.2825144,10.6996326,-1.1145039,-3.5648854,-5.1221375
7390,1.0773853,4.6662750,2.9568241,196.7404633,-147.8702240,-250.1374054,1.2138541,-0.2202654,13.9389706,45.1374054,85.3664093,16.9847336
7400,-0.7972651,5.3174949,-1.1851238,178.0610657,-103.0457993,-250.1374054,0.9935886,-0.4932030,14.5327301,63.0916023,105.4198456,16.3282452
7410,-1.8411317,4.8602047,-2.9759774,142.1755676,-66.1145020,-250.1374054,0.4572902,-0.5530578,14.3890781,82.0687027,119.8244247,15.8396950
7420,-5.8154860,4.5657191,-4.3454537,96.6641235,-40.6412201,-250.1374054,-0.0670373,-0.4716553,14.3531656,100.2366409,132.5190887,18.5801525
7430,-11.9470053,4.1850433,-4.2999644,49.2824440,-36.9389305,-250.1374054,-0.4932030,-0.6248835,14.8224268,118.8549652,153.9847260,22.8625946
7440,-19.6131992,4.3382711,-3.3351059,13.5419846,-56.8091621,-250.1374054,-1.4413021,-0.6895266,15.8351688,141.8854980,180.2900696,31.2137413
7450,-19.6131992,4.8266859,-1.7238164,-1.7633588,-105.7175598,-227.4656525,-2.6407909,-0.7661406,16.2373924,164.3053436,183.8854980,43.5572510
7460,-19.6131992,6.8569584,-2.0230901,-4.0229006,-111.2900772,-121.8473282,-2.5785420,-0.9504932,15.8806591,185.9313049,176.1832123,57.0687027
7470,-19.6131992,8.2479830,-3.5697365,-25.2137413,-61.0458031,-8.8091602,-2.0422437,-0.6584021,15.0498753,206.6946564,172.2671814,66.0916061
7480,-19.6131992,7.4363523,-4.5896611,-72.4427490,1.3282443,107.4580154,-1.5083394,-0.3591284,14.1496601,226.0763397,179.0381622,71.0610657
7490,-18.8925495,6.0381460,-4.1706781,-130.2977142,40.2824440,217.8091583,-1.5490406,0.0598547,13.2231083,240.1297760,188.8320618,73.4045792
7500,-17.2980194,4.4220681,-2.9855542,-178.8244324,62.0534363,250.1297760,-1.2593436,0.7900825,11.9541883,244.7175598,174.2519073,71.1908417
7510,-14.3388004,2.8658447,-2.0326669,-210.7938995,67.6106873,250.1297760,-0.5243275,1.6591733,10.6924505,237.7786255,146.9389343,60.9007645
7520,-10.1322098,1.6304430,-1.1252691,-231.6106873,70.9694672,250.1297760,-0.3830703,2.4588325,10.0508070,224.3511505,126.8549652,45.8473282
7530,-5.5664907,0.7158626,0.3351865,-245.6488495,74.1068726,250.1297760,-1.5322813,3.1363883,10.1393919,211.6488495,114.0687027,31.5419846
7540,-1.5418580,-0.8140244,1.9105632,-250.1374054,73.5954208,250.1297760,-2.9424589,3.5290353,10.3644457,205.0686951,95.0457993,24.2977104
7550,2.4947455,-2.4229198,3.5122759,-250.1374054,64.9465637,250.1297760,-3.5050933,3.7923961,10.1154509,202.8396912,77.5496216,23.0687027
7560,9.3995876,-2.8658447,6.8354111,-247.5725250,48.8702278,250.1297760,-3.5936785,4.0222383,9.5192976,203.8167877,69.5725174,25.0381680
7570,16.3594971,-2.0518203,10.5775290,-217.1450348,38.1297722,250.1297760,-3.2489152,4.2664456,8.6526003,207.1755676,72.2061081,27.4580154
7580,19.6126022,-0.7158626,14.3866844,-163.7709961,24.6870232,250.1297760,-2.8203552,4.4388270,7.7547798,211.6259613,76.7786255,28.2519093
7590,19.6126022,0.6320660,17.5470142,-90.2595444,-0.3435115,163.5190887,-2.7150109,4.6519103,6.7611909,214.9465637,88.7480927,28.4885502
7600,19.6126022,1.2354017,18.9787407,-12.2366409,-34.2442741,8.0381680,-2.9783716,5.1499014,6.1794028,217.4656525,106.8702316,30.6106873
7610,19.6126022,0.9696468,18.5621510,63.2824440,-65.8931274,-139.4198456,-3.1004753,5.3079181,5.3941088,219.0915985,116.3358765,34.3206100
7620,19.6126022,0.3280039,16.0027618,130.9160309,-103.6030502,-250.1374054,-3.6080434,5.2552457,4.7261300,218.9007568,120.4732819,38.2748108
7630,17.3770275,-0.0718257,12.4497852,186.9160309,-121.0381699,-250.1374054,-4.0150557,5.5066357,4.1539187,215.9313049,116.7557220,42.9160309
7640,14.0754395,0.6967092,10.4506369,228.7862549,-114.6259537,-250.1374054,-4.5705075,5.6526814,3.4117200,207.0458069,105.7480927,47.7938919
7650,10.9103212,1.7812769,7.2807302,250.1297760,-89.0381699,-250.1374054,-5.8442163,6.2320752,2.6982515,195.1526642,89.5114517,54.6183205
7660,7.9104018,3.0717452,2.7221935,244.3511505,-40.8778610,-250.1374054,-6.4930420,6.5888095,1.4341195,178.9160309,47.9236641,64.1068726
7670,4.7668314,4.0868812,0.6392486,218.9923706,21.0000000,-250.1374054,-6.3015065,6.9718795,-0.5147507,151.5038147,-12.0076332,68.3282471
7680,2.5522060,4.8123207,-1.5729824,192.2213745,76.0916061,-250.1374054,-5.6024032,7.2400289,-3.0023136,121.1603088,-108.4961853,72.0687027
7690,-0.3351865,5.1906028,-4.8913293,146.2671814,135.4885559,-250.1374054,-4.3143296,7.3214312,-5.1618724,84.0076370,-205.0915985,72.7175598
7700,-3.1579359,6.0309634,-5.7125359,99.1679382,182.1603088,-250.1374054,-2.3558824,7.6422529,-6.1171541,43.6946564,-250.1374054,68.3129807
7710,-6.4547348,5.1714492,-5.3510137,55.2061081,169.4274750,-250.1374054,-0.5267217,8.0779953,-6.3781209,4.2900763,-250.1374054,60.2061081
7720,-10.2351599,4.1323709,-4.4460096,29.8854961,135.2824402,-250.1374054,0.5578461,8.3437500,-6.2847471,-30.8167934,-250.1374054,51.8702278
7730,-14.5351238,4.3382711,-1.7477583,33.1068687,65.7709961,-247.6030579,1.4508789,8.3413563,-5.6095858,-63.0228996,-250.1374054,45.1526718
7740,-16.8838234,4.4675574,-0.8786675,62.4732819,8.4885492,-228.2900696,2.2385671,8.1330614,-4.8458395,-88.9312973,-224.0152740,36.9083977
7750,-19.2492828,4.7835903,-2.2505381,81.1984711,-35.6564903,-202.7786255,3.1363883,7.8553357,-4.5058646,-111.9542007,-205.0534363,23.3053436
7760,-19.6131992,5.4395986,-4.4723458,66.5801544,-63.3893127,-162.3816833,3.8019729,6.9886389,-4.4747400,-136.8931274,-197.9770966,7.6183205
7770,-19.6131992,5.9399838,-5.8250628,27.0305347,-59.8549614,-105.1908417,3.9049230,6.2919297,-3.9743545,-165.2366486,-184.7786255,-7.7099237
7780,-19.6131992,5.6742291,-5.4036856,-19.5496178,-56.7633591,-40.9236641,3.4931223,5.6191626,-2.4157372,-194.8854980,-156.4045868,-18.3358784
7790,-19.6131992,5.2720051,-4.4962878,-53.7404594,-64.9236679,27.6183205,2.8658447,5.1810260,-0.3615226,-220.2290039,-117.7786255,-23.8702297
7800,-19.6131992,4.8171091,-3.6750808,-72.8015289,-76.8320618,96.0839691,2.3079987,4.6543045,1.9440818,-237.5572510,-77.9694672,-29.2366409
7810,-18.8877602,4.3310885,-3.5362179,-90.0229034,-92.0687027,164.8931274,1.2138541,3.8594334,4.0629396,-248.6183167,-39.3206100,-31.6335869
7820,-16.8886127,5.0158267,-3.0238612,-103.7022934,-72.6870193,240.1221313,0.1149211,3.6870518,6.4068508,-245.9084015,-8.9083967,-35.6641235
7830,-12.9214401,5.6933827,-1.7932479,-113.3740463,-65.4961853,250.1297760,-0.4094064,3.7804251,7.8649125,-233.6870270,6.8167939,-37.6259537
7840,-9.7658987,5.6933827,-1.2689204,-117.9007645,-55.0992355,250.1297760,-0.6895266,3.2417326,8.0348997,-219.0152740,9.2900763,-39.8320618
7850,-7.4459291,4.4723458,-2.0039365,-122.4885483,-47.2213745,250.1297760,-0.5482694,2.8514795,7.3812861,-209.8549652,9.4503813,-41.9007645
7860,-4.2257442,3.1746953,-1.9632354,-136.0076294,-54.7786255,250.1297760,-0.1987177,2.8155668,6.6486640,-211.8931274,10.7022905,-45.7938919
7870,0.2657550,2.6958573,-0.4070122,-148.8625946,-69.5419846,250.1297760,-0.0335187,2.7293761,6.1746144,-228.6641235,20.8167934,-49.6793900
7880,4.5489597,1.8219782,1.0366840,-152.0839691,-72.6717529,250.1297760,-0.3136388,2.2960277,7.3286138,-250.1374054,43.6488533,-52.6106873
7890,9.9047613,1.3072275,3.4141142,-144.2137451,-71.7862625,250.1297760,-0.9121862,1.9512644,9.2056589,-250.1374054,64.7557220,-55.4885483
7900,16.9245243,2.2242019,6.6079631,-121.9847336,-76.0916061,250.1297760,-1.9776005,1.2689204,11.3460636,-250.1374054,67.1603088,-57.6259537
7910,19.6126022,3.8235207,10.2279778,-81.6870193,-74.9312973,250.1297760,-3.2752512,0.4908088,14.0634689,-250.1374054,51.8320618,-57.4885483
7920,19.6126022,5.4132624,13.3284531,-21.3893127,-41.2977104,146.4427490,-4.1347651,-0.2657550,15.9453020,-236.6793823,31.4961834,-53.1755714
7930,19.6126022,5.9351954,15.3347836,43.6946564,-1.8244275,23.0229015,-4.4053087,-0.3806761,16.3762550,-198.5954132,10.3511448,-48.2900772
7940,19.6126022,4.8961172,14.7529955,102.8167953,13.1908398,-77.3358765,-3.9121056,-0.1460456,15.6364517,-162.2748108,-7.0229006,-43.5343513
7950,19.6126022,4.4053087,13.1824074,147.8396912,-21.6259537,-170.5572510,-3.1962428,0.2418131,14.5782194,-134.5419922,-13.7328243,-39.9923668
7960,18.7201672,2.8371146,9.7347746,164.7557220,-33.7557259,-242.1908417,-2.3510940,0.7541697,13.7187052,-120.7022934,-3.4122138,-36.8778610
7970,14.7122946,2.7557120,8.1857338,176.2977142,-38.0228996,-250.1374054,-4.3119354,1.4484847,13.5678720,-124.2366409,-24.5419846,-33.4274826
7980,11.8919392,2.9831600,6.5983863,184.6335907,-14.0381680,-250.1374054,-5.0900469,0.9409165,14.7889080,-157.0686951,-142.1374054,-32.9465637
7990,9.1314383,3.2608860,4.9320302,188.1374054,17.2748089,-250.1374054,-4.8434453,1.2210367,16.5941277,-182.0152740,-203.1679382,-32.8167953
8000,6.5121951,3.7636659,2.6838863,184.1908417,47.5954208,-250.1374054,-3.4189026,-0.0718257,17.7864342,-174.3358765,-210.0839691,-25.6641216
8010,3.8450682,4.3717899,0.0646431,173.0534363,81.1374054,-250.1374054,-0.7421987,-0.5243275,17.5661678,-143.0763397,-172.7251892,-28.9694653
8020,1.2976507,4.4172797,-1.7501525,159.2824402,108.4274826,-250.1374054,-0.2489957,-1.6998745,17.2956238,-100.8320618,-133.8091583,-34.4656487
8030,-2.5091105,3.3973548,-3.3997490,146.9389343,101.2061081,-250.1374054,-0.1508339,-1.5777708,16.9101601,-54.2366409,-109.6030502,-37.0610695
8040,-7.7739329,2.0230901,-4.6064205,140.3511505,51.1297722,-250.1374054,-0.5578461,-0.8619082,15.6101151,-9.6793890,-71.7404556,-35.7251892
8050,-13.8862991,1.5873476,-5.1977854,141.9847260,-39.6641235,-250.1374054,-1.4197544,-0.0694315,14.0251617,25.5267181,-37.8091621,-29.5496178
8060,-19.2516766,2.7844424,-7.3932571,140.2061005,-117.1526718,-250.1374054,-2.0637913,0.5650287,11.9709473,47.3053436,-21.2366409,-19.1374054
8070,-19.6131992,4.1706781,-7.7523856,121.4809189,-149.4961853,-250.1374054,-2.3391230,0.8523315,10.5368280,55.1755714,-17.7786255,-8.0687027
8080,-19.6131992,5.1690550,-7.2304521,80.3587799,-142.3816833,-206.3511505,-2.2218077,1.1851238,9.1697454,49.4122124,-24.4274807,1.2900764
8090,-19.6131992,4.6088147,-6.2153158,29.4961834,-98.1297684,-112.1832047,-1.8722562,1.4628497,8.2216463,34.2671738,-32.6412201,8.6793890
8100,-19.6131992,4.0988522,-4.5992379,-22.6030540,-43.9694672,-3.5648854,-1.5418580,1.5179161,7.7021074,13.1679392,-43.1984749,13.8015270
8110,-19.6131992,3.8857694,-3.5912843,-59.4045792,7.0687022,100.9160309,-1.1348459,1.4389079,7.5656385,-9.1374044,-52.8167953,17.9694653
8120,-19.6131992,4.0150557,-3.4260850,-82.8244247,54.0152664,193.0992432,-0.8882443,1.1061156,7.7643566,-28.4885502,-59.1450386,22.0763359
8130,-19.5413742,3.7852135,-4.0246325,-105.4503784,98.8854980,250.1297760,-0.3782819,0.6967092,8.5185261,-42.0534363,-63.0381660,25.7099228
8140,-18.1120434,3.1914546,-3.5912843,-127.3129807,121.9542007,250.1297760,0.0407012,0.5003856,9.1673517,-49.7480927,-64.5572510,27.5343513
8150,-14.7218714,2.9640064,-2.5569944,-142.7251892,128.2442780,250.1297760,0.3878587,0.2873027,10.1776991,-52.5419846,-65.1755753,27.9083977
8160,-11.0156660,2.4803803,-1.5586174,-154.4351196,127.0076370,250.1297760,0.8762733,0.1867468,10.7930059,-53.1374054,-62.4427490,27.9236641
8170,-7.2376347,2.0111191,-0.8834559,-164.5114441,129.7099304,250.1297760,1.0390782,-0.0598547,11.6692791,-51.6106873,-60.1526718,26.8549614
8180,-4.5513539,1.5897418,0.0191535,-171.6870270,123.9847336,250.1297760,1.5753766,-0.3471575,12.9501705,-48.8473282,-77.9542007,24.4809170
8190,-0.6081241,0.8738791,-0.4788379,-182.2290039,144.0992432,250.1297760,2.5713594,-0.6296718,13.1033993,-38.0610695,-59.2671738,18.8244267
8200,3.3782012,-0.0430954,0.9002152,-192.6106873,168.9389343,250.1297760,2.7006457,-0.8427547,13.1967726,-20.3816795,-34.6106873,12.5190840
8210,8.2862902,-0.5315101,3.9384418,-191.3206177,182.0076294,250.1297760,2.5905130,-0.8140244,13.1536770,-1.8320611,-12.3969469,7.2595420
8220,13.6899757,-0.1723816,8.4036045,-164.5343475,166.7709961,250.1297760,2.5138988,-0.5913648,12.7490587,11.6259546,2.3358779,1.9770992
8230,19.3115330,1.1444225,13.8336267,-112.7175598,145.3587799,250.1297760,2.3199697,-0.3687052,11.9086981,19.7633591,16.1832066,-2.3358779
8240,19.6126022,3.8666160,18.5453911,-41.4274826,123.0457993,211.1755676,1.9560528,-0.2130829,11.2742386,24.7022896,26.7099228,-5.8091602
8250,19.6126022,6.5169835,19.6126022,60.7709923,64.7786255,78.8396912,1.5442522,-0.0215477,10.8744087,27.1374054,32.9618340,-7.9923663
8260,19.6126022,6.5792327,19.6126022,156.6259613,11.7709923,-51.3435097,1.1348459,0.1197095,10.5320396,27.7938938,35.9236641,-8.9465647
8270,19.6126022,5.2959471,18.8446655,230.5114441,-28.2595425,-159.6259613,0.6751614,0.1915352,10.4482431,26.5648861,33.9923668,-9.8778629
8280,18.0210648,3.6631098,14.1664190,250.1297760,-43.3282433,-232.3664093,0.2394189,0.2801202,10.2926207,24.7175579,30.3282452,-9.9389315
8290,10.4147243,5.1834202,7.5440907,250.1297760,-60.9465637,-250.1374054,0.0454896,0.4525018,10.2567072,22.0610695,26.6793900,-9.1068707
8300,7.8960366,7.8266053,4.0030847,215.1374054,-126.4198456,-250.1374054,-0.0574605,0.6057299,10.1489687,18.6564884,22.6870232,-8.7862597
8310,9.1936874,5.9615316,3.1148405,197.3587799,-56.5267181,-250.1374054,-0.1532281,0.6153067,10.3620520,15.5419846,19.7328243,-7.3435116
8320,6.7994981,5.8849177,2.3127871,176.7175598,6.4351144,-250.1374054,-0.3184272,0.7134684,10.3572636,13.2748089,17.4961834,-6.2213740
8330,4.4484038,5.8298512,1.0917504,171.0076294,49.7557259,-250.1374054,-0.4381367,0.7445929,10.4099360,12.2290077,14.4427481,-4.8625956
8340,2.2289903,5.7819676,-0.0023942,174.2137451,70.6717529,-250.1374054,-0.3974355,0.8283895,10.4530315,11.0076332,11.8549614,-3.4656489
8350,0.0191535,5.3701668,-1.7214222,184.8091583,49.2748108,-250.1374054,-0.4357425,0.8355721,10.3740225,9.2290077,9.0992365,-3.0000000
8360,-2.1092808,4.7740140,-3.8905578,193.6183167,4.1908398,-250.1374054,-0.3998296,0.8547257,10.4697905,7.5801525,6.9847326,-1.4045801
8370,-5.0182209,4.2760224,-5.9088597,198.8244324,-50.5572510,-250.1374054,-0.3136388,0.8714849,10.5464048,6.5648856,5.4427481,-1.3435115
8380,-8.6573887,4.3286943,-8.1570034,194.2213745,-98.3053436,-250.1374054,-0.3160330,0.8355721,10.5799236,5.8931298,4.9389315,-0.5419847
8390,-12.2630386,4.5872669,-10.4697905,171.7404633,-135.7633514,-250.1374054,-0.3734936,0.7637464,10.6589317,5.7099237,3.5038168,1.3893130
8400,-16.2876701,5.2217274,-12.9741125,125.3129807,-156.4274750,-214.4961853,-0.0335187,0.6919208,10.5607700,5.3282442,1.7633588,2.2595420
8410,-19.3522339,5.6407104,-13.2829628,66.5114517,-156.8702240,-159.4961853,0.0814024,0.6847382,10.3620520,6.1145039,-2.6793892,0.2442748
8420,-19.6131992,5.7292953,-13.0579090,6.1755724,-114.6335907,-85.8778610,-0.1532281,0.5746055,10.2782555,5.0000000,-7.5725193,0.0534351
8430,-19.6131992,5.7364779,-12.3037395,-58.2366409,-39.0839691,-6.1603055,0.3902529,0.4596844,10.2303715,-1.9083970,-4.7175574,0.5648855
8440,-19.6131992,5.2073622,-10.2782555,-116.0229034,34.2519073,71.7022934,0.3088504,0.5243275,10.5990763,-3.3893130,-3.8473282,-2.6030533
8450,-19.6131992,4.8530221,-7.3764977,-153.9007568,78.6488571,140.0381622,0.0861908,0.4788379,10.8911676,-2.1374047,-3.3129771,-3.3587787
8460,-17.3267498,4.4172797,-5.0900469,-174.3969421,88.7099228,194.9770966,-0.1484398,0.5482694,10.9558105,0.4580153,-4.8473282,-1.7404580
8470,-14.5638542,3.7804251,-3.6415622,-183.0229034,85.3358765,241.2061005,-0.0119709,0.5362985,10.8408899,1.9618320,-4.3893127,-1.6106870
8480,-11.7171631,3.4356618,-2.6168492,-190.4885559,84.9160309,250.1297760,0.0909792,0.6009415,10.6972389,1.8167939,-3.8931298,-1.2748091
8490,-8.5759869,3.0118904,-1.4652439,-198.5038147,92.7633591,250.1297760,0.0383070,0.6105183,10.6254129,2.0229008,-1.5114504,-1.7175573
8500,-5.7412663,2.4755919,-0.6943150,-207.0992432,102.2442780,250.1297760,-0.0167593,0.5817881,10.7020273,2.1297710,-0.7480916,-1.3282443
8510,-1.8315549,2.0398495,0.7517755,-214.9847260,98.0992355,250.1297760,-0.0143651,0.6775556,10.6756907,2.1755726,-1.7480916,-0.5343512
8520,3.0645626,2.0087249,2.9664006,-213.5267181,81.3435135,250.1297760,-0.0598547,0.5841822,10.5080976,2.3816793,-4.8549619,-1.0610687
8530,9.6725254,3.3207407,6.4978304,-195.2213745,43.5725174,250.1297760,0.1915352,0.6129125,10.3979645,-0.4580153,-3.9694657,-1.2824427
8540,16.0027618,6.3589673,10.2806492,-149.2366486,-12.4656487,247.3816833,0.1939293,0.5889706,10.6062593,-1.5648855,-2.7557251,-2.3587787
8550,19.6126022,9.2487535,12.1241751,-83.9465637,-66.5725174,153.6259613,0.0454896,0.5291159,10.8097658,-1.3129771,-2.4351146,-2.7404580
8560,19.6126022,11.0946741,12.6197729,-20.1374054,-98.2061081,48.3816795,-0.0023942,0.5985473,10.7594872,0.0000000,-3.0839694,-2.4809160
8570,19.6126022,11.1832590,11.8344784,39.8244286,-140.1526642,-53.2900772,0.0814024,0.6224893,10.7116032,0.4656489,-3.5801528,-2.0610688
8580,18.5334206,9.4426832,9.1817169,83.7709961,-171.2519073,-129.5267181,0.1149211,0.5722113,10.7163916,0.5114504,-2.9923663,-2.1603053
8590,15.1264887,8.5304966,7.2184811,105.8015289,-182.5725250,-172.0381622,0.0909792,0.6033357,10.6996326,0.3511450,-2.8320611,-2.2595420
8600,11.8679972,7.9104018,5.9735026,112.7862625,-166.1450348,-191.1145020,0.0909792,0.6751614,10.7690639,0.8702290,-2.8549619,-2.0076337
8610,9.6653433,7.6542239,4.9296360,109.4961853,-113.9847336,-195.4809113,0.0646431,0.7206510,10.7762470,1.6412214,-1.2519084,-1.9160305
8620,8.4778252,7.7188668,4.7620430,106.1297684,-31.3206100,-194.3129730,0.0861908,0.8140244,10.7738523,1.9083970,-1.0152671,-2.0687022
8630,7.0365229,7.7643566,4.6351509,106.2290039,38.7022896,-193.5038147,0.1221037,0.7900825,10.7427282,2.6183207,-0.7099237,-1.5954199
8640,5.6071916,7.5704269,3.9408360,110.6030502,79.2290039,-199.3816833,0.1987177,0.8044477,10.7187862,3.3511450,-0.2748092,-1.7099236
8650,4.2544746,7.0772243,3.1746953,119.6564865,94.3893127,-214.0076294,0.1412572,0.7972651,10.7235746,3.7633588,1.8091604,-2.5190840
8660,2.2672975,6.2057390,1.6088953,133.5572510,88.9694672,-234.9465637,0.0981618,0.7876883,10.6493549,3.5190840,2.0458016,-3.1526718
8670,-0.1412572,5.3558016,-0.4860204,148.8702240,59.4198456,-250.1374054,0.0047884,0.8116302,10.5057030,2.8396947,1.5572519,-3.4351146
