timestamp,rxacclX,rxacclY,rxacclZ,rxgyroX,rxgyroY,rxgyroZ,txacclX,txacclY,txacclZ,txgyroX,txgyroY,txgyroZ
0,2.2960277,7.1442614,-3.4596038,-4.6183205,47.0152664,1.4351145,3.6655040,10.0771437,3.0478032,7.7480917,-24.0687027,0.2595420
10,2.6575503,6.9383612,-5.1283536,-2.5190840,40.1755714,-12.1297712,4.1108232,9.8568783,3.1148405,9.1603050,-35.0916023,-9.4198475
20,2.7557120,6.6414814,-6.7109132,-9.5954199,28.1297703,-30.2900772,4.5417776,9.8688488,2.7676830,9.2748089,-47.7709923,-21.4351139
30,2.4468615,6.6342988,-8.2719250,-27.0076332,24.3587780,-47.1221390,4.3765783,9.8760319,2.7485294,8.5801525,-61.4656487,-32.5114517
40,1.8339491,6.9646969,-9.2750902,-53.6870232,26.7404575,-59.2671738,4.1204000,10.2614956,2.3175755,7.5496182,-69.0000000,-39.1145020
50,0.6129125,7.3477674,-9.7754755,-81.0381699,40.0687027,-63.9465637,3.8235207,10.3093796,2.0853391,5.1145039,-72.1908417,-42.3206100
60,-0.6895266,7.2472115,-8.7986460,-104.8625946,39.4045792,-61.1755714,3.4308734,10.3452930,2.0685797,2.9541984,-72.3740463,-41.5648842
70,-1.5801650,6.7994981,-6.8713236,-115.5954208,22.6717548,-55.3206100,3.0094962,10.2638903,2.0757623,2.8244274,-68.2977066,-37.5114517
80,-1.9871773,6.9311786,-4.9320302,-109.7786255,9.9694653,-44.7786255,2.7461352,10.0340481,2.2433555,5.5419846,-57.2977104,-32.0152664
90,-1.9201399,6.9982157,-3.9935081,-93.0381699,8.4351149,-29.7633591,2.7293761,9.8520899,2.2050486,8.4351149,-44.8320618,-27.7938938
100,-1.8339491,7.1993275,-4.2329268,-73.3282471,13.5496187,-13.1526718,2.6383967,9.6581602,2.4277081,11.0000000,-30.6030540,-24.6564884
110,-1.5514348,7.5943689,-5.1163831,-57.0381660,17.0152664,1.5801526,2.4540441,9.2894554,2.7916248,14.7786255,-17.9007626,-22.7404575
120,-1.4221486,7.8433647,-5.7795734,-46.0000000,19.1221371,14.8167934,2.0542145,9.0284882,3.2177906,19.2442741,-7.2748094,-20.3282452
130,-1.2162483,8.2407999,-6.4667058,-37.3358765,23.5190830,27.5419846,1.6783268,8.8345594,3.3782012,22.8320618,1.4809160,-16.1221371
140,-0.9648584,8.7220325,-6.9000540,-30.2061062,26.6106873,38.0305328,1.3120158,8.6406298,3.5745249,25.0458012,7.2290077,-12.6183205
150,-0.6105183,8.8992023,-7.2376347,-23.5801525,24.3282452,45.5648842,1.1635761,8.2838955,3.9336534,25.5267181,11.5267172,-9.0000000
160,-0.3256098,9.0572186,-7.6590118,-17.5954189,19.3816795,52.4732819,0.9337339,8.0396881,4.1778607,25.3816795,12.3206110,-5.1526718
170,-0.0933734,8.6597834,-8.1785507,-12.5496187,17.4427490,61.1374054,0.8188128,7.6039457,4.3454537,24.1450386,10.6564884,-2.2824428
180,0.1460456,8.5257082,-8.6023226,-10.4809160,16.2366409,71.3587799,0.7852941,7.1777802,4.4460096,23.2900772,6.6717558,0.5343512
190,0.5051740,8.2407999,-8.4490948,-6.7022901,12.4961834,80.5572510,0.7661406,6.9096308,4.6303625,23.7862587,2.6793892,2.9923663
200,0.4501076,7.9343438,-8.5257082,-1.9694656,4.2519083,90.0229034,0.8403605,6.6199336,4.4747400,26.1374054,-2.3969467,5.8625956
210,0.1556223,7.5967631,-8.8561068,3.1068702,-7.6564884,101.8015289,1.2928623,6.4978304,4.0820932,29.0534344,-7.0687022,7.5190840
220,0.4022238,7.4267755,-9.0955257,9.3435116,-21.7938938,111.6564865,2.0829449,6.8569584,3.3494711,29.9007626,-11.7404585,8.0229006
230,0.7398046,6.9383612,-10.1441803,12.3358774,-33.2061081,117.0076370,3.1579359,7.5440907,2.5953014,28.6335869,-14.3511448,5.1374044
240,0.9433106,6.5672617,-10.9438400,7.9694657,-38.9694672,119.2213745,3.9144998,8.2838955,2.1835008,27.0381680,-15.9847326,-0.6564885
250,0.8068419,6.4212160,-11.2718439,-4.3969464,-37.7938919,119.0992355,4.1850433,8.9111729,2.0183017,27.3129768,-14.5190840,-8.7709923
260,0.1101327,6.4020624,-10.5823174,-18.6488552,-37.6106873,119.6641235,3.8522508,9.4953556,1.7884595,30.4045811,-11.8320608,-18.3587780
270,-0.6248835,6.7779503,-9.0787668,-25.1832066,-36.7251892,127.0076370,3.3734128,10.1944590,1.4221486,35.7328262,-6.5496182,-25.3435116
280,-0.7589580,7.3573442,-8.3317795,-26.6259537,-24.6335869,136.6259613,2.3654592,10.7187862,1.0271072,41.3969460,-0.1145038,-27.5419846
290,-0.0766141,8.3916340,-8.5975342,-29.7709923,-3.4732823,148.1374054,1.7238164,11.1090393,0.5841822,46.4732819,6.6183205,-25.5801525
300,0.4118006,9.1338329,-8.9135675,-34.6030540,16.7709923,157.2442780,1.4413021,11.4274664,0.1149211,49.8625946,13.5496187,-20.9847336
310,-0.3423691,9.3517036,-8.8920193,-31.8167934,16.0305347,169.2519073,1.4293311,11.6668854,-0.3710994,50.8473282,20.1603050,-16.2290077
320,-0.9648584,9.3014259,-9.3110027,-20.5419846,-8.2442751,190.0076294,1.4700323,11.5615406,-0.8619082,47.7175560,26.1908398,-12.0000000
330,-0.4357425,8.8848372,-9.8018112,-4.6793895,-45.0763359,210.7022858,1.6495966,11.4370432,-1.0486550,41.8549614,27.5267181,-10.0381680
340,0.3710994,8.2264347,-9.7395630,14.2290077,-82.0534363,225.7557220,1.4413021,11.2119894,-0.8236012,35.2290077,27.2290077,-9.7328243
350,0.6703730,7.5632443,-9.3828287,33.7099228,-104.2900772,238.0381622,1.1635761,10.9175043,-0.5171449,30.0992374,24.4580154,-8.3587790
360,0.9241571,6.7779503,-9.4905672,46.7862587,-103.6335907,250.1297760,1.0582317,10.5152798,-0.1268920,27.1908398,20.0381680,-6.3969464
370,1.1156923,5.8921003,-10.2112179,49.8702278,-84.6412201,250.1297760,1.0486550,10.1393919,0.0359128,25.0610695,16.4351139,-3.8778627
380,0.7972651,4.7811961,-10.7882175,42.7251892,-61.9694672,250.1297760,1.2138541,9.6485834,0.1580165,24.2900772,14.8549614,-2.3511450
390,0.8068419,3.3614421,-10.9079275,26.3129768,-43.7633591,250.1297760,1.4820032,9.2391768,0.4525018,25.3587780,15.5648851,-1.5648855
400,1.8100072,1.0702027,-10.1154509,5.8320613,-33.3511467,250.1297760,1.5729824,8.8369532,0.5482694,27.7022896,17.8778629,-1.5648855
410,3.3327117,-1.2952565,-8.6933022,-16.1755733,-30.6641216,250.1297760,1.6472024,8.4059992,0.4979914,30.1603050,20.8854961,-1.5877863
420,5.7173243,-3.3375001,-6.5696559,-33.2671738,-37.2977104,250.1297760,1.6950861,7.9918046,0.3519458,31.4045811,24.8931293,-0.8778626
430,9.6557665,-5.3677726,-3.7229645,-44.6641235,-44.1603050,250.1297760,1.8626794,7.6422529,0.0670373,31.2061062,29.1526718,-1.1297710
440,13.7498302,-7.3956513,-1.3622938,-53.3816795,-49.4122124,230.5419922,1.8818330,7.3884687,-0.2561783,27.9389305,31.5954189,-0.4580153
450,17.3028069,-10.4602137,0.7517755,-67.1450348,-48.3969460,176.2900696,1.9009864,7.1275020,-0.5123565,22.2213745,31.1832066,0.7404580
460,19.3618107,-13.3715477,3.2967989,-91.3511429,-39.2977104,126.5801544,1.9799947,6.8904772,-0.5171449,14.9160309,29.2061062,2.4580152
470,19.6126022,-15.8136215,6.8162575,-121.4122162,-7.7633586,103.9847336,2.2625091,6.6702118,-0.5386927,6.0152674,25.9694653,3.0305343
480,19.6126022,-16.6372223,9.5456333,-143.6488495,57.2290077,117.6335907,2.5067163,6.5696559,-0.6081241,-3.5419848,21.6259537,3.2977099
490,17.5302544,-14.0658627,10.4865494,-157.7251892,134.6412201,166.1832123,2.6671271,6.4355812,-0.5769997,-12.9847326,18.2900772,3.0610688
500,17.1208496,-7.5728211,11.6142130,-157.8931274,197.6412201,229.6564941,2.8371146,6.4260044,-0.5267217,-22.1145039,15.5648851,1.9618320
510,19.4312420,-0.3351865,13.7163115,-132.7404633,212.3435059,250.1297760,2.8610563,6.6079631,-0.3423691,-30.2900772,13.7099237,0.9770992
520,19.6126022,5.2935529,15.2821112,-80.4580154,171.5572510,245.4732819,2.8419030,6.8473821,0.2202654,-36.0381660,12.4732828,0.7557252
530,19.6126022,10.0101061,15.8782644,-3.5725191,99.2519073,168.3435059,2.6312141,7.0173693,0.5602403,-38.1832047,11.7251911,2.2977099
540,19.6126022,9.7084379,13.6732159,85.1145020,17.3664131,49.1450386,2.7197993,7.3046722,0.8427547,-37.2290077,11.7175570,4.0992365
550,19.6126022,5.6502872,8.4754305,153.3206177,-53.4351158,-91.7099228,2.9687948,7.6973190,0.7206510,-35.7786255,12.0305347,5.6717558
560,19.6126022,0.7110743,2.0446377,170.1755676,-82.8473282,-212.2061005,3.2824337,8.1737623,0.3902529,-35.1221390,13.2519083,6.3740458
570,19.6126022,-4.0030847,-3.7205703,134.7938995,-75.8396912,-250.1374054,3.5314295,8.5711985,0.1604107,-35.6946564,14.9160309,6.3511453
580,19.4240589,-7.8242111,-7.9654684,55.2595406,-48.7786255,-250.1374054,3.6295912,8.8944139,0.0383070,-37.5496178,17.8625946,6.1221375
590,16.2110577,-10.6685085,-8.0971489,-36.6259537,-17.3282452,-250.1374054,3.5362179,9.0021524,0.1388630,-39.9541969,22.2900772,4.2748094
600,14.1999378,-11.8392668,-4.3095412,-104.3206100,-4.0076337,-250.1374054,3.4069316,9.2631187,0.5985473,-41.5114517,26.7175579,3.3206108
610,13.1967726,-11.7770176,-0.8188128,-131.3206177,1.5877863,-250.1374054,3.2944047,9.5839405,1.1109039,-39.7786255,29.5877857,4.1908398
620,12.2247314,-11.2886028,1.0989330,-129.1755676,11.4274807,-250.1374054,3.3279233,9.7443514,1.5538290,-35.4885483,29.9770985,5.3969464
630,10.7738523,-10.2423429,0.9840119,-113.3358765,36.6641235,-250.1374054,3.6678982,9.9981356,1.4843974,-31.2366409,27.3969460,6.9847326
640,7.8074517,-7.6015515,-0.6536137,-96.9618301,80.5725174,-250.1374054,4.0773048,10.0388365,1.3598996,-29.2519093,22.1679382,7.5496182
650,3.8809812,-4.7883787,-2.4851687,-84.5267181,117.0992355,-250.1374054,4.6686692,10.1034794,0.8595140,-30.6488552,15.0381680,6.6106873
660,0.4285599,-1.1228749,-4.5489597,-74.0839691,135.1221313,-250.1374054,5.2001796,10.1298151,0.8212070,-34.1297722,6.3282442,2.3969467
670,-1.0127422,2.2529323,-6.2464404,-64.8854980,136.9923706,-219.1526642,5.6000090,10.1369982,0.9097920,-37.0305328,-2.0763359,-3.7328243
680,-0.6919208,5.4755111,-7.5704269,-59.3129768,129.6793823,-172.8244324,5.7843618,10.2303715,1.4149660,-36.9847336,-7.5267177,-11.1526718
690,1.0366840,8.1258793,-8.9327211,-60.4198456,126.5419846,-135.5267181,5.6359220,10.3237448,2.0111191,-32.4351158,-10.3282442,-18.2519093
700,2.5402350,10.9151096,-10.2160063,-63.8854980,126.3358765,-114.1221390,5.3366485,10.4530315,2.3343346,-24.2061062,-11.1068707,-23.9618320
710,2.5426292,14.0921993,-11.2957859,-69.8549652,117.9847336,-106.7175598,4.9679432,10.7020273,2.4995339,-14.5648851,-12.1450386,-26.9160309
720,2.3391230,16.0626163,-11.6022425,-78.4122162,91.7862625,-105.1755753,4.6590929,10.9845409,2.3678534,-5.2290077,-12.9007635,-28.7709923
730,2.6383967,16.8311520,-10.4386663,-83.6030502,52.7404594,-102.7099228,4.3095412,11.1401634,2.1930776,1.8396946,-12.9847326,-29.1755733
740,3.1986370,17.2142220,-8.6573887,-81.4045792,21.5801525,-98.3816757,4.0030847,11.1617117,1.8435259,6.3358779,-13.7786255,-28.1374054
750,3.8115497,17.9636040,-7.1729918,-74.7175598,8.5114508,-93.4427490,3.4955165,11.2455082,1.9416877,9.7175570,-14.3969469,-25.2595425
760,4.0461802,18.9380379,-5.8202744,-66.7022934,9.8778629,-91.0229034,3.2201848,11.2311430,1.8171898,12.8091602,-14.6793890,-21.5496178
770,3.9959023,19.6126022,-4.6399393,-58.0381660,13.0839691,-92.3053436,2.9472473,10.9366570,1.8004304,15.2442751,-14.3511448,-17.2900772
780,3.9312592,19.6126022,-3.1268115,-47.1679382,17.0000000,-94.1984711,2.7964132,10.7355452,1.6591733,16.9465656,-14.5038166,-13.7862597
790,4.1395535,19.1726685,-1.5801650,-30.8320618,15.7633591,-97.0610657,2.5450234,10.5655584,1.6088953,17.4351139,-14.9541988,-11.0610685
800,4.1850433,18.0617657,-0.0023942,-7.9770994,5.9236641,-100.7709961,2.2768741,10.2782555,1.7118455,17.2290077,-15.2900763,-8.9770994
810,3.8211265,16.7258072,0.9073978,20.8778629,-10.5877867,-105.1832047,1.9632354,10.0436249,1.7764885,16.7022896,-15.6488552,-6.1145039
820,3.1555417,14.8056679,1.4029950,50.4732819,-32.8167953,-107.8549652,1.7884595,9.8113880,1.7884595,15.2748089,-16.5648861,-5.3129773
830,2.8802099,13.2662039,1.7645177,76.7633591,-52.8091621,-108.0687027,1.4652439,9.6964674,1.8363433,12.9465647,-17.9465656,-3.4503818
840,2.6000898,11.6549139,1.7046629,99.6564865,-65.5877838,-107.7480927,1.1180865,9.2726955,1.7764885,11.0916033,-19.3511448,-1.0534351
850,2.0135133,9.9885588,1.1899122,117.8320618,-72.1297684,-108.0152664,0.8834559,8.9949694,1.7262106,7.2671757,-20.0229015,-0.0916031
860,1.4125718,8.6502066,0.2920911,126.8473282,-76.8549652,-106.2137375,0.8954269,8.7459745,1.8531027,2.9770992,-20.6870232,0.8015267
870,0.7278336,7.5943689,-0.4501076,127.8778610,-78.0534363,-100.6946564,0.6919208,8.4395180,2.0805507,-0.4351145,-21.5038166,1.4427481
880,0.2394189,6.6534524,-0.9911944,123.3129807,-75.3435135,-93.0000000,0.6512195,8.2384062,2.1475880,-1.8320611,-22.3435116,1.8549619
890,0.0981618,5.7077475,-1.4101776,114.4503784,-68.2900772,-86.7099228,0.7014975,8.1809454,2.1667414,-1.4885496,-24.4656487,1.9007634
900,-0.0119709,5.0541339,-1.6256547,102.0534363,-59.6412201,-82.9694672,0.7852941,8.1210909,1.9249283,-1.3664122,-26.8015270,1.3282443
910,-0.0526722,4.5082588,-1.5586174,88.2290039,-48.6412201,-81.1145020,0.9528874,8.2743187,1.5993185,-2.6870229,-27.0839691,0.7938932
920,-0.2178712,3.9001346,-1.5705882,75.4961853,-36.3893127,-80.8244247,1.1252691,8.3964224,1.2186425,-6.1984735,-29.2442741,-0.8549618
930,-0.5075682,3.4165084,-1.5227045,63.6259537,-25.0763359,-81.3511429,1.2138541,8.6023226,0.9816177,-11.9083967,-32.2137413,-3.1068702
940,-0.9744351,2.9711890,-1.3598996,52.0458031,-16.9465656,-80.8473282,1.3766589,8.9303265,0.6967092,-18.8396950,-33.4961815,-4.4503818
950,-1.2665262,2.6120608,-1.1970947,40.9312973,-10.7557249,-78.5419846,1.4245427,8.9159613,0.8571198,-24.9694653,-33.5954208,-4.5877862
960,-1.5131277,2.2984219,-0.9576758,31.1374054,-6.1221375,-74.3435135,1.6615674,9.0500364,0.9744351,-29.5496178,-31.7480907,-4.9618320
970,-1.5514348,1.9871773,-0.9313397,22.5725193,-1.6259542,-68.6564865,1.7597293,9.2846670,1.2234308,-32.7175560,-28.1603050,-6.6412215
980,-1.9177457,1.8171898,-0.9648584,13.3129768,3.6641221,-60.3969460,1.8100072,9.4929609,1.4724265,-34.7862587,-22.7251911,-9.1908398
990,-2.1116750,1.8028246,-0.9600700,3.8778627,7.9847326,-48.5648842,1.7166338,9.8209648,1.6998745,-33.9847336,-16.0305347,-11.0534353
1000,-2.0398495,2.0015423,-0.8882443,-5.9694657,9.9694653,-33.8244286,1.4963684,9.6964674,2.1715298,-30.8778629,-9.2824430,-12.2290077
1010,-1.6591733,2.2218077,-0.7326220,-13.9618320,12.2671757,-20.2137413,1.3407460,10.0579901,2.0925217,-26.1297703,-2.2595420,-12.4503813
1020,-0.9504932,2.4444675,-0.3423691,-16.9389305,11.1374044,-10.7099237,1.0199248,10.1106625,2.2529323,-20.8091602,4.6870227,-12.1908398
1030,-0.1484398,2.9568241,0.0071826,-14.7862597,6.4961834,-6.6641221,0.8834559,10.4697905,2.1260402,-17.8931293,10.1068707,-11.3740454
1040,1.0414724,3.7636659,-0.2992737,-9.7099237,2.7480917,-8.2977095,0.6943150,10.5368280,1.8171898,-18.1603050,13.5038166,-7.8931298
1050,1.7046629,4.5992379,-0.9792235,-5.9847326,3.8778627,-16.4961834,0.6536137,10.5583754,1.5562232,-21.8931293,15.3587790,-4.5725193
1060,1.8219782,5.4826937,-2.0135133,-7.0610685,7.4580154,-28.3511448,0.7445929,10.4434547,1.6663558,-26.8931293,16.1679382,0.5572519
1070,1.3694763,6.1219425,-3.2489152,-17.4503822,13.2671757,-40.7022896,1.1204807,10.3955708,1.7309990,-33.3053436,16.2748089,4.7480917
1080,0.1316804,6.5241661,-4.7572546,-33.8473282,16.6259537,-48.1374054,1.3527170,10.0388365,2.0877333,-39.1068687,14.8244276,5.8167939
1090,-1.5610116,6.9359670,-5.9328012,-58.2824440,15.3282442,-40.5954208,1.5921360,9.9981356,2.5210814,-43.3587799,12.4274807,7.1297708
1100,-1.9560528,7.6278877,-5.7963328,-82.6946564,14.8702288,-25.6259537,1.9656296,9.7922344,2.9616125,-44.4427490,10.2061071,6.4809160
1110,-1.5873476,8.6334467,-4.5130472,-95.2137375,21.7328243,-13.1297712,2.1835008,9.5695753,3.3949606,-42.4427490,8.8549614,4.8396945
1120,-1.8842272,11.2167778,-3.2106080,-90.3893127,39.2977104,-4.0687022,2.3534882,9.3373384,3.6343796,-38.0000000,8.8015270,2.8625953
1130,-0.7948709,13.6373034,-2.4564383,-74.7099228,44.1755714,-5.1679387,2.5522060,9.3612804,3.7014170,-32.2824440,10.4274807,1.0305344
1140,1.0007712,14.0419216,-2.2601149,-51.8015251,29.7480907,-27.3816795,2.6958573,9.2319946,3.7588775,-25.5343513,13.7251911,-0.9694657
1150,1.4389079,12.4402084,-3.5457945,-31.7633591,-8.1221371,-62.6259537,2.5569944,9.3397331,3.6176202,-18.8396950,16.9083977,-2.5114503
1160,-2.5785420,12.4449968,-7.2543941,-31.2748089,-22.4045811,-77.2977066,2.4157372,9.4355011,3.4189026,-12.9618320,18.9083977,-2.9618320
1170,-5.3534074,13.2278967,-8.6047173,-55.5419846,-19.2519093,-57.7557259,2.3846128,9.5959110,3.0454090,-9.6030531,18.6564884,-0.7022901
1180,-5.3079181,12.9501705,-6.1889796,-74.9007645,-22.3969460,-29.3587780,2.3870070,9.6868906,2.6048782,-9.1679392,16.0687027,1.9007634
1190,-4.3550305,12.5982246,-2.5689652,-64.4961853,-21.7404575,-9.6106873,2.5929072,9.7874460,2.3917952,-10.2519083,13.3358774,5.4809160
1200,-3.5841017,12.4306316,-0.0071826,-30.4885502,-13.1374044,4.1679387,2.6216373,9.8640604,2.2720859,-12.1832066,10.8167934,10.6030531
1210,-3.7085996,11.8392668,-1.7645177,53.0458031,16.7786255,34.2290077,3.3087699,9.7658987,1.5562232,-21.6870232,5.0229006,17.3282452
1220,-3.7014170,11.6836443,-3.9504125,70.5190811,20.4580154,56.8931313,3.4524212,9.6390066,1.5634058,-27.8625946,4.1755724,17.3816795
1230,-2.4205256,11.3316984,-5.6838059,72.4580154,17.2900772,75.3358765,3.5601597,9.4091644,1.6328372,-33.2213745,4.9465647,16.3816795
1240,-0.5434810,11.0635490,-6.3134775,66.4732819,7.9389315,79.3358765,3.5745249,9.2870607,1.9392935,-36.6946564,7.1526718,14.1374044
1250,0.6919208,11.0013008,-6.5169835,57.9618340,-1.8167939,68.6488571,3.4212968,9.2128410,2.4923513,-37.6946564,10.3893127,11.7633591
1260,1.1228749,10.9103212,-6.4379754,50.9312973,-9.5038166,51.1450386,3.0861101,9.2439651,2.8706331,-35.6488533,13.1984730,10.2290077
1270,0.5626345,10.5224628,-6.9239960,43.6564903,-16.6488552,34.0381660,2.9783716,9.2439651,3.2393384,-30.9389305,15.0916033,10.1679392
1280,-0.2944853,9.9550400,-7.4866304,32.0534363,-20.7404575,24.8244267,2.8706331,9.2726955,3.2369442,-25.7175579,15.9312973,10.6641226
1290,-1.0175306,9.6533718,-7.4770536,18.8167934,-23.6412220,21.7938938,2.9568241,9.4043760,2.9759774,-22.2900772,18.3358784,10.2213745
1300,-1.5825592,9.3612804,-6.9575148,9.5038166,-23.7328243,23.3282452,3.0693510,9.5911226,2.8945751,-21.8091602,21.9465656,9.0076332
1310,-3.3039815,9.3756456,-6.5696559,8.4427481,-24.4503822,29.7557259,2.9352763,9.7132263,3.0286496,-22.5496178,23.6488552,7.3511453
1320,-5.5401545,9.1960821,-6.6462698,16.7786255,-27.1755733,48.9618340,2.7557120,9.7371683,3.2489152,-23.4198475,22.4580154,6.9465647
1330,-7.7404146,8.8944139,-6.6917596,37.7099228,-34.3587799,86.0534363,2.7221935,9.7299862,3.4380560,-23.3511448,19.7557259,7.4351144
1340,-8.7627335,8.6214762,-6.5744443,71.4045792,-45.8931313,135.9389343,2.7485294,9.7491398,3.6750808,-22.6183205,15.8854961,9.1297712
1350,-8.0779953,8.1570034,-7.1897511,110.2519073,-62.0381660,185.1679382,2.8227494,9.6174593,3.6846576,-20.7862587,10.5038166,9.1526718
1360,-7.0437055,7.5967631,-9.1194677,141.9694672,-76.3282471,221.9847260,3.1172347,9.5576038,3.5888901,-18.9618320,4.5419846,9.3435116
1370,-6.2679882,7.8625183,-11.5759058,155.0000000,-85.2748108,246.3511505,3.5817075,9.5504217,3.4212968,-17.1450386,-2.3664122,9.7251911
1380,-6.5050125,7.9319496,-13.7546186,145.0305328,-87.3969498,250.1297760,4.0294209,9.6988611,3.1339941,-16.2137413,-8.9236641,9.1832066
1390,-6.7085190,7.8720951,-14.9948082,116.1450348,-81.2824402,250.1297760,4.3909435,9.9191265,2.7844424,-16.1374054,-14.2442751,9.0229006
1400,-6.5720501,7.5081782,-14.5375185,78.2442780,-71.1526718,250.1297760,4.7093706,9.9502516,2.6000898,-17.5648861,-17.5572510,9.7328243
1410,-5.5640965,6.5840211,-12.7610302,44.2977104,-57.9541969,250.1297760,4.8242917,9.9358864,2.4588325,-19.8931293,-18.8473282,10.6106873
1420,-4.5681133,5.2815819,-10.8121595,21.4045811,-43.4656487,250.1297760,4.9320302,9.9765873,2.5091105,-22.8702297,-17.3664131,11.0229006
1430,-4.1778607,3.8307030,-9.3253679,8.3740454,-27.8931293,250.1297760,4.6950054,9.7563219,2.7820482,-26.2977104,-14.5954199,10.6259546
1440,-3.8139439,2.7509236,-8.6933022,0.8015267,-17.8244267,250.1297760,4.3670015,9.5456333,3.2393384,-28.0534344,-13.3664122,10.1832066
1450,-2.8203552,1.1563935,-7.8361821,-5.6106873,-12.5954199,250.1297760,4.0294209,9.3517036,3.7493007,-28.1603050,-12.3435116,9.9923668
1460,-1.4317253,-0.3280039,-7.0868006,-12.3740454,-11.8244276,250.1297760,3.7133877,9.1338329,4.1371593,-26.8091602,-10.0229006,9.0610685
1470,0.4668669,-1.4939742,-6.1410961,-20.8091602,-15.0152674,250.1297760,3.4548154,8.9446917,4.4388270,-23.8091602,-7.5572519,8.2519083
1480,2.8730273,-2.4779861,-4.9751258,-29.8015270,-15.2824430,250.1297760,3.3231349,8.6310530,4.7045822,-19.2442741,-5.1145039,5.8931298
1490,5.6047974,-3.1148405,-3.5074875,-34.9465637,-12.2748089,250.1297760,2.8778157,8.2168579,4.7428894,-13.4580154,-3.1603053,2.8167939
1500,8.3150196,-3.7301471,-2.5019281,-40.1603050,-11.5038166,250.1297760,2.6599445,7.8649125,4.9224534,-6.2977099,-0.3206107,-2.3740458
1510,11.3508520,-4.3334827,-1.6663558,-53.8396950,-23.0000000,250.1297760,2.4157372,7.6039457,4.9176650,1.5954199,2.6030533,-8.9618320
1520,14.8032732,-4.9224534,-0.0837966,-75.7557220,-33.8931313,201.2137451,1.8650736,7.5153608,4.7524662,9.6717558,5.6793895,-14.5801525
1530,19.0409889,-7.3118544,2.1811066,-107.5725174,-28.4351139,118.7251892,1.3120158,7.5440907,4.2616572,16.1374054,8.9389315,-18.4732819
1540,19.6126022,-11.6525202,5.2935529,-152.4885559,1.1984733,41.7633591,0.8762733,7.7763271,3.7923961,18.9083977,11.3740454,-19.9160309
1550,19.6126022,-14.7075062,10.5511932,-195.5114441,52.2748108,13.9389315,0.3734936,8.0612354,3.3279233,17.6183205,12.4122133,-18.4732819
1560,19.6126022,-14.0778341,14.9469252,-216.1984711,129.3587799,38.5343513,0.1149211,8.1953106,2.8993635,12.4656487,9.9160309,-12.9083967
1570,19.6126022,-9.5480280,19.1870346,-201.3511505,186.1984711,94.3969498,0.0550664,8.3796635,2.5929072,3.7786260,2.8625953,-5.6183205
1580,19.6126022,-2.4229198,19.6126022,-145.1603088,178.2671814,142.2213745,0.5171449,8.4443064,2.2457497,-8.0916033,-7.7099237,1.6564885
1590,19.6126022,4.8242917,19.6126022,-47.2671738,116.5267181,145.1297760,1.3096216,8.3652983,1.8483143,-21.7022896,-19.3969460,6.7633586
1600,19.6126022,7.5081782,19.6126022,68.4274826,29.4885502,78.9007645,2.1835008,8.2647419,1.7357874,-35.2519073,-29.9694653,9.6335878
1610,19.6126022,6.6175399,15.1671906,154.3282471,-63.8931313,-52.5419846,3.0334380,7.9439206,2.0015423,-45.3740463,-35.7633591,9.5801525
1620,19.6126022,1.9584470,5.0397687,178.0381622,-109.3816757,-216.7175598,3.8570392,7.7595682,2.3917952,-51.2900772,-36.5343513,5.9160304
1630,19.6126022,-4.0054789,-2.1571648,124.1297684,-87.3053436,-250.1374054,4.3263001,7.7428088,2.7748656,-52.8854980,-32.0152664,-1.3435115
1640,15.5574427,-7.8242111,-5.8729467,36.0610695,-22.5725193,-250.1374054,4.6782460,7.8960366,3.2560976,-50.3740463,-23.3816795,-9.9847326
1650,6.1363077,-9.2343884,-6.2608056,-50.3358765,40.8854980,-250.1374054,4.6878228,8.1833391,3.6966286,-44.3053436,-13.5038166,-16.7404575
1660,2.1835008,-8.6861191,-3.4931223,-101.8015289,71.5648880,-250.1374054,4.5465660,8.4658537,4.0078731,-36.0458031,-3.1832061,-23.3435116
1670,2.9065459,-6.7994981,0.7757174,-109.5343475,70.1984711,-250.1374054,4.3789725,8.8369532,3.9911139,-28.1297703,6.4732823,-28.1297703
1680,4.5106530,-5.0349803,3.2010312,-81.1755753,52.9007645,-228.7480927,4.0533628,9.2583303,3.8402798,-23.0305347,14.1984730,-31.6030540
1690,5.6239510,-3.0885043,3.6271970,-40.6335869,41.4427490,-220.0229034,3.6128318,9.5911226,3.7708483,-20.8854961,18.8625946,-35.5877876
1700,5.6047974,-0.6751614,2.1116750,-9.7251911,43.9923668,-222.3664093,3.1770895,9.9239149,3.7971845,-20.8931293,20.8473282,-37.4503822
1710,3.5745249,1.5442522,-0.7182568,4.6183205,55.0000000,-224.9770966,2.7700772,10.0867205,3.9025288,-21.9312973,20.1984730,-37.8396950
1720,1.2401901,2.8299320,-3.2201848,2.3358779,64.6870193,-212.5572510,2.5306582,10.4075413,4.1898317,-23.8549614,17.3816795,-35.9236641
1730,0.4189832,4.2209558,-4.5034704,-9.3129768,73.4580154,-184.6717529,2.2672975,10.5440102,4.3550305,-26.7175579,12.4656487,-31.6793900
1740,0.7589580,5.5257893,-4.8769641,-16.7862587,83.6717529,-156.6030579,2.3486998,10.6325951,4.5537481,-29.6412220,6.1450381,-27.3740463
1750,2.0230901,7.0030041,-5.2217274,-18.5801525,97.3587799,-137.3129730,2.6958573,10.6254129,4.8745699,-32.0534363,-0.0381679,-22.7328243
1760,2.6982515,9.2128410,-6.1219425,-19.0763359,113.3969498,-129.4427490,3.0214672,10.5775290,5.1522956,-32.5190849,-4.4656487,-20.3053436
1770,2.0853391,11.4418316,-7.7164726,-24.5190830,130.5038147,-124.6946564,3.3470769,10.5655584,5.6311336,-31.1221371,-5.5343513,-20.4198475
1780,1.6495966,13.1393118,-9.2296000,-32.3816795,142.9694672,-119.2061081,3.4380560,10.5918941,6.1243367,-26.9007626,-4.4198475,-21.6564884
1790,1.6807210,14.1831779,-10.3237448,-40.3816795,138.7328186,-116.1755753,3.3566537,10.7858238,6.6295104,-21.0076332,-1.2519084,-23.2671757
1800,2.3726418,15.2078915,-10.4219065,-49.2061081,116.3740463,-115.3129807,3.0956869,10.9175043,6.9024482,-14.4045801,1.7251909,-22.1603050
1810,3.5026991,16.4768124,-9.3732519,-53.7480927,98.9847336,-116.7404556,2.9113343,10.9366570,6.9670911,-8.6564884,1.9389313,-19.7557259
1820,4.1251884,17.5158901,-8.4131813,-52.2900772,96.4885483,-122.7022934,2.7605004,10.9294748,7.1849627,-3.6870229,0.6106870,-16.4274807
1830,3.2896163,18.7010136,-8.1330614,-47.6106873,104.1068726,-129.4580078,2.9161227,10.9366570,7.3381906,0.6870229,0.1221374,-15.3358774
1840,2.3965836,19.6126022,-8.2910776,-44.0916023,111.0076370,-135.6030579,3.1986370,10.9629936,7.7930865,5.0992365,0.2977099,-17.3129768
1850,0.8307837,19.6126022,-8.1785507,-43.7480927,103.0152664,-140.9236603,3.3327117,11.0827026,8.2862902,10.5267172,4.0229006,-22.7938938
1860,-0.1819584,19.6126022,-7.3717093,-45.0076332,83.7175598,-141.1755676,3.0262554,11.1856527,8.7675219,17.5648861,9.4580154,-28.8396950
1870,-0.4357425,19.6126022,-4.6902170,-36.0763359,59.8549614,-136.7633514,2.3654592,11.1066446,9.2822723,25.5038166,13.4580154,-35.1068687
1880,-1.0079538,18.9164906,-2.1044924,-10.5419846,37.5648842,-122.6335907,1.5538290,11.0755205,9.7395630,35.8549614,13.8167934,-39.9083977
1890,-1.5083394,17.4536419,0.1292862,29.8396950,11.1526718,-96.3511429,0.6057299,10.8528605,10.1298151,49.4809151,10.3664122,-42.3893127
1900,-1.5897418,16.2661228,1.2784972,78.2748108,-17.0763359,-67.9465637,0.0574605,10.5104914,10.0436249,66.0076370,3.4427481,-41.6946564
1910,-0.8068419,14.6548338,1.2545552,123.5419846,-41.0534363,-44.1984749,-0.4118006,10.1753054,9.4618368,84.7633591,-5.9160304,-39.3206100
1920,-0.2442073,13.0315733,0.3375807,157.9313049,-56.0916023,-29.0458012,-0.5195391,9.8568783,8.3700867,102.4122162,-12.3435116,-36.6488533
1930,-0.0694315,11.5447817,-1.2377959,176.0381622,-62.0152664,-20.5038166,-0.3639168,9.8688488,6.9934273,117.6641235,-17.1526718,-32.9083977
1940,0.2082945,10.2303715,-2.4684093,177.7709961,-59.1374054,-20.1603050,-0.0407012,9.7036495,5.3222833,127.9465637,-15.0152674,-27.0000000
1950,0.4836263,9.2439651,-3.4715748,167.3435059,-52.1068687,-27.0839691,0.0933734,9.4618368,3.8618276,133.5419922,-7.1679387,-19.0763359
1960,0.6895266,8.5041609,-3.8666160,149.6030579,-43.7557259,-39.0305328,0.0598547,9.1027079,2.6072724,134.6564941,3.1297710,-8.8625956
1970,0.4070122,7.6614060,-3.9360476,128.9236603,-35.4045792,-52.9160309,-0.0047884,8.8106174,1.3742647,129.9694672,11.2137403,2.5267177
1980,0.0622489,6.9120250,-3.3446827,108.6641235,-32.0000000,-65.0839691,0.1292862,8.4323349,0.4812321,119.4351120,15.4351149,12.5114508
1990,-0.4932030,6.0980005,-2.5569944,95.1984711,-32.4351158,-73.2748108,0.4405309,8.0803890,-0.2226596,104.4351120,14.1145039,21.8320618
2000,-0.9026094,5.2193332,-1.7956421,88.2061081,-33.8625946,-77.2137375,0.7757174,7.6063399,-0.6272776,86.7557220,8.7480917,29.0610695
2010,-1.1516051,4.4651632,-1.4269369,86.3358765,-34.3816795,-78.1908417,1.2210367,7.1945391,-0.6943150,67.9465637,1.0839695,31.8320618
2020,-1.4293311,3.8666160,-1.4221486,84.9083939,-35.5648842,-76.6183243,1.5969244,6.8330169,-0.5746055,49.4427490,-7.7938933,32.9236641
2030,-1.5753766,3.3805954,-1.4197544,82.2290039,-34.3129768,-72.1450348,1.7980363,6.4523406,-0.4836263,32.0152664,-17.3664131,31.1908398
2040,-1.6184721,2.9448531,-1.5322813,77.9847336,-28.3206100,-65.8931274,2.1044924,6.0189924,-0.1388630,16.6870232,-26.9694653,28.7022896
2050,-1.7573351,2.6168492,-1.9177457,71.5801544,-20.4656487,-57.8167953,2.5138988,6.1195483,-0.0478838,2.3664122,-33.1603050,24.9083977
2060,-1.7645177,2.4229198,-2.0637913,62.7862587,-11.9770994,-48.4961815,2.3917952,5.9280128,0.1340746,-12.1221371,-39.8091621,20.7938938
2070,-1.6926919,2.3486998,-2.1068866,52.6870232,-4.7099237,-38.5572510,2.3486998,5.6885943,0.4812321,-23.2519093,-41.4809151,19.1297703
2080,-1.3383518,2.4277081,-2.1284344,42.4656487,3.8167939,-29.4045811,2.7557120,5.7963328,1.1132981,-30.8549614,-39.2213745,17.9465656
2090,-0.8331779,2.5330524,-2.3175755,30.1068707,13.7099237,-21.8854961,3.0406206,5.8370337,1.8531027,-32.3893127,-30.6183205,14.7862597
2100,-0.4333483,2.5976956,-2.5737536,14.0763359,24.9923668,-15.9923668,3.1435707,5.9735026,2.4420733,-30.1450386,-17.6641216,10.2977095
2110,-0.1292862,2.4636209,-2.7030399,-4.3435116,36.3816795,-10.0381680,3.0908985,6.2464404,2.9185169,-25.5877857,-6.8702292,5.5267177
2120,0.2801202,2.6312141,-2.1475880,-29.2061062,55.5114517,-0.0152672,2.3870070,6.9766679,3.3973548,-14.1374044,4.6412215,-3.5496182
2130,2.0135133,4.3550305,-0.8954269,-15.6259546,65.7633591,-10.6870232,0.8619082,8.6956959,2.8873925,-29.5725193,-9.5496187,-3.1679389
2140,1.4820032,5.1307478,-1.9057748,-8.8091602,74.0076370,-19.3435116,1.0486550,8.7842808,3.2345500,-34.0305328,-14.9770994,-1.6183206
2150,0.7852941,5.8083038,-3.9887197,-13.5801525,82.7404556,-26.9923668,1.2617378,8.7842808,3.5386121,-35.8931313,-19.0916023,-2.6641221
2160,-0.3136388,6.5624733,-6.4427638,-29.9770985,90.3664093,-32.1832047,1.3503228,8.9446917,3.6248028,-35.3053436,-22.0000000,-5.5419846
2170,-1.7309990,7.3980455,-9.2176294,-63.2366409,91.3053436,-36.5954208,1.4556671,9.2032642,3.9552009,-32.4274826,-23.7480907,-9.9541988
2180,-3.1746953,8.3676920,-10.7666702,-106.8091583,84.8931274,-39.0839691,1.4149660,9.5288744,3.9911139,-26.6106873,-23.2442741,-13.7938929
2190,-4.8625989,9.6174593,-10.5176744,-146.2137451,73.8702316,-34.4885483,1.3982066,10.0675669,3.8187323,-20.6183205,-19.0000000,-16.6641216
2200,-6.4188218,11.0635490,-8.3054428,-165.2137451,55.0839691,-20.9923668,1.1061156,10.0077124,3.7540891,-14.0381680,-14.8778629,-16.5648861
2210,-6.4954362,11.7937775,-5.8466105,-159.7328186,38.8778610,-5.1984735,1.0366840,10.1896706,3.5314295,-9.2748089,-10.0534353,-15.0381680
2220,-6.6965480,13.2733860,-3.4117200,-132.0458069,32.7022896,8.8167934,0.9552816,10.3261395,3.2010312,-7.0229006,-4.2366414,-13.0992365
2230,-7.6278877,14.5925846,-2.0757623,-89.9694672,26.4961834,28.9541988,0.8523315,10.4554253,2.9328821,-8.0687027,1.4732825,-11.1145039
2240,-7.3812861,15.0211449,-1.5634058,-43.2671738,15.9236641,60.3587799,0.7972651,10.5583754,3.0238612,-10.5343513,4.5572519,-7.7480917
2250,-5.5712790,14.6476507,-1.9464760,0.4503817,19.3664131,92.9389343,0.7182568,10.5823174,3.1890604,-13.7328243,7.2595420,-3.7938931
2260,-3.5745249,14.2837343,-3.3494711,29.5801525,31.5267181,116.8015289,0.8355721,10.5104914,3.3542595,-16.5038166,9.0610685,1.5419847
2270,-1.7812769,14.0036144,-4.5441718,41.7709923,34.1908379,132.2061005,0.8643024,10.2423429,3.7038112,-17.9694653,9.3206110,4.0534353
2280,-0.0287303,13.7881374,-4.8266859,45.8244286,24.9236641,139.0229034,1.0654143,9.9933472,3.9049230,-18.5038166,8.8931293,5.0305343
2290,1.9680238,12.7586355,-5.4515696,53.6412201,-8.6946564,125.4809189,1.2449785,9.6485834,4.3885493,-15.6412210,7.7786260,5.0458016
2300,2.1643472,12.2510672,-5.9328012,47.6488533,-19.2824421,107.7862625,1.3790531,9.5528164,4.4100971,-13.1374044,6.9007635,6.7862597
2310,1.8147956,11.4538021,-6.4619174,32.2748108,-17.6030540,90.4351120,1.6112895,9.5384512,4.4507980,-10.6259546,5.9083967,8.3053436
2320,1.0223188,10.4889441,-6.7157016,8.6641226,-1.1679389,77.9770966,1.8578910,9.3588867,4.3191175,-8.6641226,6.2748094,9.1068707
2330,-1.2234308,9.5121145,-5.3031297,-28.2671757,40.9389305,73.8015289,2.0326669,9.2343884,4.0485744,-7.0229006,8.4961834,14.8244276
2340,-2.2696917,9.3205795,-4.2688398,-25.3816795,50.4885483,75.8244247,2.2744799,9.0931320,4.1323709,-7.0916033,9.6641226,18.0305347
2350,-3.5601597,8.7962523,-3.6487448,-8.5877867,49.3893127,82.9542007,2.4396791,9.0284882,3.9863255,-7.7862597,11.3282442,20.7099228
2360,-4.1132174,8.3700867,-3.9504125,16.3053436,47.1297722,99.4885483,2.6623387,8.8537130,4.0820932,-8.0763359,10.4427481,22.0458012
2370,-3.7636659,7.6997132,-5.5353661,39.4198456,47.0534363,120.4885483,2.9831600,8.7340031,4.0988522,-8.2748089,7.6946564,21.3816795
2380,-3.2249732,7.3429790,-7.7404146,53.5190849,49.2900772,142.4198456,3.2920105,8.8537130,4.2233500,-7.1374044,3.9160306,18.5343513
2390,-3.0286496,7.7332320,-9.7706871,55.1603050,51.0076332,163.0915985,3.5266411,8.8441362,4.0246325,-5.1526718,0.2671756,13.6717558
2400,-2.8299320,8.2144642,-11.3412752,45.3053436,47.7633591,181.0076294,3.8043671,9.0955257,3.8402798,-3.5877862,-2.2366412,8.3129768
2410,-3.3111639,8.7268209,-11.5280218,31.3664131,37.5419846,196.1984711,3.6966286,9.3517036,3.4093258,-2.9007633,-3.1908398,2.2824428
2420,-3.6415622,9.4762020,-10.9653873,22.8015270,20.7022896,211.9084015,3.3853838,9.4211359,3.1292057,-3.5801528,-1.6641221,-1.4045801
2430,-3.9360476,9.5121145,-10.0125008,22.3587780,3.8702290,229.2290039,2.9185169,9.4378948,3.0549858,-5.8854961,1.5038168,-1.8320611
2440,-3.9480183,9.5815458,-9.2679071,25.8244267,-10.2671757,248.3969421,2.7772598,9.4690189,3.0597742,-8.6106873,4.4198475,0.3206107
2450,-3.8785870,9.2679071,-8.7675219,29.3358784,-22.1374054,250.1297760,2.8442972,9.4714136,3.1579359,-11.4045801,8.6946564,0.3358779
2460,-3.3662305,8.4395180,-8.3341732,29.4809170,-27.1068707,250.1297760,2.8945751,9.3924055,3.4835455,-13.8091602,13.9465647,-0.0076336
2470,-2.7030399,7.5321202,-7.6997132,27.1374054,-24.0152664,250.1297760,2.7006457,9.3229742,3.9743545,-13.8854961,18.7099228,-2.0992367
2480,-1.9440818,6.7228842,-6.7252784,25.6564884,-25.2442741,250.1297760,2.4540441,9.2655134,4.4843168,-11.0458012,22.4656487,-6.0229006
2490,-0.7493813,5.3127065,-6.4020624,20.8244267,-33.1068687,250.1297760,2.2146254,9.2391768,5.0756817,-4.5038166,24.3282452,-8.7099237
2500,1.1803354,3.3135581,-5.5042415,12.0763359,-47.1297722,250.1297760,1.8866212,9.3086090,5.1594782,5.1374044,25.4122143,-10.7862597
2510,3.1579359,1.0702027,-4.0030847,3.4732823,-70.8473282,250.1297760,1.6735384,9.1865053,5.0421629,14.7251911,24.4809170,-11.3969469
2520,5.7388721,-1.5322813,-2.3534882,-4.9083967,-101.5496216,250.1297760,1.7405758,9.2248116,4.2209558,22.4045811,21.3511448,-11.0839691
2530,9.4211359,-5.0349803,-0.0287303,-12.4885492,-132.8320618,212.0305328,1.9776005,9.3636751,3.3614421,25.9236641,16.0687027,-11.6259546
2540,12.7322998,-9.4809904,2.4181314,-20.0687027,-159.0152740,162.8625946,2.1499822,9.4690189,2.5474176,25.4427490,10.0992365,-11.6946564
2550,17.5087070,-16.8718529,4.2903876,-29.9083977,-144.8396912,122.5343475,2.3510940,9.5743637,2.2265961,22.5954189,2.9465649,-11.0534353
2560,19.6126022,-19.6131992,5.8944945,-51.4580154,-44.9465637,107.3435135,2.7700772,9.8065996,1.8195840,18.2977104,-4.4809160,-10.4427481
2570,19.6126022,-19.6131992,6.2392578,-89.1145020,124.7328262,126.5190811,3.0454090,9.9334917,1.3886299,12.9389315,-9.0000000,-9.5114508
2580,18.8398762,-18.1192265,5.3773494,-133.5038147,250.1297760,175.6870270,3.1818779,10.1346035,1.2665262,6.3816795,-10.3587790,-7.6183205
2590,17.5111008,-12.0116482,5.2576399,-179.3206177,250.1297760,229.9541931,3.0861101,9.9909525,1.3168042,-0.3282443,-8.5725193,-5.2824426
2600,19.0409889,-6.0644817,8.2815018,-207.2137451,250.1297760,250.1297760,2.9256995,9.9119444,1.6184721,-6.4351144,-5.8320613,-0.9770992
2610,19.6126022,1.3598996,13.9916430,-196.7633514,238.0458069,245.5343475,2.6551561,9.7108326,1.9177457,-11.1679392,-3.7251909,4.0305343
2620,19.6126022,9.1817169,19.6126022,-132.3893127,96.9542007,179.7633514,2.6551561,9.5169029,2.4516499,-14.2519083,-3.5725191,9.3129768
2630,19.6126022,10.2207947,19.6126022,-19.3893127,-33.5496178,82.0457993,2.6575503,9.2535419,2.8514795,-15.5725193,-4.5725193,12.7251911
2640,19.6126022,5.9663200,19.6126022,107.8625946,-114.5801544,-32.2290077,2.7557120,9.1051025,3.1148405,-15.7328243,-5.5496182,13.9083967
2650,19.6126022,0.9265513,14.3364067,189.8167877,-106.2290039,-148.8091583,2.8419030,8.7531567,3.3351059,-15.7175570,-6.6870227,13.2366409
2660,19.6126022,-5.4348102,3.9216824,196.0458069,-48.6335869,-250.1374054,3.0071020,8.7411861,3.3590479,-15.3740454,-7.4198475,10.6030531
2670,19.6126022,-9.1936874,-2.2313845,148.5114441,-5.3511453,-250.1374054,2.9424589,8.7675219,3.6607156,-14.2748089,-6.8778625,6.5572519
2680,15.7322187,-10.3405046,-5.6287394,75.8778610,12.1297712,-250.1374054,2.6024840,8.7028790,3.8785870,-12.3053436,-4.6412215,2.0000000
2690,12.4378138,-10.5224628,-5.3174949,4.3740458,13.0839691,-250.1374054,2.0805507,8.7004843,4.0461802,-9.0534353,-1.7099236,-0.9236641
2700,11.5471754,-11.1377697,-3.0573800,-46.4122124,11.1755724,-250.1374054,1.6304430,8.7268209,4.0270267,-5.6641221,1.7633588,-2.0458016
2710,10.8887739,-10.8049774,-1.1803354,-70.1145020,11.0916033,-250.1374054,0.9433106,8.7531567,3.8211265,-3.8091602,4.0992365,-1.2671756
2720,9.5121145,-9.4929609,-0.5075682,-72.8244247,24.2213745,-250.1374054,0.5578461,8.6956959,3.6535332,-4.0381680,3.4122138,1.8015267
2730,7.5847921,-7.5943689,-0.9576758,-65.8854980,48.4274826,-250.1374054,0.5171449,8.7627335,3.3758070,-6.1374044,-1.7786260,5.8396945
2740,5.2289100,-5.3103123,-2.2720859,-58.0305328,74.4122162,-250.1374054,0.8714849,8.7986460,2.9520357,-10.1832066,-8.3664122,10.6030531
2750,3.5122759,-2.3798244,-3.8714044,-52.1526718,90.2595444,-245.4656525,1.5921360,8.8537130,2.3295465,-16.1068707,-14.1145039,12.7480917
2760,2.4540441,0.1436514,-5.5281835,-52.4503822,100.5954208,-216.4198456,2.3822186,8.7723103,2.1020982,-22.6259537,-18.9923668,12.1603050
2770,1.7956421,2.2672975,-7.1203194,-60.4885483,109.0305328,-188.1450348,2.9161227,8.7890692,1.9392935,-28.7404575,-21.3816795,9.2595415
2780,1.7094513,4.7021880,-8.1139078,-73.2213745,116.8091583,-162.1984711,3.4141142,8.7411861,2.0326669,-33.4045792,-19.8854961,5.7328243
2790,2.2984219,7.3884687,-8.2455883,-87.0229034,118.7404556,-140.3053436,3.7277529,8.7052727,2.1906834,-36.4351158,-15.5190840,0.5419847
2800,2.8826041,9.1027079,-8.2096758,-98.8320618,116.0610657,-125.5877838,3.9911139,8.6334467,2.6216373,-37.3206100,-10.1603050,-5.0763359
2810,3.0334380,11.0946741,-7.9487090,-105.8549652,109.0305328,-116.3511429,3.8402798,8.8249826,3.2058196,-35.7938919,-6.1374044,-11.1755724
2820,3.3470769,12.7155399,-7.1921453,-108.3358765,92.7404556,-110.9542007,3.8402798,9.0787668,3.6319854,-32.0992355,-3.7175572,-16.6946564
2830,3.8378856,14.0826225,-6.1578555,-105.6183243,70.3893127,-111.3282471,3.8426740,9.1936874,3.8187323,-27.5954189,-0.3435115,-19.8320618
2840,3.5553713,15.5694141,-5.7101417,-99.9312973,53.8244286,-112.6030502,3.6511390,9.3564920,4.0533628,-23.5954189,3.8167939,-24.1908398
2850,2.9927368,16.8838234,-5.5281835,-96.9465637,38.4961815,-108.1068726,3.3758070,9.2990322,4.2927818,-19.7557259,8.4732828,-27.9847336
2860,2.5043221,18.6172180,-4.7189474,-95.4656525,21.2290077,-98.5190811,2.6862805,9.3517036,4.3813667,-17.0839691,12.6488552,-31.0916023
2870,2.9352763,19.6126022,-3.1315999,-91.7786255,0.8320611,-89.5038147,2.0709739,9.2655134,4.5848727,-14.7786255,15.7251911,-31.6183205
2880,3.8187323,19.6126022,-1.1707586,-83.1755753,-21.9618320,-85.0916061,1.5298871,9.2583303,4.6950054,-13.4045801,17.8625946,-30.2671757
2890,4.6159973,19.6126022,1.0582317,-69.7175598,-33.2137413,-83.1832047,1.0534433,9.2176294,4.9631548,-13.3282442,16.9236641,-26.7480907
2900,5.2959471,19.6126022,2.9233053,-48.7022896,-37.4122124,-86.0457993,0.9720409,9.2655134,4.9894910,-12.8702288,11.4351149,-22.0839691
2910,5.9687142,19.6126022,4.6447277,-21.1145039,-47.7022896,-92.9770966,1.3287752,9.4498653,5.0110383,-12.8320608,4.3282442,-18.0152664
2920,6.3637557,19.6126022,5.3893204,8.2442751,-60.0687027,-100.8778610,1.8435259,9.5815458,4.7381010,-14.1221371,-0.4351145,-15.7938929
2930,6.6295104,19.0888729,5.8753409,35.2061081,-69.9770966,-108.1145020,2.0206959,9.6198530,4.8889351,-16.2977104,-2.6412213,-14.9160309
2940,6.3900914,17.6355991,5.6646523,60.7786255,-76.5419846,-116.9770966,1.9368993,9.5671806,5.0852585,-17.4656487,-3.3587787,-14.9389315
2950,5.6550756,15.7441902,5.0349803,82.7175598,-84.6717529,-127.1221390,1.7693061,9.6892843,5.4180508,-16.3282452,-3.8091602,-14.0763359
2960,4.5010762,13.9437590,4.2664456,101.3435135,-95.4809189,-137.7251892,1.7788827,9.8664551,5.9304070,-12.7404585,-3.4045801,-11.7480917
2970,3.2608860,11.9613705,3.4260850,112.3587799,-107.8091583,-146.8473358,1.9057748,10.0029240,6.2057390,-7.6412215,-1.5648855,-10.1908398
2980,2.1475880,10.2016411,2.8323262,117.9312973,-117.7328262,-154.7633514,2.1978660,10.1944590,6.3565731,-1.6412214,0.1221374,-9.1679392
2990,1.0582317,8.4826136,2.5474176,120.0763321,-122.8320618,-161.9618378,2.5737536,10.5344334,6.6510582,5.9923663,0.4656489,-9.4961834
3000,0.0311245,6.9455438,2.4995339,120.7328262,-121.0763321,-165.9389343,2.8035958,10.8337069,6.9144192,14.8015270,1.6870229,-14.2824430
3010,-1.0151364,5.5090299,2.5330524,120.9923630,-113.3664093,-165.6030579,2.8682389,11.1042509,7.2950954,26.4961834,3.3969467,-20.5801525
3020,-1.9297167,4.3334827,2.6431851,121.8549652,-101.4351120,-159.2366486,2.6886747,11.5232334,7.4890246,41.8320618,4.7557254,-27.8702297
3030,-2.8179610,3.0885043,2.2433555,124.2595444,-85.2519073,-148.1450348,2.2744799,11.8249016,7.5177550,58.5267181,6.7938933,-34.5267181
3040,-3.7373297,2.1954718,1.6328372,125.4732819,-68.8244247,-132.4961853,1.5945302,11.9924946,7.1227136,74.6946564,10.4045801,-38.7938919
3050,-4.9009056,1.6328372,0.4836263,122.3053436,-57.3816795,-111.5725174,0.8236012,12.2367020,6.6510582,88.1603088,13.3664122,-39.9312973
3060,-5.4683285,1.4700323,-0.2753318,112.9160309,-50.2748108,-86.1984711,-0.1053443,12.4809093,5.8537931,95.8091583,16.3282452,-34.3053436
3070,-5.7029591,1.2928623,-0.5841822,98.0534363,-46.0992355,-58.4885483,-0.7876883,12.5718889,5.1427188,98.8396912,18.0839691,-23.0916023
3080,-5.2887645,1.2186425,-0.2561783,85.4122162,-40.8702278,-31.1832066,-0.8690908,12.3995075,4.5298066,97.5114517,17.9923668,-9.5801525
3090,-4.3119354,1.3455344,0.2633608,75.6717529,-30.7404575,-7.3587785,-0.5075682,12.1265697,4.1970143,92.7480927,16.2748089,5.1603055
3100,-3.3087699,1.5514348,0.6799498,68.7709961,-19.0763359,8.9923668,0.1460456,11.5112629,3.9599893,88.2213745,12.1297712,14.0916033
3110,-1.3527170,2.0925217,0.4836263,53.2900772,13.0229006,24.8778629,1.1899122,10.1609402,3.8785870,80.5801544,-0.6259542,18.3740463
3120,0.3112446,2.5905130,0.5195391,36.1145020,53.6106873,27.4580154,1.4460905,9.3636751,3.2824337,81.1221390,-9.6106873,14.5343513
3130,0.7230452,3.2034254,-0.0071826,27.3893127,69.8473282,16.9541988,1.3383518,8.6885138,1.7812769,73.7862625,-13.8167934,16.3282452
3140,0.9457048,4.6566987,-0.0718257,21.6030540,61.7404594,-10.6335878,1.5250987,7.7547798,0.9768293,39.3893127,-23.7404575,16.6412220
3150,0.9552816,4.8793583,-0.5410868,19.3740463,68.8167953,-18.0458012,1.4101776,7.4171991,1.3024391,29.0763359,-25.0381680,17.4732819
3160,0.5482694,4.8482337,-1.6519908,12.3511448,79.8167953,-20.0916023,1.7022687,7.2543941,1.3814473,18.9923668,-22.5267181,16.5648861
3170,-0.2059003,5.2001796,-3.2848279,-0.4656489,93.2824402,-16.9541988,1.5729824,6.7779503,1.8195840,11.0916033,-20.8931293,16.0229015
3180,-1.0893562,5.8561873,-5.1139889,-20.3664131,103.7480927,-10.7404585,1.4077834,6.6079631,2.2577207,5.6641221,-19.1145039,17.6717548
3190,-1.5442522,6.5983863,-7.0460997,-47.6946564,114.3053436,-2.3893130,1.4269369,6.4260044,2.7365584,4.3129773,-15.3893127,19.5267181
3200,-2.1882892,7.6877422,-8.7244263,-78.3129807,126.2061081,7.9847326,1.5849534,6.1123657,3.3135581,6.9694657,-9.2366409,21.9541988
3210,-2.5258698,9.2511482,-10.0053177,-109.6259537,119.3206100,19.0381680,1.6663558,5.9519548,3.3518653,11.4580154,-1.6412214,24.4961834
3220,-2.0278785,10.5416164,-10.0555954,-137.6259613,95.0457993,26.1526718,1.7262106,5.6598639,3.1339941,15.5190840,2.7404580,25.2137413
3230,-1.5274929,11.6764622,-8.6478119,-153.6412201,60.1221390,28.3358784,1.9225341,5.5952206,2.7461352,16.5496178,4.4045801,24.0000000
3240,-1.3239868,12.9382000,-5.9926562,-149.2900696,24.6717548,29.3893127,1.9776005,5.5305777,2.2361729,12.9160309,2.4198472,21.8931293
3250,-1.5705882,14.4417505,-4.0533628,-130.9923706,4.1450381,35.7022896,1.9225341,5.4348102,1.7286048,4.7862597,-2.0610688,20.4580154
3260,-1.9632354,15.6005383,-2.3606708,-106.0381699,-1.0534351,47.6106873,1.6065011,5.2265158,1.2713146,-6.5343513,-6.7099237,21.7175579
3270,-1.6065011,16.0123386,0.2418131,-70.4274826,0.2213740,62.9083977,1.3503228,4.9607606,1.0678085,-20.5954189,-10.3282442,25.5343513
3280,-0.1244979,15.4951944,1.9776005,-21.7938938,12.5114508,79.7251892,1.1851238,4.6902170,0.7589580,-37.0839691,-14.2442751,30.8244267
3290,2.4181314,14.6332855,1.5250987,25.1374054,30.0534344,92.7099228,1.3862357,4.7213416,0.5147507,-56.0381660,-20.9160309,34.1832047
3300,4.6614871,14.1975431,-0.0861908,57.3206100,47.8015251,98.8549652,1.8267666,4.7716198,0.4429250,-75.4045792,-28.6183205,33.5190849
3310,5.7628140,13.9437590,-1.8219782,73.1832047,58.3129768,100.3282471,2.3391230,5.3318601,0.8499373,-92.9007645,-36.6335869,29.0076332
3320,5.7388721,13.6373034,-4.0318151,77.7099228,57.0916023,98.2900772,2.4133430,5.9136481,1.4820032,-105.9389343,-43.1603050,23.1374054
3330,5.0206151,13.4026728,-5.6742291,72.5648880,39.7328262,90.8396912,2.2888451,6.7037306,2.3630650,-112.7099228,-45.4656487,17.6030540
3340,4.4531922,13.1919842,-6.5696559,62.0534363,10.0229006,77.4198456,2.2457497,7.5919747,3.1507533,-113.0457993,-45.1068687,14.0458012
3350,3.5793133,12.7155399,-7.0508881,48.7709923,-22.8625946,61.5190849,2.2912393,8.5568333,4.1491303,-105.8015289,-42.8931313,10.7022905
3360,2.6192431,11.8296900,-7.2232695,32.5877876,-46.1450386,47.8702278,2.4205256,9.5671806,4.7979555,-90.9465637,-37.3053436,8.7862597
3370,1.7166338,10.8049774,-6.8545642,15.4580154,-53.1374054,40.9312973,2.6455793,10.3835993,5.0373745,-71.7557220,-27.8931293,7.2595420
3380,0.1651991,9.7012558,-6.8880830,2.6259542,-52.2442741,44.7022896,3.1052637,11.2287483,4.7716198,-52.2213745,-15.7862597,3.9465649
3390,-2.9209111,8.6885138,-7.8146343,-5.5267177,-51.0305328,65.8549652,3.5362179,12.1241751,4.3478479,-35.5648842,-2.2748091,-1.0839695
3400,-6.9096308,7.6997132,-9.5599985,-10.5725193,-59.7938919,112.2519073,3.5170643,12.7634239,3.8450682,-23.0076332,9.7709923,-6.2442746
3410,-11.2143831,6.2991123,-11.1018562,-9.9923668,-91.8167953,190.4045868,3.5194585,13.2614155,3.3710186,-15.7633591,20.9847336,-10.0992365
3420,-12.1193867,5.5353661,-11.8751793,3.2137403,-147.1908417,250.1297760,3.3087699,13.5271702,3.1148405,-13.4122133,30.5496178,-10.6946564
3430,-9.4474716,5.2815819,-11.8153248,21.0839691,-209.1603088,250.1297760,3.0525916,13.6085730,3.1842721,-14.2213745,35.7099228,-10.6793890
3440,-4.8099265,5.7125359,-11.7482872,35.3816795,-230.7862549,250.1297760,2.8275378,13.4218264,3.4476328,-16.3587780,35.6030540,-10.0305347
3450,-1.0917504,6.9072366,-12.1217813,35.0152664,-193.7404633,250.1297760,2.3582766,13.1010046,3.6966286,-20.0305347,31.8473282,-8.4351149
3460,0.9888002,8.6166878,-12.6604738,11.1450386,-122.5267181,250.1297760,2.5019281,12.6820211,4.5130472,-20.6488552,25.2213745,-7.0839696
3470,1.3144100,9.2846670,-12.3109226,-30.3969460,-52.5648842,250.1297760,2.3846128,12.2127600,4.9966736,-19.3053436,18.1068707,-8.1374044
3480,1.4460905,9.4402885,-10.2519188,-68.0305328,2.0534351,250.1297760,2.3247581,11.6644907,5.3103123,-15.7862597,10.6259546,-7.7251906
3490,1.8267666,9.2846670,-7.4531116,-85.8854980,36.0610695,250.1297760,2.4492557,11.1688938,5.6215568,-10.3740454,3.1832061,-6.6793895
3500,2.3415172,8.9734221,-5.7077475,-85.5725174,50.5267181,250.1297760,2.5522060,10.7810354,5.8585815,-2.4274809,-0.6259542,-7.3740458
3510,2.7293761,7.3262196,-5.4084740,-78.5954208,56.3358765,250.1297760,2.5713594,10.4195127,5.8274570,7.9541984,-0.6717557,-7.9083967
3520,3.6080434,5.6646523,-5.5114241,-72.4580154,55.6106873,250.1297760,2.4492557,10.0699606,5.6766233,18.4732819,3.5954199,-6.7480917
3530,4.5609307,4.2927818,-5.3342543,-64.3740463,52.0534363,250.1297760,2.4923513,9.8018112,5.3103123,28.0381680,10.5648851,-4.1145039
3540,5.7652082,3.0047078,-5.2241216,-54.7480927,41.6412201,242.1832123,2.4109488,9.5911226,4.9248476,34.9618340,17.4656487,0.0000000
3550,6.8306227,1.1420283,-5.8537931,-51.5343513,22.4885502,215.4809113,2.4085546,9.3373384,4.5178356,38.8549614,24.4809170,4.1832061
3560,8.3796635,-1.0175306,-6.3086891,-59.7480927,-7.8167939,177.7175598,2.3750360,9.0189114,4.3741841,39.3816795,28.9236641,8.4198475
3570,10.5775290,-3.9575951,-5.3486195,-75.3358765,-50.8396950,127.4045792,2.2984219,8.8225880,4.1108232,36.7404594,30.0763359,12.5648851
3580,13.2278967,-7.9439206,-2.9855542,-92.5801544,-102.5267181,65.7175598,2.3558824,8.5496502,4.1658897,33.0839691,26.8931293,15.2442751
3590,18.0737362,-12.2367020,1.4604555,-108.9083939,-155.7175598,-2.2824428,2.5689652,8.4490948,4.0653338,29.0076332,20.2213745,13.8702288
3600,19.6126022,-17.6834831,9.7419567,-121.8396912,-190.8625946,-84.0000000,2.8538737,8.3844519,3.8546450,25.2442741,11.1450386,10.4351149
3610,19.6126022,-19.6131992,18.2461185,-122.1908417,-156.1755676,-148.7404633,2.7413468,8.4514885,3.6607156,21.2061062,2.7557251,7.5114503
3620,19.6126022,-19.6131992,19.6126022,-117.6030502,-2.0992367,-137.7099304,2.6216373,8.5568333,3.2632802,15.9541988,-4.3129773,5.9312978
3630,8.5879574,-15.2414103,16.4552650,-124.7328262,210.8931274,-0.1603053,2.7964132,8.6310530,3.1148405,10.6412210,-8.9923668,5.3129773
3640,1.9321109,-3.3375001,16.0817699,-136.8549652,250.1297760,209.0839691,2.9616125,8.7435799,2.7317703,4.3893127,-11.2977095,5.5114503
3650,9.9430685,0.1340746,19.6126022,-106.3435135,250.1297760,250.1297760,2.8921809,8.7579451,2.7054341,-1.7709924,-11.4045801,7.3206105
3660,19.6126022,1.9464760,19.6126022,-7.1297708,194.4503784,250.1297760,2.9735832,8.8752604,2.8849983,-6.8625956,-10.5038166,8.6488552
3670,19.6126022,4.6878228,19.6126022,135.3664093,70.3740463,250.1297760,3.0765336,8.7770987,3.1962428,-10.6641226,-8.8244276,8.0839691
3680,19.6126022,4.9320302,14.4632988,250.1297760,-60.5877876,43.2900772,2.9903426,8.9662399,3.5649481,-13.0076332,-7.4580154,6.0076337
3690,19.6126022,2.4779861,4.2903876,250.1297760,-167.8625946,-155.3358765,2.8227494,8.8872309,3.9288650,-13.3664122,-7.1526718,5.8091602
3700,19.6126022,-0.7733232,-3.2896163,250.1297760,-194.6870270,-250.1374054,2.6048782,8.8680773,4.1994085,-12.1908398,-8.4961834,5.2519083
3710,17.4895535,-4.0318151,-7.8409705,157.6870270,-168.6030579,-250.1374054,2.6288199,8.7363977,4.3095412,-9.4351149,-9.9541988,5.1679387
3720,13.9748840,-7.9918046,-7.9606800,20.5648861,-112.9312973,-250.1374054,2.5330524,8.6573887,4.4340386,-6.1603055,-12.4122133,5.0687022
3730,12.4856977,-9.7108326,-3.2106080,-78.8931274,-55.5038185,-250.1374054,2.6695213,8.4658537,4.4627690,-1.6946565,-15.9236641,5.9770994
3740,10.9127159,-9.5504217,1.8076130,-127.7022934,-9.8625956,-250.1374054,3.2010312,8.3916340,3.9264708,2.5496182,-19.6488552,5.1832061
3750,8.6933022,-8.3605099,4.3741841,-127.0305328,23.2137413,-250.1374054,3.7014170,8.5879574,3.6152260,5.3282442,-23.6412220,3.1221373
3760,6.9670911,-6.6893654,3.8737986,-107.4351120,59.4351158,-250.1374054,4.1227942,8.8968077,3.1938488,6.1450381,-28.5038166,1.2213740
3770,5.0493455,-4.1347651,1.9153515,-84.4961853,99.5725174,-250.1374054,4.4388270,9.2870607,2.8754215,4.7862597,-35.1145020,-0.0076336
3780,2.6048782,-1.9823889,-0.3758878,-68.3053436,121.6183243,-250.1374054,4.7045822,9.6102762,2.2313845,1.1832061,-37.6793900,-0.1450382
3790,0.3280039,0.1197095,-2.6072724,-61.2290077,132.7022858,-250.1374054,4.9703374,9.7156210,1.8387375,-5.9389315,-37.1297722,0.0229008
3800,-2.0398495,3.3638363,-4.6878228,-59.4732819,141.0992432,-227.5572510,4.8362627,9.5959110,1.8722562,-14.7480917,-34.8473282,0.9465649
3810,-3.4404502,6.8306227,-5.6981707,-59.3816795,144.0000000,-169.9313049,4.4100971,9.3828287,2.3774302,-22.8931293,-34.3358765,-0.4809160
3820,-3.3638363,11.3963413,-5.9735026,-57.7938919,144.4503784,-116.0381699,3.9025288,9.2224178,3.0525916,-27.7938938,-34.5114517,0.3893130
3830,-2.0087249,16.1895084,-5.6670465,-56.2442741,142.2213745,-81.3740463,3.5553713,8.9853926,3.7923961,-28.1145039,-34.0687027,-1.1145039
3840,0.1915352,19.3570213,-5.3222833,-53.0763359,140.5725250,-73.5877838,3.1196289,8.6669655,4.2209558,-23.8778629,-31.0305347,-2.9160306
3850,2.2625091,19.6126022,-5.1882086,-48.4503822,140.4732819,-86.2900772,2.7700772,8.5233145,4.5896611,-17.1908398,-25.1755733,-6.6717558
3860,2.2242019,19.6126022,-4.9607606,-44.1984749,142.9313049,-96.8778610,2.2074428,8.3174143,4.6997938,-8.9160309,-19.3358784,-11.0076332
3870,1.8578910,19.6126022,-3.8809812,-37.3129768,142.5267181,-90.8702316,1.5250987,8.1665802,4.7452836,0.3587786,-13.4732828,-14.2900763
3880,2.4109488,19.6126022,-1.9153515,-17.4656487,129.3435059,-74.6641235,0.9528874,8.0588417,4.6159973,9.5725193,-6.2595420,-16.4503822
3890,3.9671719,19.6126022,-0.1771700,18.3282452,96.0916061,-58.2824440,0.4094064,8.1498213,4.1994085,17.5190830,2.0458016,-17.3358784
3900,5.5664907,19.6126022,1.1037214,63.1832047,51.3664131,-44.6946564,-0.1484398,8.0899658,3.8737986,23.2748089,9.2977095,-17.9007626
3910,7.4770536,19.6126022,1.9560528,105.5572510,1.8244275,-37.3206100,-0.5027798,8.0229292,3.5146701,26.3969460,14.6564884,-18.1832066
3920,9.5121145,18.9739513,2.0015423,144.1603088,-38.3129768,-40.1908379,-0.8858501,8.0923605,3.0094962,27.8015270,17.6793900,-16.8702297
3930,10.3261395,16.9771976,1.5011568,175.6259613,-62.7633591,-57.3358765,-0.8882443,8.0923605,2.7030399,27.2442741,17.1908398,-15.3358774
3940,9.8520899,14.6476507,-0.2178712,194.7709961,-75.7251892,-84.2748108,-1.0055596,8.1857338,2.0206959,23.7633591,15.0610685,-11.9236641
3950,8.4419117,12.3252869,-1.8602852,197.3587799,-82.7786255,-111.6793900,-0.3998296,8.4323349,1.3910241,16.8625946,8.6335878,-6.5114503
3960,6.4188218,9.7970228,-3.4212968,184.6793823,-84.5038147,-133.5648804,0.2849085,8.5520449,0.7541697,6.2977099,0.3511450,-1.3740458
3970,4.4699516,7.7571740,-4.3143296,161.8702240,-80.1832047,-145.8702240,1.1683644,8.5352850,0.4716553,-6.3129773,-8.4274807,2.5190840
3980,2.9041519,6.1770086,-4.1802549,135.5877838,-71.7404556,-148.9389343,1.9871773,8.6358414,0.2011119,-19.8396950,-15.0610685,3.5190840
3990,1.5107336,4.8793583,-3.4189026,113.2595444,-59.3053436,-145.6259613,2.9352763,8.5496502,0.2154770,-32.6259537,-17.2213745,3.0229008
4000,0.6871324,3.9767487,-2.4564383,99.0687027,-46.2900772,-139.3511505,3.6631098,8.4036045,0.4764437,-43.7709923,-14.0534353,0.2519084
4010,-0.1699875,3.1483591,-1.6424140,92.5496216,-34.6259537,-130.6259613,4.1347651,8.3317795,1.1132981,-51.3435097,-7.9083967,-5.6641221
4020,-0.8619082,2.4851687,-1.0630201,92.2595444,-28.4732819,-119.5114517,4.2089849,8.3030491,1.9345051,-54.0534363,-0.4122137,-11.2748089
4030,-1.3383518,2.1667414,-0.8786675,94.7328262,-26.0687027,-106.9236679,4.0940638,8.4012108,2.8514795,-51.5572510,6.6793895,-16.6641216
4040,-1.8028246,1.6424140,-0.7781116,98.2137375,-26.2824421,-94.7786255,3.9312592,8.4921904,3.5505829,-45.3893127,12.5343513,-20.4045811
4050,-2.0613971,1.2306134,-0.9265513,101.2061081,-31.4732819,-81.6946564,3.8426740,8.6573887,3.9599893,-37.4656487,15.8549614,-23.6106873
4060,-2.4037662,1.0342898,-1.1396341,99.3053436,-39.3816795,-65.9618301,4.0389977,8.9853926,3.8905578,-30.2137413,16.5496178,-29.8702297
4070,-2.6431851,1.0199248,-1.3694763,89.5190811,-44.1450386,-45.6412201,3.9121056,9.3588867,3.8761928,-24.5572510,16.1068707,-35.0992355
4080,-2.5761478,0.9480990,-1.8052188,75.4503784,-40.7786255,-23.1145039,3.8307030,9.8305416,3.5817075,-21.3206100,14.9847326,-39.2213745
4090,-2.1763182,1.0510491,-1.6088953,59.4580154,-35.3969460,-4.1374044,3.4141142,10.1657286,3.4021432,-21.1297703,15.5648851,-41.4427490
4100,-1.2258250,1.2473727,-1.0989330,46.7251892,-28.1603050,7.5648856,3.0621684,10.2758608,3.1603301,-22.9770985,16.3740463,-40.1221390
4110,-0.4884146,1.4700323,-0.6440369,37.8778610,-21.2977104,11.4809160,2.6814921,10.4051476,3.3087699,-25.8702297,16.2061062,-37.6488533
4120,0.0909792,1.6519908,-0.5650287,32.0076332,-13.9236641,9.9160309,2.2577207,10.3955708,3.6128318,-27.8320618,16.4732819,-33.4045792
4130,0.1675933,1.9632354,-0.6392486,28.1374054,-5.0305343,4.9923663,2.1092808,10.2998028,3.9959023,-29.0687027,16.3893127,-27.1068707
4140,-0.0047884,2.3558824,-0.9672526,22.8473282,2.3053436,-0.7404580,2.0685797,10.2543135,4.4531922,-29.4732819,13.6793890,-20.6412220
4150,-0.3974355,2.6623387,-1.9728121,12.7709923,7.3282442,-4.4045801,2.3965836,10.1561518,4.6040263,-29.3587780,9.5954199,-15.4198475
4160,-1.1420283,2.7844424,-3.2010312,-2.4198472,11.7099237,-1.6946565,2.8371146,10.1561518,4.8075323,-29.3435116,4.8702292,-12.4656487
4170,-1.4772149,3.1148405,-4.0270267,-22.0992374,12.4045801,6.9694657,3.1411765,10.1920643,4.9152708,-30.3664131,0.4732825,-10.8549614
4180,-0.5219333,4.9799142,-3.5122759,-57.6106873,28.8702297,33.3053436,3.2967989,10.2207947,5.6670465,-31.2900772,-7.1603055,-12.0763359
4190,-0.1628049,6.2129216,-3.2177906,-58.4885483,37.4351158,37.0839691,3.2513094,10.2782555,5.9902620,-29.7557259,-9.1526718,-11.0610685
4200,-0.2657550,8.8561068,-4.9128766,-53.3358765,39.3129768,37.0381660,3.1770895,10.4099360,6.7659793,-21.8167934,-11.4351149,-9.6870232
4210,-0.2418131,10.0053177,-5.5784616,-53.3206100,31.0381680,34.8854980,3.1339941,10.5080976,7.2759418,-15.3664122,-13.5877867,-9.3511448
4220,-0.1221037,10.6230183,-6.0932121,-54.7175560,19.3282452,29.4198475,2.9256995,10.5607700,7.6494355,-7.0916033,-14.0229006,-9.7251911
4230,-0.3710994,11.2718439,-6.6558466,-59.9083977,12.6946564,24.5038166,2.7293761,10.7187862,7.8361821,2.0992367,-14.6412210,-9.5648851
4240,-0.4572902,12.1050215,-6.3733325,-68.2824402,12.5114508,23.0381680,2.7365584,10.9534168,8.2767134,13.4122133,-15.5343513,-9.0610685
4250,-0.6248835,12.6389265,-5.2265158,-74.6793900,17.5725193,24.2442741,2.8107784,11.2862091,8.6430235,27.9160309,-14.5038166,-9.6106873
4260,-0.9361281,12.7825775,-4.3957319,-74.0305328,20.2977104,26.7022896,2.9687948,11.7147694,9.1314383,45.8778610,-11.8549614,-10.0839691
4270,-0.9480990,12.8113079,-3.5362179,-69.1374054,16.9160309,30.5877857,2.8490853,11.6644907,9.1290445,65.4351120,-8.0534353,-9.7938929
4280,-0.9911944,12.9190464,-2.9041519,-61.4122124,12.5267172,33.6564903,2.5546002,11.6142130,8.8369532,86.1450348,-4.5725193,-12.7862597
4290,-0.6727672,12.7203283,-2.1787124,-50.5877876,9.9770994,35.6412201,1.9033806,11.4609852,8.2384062,104.7404556,-2.9312978,-17.0916023
4300,-0.3734936,12.9070749,-1.9943599,-36.4045792,15.6335878,37.6259537,1.2186425,11.3269100,7.3717093,119.8778610,-1.8854961,-18.8931293
4310,-0.5554519,13.0746689,-2.3534882,-21.9083977,25.6412220,40.7786255,0.5051740,11.0515785,6.2201042,130.4503784,-1.7404580,-17.1984730
4320,-0.7278336,13.3500004,-3.4260850,-12.1374044,37.5114517,45.5114517,0.0071826,10.8839855,4.9775200,135.2977142,-1.8396946,-12.2061071
4330,-0.8283895,13.7019463,-4.8075323,-9.0763359,55.3358765,52.1755714,-0.2537841,10.5152798,3.9839313,134.4580078,-2.5419848,-5.6106873
4340,-1.0702027,14.1688128,-5.8657641,-11.7633591,72.0839691,59.4427490,-0.3926471,10.1010857,2.9328821,129.7328186,-4.0381680,2.0305343
4350,-1.1539993,14.3723192,-6.6319046,-16.1755733,81.0076370,65.1068726,-0.1508339,9.6078825,1.9464760,121.5419846,-5.5877862,8.8167934
4360,-1.5610116,14.2382450,-7.1370788,-20.5648861,72.6870193,69.3282471,0.1556223,9.0955257,1.1037214,109.7480927,-8.2977095,15.4045801
4370,-2.5234756,14.2214851,-7.4746594,-23.3053436,39.7480927,76.7862625,0.4788379,8.6430235,0.4548960,95.3664093,-11.2442751,19.5801525
4380,-2.5593886,14.3986549,-6.8641410,-24.5419846,-1.9007634,83.7099228,0.8427547,8.2551651,0.0909792,79.5267181,-12.7633591,21.5267181
4390,-2.3415172,14.1305065,-5.1427188,-20.6183205,-37.0076332,85.7328262,1.2641320,8.1641865,-0.1029501,61.8167953,-14.0687027,20.7709923
4400,-2.3750360,13.6923695,-2.3558824,-3.6641221,-51.8091621,86.8625946,1.0917504,7.1155310,0.5698171,47.9236641,-16.0687027,21.0763359
4410,-2.3510940,12.6604738,-0.9217629,26.4198475,-49.1755714,89.4122162,1.2473727,7.1705976,0.9433106,34.3282433,-17.0992374,18.2595425
4420,-3.0980811,11.1066446,-1.9632354,56.3129768,-22.7099228,95.1832047,1.0151364,6.5050125,1.4053892,25.6488552,-19.2519093,18.0000000
4430,-4.9655490,9.9837704,-5.0110383,71.5419846,11.1450386,110.0610657,1.0031654,6.4427638,1.8147956,20.2061062,-17.4961834,19.9007626
4440,-6.6726060,9.2463598,-8.1258793,70.2442780,36.7862587,132.2213745,1.3383518,6.1578555,1.9752063,17.7404575,-13.4427481,19.8549614
4450,-8.0157461,8.5640154,-10.5823174,53.8244286,52.7404594,158.3969421,1.3958124,5.8226686,2.0853391,16.7938938,-6.3740458,19.4809170
4460,-8.5616217,7.9008250,-10.4482431,35.1755714,53.8549614,189.8167877,1.3575054,5.7819676,2.2816625,15.2442751,1.8931298,17.7022896
4470,-8.2551651,6.4307928,-9.0428534,28.0152664,45.3969460,226.3129730,1.2784972,5.7819676,2.1571648,12.1068707,7.1450381,16.9847336
4480,-3.8929520,2.6599445,-6.0596933,85.2671738,9.1603050,250.1297760,2.2098370,5.5042415,1.7214222,-18.6641216,-0.9312977,18.3664131
4490,-1.1851238,1.3407460,-7.1346846,90.0610657,10.9160309,250.1297760,2.5953014,5.4898763,1.7262106,-30.3664131,-8.0610685,14.6183205
4500,1.7956421,0.4357425,-7.4004397,80.0229034,8.2213745,250.1297760,2.9472473,5.5880380,1.9680238,-40.5572510,-14.8778629,7.9618320
4510,5.4443870,-0.0957676,-6.7755561,63.1221390,-3.2137403,250.1297760,3.0885043,5.6598639,2.4468615,-46.1679382,-20.8702297,0.4732825
4520,9.1027079,-0.9002152,-5.6311336,47.3511467,-18.9618320,250.1297760,2.9161227,6.0596933,2.6743097,-48.4961815,-24.1984730,-7.5496182
4530,11.9996777,-2.2792683,-4.6566987,27.1374054,-46.9007645,250.1297760,2.7485294,6.4307928,2.8682389,-46.8854980,-25.0152664,-13.4427481
4540,14.0467091,-4.6207857,-3.6439564,-3.8778627,-89.6259537,207.3282471,2.5522060,6.8832946,2.8849983,-43.5725174,-24.4503822,-17.0687027
4550,17.8319225,-8.4227581,-1.0271072,-41.2519073,-137.8015289,117.7099228,2.6551561,7.4890246,2.7269819,-39.7862587,-22.2977104,-19.0610695
4560,19.6126022,-15.4616756,4.2137733,-78.4045792,-159.3969421,28.8473282,3.1723011,8.2599535,2.5282640,-35.5954208,-19.4885502,-20.5801525
4570,19.6126022,-19.6131992,11.5830889,-111.0229034,-133.6183167,-41.2137413,3.8067613,9.0117292,2.3199697,-30.2061062,-14.1603050,-25.3664131
4580,19.6126022,-19.6131992,16.5845509,-114.1450348,-7.1145039,-44.4045792,4.0294209,9.5599985,2.1619530,-23.2900772,-4.5038166,-33.7251892
4590,16.6515884,-17.8462887,14.3651371,-93.0381699,187.7557220,46.7709923,4.0725164,10.7092094,1.9009864,-16.4961834,8.0381680,-44.1755714
4600,13.9820662,-6.2967181,10.8480721,-95.3893127,250.1297760,183.0229034,2.9759774,10.5104914,2.2936335,-8.6488552,15.1755724,-54.5801544
4610,19.1199970,1.7453641,12.6556854,-101.8854980,250.1297760,250.1297760,2.4277081,11.2574787,2.6048782,1.2748091,19.7480907,-65.1679382
4620,19.6126022,7.0221577,16.5127239,-64.9847336,247.7328186,250.1297760,1.2617378,12.1145983,2.6264257,11.3053436,23.6259537,-72.8625946
4630,19.6126022,9.3828287,17.3482971,23.1145039,121.6870193,138.8473358,0.3567342,12.7945480,1.9991482,16.9312973,25.5725193,-70.9312973
4640,19.6126022,5.9184365,14.4920292,130.1297760,-16.7938938,-47.8473282,-0.4357425,13.2733860,1.6615674,18.2519093,24.0992374,-63.1984749
4650,19.6126022,-0.5315101,8.4299412,206.7099304,-139.1297760,-226.3435059,-0.9624642,13.5151997,1.1516051,13.8931293,22.0992374,-52.8549614
4660,19.6126022,-7.0293403,0.7421987,215.0152740,-165.1145020,-250.1374054,-0.8930327,13.5870247,0.7924767,5.4809160,16.9083977,-41.6183205
4670,19.6126022,-10.8001890,-5.1666608,156.9694672,-134.8854980,-250.1374054,-0.5722113,13.4457684,0.8212070,-6.5419846,12.5114508,-32.0076332
4680,15.1169119,-12.6293497,-10.7044210,39.1832047,-72.0763321,-250.1374054,-0.2992737,13.0387554,1.3694763,-18.2061062,9.2519083,-24.8549614
4690,10.9079275,-12.1457233,-9.7299862,-72.2061081,4.3893127,-250.1374054,-0.1460456,12.5216112,2.4564383,-25.0992374,6.4885497,-19.0305347
4700,7.8194227,-10.2375546,-5.4515696,-132.4732819,42.9465637,-250.1374054,-0.0359128,12.0786858,3.6343796,-25.5038166,5.3206105,-11.9465647
4710,6.4571290,-8.6717539,-2.8275378,-151.8854980,54.4045792,-250.1374054,0.2322364,11.6549139,4.2999644,-21.0152664,5.6870227,-5.0000000
4720,6.2009506,-6.9862447,-1.6495966,-147.8015289,59.2061081,-250.1374054,0.5650287,11.1114330,4.6327567,-14.7328243,6.3282442,2.5114503
4730,5.0182209,-4.5848727,-1.3527170,-129.1908417,72.0305328,-250.1374054,0.9648584,10.5775290,4.5585365,-8.7557249,6.8320613,7.9236641
4740,2.8419030,-1.9632354,-2.0949159,-106.4580154,87.9847336,-250.1374054,1.2904681,10.1154509,4.6997938,-4.1755724,6.4198475,13.1297712
4750,0.6943150,0.8930327,-3.2201848,-89.7099228,95.2213745,-235.2671814,1.5562232,9.5863342,4.5489597,-1.4274809,5.0305343,15.9389315
4760,-0.2968795,3.2537034,-3.7469065,-75.5572510,98.8396912,-200.5038147,1.8315549,9.1601686,4.3741841,-0.2366412,2.6564887,17.0610695
4770,0.2082945,4.9296360,-4.1371593,-61.4961815,101.8396912,-167.8015289,2.0254843,8.7938576,4.2951760,-0.0687023,-0.4122137,16.5190830
4780,1.4915800,6.2368636,-4.4412212,-48.8702278,100.4427490,-144.3511505,2.1116750,8.4802189,4.1994085,0.2290076,-3.6106870,15.0610685
4790,2.3558824,7.7308378,-5.3701668,-41.2061081,96.9312973,-128.9541931,2.1691356,8.2216463,4.1587071,0.8473282,-7.2595420,11.8702288
4800,2.4372849,9.6629486,-6.1650376,-44.6412201,92.7175598,-115.9007645,1.9632354,8.1186962,3.8211265,1.3587786,-10.5114508,9.1145039
4810,2.3199697,11.9470053,-6.5385313,-57.0992355,87.4809189,-102.3511429,1.9105632,7.9367380,3.7157819,1.3816794,-12.4045801,7.4961834
4820,3.0717452,13.5032282,-5.9663200,-70.8244247,73.7786255,-92.0000000,2.0183017,8.0157461,3.3183465,1.8473282,-13.3816795,7.8244276
4830,4.1108232,14.2382450,-4.8530221,-77.3206100,50.5496178,-91.9389343,2.3486998,8.3174143,3.1675127,2.0458016,-13.8320608,8.3129768
4840,4.6902170,14.9469252,-3.6966286,-77.8320618,20.3206100,-101.3358765,2.7485294,8.6933022,2.7724714,1.2137405,-13.5114508,8.4656487
4850,4.8075323,15.4904060,-2.8059900,-79.7786255,-10.4503813,-112.8625946,2.9783716,9.0596132,2.2840567,-2.9083970,-13.9083967,9.4885492
4860,4.2640514,16.3307667,-1.7764885,-84.7251892,-26.1068707,-120.4503784,3.3303175,9.4378948,1.9536586,-10.7404585,-16.0916023,9.8244276
4870,3.1363883,17.7098198,-0.9265513,-86.0610657,-14.8396950,-125.7175598,3.5122759,9.5959110,1.6950861,-21.4580154,-18.1068707,10.6259546
4880,1.5777708,19.0912666,0.0335187,-84.3664093,1.8167939,-133.7557220,3.3566537,9.5240860,1.7309990,-32.8931313,-18.7938938,11.2213745
4890,0.9744351,19.6126022,0.0814024,-84.5419846,21.1145039,-144.4961853,2.9472473,9.3612804,2.4468615,-41.1297722,-20.2137413,9.7099237
4900,0.0790083,19.6126022,0.8619082,-82.7328262,39.6488533,-155.2519073,2.5689652,9.1027079,3.2201848,-44.7633591,-22.1221371,8.6183205
4910,-1.5729824,19.4839134,2.2050486,-70.4656525,46.8625946,-158.2900696,2.2026544,9.0260944,3.9432299,-44.0610695,-24.7175579,6.2824426
4920,-3.9025288,19.0864792,3.2896163,-46.3435097,35.4580154,-144.4656525,2.0613971,8.9925756,4.2401094,-40.6335869,-27.2671757,4.6259542
4930,-5.2265158,18.5358143,4.4292507,-13.9007635,3.2442749,-112.3587799,1.7405758,9.0165176,4.4220681,-35.4503822,-30.8091602,2.7938931
4940,-4.7740140,17.9157200,5.8753409,27.5343513,-39.8015251,-72.6564865,1.7022687,9.0979195,4.4795284,-29.3740463,-34.4351158,-0.4961832
4950,-2.5210814,16.5797615,7.2735476,80.7328262,-80.8396912,-38.3129768,1.7980363,9.2750902,4.2640514,-23.8015270,-36.3816795,-1.7099236
4960,0.0000000,14.9780493,7.1634150,136.2595367,-110.1908417,-21.1832066,1.8626794,9.4498653,3.7900019,-20.0534344,-35.5801544,-1.9083970
4970,2.0494261,13.6540623,5.5042415,181.3511505,-124.1145020,-18.7938938,1.8076130,9.4594421,3.4500270,-18.4885502,-32.7557259,-1.7633588
4980,3.1100521,12.2007895,3.0382264,208.7709961,-122.3129807,-26.5877857,1.9297167,9.4666252,3.2393384,-17.1297703,-29.8167934,-2.2061069
4990,3.0525916,10.8744087,0.6895266,217.7480927,-118.3969498,-40.1832047,1.9201399,9.4929609,3.3758070,-15.0992365,-26.7404575,-3.4580152
5000,2.0733681,9.6868906,-1.4652439,206.7175598,-125.8473282,-50.1679382,1.8842272,9.4570484,3.3686244,-11.9465647,-24.1374054,-5.4503818
5010,1.4053892,8.7411861,-2.3846128,181.9465637,-139.2442780,-50.1984749,1.7046629,9.5456333,3.1531475,-7.8778625,-21.5114498,-6.6488547
5020,1.2306134,7.6302819,-2.0111191,157.1755676,-151.4656525,-45.6335869,1.5466464,9.5001440,3.0908985,-4.0534353,-18.6870232,-8.4427481
5030,1.4389079,6.5792327,-1.0127422,138.9618378,-162.5190887,-42.4198456,1.3838415,9.5169029,2.8562679,-0.1068702,-15.5267172,-10.4198475
5040,1.8818330,5.7149301,-0.1939293,130.1526642,-168.5114441,-44.6106873,1.3958124,9.5791521,2.6814921,3.1450381,-11.4198475,-12.0916033
5050,2.0542145,4.8889351,0.5506636,129.1450348,-169.8473358,-54.7022896,1.0678085,9.5312681,2.4875629,6.0458016,-6.4732823,-13.5343513
5060,1.8531027,4.1132174,0.6368544,130.6335907,-166.8473358,-71.7404556,0.6105183,9.5145092,2.3486998,8.8396950,-1.3969465,-15.0458012
5070,1.2904681,3.2393384,0.2442073,130.2824402,-159.0076294,-92.3969498,0.1292862,9.3684635,2.1739240,11.5114508,3.5801528,-13.7786255
5080,0.4381367,2.5809362,-0.3926471,125.2061081,-145.0000000,-111.2519073,-0.3184272,9.1984758,2.0446377,13.4198475,8.9389315,-12.5648851
5090,-0.8523315,1.8219782,-1.4221486,112.0000000,-123.9618301,-125.6488571,-0.6368544,8.9877872,1.8602852,14.4732828,13.2900763,-9.8320608
5100,-1.9033806,1.1372399,-2.2816625,90.6717529,-97.0916061,-132.8702240,-0.7637464,8.9303265,1.4963684,14.1908398,16.7633591,-6.2137403
5110,-3.0358322,0.6967092,-2.5857246,65.6030502,-66.4885483,-133.3816833,-0.8451489,8.9566631,1.1252691,11.4274807,19.0000000,-1.7557251
5120,-4.0198441,0.3136388,-2.7940190,42.7862587,-38.9694672,-129.0229034,-0.6560079,8.9039907,0.7469871,5.6717558,19.6259537,3.5419848
5130,-5.1307478,-0.1053443,-2.5593886,25.3893127,-23.1145039,-120.1755753,-0.3064562,8.9087791,0.5434810,-2.9312978,17.3664131,9.2671757
5140,-6.1003947,-0.2801202,-2.2768741,14.8854961,-16.4045811,-107.6335907,0.1963235,8.9782104,0.4213773,-13.7251911,12.8015270,14.8396950
5150,-6.6295104,-0.4477134,-1.8219782,9.6030531,-15.8702288,-93.3587799,0.8930327,8.9039907,0.3878587,-24.7557259,5.5114503,18.1221371
5160,-6.4020624,-0.5219333,-1.0342898,8.9007635,-17.3893127,-76.8244247,1.4843974,8.8537130,0.6081241,-35.4580154,-3.9236641,20.8854961
5170,-5.6885943,-0.5961532,-0.4261657,12.6183205,-17.6412220,-61.3816795,2.1092808,8.7579451,0.9552816,-44.5496178,-14.0229006,23.7709923
5180,-5.6095858,-0.7517755,-0.3327923,18.4274807,-16.4122143,-45.1908379,2.8802099,8.7052727,1.1516051,-51.7251892,-18.8931293,25.9465656
5190,-6.0860295,-0.4740495,-0.6512195,23.6183205,-14.2671757,-17.9389305,3.6511390,8.4299412,1.1659702,-57.9312973,-19.5496178,26.8473282
5200,-7.0652533,0.4932030,-1.9512644,25.6183205,-2.9160306,27.0992374,4.2879934,8.1091194,1.3958124,-63.0152664,-14.9694653,23.2366409
5210,-6.6462698,1.8578910,-2.9951310,19.2213745,11.6870232,77.5419846,4.8338685,8.0205345,1.9081690,-66.6106873,-9.0992365,15.7786255
5220,-5.2720051,2.8323262,-3.2153964,11.5267172,23.5877857,118.6946564,4.9847026,8.0420828,2.5785420,-67.5343475,-1.0305344,5.8854961
5230,-2.7605004,4.0030847,-4.5058646,-1.1679389,39.2290077,142.9160309,4.7261300,8.2695303,3.2225790,-65.0381699,6.3664122,-4.3282442
5240,0.7781116,5.7221127,-5.7388721,-26.0916023,57.6946564,147.7480927,4.5058646,8.6693602,3.9360476,-59.1221390,11.8320608,-12.6564884
5250,4.3382711,7.7021074,-6.8785062,-60.0534363,77.9770966,128.5725250,4.1132174,9.0620070,4.3550305,-52.1068687,15.4198475,-17.9312973
5260,5.6981707,8.9542685,-7.7092900,-96.7709961,93.6564865,87.0687027,3.5888901,9.3110027,4.2832050,-46.6946564,17.1679382,-22.9236641
5270,4.8290801,10.4769726,-8.1905222,-135.2671814,97.7786255,36.5877876,3.3997490,9.2870607,4.3837609,-44.2519073,17.8244267,-25.6564884
5280,2.7796540,11.3771887,-6.9168134,-169.9084015,91.6946564,-5.5190840,3.2465210,9.4618368,4.6040263,-43.2519073,19.7022896,-28.2824421
5290,0.4022238,11.5256281,-2.8682389,-197.9694672,97.1603088,-29.8473282,4.0796990,10.4506369,6.4307928,-29.3740463,21.0305347,-37.7022896
5300,-0.0861908,11.6190014,-1.1037214,-196.3587799,112.8473282,-31.6793900,4.6758518,11.0683374,7.2376347,-12.1450386,19.2671757,-47.5267181
5310,-2.1164634,12.9262285,1.2330076,-25.0610695,76.3587799,93.1755753,-1.9201399,14.3914728,6.4643116,83.5725174,52.4961815,-68.3206100
5320,-1.3359578,13.1800127,0.7110743,6.3587785,57.2290077,103.9083939,-2.4133430,14.3747139,6.4714942,82.7175598,49.4427490,-51.7328262
5330,-0.2394189,13.5319586,0.1699875,33.3129768,35.8625946,110.4274826,-2.5354466,14.1807842,6.7540083,80.9236679,42.0687027,-35.9312973
5340,0.4381367,13.5918131,-0.3830703,54.7786255,11.6259546,110.9847336,-2.4109488,13.6253319,6.9072366,79.7786255,31.4809170,-21.2671757
5350,0.9313397,13.9174232,-1.0486550,70.2824402,-11.6870232,106.1297684,-2.0949159,12.8998928,6.8425937,80.7251892,21.0305347,-9.1374044
5360,1.4915800,13.9820662,-1.7908537,76.7709961,-29.2366409,95.6106873,-1.6256547,12.1313581,6.6462698,83.2671738,13.4198475,-1.0000000
5370,3.1627243,12.9956608,-3.2704628,28.9083977,20.2977104,-5.6259542,-1.2617378,10.0292597,4.3239059,82.6335907,-9.4580154,20.5725193
5380,2.5474176,11.9781294,-3.9264708,5.7862597,52.7404594,-33.0305328,-1.4341195,9.8951855,3.6702924,77.3435135,-15.0381680,27.4503822
5390,1.3670821,10.6086531,-4.7237358,-14.4045801,83.1145020,-53.6412201,-1.3383518,8.9399033,3.3279233,72.3206100,-21.1603050,36.8167953
5400,-1.2808913,9.7706871,-5.8154860,-30.7099228,97.4503784,-56.9771004,-0.7350162,8.7459745,2.6264257,63.5648842,-26.9694653,42.6793900
5410,-3.1028695,9.2439651,-5.6957769,-38.6641235,95.1679382,-39.4351158,-0.4716553,7.9654684,1.9632354,53.3587799,-36.1832047,47.1832047
5420,-3.6750808,8.7675219,-5.2887645,-33.7633591,75.1526718,-10.8702288,-0.3591284,7.3693151,1.8315549,43.3511467,-48.8931313,50.9465637
5430,-3.8618276,8.5951405,-4.4891052,-12.5725193,38.6641235,19.2290077,0.1819584,7.1275020,1.6615674,35.9541969,-58.1297722,53.3664131
5440,-3.2106080,8.8130112,-4.5752959,19.2442741,-7.9465647,45.2290077,0.5578461,6.6558466,1.3144100,29.6870232,-61.6641235,55.1908379
5450,-2.3941894,8.6334467,-5.8226686,46.5877876,-52.0076332,62.2213745,1.0486550,6.0070214,0.8714849,24.8015270,-59.7938919,58.0458031
5460,-2.0637913,8.8441362,-7.3812861,61.6870232,-79.2290039,76.9542007,1.5586174,5.5257893,0.4860204,21.1984730,-50.0228996,59.0916023
5470,-1.9297167,9.0715837,-8.8177996,63.5572510,-90.9007645,95.8854980,1.9656296,5.2313042,0.2681492,18.2213745,-34.8778610,59.1755714
5480,-1.2186425,8.7483683,-9.5791521,56.6793900,-94.5038147,113.6946564,2.1930776,4.9009056,0.3303981,17.4351139,-14.9389315,57.4274826
5490,-0.8188128,8.2958660,-10.7068148,45.9618340,-92.6564865,128.0000000,2.2672975,4.6136031,0.3639168,16.4122143,5.7709923,54.5725174
5500,-1.4173602,8.1402445,-11.7746239,31.5114498,-96.1984711,145.4885559,2.0374553,4.4891052,0.7230452,13.9694653,22.0992374,50.0992355
5510,-2.0063307,7.7188668,-12.2390966,14.5190840,-105.1832047,168.4809113,1.9225341,4.7141590,0.7445929,8.6106873,30.1755733,45.3893127
5520,-2.4133430,7.3357964,-12.1696653,4.8396945,-118.9465637,196.9770966,1.5107336,4.7764082,0.8834559,-0.6412213,30.6335869,40.3664131
5530,-2.1763182,7.3142486,-12.9669304,-0.8473282,-139.7938995,227.6412201,1.2282192,4.9823084,1.0749911,-14.1908398,23.1221371,36.4809151
5540,-1.2976507,7.4195933,-13.1967726,-7.5190840,-162.2900696,250.1297760,1.2162483,5.2001796,1.3934183,-30.1832066,10.9465647,33.0916023
5550,-0.6200951,7.3262196,-12.8160963,-8.1526718,-184.1603088,250.1297760,1.3694763,5.5281835,1.9512644,-45.0839691,-4.3282442,28.4274807
5560,-0.3423691,6.8785062,-13.2829628,-9.1297712,-199.0915985,250.1297760,1.8483143,5.6143742,2.4564383,-55.6259537,-17.0458012,23.4274807
5570,-0.4141948,6.2919297,-13.7402534,-19.2213745,-198.0458069,250.1297760,2.1475880,5.9304070,3.1459649,-60.3740463,-24.5419846,14.9923668
5580,0.3806761,5.6622581,-12.7251167,-32.4656487,-186.8167877,250.1297760,2.1116750,6.2584114,3.6487448,-58.9541969,-28.7175579,7.1755724
5590,1.5586174,4.7620430,-11.6046362,-45.3969460,-162.2671814,250.1297760,2.6264257,7.2903070,3.7085996,-52.7786255,-27.5648861,-1.9160305
5600,2.0398495,4.2616572,-10.5464048,-58.1832047,-132.5038147,250.1297760,2.0685797,7.7212610,3.7780309,-44.4580154,-23.9847336,-8.5648851
5610,2.3750360,3.6391680,-9.5312681,-70.6641235,-107.5496216,250.1297760,2.2337787,8.4706421,3.5673423,-36.3511467,-17.1984730,-12.3664122
5620,3.3925664,2.9233053,-8.3581152,-80.8931274,-85.3893127,250.1297760,2.0039365,9.1386213,3.4212968,-30.3664131,-10.9007635,-14.1450386
5630,5.5473371,2.1667414,-6.9311786,-88.3816757,-66.6717529,250.1297760,1.7597293,9.9646168,3.1986370,-26.3969460,-4.6793895,-13.4274807
5640,8.0301113,1.8243724,-5.8729467,-92.4198456,-61.7862587,236.7786255,1.4748207,10.3500814,3.2249732,-23.5877857,0.1603053,-11.8549614
5650,10.6158361,0.8164186,-4.4172797,-97.0000000,-70.3358765,175.3664093,1.2569494,11.0635490,3.1818779,-23.0152664,4.1679387,-11.3969469
5660,13.0890341,-1.3431402,-1.4843974,-99.4122162,-88.1603088,96.2519073,0.8427547,11.1186161,3.5505829,-22.5496178,7.1832061,-11.0152674
5670,15.3898497,-5.1666608,2.5976956,-99.6564865,-107.0152664,10.2366409,0.3591284,11.4442253,3.8522508,-21.1755733,8.3893127,-11.0763359
5680,17.0681763,-8.8992023,9.4714136,-97.8091583,-108.7175598,-66.4961853,-0.0263361,11.8488436,4.0796990,-17.7938938,8.3358774,-9.4198475
5690,19.1008434,-10.7499104,13.4481621,-105.1526718,-73.4732819,-115.2824402,-0.2873027,11.9924946,4.1084290,-13.8244276,7.6183205,-6.2442746
5700,19.6126022,-8.3940287,13.0196018,-155.7709961,-3.4427481,-127.5343475,-0.1628049,11.9517937,4.0605454,-9.7328243,8.2595415,-2.0687022
5710,19.6126022,-9.1051025,16.5390606,-211.2213745,99.1374054,-99.2442780,0.1364688,11.9134865,3.9121056,-6.6335878,11.2290077,1.4274809
5720,19.6126022,-7.4746594,19.6126022,-189.8702240,220.0229034,-82.8931274,0.3591284,11.8871508,3.7876077,-4.7175574,15.2137403,5.0916033
5730,16.3523140,6.1841912,19.6126022,-101.5954208,190.3053436,-18.8015270,0.6584021,11.6357603,3.9049230,-3.0076337,18.5877857,8.9083967
5740,16.0817699,15.0139618,19.6126022,46.5190849,109.2977066,117.1221390,0.8044477,11.2909975,4.3071470,0.3740458,20.9312973,11.4885492
5750,19.6126022,12.3899307,19.6126022,204.0686951,66.1145020,172.7175598,1.0606259,11.1377697,4.3239059,5.1297708,23.4427490,14.6106873
5760,19.6126022,9.3828287,17.7840385,250.1297760,21.6335869,116.4198456,1.2737088,10.8672256,4.5202298,10.8473282,24.9160309,16.3435116
5770,19.6126022,6.0549049,5.7556314,250.1297760,-7.1908398,-9.9007635,1.3958124,10.5176744,4.2568688,16.3893127,25.4274807,17.6259537
5780,19.6126022,1.8387375,-4.1227942,250.1297760,-13.7557249,-130.3740387,1.5131277,10.2662840,3.9528067,20.0534344,26.0610695,17.5419846
5790,15.3276005,0.2106887,-10.0962973,225.1984711,-6.0916033,-201.0534363,1.4628497,9.9741936,3.6343796,21.1374054,26.3206100,17.7022896
5800,8.3892403,1.7214222,-10.1489687,105.1755753,23.4885502,-196.4351196,1.5897418,9.7706871,3.4739690,20.1832066,25.8396950,19.6030540
5810,7.9319496,1.6783268,-5.7005649,15.2290077,47.1068687,-169.2824402,1.6136837,9.4881725,3.2632802,17.6488552,23.5648861,22.3740463
5820,9.5408449,0.7158626,-1.8626794,-22.9694653,59.3129768,-166.5954132,1.9416877,9.1266499,3.0765336,14.4503813,20.0687027,25.2671757
5830,9.4211359,1.0606259,0.1316804,-26.0152664,62.3893127,-184.0763397,2.4396791,8.9806042,2.7676830,9.2900763,17.0916023,27.4045811
5840,8.5089493,1.4796091,-0.3519458,-15.8167934,60.6488533,-203.2519073,2.9448531,8.7699156,2.6096666,3.2213740,13.0305347,27.4732819
5850,7.2400289,1.5705882,-2.1092808,-13.5114508,61.2213745,-216.6488495,3.4859397,8.8225880,2.5785420,-3.0610688,8.2977095,26.3587780
5860,4.8003497,1.6304430,-4.1108232,-26.0610695,61.9007645,-218.9541931,3.8330972,8.8369532,2.6000898,-8.5572519,4.6412215,24.1145039
5870,2.1547706,2.3726418,-4.8673873,-45.8625946,63.7328262,-204.6412201,4.0557570,8.8513184,2.5234756,-13.1679392,1.7404580,21.7786255
5880,-0.0957676,3.2728570,-4.7165532,-61.0000000,65.4198456,-177.3129730,4.2137733,8.8010406,2.5569944,-17.3893127,-0.4885496,19.1603050
5890,-1.5777708,4.5393834,-4.1802549,-67.9923630,68.4885483,-141.2290039,4.2209558,8.7723103,2.7844424,-19.6259537,-0.8702290,15.8473282
5900,-1.1755470,6.3158717,-3.3087699,-62.5725174,72.2977066,-103.0916061,3.9887197,8.8130112,3.1244173,-19.3740463,-0.1374046,14.3969469
5910,0.1005560,8.0133524,-3.0190730,-44.0763359,74.6793900,-70.9083939,3.7540891,8.7651272,3.3327117,-16.8167934,-0.6793893,14.7480917
5920,1.0773853,9.4331064,-3.9911139,-17.5114498,77.6793900,-49.4427490,3.8953462,8.7411861,3.4260850,-13.0992365,-2.1832061,16.0992374
5930,1.8938038,10.9342632,-5.6143742,7.2442746,78.5114517,-36.9389305,4.2329268,8.7651272,3.0789278,-10.2290077,-2.9465649,15.8778629
5940,1.9895715,12.6796274,-7.1562324,22.6641216,68.2900772,-29.9465656,4.5154414,8.6238708,2.9424589,-8.5419846,-2.8625953,14.3740454
5950,2.4779861,14.3938665,-8.3676920,27.9770985,57.2977104,-25.7251911,4.5824785,8.6430235,2.8035958,-8.3816795,-3.1832061,9.5496187
5960,3.2130022,15.4161863,-9.0835552,27.6717548,44.0610695,-25.6870232,4.3693957,8.6885138,2.8778157,-7.7404580,-5.3893127,3.9847329
5970,3.6248028,16.0386753,-9.2439651,25.0381680,32.2977104,-28.7938938,4.2281384,8.8800488,3.0908985,-6.1297708,-6.7938933,0.4503817
5980,3.6104376,16.2326050,-8.9087791,23.4045811,22.6106873,-31.0152664,3.8307030,8.8704720,3.0430148,-3.4427481,-7.5725193,-2.3129771
5990,3.4045374,16.3355541,-8.2982607,26.5801525,16.0152664,-29.4656487,3.4500270,9.0572186,2.8826041,-2.5801528,-8.6106873,-4.0458016
6000,3.5912843,16.2397861,-7.3525558,36.0763359,11.6183205,-24.7175579,3.0980811,9.1146793,2.5809362,-3.1068702,-11.5648851,-3.7099237
6010,4.3526363,16.0219154,-6.2823529,49.9465637,6.0839696,-19.5648861,2.9496415,9.1505919,2.4301023,-5.7633586,-16.1755733,-1.1908396
6020,5.2360926,15.9596672,-5.2696109,67.4351120,-5.2213740,-15.1526718,3.0693510,9.2296000,2.2960277,-9.0839691,-21.3816795,3.1297710
6030,6.2655940,15.5718079,-4.5872669,88.9694672,-20.9847336,-14.8320608,3.6152260,9.2679071,2.0111191,-12.3969469,-26.0305347,6.3816795
6040,7.1346846,14.7242651,-4.2377152,113.8015289,-39.1526718,-23.0381680,4.2808108,9.4019823,2.0374553,-15.8778629,-29.6488552,7.0076337
6050,7.5919747,13.5223818,-4.5010762,134.6259613,-55.2442741,-39.2900772,4.5848727,9.5743637,1.8961980,-19.3511448,-32.2748108,5.2671757
6060,7.4028339,12.3731709,-5.0852585,145.4885559,-66.4122162,-58.9160309,4.6136031,9.7275915,2.0613971,-22.4580154,-34.7557259,2.5572519
6070,6.7899213,11.1497402,-5.8178802,143.8091583,-72.4198456,-77.1450348,4.6159973,9.8688488,2.2553265,-23.6106873,-34.6946564,0.5190840
6080,5.9974446,9.8185711,-6.2631998,130.4656525,-76.0381699,-92.5419846,4.4627690,9.8209648,2.3798244,-23.1374054,-31.0534344,-1.0305344
6090,5.0972295,8.7483683,-6.1817970,109.0457993,-75.1679382,-104.0839691,3.8522508,9.7108326,2.6048782,-21.5419846,-26.6412220,-3.4503818
6100,4.0796990,7.4938130,-5.5593081,86.6717529,-70.3053436,-114.8778610,3.1100521,9.5145092,2.8179610,-19.4045811,-22.5572510,-5.0534353
6110,3.1459649,6.4547348,-4.8003497,66.7709961,-66.1221390,-122.1221390,2.5402350,9.3397331,3.0214672,-16.8396950,-18.4885502,-6.2900763
6120,1.9033806,5.4443870,-3.7421181,51.0839691,-63.2137413,-125.9465637,1.9488702,9.2032642,3.2345500,-14.0152674,-13.4656487,-7.7099237
6130,0.8810617,4.7548604,-2.7772598,41.6564903,-60.2900772,-125.0992355,1.2306134,8.9829988,3.1100521,-11.0839691,-7.4274807,-9.9847326
6140,-0.0287303,3.8474624,-1.7693061,37.6793900,-58.0000000,-121.5114517,0.4094064,8.7459745,3.2991931,-6.8702292,-2.0916030,-11.3740454
6150,-0.7278336,3.1435707,-1.0438666,38.1221390,-55.4885483,-113.8396912,-0.4237715,8.6262646,3.4380560,-1.1679389,1.1679389,-11.8396950
6160,-1.4221486,2.7269819,-0.5650287,41.5267181,-52.6488533,-102.4351120,-0.9672526,8.6430235,3.1124463,5.3435116,2.3664122,-9.1755724
6170,-1.8890154,2.3223639,-0.7086801,43.6564903,-46.1145020,-88.3893127,-1.2042773,8.7316093,2.3870070,10.4427481,5.7709923,-4.1068702
6180,-2.2074428,2.1380112,-0.8762733,42.8549614,-43.5877876,-72.9007645,-1.3910241,8.7483683,1.5586174,10.8091602,11.5725193,3.4351146
6190,-2.0661855,2.0805507,-1.0702027,37.8091621,-35.5648842,-57.3129768,-1.3694763,8.7363977,0.6967092,5.6412215,16.2061062,12.4351149
6200,-1.7429699,1.8147956,-1.4245427,32.2442741,-30.4198475,-46.2824440,-0.9002152,8.5424681,0.2489957,-5.0305343,15.7404585,22.0305347
6210,-0.5578461,2.7676830,-2.9664006,26.8549614,-46.7175560,-47.5725174,-0.0407012,8.1905222,0.0574605,-18.4122143,10.5496187,30.0534344
6220,-0.3040621,3.2800395,-3.6918402,14.3129768,-41.2061081,-51.8549614,1.1348459,8.0013809,0.2657550,-30.6564884,5.1526718,33.3358765
6230,0.0454896,3.5338237,-4.1371593,-4.4961834,-65.3053436,-57.0916023,2.6312141,8.1019373,0.6224893,-40.1908379,1.8167939,32.5877876
6240,0.5913648,3.5050933,-3.8378856,-21.5267181,-107.1297684,-65.6870193,3.5864959,8.1570034,0.9433106,-48.5572510,0.3816794,29.4198475
6250,0.5578461,3.3039815,-3.1339941,-26.8244267,-154.3129730,-74.3435135,4.1754665,8.0468712,1.3359578,-55.6183205,-1.2290076,23.1374054
6260,0.1532281,2.3989778,-2.6240315,-28.9465656,-163.6183167,-74.8244247,4.6423335,7.8912482,1.8626794,-60.4961815,-3.1068702,13.9541988
6270,-0.5889706,2.0829449,-1.6543850,-34.5190849,-138.3587799,-59.5877876,5.0397687,8.1139078,2.5234756,-62.1679382,-1.7404580,4.3129773
6280,-0.8355721,2.5857246,-0.9648584,-38.9618340,-72.3893127,-42.8625946,5.1068063,8.4467001,3.3829896,-59.5648842,1.9923664,-5.9465647
6290,-0.5075682,3.2800395,-2.5450234,-40.3664131,-11.1984730,-39.0000000,4.8075323,8.7268209,3.9839313,-54.7480927,7.0152674,-13.1679392
6300,-0.8954269,4.4579806,-5.4419928,-54.5419846,19.2824421,-44.8167953,4.4053087,8.8106174,4.3023586,-49.9694672,10.3740454,-17.5954189
6310,-2.2457497,5.1666608,-7.2065101,-81.9389343,33.6030540,-49.0992355,4.0796990,8.9686337,4.3215117,-46.5190849,11.8015270,-20.1221371
6320,-3.3087699,6.6821828,-8.1833391,-112.2366409,27.2671757,-39.8625946,3.6056492,9.0404596,4.5896611,-44.6564903,10.9007635,-21.1068707
6330,-3.7421181,7.6087341,-7.3788919,-130.0534363,21.0229015,-19.9770985,3.4739690,9.0500364,4.8075323,-43.6106873,9.3969469,-21.2748089
6340,-1.7381816,8.5544386,-6.4858594,-130.4809113,2.8778627,-9.1832066,3.4500270,9.0715837,5.1259594,-42.4732819,8.6717558,-22.5877857
6350,-1.8147956,9.5695753,-5.4826937,-112.2366409,-17.9847336,-8.4427481,3.5146701,9.1434097,5.4012914,-40.3969460,9.4580154,-22.7480907
6360,-2.8323262,10.8863792,-4.6255741,-81.5419846,-27.0152664,-5.8473282,3.3877780,9.1936874,5.7005649,-37.8320618,11.1832066,-21.9694653
6370,-3.2082138,11.8847561,-5.1762376,-51.5725174,-34.5648842,0.5496183,3.2082138,9.2104464,5.8130918,-34.9694672,12.7404585,-19.8167934
6380,-3.6702924,12.7083578,-6.4978304,-33.9618340,-41.0152664,6.8396945,2.8897867,9.1984758,6.0429344,-32.1450386,12.9618320,-16.1221371
6390,-3.8067613,13.4433737,-7.3597383,-28.5801525,-53.0839691,12.3511448,2.8347204,9.1410151,5.9806852,-29.7175579,12.0458012,-10.2519083
6400,-3.5745249,13.5559006,-7.2232695,-28.8625946,-62.1832047,17.1908398,2.8586621,9.1242561,5.9136481,-27.1450386,9.5648851,-4.9236641
6410,-3.4691806,13.5654774,-6.7085190,-30.6183205,-64.3358765,21.0763359,3.1268115,9.0739784,5.9591374,-25.0305347,7.2748094,-0.9160305
6420,-3.0669568,13.2446556,-5.8178802,-33.8015251,-60.5725174,23.5801525,3.3255291,8.9710283,5.9782910,-23.1679382,5.4045801,2.3435113
6430,-2.9735832,12.8927097,-4.5274124,-32.3282433,-54.9312973,26.0305347,3.5170643,9.0332766,5.9902620,-21.2900772,4.5572519,3.2900763
6440,-2.4971397,12.5503407,-3.3494711,-24.6488552,-48.4732819,27.9160309,3.4979107,9.1003141,5.7939386,-20.4656487,3.4045801,5.3206105
6450,-2.2481439,11.9039097,-2.7150109,-14.1679392,-43.1221390,28.6030540,3.3949606,9.2319946,5.6383162,-21.2519093,1.5954199,6.6183205
6460,-1.8578910,11.4298601,-2.4492557,-4.2595420,-42.1755714,28.5267181,3.1459649,9.5240860,5.7005649,-22.9083977,-0.7480916,8.9618320
6470,-1.0773853,11.1305866,-2.2265961,4.2519083,-49.6870232,25.7557259,2.6575503,9.9191265,5.7843618,-24.1908398,-2.1526718,16.0305347
6480,0.2154770,10.9414454,-1.7788827,12.1984730,-58.5496178,17.9465656,2.1882892,10.2878323,5.6526814,-26.1145039,-3.0610688,26.6106873
6490,1.3215926,10.8337069,-1.1109039,19.5954189,-59.5877876,4.5648856,1.7094513,10.5799236,5.7340837,-28.2519093,-7.3435116,39.6564903
6500,1.4269369,10.3812056,-0.5841822,26.7786255,-51.0916023,-10.3206110,2.4564383,10.5487986,5.6814117,-31.4961834,-17.9083977,48.2061081
6510,0.6296718,9.5959110,-0.5362985,29.6564884,-37.4198456,-23.6412220,3.9743545,11.0731258,5.8561873,-36.2595406,-27.1374054,51.3816795
6520,-0.1244979,9.3445215,-0.5434810,26.5419846,-21.4885502,-34.9083977,5.5425487,11.5328102,6.6965480,-40.4503822,-32.7557259,45.5801544
6530,-1.1372399,8.7124557,-0.5650287,17.3969460,-5.9618320,-43.6564903,6.1267309,11.5232334,7.7236552,-39.9312973,-36.3053436,33.4732819
6540,-2.2242019,7.8792777,-0.4644727,8.2061071,10.2290077,-48.5114517,5.9663200,11.3676119,9.1912937,-32.7099228,-41.6488533,17.8167934
6550,-3.1531475,7.1801744,-0.1915352,2.4351146,21.3893127,-47.5496178,5.3917146,11.3580351,10.4530315,-17.3206100,-47.5572510,3.4656489
6560,-4.2688398,6.3541789,-0.2968795,-0.1603053,29.6870232,-40.8091621,4.5178356,11.2886028,11.2550850,4.5877862,-50.8320618,-6.9083967
6570,-5.3510137,5.8490047,-0.7350162,-1.8396946,34.5114517,-24.6641216,3.9671719,11.0803089,11.4561968,29.6488552,-50.3358765,-13.9312973
6580,-5.9758968,5.6909885,-0.9911944,-4.9007635,35.8625946,-1.3206106,3.3015873,10.8313131,11.5423870,55.7862587,-44.5267181,-20.2290077
6590,-5.7269011,5.6742291,-1.0749911,-7.6335878,33.3664131,19.5954189,2.1092808,10.7666702,11.2048063,81.4656525,-35.8778610,-22.2290077
6600,-5.1068063,5.7316895,-0.7613522,-5.1755724,28.3435116,33.7404594,0.9840119,10.6900558,10.3500814,104.9007645,-27.1221371,-15.0076332
6610,-4.4843168,5.9663200,-0.6129125,0.0458015,24.3816795,42.0305328,0.4141948,10.4458485,9.0979195,122.9694672,-20.6335869,-3.3358779
6620,-3.7133877,6.3517847,-1.0007712,4.4885497,25.1908398,44.9541969,0.6224893,9.9023676,8.0444765,134.8931274,-16.7099228,7.1603055
6630,-3.6224086,6.8425937,-1.6639616,5.6335878,29.2824421,46.0458031,0.9050036,9.7299862,6.4188218,141.2290039,-13.6106873,14.9160309
6640,-3.6918402,7.3525558,-2.3558824,2.5267177,32.4656487,48.7175560,1.2737088,9.1505919,5.4395986,142.3969421,-11.1145039,20.5648861
6650,-3.6439564,7.7763271,-2.7197993,-1.7099236,33.5877876,51.3664131,1.6352314,8.6502066,4.8099265,141.8167877,-8.1908398,24.3587780
6660,-3.6583214,8.2407999,-3.2225790,-4.0152674,33.3053436,52.5725174,2.0590029,8.0325060,4.0126615,141.0992432,-4.4656487,27.2900772
6670,-3.9504125,8.6885138,-3.7900019,-4.4809160,32.6870232,54.5877876,2.2361729,7.4052281,3.1579359,137.7404633,-2.7022901,28.4122143
6680,-4.3741841,8.9470863,-4.4484038,-4.9618320,35.0839691,58.0916023,2.5186872,6.9359670,2.2433555,131.4045868,-2.6870229,29.8702297
6690,-4.6255741,9.3971939,-5.2265158,-5.3893127,37.3358765,63.2824440,2.8083842,6.3781209,1.8004304,122.3435135,-4.4427481,30.3282452
6700,-4.5824785,9.7467451,-5.8466105,-5.8320613,35.2748108,68.0381699,3.2680686,5.8178802,1.2401901,111.8549652,-7.7251906,27.1679382
6710,-4.2472920,10.0292597,-5.8609757,-0.9694657,33.6030540,69.7786255,3.7349355,5.3797436,0.9193687,100.6717529,-10.9083967,23.1450386
6720,-4.2927818,9.7898407,-6.4547348,6.7633586,35.1145020,69.8396912,4.0342093,5.0134325,0.6847382,88.5343475,-12.7862597,17.0610695
6730,-4.4100971,9.5887289,-7.5345144,11.3053436,35.4580154,72.1450348,4.1898317,4.7021880,0.4501076,78.4809189,-14.1450386,11.5038166
6740,-5.1929970,8.4945841,-9.6461897,-5.0610685,34.1603050,98.5801544,4.3334827,4.1227942,-0.3016679,48.6412201,-14.8625956,-3.8549619
6750,-5.5090299,7.8864598,-9.7994175,-14.1832066,40.4732819,115.4885483,4.4579806,3.9695661,-0.6033357,39.1603050,-12.9541988,-8.8549614
6760,-5.6718349,7.4052281,-9.7778702,-23.4427490,46.4427490,137.7099304,4.2951760,4.1443419,-0.9409165,28.6564884,-10.0916033,-12.7404585
6770,-4.4938936,7.6183109,-9.0596132,-26.3587780,48.5114517,157.2748108,3.6463506,4.1084290,-1.0678085,17.6717548,-9.0839691,-13.6106873
6780,-2.9711890,8.3772688,-8.9638453,-17.7175579,25.6641216,163.7786255,3.7684543,4.5609307,-1.7357874,1.6183206,-10.2213745,-14.9465647
6790,-1.7453641,8.4706421,-6.7683735,4.0381680,8.8625956,158.2290039,3.5434003,4.6782460,-2.0039365,-18.7480907,-13.8854961,-15.4961834
6800,-2.1044924,8.7292147,-8.4107876,27.1068707,-11.5496187,153.3587799,3.5434003,4.8721757,-1.6376256,-39.1984749,-17.8549614,-15.5725193
6810,-2.4731977,8.6358414,-10.2231894,30.7099228,-23.9007626,155.2366486,3.7612717,5.1858144,-0.9576758,-55.2061081,-17.8549614,-16.5648861
6820,-2.7748656,8.7651272,-11.1617117,14.5801525,-21.2290077,163.9847260,4.0006905,5.6167684,-0.2633608,-65.7862625,-15.6183205,-18.5343513
6830,-3.2441268,8.6214762,-11.0707321,-10.2671757,-11.6564884,177.5038147,4.3526363,6.0309634,0.4477134,-71.0763321,-12.9847326,-22.3969460
6840,-3.6080434,7.9774394,-10.5751352,-35.2290077,-3.9389312,194.2595367,4.4747400,6.7875271,0.7182568,-73.9083939,-9.2290077,-27.6412220
6850,-4.1204000,7.0269461,-9.8473015,-55.4351158,5.4198475,218.6641235,4.2855992,7.1682034,1.0654143,-74.7480927,-8.1068707,-32.4122124
6860,-4.0964580,5.7604198,-8.7340031,-68.1450348,10.1068707,250.1297760,4.1299767,8.2527714,1.1779412,-75.7175598,-6.6870227,-37.7633591
6870,-3.0645626,4.8721757,-7.6709828,-70.4732819,2.8473282,250.1297760,3.7540891,8.9087791,1.1683644,-77.7480927,-6.6030536,-40.3129768
6880,-1.1109039,3.8378856,-6.5983863,-65.1984711,-12.2519083,250.1297760,3.4643922,9.8425131,1.4724265,-79.9083939,-6.0839696,-40.0687027
6890,0.3088504,2.8634505,-6.3446021,-60.2977104,-27.1679382,250.1297760,3.1699069,10.4721851,1.8890154,-81.9694672,-5.6183205,-38.9083977
6900,1.7070571,1.8818330,-5.9878678,-61.6030540,-41.1526718,250.1297760,3.2297616,11.0300312,2.1930776,-84.0839691,-4.8625956,-35.5648842
6910,3.1890604,0.7493813,-5.9998388,-72.4198456,-48.4351158,250.1297760,2.9065459,11.2407198,2.8155668,-84.1603088,-6.5877862,-31.7251911
6920,5.0804701,-1.0247130,-5.4348102,-97.0152664,-48.7022896,250.1297760,3.1579359,11.6956158,3.4787574,-82.7175598,-6.2824426,-31.0458012
6930,7.6087341,-2.9999194,-3.2872221,-126.4427490,-38.2900772,243.0305328,3.1890604,11.8272963,3.7612717,-80.3206100,-4.6183205,-32.5190849
6940,11.0443964,-6.0956063,-0.0478838,-153.1832123,-18.1603050,206.7709961,2.7054341,11.8033543,4.4747400,-75.1603088,-4.1832061,-32.7022896
6950,15.8016500,-9.9191265,4.5633249,-182.3893127,-0.7786260,178.7022858,2.6383967,11.7506819,5.1092005,-67.3740463,-2.9007633,-31.5801525
6960,19.6126022,-13.5391417,12.2917690,-217.3053436,13.0992365,188.3282471,2.7413468,11.4873209,5.5760674,-56.1679382,0.3740458,-29.8778629
6970,19.6126022,-12.5024576,19.6126022,-225.9618378,30.0916023,213.1755676,2.8179610,11.5160513,5.9711084,-42.6183205,5.6335878,-30.9694653
6980,19.6126022,-8.6023226,19.6126022,-172.0229034,23.1984730,210.4351196,2.6838863,11.1736822,6.2344694,-28.9770985,11.9007635,-32.7480927
6990,19.6126022,-1.5155219,19.6126022,-51.6183205,17.6717548,163.4580078,2.6575503,10.7570934,6.3326311,-15.9770994,16.8167934,-33.7938919
7000,19.6126022,3.9384418,19.6126022,82.5267181,32.1526718,49.8702278,2.3774302,10.4506369,6.4116392,-5.4885497,21.1145039,-36.5343513
7010,19.6126022,5.9663200,19.6126022,158.4656525,11.4732828,-117.5954208,1.7573351,10.5535870,6.4523406,3.3129771,22.2977104,-36.6946564
7020,19.6126022,0.7876883,10.8480721,161.6259613,-3.9618320,-250.1374054,0.9050036,10.2255831,6.5217719,11.3282442,19.8931293,-31.1221371
7030,19.6126022,-6.3613615,3.2058196,125.1603088,51.3129768,-250.1374054,0.5961532,10.1729107,6.1315193,15.3740454,15.2290077,-22.1450386
7040,7.0125809,-9.1290445,-0.2130829,66.6335907,99.5572510,-250.1374054,0.8283895,9.8736372,6.0237808,18.0076332,8.6641226,-14.6488552
7050,-2.1188576,-8.7890692,-1.5849534,21.7786255,124.2442780,-250.1374054,1.4628497,9.6485834,5.5545197,18.1450386,3.9160306,-8.8625956
7060,-5.2097564,-6.8210459,-0.6631905,7.7175574,122.1679382,-250.1374054,1.8147956,9.3900108,5.4132624,17.0839691,1.8015267,-6.3358779
7070,-3.6870518,-4.4771342,1.2306134,28.3511448,97.5801544,-163.7709961,1.9129574,9.1027079,5.3821378,15.9160309,0.3740458,-4.9923663
7080,-0.3471575,-2.1427996,1.2449785,68.2824402,73.5954208,-112.2977066,2.1044924,8.7962523,5.7604198,18.1068707,-3.3435113,-4.4351144
7090,2.2218077,0.4716553,-1.0558375,100.6335907,61.5648842,-87.5725174,2.4037662,8.7340031,5.9304070,23.0839691,-6.4503818,-5.3053436
7100,3.4308734,3.6080434,-4.8171091,100.7328262,64.4198456,-82.1221390,2.9711890,8.8010406,6.0429344,28.1145039,-8.8549614,-9.2137403
7110,4.0485744,4.9320302,-6.2296810,88.5572510,77.7251892,-90.6412201,3.1076579,8.6956959,6.0333576,32.3511467,-7.2977099,-16.2213745
7120,3.8833754,6.8162575,-7.8026633,66.4885483,89.5038147,-102.9236679,2.8586621,8.9063845,6.3158717,36.4503822,-6.6717558,-25.0305347
7130,3.6128318,7.5488791,-8.2671366,40.4427490,100.9160309,-108.7404556,2.0613971,9.0021524,6.6534524,41.5725174,-8.7633591,-34.5267181
7140,4.1036406,8.1258793,-7.8529415,17.2519093,115.4809189,-109.4274826,0.8786675,8.8130112,7.1729918,49.6335869,-14.4809160,-40.5877876
7150,4.4579806,8.6430235,-7.5345144,0.6564885,127.6946564,-107.5496216,0.2920911,8.7004843,7.3453732,60.9160309,-18.7099228,-43.8396950
7160,4.3957319,9.4283180,-8.2407999,-13.4122133,135.4732819,-100.7862625,0.2442073,8.9207497,6.5505023,72.1145020,-16.5343513,-47.6335869
7170,4.7668314,10.2926207,-8.8130112,-32.6335869,141.0763397,-93.1526718,-0.2537841,8.6430235,5.5186067,80.0992355,-9.9770994,-48.0992355
7180,5.8106980,10.9869356,-8.2024927,-53.3511467,140.6030579,-89.2442780,-0.4237715,8.8752604,4.5106530,83.8854980,0.0610687,-45.2137413
7190,6.8138633,11.7363167,-6.3134775,-64.2824402,130.2442780,-94.5190811,-0.4453192,8.9710283,3.5050933,82.4427490,10.6946564,-37.4503822
7200,7.0724359,12.5359764,-4.1108232,-61.3053436,112.9083939,-107.7633591,-0.2801202,8.9925756,2.3175755,76.3435135,22.6488552,-27.1679382
7210,6.3110833,12.8831339,-2.4037662,-47.1145020,94.8473282,-121.5954208,0.1436514,8.8130112,1.7022687,64.3358765,31.2213745,-16.0381680
7220,5.6454988,13.1824074,-2.0278785,-33.9465637,80.5877838,-129.3969421,0.7852941,8.6645718,1.4269369,49.0992355,33.9847336,-8.4198475
7230,4.3526363,13.9892492,-2.1691356,-25.9007626,77.4885483,-130.7709961,1.3168042,8.3485384,1.4891858,34.2595406,32.6412201,-4.5725193
7240,3.2058196,14.5039997,-2.5354466,-22.5267181,80.6870193,-128.4427490,1.7932479,8.1713686,1.7357874,21.1603050,28.5343513,-4.4351144
7250,2.3678534,14.9445305,-2.8730273,-23.9312973,87.7480927,-123.7404556,2.1308286,7.9534974,2.0997043,11.9236641,23.0152664,-7.5801525
7260,1.5897418,15.6268749,-2.7605004,-25.8396950,98.4427490,-116.3740463,1.9776005,8.0684185,2.2505381,6.8473282,19.2977104,-12.1908398
7270,0.7829000,16.2661228,-1.9033806,-21.8091602,96.7175598,-105.8702316,1.8219782,8.0492649,2.5546002,5.9160304,15.8854961,-15.0381680
7280,-0.1101327,17.1328201,-0.9337339,-7.3358779,79.1374054,-89.6106873,1.4939742,8.2910776,2.5689652,8.6106873,15.9618320,-17.1297703
7290,-0.2633608,17.8654423,0.0742199,15.7709923,52.9923668,-68.8473282,1.2449785,8.3892403,2.5019281,12.4580154,18.3282452,-15.7633591
7300,0.5746055,18.1359844,1.0510491,44.9618340,28.7938938,-51.9923668,1.2377959,8.6885138,2.0278785,14.2137403,21.8473282,-11.7328243
7310,1.8914096,18.0450058,1.8961980,109.6335907,-2.4885497,-22.7175579,1.6615674,8.9015961,1.1300575,7.7709923,25.4198475,-1.0839695
7320,4.0796990,16.6396160,0.3423691,150.2366486,-6.3511453,-11.5496187,2.6479735,9.0476418,1.0510491,-5.5267177,25.9770985,3.2900763
7330,4.7548604,15.8303804,-0.7254394,159.4198456,-5.9083967,-17.0916023,2.8107784,8.9399033,1.1755470,-11.7709923,22.9389305,2.9389312
7340,4.8865409,14.8032732,-1.8291607,161.0000000,-11.0381680,-28.0687027,2.9137285,8.9758167,1.5729824,-16.7557259,17.6870232,1.0381680
7350,4.2377152,13.8599625,-2.6503677,156.0763397,-24.4580154,-41.9847336,2.9424589,9.0596132,1.6902977,-19.5877857,11.3435116,-1.0992366
7360,3.2513094,12.5144281,-2.6886747,148.1984711,-43.3969460,-56.4045792,2.8826041,9.1601686,1.9464760,-19.3816795,5.0687022,-3.0534351
7370,2.1930776,11.0276365,-1.5873476,142.3511505,-63.6870232,-67.0610657,2.7605004,9.3564920,1.9656296,-17.1221371,0.7175573,-3.8854961
7380,1.2832855,9.4283180,-0.7948709,141.9541931,-76.0381699,-72.8473282,2.8634505,9.6725254,1.6304430,-14.6641226,-3.0000000,-4.6183205
7390,0.6488253,8.0468712,-0.2466015,144.6030579,-78.3206100,-75.2366409,2.9687948,9.9885588,1.3120158,-13.6870232,-5.6259542,-3.9618320
7400,0.0933734,6.6989422,0.1675933,148.9923706,-71.2900772,-74.1755753,3.1100521,10.2423429,1.1109039,-13.6564884,-8.9007635,-2.0839694
7410,-0.4668669,5.4419928,0.0023942,154.9465637,-58.2977104,-70.3282471,3.2201848,10.3644457,0.9768293,-14.2748089,-10.6030531,0.6106870
7420,-1.0630201,4.5992379,-0.9217629,157.2442780,-45.5114517,-63.6412201,3.3351059,10.4769726,0.6464311,-17.0152664,-10.7786255,3.9618320
7430,-2.1451938,3.4093258,-1.6998745,152.9541931,-32.7938919,-55.5038185,3.4284792,10.5152798,0.4285599,-21.8167934,-11.1984730,6.4351144
7440,-2.0757623,3.2130022,-2.7772598,144.9084015,-23.3511448,-40.5114517,3.4859397,10.5128860,0.5003856,-27.9389305,-13.1374044,10.3358774
7450,-1.9249283,3.0717452,-3.8211265,130.3816833,-12.5343513,-33.0152664,3.5553713,10.4027529,0.6799498,-34.2671738,-15.3282442,12.8702288
7460,-2.2050486,2.2098370,-4.6159973,110.4274826,-9.1679392,-30.6106873,3.6439564,10.3309278,1.1085097,-39.0305328,-17.5038166,14.3740454
7470,-2.7461352,1.6424140,-4.2855992,91.7328262,-13.1526718,-23.3969460,3.5266411,10.1800938,1.4796091,-42.3511467,-20.1297703,14.0381680
7480,-3.2872221,1.4724265,-3.4141142,79.2900772,-17.5343513,-8.8473282,3.2776453,9.9454632,1.8842272,-43.8167953,-22.7251911,14.1145039
7490,-3.0525916,1.3479286,-2.9951310,70.4351120,-21.8167934,9.3435116,3.2297616,9.8089943,2.1739240,-44.2061081,-24.1450386,13.8625956
7500,-2.4061604,1.2234308,-2.5258698,63.6488533,-25.3893127,25.1450386,3.1459649,9.6030941,2.3079987,-44.3664131,-23.8702297,11.3587790
7510,-1.5179161,1.1875180,-1.9680238,59.8549614,-28.0610695,34.6030540,3.0932927,9.3660688,2.4253139,-44.0305328,-21.7938938,8.1832066
7520,-0.4764437,1.3024391,-1.6448082,58.3282433,-29.9541988,37.6717567,2.7485294,9.0596132,2.8658447,-42.4274826,-17.2595425,4.0992365
7530,0.2011119,1.3718705,-1.8722562,56.4045792,-32.2061081,37.2748108,2.4229198,8.8752604,3.3231349,-37.8778610,-11.8320608,-0.8015267
7540,0.6344602,1.6472024,-2.3654592,50.3206100,-35.1755714,34.5267181,1.9967541,8.7986460,3.7229645,-30.1221371,-5.9618320,-6.1832061
7550,0.5267217,1.9943599,-3.0885043,36.9465637,-36.6488533,33.2671738,1.4676381,9.0189114,3.7397239,-21.3587780,-0.0076336,-10.0305347
7560,0.9193687,2.4684093,-2.9304879,18.6412220,-38.1679382,34.1221390,0.7637464,8.8944139,3.6487448,-14.4809160,4.3969464,-10.9236641
7570,1.9297167,3.0669568,-2.0901275,4.1145039,-36.3816795,32.8549614,0.2250538,9.0524302,3.3087699,-10.1221371,2.8854961,-10.5572519
7580,2.7844424,3.4189026,-2.0901275,-4.2366414,-27.1908398,26.2519093,0.1029501,9.4019823,2.7892308,-9.9160309,-2.0610688,-7.0839696
7590,2.9304879,3.5625539,-2.9664006,-13.9847326,-17.4427490,15.4961834,0.3950413,9.5528164,1.9823889,-14.4045801,-10.0000000,-2.6641221
7600,2.8706331,3.9240766,-3.9360476,-27.6259537,-7.0458016,5.6259542,1.0438666,9.9143381,1.5011568,-23.6641216,-16.6183205,1.7862595
7610,2.4995339,4.5417776,-5.0708933,-47.6412201,5.0229006,-1.6106870,1.7764885,9.9191265,1.3383518,-34.9083977,-21.6106873,4.9160304
7620,1.8602852,5.3079181,-5.6814117,-69.9007645,18.9694653,-6.3664122,2.5258698,9.8401184,1.6519908,-44.3206100,-24.7328243,6.3206105
7630,0.8714849,6.2009506,-6.3685441,-92.0076370,35.0839691,-10.3435116,2.9735832,9.8544836,2.2888451,-49.9771004,-24.0839691,6.5038166
7640,0.0526722,7.4722652,-6.9575148,-113.5648880,54.5648842,-11.4961834,3.1339941,9.3947992,2.6838863,-52.6106873,-20.8549614,7.5190840
7650,-0.6512195,9.0213060,-7.0628591,-130.5496216,74.8396912,-10.3053436,3.3710186,9.3038206,3.0765336,-52.9923668,-18.5801525,5.1221375
7660,-1.8291607,9.9646168,-6.4954362,-138.0229034,89.3740463,-8.4198475,3.5505829,9.2224178,3.5697365,-51.8320618,-15.7709923,2.1908398
7670,-3.5314295,11.4083128,-5.9663200,-129.8931274,89.0229034,0.3893130,3.6128318,9.1888990,3.9743545,-48.9312973,-10.9389315,-1.7938931
7680,-4.5705075,12.9693241,-5.1858144,-109.9160309,70.8015289,14.4427481,3.4619980,9.2343884,4.6734576,-43.3740463,-4.6412215,-6.0458016
7690,-4.6686692,13.6253319,-4.9823084,-82.7404556,48.9083977,27.1068707,3.1483591,9.4043760,5.1977854,-35.4656487,1.2290076,-8.8473282
7700,-4.0988522,13.8216553,-5.2815819,-55.4274826,28.9465656,35.5343513,2.6958573,9.6102762,5.3965030,-28.5038166,4.0229006,-9.6717558
7710,-3.5984666,14.0107965,-5.5114241,-31.7175579,13.1832066,41.5267181,2.6575503,9.6414013,5.3198891,-24.6793900,2.9541984,-10.3816795
7720,-3.0908985,13.9772778,-5.7269011,-11.2137403,4.5877862,45.1221390,2.5115047,9.7874460,5.4419928,-23.6030540,-0.8320611,-11.7786255
7730,-2.5929072,13.4601336,-5.9232249,5.0763359,0.9236641,44.3893127,2.5019281,9.8496952,5.5712790,-23.8854961,-6.7251906,-14.2595415
7740,-2.5115047,13.0004492,-6.4283986,16.7099228,3.9389312,41.5954208,2.3702476,9.9885588,5.8346395,-23.4885502,-12.3587790,-15.8473282
7750,-2.5258698,12.3372583,-6.9072366,21.2442741,13.9770994,39.6946564,2.2505381,10.0388365,6.1387019,-21.6870232,-16.7709923,-17.4351139
7760,-2.7365584,11.5471754,-7.2328463,22.0305347,26.5648861,41.6183205,2.0326669,10.0412302,6.4307928,-17.7786255,-19.0381680,-17.5190830
7770,-2.9113343,11.0300312,-7.6422529,18.4656487,40.7328262,46.5954208,1.8722562,10.2112179,6.8114691,-11.6030531,-19.5343513,-16.4427490
7780,-3.3398943,10.6397781,-7.9894104,12.4045801,56.1068687,53.3511467,1.9368993,10.0723553,6.7348547,-4.2442746,-18.1526718,-14.1832066
7790,-4.3765783,10.4985209,-8.2000990,6.5190840,69.7480927,62.8931313,1.9967541,10.1417866,6.9407554,4.2900763,-17.0000000,-13.8778629
7800,-5.5904322,10.2662840,-8.3102312,1.8473282,75.8473282,77.2595444,1.9416877,10.1824875,7.0484939,13.7022905,-16.7633591,-14.8549614
7810,-6.6893654,9.6940727,-7.9702568,1.6488550,72.1068726,99.1145020,1.6998745,10.3668404,7.2304521,22.6412220,-18.0305347,-15.4885492
7820,-7.5440907,9.3421268,-7.0796180,10.8549614,58.7480927,123.3664093,1.3191984,10.5320396,7.2280579,31.6564884,-22.1297703,-14.1374044
7830,-7.6374645,8.8010406,-6.7803445,27.1145039,47.0687027,150.4122162,1.0869620,10.7523050,7.4555058,41.2671738,-28.5725193,-11.0076332
7840,-7.6183109,8.2336178,-7.5321202,39.3129768,42.4885483,179.6030579,0.9097920,10.6828737,7.5297260,51.4809151,-34.7175560,-7.2900763
7850,-7.0484939,7.8337879,-8.1570034,43.5954208,41.0992355,208.8549652,1.0702027,10.6924505,7.1011658,60.6412201,-39.4351158,-4.6870227
7860,-5.7843618,7.5369086,-7.9080076,45.1297722,40.1526718,233.6030579,1.0151364,11.0611553,6.6630292,66.5496216,-42.7022896,-3.5038168
7870,-4.6016321,7.0149751,-7.7068958,46.0839691,42.0916023,250.1297760,0.7852941,11.2981796,6.2344694,69.6183243,-47.4809151,-1.0305344
7880,-3.3542595,5.9591374,-7.8768835,41.6564903,44.7709923,250.1297760,0.8044477,11.2143831,5.7221127,71.4961853,-51.9541969,1.7709924
7890,-2.3056045,4.8865409,-7.9127960,30.8778629,52.3358765,250.1297760,0.9744351,11.2790270,5.1283536,71.1603088,-56.2137413,3.3282442
7900,-1.4652439,3.4428444,-7.5129666,15.6717558,57.7251892,250.1297760,1.0318956,11.1066446,4.6423335,68.8778610,-58.1374054,3.7099237
7910,-0.2896969,1.8004304,-6.0884237,5.4427481,49.6641235,250.1297760,1.2425843,11.1425581,4.3789725,68.5801544,-58.3206100,4.8549619
7920,0.8595140,0.1939293,-4.6638808,2.0916030,34.1297722,250.1297760,1.0917504,10.8839855,3.8833754,66.6717529,-58.8778610,6.3129773
7930,2.7605004,-1.3335636,-3.5697365,3.3053436,15.6717558,250.1297760,1.0055596,10.5487986,3.6822634,66.1526718,-59.7099228,9.8473282
7940,5.5138183,-2.8849983,-2.7461352,6.7633586,-4.5419846,250.1297760,1.2066715,10.2902260,3.6224086,67.6641235,-56.0916023,13.3206110
7950,8.7268209,-4.3454537,-1.7190280,12.3358774,-28.0763359,243.1603088,1.4724265,9.8975792,3.2967989,70.5801544,-49.5343513,16.5190830
7960,12.5790710,-6.2943239,-1.0175306,15.8015270,-60.5343513,207.8931274,1.4987626,9.3876171,2.9496415,74.0305328,-41.9160309,19.8244267
7970,16.2804890,-7.9415264,-0.4860204,7.9770994,-102.6793900,164.4503784,1.7142396,9.1098909,2.6120608,77.2213745,-34.2519073,22.5572510
7980,19.6126022,-10.0029240,0.1939293,-23.0152664,-135.6793823,128.7099304,1.7190280,8.7483683,2.1140692,78.6793900,-26.0839691,26.7404575
7990,19.6126022,-10.5272512,3.3422885,-71.0687027,-135.9084015,129.1908417,1.7788827,8.3844519,1.6926919,78.2137375,-19.2213745,30.5801525
8000,19.6126022,-7.9726510,9.4355011,-96.6106873,-48.7709923,153.4045868,1.8698620,7.9391322,1.2138541,75.0000000,-14.4580154,33.1526718
8010,19.6126022,-2.6192431,13.4553452,-93.2366409,64.4580154,165.9007568,2.1044924,7.5249376,0.7326220,69.6335907,-11.7404585,35.3969460
8020,19.6126022,3.1363883,15.2198620,-76.3816757,133.3893127,144.5648804,2.4755919,7.2089043,0.3184272,61.8854980,-9.1450386,36.0000000
8030,19.6126022,7.0030041,15.6915178,-53.6106873,149.2061005,76.2442780,2.8035958,6.9407554,-0.0598547,52.0992355,-7.4274807,34.5801544
8040,19.6126022,7.5512733,13.5367470,-29.3358784,123.1984711,-39.1832047,3.1100521,6.4906478,-0.4764437,39.3664131,-7.2595420,31.9770985
8050,19.6126022,5.0780759,9.7874460,-16.9083977,82.6030502,-185.9313049,3.2034254,6.1698260,-0.7182568,25.3435116,-8.6412210,28.8702297
8060,19.6126022,0.2657550,4.5441718,-28.5419846,68.4122162,-250.1374054,3.3734128,6.0836353,-0.9026094,11.3664122,-8.7709923,25.2442741
8070,18.0761299,-4.7165532,2.3008161,-57.8702278,90.2442780,-250.1374054,3.5290353,5.6407104,-0.6655847,-0.7557252,-6.8854961,22.7328243
8080,10.0460186,-7.7284436,1.4963684,-80.3740463,117.2824402,-250.1374054,3.5769191,5.3558016,-0.4453192,-11.3816795,-4.1679387,19.8931293
8090,4.7764082,-8.2791071,1.1827296,-81.0000000,134.1908417,-250.1374054,3.4835455,5.2480631,-0.0933734,-19.8549614,-1.8396946,17.2137413
8100,2.5593886,-7.0891948,0.1843526,-66.1221390,128.9389343,-250.1374054,3.3518653,5.0206151,0.5722113,-23.5725193,-1.2061069,16.5038166
8110,3.4404502,-4.6566987,-0.3591284,-46.0916023,106.9847336,-231.3740387,3.3901722,4.8051381,0.7781116,-24.5725193,-4.0534353,16.0687027
8120,5.6622581,-2.0278785,-1.3191984,-27.6183205,81.5190811,-206.0305328,3.7349355,4.7716198,0.0981618,-27.3358784,-7.5114503,15.4503813
8130,7.4267755,-0.0718257,-2.8395088,-18.0000000,59.0763359,-204.2900696,3.9049230,4.8218975,-0.5530578,-35.9160309,-9.4885492,16.4732819
8140,7.1394730,1.7860653,-5.9304070,-26.6946564,41.5572510,-214.4961853,4.1012464,4.9918852,-0.9050036,-48.8320618,-9.7862597,19.8244267
8150,5.4204450,3.1268115,-8.4754305,-57.3740463,36.3664131,-219.0610657,4.3286943,5.0014620,-1.2689204,-65.5114517,-8.9312973,24.9694653
8160,3.1914546,4.7764082,-9.2535419,-99.8854980,36.5572510,-208.3740387,4.9607606,5.2193332,-1.7381816,-88.7786255,-10.2671757,27.2671757
8170,1.0414724,6.5576849,-7.6159167,-134.5572510,33.8015251,-186.7022858,5.7436604,5.2025738,-1.5705882,-114.1297684,-17.3511448,24.6564884
8180,-0.1221037,8.0995426,-4.4603748,-144.3587799,15.1603050,-160.3129730,6.5457139,5.6885943,-0.7014975,-138.9923706,-26.2061062,13.8778629
8190,0.3543400,9.8113880,-1.2952565,-127.0610657,-1.4885496,-132.2137451,6.5744443,6.6223278,0.7924767,-157.9313049,-32.8244286,0.6106870
8200,1.4628497,11.6190014,0.3423691,-90.9007645,0.3740458,-108.5572510,6.0596933,6.9910331,2.6790979,-165.4503784,-39.2900772,-10.6106873
8210,2.7892308,13.2063494,0.3303981,-51.3129768,13.6641226,-94.4122162,6.5361371,8.4275465,4.5609307,-163.1297760,-43.0534363,-25.6488552
8220,3.1435707,14.8894644,-1.5227045,-21.8702297,34.2748108,-87.6183243,5.8849177,8.9063845,6.0812411,-152.7786255,-44.8320618,-43.4809151
8230,2.2984219,16.5151196,-4.4124913,-10.3511448,53.0458031,-84.0992355,4.9392128,9.9406748,7.3094602,-135.4809113,-45.0610695,-57.4274826
8240,0.6081241,17.4967365,-7.2855186,-20.0916023,50.7862587,-75.0992355,3.6319854,10.8121595,8.3796635,-112.1679382,-39.7480927,-63.9083977
8250,-0.2035061,18.5046902,-7.5895805,-39.1450386,31.9694653,-55.3053436,2.3079987,11.7195578,9.0763721,-86.5725174,-29.7786255,-64.0839691
8260,0.0622489,19.0936604,-6.1291251,-47.6564903,10.9541988,-36.7938919,0.9026094,12.4904861,9.2750902,-61.3511467,-19.6412220,-56.3664131
8270,0.1412572,19.2492828,-3.9887197,-41.5725174,-16.3587780,-25.5572510,0.0861908,13.0267849,9.3684635,-38.7328262,-11.2366409,-45.1526718
8280,0.6368544,19.3402615,-1.8028246,-22.8396950,-42.0076332,-16.3511448,0.0861908,13.1704359,9.0189114,-19.9007626,-5.4961834,-34.1221390
8290,1.0749911,18.8470592,0.2849085,4.9160304,-59.4274826,-12.1755724,0.4692611,13.1776190,8.7100611,-5.2366414,-2.0992367,-27.1984730
8300,1.6567791,17.9540272,1.7046629,38.0839691,-68.3893127,-12.1145039,0.8547257,13.0746689,8.2120695,5.8702292,-1.1450381,-24.1297703
8310,1.9728121,16.7712975,1.7094513,67.9618301,-72.3664093,-15.1908398,1.1611819,12.6389265,7.6853480,14.9541988,-3.8396947,-23.6564884
8320,1.8746504,15.6532106,1.2138541,87.5648880,-72.8244247,-17.0534344,1.2066715,12.2630386,7.4579000,23.7709923,-7.6793895,-23.1374054
8330,1.7214222,14.3723192,0.7158626,96.2061081,-70.1068726,-13.7404585,0.9744351,11.6573086,7.1059542,32.6030540,-11.2366409,-22.1679382
8340,1.6352314,13.1033993,0.4932030,100.2824402,-65.9923630,-6.5877862,1.0438666,11.0659437,6.4619174,41.3129768,-14.7251911,-18.9618320
8350,2.3439114,12.2151546,0.9313397,101.7022934,-62.9160309,0.1755725,1.2737088,10.4290895,5.8777351,49.0763359,-16.3358784,-14.4503813
8360,3.2944047,11.5160513,1.5418580,110.9618301,-65.7862625,1.0229008,1.5155219,9.7228031,4.9942794,55.4122124,-14.2900763,-10.7786255
8370,3.7325413,10.5966825,1.7597293,125.0076370,-74.9694672,-7.5419846,1.8794388,9.3612804,4.2664456,59.2595406,-11.0763359,-7.9083967
8380,3.7756367,9.7180147,0.7781116,136.0458069,-83.9770966,-24.7709923,2.1427996,8.7723103,3.6894460,61.1603050,-6.3206105,-5.9007635
8390,3.2848279,8.9351149,-0.4237715,136.2748108,-90.2977066,-45.4580154,2.3965836,8.2144642,3.0885043,62.4351158,-0.7938932,-4.5496182
8400,2.4875629,7.8122401,-1.2162483,123.9160309,-94.3129807,-64.4580154,2.4851687,7.8481531,2.7245877,61.2748108,4.8549619,-3.3969467
8410,1.6352314,6.8809004,-1.2856797,105.8091583,-94.3129807,-76.2595444,2.2265961,7.4698710,2.3798244,58.1526718,5.7786260,-0.0763359
8420,-0.3208214,3.7181761,0.9097920,75.8702316,-63.6793900,-74.9847336,2.0422437,6.0381460,2.3319404,44.7786255,-10.9389315,10.2671757
8430,-0.7541697,3.1746953,0.5386927,75.5419846,-52.0381660,-72.9312973,2.5282640,5.9758968,1.9871773,41.2671738,-8.0687027,5.6564884
8440,-1.2186425,2.8754215,0.0814024,73.5114517,-41.3511467,-69.9542007,2.3774302,5.9112539,1.7166338,35.7022896,-3.1526718,1.7480916
8450,-1.9129574,2.3989778,-0.4932030,70.3129807,-33.7175560,-64.8854980,1.9823889,6.0333576,1.5777708,27.3816795,0.9847328,-1.5190840
8460,-2.3079987,2.3079987,-1.7645177,63.3435097,-31.9541988,-56.7938919,1.4389079,5.9878678,1.6519908,18.0916023,2.6717558,-3.5190840
8470,-3.2728570,2.4660151,-2.1715298,51.9083977,-25.7328243,-44.9541969,1.0821736,6.3086891,1.9416877,9.2213745,1.3893130,-3.8549619
8480,-3.7133877,2.6838863,-2.5785420,38.5801544,-22.9007626,-25.8244267,1.2425843,6.5289545,2.1978660,1.0458015,-1.1984733,-7.1984735
8490,-3.6726866,2.6767037,-2.5881188,27.2824421,-20.3587780,-6.8473282,1.1659702,6.9790621,2.2026544,-6.3129773,-2.9007633,-11.6793890
8500,-3.2489152,2.9903426,-2.5378408,16.9083977,-18.5343513,8.7786255,1.1085097,7.5776095,2.1571648,-12.6564884,-2.0610688,-16.0381680
8510,-2.2960277,3.5003049,-2.4037662,7.1603055,-12.1832066,18.8931293,0.6033357,8.2503767,2.3654592,-18.2748089,-1.2595420,-17.2595425
8520,-1.1947005,3.9025288,-2.1882892,-0.1526718,-1.1297710,22.4427490,0.1795642,9.2463598,2.0613971,-26.9847336,0.1832061,-13.7557249
8530,-0.5889706,4.1706781,-2.1523764,-3.3969467,10.5801525,20.4122143,0.1987177,10.2423429,1.7549409,-40.8015251,1.8854961,-7.1755724
8540,-0.3495516,4.7572546,-2.6838863,-6.9389315,18.4656487,15.9694653,0.3184272,10.7930059,1.8124014,-56.4045792,0.9923664,1.0992366
8550,0.2849085,6.0596933,-3.6176202,-15.1832066,24.1526718,10.9236641,0.7302278,11.1042509,2.4971397,-69.4427490,1.0534351,9.0000000
8560,0.7254394,6.4116392,-3.9887197,-25.7404575,31.0152664,3.0000000,1.1037214,11.2694502,3.3566537,-78.2519073,5.2290077,16.5877857
8570,0.7924767,7.3741035,-4.7811961,-36.3511467,36.3358765,-8.0534353,1.5346755,11.4705620,4.3143296,-80.8931274,11.7404585,22.1908398
8580,0.3543400,8.2455883,-5.6407104,-51.1755714,40.3053436,-18.4503822,1.7669119,11.4992924,5.0517397,-79.8396912,17.8396950,26.3587780
8590,-0.6631905,8.9710283,-6.5313487,-71.7480927,42.7328262,-22.8244267,1.9392935,11.5040808,5.7412663,-76.8931274,22.6641216,29.3893127
8600,-1.7453641,9.5815458,-6.4762826,-89.9083939,40.4045792,-21.8091602,2.0039365,11.4801388,6.0357518,-73.0229034,24.3893127,30.4122143
8610,-2.7437410,10.1776991,-5.3390427,-94.7938919,26.4809170,-16.3511448,2.1284344,11.3005743,6.4020624,-68.4351120,24.2366409,30.6030540
8620,-3.3039815,11.2790270,-4.1563129,-83.1526718,13.5725193,-9.0763359,2.4947455,11.0874910,6.5002246,-63.7022896,23.9236641,29.6030540
8630,-4.2736282,12.3492289,-4.1874375,-62.7862587,11.0916033,-5.1221375,3.0430148,10.7331514,6.5289545,-59.6259537,26.4503822,26.5190830
8640,-5.6024032,13.5989962,-4.9870968,-47.0381660,12.8091602,-5.6335878,3.2153964,10.5033092,6.5528965,-56.0534363,32.4351158,23.2900772
8650,-6.9814563,14.5470953,-5.3246775,-38.1526718,16.9618320,-6.1068702,2.9304879,10.1226330,6.8401995,-51.3587799,38.3358765,20.4045811
8660,-8.5376797,14.6476507,-4.9583664,-30.8778629,21.8778629,1.8167939,2.8131726,9.6198530,7.2855186,-43.3816795,41.4580154,20.3435116
8670,-8.5759869,13.3452120,-3.7852135,-18.3358784,31.9923668,20.1603050,2.7006457,9.2750902,7.7164726,-33.5648842,42.0534363,21.0152664
8680,-7.4339581,11.5375986,-2.6623387,4.1832061,51.9618340,45.6870232,2.6671271,8.9925756,8.2934723,-20.3511448,42.2900772,20.9618320
8690,-6.5289545,9.7180147,-2.6910689,31.7786255,79.8320618,76.7022934,2.5426292,8.5688038,8.7292147,-3.7404580,39.7022896,21.1068707
8700,-5.8705525,8.8441362,-3.5194585,58.8778610,107.9770966,112.6259537,2.7126167,8.3317795,8.7244263,14.5572519,37.3587799,21.7404575
8710,-4.7979555,8.4419117,-4.6040263,82.1832047,120.6488571,143.1755676,3.1627243,8.0516596,8.2360115,31.4580154,36.8549614,20.6183205
8720,-4.0677280,8.0444765,-6.4858594,104.6030502,116.6717529,165.5496216,3.6367738,7.8361821,7.4507174,46.2290077,39.5343513,16.2290077
8730,-3.5960727,7.9487090,-8.2934723,119.2442780,97.6946564,184.3893127,3.6846576,7.7284436,6.7396431,57.1526718,42.9007645,11.0229006
8740,-3.3997490,7.6230993,-10.0244713,126.1221390,67.3435135,202.2900696,3.5960727,7.6853480,6.2655940,65.4427490,44.4045792,6.6412215
8750,-3.4955165,7.6039457,-11.0443964,126.5572510,38.8702278,217.9389343,3.4572096,7.7332320,5.6933827,71.9160309,44.3664131,4.6488547
8760,-3.7397239,7.8673067,-11.5328102,119.6717529,19.0763359,232.8473358,3.2680686,7.6781654,5.0086441,75.0076370,42.9694672,3.3587787
8770,-4.0102673,7.5895805,-11.6692791,106.2213745,12.9694653,249.0839691,2.9304879,7.7092900,4.3119354,75.2900772,39.3587799,3.5343511
8780,-4.3670015,7.4531116,-11.9613705,91.4503784,10.1374044,250.1297760,3.0023136,7.7260494,3.5912843,72.5801544,34.9771004,5.1068702
8790,-5.5233951,7.3860745,-12.3372583,80.2290039,-5.1221375,250.1297760,3.1459649,7.7212610,3.1148405,67.4961853,28.8931293,6.1679387
