timestamp,rxacclX,rxacclY,rxacclZ,rxgyroX,rxgyroY,rxgyroZ,txacclX,txacclY,txacclZ,txgyroX,txgyroY,txgyroZ
0,2.5091105,9.7180147,-4.0246325,27.9541988,-57.4274826,18.7175579,5.5521255,4.1323709,8.6933022,-96.1679382,-70.1068726,-36.5572510
10,2.2936335,9.1122847,-2.6743097,36.7786255,-67.6030502,23.8396950,5.3581958,4.0198441,9.0835552,-96.5190811,-73.3664093,-38.5725174
20,0.1316804,3.4165084,-3.0430148,-40.2595406,22.5648861,9.7862597,2.3439114,5.2432747,10.3524752,-44.4885483,-51.6412201,-73.7480927
30,0.7948709,2.9472473,-3.0454090,-38.1603050,9.3206110,16.6717548,2.0973101,5.5329719,10.6900558,-35.9847336,-44.3282433,-70.7938919
40,0.9361281,2.2122312,-3.3614421,-34.4045792,2.4427481,26.0763359,1.8794388,5.7532372,10.9773588,-23.8244267,-30.6106873,-66.7404556
50,0.7972651,1.9584470,-4.2736282,-34.1832047,5.9007635,41.2824440,1.2641320,5.8442163,11.3604288,-7.5419846,-14.1145039,-59.7251892
60,1.0630201,2.6192431,-5.1618724,-39.6412201,13.7480917,58.3664131,0.8116302,5.9806852,11.7482872,11.8625956,1.8931298,-49.3129768
70,1.7166338,3.4691806,-5.9615316,-51.0839691,24.9160309,72.7557220,0.5123565,6.1051831,11.6525202,32.8702278,15.1832066,-37.7175560
80,2.3343346,4.6854286,-6.3805151,-65.3206100,38.3435097,81.9542007,0.7158626,6.2296810,11.4178896,51.2137413,27.9312973,-25.5419846
90,3.0142846,6.0501165,-7.4914188,-80.4351120,55.6564903,85.1984711,1.2282192,6.1698260,11.1210098,67.4198456,41.2900772,-15.1908398
100,3.7277529,7.3453732,-8.2431946,-98.1526718,76.6946564,84.4961853,1.7238164,6.1650376,11.1234045,83.3282471,56.9389305,-7.6564884
110,3.6774750,9.0907373,-7.6805596,-117.7404556,108.7633591,85.2900772,2.3870070,6.3541789,10.9222927,97.4656525,74.0152664,-2.7328243
120,2.8371146,10.9270811,-5.6742291,-117.3435135,108.9312973,84.7099228,2.8802099,6.3326311,11.0803089,110.8015289,92.8931274,-1.5877863
130,2.3989778,11.3676119,-5.0493455,-91.2061081,85.5801544,77.3358765,3.1794837,6.2392578,11.4250717,125.5343475,113.0534363,-1.0229008
140,2.0590029,11.6190014,-5.9735026,-60.4656487,65.1145020,75.5954208,3.2082138,6.1195483,11.8416615,143.9618378,132.3282471,-1.5419847
150,1.1635761,12.0906563,-7.6494355,-41.3969460,54.1603050,85.5572510,3.2752512,5.9088597,12.2797976,166.0229034,151.1374054,-0.2977099
160,0.5315101,12.5120344,-8.9542685,-36.2748108,44.7633591,107.2900772,3.2920105,5.7604198,12.1217813,191.1832123,170.0229034,2.1679389
170,1.3072275,12.6844158,-9.1434097,-36.8702278,33.3206100,129.6641235,3.3111639,5.7173243,11.9063044,216.4656525,190.1679382,4.8473282
180,3.2225790,13.3404236,-8.2623482,-31.0763359,17.0534344,142.6870270,3.1148405,5.8992829,11.3364868,240.3129730,208.0915985,7.8854961
190,4.3837609,13.5223818,-7.7595682,-16.4198475,3.0534351,144.4351196,2.9424589,5.9663200,10.5727406,250.1297760,220.7175598,12.6641226
200,5.3821378,13.5151997,-8.1426382,0.6183206,-0.3282443,136.9618378,2.6910689,6.0980005,9.5743637,250.1297760,229.9160309,15.9312973
210,5.6838059,13.8503857,-8.5879574,14.6793890,-0.9083970,122.0000000,2.6192431,6.3134775,8.4993725,250.1297760,236.3511505,20.0610695
220,5.2384863,13.5870247,-9.1936874,25.4503822,-7.6793895,104.1832047,2.5713594,6.5768385,7.7859039,250.1297760,240.1145020,24.7404575
230,4.0701222,12.7035694,-9.9574337,32.2900772,-19.5954189,90.9770966,2.5713594,6.8641410,6.9239960,250.1297760,242.1755676,28.7251911
240,2.4923513,11.9302464,-10.0843258,34.6564903,-34.8473282,88.5954208,2.7485294,6.8928714,6.2201042,250.1297760,241.0076294,32.2442741
250,0.8666966,11.1976242,-9.6126709,37.6717567,-51.1297722,97.8702316,3.2608860,6.9742737,5.2408805,250.1297760,235.8854980,29.8702297
260,0.2130829,10.8384953,-9.0572186,43.9541969,-66.2977066,112.1755753,2.7772598,7.9151902,4.6112089,247.6564941,225.8549652,28.1221371
270,-0.0981618,10.2279778,-8.7818871,51.4961815,-75.0839691,128.0458069,2.2026544,8.2000990,4.4100971,227.5801544,214.2671814,30.1755733
280,0.2466015,9.5264797,-9.2415714,53.6106873,-76.5572510,143.8702240,1.9584470,7.9558916,4.2544746,208.2900696,196.7404633,34.4885483
290,0.8714849,8.4036045,-9.8880024,46.8167953,-71.2519073,156.5648804,1.9345051,7.8601241,3.9216824,188.2595367,174.7633514,38.9923668
300,0.9241571,7.3238254,-9.8640604,30.1450386,-60.9541969,169.7251892,2.3127871,8.0037756,3.7804251,166.9084015,151.2977142,40.1221390
310,0.5961532,6.7324610,-8.8896255,16.0610695,-51.2442741,186.8854980,2.6120608,7.8457589,3.4045374,144.7862549,126.9618301,38.4885483
320,1.2952565,5.4779053,-8.1809454,10.4809160,-45.1984749,203.7175598,2.5450234,7.9870162,3.5817075,122.3053436,103.6488571,36.9007645
330,2.7772598,4.0749106,-7.8792777,7.9160304,-39.9923668,212.7099304,2.7150109,7.6829538,3.7349355,107.4045792,87.2824402,37.0916023
340,4.9320302,2.0230901,-7.8744893,1.8091604,-29.2137413,209.6564941,2.8251436,7.6254935,3.5098817,90.9847336,72.8473282,38.8015251
350,7.1466556,-0.1604107,-7.5728211,-10.2824430,-18.5190830,193.4580078,3.1746953,7.5297260,3.1292057,75.4580154,59.6335869,39.6030540
360,9.1027079,-2.5929072,-6.6199336,-25.7175579,-11.1603050,163.9007568,3.3135581,7.1705976,3.0693510,61.7404594,49.7633591,40.3129768
370,10.8289185,-4.9272418,-4.3765783,-37.8167953,-17.9312973,121.8625946,3.5290353,6.9311786,3.0765336,51.2671738,42.5648842,43.1221390
380,13.1417055,-7.9223728,-0.9337339,-38.8549614,-43.4427490,68.8167953,3.7923961,6.5098009,3.0094962,43.7786255,39.3053436,44.9312973
390,15.7250366,-11.0013008,2.1523764,-28.8473282,-75.3129807,9.2824430,4.1994085,6.1339135,2.8945751,38.3587799,39.6946564,44.7175560
400,19.0960560,-14.3124647,4.0030847,-14.0763359,-82.1374054,-51.0992355,4.5154414,5.8059096,2.7964132,34.7938919,43.4045792,42.9847336
410,19.6126022,-16.8718529,5.8537931,4.0763359,-57.0076332,-103.0534363,4.9032998,5.6383162,2.7724714,31.8244267,51.6335869,39.1679382
420,19.6126022,-16.0147324,6.0620875,9.7862597,-30.3740463,-119.8396912,4.7883787,5.3988972,2.9233053,30.9389305,60.6641235,34.4732819
430,16.2326050,-10.6469603,6.0094156,-3.6106870,-11.0916033,-88.5496216,4.3574247,5.2911587,3.1483591,31.5877857,66.7938919,29.4045811
440,11.9613705,-4.1898317,6.3182659,-28.9160309,-19.3587780,-6.8549619,4.0078731,5.3246775,3.2393384,31.4122143,69.5496216,26.0076332
450,11.6070309,2.0973101,7.7092900,-48.5267181,-47.3511467,92.6870193,3.5912843,5.5856438,3.1986370,26.7022896,68.2213745,24.0305347
460,19.1535149,6.5169835,10.1753054,-48.8473282,-65.5877838,143.3206177,2.9807658,6.1530671,2.8921809,15.5267172,57.8244286,23.1297703
470,19.6126022,8.9662399,11.1234045,-34.1374054,-46.6259537,102.6793900,2.4157372,6.6462698,2.7054341,-0.9618320,40.4503822,22.0229015
480,19.6126022,8.9327211,9.7012558,-16.4580154,9.5114508,-30.9312973,2.3056045,7.2041159,3.0190730,-18.5877857,18.2748089,20.2824421
490,19.6126022,4.5106530,5.2767935,-6.4809160,72.8702316,-214.9007568,2.0997043,7.7547798,3.2082138,-35.2137413,-3.6564887,15.6259546
500,19.6126022,-3.1124463,-0.1747758,-17.6641216,133.9313049,-250.1374054,2.2577207,8.1139078,3.2489152,-49.5419846,-22.6870232,9.5954199
510,19.6126022,-11.1904411,-6.4331870,-60.9312973,194.6412201,-250.1374054,2.6527619,8.6478119,3.4883339,-60.6259537,-36.7328262,3.8931298
520,18.1862640,-15.0067797,-9.4714136,-124.8473282,229.6564941,-250.1374054,3.2153964,9.5839405,3.9935081,-66.6488571,-43.2748108,-3.9083970
530,10.4099360,-14.0323448,-9.0524302,-177.7557220,221.9847260,-250.1374054,3.5649481,10.3740225,4.8266859,-65.3435135,-42.6183205,-11.9465647
540,5.5042415,-11.5591469,-6.0932121,-192.4656525,170.8244324,-250.1374054,3.2225790,10.9725704,5.3534074,-58.2061081,-36.7251892,-19.4045811
550,4.3358769,-7.6685886,-2.6743097,-165.0000000,101.1068726,-250.1374054,2.6144550,11.7411051,5.7029591,-46.7557259,-26.9465656,-22.8854961
560,5.0206151,-3.9121056,-1.3862357,-114.5419846,63.1984749,-250.1374054,1.9799947,12.1457233,5.9016771,-32.9160309,-15.0305347,-22.6641216
570,5.4395986,-0.5099624,-2.5234756,-68.4503784,70.4045792,-247.9770966,1.4724265,12.7179346,6.2608056,-18.3740463,-3.4122138,-19.4198475
580,2.5809362,3.3710186,-5.2839761,-43.1679382,95.7862625,-238.7099304,0.9433106,12.8783455,6.2775645,-2.8244274,7.2900763,-13.7709923
590,-0.5985473,7.1658092,-7.5632443,-39.8625946,102.0992355,-223.5954132,0.5291159,12.9334116,6.4068508,11.8320608,14.7786255,-7.1603055
600,-3.4907281,11.1545286,-8.4275465,-47.1832047,85.1603088,-195.8015289,0.3208214,12.8184900,6.2009506,24.0152664,16.2824421,-1.6412214
610,-4.5034704,13.3284531,-7.9295554,-50.1908379,49.3893127,-160.1832123,0.1747758,12.5814657,6.2105274,33.3358765,11.0381680,1.6412214
620,-4.3574247,15.6172981,-7.1658092,-43.0458031,13.5114508,-122.1374054,0.3375807,12.3731709,5.8442163,40.3053436,6.1068702,3.4732823
630,-4.3215117,17.6858768,-7.5369086,-27.6793900,-4.4580154,-84.7709961,0.3950413,12.1074162,5.2384863,44.6946564,2.3358779,4.5496182
640,-4.4244623,19.6126022,-7.8577299,-18.6793900,-25.6259537,-47.2748108,0.3447633,11.7913828,4.6399393,46.9771004,1.4732825,7.7709923
650,-2.2481439,19.6126022,-7.0580707,-13.7633591,-53.4503822,-17.5496178,0.3351865,11.2335367,4.3957319,47.4580154,0.3969466,11.3282442
660,1.1252691,19.6126022,-5.8561873,3.1908398,-69.9847336,-16.4961834,0.4213773,10.7570934,4.1132174,46.6335869,-2.0381680,15.8167934
670,2.9185169,19.6126022,-5.6478930,31.5801525,-70.9236679,-48.6335869,0.6584021,10.2519188,3.8690102,44.4198456,-5.4198475,19.7633591
680,1.5801650,19.6126022,-6.5241661,55.9389305,-69.8167953,-90.0763321,0.8738791,9.5815458,3.7540891,41.9007645,-7.6412215,24.2900772
690,-0.9361281,19.6126022,-7.2903070,62.7862587,-76.8625946,-115.3129807,1.2856797,9.0787668,3.6056492,38.9236641,-8.3129768,27.4732819
700,-2.3989778,17.5757446,-7.0676475,58.7328262,-86.0152664,-125.8015289,1.5777708,8.4754305,3.3398943,36.5954208,-8.2519083,30.2061062
710,-3.0525916,15.2653522,-5.8513989,53.2519073,-92.2824402,-127.0534363,1.8650736,7.9439206,3.3398943,34.9312973,-7.6488547,32.1832047
720,-3.1699069,12.7514534,-3.9575951,54.4809151,-89.9312973,-124.3893127,2.2529323,7.4387465,3.1004753,33.0000000,-7.3129773,33.0076332
730,-3.6463506,10.5080976,-3.0861101,60.9694672,-85.7557220,-120.4961853,2.5785420,7.0460997,2.7988074,30.8244267,-6.1984735,32.5190849
740,-4.5226240,8.3916340,-2.0183017,67.6488571,-83.9083939,-113.5572510,2.9233053,6.5385313,2.7676830,28.4809170,-4.4198475,30.6335869
750,-5.1953912,6.8545642,-1.0749911,75.2900772,-86.3893127,-98.9007645,3.2728570,6.2799587,2.7078283,26.3664131,-1.4732825,27.5190830
760,-5.3558016,5.7029591,-0.2106887,84.6412201,-89.5114517,-80.1221390,3.4284792,6.0333576,2.5282640,24.2900772,3.4961832,23.8320618
770,-4.9487896,4.6543045,0.1197095,93.1832047,-87.6412201,-61.9694672,3.4308734,5.7867560,2.4061604,22.4198475,9.5343513,19.8320618
780,-4.4723458,3.9073172,0.0694315,97.4198456,-83.9160309,-45.3053436,3.4404502,5.6119800,2.2840567,19.7251911,14.9083967,17.2748089
790,-4.0006905,3.4236910,0.1484398,100.4580154,-76.1374054,-30.9847336,3.4236910,5.5377603,2.0422437,15.7404585,19.0839691,13.0763359
800,-2.7748656,2.6527619,0.0071826,97.2213745,-45.5496178,-10.9160309,3.2608860,5.8513989,1.7070571,-1.3129771,17.2519093,4.3740458
810,-2.1547706,2.3702476,-0.1340746,91.4656525,-28.8854961,-6.9083967,3.0142846,5.8202744,1.6495966,-13.8244276,10.5267172,1.7862595
820,-2.0470319,2.1499822,-0.5243275,83.4045792,-15.2213745,-2.1221373,2.8897867,5.9471664,1.7812769,-27.5114498,2.0610688,-1.5267175
830,-2.0230901,2.1427996,-0.6895266,72.8320618,-4.1068702,4.0458016,2.8778157,6.2272868,1.9560528,-40.8473282,-6.7099237,-4.1374044
840,-1.8028246,2.0230901,-0.7230452,62.3053436,1.6793894,10.8396950,2.6790979,6.6965480,2.2146254,-52.2442741,-13.3358774,-6.8931298
850,-1.1779412,1.9656296,-0.5506636,51.7480927,4.8396945,16.1145039,2.5593886,7.1562324,2.6743097,-60.5954208,-17.7786255,-8.8320608
860,-0.6177009,2.1427996,-0.4189832,41.8549614,5.5267177,18.3435116,2.5162930,7.6781654,3.3638363,-65.2824402,-20.5114498,-10.1755724
870,-0.2370248,2.0063307,-0.3016679,32.8778610,2.7633588,18.5877857,2.3534882,8.5161324,3.8977404,-66.4427490,-22.5267181,-10.9694653
880,0.1436514,2.1164634,-0.4740495,24.1679382,-0.7022901,20.8625946,2.2744799,9.2942438,4.3143296,-64.1908417,-23.7328243,-12.3129768
890,1.0366840,2.7269819,-0.3830703,13.6946564,1.7251909,22.9083977,2.3846128,10.1441803,4.8865409,-58.0000000,-24.8702297,-11.5648851
900,2.1499822,3.6295912,-0.7709290,1.0305344,14.6793890,20.3664131,2.6240315,11.0108776,5.0349803,-50.9541969,-22.9312973,-11.4503813
910,2.6336083,4.4029145,-1.6232605,-13.9618320,38.3129768,10.0381680,2.5138988,11.7051926,5.2791877,-43.5572510,-18.5343513,-10.0839691
920,2.5426292,5.8753409,-2.8203552,-34.1984749,72.2595444,-6.2290077,2.4564383,12.0906563,5.4731169,-35.2595406,-14.5114508,-7.3282442
930,0.7158626,8.0325060,-4.5082588,-58.3435097,108.2442780,-18.7938938,2.5857246,12.3420467,6.0596933,-24.7251911,-13.1755724,-6.3282442
940,-1.8650736,10.1537571,-5.9639258,-85.4427490,140.0000000,-18.7480907,3.0406206,12.6437149,6.6534524,-10.7404585,-12.1984730,-8.3358774
950,-5.2552457,13.2542324,-5.1762376,-101.1908417,143.7862549,-2.7862597,3.7373297,12.8903160,6.8066807,5.0992365,-10.2061071,-11.9923668
960,-5.5210009,14.2358503,-3.7564833,-88.5114517,113.9236679,22.8702297,4.0581512,12.9884777,6.4307928,20.7328243,-7.7786260,-18.0916023
970,-2.7102225,13.9006643,-3.3375001,-48.8396950,74.7328262,37.4656487,3.9575951,12.8663740,5.8729467,32.6870232,-4.3358779,-25.8778629
980,-0.2035061,14.2813396,-4.5633249,0.5038168,49.8244286,36.3206100,3.5817075,12.6796274,5.2121506,40.8320618,-0.5343512,-32.0000000
990,0.2537841,14.7338419,-6.2344694,44.5419846,30.2748089,25.4656487,3.0118904,12.4856977,4.9440012,46.0534363,3.0000000,-35.9007645
1000,0.3639168,14.7218714,-7.7260494,73.1908417,11.0687027,12.8931293,2.2361729,12.1481171,4.9344244,50.2137413,6.5419846,-35.1755714
1010,0.5817881,14.1472654,-9.4378948,85.5725174,-10.8244276,-1.3435115,1.7046629,11.8464499,4.9272418,54.2519073,8.9770994,-32.4274826
1020,0.3734936,13.1776190,-10.6397781,84.9312973,-26.9312973,-18.9160309,1.2593436,11.2479019,4.6926112,57.3511467,8.4961834,-27.3206100
1030,0.1604107,12.2630386,-10.8911676,73.6030502,-37.8473282,-37.6412201,1.1851238,10.6756907,4.5537481,59.8549614,7.5496182,-21.8396950
1040,-0.8379663,11.1545286,-10.7906122,55.9541969,-45.4732819,-54.7022896,1.3503228,10.1753054,4.2209558,60.7022896,5.7099237,-16.8091602
1050,-0.0814024,9.7371683,-10.2231894,31.0000000,-62.6259537,-72.3816757,1.4963684,9.7084379,3.8690102,58.4580154,2.4198472,-12.4656487
1060,-0.7685348,8.1210909,-8.1234846,9.6946564,-66.5190811,-84.0534363,1.6711442,9.1362267,3.4907281,54.5648842,-0.6183206,-9.2290077
1070,-1.8387375,7.1322904,-5.5928264,-2.8473282,-60.8625946,-85.0534363,1.8483143,8.5735922,3.4141142,49.8091621,-3.8702290,-8.0610685
1080,-2.5976956,5.9232249,-3.4572096,-4.9694657,-44.0916023,-77.3969498,1.9129574,8.1115141,3.4308734,45.9465637,-5.9923663,-8.4427481
1090,-2.7892308,5.1762376,-2.6814921,0.9236641,-35.7938919,-64.2900772,2.0542145,7.7787213,3.4380560,43.3435097,-6.8931298,-8.1297712
1100,-3.0358322,4.5561423,-1.8052188,10.0763359,-30.7709923,-49.0839691,1.9871773,7.3908629,3.5457945,41.8473282,-6.3053436,-8.3511448
1110,-2.9879484,3.9384418,-1.4580613,19.0992374,-28.8854961,-32.5267181,2.0613971,7.1227136,3.4979107,40.9618340,-4.4198475,-8.5267172
1120,-3.0597742,3.5026991,-1.6112895,25.9007626,-28.7022896,-13.6641226,2.0063307,6.8425937,3.5194585,40.3282433,-0.3206107,-7.9770994
1130,-2.1164634,3.3135581,-1.7693061,27.8854961,-33.5267181,32.1297722,1.6208663,6.5457139,3.3327117,36.8244286,2.7862597,-3.8091602
1140,2.3103929,3.8905578,-1.2186425,15.9236641,3.1297710,59.3282433,1.7357874,6.3182659,2.0518203,19.0305347,-5.7404580,7.5343513
1150,2.9879484,4.0389977,-1.3646880,8.5572519,22.0152664,55.0534363,1.8578910,6.2631998,1.5442522,6.7938933,-8.7404585,8.6793890
1160,2.7317703,4.4627690,-2.2457497,-16.3053436,37.3664131,48.7862587,1.4508789,6.5696559,1.5538290,-21.9847336,-13.7022905,12.0534353
1170,2.2337787,4.8913293,-2.6360025,-34.0992355,35.6717567,51.6106873,1.1348459,6.6965480,1.7429699,-34.6564903,-17.0458012,12.9541988
1180,1.9440818,5.2767935,-2.3941894,-49.3206100,30.5954189,56.2595406,0.9145803,7.0580707,2.2912393,-44.0228996,-20.3129768,14.9694653
1190,1.6711442,5.3869262,-2.0350611,-56.7557259,25.8091602,60.1908379,0.6512195,7.3525558,2.6886747,-50.9771004,-23.0839691,17.4885502
1200,0.8499373,5.7101417,-1.9823889,-55.3129768,26.2671757,64.5496216,0.3184272,7.6470413,2.8993635,-55.6564903,-24.7709923,20.2748089
1210,-0.0478838,6.5265603,-2.3798244,-46.9083977,31.7633591,69.1145020,0.2226596,8.1115141,3.0094962,-59.4503822,-26.6564884,25.5801525
1220,-1.4269369,7.3597383,-3.2034254,-35.7175560,39.1374054,76.0992355,0.1244979,8.4778252,3.1148405,-62.3435097,-27.1297703,31.0610695
1230,-2.9209111,8.4682484,-4.2496862,-26.1068707,45.7099228,84.7328262,0.5506636,8.7148495,3.2130022,-64.1526718,-24.7557259,38.4503822
1240,-4.2832050,9.7036495,-5.8370337,-17.3282452,50.6412201,94.2824402,1.0247130,8.9063845,3.5242469,-64.3435135,-17.7251911,43.8473282
1250,-5.5210009,10.6637201,-7.5656385,-10.1450386,50.7633591,107.9236679,1.3742647,8.8632889,3.8785870,-61.8320618,-7.9007635,46.4732819
1260,-6.3853035,11.5711174,-9.2583303,-6.0152674,46.7022896,125.8625946,1.7812769,8.8321648,4.4364328,-56.0458031,1.4961832,48.1526718
1270,-6.5816269,11.9110928,-10.3500814,-4.3511453,41.8167953,147.2061005,2.3510940,9.0165176,4.7859845,-46.9694672,9.0916033,48.2366409
1280,-6.8162575,11.5854826,-11.1018562,-2.4580152,37.2366409,170.9389343,2.8993635,9.4378948,4.9655490,-37.3740463,16.1832066,47.4274826
1290,-6.9216018,10.9246864,-11.3508520,3.7938931,32.6183205,200.9618378,3.7109938,10.0627785,5.0325861,-28.4580154,19.6030540,45.0000000
1300,-5.8083038,10.3524752,-10.8049774,17.2671757,28.2595425,229.8931274,4.3191175,10.3309278,4.6136031,-20.7022896,19.6259537,41.4961815
1310,-4.7213416,9.3253679,-11.0108776,38.6106873,23.9389305,249.0534363,5.0469513,10.6469603,4.0964580,-15.7557249,18.1908398,36.2519073
1320,-4.4651632,8.3174143,-11.8440552,56.9236641,20.3816795,250.1297760,5.7269011,11.0252428,3.6918402,-14.1145039,19.6412220,28.9618320
1330,-4.1539187,7.4243813,-12.8687687,63.4045792,21.3740463,250.1297760,5.9519548,11.1305866,3.3255291,-14.5877867,23.5877857,19.4351139
1340,-3.2896163,7.2496057,-13.4242201,62.2366409,23.1526718,250.1297760,5.8513989,11.2718439,3.6702924,-14.4122133,27.8320618,11.1297712
1350,-1.5658000,7.2184811,-13.8336267,57.6870232,21.7862587,250.1297760,5.2767935,11.3939476,3.9456241,-11.9923668,29.4351139,2.7862597
1360,-0.2178712,7.7667508,-14.3316183,50.9236641,17.3129768,250.1297760,4.7835903,11.4538021,3.9121056,-8.5725193,28.3511448,-0.8778626
1370,0.4381367,7.9319496,-15.2414103,39.8396950,14.0305347,250.1297760,4.5178356,11.5854826,3.9575951,-4.7480917,25.7328243,-3.3358779
1380,0.4453192,7.5776095,-16.4839935,23.4045811,13.5801525,250.1297760,4.5322008,11.6142130,3.9432299,-0.6717557,22.5038166,-7.0229006
1390,-0.5339043,7.3142486,-17.2692890,0.5496183,12.3129768,243.9160309,4.3071470,11.4945040,3.9336534,4.1679387,20.0610695,-11.1374044
1400,-1.6855093,6.6055689,-16.1966915,-25.2671757,-1.4503816,237.6259613,4.0844874,11.3484583,3.8402798,10.0916033,19.1068707,-13.4427481
1410,-1.8866212,5.4635406,-14.2310619,-49.0228996,-31.1297703,241.1145020,3.8714044,11.2886028,3.6942344,16.8396950,20.9618320,-13.8473282
1420,-0.8714849,4.2305326,-11.5615406,-62.7099228,-53.9771004,250.1297760,3.3901722,11.4035244,3.6248028,22.8625946,25.4732819,-10.6412210
1430,1.1252691,2.8275378,-9.3804340,-67.1297684,-51.2137413,250.1297760,2.8227494,11.2790270,3.4572096,28.3740463,30.6183205,-4.1297708
1440,3.0908985,2.0326669,-8.0109577,-67.8091583,-31.8778629,250.1297760,2.6168492,11.0850973,3.0430148,31.6259537,35.6717567,5.3282442
1450,5.1929970,1.6208663,-7.0820122,-70.7022934,-10.7557249,248.8167877,2.7820482,10.6038647,2.9328821,32.6259537,40.0228996,14.5114508
1460,7.6326761,0.1891410,-5.6814117,-77.9236679,-4.6183205,213.8396912,3.0932927,10.3620520,3.0908985,32.7862587,43.1450386,22.8931293
1470,11.4442253,-2.3510940,-3.3255291,-86.3587799,-25.2290077,158.0381622,3.4332676,9.9023676,3.2800395,33.0381660,45.3969460,28.2748089
1480,15.0929699,-5.9687142,0.0335187,-91.8320618,-72.6030502,82.7480927,3.7469065,9.3995876,3.4021432,33.7251892,45.9465637,31.9083977
1490,18.8015690,-12.4330254,5.1092005,-95.8167953,-125.1297684,-5.2595420,4.0581512,9.0859489,3.4524212,34.1450386,44.1526718,34.0763359
1500,19.6126022,-19.6131992,9.3133974,-98.1984711,-152.7938995,-81.2748108,4.1443419,8.6765423,3.3135581,32.9618340,40.5343513,35.6717567
1510,19.6126022,-19.6131992,10.9558105,-114.6259537,-102.0000000,-77.3129807,4.5226240,8.1953106,3.0837159,29.3816795,35.0228996,36.8625946
1520,19.6126022,-19.6131992,11.0731258,-149.6183167,53.2213745,33.6793900,4.8913293,7.8984308,2.8371146,23.1297703,29.7022896,37.1679382
1530,19.6126022,-15.8902349,10.4865494,-187.9160309,195.1450348,192.9618378,5.2935529,7.5776095,2.7796540,14.4503813,25.4809170,35.6870232
1540,19.6126022,-3.2201848,11.8368731,-243.2366486,250.1297760,250.1297760,5.6431046,7.2950954,2.8059900,4.5954199,19.8549614,32.1145020
1550,19.6126022,12.0140429,19.5174332,-250.1374054,223.1755676,250.1297760,5.8897061,7.0437055,2.9855542,-5.3740458,12.5954199,26.6641216
1560,19.6126022,19.6126022,19.6126022,-197.8931274,141.4198456,211.7786255,6.1817970,6.6271162,3.1172347,-14.9236641,4.8931298,18.6717548
1570,19.6126022,16.5294838,19.6126022,-47.5954208,118.2595444,-46.1603050,6.3278427,6.3158717,3.2393384,-22.8091602,-2.5725191,8.2366409
1580,19.6126022,4.7596488,19.6126022,104.6106873,118.7480927,-250.1374054,6.4643116,5.8705525,3.5841017,-28.1145039,-7.6946564,-4.6106873
1590,19.6126022,-11.6405487,6.3446021,174.4274750,115.1145020,-250.1374054,6.3589673,5.5425487,3.9408360,-30.0610695,-10.2290077,-20.2061062
1600,19.6126022,-19.6131992,-7.1825686,156.2290039,144.1450348,-250.1374054,5.9280128,5.3605900,4.0844874,-28.5267181,-10.7175570,-36.1450386
1610,9.0117292,-19.2253418,-13.8982697,64.6106873,114.3511429,-250.1374054,5.4252334,5.3151007,4.1132174,-25.7480907,-7.9236641,-50.7175560
1620,3.5457945,-13.0962162,-12.5910425,-33.4732819,59.8931313,-250.1374054,4.6830344,5.3917146,4.0078731,-22.8854961,-4.3358779,-64.7862625
1630,8.1785507,-8.6669655,-4.9727316,-78.6183243,2.6641221,-250.1374054,3.5841017,5.6095858,3.8259149,-20.1984730,-3.9389312,-77.0687027
1640,14.5710373,-7.3788919,0.1268920,-66.4580154,-34.6030540,-250.1374054,2.2649033,5.8394279,3.7732425,-16.9312973,-4.9694657,-86.3893127
1650,16.9628315,-6.2536230,0.7661406,-26.8473282,-20.6106873,-250.1374054,0.8140244,6.2081332,3.8115497,-12.9770994,-7.6335878,-92.9923630
1660,15.0139618,-3.6248028,-2.0326669,-5.8167939,25.3740463,-250.1374054,-0.5530578,6.7875271,3.8426740,-7.4427481,-5.7480917,-95.2977066
1670,10.3093796,-1.4413021,-5.5640965,-18.7557259,63.7786255,-250.1374054,-1.8411317,7.5321202,3.9216824,-0.2519084,-1.9389313,-91.0076370
1680,3.2656744,1.5514348,-8.3317795,-54.0916023,93.8931274,-250.1374054,-2.6264257,8.2216463,3.7109938,7.8091602,1.1679389,-80.5954208
1690,-1.5681942,4.8506279,-8.5544386,-83.9923630,102.1526718,-250.1374054,-2.8323262,8.8201942,3.3973548,13.8854961,1.1832061,-65.6946564
1700,-4.6782460,8.4227581,-7.6207051,-101.3969498,100.5038147,-250.1374054,-2.4947455,9.2774839,2.5258698,15.0916033,-1.7709924,-48.8702278
1710,-7.6183109,9.6773138,-6.9790621,-100.8625946,85.5648880,-250.1374054,-1.6017127,9.7395630,1.5466464,9.8702288,-6.8549619,-35.4732819
1720,-10.2950144,10.8073711,-7.1682034,-86.9542007,54.7251892,-207.2748108,-0.3639168,10.0196829,0.8116302,-0.7709923,-12.4503813,-25.2824421
1730,-12.2606440,14.0658627,-7.0724359,-68.6793900,28.0000000,-144.6259613,0.5267217,10.0244713,0.6033357,-14.4274807,-17.6106873,-17.9541988
1740,-12.5407648,17.1998577,-7.0197635,-45.5496178,14.2519083,-88.0457993,1.3958124,10.1178446,0.5698171,-27.9694653,-20.5038166,-13.6259546
1750,-10.0675669,19.0673256,-7.2328463,-26.0305347,-0.4427481,-53.9389305,1.9560528,10.0340481,1.0438666,-38.7557259,-18.8091602,-9.9770994
1760,-5.8753409,19.6126022,-6.7276726,-11.6870232,-8.5190840,-46.0610695,2.4157372,9.9358864,1.6855093,-44.7709923,-12.2366409,-6.5648856
1770,-4.0868812,19.6126022,-6.3422079,4.8625956,-3.7709923,-60.5954208,2.9185169,9.8903971,2.3056045,-47.0687027,-2.4198472,-3.0152671
1780,-3.7684543,19.6126022,-6.0046272,20.1450386,-6.9923663,-83.4351120,3.2177906,9.8903971,3.1531475,-46.7099228,7.3740458,-0.2366412
1790,-4.6375451,19.6126022,-5.3941088,33.5114517,-22.9465656,-103.5190811,3.4763632,9.8353300,3.7780309,-44.2290077,16.0458012,2.0152671
1800,-5.4826937,18.6986198,-4.2664456,45.4503822,-41.3587799,-107.1526718,3.9839313,9.9526453,4.2688398,-41.2061081,26.4732819,2.1832061
1810,-4.3550305,16.5390606,-2.2050486,59.7404594,-52.8015251,-110.8778610,4.4891052,10.3021975,4.2855992,-38.9312973,38.0152664,0.5267175
1820,-4.2401094,13.5606890,-0.5841822,81.1526718,-50.7938919,-113.9083939,4.8314743,10.3620520,4.5417776,-38.4580154,50.6793900,-1.7328244
1830,-4.3191175,11.5711174,-0.0766141,104.2213745,-45.3435097,-109.8549652,5.0900469,10.6302013,5.2408805,-38.3893127,67.1068726,-4.4732823
1840,-4.5633249,9.7180147,-0.4692611,120.8396912,-38.4580154,-101.0534363,5.1522956,11.1066446,5.9160423,-38.0534363,84.7786255,-5.3053436
1850,-4.4938936,8.3581152,-1.1180865,127.2595444,-27.2061062,-88.1679382,5.3246775,10.8768024,6.7420373,-35.3206100,104.1984711,-7.8396945
1860,-4.5992379,7.1969333,-1.3838415,121.3511429,-15.7633591,-74.6259537,5.4252334,10.6876621,7.2879128,-31.6488552,120.3511429,-14.5038166
1870,-3.9097114,6.2248926,-1.1875180,108.2900772,0.4274809,-59.6488533,5.7053533,10.4626083,7.3046722,-31.5419846,127.4198456,-25.1679382
1880,-3.3686244,5.3151007,-0.6129125,93.1221390,14.8778629,-46.5190849,5.2815819,10.6804790,7.4435349,-39.6259537,121.9694672,-38.2671738
1890,-2.7652888,4.2975702,0.2082945,83.1450348,28.8320618,-36.0152664,4.0725164,11.0850973,9.1505919,-50.6183205,99.7099228,-48.8396950
1900,-2.4444675,3.5936785,0.9073978,79.3587799,36.3282433,-26.9923668,2.6527619,11.4777441,12.3037395,-49.2137413,63.3816795,-53.6641235
1910,-2.0637913,3.0071020,1.4604555,80.4198456,37.8549614,-17.9847336,1.6448082,11.4131012,14.5758257,-28.1832066,19.7938938,-52.7786255
1920,-1.5921360,2.4253139,1.7980363,84.2595444,36.2748108,-9.4503813,1.1803354,11.2143831,14.0155849,-0.3206107,-19.6564884,-51.8473282
1930,-1.2713146,1.6591733,1.7597293,89.3435135,32.8702278,-0.7404580,1.4963684,11.8823624,12.4066896,22.4045811,-44.0305328,-52.0992355
1940,-1.2641320,1.1204807,1.2018831,93.0763321,28.6641216,8.7251911,1.5418580,12.4449968,10.4386663,38.1526718,-46.7328262,-52.8702278
1950,-1.3263810,0.5362985,0.6033357,93.5343475,22.3969460,18.4732819,0.5985473,12.7730007,9.4067707,48.3511467,-37.1374054,-50.2213745
1960,-1.0438666,0.2920911,0.1699875,91.7404556,15.7328243,28.1068707,-1.0366840,13.0914278,8.9614515,57.8702278,-22.7022896,-41.5954208
1970,-0.8930327,-0.0837966,-0.3064562,87.5496216,12.7938929,38.7862587,-2.8802099,13.2087431,8.5041609,66.9618301,-10.4198475,-23.9465656
1980,-0.9457048,-0.2705434,-0.6272776,81.3206100,13.7633591,49.3664131,-3.9791429,12.7706070,8.1282730,75.0305328,-3.7175572,-1.3053435
1990,-0.8571198,-0.3399749,-1.1013272,71.9923630,14.6870232,56.8702278,-3.9959023,12.2151546,7.7140784,82.5725174,-2.2900763,19.3893127
2000,-0.8307837,-0.1675933,-1.6807210,59.4656487,17.7786255,61.7022896,-3.6271970,11.6022425,6.9287844,89.5114517,-4.0076337,34.7557259
2010,-1.3287752,-0.1101327,-2.4636209,41.4274826,22.2977104,65.4732819,-3.0262554,10.7523050,6.1147599,93.8931274,-7.7022901,44.7938919
2020,-1.4508789,0.3806761,-3.0310438,17.2442741,28.8931293,71.6717529,-2.3032103,10.2255831,5.3605900,96.2366409,-14.1679392,50.8625946
2030,-1.5442522,0.9672526,-3.0214672,-6.4732823,42.9083977,79.7175598,-1.7357874,9.4283180,4.6471219,98.0076370,-20.0610695,56.0381660
2040,-1.9871773,1.5969244,-3.2034254,-24.0229015,62.4198456,88.1145020,-0.8403605,8.6885138,3.6104376,96.6183243,-23.3129768,55.9923668
2050,-2.9496415,2.2625091,-3.7876077,-35.2824440,78.4351120,97.6717529,-0.4165890,8.0947542,2.7341642,90.7709961,-27.1984730,54.5114517
2060,-3.2967989,3.3255291,-4.2065907,-45.3358765,86.2137375,112.3053436,0.0239419,7.4746594,2.0470319,84.2824402,-31.4656487,53.9541969
2070,-2.5354466,5.8968887,-4.7979555,-49.0381660,88.4351120,123.9389343,0.5434810,6.8354111,1.6495966,74.6183243,-36.3358765,53.1145020
2080,-1.9823889,8.0420828,-5.7532372,-42.7938919,82.6717529,124.5877838,1.0271072,6.1889796,1.1875180,63.3511467,-39.9389305,49.3282433
2090,-2.0853391,9.7563219,-7.9056134,-42.4809151,68.1908417,117.4656525,1.3191984,5.8250628,1.0773853,51.5877876,-43.1755714,42.3893127
2100,-2.9544299,11.9853125,-9.0021524,-38.9236641,47.4122124,112.6106873,1.4341195,5.2624283,1.2090657,40.8778610,-46.9847336,34.9007645
2110,-3.5745249,13.9413652,-10.3548698,-37.1984749,24.5267181,115.3740463,1.3934183,4.8195033,1.4867916,32.2061081,-49.8778610,28.4656487
2120,-3.6846576,14.9038296,-11.5735121,-41.3893127,16.2977104,127.9465637,1.5753766,4.5920553,1.5394639,25.8473282,-52.3740463,20.9236641
2130,-3.4189026,16.2086620,-11.2646618,-44.0687027,21.1221371,139.7786255,1.6041069,4.4579806,1.6088953,20.7480907,-54.1679382,13.8778629
2140,-3.3590479,17.2716827,-11.4107065,-42.9541969,25.1679382,146.7862549,1.3790531,4.0533628,1.6304430,15.2061071,-55.9694672,6.4809160
2150,-3.1842721,18.1886578,-10.8241301,-40.4351158,28.4351139,155.1297760,1.0702027,3.9144998,1.4245427,8.3664122,-56.7175560,0.7709923
2160,-2.6000898,18.6507359,-9.4426832,-31.0305347,32.4427490,166.3435059,0.5003856,3.4859397,1.2425843,0.2671756,-55.6870232,-3.4885497
2170,-1.5969244,18.9356441,-8.5640154,-9.5343513,35.7862587,172.4732819,-0.3543400,3.4859397,1.1085097,-10.6717558,-51.1679382,-2.3511450
2180,-0.4644727,18.6483421,-9.4402885,13.0152674,32.9618340,170.5267181,-1.1563935,3.5936785,0.9002152,-22.4351139,-46.5725174,4.2213740
2190,-0.4477134,18.3610382,-10.4195127,29.3282452,14.1755724,163.4198456,-1.9273225,3.8187323,0.8571198,-35.4885483,-40.5496178,16.3587780
2200,-1.8339491,17.4129391,-11.7004042,35.5877876,-19.0152664,158.9084015,-2.7413468,4.4627690,0.7948709,-48.4122124,-35.9083977,33.4580154
2210,-2.8419030,16.1320477,-11.6644907,32.9312973,-55.5343513,164.1374054,-2.5761478,4.9918852,0.7685348,-62.0381660,-34.0992355,50.9694672
2220,-3.1459649,14.7170830,-10.2040358,31.6106873,-71.0992355,177.4809113,-2.3439114,5.7891502,0.6296718,-75.7557220,-32.6641235,70.3740463
2230,-3.5122759,13.5487185,-9.1098909,35.0839691,-69.2290039,195.5801544,-1.8507085,6.9718795,0.4548960,-87.9542007,-30.4961834,82.7709961
2240,-3.5386121,12.0308018,-8.6741486,40.2671738,-62.3969460,213.2748108,-0.8164186,8.4083929,0.2992737,-101.2366409,-27.2213745,91.9007645
2250,-2.8754215,10.1250277,-8.8249826,39.9847336,-65.3053436,225.2824402,0.7709290,9.0524302,0.8164186,-112.8549652,-21.0916023,99.4961853
2260,-1.4796091,8.0923605,-8.4730368,36.9160309,-72.4198456,222.2595367,3.4308734,10.5727406,2.3606708,-116.1297684,-10.1908398,98.3969498
2270,1.1180865,5.0517397,-7.8888540,27.2824421,-76.1297684,206.5496216,6.0429344,12.2079716,4.2496862,-109.8625946,5.8549619,84.7862625
2280,6.3876977,2.4133430,-6.3062949,13.8702288,-82.9542007,174.2366486,7.2903070,12.8400383,5.9328012,-95.6030502,17.4351139,62.6870232
2290,12.4042959,-1.8315549,-3.9982965,-0.0305344,-94.0229034,117.2900772,7.2184811,13.4649220,7.4531116,-75.4198456,17.4961834,38.5954208
2300,16.0434628,-8.3269911,-1.0247130,-21.3206100,-101.9847336,49.5419846,6.8689294,14.0060081,8.0756006,-52.2442741,7.3969464,16.8549614
2310,17.6403885,-16.5893383,4.6758518,-48.3893127,-85.1679382,0.6030535,6.5600791,14.4082317,7.8625183,-29.1603050,-3.6870229,-1.2977099
2320,14.5375185,-19.6131992,8.6885138,-54.6793900,-52.8015251,9.9847326,6.1003947,14.6093445,7.0963774,-11.1679392,-12.7099237,-14.0152674
2330,14.4273853,-19.6131992,7.2184811,-59.8931313,12.4274807,107.8396912,5.4132624,14.4728756,6.2153158,0.0687023,-21.0763359,-23.4885502
2340,17.6212349,-19.6131992,6.3278427,-83.3511429,94.6030502,250.1297760,4.4555864,13.9772778,5.4372044,5.4122138,-28.5190830,-28.6870232
2350,19.6126022,-16.7425671,5.5138183,-104.7786255,130.8320618,250.1297760,3.6822634,13.2470503,5.4563580,9.6793890,-29.8320618,-28.5038166
2360,19.6126022,-1.7621235,9.5983057,-110.9007645,93.3053436,250.1297760,3.6391680,12.3181047,6.0094156,18.0305347,-24.3358784,-26.8015270
2370,19.6126022,12.0116482,16.8742466,-69.8931274,7.4503818,250.1297760,3.7732425,11.2287483,6.7420373,32.2748108,-15.0687027,-26.8625946
2380,19.6126022,19.2277355,19.6126022,24.4198475,-50.7022896,115.1297684,3.7229645,10.1705170,7.0413113,50.0152664,-4.2137403,-30.2366409
2390,19.6126022,16.3834381,16.6659527,124.2137375,-59.5038185,-80.9770966,3.0908985,9.1434097,6.9646969,67.1908417,2.4809160,-33.6946564
2400,19.6126022,7.9151902,6.0525107,158.5038147,-23.9618320,-250.1374054,2.4157372,8.1641865,6.6199336,81.0687027,3.1832061,-35.9236641
2410,19.6126022,-1.5634058,-5.3007355,108.0000000,47.0916023,-250.1374054,1.9704180,7.4435349,6.1937680,90.8854980,1.3511450,-35.9160309
2420,19.6126022,-8.5137377,-10.2351599,15.4580154,113.4885483,-250.1374054,1.6591733,6.7755561,5.4994531,95.9847336,-0.8244275,-34.9541969
2430,15.0498753,-13.2255030,-9.1266499,-64.3587799,129.9236603,-250.1374054,1.3646880,6.2344694,4.7955613,98.0992355,-1.0610687,-33.1221390
2440,14.7936964,-13.4385853,-4.8721757,-106.4351120,110.8702316,-250.1374054,1.2976507,5.7484488,4.1802549,97.3969498,0.5038168,-28.6412220
2450,17.0514164,-12.9669304,-0.0143651,-104.5648880,92.5648880,-250.1374054,1.4053892,5.3893204,3.4907281,94.4427490,2.9389312,-24.7786255
2460,17.4680061,-13.1297350,1.7214222,-79.0305328,88.8778610,-250.1374054,1.6495966,5.0972295,3.0118904,88.7404556,5.7862597,-21.1145039
2470,15.1240950,-12.3803539,-0.0622489,-61.2366409,98.8931274,-250.1374054,1.7956421,4.7237358,2.6527619,84.1832047,7.6412215,-20.8702297
2480,10.6134415,-10.1537571,-3.2465210,-64.3053436,123.6793900,-250.1374054,1.6472024,4.5417776,2.3846128,78.0457993,6.6641221,-22.5725193
2490,5.4036856,-6.4379754,-5.3294659,-76.4732819,146.6870270,-250.1374054,1.6041069,4.5920553,2.1260402,72.1374054,4.2061067,-25.7938938
2500,0.6057299,-1.9584470,-5.9950504,-78.2595444,140.0534363,-250.1374054,1.3670821,4.6088147,1.8794388,67.9007645,1.1832061,-28.4274807
2510,-1.5705882,1.6591733,-5.3222833,-59.2977104,103.7862625,-250.1374054,1.1899122,4.8578105,1.3191984,61.1526718,-2.1374047,-31.8396950
2520,-3.5050933,5.2408805,-6.0812411,-26.0839691,70.2442780,-217.7099304,0.8858501,4.9080882,0.6248835,50.9007645,-7.6335878,-35.2519073
2530,-5.9782910,9.5192976,-8.6142941,-2.3282442,48.9007645,-165.1374054,0.8403605,5.0828643,-0.0191535,37.2519073,-12.8473282,-37.9007645
2540,-7.0580707,14.7075062,-11.0276365,-2.2366412,32.6030540,-113.6641235,0.7278336,5.3174949,-0.5003856,20.4503822,-16.9923668,-40.0610695
2550,-6.1794028,18.0881004,-11.7913828,-12.7557249,22.3129768,-86.3282471,0.5698171,5.8394279,-0.9816177,-0.0458015,-20.8091602,-41.5496178
2560,-6.2081332,19.6126022,-11.5687237,-20.0839691,18.7786255,-78.4045792,0.2729376,6.0501165,-0.9888002,-22.2137413,-26.3664131,-42.1374054
2570,-7.0676475,19.6126022,-10.8863792,-20.1679382,14.3053436,-71.6183243,-0.0191535,6.6773944,-0.4788379,-42.8396950,-32.8931313,-41.0228996
2580,-7.0101867,19.6126022,-10.0915089,-13.6106873,8.0534353,-60.8244286,-0.4572902,7.0772243,0.3854645,-58.4961815,-38.4656487,-38.2137413
2590,-6.2512288,19.6126022,-9.2415714,-6.2290077,1.1755725,-53.2671738,-0.6871324,7.7452030,1.1731528,-70.0305328,-44.3129768,-33.0763359
2600,-5.8035154,19.6126022,-7.8385763,2.6946564,0.9541985,-48.9618340,-0.2873027,8.6047173,1.9632354,-76.1221390,-48.3511467,-26.6335869
2610,-5.4372044,19.6126022,-6.2201042,15.6335878,0.7862595,-44.0763359,0.3591284,9.5671806,2.5091105,-77.9694672,-46.2595406,-18.5190830
2620,-5.4491754,18.5908813,-4.8242917,36.4045792,-15.4198475,-36.7633591,1.0845678,10.1058741,2.9783716,-76.0687027,-37.0076332,-9.9312973
2630,-5.1834202,16.8096046,-3.1699069,64.0763321,-46.5572510,-27.7557259,1.8938038,10.6541433,3.3829896,-71.8854980,-24.1679382,-2.7557251
2640,-4.3047528,14.6021614,-1.8722562,94.1603088,-79.0534363,-19.2061062,2.6958573,11.1329813,4.0701222,-64.0839691,-7.6030536,3.8167939
2650,-3.5314295,12.4090843,-1.1061156,120.9694672,-105.2595444,-14.6183205,3.5122759,11.4561968,4.4843168,-52.7328262,12.6106873,7.9618320
2660,-2.7174051,10.3333216,-0.6200951,143.6335907,-122.5267181,-13.9541988,4.1611013,11.8440552,4.6662750,-39.5877876,32.2595406,7.5038166
2670,-2.1787124,8.7052727,-0.6488253,158.0000000,-128.0534363,-15.7404585,4.3215117,12.0451670,4.6950054,-28.8625946,46.2900772,3.1679389
2680,-1.8866212,7.3262196,-0.9504932,163.2366486,-121.0457993,-18.1755733,4.2472920,12.2486734,4.7237358,-22.0381680,52.7709923,-1.2290076
2690,-1.8028246,5.9663200,-1.3790531,159.5648804,-104.0687027,-20.3053436,4.1347651,12.4210548,4.7692256,-17.7557259,51.6259537,-6.0076337
2700,-1.9105632,4.9870968,-1.8219782,148.7480927,-80.9542007,-21.0916023,3.8809812,12.4785156,4.8123207,-15.4198475,47.3435097,-10.4274807
2710,-1.7501525,4.2879934,-2.1188576,132.3511505,-56.3206100,-22.3511448,3.5577655,12.2893744,4.7428894,-14.9083967,40.6106873,-13.3740454
2720,-1.7238164,3.6583214,-2.4875629,111.4122162,-28.7251911,-24.2137413,3.0262554,11.8584204,4.6471219,-15.8549614,31.6641216,-13.9465647
2730,-1.6639616,3.2513094,-2.7365584,86.5496216,-0.3511450,-27.3664131,2.9496415,11.5256281,4.6207857,-15.9694653,21.7480907,-16.1908398
2740,-1.7669119,3.0765336,-2.8490853,59.9923668,23.7251911,-33.3816795,2.9640064,11.2526903,4.8410511,-12.9236641,15.1374044,-20.4809170
2750,-2.1380112,3.0334380,-2.7317703,33.1374054,41.2137413,-42.1297722,2.6743097,11.0563669,4.7021880,-6.6106873,13.0305347,-24.1450386
2760,-2.6647329,2.7485294,-2.6431851,7.4122138,47.7099228,-49.3587799,2.5617826,10.8241301,4.6566987,1.2290076,14.1145039,-24.4045811
2770,-3.1507533,2.4899571,-2.0925217,-16.7557259,41.7786255,-53.9465637,2.4133430,10.5080976,4.1132174,8.9312973,18.0152664,-22.7862587
2780,-3.2441268,2.1475880,-1.1611819,-35.5190849,23.0229015,-54.5572510,2.4588325,10.2902260,3.5936785,14.7709923,23.8473282,-19.9236641
2790,-3.1866663,1.8219782,0.4716553,-47.5267181,-5.0458016,-50.5954208,2.4851687,10.0125008,3.1627243,18.3206100,29.2595425,-15.3435116
2800,-2.7341642,1.4556671,1.9225341,-49.7862587,-32.8778610,-42.0000000,2.4755919,9.8065996,2.6551561,18.8167934,33.9541969,-10.4961834
2810,-2.0015423,0.9217629,3.1890604,-44.5801544,-52.8473282,-29.8778629,2.6407909,9.5312681,2.2337787,15.8244276,37.0152664,-6.9312978
2820,-1.3718705,0.1580165,3.6487448,-33.3740463,-60.0305328,-10.7633591,2.6790979,9.2511482,2.0709739,9.9923668,37.5801544,-4.9083967
2830,-0.8403605,-0.1388630,3.3997490,-19.4732819,-52.6412201,12.3893127,2.4468615,8.9686337,1.9608412,1.6183206,35.7404594,-2.2824428
2840,-0.0526722,-0.0981618,2.5162930,-5.8931298,-38.0000000,36.1908379,2.3846128,8.6669655,2.3510940,-7.1908398,28.7480907,-0.7633588
2850,1.6998745,7.1945391,-7.4650826,-8.1526718,58.9236641,60.3511467,2.6383967,9.2104464,3.5434003,-34.1984749,-8.1832066,-0.0839695
2860,-0.7493813,8.8489246,-10.1106625,-47.0839691,59.0305328,37.1832047,2.5186872,9.1362267,3.8402798,-38.7175560,-9.8625956,4.2595420
2870,-3.9599893,10.0196829,-10.7475166,-86.5419846,56.0000000,28.2671757,2.3965836,8.9710283,4.2257442,-42.3969460,-11.9083967,8.8625956
2880,-6.8306227,11.9829178,-9.1912937,-117.8854980,51.2595406,41.1374054,2.4181314,8.9351149,4.5106530,-44.2519073,-12.2442751,12.6488552
2890,-7.8720951,13.6373034,-6.2751703,-126.9312973,56.7786255,61.5190849,2.3534882,8.6693602,4.7141590,-44.3893127,-12.2519083,14.0916033
2900,-7.1562324,14.8008795,-5.2887645,-116.5419846,79.2519073,72.9236679,2.2002602,8.3389616,4.8338685,-42.0992355,-12.5038166,13.2748089
2910,-7.7739329,16.1895084,-4.6399393,-92.4198456,102.0381699,80.6717529,2.1451938,8.1163025,5.0565281,-36.4427490,-10.1068707,10.4656487
2920,-9.5432396,16.9053726,-5.6526814,-68.2977066,106.8473282,102.5419846,2.0470319,8.1139078,4.9487896,-29.3282452,-4.7709923,5.2213740
2930,-8.9806042,17.8343182,-6.3254485,-51.5801544,101.9312973,131.1984711,1.7118455,8.3988171,4.9679432,-23.0381680,0.3740458,0.2824427
2940,-5.9160423,18.7632618,-6.2177100,-33.1679382,89.4427490,146.1374054,0.8978211,8.7962523,4.6279683,-20.3511448,1.0839695,-1.6488550
2950,-2.5593886,19.6126022,-7.1849627,-12.3435116,81.9694672,137.4045868,0.3615226,9.0811605,4.5968437,-21.7022896,-3.2137403,0.1450382
2960,-1.1755470,19.6126022,-9.0572186,-7.0534353,78.9007645,114.8167953,0.1771700,9.0859489,4.4962878,-25.9083977,-11.9236641,3.7099237
2970,-0.8164186,19.6126022,-10.2926207,-17.0839691,72.9465637,86.5419846,0.4453192,9.1529865,4.5082588,-31.0763359,-23.0152664,6.4427481
2980,-1.7884595,19.0194416,-8.8106174,-24.2977104,57.6259537,58.0534363,1.2569494,9.1577749,4.5968437,-34.0839691,-32.1145020,6.4885497
2990,-3.7229645,17.6140518,-6.9862447,-13.2061071,39.2137413,39.1526718,1.9967541,9.1553802,4.9583664,-32.8931313,-35.1526718,4.5877862
3000,-6.3326311,15.3611193,-6.2871413,5.8244276,27.4961834,39.4274826,2.5162930,9.1194677,5.2839761,-26.3587780,-31.5114498,1.7633588
3010,-9.6509781,13.6253319,-6.9335728,23.0992374,16.0229015,64.5343475,2.7772598,9.0404596,5.4539638,-16.1221371,-22.2519093,-0.9923664
3020,-11.9733410,12.4761209,-7.4698710,31.3129768,-2.5343511,111.5648880,2.8107784,9.1218615,5.5976148,-3.4961832,-9.2595415,-4.1145039
3030,-12.5048513,10.4386663,-6.5098009,37.2595406,-29.6106873,167.2442780,2.8682389,8.9973640,5.8130918,9.9160309,5.0152674,-6.3664122
3040,-11.9206696,8.8273764,-4.1419477,57.6335869,-67.6870193,219.2824402,2.6719155,8.9446917,6.1434903,25.3358784,20.7022896,-8.5114508
3050,-9.8089943,6.5265603,-3.5218527,80.5267181,-85.1755753,250.1297760,2.4708035,8.8752604,6.2416520,40.1374054,34.7328262,-10.0076332
3060,-6.8018923,3.7109938,-3.9264708,97.2213745,-76.0916061,250.1297760,2.2050486,8.8273764,6.0716643,49.5343513,41.6183205,-11.8015270
3070,-3.9791429,0.9888002,-4.4029145,106.9847336,-59.8015251,250.1297760,1.9033806,8.6765423,5.9591374,58.4885483,40.3740463,-11.6335878
3080,-0.7948709,-2.8299320,-4.8410511,111.4427490,-52.3282433,250.1297760,1.5969244,8.6454182,5.4180508,60.1374054,33.2748108,-12.8702288
3090,3.5314295,-7.1490498,-5.7556314,104.4122162,-51.1068687,250.1297760,1.4556671,8.5496502,4.7500720,55.0458031,19.3129768,-13.6030531
3100,10.9534168,-11.1042509,-5.9040713,83.7862625,-32.9312973,250.1297760,1.6376256,8.5161324,4.1563129,43.7251892,2.8778627,-14.8625956
3110,19.0936604,-14.4321737,-6.0357518,49.4045792,-1.3969465,250.1297760,2.1164634,8.7459745,3.9360476,30.2748089,-13.1908398,-19.3511448
3120,19.6126022,-17.6954536,-5.5736732,-0.6946565,35.1221390,245.3587799,2.4755919,9.1865053,3.8498566,16.4274807,-27.4885502,-26.3435116
3130,19.6126022,-19.1463337,-3.0334380,-58.6106873,62.3053436,158.5954132,2.6527619,9.5887289,3.7277529,3.5801528,-37.3435097,-33.4274826
3140,19.6126022,-19.6131992,0.2154770,-117.4503784,98.1374054,105.4961853,2.2361729,10.0532017,4.0246325,-7.5648856,-42.6717567,-35.2290077
3150,19.6126022,-19.6131992,1.5562232,-186.0534363,145.1297760,116.9007645,2.0206959,10.4530315,4.6543045,-14.6641226,-44.1297722,-31.9923668
3160,19.0529594,-12.2343082,6.8569584,-248.8396912,167.3282471,173.1068726,2.1499822,10.7259684,5.3869262,-16.5343513,-42.3587799,-26.4580154
3170,18.5717278,-4.0174499,16.4696293,-250.1374054,117.9083939,218.2671814,2.2098370,11.2981796,6.0740585,-13.9389315,-39.1450386,-21.3511448
3180,19.6126022,3.1363883,19.6126022,-164.9313049,12.9694653,210.5954132,2.2529323,11.9110928,6.7372489,-8.4809160,-36.4809151,-17.4274807
3190,19.6126022,5.8873119,19.6126022,-2.4122138,-73.4503784,134.8778687,2.1619530,12.3396521,7.0724359,-1.5954199,-36.3053436,-13.1984730
3200,19.6126022,3.6248028,19.6126022,170.2519073,-94.4351120,-11.5877867,2.3702476,12.7083578,7.2352405,5.7175574,-39.3816795,-10.1068707
3210,19.6126022,-2.6647329,11.3724003,250.1297760,-95.6641235,-184.0839691,2.4444675,12.8903160,7.1035600,13.2748089,-43.6793900,-9.5038166
3220,19.6126022,-10.4219065,-1.6184721,250.1297760,-90.3740463,-250.1374054,2.2792683,13.0363617,7.0125809,20.9694653,-47.9771004,-11.2366409
3230,19.6126022,-14.8655224,-9.5767574,150.7862549,-76.6641235,-250.1374054,1.6831152,13.0267849,6.7635851,28.6183205,-52.5877876,-13.8015270
3240,15.1647959,-16.2613354,-12.1672707,4.9847326,-25.8320618,-250.1374054,1.1827296,13.0459385,6.4020624,36.6335869,-55.5496178,-15.1679392
3250,10.5679522,-15.1695843,-8.5975342,-107.9389343,39.0839691,-250.1374054,0.6153067,13.0650921,6.0812411,43.8167953,-55.2442741,-14.6259546
3260,8.9494801,-13.6468801,-2.5929072,-150.4580078,60.5496178,-250.1374054,0.0143651,12.8879223,5.4994531,50.2595406,-53.0458031,-10.8778629
3270,8.4083929,-11.7937775,0.2466015,-140.5114441,58.2290077,-250.1374054,-0.4668669,12.4497852,5.2001796,55.5801544,-50.0916023,-5.0763359
3280,6.4571290,-8.9111729,-0.3998296,-111.2671738,64.6412201,-250.1374054,-0.6847382,11.9110928,5.0110383,61.0763359,-46.9771004,1.3969465
3290,3.0789278,-4.4579806,-2.2505381,-84.3664093,85.7709961,-250.1374054,-0.4620786,11.4011297,4.3478479,66.5496216,-44.5496178,6.7404580
3300,-0.9600700,1.2952565,-4.6638808,-66.9465637,96.6793900,-250.1374054,-0.0143651,10.8193426,3.7014170,69.7022934,-43.1679382,11.2748089
3310,-4.4436154,6.2248926,-7.9606800,-63.9465637,101.5801544,-242.6870270,0.1771700,10.2327662,2.8562679,68.2824402,-43.1221390,14.6717558
3320,-4.5082588,8.3461447,-10.4937325,-74.4122162,76.2824402,-183.1755676,0.4165890,9.5456333,2.2098370,63.4656487,-44.4427490,17.9465656
3330,-3.3470769,11.8560257,-11.8656025,-85.7251892,54.9694672,-131.6641235,0.6153067,8.8752604,1.8052188,56.7480927,-45.5801544,21.2290077
3340,-3.1076579,17.0825424,-11.4609852,-89.7709961,26.8702297,-96.4885483,0.9145803,8.1929159,1.5729824,51.1450386,-44.3893127,23.7251911
3350,-1.9321109,19.6126022,-10.8648319,-86.4732819,-13.8091602,-80.0076370,1.2042773,7.5009956,1.6065011,48.0152664,-38.4274826,25.8320618
3360,0.0383070,19.6126022,-10.3620520,-81.4732819,-47.0458031,-82.6183243,1.3072275,6.9359670,1.6495966,47.0534363,-26.1297703,27.5419846
3370,1.5490406,19.6126022,-9.9622221,-86.4274826,-57.9465637,-99.9694672,1.1420283,6.5050125,1.7453641,47.3282433,-10.1068707,27.9389305
3380,1.5059452,19.6126022,-9.1697454,-102.7175598,-42.0076332,-113.7480927,0.7230452,5.8250628,2.2481439,49.2900772,6.0839696,29.2137413
3390,-0.0071826,19.6126022,-7.2328463,-116.6793900,-18.8244267,-121.8167953,0.5530578,5.7197185,2.7796540,53.0763359,21.9694653,29.0305347
3400,-1.7908537,19.6126022,-4.0509686,-114.1679382,-13.6870232,-126.8702316,0.2729376,5.3390427,3.1172347,56.7480927,32.2977104,25.6870232
3410,-2.8299320,19.6126022,-1.1204807,-90.6870193,-41.5267181,-122.8778610,-0.1771700,5.1307478,3.3207407,59.0152664,37.1526718,22.5190830
3420,-3.0430148,19.6126022,2.3822186,-49.3053436,-92.8854980,-109.0457993,-0.5362985,4.9655490,3.3063757,59.5877876,37.0152664,19.5267181
3430,-3.6846576,18.7369270,5.0684991,6.0916033,-141.8625946,-89.2671738,-1.0199248,4.8530221,3.0717452,57.3664131,32.2519073,15.7862597
3440,-2.3654592,17.1447906,6.3302369,62.2595406,-184.0915985,-71.9847336,-1.2761030,4.6040263,2.6982515,51.6870232,23.4809170,12.1755724
3450,-2.6671271,14.3388004,6.6893654,114.5190811,-212.0992432,-64.1145020,-1.1731528,4.4603748,2.1691356,43.2977104,12.2213745,8.5419846
3460,-0.8188128,12.8328552,4.8769641,149.8396912,-228.4274750,-57.2824440,-0.7996593,4.3310885,1.5370697,31.0992374,3.0534351,3.3511450
3470,0.4644727,10.8504667,4.6782460,174.3129730,-217.4503784,-62.0534363,-0.3495516,4.2640514,0.9816177,17.5954189,-0.2213740,-2.3816793
3480,0.6727672,8.3940287,4.3574247,190.1526642,-187.9847260,-77.5267181,0.0000000,4.3622131,1.0582317,4.4503818,-0.2366412,-7.4580154
3490,0.3687052,6.9311786,3.8378856,196.6106873,-143.5496216,-89.8778610,0.0957676,4.5776901,1.1228749,-6.1603055,0.6183206,-11.9465647
3500,-0.2274480,6.3302369,2.8299320,190.2671814,-104.8244247,-97.2824402,0.1532281,4.9703374,1.0941446,-14.2290077,3.7709923,-17.5801525
3510,-1.4843974,5.1331420,2.1787124,172.2137451,-71.7938919,-101.1068726,0.0143651,5.3510137,1.5346755,-15.8244276,6.7022901,-23.1679382
3520,-2.1811066,3.9982965,1.2976507,144.0000000,-46.7709923,-105.7328262,-0.2753318,6.0668759,1.6879035,-14.6183205,11.6870232,-28.9923668
3530,-3.5912843,1.9704180,0.9576758,111.2977066,-31.6717548,-108.9694672,-0.3136388,7.3788919,1.3191984,-15.3053436,14.8091602,-34.8091621
3540,-5.4228392,0.3184272,0.9672526,82.3893127,-19.8549614,-99.0992355,-0.8068419,8.3820572,0.8786675,-21.2137413,14.3511448,-37.7480927
3550,-6.1434903,-0.6416427,0.9026094,57.4351158,-14.0916033,-77.6717529,-1.3982066,9.3277617,0.3639168,-34.8473282,9.4122133,-33.0687027
3560,-6.2560172,-1.1611819,1.2593436,40.0152664,-10.2290077,-48.2442741,-1.2042773,9.9550400,0.2466015,-51.6488533,4.6183205,-21.1755733
3570,-5.2552457,-1.8339491,1.7549409,30.8015270,-4.5343513,-18.6488552,0.0670373,10.1250277,0.6296718,-66.0457993,6.9236641,-5.9618320
3580,-3.8307030,-2.2720859,2.0997043,29.9312973,-5.4427481,5.6030536,1.7381816,10.3189564,1.5442522,-74.0763321,18.4427490,0.9007633
3590,-2.6120608,-2.3917952,1.9632354,34.8167953,-12.8473282,21.9007626,2.8251436,10.2447367,2.7892308,-72.5496216,31.7633591,-2.1374047
3600,-1.1899122,-2.3103929,1.6519908,42.2671738,-18.6412220,30.1145039,3.4093258,10.5176744,4.1251884,-58.9923668,42.8091621,-12.5343513
3610,-0.4740495,-1.7070571,1.0558375,44.5954208,-26.3587780,30.9007626,3.4572096,11.2718439,4.9894910,-36.4427490,52.7633591,-24.3969460
3620,0.0790083,-0.5913648,0.3734936,39.0458031,-36.6335869,26.7862587,2.9520357,12.0068598,4.7524662,-13.1984730,61.2977104,-33.4732819
3630,0.8020535,0.4453192,-0.1221037,29.5877857,-37.3816795,20.4351139,2.4875629,12.6844158,3.5745249,0.8091603,62.8549614,-34.3435097
3640,1.7956421,1.1300575,-0.9959828,13.7175570,-35.1145020,8.9389315,2.2936335,13.3045111,2.5522060,2.8091602,58.5419846,-31.2290077
3650,1.9177457,1.5490406,-2.2864509,-10.6259546,-23.2824421,-5.9465647,2.2481439,13.5702658,1.8554969,-4.8244276,51.3358765,-25.3435116
3660,1.2784972,2.8514795,-3.0645626,-39.6641235,-6.3129773,-16.3893127,2.5641768,13.6564569,1.7309990,-16.8320618,43.4351158,-18.7633591
3670,-1.0821736,4.9607606,-4.1347651,-69.9618301,20.2748089,-17.7251911,2.7150109,13.5511122,2.2194135,-28.1526718,36.6030540,-13.2442751
3680,-3.2920105,6.4643116,-6.0022330,-106.0839691,54.5496178,-6.8625956,2.7150109,13.1177645,3.1986370,-34.4656487,30.7251911,-8.1908398
3690,-3.4859397,8.1665802,-7.2304521,-143.4656525,60.3587799,-1.3816794,2.6862805,12.6365318,3.8043671,-34.0228996,25.4885502,-2.4885497
3700,-4.1251884,9.2511482,-7.6566176,-162.2442780,34.3053436,-7.7251906,2.5953014,12.0810804,4.3263001,-29.0763359,21.2748089,2.7328243
3710,-4.8673873,10.3045912,-7.3812861,-166.8931274,10.0534353,-16.3358784,2.6479735,11.4011297,4.5609307,-21.2977104,18.4503822,8.2671757
3720,-6.7564025,11.6956158,-7.3764977,-167.3358765,-5.1145039,-16.0000000,2.5689652,10.6421719,4.4124913,-12.1221371,16.5190830,12.3129768
3730,-9.1936874,13.8216553,-7.3405848,-163.3358765,-13.9618320,-2.9923663,2.7796540,10.1058741,4.0437860,-3.3282442,16.3740463,14.7786255
3740,-11.2095947,14.8224268,-6.9790621,-154.2748108,-18.0458012,22.5419846,2.9759774,9.7874460,3.4452386,2.2824428,15.5877867,16.9770985
3750,-11.4346485,16.3164005,-6.1315193,-139.2290039,-20.6183205,48.0458031,3.0406206,9.4929609,2.8347204,4.5343513,14.8778629,19.5648861
3760,-10.8265247,17.7553082,-4.1706781,-109.2137375,-26.0000000,66.5267181,3.0501974,9.0476418,2.5833304,4.2977099,13.7099237,22.9007626
3770,-9.8544836,17.4895535,-3.6415622,-66.2671738,-36.9083977,76.9542007,3.1842721,8.8345594,2.1978660,2.0152671,11.6412210,25.2290077
3780,-9.2367830,17.7409439,-3.1579359,-18.3893127,-39.2442741,86.8396912,3.4380560,8.5616217,1.9847831,-1.4122137,9.9007635,26.4732819
3790,-8.1617918,17.0418396,-4.6016321,8.1145039,-25.8473282,103.8549652,3.3997490,8.2838955,1.8770446,-6.2824426,8.9007635,27.3511448
3800,-6.8210459,16.5246964,-5.6263452,24.5954189,-13.2824430,110.9847336,3.4189026,8.1043310,1.9847831,-10.8320608,6.2977099,27.6106873
3810,-6.2488346,15.5909615,-6.9263902,29.3664131,-10.0687027,116.2061081,3.7684543,8.0181408,2.0374553,-14.3816795,2.8778627,25.1984730
3820,-6.6965480,14.2980995,-7.8864598,23.7328243,-14.3664122,126.2061081,4.2065907,8.0732069,1.9536586,-16.5496178,0.0076336,20.4122143
3830,-7.7787213,13.2566271,-7.8864598,15.2213745,-25.9541988,147.3740387,4.5226240,8.2024927,1.8578910,-19.1145039,-1.3206106,13.8167934
3840,-8.7579451,11.8129311,-5.9256191,15.0839691,-45.9771004,180.0381622,4.6447277,8.3150196,1.6112895,-22.6106873,-1.1297710,7.0229006
3850,-8.6406298,10.9318695,-3.6918402,33.6870232,-72.7786255,214.3511505,4.3909435,8.2072811,1.5586174,-26.7709923,2.5877862,1.1221374
3860,-8.8225880,9.9263096,-2.0637913,67.6030502,-99.5496216,246.3129730,3.4380560,7.7715387,1.6328372,-30.8931293,6.1679387,-5.1755724
3870,-8.9901810,8.9327211,-2.4324965,104.0992355,-117.4274826,250.1297760,2.7676830,7.5153608,2.0230901,-33.5114517,8.1297712,-12.7022905
3880,-8.7794924,7.6350703,-3.6702924,130.8244324,-128.9236603,250.1297760,1.6184721,7.5416965,2.2768741,-35.8854980,10.9541988,-16.6946564
3890,-8.5352850,5.4084740,-6.5433197,140.1526642,-135.9084015,250.1297760,0.4860204,7.6422529,2.6551561,-37.8778610,9.4961834,-16.3435116
3900,-8.5113440,2.9496415,-10.0579901,121.1297684,-133.6641235,250.1297760,-0.2992737,7.8170285,2.9233053,-41.0687027,2.1984732,-11.3435116
3910,-6.5457139,0.3088504,-10.5895004,75.0381699,-98.7328262,250.1297760,-0.4501076,7.9151902,3.0358322,-45.6412201,-10.6564884,-4.0458016
3920,-0.8930327,-0.3734936,-7.8409705,31.9923668,-38.9083977,250.1297760,0.0670373,7.8984308,2.9424589,-51.5954208,-22.5496178,4.5114503
3930,5.9663200,1.7884595,-4.0246325,29.1526718,22.7328243,250.1297760,0.8236012,7.7212610,3.0238612,-58.4732819,-31.1984730,11.5343513
3940,9.9095497,3.1459649,-3.5769191,50.7022896,59.0839691,250.1297760,1.4532729,7.2639709,3.4236910,-62.8702278,-35.9771004,16.6259537
3950,10.7906122,2.9256995,-7.1227136,52.3969460,76.0000000,250.1297760,2.3271523,6.9072366,4.1275826,-61.1832047,-35.7938919,19.0610695
3960,11.3795824,0.7565638,-11.2072010,6.6030536,80.5038147,250.1297760,3.3710186,6.6917596,4.8913293,-53.1145020,-30.5038166,16.3587780
3970,11.8632088,-2.9424589,-11.2886028,-74.2290039,66.5190811,217.7480927,4.3526363,6.9814563,5.9232249,-38.5954208,-22.6106873,10.8625956
3980,12.5479469,-8.1881275,-6.6797886,-155.0000000,29.2137413,132.7404633,4.5106530,7.4794478,7.1083484,-17.6564884,-12.6259546,2.8778627
3990,12.3755655,-14.8391867,0.3208214,-200.9084015,-25.2061062,63.1984749,4.1443419,7.8481531,7.3022780,7.4809160,-3.4656489,-5.1145039
4000,14.0706511,-19.6131992,10.5799236,-190.9465637,-84.3358765,22.7022896,3.4093258,8.7603388,7.0413113,28.5648861,-3.8167939,-8.4885492
4010,19.6126022,-19.6131992,18.2556953,-116.9618301,-97.7709961,-2.8625953,2.7509236,10.3644457,5.6024032,40.6106873,-11.2061071,-6.1832061
4020,19.6126022,-19.6131992,17.2405586,-34.1374054,-47.4732819,-15.9007635,2.6623387,11.4681673,3.8546450,37.9236641,-19.5648861,0.3969466
4030,18.6267948,-19.6131992,9.5192976,-13.9465647,17.2748089,27.7557259,2.4971397,12.1529055,2.0063307,19.6641216,-28.4351139,5.4351144
4040,11.2886028,-5.5401545,4.9080882,-71.4274826,103.4961853,150.3511505,2.5138988,12.7299051,1.1228749,-8.5954199,-39.2595406,8.5343513
4050,18.0066986,5.2504573,10.8313131,-107.1374054,182.1679382,250.1297760,2.9400647,13.2231083,1.5969244,-38.9694672,-50.1221390,5.4961834
4060,19.6126022,11.2287483,19.6126022,-41.8091621,121.6183243,205.8778687,3.5122759,13.2757807,3.0334380,-61.9771004,-57.8244286,-1.4045801
4070,19.6126022,12.5551291,19.6126022,90.7709961,22.2748089,30.5877857,3.8474624,13.2853575,5.1882086,-70.6641235,-57.3893127,-12.8549614
4080,19.6126022,8.5999289,14.8942528,197.7404633,-73.2442780,-172.4656525,3.8139439,13.5367470,7.4986014,-62.8931313,-52.8091621,-25.4045811
4090,19.6126022,0.1795642,3.4548154,211.9694672,-103.5343475,-250.1374054,3.1435707,13.7258883,9.1577749,-42.0458031,-46.3282433,-34.5496178
4100,19.5533447,-7.6254935,-4.2161674,132.2900696,-72.3893127,-250.1374054,2.3127871,13.8623571,9.8520899,-15.4351149,-41.6488533,-37.4351158
4110,14.5183649,-11.8057480,-5.2408805,32.3435097,-19.9312973,-250.1374054,1.9943599,13.9868546,9.7443514,10.4961834,-40.8396950,-32.4274826
4120,12.5694942,-12.0858688,-0.4884146,-26.2748089,5.1450381,-250.1374054,2.4157372,13.9629126,9.0404596,31.7022896,-39.5954208,-25.9312973
4130,13.1656475,-10.1729107,3.5745249,-21.2213745,-0.6793893,-250.1374054,2.8634505,13.9389706,8.2264347,46.9236641,-36.3282433,-22.1984730
4140,12.6149845,-8.7148495,4.8913293,11.3740454,24.0687027,-250.1374054,2.9616125,13.7426472,7.7188668,57.2595406,-33.0534363,-18.3358784
4150,8.5664101,-6.2895355,0.7086801,37.4045792,33.0916023,-250.1374054,2.8730273,13.4433737,7.1801744,63.5267181,-33.9923668,-15.2213745
4160,6.0740585,-3.4979107,-2.1164634,41.3206100,42.2366409,-250.1374054,2.9256995,13.1273403,6.8425937,67.0000000,-37.1755714,-12.7022905
4170,3.3782012,-0.9888002,-4.2377152,29.9847336,50.5572510,-250.1374054,2.8658447,12.7227230,6.1650376,67.1984711,-41.3435097,-11.2977095
4180,1.4867916,1.7238164,-5.9016771,9.6641226,70.5725174,-250.1374054,2.7221935,12.3516235,5.5952206,63.4885483,-49.0381660,-11.2442751
4190,-0.7110743,5.1858144,-7.6135225,-11.9389315,85.8549652,-232.9007568,2.5091105,12.0427732,4.9344244,55.9771004,-60.4274826,-11.2213745
4200,-2.0135133,8.2862902,-8.7699156,-36.2671738,89.4732819,-185.2290039,2.2002602,11.6453371,4.5034704,46.3435097,-74.4961853,-12.0458012
4210,-1.7573351,11.1736822,-8.3461447,-59.8854980,88.3511429,-141.3664093,1.9919657,11.2502966,4.3167233,37.7404594,-87.7251892,-11.8091602
4220,0.0383070,13.5056229,-7.7547798,-77.9160309,85.4427490,-112.0000000,2.0757623,10.8265247,4.3310885,31.6412220,-99.0763321,-9.8549614
4230,1.4508789,14.2885227,-6.7923155,-83.1145020,86.7328262,-107.9007645,2.2050486,10.2854376,4.3143296,29.1297703,-105.5496216,-8.0381680
4240,-0.1651991,15.6532106,-6.0836353,-83.4045792,95.6335907,-100.1450348,2.5330524,9.4402885,4.2425036,30.5038166,-105.9618301,-5.5801525
4250,-0.1987177,16.6563759,-6.0620875,-78.7633591,103.1603088,-84.8320618,2.7006457,8.6334467,3.9432299,36.2213745,-99.9770966,-3.1374047
4260,-1.6926919,17.6499653,-6.6055689,-79.9389343,127.2442780,-68.4198456,2.8131726,7.9008250,3.5673423,44.4274826,-88.6412201,-1.7328244
4270,-4.1371593,17.9707851,-8.1402445,-91.2519073,162.4198456,-41.6259537,2.8778157,7.3477674,3.1028695,53.8167953,-71.9389343,0.1984733
4280,-5.3581958,17.0849361,-8.4131813,-106.8854980,175.4580078,0.1984733,2.8586621,6.7157016,2.6790979,62.8778610,-51.5190849,2.1908398
4290,-4.0868812,17.4919491,-7.0221577,-115.6030502,159.1374054,38.8167953,2.7868366,6.1458845,2.0733681,69.5114517,-30.0992374,3.5801528
4300,-0.7996593,18.5717278,-3.8905578,-113.9542007,134.3206177,65.1832047,2.4708035,5.6095858,1.8890154,73.5038147,-10.1984730,3.2671757
4310,3.8929520,19.6126022,-0.0766141,-84.5343475,105.9312973,66.0992355,1.7142396,5.2097564,1.8507085,75.6564865,5.8778625,3.4122138
4320,6.2344694,15.1624022,-0.5674229,110.2977066,-1.3816794,-89.6488571,-0.9050036,4.0054789,1.7286048,58.4351158,28.3740463,7.5343513
4330,4.9056940,13.3523941,-1.1180865,118.7862625,-7.9465647,-104.0152664,-1.3551112,3.7540891,1.6687500,45.6106873,22.4503822,7.5038166
4340,4.0749106,11.2431135,-1.3431402,124.9694672,-17.1374054,-115.9007645,-1.6639616,3.6631098,1.6855093,30.8244267,12.4122133,7.5877862
4350,2.4133430,9.0284882,-2.1787124,128.8396912,-19.6335869,-122.6946564,-1.8004304,3.7253587,1.8171898,15.0000000,-1.2595420,7.1832061
4360,0.5482694,7.6661944,-2.8514795,125.2748108,-21.4427490,-117.5801544,-1.6041069,3.7947903,1.8626794,0.2900763,-15.0381680,4.7099237
4370,-0.4357425,6.9718795,-3.3973548,115.8473282,-36.4961815,-105.5038147,-1.3048333,3.8522508,1.7740943,-13.7786255,-26.9770985,1.4351145
4380,-0.7278336,6.1841912,-2.1643472,106.8167953,-46.5572510,-96.7938919,-1.3479286,4.2353210,1.5562232,-26.7633591,-35.0458031,-4.6259542
4390,-0.6679789,5.4467812,-1.1372399,102.1603088,-52.0458031,-91.8091583,-1.3790531,4.4723458,1.5083394,-35.3740463,-38.1832047,-7.6946564
4400,-0.7637464,4.7548604,-0.8906385,100.7099228,-53.1603050,-88.7404556,-1.4556671,4.8578105,1.7956421,-41.0000000,-33.0076332,-7.6488547
4410,-0.7350162,4.1060348,-1.0630201,97.3816757,-53.6030540,-86.4045792,-1.4245427,5.5473371,1.7286048,-45.0381660,-23.2442741,-9.2366409
4420,-0.6536137,3.6846576,-1.2354017,88.3511429,-54.0076332,-82.0000000,-1.4628497,6.2727766,1.6280488,-49.3969460,-16.0076332,-8.2519083
4430,-0.5626345,3.1507533,-1.5394639,76.7022934,-52.3587799,-76.7633591,-1.4006008,6.7923155,1.5945302,-55.1450386,-10.5877867,-5.1374044
4440,-0.6488253,2.5282640,-2.0159075,61.7328262,-45.9694672,-67.8625946,-1.0773853,7.6566176,1.9943599,-57.5725174,-5.2290077,-3.1679389
4450,-0.8020535,2.1308286,-2.2409613,44.7557259,-37.6946564,-54.1526718,-0.8379663,8.3150196,2.1451938,-58.9541969,3.0992367,-3.5190840
4460,-0.4213773,2.1068866,-2.3678534,24.4503822,-25.3893127,-39.9236641,-0.5602403,9.3804340,2.3822186,-59.6717567,11.7099237,-4.4503818
4470,0.2059003,2.2074428,-1.7860653,5.4274807,-3.3358779,-31.1679382,-0.2992737,9.7587166,2.5091105,-59.9771004,17.1221371,-7.0687022
4480,0.5626345,2.4660151,-2.0206959,-9.8702288,15.4274807,-29.7099228,-0.2370248,10.4027529,2.6623387,-60.8396950,21.7404575,-6.6946564
4490,-0.1891410,2.6312141,-2.4971397,-21.8244267,24.3664131,-31.8778629,0.0574605,10.7163916,2.5569944,-62.7709923,25.4427490,-4.5648856
4500,-1.1970947,2.8969693,-3.2728570,-34.0992355,23.9389305,-31.0305347,0.8714849,11.2598734,2.4324965,-66.9770966,29.0992374,-2.9770992
4510,-2.2672975,3.0382264,-4.0940638,-50.8167953,24.1984730,-23.0152664,1.5921360,11.5519638,2.7628946,-71.0152664,33.8473282,-4.9770994
4520,-2.5354466,3.0765336,-4.8314743,-71.6106873,29.3435116,-9.4732828,1.7453641,11.8201132,3.5481887,-71.2442780,35.8167953,-8.1221371
4530,-2.2313845,3.5793133,-4.8027439,-90.8015289,41.5648842,8.0152674,1.8507085,11.9493999,4.2113791,-67.6870193,41.6870232,-10.2519083
4540,-1.7333932,5.0541339,-4.4148855,-104.3740463,57.9618340,25.3358784,2.0350611,12.1050215,4.5130472,-62.6870232,50.6106873,-8.9770994
4550,-1.6160779,7.4243813,-3.8809812,-112.6106873,70.8320618,40.8167953,2.1068866,12.2917690,4.9128766,-58.2748108,57.5343513,-5.0152674
4560,-1.4413021,9.7419567,-2.7437410,-113.3587799,67.9542007,51.9007645,2.0781565,12.1193867,5.2241216,-54.9847336,62.3511467,1.0076336
4570,-0.5746055,11.9063044,-1.2138541,-102.9312973,50.8091621,51.0152664,2.2936335,11.8584204,5.4276276,-52.6106873,63.8702278,9.5267172
4580,0.5219333,13.1225519,-0.0981618,-78.3129807,36.0152664,37.7633591,2.6383967,11.5687237,5.8968887,-48.5725174,61.9771004,17.3129768
4590,0.9504932,13.4577389,-0.1699875,-51.1526718,28.8244267,21.1755733,3.3925664,11.2095947,6.4331870,-40.9160309,58.3969460,21.6412220
4600,0.4046180,13.5750542,-1.4341195,-35.5725174,24.4580154,6.5267177,4.1491303,10.7786407,6.4403696,-30.0992374,54.9465637,21.1221371
4610,-0.9457048,13.1656475,-1.9368993,-27.2748089,21.3511448,8.8015270,4.6830344,10.3955708,6.1195483,-17.8778629,53.1221390,17.0687027
4620,-1.8602852,12.8974981,-2.6551561,-24.3587780,16.5114498,20.9618320,4.8099265,10.1920643,5.5593081,-7.6564884,50.8167953,14.6183205
4630,-1.5777708,12.4641504,-3.3949606,-26.8244267,10.5801525,31.3816795,4.9823084,10.0412302,4.9128766,0.3587786,47.5190849,11.3664122
4640,-3.2034254,10.1369982,-3.9647777,-26.3129768,20.4580154,57.8854980,4.5345950,9.7898407,3.0717452,10.1145039,37.0992355,2.6412213
4650,-7.4507174,9.1649570,-3.9815371,-34.7557259,37.5419846,158.3587799,3.7421181,9.7084379,2.6144550,-19.5343513,15.9541988,21.5954189
4660,-6.6965480,10.3285332,-3.8019729,-13.2595415,11.1755724,188.1679382,3.8594334,9.3804340,3.1986370,-25.0763359,14.9618320,24.4885502
4670,-4.9152708,11.7075863,-3.9815371,7.3129773,-16.3587780,211.6030579,3.7014170,9.0236998,3.7876077,-27.3435116,14.5648851,26.0610695
4680,-3.2752512,13.6133614,-4.1874375,28.5648861,-29.1450386,225.0610657,3.8809812,8.5304966,4.3286943,-26.1603050,15.0534353,27.2671757
4690,-1.8578910,14.7721491,-5.4372044,49.7251892,-29.7633591,226.0229034,4.0773048,8.0396881,4.5800843,-22.3282452,17.5343513,25.8091602
4700,-0.9600700,14.9588957,-8.1929159,58.0839691,-28.1450386,217.7480927,4.0773048,7.7140784,4.6327567,-17.4961834,21.3358784,21.1832066
4710,-1.4006008,14.4776640,-10.5679522,47.4656487,-34.9541969,212.4885559,3.9815371,7.5081782,4.6543045,-13.1297712,25.1221371,12.5954199
4720,-2.5498118,13.8982697,-11.3867655,26.6030540,-58.7633591,219.1603088,3.6080434,7.2567883,4.6495161,-9.0534353,26.8396950,1.4580153
4730,-2.9568241,13.1417055,-10.4626083,5.4045801,-91.0992355,235.4961853,3.0238612,7.1179252,4.7764082,-3.9847329,26.3282452,-9.1374044
4740,-1.5729824,11.6692791,-8.4730368,-6.2671757,-124.6335907,250.1297760,2.2433555,7.1705976,4.7381010,0.6641222,25.3282452,-19.6106873
4750,-0.1460456,9.9837704,-7.1825686,-8.1297712,-145.8320618,250.1297760,1.3263810,7.3118544,4.4627690,3.4351146,22.8473282,-27.3664131
4760,1.6112895,8.2982607,-6.4236102,-4.6717558,-152.3206177,250.1297760,0.3327923,7.3932571,4.3813667,4.4351144,16.5343513,-30.8320618
4770,3.5793133,6.0525107,-6.4020624,-0.0458015,-145.9923706,250.1297760,-0.3112446,7.4866304,4.2879934,4.3893127,8.7557249,-30.1526718
4780,5.4611464,3.3207407,-6.5481081,-1.5267175,-132.6717529,250.1297760,-0.6512195,7.6733770,3.8522508,3.0000000,-0.4122137,-26.6106873
4790,7.8984308,-0.1867468,-5.8011212,-10.4656487,-105.5877838,236.6030579,-0.3423691,7.9582858,3.3662305,-0.8091603,-7.6106873,-19.7099228
4800,11.1904411,-4.3286943,-4.3071470,-25.3053436,-65.3816757,203.4122162,0.3495516,8.1522150,2.7652888,-7.7022901,-12.7633591,-11.8091602
4810,15.2964764,-8.9207497,-1.9081690,-43.3358765,-33.3587799,158.8244324,1.1420283,8.1665802,2.5115047,-16.7022896,-15.7862597,-4.2671757
4820,19.6126022,-13.8791161,0.5099624,-65.5801544,-22.4503822,89.2977066,1.7597293,7.9702568,2.4995339,-25.4351139,-16.9465656,0.9847328
4830,19.6126022,-19.6131992,3.1651185,-92.0534363,-17.0992374,-8.0458012,2.6288199,8.2455883,2.7533178,-32.0228996,-15.4580154,3.6335878
4840,19.6126022,-19.6131992,4.5872669,-137.1297760,-17.4045811,-96.2748108,2.8395088,7.5512733,3.4212968,-38.7786255,-15.3664122,4.2900763
4850,19.6126022,-19.6131992,6.0788469,-209.7862549,-12.9770994,-108.6564865,3.7493007,7.5416965,4.4340386,-33.7328262,-12.3511448,6.0076337
4860,12.3396521,-15.1121235,9.5169029,-250.1374054,4.8702292,-9.2213745,4.7572546,8.0899658,4.3933377,-30.6870232,-7.2213740,-1.6030535
4870,3.6200144,-1.1899122,19.6126022,-250.1374054,40.3282433,153.3358765,4.6950054,8.0205345,4.6590929,-24.7557259,-5.4122138,-9.5572519
4880,9.3852224,9.7132263,19.6126022,-250.1374054,39.3587799,250.1297760,4.3334827,8.5233145,5.1714492,-18.5954189,-3.5648854,-14.8320608
4890,19.6126022,10.7523050,19.6126022,-134.5648804,43.5648842,250.1297760,4.2041965,8.9446917,5.4850879,-9.6183205,-2.6641221,-18.5648861
4900,19.6126022,10.8097658,19.6126022,55.4656487,66.5343475,123.4961853,4.4172797,9.4019823,4.9775200,-3.4885497,-1.8778626,-20.5038166
4910,19.6126022,7.1993275,19.6126022,212.2366486,112.0763321,-72.3206100,4.5633249,9.9550400,4.4891052,-3.0610688,-2.7633588,-22.2595425
4920,19.6126022,0.2274480,8.1426382,250.1297760,106.1984711,-250.1374054,4.6638808,10.6445665,3.9743545,-8.9389315,-5.7251906,-24.5801525
4930,19.6126022,-5.9471664,-1.2593436,250.1297760,79.9465637,-250.1374054,4.4747400,11.0252428,3.9264708,-19.8091602,-9.8854961,-27.1526718
4940,19.6126022,-10.5272512,-6.1578555,186.4580078,44.3969460,-250.1374054,4.2137733,11.1593170,4.5393834,-32.0916023,-14.2137403,-29.0381680
4950,16.9341011,-12.6963863,-7.1227136,73.1450348,55.1068687,-250.1374054,3.9288650,11.3700056,5.9950504,-40.1297722,-19.1221371,-31.3587780
4960,14.5686426,-11.8392668,-2.7317703,-12.8167934,84.2977066,-250.1374054,3.7900019,11.3460636,7.5177550,-40.1297722,-22.5343513,-32.9389305
4970,14.0538921,-10.2614956,2.7844424,-44.7480927,98.8091583,-250.1374054,3.7181761,11.4131012,9.3205795,-31.6412220,-25.6259537,-36.1984749
4980,12.8807392,-8.5783806,5.6933827,-26.9465656,124.9312973,-250.1374054,3.7923961,11.8991213,10.3788109,-16.5496178,-29.9770985,-40.1832047
4990,10.2231894,-6.2392578,3.3710186,6.4961834,197.0458069,-250.1374054,3.5529771,12.2462788,10.7690639,0.6488550,-34.5114517,-44.0839691
5000,5.5090299,-2.6958573,-0.6057299,22.1526718,243.2290039,-250.1374054,3.2393384,12.6413202,10.7594872,16.1374054,-42.4961815,-47.5190849
5010,0.4860204,1.7094513,-5.2887645,12.1526718,250.1297760,-250.1374054,2.8347204,12.9358053,10.6254129,29.5038166,-49.8625946,-49.5801544
5020,-6.1722202,6.1123657,-9.1266499,-13.1374044,250.1297760,-250.1374054,2.1308286,13.2566271,10.2112179,39.9847336,-57.4045792,-48.6946564
5030,-11.2646618,10.0555954,-8.2072811,-33.4198456,186.9923706,-190.7633514,1.1109039,13.3164816,9.6892843,48.8015251,-64.1755753,-46.4274826
5040,-12.1002331,14.5231533,-4.2065907,-22.0381680,95.3816757,-106.4427490,0.1675933,13.3428183,8.3700867,56.7709923,-67.7022934,-45.8396950
5050,-8.2264347,17.5302544,-1.6974803,17.9694653,37.6488533,-45.6488533,-1.4772149,13.5798426,7.1993275,61.0839691,-71.4045792,-41.9923668
5060,-4.0533628,19.5485573,-2.3989778,58.2061081,35.5038185,-20.8091602,-3.0238612,13.5247765,5.1475072,59.8625946,-65.2519073,-32.3282433
5070,-2.0661855,19.6126022,-4.9583664,77.1374054,57.3053436,-18.4045811,-4.0701222,13.5151997,3.1746953,48.8244286,-60.0610695,-16.4122143
5080,-1.4293311,19.6126022,-8.0205345,69.8549652,73.5801544,-28.3893127,-4.2760224,13.3715477,2.3463056,28.9312973,-60.5801544,4.1221375
5090,-1.2425843,19.6126022,-9.4833841,52.1374054,66.8778610,-44.1450386,-3.7995787,12.4186611,2.6934631,9.1374044,-61.5572510,25.3129768
5100,-0.7565638,2.5665710,-1.3838415,73.0381699,23.9694653,-32.7709923,3.6870518,4.4675574,2.1092808,43.8702278,-12.6564884,-16.4427490
5110,-1.2904681,2.0685797,-1.2521610,67.6259537,29.6030540,-27.3358784,3.0932927,4.4436154,2.2768741,35.0458031,-17.6030540,-25.6793900
5120,-1.3934183,1.3239868,-1.4628497,63.8320618,28.4580154,-20.9160309,2.0781565,4.5226240,2.5785420,27.5038166,-21.7404575,-32.0687027
5130,-1.2354017,0.8547257,-1.9225341,58.1984749,28.5496178,-12.4580154,0.7493813,4.7261300,2.8371146,22.1450386,-25.6717548,-34.5954208
5140,-0.9385223,0.6320660,-2.2409613,48.9083977,29.3893127,-3.0000000,-0.2442073,5.1235652,2.8012016,17.8549614,-30.1297703,-31.4122143
5150,-0.6631905,0.7565638,-2.6192431,37.7328262,28.6259537,4.0534353,-0.6679789,5.0230093,2.6886747,13.9465647,-34.1755714,-24.4885502
5160,-0.4788379,0.9576758,-2.9544299,25.1221371,27.7480907,6.5877862,-0.7014975,5.2959471,2.8179610,12.3893127,-36.0076332,-16.9007626
5170,-0.0023942,1.1372399,-3.1794837,10.6564884,26.5419846,5.9236641,-0.4022238,5.5880380,2.4253139,7.8549619,-35.8396950,-15.6488552
5180,0.9121862,1.8507085,-3.1507533,-6.1679387,24.5572510,2.5954199,-0.7972651,5.9830794,2.1404054,1.3587786,-38.7786255,-15.5419846
5190,2.0374553,2.8395088,-2.9137285,-19.9618320,24.1603050,-4.0992365,-1.3455344,6.1746144,1.9704180,-7.1297708,-43.3893127,-13.1374044
5200,2.7964132,3.8570392,-3.0885043,-28.1832066,27.0610695,-15.5648851,-1.6974803,6.3302369,2.1858950,-15.1450386,-46.8320618,-6.4656487
5210,2.4755919,4.8649931,-3.7852135,-35.1679382,30.4732819,-29.0534344,-1.3886299,7.2065101,2.0685797,-27.3664131,-45.4656487,-0.9312977
5220,1.3287752,5.8729467,-4.3526363,-46.3282433,30.3053436,-36.2671738,-1.3191984,7.3549500,2.4229198,-39.9771004,-42.1908379,0.8320611
5230,-0.9313397,7.8409705,-4.6447277,-61.3664131,26.5419846,-34.3587799,-1.2018831,7.4842362,3.2369442,-50.4122124,-33.3282433,0.0839695
5240,-2.9304879,9.2367830,-4.3143296,-72.5877838,19.6412220,-18.1374054,-0.9840119,7.8050575,4.3741841,-54.4732819,-21.4274807,-2.7251909
5250,-3.7947903,10.3596573,-3.8546450,-76.2977066,9.6564884,0.9770992,-0.9816177,8.2168579,5.5305777,-50.7175560,-8.8473282,-7.1450381
5260,-3.9504125,11.2933912,-3.4667864,-73.1603088,-0.7328244,16.8167934,-0.6847382,8.4969788,6.0812411,-40.4045792,0.6488550,-9.4580154
5270,-3.9552009,12.0212250,-2.8754215,-65.3206100,-10.9847326,29.8931293,-0.1364688,9.1003141,6.1075773,-26.9160309,4.0992365,-10.9389315
5280,-3.4548154,12.3061342,-2.6790979,-54.6793900,-21.0076332,42.4961815,1.1587877,9.4115591,5.2600341,-14.9083967,6.3053436,-12.2366409
5290,-2.4851687,12.3851423,-1.8554969,-41.1145020,-26.9541988,52.6412201,2.4995339,9.6414013,4.0198441,-8.2519083,9.3053436,-15.2137403
5300,-1.1875180,12.4569674,-1.3862357,-23.8320618,-29.0152664,56.4580154,3.6367738,9.9454632,3.0094962,-9.3664122,15.5190840,-19.7862587
5310,-0.3591284,12.1744537,-1.7477583,-7.2824426,-30.3053436,53.0152664,4.3670015,10.4769726,2.1715298,-16.6870232,23.5496178,-28.7633591
5320,-0.1556223,11.8656025,-2.4324965,1.8167939,-32.7557259,46.5648842,4.3286943,10.8361015,2.0350611,-26.7557259,31.3129768,-34.6870232
5330,-0.0287303,11.3532467,-2.8203552,2.6717558,-34.7404594,41.2366409,3.8187323,11.0731258,2.4612267,-35.5267181,37.3129768,-37.5877876
5340,-0.0239419,10.9582052,-2.6910689,-0.6488550,-28.7251911,37.7557259,3.2034254,11.2048063,3.2465210,-40.2442741,38.3511467,-37.1984749
5350,-0.4644727,10.3979645,-2.6743097,-3.9007633,-16.0992374,36.6946564,2.8490853,11.3819771,3.9097114,-39.7633591,32.0687027,-36.2137413
5360,-0.3734936,10.0316534,-2.5761478,-8.0916033,-2.2977099,37.2442741,2.7700772,11.6261835,4.3789725,-34.2977104,22.2595425,-37.4580154
5370,0.0478838,10.0077124,-2.2122312,-14.3587790,11.0610685,36.3511467,2.7006457,11.7147694,4.5010762,-25.5419846,14.6183205,-37.3358765
5380,0.8499373,9.9215212,-2.0470319,-19.9236641,25.8473282,31.6946564,2.6431851,11.6716738,4.0102673,-17.1374054,9.2290077,-36.3511467
5390,1.2761030,9.9622221,-2.2864509,-22.6335869,36.2290077,24.6412220,2.5210814,11.6309719,3.3973548,-10.8091602,7.5801525,-33.4809151
5400,1.1396341,9.7802639,-2.4061604,-24.8091602,35.9083977,19.0152664,2.4875629,11.4585905,2.8969693,-7.3206105,11.3816795,-28.9694653
5410,0.7398046,9.7730818,-2.2553265,-27.5954189,29.5954189,16.9541988,2.1619530,11.1736822,2.4420733,-5.3358779,18.5114498,-23.3969460
5420,0.3782819,9.5264797,-1.9464760,-25.7175579,18.7862587,18.0992374,1.9967541,11.1018562,2.4731977,-4.9083967,27.2366409,-16.0458012
5430,0.1197095,9.4019823,-1.7597293,-19.7251911,10.4732828,21.0381680,1.8387375,10.9486284,2.5162930,-4.6870227,33.8320618,-10.7022905
5440,-0.3327923,9.4809904,-1.7717001,-13.3893127,7.9770994,24.5648861,1.5705882,10.8480721,2.7868366,-4.8091602,37.7709923,-7.5648856
5450,-0.8116302,9.7778702,-2.0206959,-5.6259542,9.3435116,30.5038166,1.2689204,10.7211800,3.0741394,-6.2900763,37.0763359,-4.1755724
5460,-0.9864060,10.0005293,-2.8347204,-1.2442749,13.9541988,36.5954208,1.0199248,10.6182299,3.2345500,-8.7404585,33.5572510,1.6106870
5470,-1.0151364,10.2064295,-4.1012464,-2.6183207,21.2519093,42.3664131,1.0797794,10.5248566,3.3231349,-12.3129768,29.9618320,8.2595415
5480,-1.6184721,10.7379398,-5.3342543,-9.8396950,29.5496178,48.6946564,1.1300575,10.1226330,3.6032550,-16.3206100,25.8091602,13.8320608
5490,-2.2242019,11.2095947,-5.8394279,-19.3053436,34.6488533,55.0458031,1.4077834,9.7275915,3.7277529,-20.1450386,22.2137413,17.8244267
5500,-2.9951310,11.4945040,-5.8561873,-24.2290077,37.0228996,63.6717567,1.8890154,9.4211359,3.8690102,-22.1984730,15.6259546,19.1908398
5510,-3.5481887,11.9254580,-5.9591374,-23.1221371,31.7251911,75.2290039,2.5929072,9.1841106,3.9073172,-22.2366409,8.6183205,18.3587780
5520,-3.4524212,11.9110928,-6.4283986,-18.7557259,15.9541988,87.7557220,3.3039815,9.0380650,3.8402798,-20.6106873,2.3129771,15.7862597
5530,-2.6264257,11.7602587,-6.7851329,-15.4885492,-7.6259542,101.4198456,3.9528067,8.8585014,3.7062054,-17.0839691,-2.3816793,9.8396950
5540,-0.8738791,12.1241751,-7.0341287,-15.1145039,-26.3893127,115.4122162,4.1060348,8.8896255,3.3135581,-13.9160309,-4.5572519,3.6183207
5550,1.0079538,12.6389265,-7.4052281,-21.7709923,-28.3282452,124.2137375,4.0844874,8.9806042,3.0023136,-12.9236641,-5.0610685,-1.5038168
5560,1.2018831,12.9836893,-7.1107426,-38.4122124,-19.4503822,129.7938995,3.7181761,8.9063845,2.7126167,-14.8091602,-5.4961834,-4.8244276
5570,0.4740495,13.7043400,-6.8976598,-61.6335869,-13.1526718,136.9694672,3.1196289,8.9686337,2.6719155,-18.6641216,-5.6259542,-5.8473282
5580,-0.4836263,13.4194317,-5.2648225,-79.4809189,-18.1450386,147.9160309,2.5593886,8.6861191,2.7245877,-21.4427490,-5.1984735,-4.4732823
5590,-1.0965388,12.8831339,-3.3518653,-81.4580154,-28.1679382,163.3129730,2.5162930,8.5424681,2.9209111,-21.8015270,-3.9389312,-3.7862597
5600,-1.1492109,12.0308018,-1.8626794,-64.6335907,-39.5419846,178.7099304,2.6599445,8.3772688,3.1172347,-20.2595425,-1.2824427,-5.7862597
5610,-0.8954269,10.8073711,-2.3343346,-42.0610695,-47.5419846,192.2900696,2.5067163,8.3126259,3.2920105,-17.6335869,0.9770992,-11.1832066
5620,-0.6224893,9.0739784,-3.9456241,-26.2442741,-51.3129768,207.2442780,2.0733681,8.4251528,3.4524212,-13.5801525,0.9236641,-17.5954189
5630,0.1244979,8.3317795,-5.2696109,-19.6870232,-49.3129768,224.1526642,1.4652439,8.6597834,3.6439564,-9.1908398,0.6717557,-22.8854961
5640,1.3024391,8.7507620,-6.1195483,-18.7557259,-45.9007645,236.6259613,0.7182568,9.0883436,3.5146701,-5.8625956,-0.3893130,-25.7786255
5650,2.3439114,8.0803890,-6.8737178,-23.0916023,-48.8549614,237.0229034,-0.1651991,9.4474716,3.4404502,-5.2290077,-2.8320611,-23.6870232
5660,3.0645626,6.9527264,-7.8984308,-34.4122124,-55.6946564,225.9236603,-0.7421987,9.8640604,3.0501974,-8.9312973,-7.8091602,-15.8396950
5670,3.7469065,5.1858144,-8.7411861,-56.1297722,-61.9389305,210.1145020,-0.6871324,9.9717989,2.7341642,-17.7557259,-17.5801525,-6.1221375
5680,4.3358769,3.2249732,-8.3748751,-83.7404556,-65.9618301,193.5267181,-0.2106887,9.4977493,2.8706331,-29.3587780,-32.5954208,-1.5496184
5690,5.9423780,0.5578461,-7.0772243,-111.0152664,-83.7557220,172.7022858,0.7158626,8.7196379,3.2967989,-43.0076332,-62.9771004,-8.3358774
5700,9.5863342,-3.2489152,-5.2504573,-133.8778687,-110.4656525,143.5954132,2.5474176,7.6949248,4.3622131,-55.0687027,-99.6793900,-29.1832066
5710,13.7043400,-6.6654234,-3.1148405,-152.8320618,-125.7404556,101.3816757,5.7699966,7.7906923,5.3534074,-63.8778610,-139.1679382,-58.5419846
5720,18.3849812,-10.4458485,0.2489957,-169.6564941,-122.7557220,45.8854980,4.7572546,8.1713686,6.6151457,-62.2137413,-164.5267181,-77.9847336
5730,19.6126022,-13.8360205,4.0366035,-183.8396912,-103.0610657,-12.9770994,4.8602047,8.8968077,6.1817970,-52.2977104,-174.9847260,-85.8396912
5740,19.6126022,-16.0147324,6.4379754,-201.3740387,-44.9771004,-53.5648842,4.6112089,9.9430685,5.8346395,-40.9847336,-132.1374054,-89.6259537
5750,19.6126022,-15.2342272,11.4154949,-197.9923706,38.9389305,-65.0839691,3.3111639,8.5496502,5.9806852,-24.9389305,-98.8320618,-94.9083939
5760,14.8224268,-5.5976148,17.0753593,-182.4045868,14.6183205,-6.5572519,2.8395088,8.8201942,5.4802995,-7.5877862,-60.1526718,-96.9007645
5770,5.1235652,7.9654684,19.6126022,-135.1908417,-35.1374054,131.9770966,2.0757623,9.1841106,5.2336984,7.6412215,-17.4274807,-98.4045792
5780,12.6030130,8.6023226,19.6126022,-55.3206100,-81.9083939,236.4274750,1.1228749,9.3852224,4.8195033,16.4122143,10.3587790,-96.3053436
5790,19.6126022,6.4260044,19.6126022,32.8091621,-61.9541969,203.5572510,0.4141948,10.0867205,4.2281384,18.5648861,26.3129768,-90.3206100
5800,19.6126022,5.1139889,18.2341461,119.0763321,24.4045811,73.2748108,-0.4620786,10.9893293,3.7612717,14.7175570,34.2442741,-80.0152664
5810,19.6126022,2.0015423,10.8648319,187.4045868,96.8167953,-78.7251892,-1.0678085,11.6836443,2.7557120,3.1526718,34.7786255,-65.4122162
5820,19.6126022,-0.9002152,4.2975702,205.2671814,104.6412201,-190.4885559,-1.0845678,11.9302464,2.9256995,-13.1832066,31.5648861,-47.9083977
5830,14.3076763,-2.5833304,-0.3351865,173.4656525,80.0076370,-237.2748108,-0.5626345,11.9254580,4.2879934,-25.5801525,25.4580154,-33.1374054
5840,12.4282379,-4.5944495,-1.0247130,136.0992432,69.8167953,-249.8778687,-0.7781116,11.4538021,4.9727316,-29.9923668,25.0076332,-19.3053436
5850,11.4394369,-4.9799142,0.0694315,103.9312973,46.1679382,-249.0152740,-0.7158626,10.8097658,5.8777351,-28.3587780,27.6717548,-5.2519083
5860,10.6972389,-4.6997938,1.4796091,84.5496216,43.8015251,-248.9007568,-0.4860204,10.5344334,6.1865854,-23.9465656,28.6946564,4.0916033
5870,9.4091644,-4.1706781,1.7860653,73.5343475,50.1374054,-246.4656525,-0.1053443,10.3189564,6.7204900,-17.8702297,35.3893127,9.8625956
5880,8.2671366,-3.3470769,1.4628497,67.0534363,60.8931313,-242.8473358,0.0502780,10.1753054,7.2519999,-8.5572519,42.7786255,12.9389315
5890,7.4459291,-2.0542145,0.9361281,63.4809151,68.6870193,-239.3129730,0.3136388,10.1058741,7.6925306,3.6106870,46.6030540,13.0763359
5900,6.1099715,-0.3136388,0.0526722,60.9160309,81.6870193,-233.4274750,0.4453192,10.4027529,7.8266053,17.7022896,49.1450386,11.2061071
5910,4.6782460,1.1516051,-1.0438666,54.0763359,99.7175598,-224.0610657,0.4716553,10.7116032,7.4555058,30.1603050,53.1068687,6.7251906
5920,3.1483591,2.9640064,-2.2720859,41.2595406,126.9160309,-209.5572510,0.5578461,11.0348196,7.3214312,40.1221390,57.9541969,1.3129771
5930,1.3263810,4.7548604,-3.3111639,23.1832066,148.6106873,-188.4961853,0.1077385,11.5232334,7.1131368,48.1297722,61.9694672,-1.3511450
5940,0.5865764,6.4762826,-3.9743545,-0.6335878,150.3816833,-162.1984711,-0.5889706,11.9206696,7.1490498,53.8931313,65.8320618,-2.3358779
5950,-0.4979914,10.8672256,-2.4253139,-34.2595406,89.0763321,-120.2442780,-2.0997043,11.7530756,6.6175399,71.1374054,50.1145020,27.0076332
5960,-2.0230901,11.7650471,-2.3582766,-27.2290077,70.4580154,-111.6183243,-1.7812769,11.4011297,6.1051831,72.3893127,41.2061081,31.8396950
5970,-2.9520357,12.8496151,-2.1451938,-19.9083977,50.4885483,-99.3053436,-1.6567791,11.1784706,5.8897061,73.4045792,31.6335869,36.7328262
5980,-2.9927368,13.7977142,-2.0135133,-13.2137403,34.2061081,-89.4274826,-1.3862357,11.0108776,5.7412663,74.7251892,24.4656487,40.9618340
5990,-2.8802099,14.9014349,-2.0206959,-6.7786260,32.2748108,-82.0992355,-1.1324517,10.8528605,5.9758968,77.8549652,19.0687027,46.7938919
6000,-2.8730273,16.0769825,-2.6072724,-1.7557251,41.9083977,-75.1297684,-1.2425843,10.4865494,6.4834652,84.3282471,9.4274807,53.0763359
6010,-3.5697365,17.4751892,-3.2991931,-2.5190840,54.3053436,-64.6183243,-1.2066715,10.1753054,6.7923155,92.4274826,-3.0076337,60.8244286
6020,-3.7301471,18.8255119,-3.4931223,-7.9007635,64.8015289,-50.2748108,-0.9959828,9.2487535,6.7659793,106.3435135,-13.7328243,69.8931274
6030,-2.9496415,19.0792961,-3.4667864,-8.3435116,66.4809189,-43.1832047,0.1795642,7.9702568,5.6407104,121.5572510,-20.0687027,73.5419846
6040,-2.2074428,18.8326950,-3.0597742,-2.1145039,55.6717567,-43.0305328,1.6735384,7.0077925,3.7038112,130.6717529,-23.2366409,64.0763321
6050,-1.9273225,18.2604828,-2.2313845,12.0152674,34.2900772,-41.8702278,2.4229198,7.0006099,1.8459201,124.5114517,-26.6412220,43.5801544
6060,-1.4891858,17.4177284,-1.6543850,31.7633591,11.3816795,-35.5496178,1.7381816,7.0293403,0.6153067,109.4656525,-39.7786255,23.8778629
6070,-0.6679789,16.3882275,-0.9864060,55.1297722,-11.4427481,-26.7404575,0.8427547,7.0053983,0.3782819,82.7633591,-42.2442741,10.8167934
6080,0.0718257,15.7346134,-0.6272776,78.0000000,-29.0076332,-16.9618320,-0.1149211,6.6127515,1.0845678,61.4122124,-37.9618340,9.8473282
6090,1.2258250,14.8343983,-0.5506636,98.3587799,-42.7938919,-11.0305347,-0.6895266,6.3972740,2.2218077,53.7251892,-24.0000000,16.1603050
6100,2.2194135,13.6468801,-0.6177009,114.4580154,-51.0458031,-13.0534353,-0.9792235,6.4906478,2.8203552,53.1526718,-11.9618320,23.0076332
6110,2.8323262,12.4138727,-1.3886299,124.4809189,-51.3358765,-21.6564884,-1.1707586,6.0070214,2.9951310,56.1679382,-5.8167939,29.7862587
6120,2.8155668,11.2143831,-2.0949159,125.0076370,-47.3969460,-34.6641235,-0.8475431,5.5688848,2.5881188,58.5190849,-4.6870227,35.2900772
6130,2.2936335,9.8496952,-2.8371146,115.8244247,-42.0534363,-48.8778610,0.0335187,5.3031297,1.8219782,58.0228996,-5.2442746,35.7328262
6140,1.3407460,8.5735922,-3.1004753,100.0534363,-38.0534363,-59.7404594,1.0055596,5.3677726,0.6775556,54.2366409,-4.1068702,30.9618320
6150,0.4644727,7.5440907,-3.2752512,78.7022934,-32.1297722,-65.1755753,1.3048333,5.4970589,-0.3543400,45.4427490,-2.2671757,22.8167934
6160,-0.1915352,6.3565731,-2.7605004,57.9160309,-19.9847336,-65.7251892,1.5825592,5.7436604,-0.9504932,33.5496178,-1.6641221,13.9923668
6170,-0.9552816,5.3294659,-1.8746504,41.8702278,-10.1374044,-62.6259537,1.4748207,6.1530671,-1.1803354,18.7175579,-4.5572519,6.7786260
6180,-1.6543850,4.7692256,-0.6919208,34.0305328,-5.3358779,-55.0534363,1.4484847,6.7420373,-1.3407460,3.2671757,-7.8320613,1.8167939
6190,-2.1092808,4.0629396,0.3256098,34.7328262,-3.0152671,-44.8854980,1.2377959,7.0868006,-1.3551112,-12.4198475,-11.3358774,0.1145038
6200,-2.0613971,3.3901722,0.4309541,38.0916023,-0.9236641,-32.6030540,1.3910241,7.4794478,-1.1180865,-27.4656487,-17.2061062,-1.2595420
6210,-1.9728121,2.8131726,0.2418131,40.3053436,2.0687022,-19.4427490,1.7573351,8.0325060,-0.8236012,-39.7328262,-22.9083977,-2.4122138
6220,-1.3814473,2.0877333,0.0957676,40.8015251,0.5877863,-8.8702288,1.8698620,8.4419117,0.0622489,-46.9771004,-25.2213745,-4.3511453
6230,-0.6512195,1.4748207,-0.6033357,36.3053436,-6.4427481,-4.3282442,2.1284344,9.0859489,0.9169745,-47.6488533,-25.4351139,-5.9694657
6240,-0.4788379,1.0869620,-1.6448082,25.5954189,-9.9312973,-1.9312977,1.8626794,9.2535419,1.3551112,-44.6717567,-26.4656487,-9.0839691
6250,-0.9480990,0.9840119,-1.8938038,8.3664122,-20.1221371,5.2213740,1.8914096,9.4139528,1.6687500,-36.5954208,-27.0229015,-8.5725193
6260,-1.0031654,1.5490406,-1.3982066,-7.2137403,-37.7938919,18.9465656,2.3822186,10.0364418,1.7214222,-31.3893127,-26.8931293,-16.0534344
6270,-0.6655847,2.0518203,-0.4237715,-13.7404585,-56.3511467,33.1526718,2.0949159,10.2495251,1.5155219,-27.1450386,-24.6870232,-20.8167934
6280,-0.2154770,2.2050486,-0.3160330,-11.4809160,-68.0076370,45.8854980,1.7693061,10.6182299,1.3575054,-24.8091602,-16.8091602,-22.4961834
6290,-0.0430954,2.9089401,-0.9888002,-7.5801525,-69.4351120,59.3129768,1.4939742,11.0563669,1.4197544,-22.6488552,-5.4122138,-20.5648861
6300,-0.5219333,5.1451130,-1.1228749,-2.8702290,-65.9236679,73.1984711,1.0510491,11.2119894,1.8147956,-20.8931293,4.8320613,-18.4732819
6310,-0.2657550,7.6925306,-1.4891858,2.6564887,-54.8931313,82.2061081,0.2513899,10.7546988,2.5306582,-20.1068707,1.6259542,-19.0687027
6320,0.1316804,9.3397331,-2.4971397,8.2519083,-33.8702278,81.7557220,-0.2920911,11.3173332,2.6240315,-19.9312973,-0.6412213,-19.7862587
6330,-0.1101327,11.2479019,-3.9480183,8.5190840,-12.2595415,73.1450348,-0.7421987,11.7913828,2.5067163,-19.0534344,4.1908398,-16.7251911
6340,-1.3551112,13.1129761,-4.8937230,4.5267177,-2.7251909,63.1145020,-1.1492109,11.4968977,2.2864509,-19.7404575,11.5954199,-8.5877867
6350,-2.6647329,14.5016060,-5.3845320,-2.4885497,-8.0152674,57.5343513,-1.5418580,11.4202833,1.6998745,-25.7175579,16.5038166,1.0305344
6360,-3.2201848,14.5159702,-5.8442163,-9.1145039,-24.4732819,56.2671738,-2.0326669,10.4362717,2.0135133,-37.3129768,2.1755726,4.5496182
6370,-3.2010312,14.1999378,-5.6766233,-14.6641226,-40.7480927,59.5343513,-1.9536586,10.2878323,2.9185169,-48.3435097,-17.0534344,4.0229006
6380,-3.0765336,13.6612453,-4.3382711,-11.1832066,-49.6335869,68.2900772,-1.1516051,10.1274214,3.7588775,-49.9160309,-24.1068707,4.0610685
6390,-1.8483143,13.1991663,-3.1483591,1.7175573,-50.0534363,77.5877838,-0.5674229,10.1513634,4.2113791,-42.3740463,-14.7022905,8.1374044
6400,-0.6919208,12.8496151,-2.4061604,20.1908398,-47.0305328,86.6564865,-0.2489957,10.1585455,4.7165532,-29.1603050,4.4351144,16.1984730
6410,0.2801202,12.6844158,-2.3271523,41.3664131,-43.6183205,91.2061081,0.6607963,9.5360565,4.9942794,-14.2366409,21.0381680,24.2290077
6420,0.7876883,12.6125898,-2.7245877,59.4198456,-38.1679382,91.0229034,1.9297167,9.2032642,4.9056940,-1.3664122,28.2137413,24.4427490
6430,0.9864060,12.6580801,-3.3159523,70.8473282,-33.5954208,85.2137375,3.2153964,9.2224178,4.6112089,7.7862597,28.8931293,16.8473282
6440,0.9050036,12.2175484,-4.0198441,73.4198456,-27.9770985,76.7938919,3.9049230,9.2703018,4.0701222,12.7557249,28.3053436,5.0763359
6450,0.0646431,11.5830889,-4.8721757,67.5038147,-19.6946564,72.0076370,4.0366035,9.4522600,3.8019729,16.3587780,28.3129768,-8.8015270
6460,-0.5362985,10.9821472,-5.0852585,53.9312973,-9.4656487,70.8625946,3.2489152,9.7802639,3.6415622,20.8702297,27.3206100,-19.0763359
6470,-1.2401901,10.1346035,-5.0517397,39.3511467,0.0534351,72.1679382,2.3319404,10.1058741,3.2513094,26.3587780,25.0687027,-23.2442741
6480,-2.1332228,9.7275915,-4.4196739,29.8854961,8.8702288,76.8625946,1.7381816,10.3261395,2.5091105,29.8167934,21.2595425,-20.7175579
6490,-3.2704628,9.3014259,-3.5026991,30.0687027,13.3816795,83.8854980,1.5035510,10.6158361,1.6208663,27.8167934,16.2595425,-16.0839691
6500,-3.4069316,9.2631187,-3.1172347,38.7862587,16.0229015,93.9542007,1.2593436,10.4266949,0.8451489,21.6564884,10.0992365,-10.5190840
6510,-3.0406206,9.4235296,-3.2944047,52.0076332,19.5267181,101.6946564,1.1755470,10.3740225,0.2657550,12.4656487,11.6870232,-4.4961834
6520,-2.4348907,9.8257532,-4.1682839,63.5725174,27.8778629,107.0610657,1.4891858,10.1178446,0.6272776,1.9083970,10.3587790,2.2824428
6530,-2.3558824,10.2255831,-5.4084740,69.8167953,40.1068687,111.0381699,1.7477583,9.9861641,1.5538290,-6.8854961,2.0000000,7.3664122
6540,-2.4827745,10.7116032,-6.5217719,71.1068726,52.2824440,116.8931274,2.3391230,9.7754755,1.8435259,-11.9847326,-4.7938933,8.7480917
6550,-2.6360025,11.0922794,-7.5033898,65.1603088,60.3740463,126.6793900,2.4779861,9.3971939,2.0542145,-13.5496187,-9.7175570,7.7709923
6560,-2.7772598,11.2287483,-7.8840661,54.5038185,63.7175560,140.7175598,2.5138988,9.1912937,2.2672975,-14.1984730,-13.2824430,7.9160304
6570,-2.8945751,11.2909975,-7.6135225,46.1755714,60.7938919,159.8320618,2.6288199,9.0667953,2.3032103,-14.6488552,-16.8167934,6.7938933
6580,-3.0094962,11.3724003,-7.2974896,45.9847336,54.8854980,184.5190887,2.6958573,8.9183559,2.0637913,-15.7251911,-18.8778629,6.5343513
6590,-2.2385671,11.4657736,-7.4411407,54.0916023,43.6870232,211.4885559,2.6647329,8.7100611,1.7549409,-17.7022896,-14.3587790,6.0076337
6600,-1.0462608,10.5176744,-7.9894104,66.8702316,23.0458012,230.2519073,2.4923513,8.5999289,1.6352314,-20.8091602,-6.1068702,6.0305343
6610,1.1372399,7.6039457,-9.1697454,86.5114517,-28.7022896,243.7480927,1.5131277,8.0995426,2.2672975,-22.8778629,6.8167939,3.4885497
6620,1.8435259,5.8753409,-9.6773138,84.2671738,-40.6488533,245.2366486,1.2258250,8.0396881,2.3008161,-21.1908398,14.1679392,0.6564885
6630,2.5402350,3.9240766,-9.9406748,71.4427490,-50.9771004,245.5496216,0.8140244,7.8529415,2.5282640,-18.7099228,20.9694653,-3.7633588
6640,3.2153964,2.0039365,-9.6437950,51.2442741,-63.7022896,241.9084015,0.0311245,7.6063399,2.6958573,-15.0381680,27.0076332,-8.5114508
6650,4.2353210,-0.1699875,-8.4969788,30.4198475,-84.0534363,231.2748108,-0.7805058,7.5728211,2.7772598,-10.4656487,31.5954189,-12.0534353
6660,5.4635406,-3.3111639,-6.7492199,12.4351149,-113.9007645,216.0534363,-1.6160779,7.6757712,2.6431851,-6.1984735,32.4961815,-12.9083967
6670,7.4938130,-6.5409255,-4.9320302,-1.5572519,-140.7862549,201.4580078,-2.1188576,7.9127960,2.6599445,-5.6946564,28.7938938,-12.0229006
6680,10.3045912,-9.8018112,-2.5641768,-16.0458012,-142.7404633,191.0763397,-2.4372849,7.8266053,2.2122312,-6.6793895,20.2824421,-8.0305347
6690,13.3619709,-12.8831339,0.5937590,-28.3053436,-118.2748108,181.7175598,-2.2242019,8.3796635,1.2761030,-16.6412220,2.6106870,-7.6717558
6700,16.2733059,-15.2054968,3.5553713,-32.7251892,-74.5114517,172.9541931,-1.7932479,8.2455883,0.5434810,-30.7786255,-16.0229015,-6.0687022
6710,18.2269650,-16.8862190,5.1977854,-36.5343513,-28.2900772,178.0152740,-1.2976507,8.6837254,0.5626345,-46.9236641,-33.3511467,-2.9389312
6720,19.2995605,-14.3842907,7.6015515,-45.9771004,6.7175574,209.1450348,-0.6440369,8.7220325,0.6344602,-61.4427490,-47.4351158,1.4122137
6730,0.4955972,6.9694853,-10.1872759,-89.8854980,50.1603050,-153.6412201,2.3151813,13.3500004,8.0971489,8.8320608,-17.0992374,-14.3206110
6740,0.7733232,8.7316093,-10.1202393,-114.3740463,59.4351158,-130.3129730,2.5402350,13.0100250,8.5496502,24.2366409,-13.6793890,-14.1755724
6750,1.6136837,10.2710724,-9.9813757,-128.3435059,66.9465637,-112.0457993,2.6767037,12.7849712,8.6526003,43.5343513,-8.2748089,-18.6488552
6760,2.3750360,11.4226780,-9.9981356,-135.8244324,63.8396950,-102.5572510,2.3056045,12.3947191,8.0588417,63.2977104,-0.6870229,-23.3282452
6770,3.4811516,12.8520088,-10.0532017,-140.8702240,59.5496178,-99.2519073,1.6687500,12.1936073,7.3645267,79.5419846,4.8015265,-27.1374054
6780,3.5290353,14.0850163,-10.4458485,-143.6946564,64.4045792,-100.4809189,0.6057299,12.0499554,6.8713236,91.0534363,7.0076337,-28.4427490
6790,3.0166788,15.1432486,-10.7666702,-152.0458069,65.2595444,-104.5496216,-0.2394189,11.9709473,5.9040713,96.1526718,8.1908398,-26.9236641
6800,2.6982515,16.8000278,-9.5791521,-164.5190887,52.0763359,-104.0457993,-1.2282192,11.7051926,5.0996237,96.2290039,8.3435116,-20.5725193
6810,2.9233053,17.7193966,-6.5696559,-164.5190887,28.1526718,-102.5343475,-1.9799947,11.1712875,4.3837609,91.4732819,5.3053436,-12.3587790
6820,3.0190730,18.0761299,-3.4596038,-144.8702240,1.8778626,-103.3053436,-2.1571648,10.5080976,4.3454537,86.0457993,-1.3358779,-3.9007633
6830,2.9041519,18.9954987,-0.3639168,-107.7099228,-20.4732819,-101.5114517,-2.1068866,9.7802639,4.4172797,84.5801544,-5.2442746,1.1603054
6840,3.1818779,19.3594151,1.5203103,-62.3053436,-36.1526718,-98.2366409,-1.6926919,8.5616217,4.3885493,88.9694672,-5.5419846,3.8931298
6850,3.6248028,19.1056328,2.0733681,-19.6412220,-39.2519073,-97.8702316,0.1005560,7.7691450,4.0557570,94.8473282,0.8549618,2.1145039
6860,3.6367738,18.2844257,1.7333932,11.9389315,-35.4885483,-101.4274826,1.7142396,6.8354111,3.6152260,100.8091583,9.4198475,-6.3587785
6870,3.3686244,17.0777531,1.0390782,32.5038185,-28.4198475,-102.7175598,2.6623387,6.3015065,3.2991931,109.1755753,22.1297703,-21.0534344
6880,2.8873925,15.5454721,0.2250538,45.4351158,-19.6870232,-102.2442780,2.8897867,5.4946647,2.9472473,118.6335907,34.2748108,-39.2137413
6890,2.2026544,13.8815107,-0.2370248,53.1679382,-12.9312973,-102.2137375,2.1691356,5.4228392,1.9991482,123.2213745,41.3893127,-54.8854980
6900,1.3335636,11.9565821,-0.4644727,59.2595406,-13.5496187,-100.9312973,0.0407012,5.8298512,0.4884146,119.0839691,41.6412201,-59.8549614
6910,0.1388630,10.4027529,-0.5339043,65.6412201,-20.7328243,-94.9007645,-1.9225341,6.4451580,-1.0247130,103.9236679,33.5114517,-50.8854980
6920,-0.6943150,8.9399033,-0.2896969,73.6259537,-34.2519073,-83.6641235,-2.8466914,6.5672617,-2.0709739,81.2748108,16.2366409,-30.8702297
6930,-1.1228749,7.8194227,-0.0023942,85.6259537,-48.3664131,-70.2671738,-2.2529323,6.5409255,-2.4779861,55.5725174,-2.3816793,-12.5190840
6940,-1.0917504,6.9551206,0.0598547,100.8473282,-60.8778610,-58.2977104,-1.2162483,6.3589673,-2.3894010,32.5877876,-16.2290077,0.9312977
6950,-0.7110743,6.2584114,-0.2394189,113.5419846,-69.9389343,-49.7938919,-0.1460456,5.7005649,-1.8243724,15.1679392,-23.6793900,6.7557254
6960,-0.5722113,5.6957769,-0.7805058,122.9694672,-75.0763321,-44.5572510,0.5650287,5.5880380,-1.4484847,4.4732823,-26.0534344,6.5190840
6970,-0.5746055,5.2193332,-1.5945302,125.1374054,-79.9847336,-43.1908379,1.0342898,5.7149301,-1.0941446,-1.6793894,-25.4503822,4.6564884
6980,-0.6416427,4.8195033,-2.2505381,118.8244247,-85.0610657,-44.6412201,1.0749911,5.9663200,-0.8307837,-6.0152674,-22.3969460,2.3206108
6990,-0.7948709,4.3310885,-2.5474176,105.2137375,-86.4198456,-45.6793900,0.9672526,6.2560172,-0.7326220,-11.7328243,-20.9083977,1.6564885
7000,-0.8044477,3.9695661,-2.5282640,86.3435135,-82.9083939,-44.5419846,1.0390782,7.0293403,-0.9050036,-19.9312973,-21.4351139,2.5343511
7010,-0.8475431,3.5481887,-1.9704180,66.2977066,-77.6641235,-42.5725174,1.0773853,7.6135225,-0.7326220,-31.3282452,-22.9389305,2.9236641
7020,-0.7733232,3.2441268,-1.5059452,47.2900772,-69.3282471,-39.9465637,0.8475431,8.0444765,-0.0359128,-40.3740463,-24.3816795,5.2213740
7030,-0.8044477,3.0023136,-0.4596844,31.3816795,-57.6564903,-36.0992355,0.9480990,8.8177996,0.3016679,-50.0687027,-25.4274807,4.1297708
7040,-0.7733232,2.6312141,0.3280039,22.8931293,-43.9541969,-31.3664131,0.2777260,9.0021524,0.9935886,-54.8931313,-26.6106873,9.0610685
7050,-0.6248835,2.1499822,0.5506636,17.9312973,-29.3053436,-24.3053436,0.4716553,9.4091644,1.8650736,-56.0687027,-26.2213745,6.0000000
7060,-0.2442073,2.2577207,0.6057299,13.6106873,-12.5114508,-14.3206110,0.3854645,9.6270361,2.0733681,-53.3816795,-25.0610695,1.8244275
7070,0.1795642,2.7341642,-0.5602403,-4.6106873,21.0305347,-1.3053435,0.6607963,10.9390516,2.1882892,-44.5877876,-23.2900772,-6.9618320
7080,0.4381367,3.1172347,-1.4867916,-24.3358784,31.4503822,-1.2290076,0.5841822,11.4945040,2.3391230,-39.1068687,-20.6335869,-13.2748089
7090,0.9002152,3.6176202,-1.9871773,-47.5648842,39.0076332,-4.2213740,0.1747758,11.6860390,2.7221935,-32.5267181,-17.6717548,-17.0916023
7100,0.8619082,3.3566537,-2.1260402,-66.9160309,42.9312973,-5.5190840,-0.3184272,11.9470053,2.7054341,-25.0687027,-15.1679392,-19.6183205
7110,0.6368544,3.7038112,-2.2361729,-80.3511429,40.1297722,-2.8167939,-0.5339043,12.2295198,2.6072724,-17.0076332,-12.5954199,-20.3511448
7120,0.9073978,4.3406653,-1.8459201,-86.2977066,34.0076332,3.6259542,-0.6847382,12.2247314,2.6336083,-8.8625956,-9.4427481,-19.2900772
7130,1.0941446,5.0589223,-1.5801650,-84.5801544,29.9923668,8.0305347,-0.9935886,12.0810804,2.3343346,-1.8931298,-5.1221375,-18.2748089
7140,0.9217629,5.8825235,-2.2313845,-81.4351120,34.7938919,8.5801525,-1.1707586,11.9901009,2.1356170,3.5190840,0.4885496,-15.3435116
7150,0.4788379,7.1227136,-3.5074875,-82.1068726,46.5877876,9.2137403,-1.4365137,11.8081427,1.9608412,7.1984735,6.9083967,-11.3816795
7160,-0.3663110,7.9918046,-4.5513539,-90.0076370,55.8473282,9.6335878,-1.6567791,11.3412752,1.9321109,9.4809160,13.3053436,-7.1221375
7170,-1.6448082,8.9494801,-5.1355362,-97.9389343,57.1755714,11.6870232,-1.7381816,10.8265247,2.0877333,10.5267172,20.6335869,-1.0076336
7180,-3.0454090,10.3596573,-5.3079181,-105.5419846,47.7251892,19.0229015,-1.6950861,10.2902260,2.3415172,11.9694653,27.9770985,4.4732823
7190,-4.0677280,11.3149395,-5.2217274,-107.7709961,34.0152664,32.0839691,-1.4197544,9.8616667,2.5402350,13.8625956,38.2061081,9.9541988
7200,-4.2353210,12.4569674,-4.7859845,-103.5343475,17.9160309,48.4732819,-1.2354017,9.6318245,2.5067163,14.3587790,47.2519073,13.7633591
7210,-3.3422885,13.6827927,-3.8666160,-91.2442780,3.2213740,62.3358765,-1.1228749,9.5192976,2.5785420,13.4045801,52.3511467,16.4732819
7220,-2.0973101,14.5159702,-3.3782012,-72.0000000,-6.9236641,65.8702316,-1.1252691,9.3253679,2.6862805,9.7175570,53.3282433,19.9618320
7230,-1.4460905,14.9062233,-3.6678982,-51.3206100,-10.6717558,61.2595406,-1.2138541,9.1003141,2.7796540,5.4122138,48.8473282,22.7328243
7240,-4.1299767,10.9965124,-8.6956959,-37.8167953,-105.5725174,122.7862625,1.6735384,9.0189114,3.1292057,-51.5725174,-30.4885502,18.5190830
7250,-4.2041965,10.5990763,-8.0253229,-38.3282433,-116.0152664,149.1603088,1.5610116,8.9446917,3.2537034,-42.1984749,-6.1679387,18.7938938
7260,-4.7500720,10.1298151,-7.3836803,-36.3511467,-122.8244247,177.3358765,1.3575054,8.7818871,3.3494711,-34.5267181,12.6564884,21.0076332
7270,-5.4563580,9.8233595,-6.8330169,-30.1145039,-129.1908417,209.9541931,1.1635761,8.7770987,3.3853838,-28.2213745,24.8091602,23.2748089
7280,-5.3917146,8.8752604,-6.2153158,-19.8778629,-136.8167877,245.1526642,1.2401901,8.7986460,3.1627243,-23.9847336,30.5801525,22.6412220
7290,-4.3837609,7.6925306,-5.9328012,-5.8244276,-139.9007568,250.1297760,1.0654143,8.9590569,3.0023136,-21.8931293,29.6106873,18.7328243
7300,-2.7748656,6.5026188,-6.2344694,7.6183205,-136.5801544,250.1297760,1.0773853,9.2080526,2.7365584,-21.6870232,24.3129768,15.8244276
7310,-1.0773853,5.5449429,-7.3214312,10.1603050,-119.7557220,250.1297760,1.0989330,9.4283180,2.5881188,-22.9694653,17.4809170,14.4656487
7320,1.5394639,4.7500720,-8.1258793,-1.1526718,-95.5114517,250.1297760,1.2138541,9.5743637,2.3774302,-25.9083977,10.2366409,14.3816795
7330,5.1403246,3.5553713,-8.4347296,-23.0916023,-77.8778610,250.1297760,1.3886299,9.5576038,2.3726418,-30.2061062,2.6030533,16.0916023
7340,8.4059992,1.7717001,-8.0684185,-50.7862587,-73.5496216,250.1297760,1.7525467,9.5480280,2.3654592,-34.0763359,-4.8473282,17.5038166
7350,11.3340931,-0.4908088,-7.0365229,-81.8091583,-76.2824402,247.0610657,2.2505381,9.5719690,2.5522060,-36.2977104,-10.6870232,17.0992374
7360,14.4561157,-3.9743545,-5.1714492,-115.6946564,-82.2290039,183.8702240,2.6982515,9.5504217,2.8490853,-35.6106873,-15.6030531,14.1832066
7370,17.5374374,-8.3940287,-2.5258698,-149.1374054,-85.6946564,116.1984711,2.8706331,9.6868906,2.8802099,-33.1297722,-17.9923668,10.0839691
7380,19.6126022,-13.4433737,3.1100521,-175.4045868,-89.8320618,44.6946564,3.1890604,9.7802639,3.1076579,-27.5190830,-18.7786255,5.4656487
7390,19.6126022,-18.0976772,11.3819771,-188.4580078,-91.1297684,-20.2366409,3.4859397,10.1274214,3.1196289,-21.7251911,-17.5801525,-0.3358779
7400,19.6126022,-19.6131992,16.8000278,-187.0686951,-42.1221390,-39.2366409,3.3375001,10.3740225,2.8419030,-16.9923668,-14.9389315,-2.9770992
7410,19.2325230,-18.2485123,16.9987450,-180.2824402,65.4427490,30.4809170,3.1938488,10.5368280,2.7676830,-14.5954199,-11.1374044,-3.0458016
7420,12.4042959,-7.6111283,17.7337608,-163.8473358,124.3664093,174.1984711,3.0190730,10.7283630,2.6096666,-14.2824430,-8.0916033,-1.2061069
7430,13.8647509,3.3566537,19.6126022,-116.1526718,101.0610657,250.1297760,2.9496415,10.7116032,2.8107784,-15.3435116,-7.0687022,1.6412214
7440,19.6126022,8.1402445,19.6126022,-17.5572510,58.8702278,250.1297760,2.9065459,10.5200682,2.9065459,-16.1068707,-6.6564884,4.8167939
7450,19.6126022,9.0787668,19.6126022,107.6488571,46.0839691,220.2748108,2.9759774,10.2471304,3.2465210,-16.1908398,-6.9007635,6.7175574
7460,19.6126022,8.5807753,19.1726685,227.3206177,16.0763359,3.5954199,3.1483591,10.0579901,3.4117200,-15.0687027,-7.1908398,5.9389315
7470,19.6126022,4.3981261,9.0189114,250.1297760,-49.8320618,-207.7251892,3.2369442,9.8903971,3.4859397,-13.4198475,-8.6641226,3.9770992
7480,19.6126022,-1.3862357,0.3950413,250.1297760,-88.1145020,-250.1374054,3.2297616,9.6533718,3.4979107,-12.3664122,-10.1297712,-0.4427481
7490,17.0226879,-6.8210459,-4.4986820,167.0381622,-78.5343475,-250.1374054,3.3111639,9.4642305,3.5888901,-11.9160309,-11.1450386,-8.6641226
7500,12.2750092,-10.5799236,-5.0852585,55.7099228,-48.3206100,-250.1374054,3.5841017,9.5121145,3.8953462,-11.0000000,-12.7404585,-18.9160309
7510,9.3493099,-11.6836443,-2.4444675,-40.5801544,-3.9541984,-250.1374054,3.2034254,9.5504217,4.0725164,-9.8244276,-12.7175570,-27.5267181
7520,7.8289995,-10.3069859,1.9871773,-85.2290039,39.6793900,-250.1374054,2.6024840,9.4115591,3.9216824,-8.1145039,-4.9236641,-33.3206100
7530,7.1729918,-7.8840661,6.0477223,-80.4961853,57.1603050,-250.1374054,1.3838415,9.3588867,3.9791429,-4.4198475,8.5572519,-36.3893127
7540,6.5912037,-6.0381460,6.9814563,-43.5114517,69.0229034,-250.1374054,-0.1005560,9.2319946,4.1299767,0.7557252,19.3129768,-37.2900772
7550,6.0405402,-4.4819226,5.5688848,-1.0763359,91.8854980,-250.1374054,-1.3024391,9.1122847,4.0820932,7.0763359,24.7786255,-33.6106873
7560,5.5473371,-2.3463056,2.5306582,23.4427490,118.1908417,-249.1679382,-2.2074428,8.9542685,3.7923961,12.4198475,26.1755733,-26.0076332
7570,5.4084740,-0.1604107,-0.3064562,21.0534344,150.8778687,-246.1374054,-2.5306582,8.9207497,3.2584918,16.6183205,25.7938938,-17.1679382
7580,3.0717452,1.7525467,-3.6631098,-1.4656489,185.3053436,-244.6641235,-2.2840567,8.9829988,2.3175755,16.7328243,23.1755733,-9.6793890
7590,-0.9217629,3.6056492,-6.0094156,-35.7786255,200.1145020,-227.0915985,-2.0733681,8.8752604,1.5729824,11.1832066,17.8015270,-3.8702290
7600,-5.5640965,6.3469963,-6.1889796,-69.2977066,191.3053436,-181.2061005,-1.8004304,8.7555504,0.8595140,1.0381680,10.7328243,-0.6183206
7610,-6.6462698,8.7770987,-4.1251884,-79.7328262,165.4198456,-122.3358765,-1.2306134,8.7124557,0.5482694,-11.2900763,1.9312977,1.6793894
7620,-3.5074875,10.1729107,-2.7102225,-64.6717529,132.9541931,-80.3587799,-0.7517755,8.6454182,0.5219333,-24.0000000,-7.2671757,5.0229006
7630,0.2968795,11.3173332,-2.4995339,-39.8015251,116.5267181,-69.7633591,-0.1460456,8.5041609,0.6033357,-35.5648842,-14.2442751,9.1908398
7640,2.6575503,13.7139168,-3.4212968,-18.7862587,117.9618301,-80.8778610,0.6631905,8.3174143,0.8475431,-44.5725174,-16.4732819,12.6412210
7650,2.5162930,15.3850613,-5.5186067,-10.8244276,126.9465637,-97.7175598,1.5346755,7.9343438,1.3383518,-50.5267181,-16.6412220,13.8854961
7660,0.6272776,16.2541523,-7.5776095,-15.1526718,130.0152740,-111.2137375,2.3510940,7.8218169,1.8818330,-53.4045792,-13.8167934,12.0687027
7670,-1.7573351,16.8742466,-8.9949694,-27.5419846,119.0687027,-113.9236679,2.8897867,7.8481531,2.3630650,-52.9007645,-8.0305347,7.3664122
7680,-3.7445123,17.2453461,-9.9933472,-45.3435097,94.0457993,-102.8702316,3.1770895,7.9032192,2.9280937,-49.9007645,-1.0458015,-0.0916031
7690,-4.3263001,17.4129391,-9.8880024,-69.9694672,71.5648880,-80.5801544,3.0956869,8.1665802,3.2991931,-45.7175560,5.3282442,-8.3740454
7700,-4.0222383,17.5182838,-8.2815018,-92.6030502,61.9541969,-52.2213745,2.7844424,8.5209198,3.6439564,-42.1145020,8.5877867,-15.2748089
7710,-3.6248028,18.1024666,-5.3581958,-102.7938919,72.5038147,-29.9770985,2.3151813,9.0787668,3.9911139,-39.3740463,10.2595415,-21.1603050
7720,-3.8546450,17.9683914,-3.2106080,-101.2824402,92.6412201,-9.3893127,1.8961980,9.4570484,4.1491303,-37.8015251,9.3893127,-23.6488552
7730,-3.2489152,18.6052456,-2.2577207,-88.7786255,78.0305328,14.4732828,1.5610116,9.5815458,4.1395535,-37.8015251,7.2213740,-22.7251911
7740,-1.6448082,19.2157650,-1.2306134,-78.6412201,49.2519073,31.1832066,1.2737088,9.4905672,4.3861551,-39.0381660,2.7786260,-20.8931293
7750,-0.7661406,18.1742916,0.8547257,-70.6717529,23.3969460,43.5419846,1.3000449,9.4666252,4.6112089,-40.0534363,-2.0000000,-19.8473282
7760,1.8818330,17.2453461,3.9025288,-53.6641235,-13.0610685,52.8396950,1.4341195,9.5552101,4.8147149,-39.5725174,-5.2213740,-19.2824421
7770,3.8474624,16.3259773,6.7755561,-21.3969460,-52.2595406,48.6717567,1.4532729,9.5959110,5.1738434,-37.5114517,-8.8167934,-20.2061062
7780,5.2360926,15.1193066,8.1330614,19.9389305,-72.6870193,30.4045811,1.5466464,9.6892843,5.3342543,-34.2137413,-11.7022905,-19.4580154
7790,5.3198891,13.3260584,8.2575598,59.6183205,-81.1450348,1.8091604,1.6472024,9.7682934,5.1810260,-30.3816795,-12.6106873,-20.7099228
7800,4.2448978,12.0092545,7.5297260,90.2366409,-80.5496216,-22.8396950,1.8578910,9.7228031,5.2504573,-26.8091602,-12.7633591,-22.8167934
7810,3.3398943,10.7403336,6.0788469,111.6870193,-67.8091583,-43.3511467,1.9249283,9.8927908,5.2001796,-24.7862587,-11.9160309,-24.8167934
7820,2.6120608,9.6078825,4.3191175,120.9389343,-54.5572510,-62.3893127,1.8459201,10.2255831,5.4324160,-23.5114498,-7.5343513,-26.8396950
7830,1.5322813,7.9487090,2.6144550,118.8320618,-34.1984749,-78.3358765,1.1755470,10.3835993,5.8418221,-21.0763359,-2.1908398,-26.3587780
7840,0.0502780,6.9431496,1.3742647,106.1908417,-16.8778629,-83.8931274,0.4548960,10.4051476,6.4020624,-17.3435116,-0.3893130,-23.1374054
7850,-1.1707586,6.1051831,0.5434810,90.6259537,-3.0839694,-80.7099228,-0.0407012,10.6086531,6.5528965,-13.8015270,-2.5267177,-17.1679382
7860,-2.0350611,5.4946647,0.2011119,72.3664093,-5.8778625,-72.6412201,-0.1173153,10.7523050,6.6534524,-11.4351149,-5.2213740,-10.7938929
7870,-2.4923513,4.7404952,-0.0718257,54.9083977,-15.3053436,-61.4732819,0.2920911,11.0731258,6.7037306,-11.2595415,-7.9312978,-5.5419846
7880,-3.4667864,4.1467361,-0.1125269,37.9160309,-33.2061081,-44.5572510,0.5123565,11.3580351,6.9096308,-11.0992365,-9.1908398,-3.8091602
7890,-3.4260850,3.6583214,-0.0430954,27.7709923,-46.9771004,-27.2366409,0.3926471,11.4609852,7.5009956,-9.9160309,-7.4961834,-2.1679389
7900,-2.2505381,3.6415622,0.3950413,25.4274807,-55.7633591,-14.8244276,0.1292862,11.4921093,8.1833391,-6.9007635,-5.5343513,-0.7557252
7910,-0.9361281,3.7445123,0.5554519,29.0687027,-53.0687027,-11.3816795,-0.1412572,11.5136566,8.7555504,-1.1603054,-5.4427481,1.9160305
7920,-0.4118006,3.5817075,0.6416427,35.1908379,-47.1832047,-14.7480917,-0.4884146,11.3843708,9.1865053,7.6641221,-6.4045801,4.9160304
7930,0.2226596,3.6846576,0.7134684,41.5877876,-41.1832047,-21.1374054,-0.4860204,11.2550850,9.2367830,18.2671757,-7.5496182,9.1832066
7940,0.8714849,4.0557570,0.7230452,47.6717567,-27.9160309,-26.5725193,-0.3878587,10.9366570,8.9806042,29.7786255,-9.0229006,12.9694653
7950,1.4460905,4.6375451,0.2059003,50.1832047,-9.7328243,-29.2900772,-0.3016679,10.6038647,8.5424681,40.9007645,-10.4351149,14.1221371
7960,2.0901275,5.5928264,-0.5913648,46.1908379,7.7786260,-29.4427490,-0.2657550,10.3548698,7.9750452,51.2824440,-11.7328243,13.0839691
7970,2.3917952,6.6606350,-1.0079538,40.6717567,22.9618320,-27.7175579,-0.3471575,10.1393919,7.4698710,60.4503822,-12.9083967,13.5725193
7980,2.2696917,7.8026633,-1.4006008,34.2900772,33.5343513,-28.2748089,-0.4094064,9.9239149,6.7180958,68.2748108,-13.7328243,14.4580154
7990,1.6065011,8.8010406,-1.6376256,27.9465656,41.9312973,-28.9923668,-0.3399749,9.6868906,6.0094156,74.5190811,-13.6488552,15.5725193
8000,0.6703730,10.2279778,-1.6400198,23.6564884,49.2442741,-27.6793900,-0.4189832,9.4283180,5.0852585,78.4961853,-11.7862597,17.9160309
8010,-0.7805058,11.5735121,-1.4149660,22.4045811,54.0228996,-22.8091602,-0.2705434,9.1410151,4.2305326,79.7099228,-10.3893127,22.4732819
8020,-2.4516499,12.9645357,-1.5059452,25.4198475,52.2748108,-13.1221371,-0.1149211,8.8273764,3.7277529,80.0610657,-11.3435116,26.5954189
8030,-3.1411765,13.9724894,-1.7238164,32.4274826,40.5648842,0.8015267,-0.1053443,8.0181408,3.6535332,80.3282471,-18.3282452,30.2977104
8040,-2.6910689,14.5063934,-2.0733681,42.0381660,23.9312973,13.3206110,0.4285599,7.6254935,3.7133877,83.6030502,-29.6335869,30.5419846
8050,-1.7429699,14.3196468,-2.3870070,52.3282433,5.4961834,19.9389305,0.6344602,7.2160869,2.9352763,87.7175598,-42.2824440,28.2595425
8060,-1.1516051,13.8408089,-2.6934631,63.0076332,-11.5343513,21.7557259,1.2808913,7.0460997,2.2002602,89.8015289,-47.8702278,24.7786255
8070,-0.6655847,13.1177645,-2.9855542,72.0076370,-23.2977104,22.1679382,1.6088953,7.1394730,1.0510491,85.2290039,-42.9541969,20.1068707
8080,-0.1604107,12.3971128,-2.9831600,79.1679382,-33.0458031,22.1679382,1.8626794,7.1275020,-0.0670373,74.7557220,-32.9847336,16.1526718
8090,0.1675933,11.7267399,-2.8107784,84.2137375,-41.0916023,21.9007626,1.8411317,7.1131368,-0.8643024,58.4198456,-18.2595425,13.7099237
8100,0.2920911,10.8744087,-2.5881188,86.5190811,-44.4809151,20.8549614,1.6831152,7.0484939,-0.7924767,39.4732819,-2.9847329,12.8702288
8110,0.2322364,10.0819321,-2.3534882,86.2061081,-43.5954208,19.0534344,1.2449785,6.6606350,-0.1819584,22.8015270,7.8702292,12.5343513
8120,0.0071826,9.3349447,-1.8938038,83.9083939,-40.3893127,18.9389305,0.9457048,6.5193777,0.6799498,11.8778629,12.5877867,11.6106873
8130,0.0837966,7.0652533,-0.0095768,70.6641235,-16.2290077,31.1755733,0.6177009,6.9718795,1.8746504,9.9465647,27.4885502,2.8854961
8140,0.2657550,6.5241661,0.6560079,68.0000000,-6.1908398,37.3358765,0.2202654,7.3070664,1.6855093,9.1450386,30.5725193,1.2519084
8150,0.3591284,6.2871413,1.1970947,67.1068726,-0.4809160,43.2290077,-0.1508339,7.6949248,1.3120158,4.1297708,28.9770985,2.9236641
8160,0.5027798,5.9902620,1.6998745,66.7557220,4.1450381,47.2824440,-0.1747758,8.0947542,0.9840119,-6.7938933,23.6641216,6.9770994
8170,0.7661406,5.1762376,1.1635761,61.8778610,42.5496178,51.7251892,1.0007712,9.0763721,1.7238164,-49.0916023,3.9007633,17.1374054
8180,-0.4908088,4.6686692,-1.1755470,21.5114498,108.8167953,47.9236641,2.2050486,9.7754755,3.0717452,-70.4122162,0.8854962,16.3358784
8190,-0.8858501,4.7357068,-2.1882892,-6.6335878,125.9542007,46.0839691,2.3391230,9.5599985,4.2472920,-69.0687027,0.6870229,16.6870232
8200,-1.3263810,4.6854286,-3.1746953,-40.7938919,129.2519073,41.4198456,3.0525916,9.9239149,5.0182209,-62.4198456,2.0763359,10.8396950
8210,-1.6639616,4.2903876,-3.4524212,-71.6564865,126.8396912,35.1297722,3.1220231,10.0555954,5.6119800,-52.6641235,2.7862597,2.9160306
8220,-1.7286048,4.2784166,-2.6958573,-96.6412201,115.4351120,26.1603050,2.7940190,10.1298151,5.6933827,-42.3816795,3.9541984,-4.2137403
8230,-1.6902977,4.4196739,-0.9672526,-106.9236679,97.0534363,16.3206100,2.4708035,10.2638903,5.9328012,-30.4122143,7.0687022,-8.4580154
8240,-1.6400198,4.5274124,-0.2394189,-101.8854980,84.4427490,8.5572519,1.9871773,10.5272512,5.8992829,-18.9618320,11.4732828,-13.4198475
8250,-2.0135133,4.4436154,-1.4987626,-95.5496216,87.3664093,13.8473282,1.3527170,10.5152798,5.8346395,-9.4656487,15.1297712,-17.9389305
8260,-2.6072724,5.5497313,-3.3303175,-100.2671738,98.5801544,41.5190849,0.8954269,10.5847120,5.6574697,-1.1145039,18.1450386,-23.1832066
8270,-2.0087249,8.5831690,-4.0246325,-112.1374054,108.3435135,85.1984711,0.1125269,10.5679522,5.7676024,6.3206105,19.5496178,-27.2748089
8280,0.3495516,11.4992924,-3.4069316,-120.8320618,113.0610657,123.3053436,-0.6392486,10.6349897,5.4850879,11.9465647,19.5648861,-29.4198475
8290,3.1459649,14.1496601,-2.4660151,-119.2977066,106.1450348,142.4274750,-1.1970947,10.6541433,5.4204450,16.5190830,17.3587780,-29.0458012
8300,5.2863703,16.9676208,-1.0271072,-103.0610657,94.5801544,144.4427490,-1.8818330,10.4506369,5.2073622,19.3129768,15.7786255,-24.2290077
8310,6.9263902,19.1918221,0.2585725,-72.0916061,68.9847336,132.0763397,-2.2194135,10.2950144,4.9823084,20.1908398,13.9618320,-17.5648861
8320,7.8194227,19.6126022,0.2561783,-36.9771004,37.7862587,109.9542007,-2.2984219,9.9502516,4.6878228,20.4885502,9.3969469,-9.4732828
8330,7.5584559,19.6126022,-0.9385223,-3.7786260,16.5877857,86.9770966,-1.8985922,9.6653433,4.4148855,19.7480907,6.1832061,-1.2977099
8340,6.2847471,19.2875900,-2.5210814,19.5343513,5.3664122,73.1374054,-1.3431402,9.3947992,4.0557570,18.6793900,7.5801525,5.9389315
8350,5.1020179,18.8542423,-3.9647777,30.3206100,0.9465649,67.5572510,-0.5147507,9.1290445,3.5960727,16.5725193,15.0687027,12.7404585
8360,3.9288650,17.9444504,-4.5681133,38.6793900,-3.8015268,62.6641235,0.1029501,8.7938576,3.1651185,12.5343513,24.7786255,18.9541988
8370,2.5881188,16.6563759,-4.4005203,54.8244286,-18.5343513,56.8549614,0.6631905,8.4371233,2.9568241,7.3587785,31.6641216,24.2824421
8380,0.9217629,14.8655224,-5.3701668,74.1297684,-35.6946564,57.0839691,1.1372399,8.2336178,3.0573800,2.3053436,34.6183205,28.7404575
8390,-1.1779412,13.2829628,-7.1490498,83.7938919,-47.3893127,73.0305328,1.8387375,8.2384062,2.9711890,-1.6259542,35.3511467,30.1832066
8400,-2.8155668,12.2175484,-8.1809454,82.0305328,-60.1145020,102.1984711,2.5330524,8.0756006,2.9161227,-4.7786260,32.3358765,28.5343513
8410,-3.9695661,11.0563669,-8.3748751,75.8473282,-74.3358765,139.4427490,3.2441268,8.0205345,2.6862805,-7.1450381,29.3740463,25.4045811
8420,-4.1204000,10.2351599,-7.9918046,70.8931274,-83.7862625,177.3511505,3.8019729,8.0085640,2.4181314,-10.1679392,25.5114498,19.0763359
8430,-3.6487448,9.2966375,-7.7811155,66.1297684,-87.1984711,213.1908417,4.0413918,8.0229292,2.1068866,-15.3969469,21.0839691,12.6030531
8440,-2.6383967,8.3868456,-7.5871863,59.8931313,-85.3206100,242.7404633,4.1994085,8.0516596,1.7501525,-22.5114498,15.8931293,6.0229006
8450,-1.1061156,7.1658092,-7.4100165,52.7633591,-79.6717529,250.1297760,4.2209558,8.0803890,1.7094513,-30.4351139,12.2366409,-0.1984733
8460,0.6919208,5.5018473,-7.3429790,46.3129768,-65.3664093,250.1297760,4.1634955,8.3102312,1.9249283,-37.0076332,10.3358774,-5.5190840
8470,1.9225341,4.0988522,-7.0245519,39.8702278,-47.3969460,250.1297760,3.9312592,8.3198080,2.2242019,-41.4045792,10.1755724,-9.9160309
8480,3.9384418,2.9951310,-6.9838505,27.7480907,-37.1832047,250.1297760,3.5218527,8.4826136,2.6862805,-43.8854980,10.5190840,-13.6335878
8490,6.4738884,1.6160779,-7.1729918,8.7480917,-30.9083977,250.1297760,3.3063757,8.7747040,3.2297616,-43.8549614,10.7709923,-15.8931293
8500,8.3724804,-0.2753318,-7.1059542,-14.8320608,-27.1984730,241.6793823,2.9807658,9.2224178,3.8857694,-42.2900772,10.5801525,-18.6641216
8510,10.4386663,-2.9161227,-6.4619174,-41.9312973,-27.8931293,205.3816833,2.3056045,9.5264797,4.3334827,-40.0000000,7.9007635,-19.3740463
8520,12.6030130,-5.7005649,-4.9296360,-71.5190811,-29.2519093,159.0839691,1.8650736,9.7658987,4.4531922,-37.9389305,2.0839694,-17.5648861
8530,15.7585554,-8.9710283,-2.1547706,-96.0916061,-29.6259537,111.0992355,1.5897418,10.0148945,4.4723458,-36.9694672,-4.9770994,-15.0763359
8540,18.0904961,-12.9334116,1.6088953,-108.5343475,-24.5801525,60.2366409,1.5442522,10.2231894,4.3909435,-36.8320618,-11.8549614,-11.2442751
8550,18.5980644,-17.2788658,7.3836803,-103.3358765,-35.0916023,8.4809160,1.6735384,10.3500814,4.3526363,-37.9312973,-15.9465647,-7.8396945
8560,16.5582142,-19.6131992,13.8743277,-78.0000000,-77.0763321,-15.9923668,1.8171898,10.3500814,4.3885493,-39.2519073,-16.3740463,-4.7938933
8570,9.5408449,-17.9755745,18.8997307,-26.2290077,-152.5419922,33.1603050,1.7836711,10.2207947,4.4675574,-39.5954208,-15.1450386,-3.5190840
8580,4.4675574,-11.9493999,19.6126022,49.4656487,-188.1297760,151.0000000,1.8004304,10.0555954,4.8602047,-38.1068687,-12.5190840,-0.5801527
8590,8.6214762,-3.9767487,19.6126022,136.8473358,-166.7938995,250.1297760,1.8650736,9.8425131,5.0254035,-34.6030540,-7.8320613,2.0839694
8600,19.6126022,-0.4740495,19.6126022,214.0763397,-107.6946564,250.1297760,1.6998745,9.7491398,5.2049680,-30.1984730,-1.8015267,3.3587787
8610,19.6126022,0.8355721,15.4568872,250.1297760,-62.1526718,218.6488495,1.5083394,9.4043760,5.2767935,-25.1145039,3.1068702,4.4427481
8620,19.6126022,2.6288199,6.2967181,250.1297760,-37.3053436,61.7404594,1.1635761,9.1003141,5.4324160,-19.8167934,5.8244276,4.2595420
8630,19.6126022,2.0326669,-3.2513094,249.9313049,9.2290077,-110.5954208,1.0582317,8.8585014,5.3965030,-14.6488552,7.7404580,4.2366414
8640,19.6126022,-1.3718705,-10.6637201,157.6259613,58.1526718,-247.7328186,0.7589580,8.6286592,5.3055239,-10.0305347,9.4351149,3.5419848
8650,19.6126022,-5.9160423,-13.7713776,38.1679382,98.8702316,-250.1374054,0.4357425,8.4490948,5.2504573,-6.5572519,10.1297712,2.0381680
8660,17.7936153,-9.8425131,-13.8360205,-73.5725174,127.2290039,-250.1374054,0.0694315,8.1809454,5.0996237,-3.9389312,7.4503818,-0.1603053
8670,12.5096397,-11.2694502,-8.8177996,-143.6259613,113.5572510,-250.1374054,-0.1508339,8.0803890,4.8051381,-1.9541985,2.4503818,-1.8931298
8680,10.0340481,-10.7211800,-3.6966286,-163.2824402,74.1603088,-250.1374054,-0.2681492,8.0875721,4.4986820,-1.4351145,-2.4961832,-3.1068702
8690,9.5911226,-9.3469152,-0.8666966,-144.5801544,47.0839691,-250.1374054,-0.2609667,8.0995426,4.1898317,-2.3511450,-7.1832061,-3.6488550
8700,9.0332766,-7.4195933,-0.4860204,-112.0992355,51.9465637,-250.1374054,-0.2202654,8.0756006,3.8402798,-5.6030536,-12.5572519,-2.7480917
8710,6.9263902,-4.0342093,-2.7557120,-87.8091583,77.3435135,-250.1374054,-0.0191535,8.0181408,3.5218527,-10.9618320,-17.8625946,0.0305344
8720,4.2137733,-0.3639168,-5.6694407,-84.2061081,97.2061081,-250.1374054,0.4644727,8.0253229,3.3135581,-17.6870232,-22.8549614,4.2137403
8730,2.7748656,2.8586621,-8.4323349,-97.2748108,96.4122162,-248.9541931,1.0223188,7.9941988,3.3829896,-24.2442741,-25.8931293,7.3358779
8740,2.9711890,4.8602047,-9.1912937,-115.1526718,78.3358765,-226.4732819,1.7669119,7.9965930,3.5505829,-28.7709923,-27.4809170,9.5725193
8750,3.8187323,6.5481081,-9.1793222,-131.6564941,57.9465637,-205.8396912,2.4516499,7.9391322,3.6391680,-32.2137413,-27.1221371,10.7938929
