timestamp,rxacclX,rxacclY,rxacclZ,rxgyroX,rxgyroY,rxgyroZ,txacclX,txacclY,txacclZ,txgyroX,txgyroY,txgyroZ
0,3.9049230,3.1100521,4.0581512,40.7175560,82.1603088,-128.8473358,-1.2784972,1.5897418,10.3452930,0.0916031,-3.6183207,-3.3282442
10,0.2657550,3.5386121,3.3997490,4.2900763,109.6946564,-150.7557220,-1.1994889,1.6591733,10.4554253,-0.3740458,-3.9083970,-2.9236641
20,-5.4946647,3.3279233,3.0741394,-39.8854980,94.8244247,-159.7633514,-1.2545552,1.6519908,10.3668404,-0.7175573,-3.9847329,-1.9923664
30,-9.7012558,2.5665710,9.1529865,-60.4351158,-4.3740458,-127.4885483,-1.1683644,1.6400198,10.3859940,-0.8931298,-4.1526718,-2.7404580
40,-8.1282730,0.5602403,14.4680872,-49.6793900,-72.3435135,-94.0076370,-1.1372399,1.5969244,10.5703468,-0.8167939,-4.3206105,-2.2977099
50,-8.2096758,-0.0335187,16.4983597,-20.6870232,-164.8931274,-49.5648842,-1.1085097,1.5490406,10.4147243,-0.4885496,-4.5572519,-2.3053436
60,-5.7029591,-0.1843526,15.5071650,15.1526718,-198.9618378,-7.0000000,-1.1204807,1.6017127,10.4937325,-0.2977099,-4.4122138,-2.5877862
70,-2.4540441,0.0646431,15.3491488,51.3358765,-189.9694672,13.8091602,-1.1396341,1.5849534,10.5272512,-0.0381679,-4.0763359,-2.0000000
80,0.6751614,1.4628497,14.5734310,78.0076370,-159.6183167,4.4122138,-1.1276633,1.6615674,10.5057030,0.0000000,-3.7862597,-2.2137403
90,1.4413021,3.3207407,10.7594872,72.1755753,-106.2748108,-14.6183205,-0.8906385,1.6352314,10.3692341,0.4274809,-3.4045801,-3.4045801
100,1.2737088,3.6822634,7.8625183,39.8778610,-34.0763359,-15.1068707,-0.9768293,1.5921360,10.4793673,0.3587786,-3.9465649,-5.2671757
110,1.1324517,3.3949606,6.5864153,9.2671757,9.4427481,-14.0152674,-1.1468167,1.5945302,10.4506369,0.3435115,-4.8167939,-5.9694657
120,0.4189832,3.4907281,6.1698260,-16.6717548,26.3435116,-14.1832066,-1.1037214,1.6543850,10.4793673,-0.1068702,-5.2442746,-5.0152674
130,-0.0766141,3.7157819,6.2584114,-40.1526718,27.1755733,-13.6564884,-1.2114599,1.6160779,10.4673967,-0.0381679,-4.7175574,-4.3969464
140,-0.8954269,3.3782012,7.3669209,-57.3053436,55.8931313,-7.3511453,-1.2425843,1.5442522,10.4985209,0.1755725,-4.2748094,-3.9236641
150,-2.0278785,2.2361729,11.1928358,-54.6488533,19.1603050,5.0152674,-1.3407460,1.6950861,10.4554253,0.7022901,-3.3358779,-2.9847329
160,-0.4046180,1.4796091,13.6827927,-23.4045811,-24.3129768,10.5648851,-1.3168042,1.6088953,10.3548698,0.9694657,-3.1450381,-2.4580152
170,0.4261657,1.2377959,15.4473104,33.6335869,-67.5190811,-1.4122137,-1.2162483,1.6208663,10.4434547,0.8702290,-2.9312978,-1.9694656
180,-0.7230452,1.0773853,15.6172981,100.6870193,-177.3129730,-20.7938938,-1.2928623,1.6902977,10.3955708,0.4885496,-3.6335878,-1.6717557
190,-2.5402350,0.8810617,14.1472654,165.0000000,-250.1374054,-32.0076332,-1.2497669,1.6591733,10.3764172,0.1221374,-3.9694657,-1.1755725
200,-2.5378408,0.5027798,12.0044661,218.9313049,-250.1374054,-33.1908379,-1.2114599,1.5945302,10.3955708,-0.1603053,-4.1908398,-0.9083970
210,-1.7645177,0.8571198,9.5216913,250.1297760,-250.1374054,-33.2137413,-1.1132981,1.5849534,10.4721851,-0.6412213,-4.4122138,-1.0916030
220,-0.0239419,1.6902977,7.6757712,250.1297760,-250.1374054,-39.9923668,-1.0606259,1.6448082,10.3835993,-0.7175573,-4.7480917,-1.7099236
230,1.3575054,2.2720859,6.4331870,250.1297760,-250.1374054,-58.3206100,-1.0941446,1.6208663,10.4362717,-0.7633588,-4.6870227,-2.1526718
240,2.9592183,3.1603301,4.3023586,250.1297760,-250.1374054,-81.6717529,-1.0127422,1.5921360,10.4769726,-0.6870229,-4.2290077,-1.9541985
250,4.8123207,4.2257442,1.6017127,250.1297760,-250.1374054,-110.5572510,-1.0079538,1.5945302,10.4626083,-0.2366412,-3.8244274,-2.7709923
260,6.8473821,4.9966736,-1.8147956,250.1297760,-250.1374054,-151.3053436,-0.9816177,1.5921360,10.4697905,0.2061069,-3.1679389,-3.1221373
270,8.1450329,5.9806852,-4.0892754,250.1297760,-250.1374054,-199.6412201,-1.1611819,1.5969244,10.4913378,0.5114504,-3.2213740,-3.0610688
280,7.2496057,6.4523406,-5.4467812,250.1297760,-250.1374054,-242.4885559,-1.1492109,1.5753766,10.3381100,0.5038168,-3.5114503,-2.8473282
290,6.3350253,6.1506729,-6.3996682,250.1297760,-250.1374054,-250.1374054,-1.1803354,1.6256547,10.4410601,0.4122137,-3.7480917,-3.2595420
300,6.0932121,6.6031747,-6.6319046,227.8244324,-250.1374054,-250.1374054,-1.2018831,1.6519908,10.3812056,0.2290076,-3.6183207,-3.1297710
310,4.7692256,7.0030041,-5.6454988,199.9084015,-250.1374054,-250.1374054,-1.2593436,1.5969244,10.3596573,-0.1755725,-3.8549619,-2.8091602
320,2.7485294,6.7468257,-4.4555864,182.0305328,-250.1374054,-250.1374054,-1.2090657,1.6065011,10.4314833,-0.5648855,-4.1603055,-2.6793892
330,0.0790083,6.9431496,-4.8961172,172.2519073,-250.1374054,-250.1374054,-1.1755470,1.5873476,10.4578199,-0.7938932,-4.2748094,-2.3206108
340,-4.8027439,6.7635851,-6.8761120,162.8702240,-250.1374054,-250.1374054,-1.2042773,1.5801650,10.4099360,-0.6870229,-4.5419846,-2.3664122
350,-9.9406748,6.2727766,-12.2774038,111.8854980,-155.4809113,-207.5038147,-1.1611819,1.6017127,10.5871058,-0.4351145,-4.3435116,-2.4427481
360,-14.0443153,6.2823529,-17.1519737,2.0458016,-95.3587799,-107.1832047,-1.1635761,1.5418580,10.6062593,-0.1221374,-4.1526718,-2.2213740
370,-12.0667152,6.7827387,-17.7146072,-80.2213745,-34.1679382,-29.9007626,-1.1539993,1.5921360,10.4171181,0.2900763,-3.5267177,-1.6793894
380,-11.0372133,7.6111283,-16.4983597,-148.7938995,0.8244275,29.5267181,-1.1994889,1.6160779,10.5823174,0.7709923,-2.9389312,-1.8625954
390,-8.5592270,7.2065101,-15.7082767,-206.9389343,24.2748089,80.8244247,-1.1947005,1.5825592,10.5679522,0.9694657,-3.0381680,-1.7938931
400,-6.4643116,6.7348547,-14.4680872,-250.1374054,72.1755753,121.6946564,-1.2617378,1.6400198,10.5607700,0.9770992,-3.3053436,-1.6106870
410,-5.4994531,5.7364779,-12.4521790,-250.1374054,138.8015289,157.3511505,-1.0510491,1.6017127,10.4530315,0.8549618,-3.4732823,-1.7557251
420,-4.7788019,4.8578105,-10.0268650,-250.1374054,204.9465637,189.9541931,-1.2042773,1.6304430,10.5009146,1.0839695,-3.7404580,-1.1450381
430,-4.2305326,4.0246325,-7.8960366,-250.1374054,249.9694672,216.5190887,-1.1611819,1.6184721,10.4578199,0.9160305,-3.9160306,-1.4503816
440,-3.6798692,2.5043221,-5.4683285,-250.1374054,250.1297760,239.8702240,-1.1372399,1.6687500,10.4314833,0.6946565,-4.1603055,-1.4961832
450,-2.5450234,0.9911944,-2.3319404,-250.1374054,250.1297760,250.1297760,-1.1827296,1.7022687,10.4578199,0.5648855,-4.3893127,-1.0229008
460,-1.2066715,0.1963235,0.1292862,-250.1374054,250.1297760,250.1297760,-1.1659702,1.6088953,10.4314833,0.3129771,-4.5572519,-1.2595420
470,-0.1532281,-0.8307837,3.2489152,-250.1374054,250.1297760,250.1297760,-1.1396341,1.6304430,10.4266949,0.2595420,-4.3969464,-1.0229008
480,0.9816177,-1.2832855,6.4978304,-250.1374054,250.1297760,250.1297760,-1.1252691,1.6208663,10.3979645,0.2366412,-4.1679387,-0.9618320
490,1.8818330,-1.8722562,10.3405046,-250.1374054,250.1297760,250.1297760,-1.1037214,1.6495966,10.4985209,0.2442748,-4.3435116,-1.4045801
500,3.0597742,-2.0350611,14.6739874,-250.1374054,250.1297760,226.6183167,-1.2258250,1.5897418,10.4841557,0.0610687,-4.4809160,-1.5648855
510,6.5145893,-1.8363433,19.6126022,-250.1374054,172.0610657,184.3511505,-1.2114599,1.6711442,10.4362717,0.1755725,-4.8702292,-1.3129771
520,13.9485474,0.0430954,19.6126022,-250.1374054,-79.1526718,114.3129807,-1.1013272,1.6208663,10.4913378,0.0534351,-4.7404580,-1.4198474
530,19.6126022,2.2409613,19.6126022,-212.8167877,-250.1374054,-0.7938932,-1.0606259,1.5945302,10.5487986,0.1221374,-4.4198475,-1.0305344
540,19.6126022,1.1132981,19.6126022,-69.1221390,-250.1374054,-164.8473358,-1.1109039,1.6711442,10.4841557,0.5572519,-4.4427481,-1.7557251
550,19.6126022,-3.2034254,19.6126022,84.2290039,-202.3129730,-250.1374054,-1.0486550,1.6591733,10.5128860,0.8244275,-4.2061067,-2.1221373
560,18.3035774,-5.1906028,19.6126022,216.0076294,-163.4580078,-250.1374054,-1.0654143,1.6041069,10.5200682,0.9694657,-4.1908398,-1.9923664
570,8.8489246,-4.4723458,18.4184990,250.1297760,-207.9770966,-250.1374054,-1.0342898,1.6855093,10.4626083,0.9312977,-4.1984735,-1.9770992
580,4.4484038,-2.9879484,15.2773228,250.1297760,-250.1374054,-250.1374054,-1.0342898,1.6472024,10.4626083,1.0458015,-4.0152674,-2.2519083
590,2.2744799,-0.6177009,11.0803089,250.1297760,-250.1374054,-250.1374054,-1.0702027,1.7070571,10.4051476,0.7480916,-3.9465649,-2.1145039
600,1.2856797,1.2138541,6.8282285,250.1297760,-233.2519073,-250.1374054,-1.0797794,1.6926919,10.4458485,0.7251908,-4.1068702,-2.2900763
610,0.1723816,2.1356170,3.1052637,250.1297760,-183.0534363,-250.1374054,-1.1061156,1.6208663,10.3859940,0.5572519,-4.0305343,-2.4580152
620,-0.9983770,2.6216373,-0.8714849,250.1297760,-153.5572510,-250.1374054,-1.0941446,1.6879035,10.3141680,0.0381679,-4.0076337,-2.4427481
630,-2.3894010,2.9975252,-3.9504125,250.1297760,-148.4198456,-250.1374054,-1.0606259,1.6735384,10.3261395,-0.0839695,-4.3893127,-2.8549619
640,-3.9073172,3.4236910,-6.6390872,250.1297760,-143.1755676,-250.1374054,-1.1109039,1.6208663,10.4266949,-0.4580153,-4.3969464,-2.7709923
650,-5.1331420,4.0533628,-8.5544386,226.0534363,-110.9847336,-250.1374054,-1.1156923,1.6591733,10.5104914,-0.4045801,-4.1908398,-2.5954199
660,-8.4203644,4.8554163,-9.1458035,174.3435059,-79.0305328,-250.1374054,-1.2162483,1.5945302,10.4195127,-0.1374046,-4.2137403,-2.7022901
670,-13.7354650,5.6838059,-11.9470053,95.1145020,-56.4351158,-250.1374054,-1.0869620,1.6495966,10.4027529,-0.2213740,-3.9847329,-2.7709923
680,-14.9110117,6.2272868,-12.3181047,20.8473282,-42.5419846,-198.3587799,-1.0749911,1.6591733,10.4554253,-0.3282443,-3.9770992,-2.8473282
690,-16.5797615,6.8186517,-11.6836443,-26.5343513,-15.1832066,-144.4732819,-1.1516051,1.6280488,10.4482431,-0.2977099,-4.1679387,-2.7862597
700,-19.6131992,7.0628591,-12.8304615,-78.8091583,13.4885492,-71.0534363,-1.1683644,1.6112895,10.5009146,-0.6030535,-4.1679387,-2.9083970
710,-19.6131992,6.4355812,-13.5798426,-142.1374054,43.1603050,18.5496178,-1.1539993,1.5610116,10.5200682,-0.3740458,-4.4503818,-2.8091602
720,-17.8630466,5.8921003,-12.1888189,-210.2595367,63.7480927,103.2977066,-1.1132981,1.5825592,10.6206245,-0.0458015,-4.0839696,-3.2748091
730,-13.6588507,4.7835903,-9.6294298,-250.1374054,77.4274826,157.7480927,-1.1276633,1.6663558,10.5727406,0.6030535,-3.6183207,-3.0305343
740,-11.2886028,3.8833754,-7.1897511,-250.1374054,72.2595444,192.2366486,-1.1180865,1.6831152,10.5272512,0.9312977,-3.4274809,-2.8320611
750,-9.2080526,2.4708035,-3.9887197,-250.1374054,67.4809189,218.9694672,-1.1755470,1.6160779,10.4769726,1.3206106,-3.0916030,-2.6030533
760,-6.8354111,2.0949159,-0.0957676,-250.1374054,40.0381660,242.7099304,-1.1372399,1.6663558,10.5009146,1.2595420,-2.9541984,-2.4122138
770,-3.1363883,1.7166338,4.2089849,-250.1374054,-5.9007635,250.1297760,-1.1516051,1.6400198,10.3165627,0.8320611,-3.1526718,-2.4580152
780,0.9361281,1.1085097,8.1163025,-250.1374054,-60.7633591,250.1297760,-1.1899122,1.6759326,10.2782555,0.4122137,-3.2366412,-1.8320611
790,7.7092900,1.4939742,13.9150295,-250.1374054,-126.8167953,236.0839691,-1.1851238,1.7070571,10.3093796,-0.4045801,-4.0992365,-1.3511450
800,15.3730907,3.0789278,19.2157650,-250.1374054,-170.0686951,177.1603088,-1.2162483,1.6352314,10.2974091,-1.1908396,-4.9083967,-1.9923664
810,19.6126022,4.8242917,19.6126022,-143.6641235,-152.1068726,79.5648880,-1.2306134,1.6472024,10.3452930,-2.0992367,-5.5496182,-1.4503816
820,19.6126022,5.6766233,19.6126022,-32.0381660,-107.2290039,-27.6106873,-1.1851238,1.6328372,10.4027529,-2.4885497,-5.2290077,-1.2519084
830,19.6126022,5.3055239,19.1511211,67.5877838,-78.4045792,-128.0229034,-1.2497669,1.6687500,10.4865494,-2.4809160,-5.4427481,-0.4580153
840,18.9954987,3.9911139,15.1600075,149.8473358,-83.3053436,-217.0381622,-1.1851238,1.6208663,10.4745789,-2.3893130,-5.4045801,-0.7099237
850,13.6564569,2.8107784,11.5423870,208.1908417,-106.6030502,-250.1374054,-1.1444225,1.5921360,10.5248566,-2.4351146,-5.3282442,0.2748092
860,8.9111729,2.4708035,8.3389616,239.6717529,-129.9694672,-250.1374054,-1.0821736,1.5825592,10.6302013,-2.0610688,-5.3282442,-0.5877863
870,4.1443419,2.8490853,5.5090299,248.8320618,-121.1145020,-250.1374054,-1.0175306,1.5825592,10.5847120,-1.5419847,-5.3816795,-0.9160305
880,0.6584021,3.1435707,3.5481887,241.3816833,-102.0076370,-250.1374054,-0.8786675,1.5131277,10.6302013,-0.6564885,-5.5038166,-1.2366412
890,-2.1451938,3.5338237,1.4101776,226.0000000,-76.7251892,-250.1374054,-0.8978211,1.5777708,10.6589317,0.5725191,-4.9389315,-2.0839694
900,-4.6255741,3.5457945,-0.6368544,209.8625946,-45.6030540,-250.1374054,-0.9241571,1.6017127,10.5464048,1.4885496,-4.2366414,-2.5267177
910,-7.8361821,3.5960727,-2.2242019,191.2442780,-18.7633591,-250.1374054,-0.9935886,1.6232605,10.5655584,2.0000000,-3.6183207,-2.8167939
920,-11.9661589,3.5170643,-3.7133877,167.9389343,-15.9618320,-250.1374054,-1.0342898,1.6160779,10.5392218,2.4885497,-2.8473282,-2.4656489
930,-16.0530396,3.7493007,-4.9344244,138.8320618,-17.6793900,-242.5725250,-1.0247130,1.6591733,10.4889441,2.7557251,-2.6641221,-2.7633588
940,-19.6131992,4.3646073,-6.3302369,106.5572510,-8.0763359,-171.4503784,-1.0390782,1.6687500,10.4410601,2.7633588,-2.7480917,-2.9083970
950,-19.6131992,3.9887197,-7.6063399,69.0305328,17.6793900,-79.4732819,-0.9911944,1.6783268,10.4673967,2.5038168,-2.7175572,-2.2824428
960,-19.6131992,2.1882892,-8.5783806,13.3740454,62.1984749,41.1832047,-1.0702027,1.6495966,10.5272512,2.2977099,-3.1374047,-3.3511450
970,-19.6131992,1.0247130,-7.3501616,-59.0152664,130.7175598,183.2442780,-1.1348459,1.6687500,10.4386663,2.2671757,-3.4351146,-3.2748091
980,-19.6131992,1.9225341,-5.0254035,-138.2595367,202.2977142,250.1297760,-1.1300575,1.6400198,10.2830439,2.2366412,-3.8015268,-2.9083970
990,-18.8087521,0.4548960,-1.1276633,-199.7709961,250.1297760,250.1297760,-1.1779412,1.5705882,10.4266949,2.0076337,-3.8167939,-2.8473282
1000,-16.1081066,-1.4748207,2.1116750,-237.2671814,250.1297760,250.1297760,-1.1803354,1.5969244,10.4410601,1.6793894,-3.8625953,-2.2061069
1010,-12.4761209,-3.7397239,5.3773494,-250.1374054,250.1297760,250.1297760,-1.2282192,1.5849534,10.4650021,1.8396946,-3.8702290,-1.7862595
1020,-6.0405402,-5.4300218,6.2392578,-250.1374054,250.1297760,250.1297760,-1.2569494,1.5586174,10.3261395,1.7862595,-3.7404580,-1.9312977
1030,1.5586174,-5.2839761,6.2296810,-237.4503784,227.8702240,250.1297760,-1.0342898,1.5298871,10.5128860,2.1679389,-3.7557251,-1.7938931
1040,12.5000629,-3.2632802,7.0077925,-191.9236603,90.8320618,250.1297760,-1.0773853,1.5370697,10.4003592,2.0229008,-4.7022901,-1.5954199
1050,19.6126022,1.5849534,9.9885588,-119.1145020,-87.4961853,250.1297760,-1.0342898,1.5634058,10.4075413,1.0687023,-2.6106870,-2.3511450
1060,19.6126022,9.1074963,14.5662489,-16.0229015,-234.8091583,230.5572510,-1.1851238,1.6495966,10.5344334,1.1755725,-4.6641221,-2.8244274
1070,19.6126022,12.6365318,14.5111818,86.3740463,-250.1374054,17.3969460,-1.3335636,1.6041069,10.5679522,1.3435115,-4.9312978,-1.8244275
1080,19.6126022,13.5535069,11.7889891,148.2290039,-244.6641235,-167.6412201,-1.2832855,1.6807210,10.4099360,1.2977099,-4.6946564,-1.8396946
1090,19.6126022,11.6309719,9.6198530,178.4732819,-244.2519073,-250.1374054,-1.2641320,1.6950861,10.2686787,0.8396947,-3.1526718,-1.2595420
1100,14.0131912,9.5504217,6.8641410,195.9541931,-249.1221313,-250.1374054,-1.3191984,1.7286048,10.1465750,-0.3129771,-1.6793894,-0.7557252
1110,7.2998838,8.8321648,3.9264708,208.3740387,-237.3358765,-250.1374054,-1.3814473,1.7501525,10.0053177,-2.2442749,-2.0763359,0.2061069
1120,2.1643472,7.9463148,1.2856797,214.1908417,-205.7175598,-250.1374054,-1.3072275,1.8531027,9.9981356,-4.7404580,-3.7709923,1.2595420
1130,-3.0406206,7.7763271,-1.0989330,211.3969421,-139.0229034,-250.1374054,-1.1779412,1.7357874,10.1657286,-7.1755724,-6.2977099,0.8320611
1140,-6.5457139,7.9822278,-2.3343346,194.8625946,-99.2977066,-250.1374054,-0.9720409,1.6519908,10.3021975,-8.8396950,-4.9923663,0.3511450
1150,-9.2224178,7.7930865,-4.5872669,167.7022858,-67.4351120,-250.1374054,-1.0390782,1.4820032,10.5535870,-9.1984730,-6.2137403,0.2290076
1160,-11.6501255,7.7619624,-6.2775645,138.1221313,-36.9847336,-196.0152740,-1.0678085,1.4796091,10.6278067,-7.8244276,-7.7557254,-0.7938932
1170,-13.6612453,7.7068958,-7.3597383,110.5801544,-24.1145039,-134.4809113,-1.0199248,1.5059452,10.8001890,-6.2442746,-8.3206110,-1.1755725
1180,-14.6069498,7.6901364,-8.4586716,83.8702316,-14.8015270,-69.8091583,-0.9624642,1.5155219,10.9151096,-4.7175574,-7.2519083,-1.2748091
1190,-14.9110117,7.6638002,-8.9015961,52.5877876,-2.8625953,-7.1679387,-0.9792235,1.4508789,10.7451220,-2.8320611,-5.8778625,-1.7328244
1200,-13.7977142,7.7643566,-8.7675219,13.1145039,17.6870232,52.6335869,-1.0414724,1.5586174,10.4889441,-1.7633588,-5.3664122,-1.3358779
1210,-12.5000629,7.9175844,-8.1234846,-30.6183205,47.3511467,104.2595444,-1.1635761,1.6328372,10.2399483,-2.1679389,-6.0916033,-1.1450381
1220,-11.4059181,7.6949248,-7.2208753,-76.7862625,82.8854980,150.7557220,-1.1563935,1.5538290,10.0532017,-5.0000000,-8.5114508,-0.2671756
1230,-10.5152798,7.3501616,-6.0022330,-118.2977066,118.8167953,191.7862549,-0.9217629,1.7022687,10.2734671,-7.0076337,-9.6183205,-0.0992366
1240,-9.1290445,6.9120250,-4.6088147,-151.8549652,149.7328186,229.3511505,-0.9073978,1.6136837,10.5703468,-7.2290077,-9.6106873,-0.1603053
1250,-7.4794478,6.4714942,-3.3494711,-172.8549652,173.5267181,250.1297760,-0.8379663,1.5227045,10.8121595,-5.5419846,-8.2061071,-0.3358779
1260,-5.2720051,5.9854736,-1.9967541,-186.4045868,188.3053436,250.1297760,-0.7948709,1.5274929,11.0060892,-2.3129771,-6.9236641,-1.6106870
1270,-2.6000898,5.4779053,-1.0223188,-192.9465637,193.2671814,250.1297760,-0.7924767,1.6184721,11.0539722,1.6106870,-4.0152674,-2.5343511
1280,0.8762733,5.6359220,-0.3136388,-194.9541931,184.3206177,250.1297760,-0.8379663,1.6136837,11.0850973,5.6641221,-1.4122137,-3.0076337
1290,4.4555864,6.1099715,0.4118006,-192.2213745,160.0915985,250.1297760,-0.7852941,1.5777708,10.9462337,9.3816795,0.5038168,-2.3664122
1300,8.7483683,6.8042865,2.2098370,-180.9923706,129.1984711,250.1297760,-0.8116302,1.6184721,10.8265247,11.7938929,2.2824428,-2.7404580
1310,12.2103662,7.7116842,4.3837609,-159.1297760,90.5572510,198.0305328,-0.6991033,1.6974803,10.5176744,13.3282442,3.9236641,-2.9618320
1320,15.2102852,8.4490948,6.4571290,-126.0534363,39.9007645,127.1603088,-0.8116302,1.7333932,10.2303715,12.8473282,4.6946564,-3.3893130
1330,16.9987450,8.7148495,8.5927458,-81.6870193,-13.0000000,42.9236641,-0.9026094,1.7094513,10.0388365,11.1145039,4.7404580,-4.0381680
1340,16.8934002,8.4395180,9.6940727,-32.1679382,-57.9694672,-39.9007645,-1.1587877,1.7022687,9.9765873,8.0992365,3.1832061,-4.4503818
1350,14.4728756,7.8361821,9.8496952,16.4503822,-101.0076370,-108.7709961,-1.2282192,1.7573351,9.8736372,4.5572519,0.6030535,-4.3511453
1360,11.3628235,7.0245519,9.2750902,57.4122124,-136.3664093,-154.3358765,-1.3263810,1.7166338,9.8760319,0.9083970,-1.3435115,-4.0229006
1370,8.6765423,6.5241661,8.3629036,88.3969498,-160.8778687,-177.7175598,-1.4269369,1.7262106,9.9239149,-2.2900763,-2.4045801,-3.4732823
1380,6.6127515,6.6797886,7.1346846,110.1603088,-165.8015289,-186.0534363,-1.3622938,1.6328372,10.0292597,-4.4045801,-2.6335878,-2.6259542
1390,5.2001796,7.0173693,5.7460546,125.4427490,-142.8167877,-184.3358765,-1.4508789,1.5873476,10.3476868,-5.6030536,-3.4122138,-2.4961832
1400,3.9216824,7.3166428,4.4675574,132.7328186,-104.2137375,-175.3129730,-1.4748207,1.5274929,10.4578199,-5.8320613,-4.7786260,-2.7251909
1410,2.9256995,7.5656385,3.2728570,131.7251892,-61.7099228,-160.2061005,-1.4580613,1.4484847,10.6421719,-5.5801525,-6.4732823,-2.7633588
1420,2.3726418,7.9487090,1.7980363,123.1221390,-27.0534344,-144.7862549,-1.2761030,1.4389079,10.7235746,-5.0305343,-7.1526718,-2.6335878
1430,1.9584470,8.3365679,0.8140244,110.2519073,-4.7175574,-134.7786255,-1.0606259,1.3934183,10.6804790,-3.6641221,-6.8854961,-1.8091604
1440,1.9536586,8.3174143,-0.0095768,98.5343475,3.6335878,-133.0992432,-0.9600700,1.4460905,10.7834291,-1.8396946,-5.9541984,-2.7938931
1450,1.5610116,8.5903521,-0.5362985,90.5801544,6.7022901,-139.3740387,-0.8212070,1.4700323,10.6493549,0.0916031,-4.7175574,-3.1679389
1460,1.0175306,8.4897957,-1.0486550,88.1832047,6.1145039,-149.3129730,-0.8164186,1.6400198,10.6014709,1.0381680,-3.8854961,-3.6870229
1470,0.1388630,8.2791071,-1.5873476,90.0534363,0.7709923,-159.3206177,-0.7805058,1.6591733,10.5607700,1.5877863,-3.3587787,-4.6259542
1480,-1.5490406,8.0157461,-1.8794388,94.7480927,-11.3664122,-165.0686951,-0.7685348,1.7214222,10.4626083,1.4351145,-3.1832061,-5.4198475
1490,-3.3063757,7.7452030,-2.4372849,98.9007645,-26.4580154,-162.6641235,-0.9050036,1.7621235,10.3644457,1.4732825,-3.1145039,-6.4045801
1500,-5.6478930,7.6470413,-3.5745249,101.8167953,-23.5877857,-147.5725250,-0.9959828,1.8363433,10.4410601,1.1832061,-3.1679389,-6.6030536
1510,-7.6781654,7.7140784,-4.4627690,98.1068726,-12.6259546,-116.1603088,-1.0390782,1.7980363,10.4266949,0.9160305,-3.2137403,-6.5496182
1520,-9.3852224,8.0420828,-6.0285692,82.5801544,19.1068707,-69.4656525,-1.2138541,1.8483143,10.2998028,0.4580153,-3.5343511,-6.2824426
1530,-10.1992474,8.2934723,-7.3860745,53.8396950,80.4198456,-7.6488547,-1.1061156,1.8004304,10.3213511,0.2519084,-4.0763359,-5.5267177
1540,-10.3931761,8.8225880,-8.8417416,10.0152674,166.6564941,65.3816757,-1.0917504,1.7477583,10.2710724,-0.2061069,-3.4656489,-6.3816795
1550,-9.2535419,9.3086090,-9.2870607,-46.5419846,250.1297760,134.3587799,-1.2330076,1.6280488,10.4314833,-0.9541985,-3.2442749,-5.7938933
1560,-7.1945391,8.6956959,-8.7220325,-107.6183243,250.1297760,183.6412201,-1.2449785,1.5634058,10.4985209,-1.1068702,-3.5114503,-5.6946564
1570,-5.2911587,8.0660238,-7.5536675,-164.7251892,250.1297760,212.5114441,-1.3000449,1.5155219,10.4243011,-0.8320611,-3.1374047,-5.0839696
1580,-3.3039815,7.5297260,-5.8130918,-210.4045868,250.1297760,221.8931274,-1.2569494,1.3982066,10.4410601,-0.8167939,-2.9770992,-4.2748094
1590,-1.5298871,7.1562324,-4.2640514,-237.6564941,250.1297760,216.1984711,-1.1923064,1.4245427,10.4650021,-0.4427481,-3.7557251,-4.7633586
1600,0.3758878,6.9239960,-2.0135133,-242.9084015,250.1297760,200.4427490,-1.1611819,1.3479286,10.4195127,-0.7175573,-2.5648854,-4.9541984
1610,3.4931223,6.7851329,1.2641320,-223.3282471,187.7938995,172.4885559,-1.4173602,1.3598996,10.4961262,-0.6106870,-3.0534351,-4.3206105
1620,5.7867560,7.0508881,3.5864959,-179.2748108,80.3435135,132.0686951,-1.4628497,1.3958124,10.5607700,0.0839695,-3.2519083,-3.7633588
1630,7.2041159,7.5177550,5.2600341,-119.6488571,-29.0687027,82.5877838,-1.4628497,1.4341195,10.5009146,0.4503817,-3.7404580,-3.0839694
1640,8.2695303,7.6350703,5.8609757,-53.5343513,-136.7557220,25.7709923,-1.4317253,1.4293311,10.4626083,0.5954198,-3.8396947,-2.7786260
1650,8.3868456,8.0061693,5.7484488,5.4198475,-225.3893127,-29.9236641,-1.3503228,1.5610116,10.4243011,-0.0229008,-4.1984735,-1.9541985
1660,7.6326761,8.6597834,5.0780759,50.1068687,-250.1374054,-74.3053436,-1.2258250,1.5538290,10.3189564,-0.4809160,-4.5190840,-1.8015267
1670,6.3709383,9.1553802,4.2832050,80.8167953,-250.1374054,-104.3358765,-1.2521610,1.6400198,10.3788109,-0.9618320,-5.3969464,-0.7480916
1680,5.1594782,9.3852224,3.2608860,97.5190811,-250.1374054,-120.2824402,-1.1396341,1.6041069,10.2830439,-1.2824427,-5.5648856,-0.5954198
1690,3.5793133,9.2774839,1.6304430,104.6946564,-200.0076294,-123.7175598,-1.0702027,1.7214222,10.3955708,-1.7251909,-6.0305343,-0.8854962
1700,1.8459201,8.9782104,0.3878587,100.7022934,-145.7099304,-114.8702316,-1.0055596,1.6998745,10.4578199,-1.8778626,-6.0992365,-1.1221374
1710,0.4764437,8.6669655,-0.4070122,91.3969498,-105.8854980,-97.7099228,-0.9241571,1.6639616,10.4937325,-1.8091604,-6.1984735,-1.8015267
1720,-0.7829000,8.7794924,-1.1659702,77.2137375,-62.7633591,-73.6793900,-0.8714849,1.6543850,10.4530315,-1.2519084,-5.5648856,-2.7022901
1730,-1.6879035,9.1218615,-1.8746504,59.6717567,-16.1832066,-44.8015251,-0.8068419,1.7309990,10.6038647,-0.7404580,-4.1755724,-3.0763359
1740,-2.1523764,9.0907373,-2.4516499,40.0000000,31.1832066,-13.3435116,-0.9169745,1.6088953,10.6110477,-0.2366412,-3.5877862,-3.3511450
1750,-2.6096666,9.1505919,-2.9209111,19.2748089,74.8702316,17.8702297,-0.9600700,1.7094513,10.5272512,0.0076336,-2.9847329,-3.3893130
1760,-2.5091105,9.0811605,-2.9927368,-1.6946565,102.7557220,46.6793900,-0.9792235,1.6304430,10.3931761,0.1908397,-2.4045801,-3.9541984
1770,-2.1164634,9.0644016,-3.1866663,-20.5267181,121.6183243,69.7251892,-1.0510491,1.6495966,10.3907824,0.1450382,-2.0610688,-4.1603055
1780,-1.4101776,9.3157911,-3.4691806,-37.3816795,135.2061005,89.5190811,-1.0055596,1.6088953,10.5248566,-0.2137405,-1.8625954,-4.1068702
1790,-0.6536137,9.4378948,-3.4907281,-53.3206100,149.7633514,107.1679382,-1.0438666,1.5873476,10.4697905,-0.2213740,-1.8473282,-4.1603055
1800,-0.0909792,9.5384512,-3.4165084,-69.6183243,166.2748108,122.7938919,-1.0725969,1.5322813,10.4602137,-0.3740458,-2.2900763,-4.7633586
1810,0.4094064,9.4690189,-3.4236910,-86.7328262,194.7938995,138.0381622,-1.0438666,1.5681942,10.5631638,-0.3282443,-2.5114503,-4.7022901
1820,0.6464311,9.6030941,-3.2489152,-106.6870193,233.9847260,154.3511505,-1.0606259,1.5586174,10.5152798,0.2748092,-2.2595420,-5.0763359
1830,0.6943150,9.2655134,-2.7293761,-129.8244324,250.1297760,172.1145020,-1.0869620,1.5658000,10.6469603,1.0916030,-1.4427481,-4.5419846
1840,1.1085097,8.8824425,-2.1020982,-154.7709961,250.1297760,187.4732819,-1.1444225,1.6735384,10.4889441,1.4885496,-1.1908396,-4.6183205
1850,1.6184721,8.4730368,-1.1779412,-177.1603088,250.1297760,195.4732819,-1.1132981,1.7118455,10.5033092,1.2213740,-1.3435115,-4.0763359
1860,1.9919657,7.9606800,0.1125269,-195.0458069,250.1297760,198.3053436,-1.1635761,1.6974803,10.3692341,1.2290076,-1.9312977,-3.8167939
1870,2.6623387,7.2855186,1.7333932,-205.9465637,250.1297760,195.1145020,-1.1396341,1.6974803,10.3931761,0.6259542,-1.9312977,-3.6412213
1880,3.5338237,6.9982157,3.5553713,-205.7099304,250.1297760,186.9694672,-1.1156923,1.5921360,10.3931761,0.3664122,-2.1221373,-3.8015268
1890,5.1211715,6.6654234,5.6191626,-190.9465637,229.2748108,167.8854980,-1.2066715,1.6232605,10.3620520,-0.2519084,-2.9389312,-4.0763359
1900,7.5369086,6.2440462,8.0253229,-159.6030579,141.0000000,133.3969421,-1.4053892,1.5442522,10.3500814,-1.1526718,-1.8396946,-3.3664122
1910,9.7491398,6.4691000,10.2255831,-113.5725174,31.1755733,82.0229034,-1.3407460,1.4963684,10.5631638,-0.2519084,-3.1679389,-3.2290077
1920,13.0411501,7.1466556,12.1122046,-56.0610695,-100.6717529,7.7862597,-1.3766589,1.3551112,10.5487986,-0.5725191,-2.1526718,-2.4961832
1930,16.2397861,7.5177550,13.9796724,10.5114508,-250.1374054,-100.0839691,-1.4484847,1.3407460,10.5751352,-0.4580153,-1.9541985,-2.9923663
1940,15.7633438,6.3589673,13.9533358,82.0687027,-250.1374054,-226.7328186,-1.4389079,1.3527170,10.4482431,0.4732825,-3.0534351,-1.6412214
1950,12.0691090,5.2408805,12.2893744,141.5801544,-250.1374054,-250.1374054,-1.5035510,1.2066715,10.4123297,0.2595420,-1.3740458,-1.3893130
1960,7.5273318,5.0996237,10.8241301,180.5801544,-250.1374054,-250.1374054,-1.4772149,1.2976507,10.4673967,0.3740458,-3.6488550,-2.0000000
1970,4.3382711,5.1068063,8.8728657,207.3358765,-250.1374054,-250.1374054,-1.5011568,1.3168042,10.5152798,0.3816794,-5.0534353,-1.5877863
1980,2.3032103,5.9639258,6.2392578,224.2824402,-250.1374054,-250.1374054,-1.3598996,1.4317253,10.3979645,0.0687023,-6.0000000,-1.7328244
1990,0.9050036,7.0939832,2.5976956,232.0000000,-250.1374054,-250.1374054,-1.3215926,1.5059452,10.4506369,-0.7557252,-6.4580154,-1.2519084
2000,-0.4692611,8.8968077,-1.5011568,224.9694672,-250.1374054,-250.1374054,-1.2473727,1.6304430,10.3069859,-1.5419847,-6.9770994,-0.6412213
2010,-0.7613522,10.0196829,-5.3031297,197.8473358,-250.1374054,-250.1374054,-1.1037214,1.5993185,10.3955708,-2.0381680,-7.2900763,-1.4198474
2020,-2.2002602,10.1657286,-8.3222027,149.0534363,-250.1374054,-250.1374054,-1.0271072,1.5945302,10.4386663,-2.5038168,-7.3816795,-1.0839695
2030,-4.1730723,9.5815458,-9.6749191,81.8702316,-224.2366486,-230.9313049,-0.9050036,1.5969244,10.4051476,-2.2671757,-6.9160304,-0.9007633
2040,-6.2009506,9.1960821,-9.2343884,11.4961834,-179.6335907,-185.4885559,-0.8643024,1.5921360,10.5080976,-1.9541985,-6.0992365,-2.2519083
2050,-8.1570034,8.8369532,-7.3262196,-49.2595406,-110.9389343,-124.2977066,-0.9792235,1.5825592,10.6373835,-1.0534351,-5.1450381,-2.2442749
2060,-9.8903971,8.5711985,-5.2073622,-98.7557220,-25.6564884,-43.7938919,-0.9409165,1.6519908,10.5823174,-0.2748092,-4.2290077,-3.0305343
2070,-11.5735121,8.0157461,-4.2281384,-142.3206177,80.5877838,47.9389305,-0.9361281,1.6232605,10.5487986,0.1832061,-3.4045801,-2.7709923
2080,-13.8671455,6.8952656,-4.7716198,-192.0076294,193.8244324,149.4885559,-0.9792235,1.6088953,10.4219065,0.8396947,-2.4427481,-3.3053436
2090,-14.2190914,5.5497313,-4.4292507,-248.9389343,250.1297760,250.1297760,-0.9744351,1.7094513,10.4386663,0.9923664,-2.5343511,-3.4885497
2100,-12.7921543,4.0820932,-2.5976956,-250.1374054,250.1297760,250.1297760,-0.9672526,1.7429699,10.3572636,0.9465649,-2.7251909,-3.4732823
2110,-10.3237448,2.5282640,-0.0191535,-250.1374054,250.1297760,250.1297760,-1.0055596,1.7621235,10.4123297,0.5267175,-2.8167939,-3.3129771
2120,-7.7499914,1.3886299,2.6910689,-250.1374054,250.1297760,250.1297760,-1.0941446,1.7238164,10.4243011,0.2213740,-2.9083970,-3.7862597
2130,-3.0621684,0.4501076,5.5210009,-250.1374054,250.1297760,250.1297760,-1.1779412,1.7309990,10.4769726,0.1450382,-3.1603053,-3.4274809
2140,5.1953912,1.0318956,10.1896706,-250.1374054,250.1297760,250.1297760,-1.2784972,1.6879035,10.3812056,0.1755725,-3.7022901,-3.0992367
2150,17.2621059,2.6982515,16.6228580,-250.1374054,149.3282471,250.1297760,-1.2186425,1.6400198,10.4338779,-0.1603053,-3.7557251,-2.5496182
2160,19.6126022,5.7508430,19.6126022,-125.9770966,0.9312977,106.0610657,-1.3431402,1.5825592,10.3141680,-0.9389313,-4.6106873,-2.3206108
2170,19.6126022,6.2272868,19.6126022,22.6717548,-132.9541931,-107.2595444,-1.2258250,1.4891858,10.3692341,-1.7099236,-5.7099237,-1.3740458
2180,19.6126022,4.1994085,19.1726685,152.2748108,-242.0915985,-250.1374054,-1.2521610,1.4173602,10.4099360,-2.9083970,-6.9847326,-1.3053435
2190,13.2374735,2.3510940,15.2390156,238.6183167,-250.1374054,-250.1374054,-1.2042773,1.3527170,10.4195127,-3.9465649,-7.8549619,-0.8473282
2200,7.3932571,1.9656296,10.9869356,250.1297760,-250.1374054,-250.1374054,-1.1324517,1.3383518,10.4697905,-4.1374044,-8.1374044,-1.9312977
2210,2.9735832,2.8730273,6.9455438,250.1297760,-250.1374054,-250.1374054,-1.0271072,1.3359578,10.5176744,-4.0152674,-8.2595415,-2.2213740
2220,-0.1604107,4.3957319,3.3398943,250.1297760,-250.1374054,-250.1374054,-1.0318956,1.3910241,10.6493549,-3.3740458,-7.5267177,-3.4809160
2230,-2.6000898,6.0094156,-1.0151364,250.1297760,-246.1145020,-250.1374054,-1.0797794,1.5274929,10.5535870,-2.2519083,-6.9007635,-4.4732823
2240,-4.6423335,7.2974896,-4.5441718,203.7175598,-184.2671814,-250.1374054,-1.0965388,1.5394639,10.4506369,-1.6259542,-6.0458016,-3.5725191
2250,-7.0006099,7.4794478,-6.8378053,137.9084015,-116.8931274,-250.1374054,-1.1228749,1.6495966,10.3716288,-1.7175573,-5.4427481,-3.2061069
2260,-10.2974091,7.5249376,-7.4842362,71.2061081,-66.2290039,-250.1374054,-1.1492109,1.6232605,10.2136126,-2.3282442,-4.6564884,-2.8931298
2270,-12.5647058,7.9558916,-6.8473821,10.1068707,-43.2519073,-196.6183167,-1.3694763,1.4317253,10.0603838,-3.4732823,-4.5267177,-2.6335878
2280,-17.0011387,7.7475972,-6.9862447,-41.4503822,-3.7557251,-119.1297684,-1.3479286,1.0079538,10.0364418,-5.2137403,-6.1068702,-2.1526718
2290,-19.6131992,6.9479380,-6.8569584,-87.9083939,46.9694672,-15.2519083,-0.9792235,0.9026094,10.1322098,-7.7633586,-6.3587785,-2.7786260
2300,-19.6131992,5.6239510,-5.6957769,-128.2061005,78.6412201,104.3282471,-0.3710994,1.0438666,10.4626083,-11.5954199,1.1984733,-4.5419846
2310,-18.7919922,5.6766233,-4.3358769,-164.2213745,114.9923630,217.9847260,0.3184272,1.2282192,11.3843708,-16.5648861,30.6412220,-3.8702290
2320,-15.5478659,5.1929970,-2.6527619,-196.4580078,159.0381622,250.1297760,0.9433106,1.2066715,12.8567972,-17.9694653,84.6106873,-2.2900763
2330,-12.1337519,4.1539187,-0.8499373,-220.7862549,186.0076294,250.1297760,0.5291159,0.3663110,13.9892492,-10.9083967,155.7022858,2.0916030
2340,-8.5089493,3.3015873,0.7661406,-237.8931274,199.6488495,250.1297760,-1.5418580,-0.6200951,13.8623571,7.1755724,226.0152740,9.1145039
2350,-4.7021880,2.7892308,1.9895715,-248.5572510,201.3893127,250.1297760,-3.5625539,-0.8595140,15.7202482,29.4274807,250.1297760,25.3969460
2360,-0.9720409,2.7940190,2.9328821,-250.1374054,192.2824402,250.1297760,-8.1234846,0.0047884,18.0138817,57.9618340,250.1297760,54.2213745
2370,4.1706781,2.5043221,4.8530221,-245.4961853,154.6564941,250.1297760,-12.7466650,1.2521610,19.6126022,98.1526718,250.1297760,101.9465637
2380,12.4330254,3.1794837,8.2815018,-212.7480927,86.4885483,250.1297760,-14.6979294,1.1875180,19.6126022,137.9465637,250.1297760,158.5267181
2390,19.6126022,4.8625989,10.9845409,-157.5725250,-4.9389315,213.5038147,-13.0363617,-1.1228749,19.6126022,172.1526642,235.0458069,203.6870270
2400,19.6126022,7.1059542,15.3084478,-77.0152664,-98.5114517,8.6793890,-7.1394730,-1.4628497,19.6126022,199.8320618,87.5801544,208.7938995
2410,19.6126022,5.8418221,16.9795914,16.8549614,-172.4961853,-213.3206177,-0.3567342,-2.9544299,19.6126022,213.9770966,-19.2442741,155.4427490
2420,19.6126022,2.7748656,16.1990852,110.2748108,-249.5419922,-250.1374054,0.7182568,-4.1539187,19.6126022,233.7480927,-106.6870193,80.6488571
2430,14.2310619,0.4788379,13.3308468,177.7251892,-250.1374054,-250.1374054,-0.5913648,-4.1922259,18.5621510,250.1297760,-179.5877838,15.7251911
2440,9.4019823,1.2928623,9.9047613,203.4732819,-250.1374054,-250.1374054,-0.3399749,-2.9783716,14.5901909,250.1297760,-217.0763397,-32.6564903
2450,3.9887197,2.8586621,6.0022330,204.5496216,-250.1374054,-250.1374054,-0.1364688,-1.1516051,9.7180147,250.1297760,-206.6030579,-68.2442780
2460,-1.7621235,4.9631548,2.6551561,188.0458069,-250.1374054,-250.1374054,-0.7278336,1.1516051,4.9080882,250.1297760,-168.8854980,-88.5725174
2470,-7.6063399,5.8609757,0.3758878,161.0610657,-222.6717529,-250.1374054,-1.9847831,3.4308734,1.1587877,250.1297760,-128.6259613,-94.6412201
2480,-13.1105814,5.7269011,-1.2210367,129.6717529,-169.0992432,-250.1374054,-3.3949606,5.0613165,-2.2098370,250.1297760,-100.8702316,-89.0839691
2490,-17.3913918,5.3725610,-2.2816625,94.3740463,-116.4122162,-250.1374054,-4.5345950,6.0716643,-4.4747400,250.1297760,-88.5496216,-72.8244247
2500,-19.2444954,5.2384863,-1.7693061,60.4961815,-69.1679382,-210.6183167,-5.1187773,6.9670911,-5.9782910,223.3511505,-92.8015289,-51.8778610
2510,-19.6131992,5.9639258,-2.5019281,22.0305347,-20.2137413,-76.1450348,-4.4388270,7.9750452,-6.7994981,164.3206177,-103.6717529,-32.4961815
2520,-19.6131992,5.3294659,-2.9568241,-21.4961834,54.9389305,77.6946564,-3.4045374,8.2599535,-7.1897511,107.9236679,-109.8320618,-18.8091602
2530,-19.6131992,3.7014170,-3.3494711,-76.8015289,127.2137375,239.4274750,-2.5210814,8.3126259,-6.8401995,54.8320618,-115.5419846,-11.7175570
2540,-19.6131992,2.1380112,-2.6240315,-143.1374054,192.1145020,250.1297760,-2.2122312,8.0803890,-5.8561873,6.4351144,-119.0992355,-8.2366409
2550,-18.9021263,1.0414724,-0.8283895,-203.8167877,242.4656525,250.1297760,-1.8124014,7.4698710,-4.0342093,-35.2366409,-117.6870193,-3.4732823
2560,-14.0802279,-0.4979914,1.3646880,-249.7557220,250.1297760,250.1297760,-1.3622938,6.9407554,-1.7477583,-63.9083977,-110.8778610,0.1984733
2570,-8.9494801,-1.9464760,3.1244173,-250.1374054,250.1297760,250.1297760,-1.2018831,6.5074067,0.3447633,-76.9847336,-101.4198456,0.8320611
2580,-3.6439564,-3.0765336,5.3342543,-250.1374054,224.3587799,250.1297760,-1.2689204,6.2512288,1.3934183,-81.3053436,-96.6870193,-1.6641221
2590,3.9192882,-1.8722562,7.6326761,-250.1374054,165.1526642,250.1297760,-0.9576758,5.7460546,1.7477583,-87.0076370,-100.9312973,-7.0610685
2600,13.7330704,-0.0766141,10.3117743,-216.9541931,97.3282471,250.1297760,-0.6368544,5.5162125,1.8195840,-98.0076370,-115.3587799,-15.6259546
2610,19.6126022,2.7221935,13.7426472,-129.4885559,19.7633591,250.1297760,-0.8978211,5.4659348,1.2761030,-117.2442780,-154.4351196,-28.2290077
2620,19.6126022,4.2448978,14.9134064,-30.3511448,-59.0076332,160.3358765,-0.9911944,5.2289100,0.6727672,-146.4961853,-211.0305328,-41.8167953
2630,19.6126022,3.0406206,13.8934813,54.2061081,-136.3206177,-119.5801544,-1.2521610,5.1642666,0.1268920,-184.2290039,-250.1374054,-54.9618340
2640,19.6126022,0.8499373,11.9781294,104.0000000,-200.0686951,-250.1374054,-1.2737088,5.0134325,-0.2753318,-227.9160309,-250.1374054,-61.1908379
2650,19.6126022,-0.8499373,10.1776991,126.0457993,-236.9313049,-250.1374054,-1.1156923,4.3574247,0.4668669,-250.1374054,-250.1374054,-57.8549614
2660,12.5982246,-0.0359128,9.1386213,136.1984711,-228.0915985,-250.1374054,-0.2370248,3.1579359,2.0518203,-250.1374054,-250.1374054,-43.8702278
2670,5.0445571,2.1427996,7.8002691,142.8320618,-196.7862549,-250.1374054,1.6831152,3.0549858,5.0589223,-250.1374054,-250.1374054,-24.7709923
2680,-0.0694315,3.9623835,5.5569139,147.6106873,-134.2671814,-250.1374054,3.0358322,2.0111191,7.4387465,-250.1374054,-232.9389343,-10.1450386
2690,-5.0445571,5.6454988,3.3710186,149.6335907,-62.9236641,-250.1374054,3.9432299,0.0383070,10.1489687,-250.1374054,-125.6183243,3.1755726
2700,-8.5281029,6.6390872,0.9816177,142.6030579,5.1374044,-250.1374054,3.9791429,-1.3383518,13.2805691,-250.1374054,-24.4274807,13.9541988
2710,-11.2072010,7.2591825,-1.7142396,122.7709961,61.0610695,-250.1374054,4.0078731,-2.0254843,15.1600075,-227.7709961,53.7404594,11.7709923
2720,-13.7618008,7.7092900,-3.4500270,94.7480927,106.5725174,-196.6412201,3.7205703,-2.1308286,15.9189653,-173.0839691,113.3587799,2.1450381
2730,-15.5335016,7.7691450,-4.3717899,66.4274826,124.7251892,-102.9923630,3.4356618,-1.7836711,15.6891232,-124.6641235,168.7328186,-7.3893127
2740,-15.8255920,8.0037756,-5.2384863,34.4961815,126.3053436,-15.6793890,3.1962428,-1.4891858,15.2749290,-88.4274826,236.5877838,-14.0610685
2750,-15.6963062,8.3102312,-5.5808558,-4.0916033,126.4198456,56.2900772,1.6280488,-0.8858501,16.0530396,-55.7022896,250.1297760,-12.8244276
2760,-15.8016500,8.4610653,-4.9009056,-41.8244286,131.6870270,117.2900772,-1.1779412,-0.6584021,17.1807041,-17.1603050,250.1297760,-1.0916030
2770,-15.9524841,7.9343438,-3.8450682,-72.3435135,144.2213745,176.1679382,-5.4348102,0.1484398,19.4887028,26.6335869,250.1297760,22.7404575
2780,-15.1121235,7.1801744,-3.1172347,-95.5725174,142.9541931,229.5648804,-8.4395180,0.9911944,19.6126022,75.8244247,250.1297760,61.6793900
2790,-13.3308468,6.8952656,-2.4540441,-114.6641235,135.5572510,250.1297760,-8.6214762,1.6136837,19.5341911,119.3206100,250.1297760,101.7633591
2800,-11.5854826,6.9742737,-2.5067163,-128.3816833,125.8320618,250.1297760,-7.4004397,2.2457497,18.4376526,148.2137451,250.1297760,127.0152664
2810,-9.1721401,6.8162575,-2.3606708,-138.3206177,117.6030502,250.1297760,-6.0716643,2.0302727,17.5781384,164.5954132,250.1297760,133.0839691
2820,-6.9455438,5.9854736,-1.8578910,-143.7328186,105.3129807,250.1297760,-5.0972295,1.4484847,16.9317074,178.5267181,250.1297760,121.2824402
2830,-4.8410511,4.7213416,-1.6112895,-146.9084015,86.1984711,250.1297760,-4.6662750,1.5801650,16.1583843,194.9389343,250.1297760,97.6412201
2840,-2.3989778,3.1459649,-1.2784972,-144.0610657,37.6946564,250.1297760,-4.9966736,1.7908537,14.1783895,207.5496216,250.1297760,67.9083939
2850,2.0781565,2.0637913,-0.2825144,-130.6870270,-40.3358765,250.1297760,-5.1666608,1.2425843,11.7004042,211.2290039,156.5877838,37.2977104
2860,10.1920643,2.7102225,1.5873476,-108.9083939,-116.0457993,250.1297760,-4.8027439,1.1276633,9.2942438,209.0534363,52.3053436,7.9770994
2870,17.6619358,4.2065907,5.2145448,-77.4580154,-200.6259613,212.5572510,-4.2065907,1.6400198,7.1490498,197.1297760,-17.2442741,-22.5419846
2880,19.6126022,5.5736732,8.3796635,-45.8320618,-242.9389343,85.9618301,-3.4260850,2.0326669,4.6926112,178.5114441,-68.3282471,-56.0534363
2890,19.6126022,6.7420373,11.4202833,-26.6488552,-207.3129730,-39.8396950,-3.3303175,2.9352763,3.0214672,154.2137451,-90.8167953,-84.5725174
2900,19.6126022,7.0101867,12.9908724,-16.6106873,-121.1145020,-136.4503784,-3.9528067,3.7493007,1.7190280,130.1145020,-87.3206100,-99.0000000
2910,19.6126022,6.5816269,12.7921543,-7.6412215,-48.4732819,-199.6030579,-4.1060348,4.7021880,0.4261657,106.5496216,-61.2519073,-102.0152664
2920,14.5518837,5.6766233,10.8361015,2.4580152,-48.1374054,-237.7099304,-4.3095412,5.3534074,-0.2442073,81.5343475,-32.5648842,-100.3282471
2930,11.5854826,3.8546450,7.8481531,13.6946564,-71.4656525,-250.1374054,-4.8051381,5.7388721,-0.3830703,53.4885483,-23.5877857,-97.3129807
2940,8.6310530,4.0294209,5.9950504,28.5877857,-89.8625946,-250.1374054,-4.8218975,5.3965030,-0.6871324,22.4351139,-47.3358765,-96.8244247
2950,6.1961622,5.0900469,5.3055239,47.0610695,-109.1145020,-250.1374054,-5.3893204,5.0780759,-0.7709290,-10.5190840,-86.6641235,-98.5801544
2960,3.6894460,5.5545197,4.2353210,65.1450348,-110.7251892,-250.1374054,-6.3565731,5.1738434,-0.7493813,-48.2366409,-137.3511505,-98.0229034
2970,1.5035510,6.5074067,3.0837159,79.3969498,-97.1450348,-250.1374054,-7.2639709,5.6478930,-0.1388630,-86.4274826,-185.4045868,-92.2748108
2980,-0.5147507,7.2089043,2.1667414,88.4274826,-67.4274826,-250.1374054,-7.7787213,6.0908179,1.1348459,-120.0305328,-222.3969421,-80.4427490
2990,-2.5330524,7.2232695,1.0965388,93.0305328,-30.8625946,-250.1374054,-7.9223728,6.1722202,2.5162930,-145.9541931,-245.1755676,-62.9923668
3000,-4.4077029,7.2136927,0.0215477,91.9618301,-0.0610687,-247.1068726,-7.4148049,5.8154860,3.7253587,-163.7480927,-250.1374054,-41.3358765
3010,-5.9878678,6.8761120,-0.9313397,82.8244247,14.7251911,-226.4274750,-6.4882536,5.1522956,4.8649931,-172.4427490,-249.8549652,-21.8549614
3020,-8.3317795,6.0836353,-1.5705882,69.3969498,29.6793900,-211.9313049,-5.4611464,4.2209558,5.8226686,-172.9007568,-243.7328186,-5.2824426
3030,-9.0763721,6.0980005,-2.2529323,53.0458031,33.7709923,-201.6870270,-4.2999644,3.3327117,6.3685441,-166.5801544,-234.0381622,6.0458016
3040,-10.3572636,6.6582408,-2.2050486,31.3816795,17.6183205,-193.0534363,-3.2560976,2.7221935,6.6845770,-157.3129730,-219.5496216,14.9541988
3050,-13.0243902,6.5241661,-1.9728121,5.0916033,3.8625953,-179.8778687,-2.5091105,2.1906834,6.7157016,-148.6946564,-199.6793823,21.4732819
3060,-16.7569313,6.4810710,-1.4628497,-22.4656487,1.3740458,-149.5648804,-2.0685797,1.6424140,6.6630292,-144.6106873,-174.3893127,25.2519093
3070,-19.6131992,6.4188218,-1.1204807,-48.0228996,8.6106873,-92.1297684,-2.1835008,1.5203103,6.9934273,-146.1755676,-145.8473358,29.3816795
3080,-19.6131992,6.4978304,-0.8595140,-67.4351120,18.9160309,-15.0229006,-2.6671271,1.4867916,7.5369086,-151.1374054,-119.2442780,35.4045792
3090,-19.6131992,6.3637557,-0.9265513,-79.3282471,28.1297703,72.2290039,-3.3494711,1.3598996,8.1665802,-157.5267181,-98.0457993,43.7709923
3100,-19.6131992,6.3781209,-1.2162483,-85.5877838,50.0305328,155.7557220,-4.1227942,0.9768293,9.0572186,-162.1908417,-85.9465637,53.8320618
3110,-17.4727955,5.6191626,-1.6136837,-94.1068726,81.3664093,235.3816833,-4.9894910,0.3974355,10.2351599,-163.4656525,-84.1297684,64.9160309
3120,-14.6739874,4.5345950,-1.3910241,-105.8549652,125.0687027,250.1297760,-5.5257893,0.1604107,11.1808643,-162.5114441,-92.9465637,77.6488571
3130,-11.0252428,3.3638363,-0.4429250,-118.3664093,160.7862549,250.1297760,-4.7859845,-0.2753318,11.5639353,-158.5496216,-102.6641235,91.5114517
3140,-6.7611909,2.5426292,0.9744351,-126.9618301,177.4274750,250.1297760,-3.4739690,-1.5610116,12.0020714,-152.7328186,-109.6412201,101.0916061
3150,-2.3941894,1.8746504,2.3271523,-124.9312973,158.4045868,250.1297760,-2.0206959,-2.5905130,12.9477768,-140.0610657,-108.1297684,104.4503784
3160,4.0892754,1.6950861,4.4531922,-105.0457993,133.5954132,250.1297760,-0.4596844,-2.5067163,13.3164816,-119.8015289,-102.8091583,97.4045792
3170,11.2646618,2.2720859,8.7651272,-57.8015251,94.8625946,250.1297760,0.3782819,-2.5881188,13.1057930,-98.1679382,-100.9236679,83.7328262
3180,18.1264076,4.9727316,13.8791161,19.1374054,10.3435116,246.8091583,0.6512195,-2.3271523,12.4833040,-85.1603088,-102.6030502,70.5877838
3190,19.6126022,7.5153608,15.9764261,117.1145020,-86.2442780,142.4885559,-5.6167684,-1.6807210,17.7720680,-116.7022934,-169.5343475,80.9007645
3200,19.6126022,7.8433647,13.1321287,199.1221313,-89.9923630,42.1221390,-0.6224893,-4.5034704,19.6126022,-138.0839691,-161.9694672,92.9236679
3210,19.6126022,9.0380650,9.7778702,244.4809113,-45.7480927,-30.1908398,4.2999644,-6.2560172,18.2102051,-98.3816757,-142.0000000,42.5419846
3220,16.8239689,9.8401184,3.1699069,244.9770966,-26.7480907,-77.9923630,2.3654592,-3.4524212,12.9717188,-38.3969460,-151.3816833,3.2137403
3230,13.5199881,11.1832590,-0.2873027,108.9694672,-123.0076370,-135.5954132,1.4963684,-1.1731528,9.7084379,-8.8396950,-132.4656525,-0.8396947
3240,12.2750092,11.0443964,-0.4572902,59.8167953,-197.3969421,-168.2977142,0.5769997,-0.3040621,7.7404146,-6.1450381,-83.1755753,15.0610685
3250,10.7163916,8.0947542,1.3096216,46.1679382,-103.8778610,-181.0915985,0.1819584,-0.0383070,7.3022780,-17.3129768,-26.3282452,41.3511467
3260,7.6326761,7.8984308,1.6017127,56.8015251,-20.9312973,-188.7786255,1.1156923,-0.7062859,8.4107876,-27.7404575,23.1374054,62.2519073
3270,5.3031297,8.3557215,1.9847831,67.2748108,1.7938931,-195.8015289,1.0917504,-1.4053892,9.7730818,-27.9312973,61.1450386,72.9312973
3280,2.9927368,8.0157461,2.0877333,75.0152664,-22.5038166,-206.9541931,1.0606259,-1.8722562,12.9693241,-15.5801525,70.0076370,75.0763321
3290,0.9409165,7.4052281,1.4197544,84.4427490,-39.1984749,-218.4580078,1.4796091,-2.3175755,15.2414103,9.1068707,71.5496216,71.5267181
3300,-0.9624642,6.9168134,0.3208214,94.1374054,-55.4045792,-232.2442780,2.0063307,-2.7150109,15.2102852,36.5954208,89.1145020,65.3206100
3310,-3.0478032,6.3541789,-1.1994889,97.3816757,-74.7328262,-250.1374054,1.9656296,-2.5043221,14.0131912,59.2061081,112.8167953,58.3740463
3320,-6.0213866,5.8035154,-2.2529323,92.4427490,-96.3893127,-250.1374054,1.4772149,-1.8722562,12.7251167,73.7786255,148.3358765,51.6488533
3330,-9.2726955,5.9495606,-2.8634505,82.7022934,-105.1145020,-250.1374054,0.8259954,-1.3766589,12.8591919,94.7557220,159.2977142,47.1908379
3340,-13.2183199,4.9894910,-3.6750808,70.2061081,-89.3893127,-225.0381622,0.4381367,-1.7238164,11.2790270,110.4274826,152.6259613,39.8244286
3350,-17.5589848,4.9775200,-4.1539187,50.4122124,-63.6030540,-165.4122162,-0.6919208,-1.4245427,9.9334917,116.0152664,138.3129730,30.5343513
3360,-19.6131992,5.3270717,-4.3646073,21.4274807,-26.6030540,-85.4809189,-1.2330076,-0.6488253,9.1242561,112.3358765,113.0763321,17.9694653
3370,-19.6131992,5.6526814,-4.1227942,-4.4351144,20.8167934,0.6335878,-2.0925217,-0.0407012,8.2216463,98.9923630,79.1984711,1.0076336
3380,-19.6131992,5.6862001,-3.7516949,-24.0458012,83.3511429,75.7709961,-2.9903426,0.7374104,6.6630292,71.0916061,37.3053436,-15.8244276
3390,-18.0689487,6.1051831,-3.0861101,-39.6030540,138.1603088,134.7557220,-3.5793133,1.1899122,5.6622581,33.6030540,-9.7938929,-31.1908398
3400,-15.6579990,6.1985564,-2.5091105,-53.1450386,157.8702240,179.3282471,-3.8953462,1.4772149,5.2073622,-7.0992365,-48.7862587,-42.5496178
3410,-13.3069048,5.8992829,-2.1643472,-65.0076370,144.3664093,209.4045868,-4.2712340,1.7860653,5.8490047,-45.0610695,-80.8320618,-45.9312973
3420,-10.8073711,5.7221127,-1.4221486,-71.2519073,118.8396912,232.1755676,-4.4268565,1.6088953,7.2136927,-74.9007645,-103.0992355,-43.9007645
3430,-7.7811155,5.7412663,-1.0510491,-67.8625946,96.2671738,249.3664093,-4.3646073,1.0031654,8.6095057,-92.5954208,-117.9389343,-38.8625946
3440,-5.4036856,5.8394279,-0.8403605,-68.5954208,97.6183243,250.1297760,-4.0940638,0.4692611,10.0843258,-98.1984711,-125.0381699,-32.3969460
3450,-2.9496415,5.4635406,-0.5506636,-67.4961853,105.9312973,250.1297760,-3.4524212,-0.0622489,11.7171631,-91.6030502,-125.7251892,-27.1755733
3460,0.4429250,5.4898763,-0.2059003,-68.3664093,100.6641235,250.1297760,-2.6599445,-0.3303981,12.7658186,-74.2137375,-122.0152664,-23.6870232
3470,5.0373745,5.8490047,0.3830703,-68.3740463,61.2595406,250.1297760,-1.9105632,-0.6895266,13.1967726,-51.2137413,-114.4045792,-20.6259537
3480,9.6102762,6.3398137,1.1970947,-64.7175598,12.8702288,248.8625946,-1.4676381,-0.9983770,13.0100250,-28.4427490,-105.7709961,-17.3664131
3490,15.1983147,8.1043310,2.9400647,-51.6412201,-37.8167953,199.7938995,-0.9720409,-0.8714849,12.2630386,-8.8931293,-93.5496216,-11.8778629
3500,19.6012287,9.6246414,4.8123207,-28.2748089,-74.2519073,130.7862549,-0.5674229,-0.8499373,11.3843708,1.5267175,-84.0534363,-9.4351149
3510,19.6126022,10.3859940,5.6143742,-2.9389312,-82.6641235,52.6259537,-0.2394189,-0.8690908,10.5104914,6.1755724,-75.9236679,-7.2671757
3520,19.6126022,10.5535870,5.9926562,20.0534344,-79.0610657,-20.4809170,-0.0311245,-0.9528874,9.8425131,5.3053436,-70.0610657,-5.7480917
3530,18.2269650,9.7515335,5.7197185,42.1145020,-72.3740463,-83.2824402,0.0718257,-0.8595140,9.5576038,-1.4045801,-67.9312973,-3.4732823
3540,14.9134064,8.9494801,4.8865409,63.9923668,-68.4961853,-129.6793823,0.3160330,-0.9361281,9.5432396,-11.1297712,-65.9312973,-1.6488550
3550,11.5447817,8.4467001,3.8522508,84.0000000,-65.7938919,-159.9007568,0.6679789,-0.9768293,9.9119444,-19.3129768,-59.6946564,-0.3053435
3560,8.8489246,8.5304966,2.1978660,98.1450348,-54.9236641,-177.1832123,0.7757174,-1.1228749,10.4362717,-23.1984730,-52.8320618,0.4580153
3570,6.4403696,8.7076674,0.3974355,101.2366409,-38.1832047,-189.4885559,0.9433106,-1.3168042,11.0156660,-21.9618320,-44.8015251,1.5801526
3580,4.2353210,8.8417416,-1.2976507,99.3587799,-31.5572510,-200.4198456,1.1635761,-1.2042773,11.4131012,-16.7862587,-34.9083977,1.3206106
3590,1.5155219,8.5927458,-2.8514795,92.5267181,-27.3129768,-209.9313049,1.1779412,-1.1851238,11.5591469,-9.9389315,-22.8931293,1.3206106
3600,-0.8978211,8.2264347,-3.8714044,87.9770966,-32.7938919,-215.8244324,1.0917504,-1.0797794,11.4873209,-2.8549619,-12.1374044,1.6717557
3610,-3.9192882,7.6566176,-4.9535780,83.7404556,-45.7480927,-217.0229034,0.9672526,-1.0941446,11.3939476,3.8015268,-4.0687022,1.8091604
3620,-7.0963774,7.3094602,-6.0644817,76.2519073,-61.6259537,-211.0305328,0.8523315,-0.9337339,11.0970678,8.7557249,2.4885497,0.7938932
3630,-10.5559816,7.0915890,-7.4794478,61.1145020,-73.3282471,-191.1297760,0.5722113,-0.7757174,10.9007444,12.0381680,7.3358779,0.6412213
3640,-13.2997227,7.0796180,-8.2192526,34.6030540,-63.5114517,-155.7862549,0.0814024,-0.5147507,10.6852674,13.0916033,10.1450386,2.1145039
3650,-16.2134514,7.1801744,-8.2695303,1.2213740,-24.8244267,-103.5496216,-0.2154770,-0.4979914,10.3620520,12.1832066,9.1755724,3.6717558
3660,-18.9859219,7.1346846,-7.3812861,-31.7480907,28.1908398,-31.8778629,-0.3878587,-0.3734936,10.3859940,10.1832066,6.2671757,5.1450381
3670,-19.6131992,6.4595232,-6.9287844,-61.0000000,90.0152664,39.6564903,-0.4381367,-0.3830703,10.3213511,7.1145039,4.2290077,7.4274807
3680,-19.4695492,6.7827387,-5.3581958,-88.7938919,121.7786255,106.5267181,-0.3160330,-0.5027798,10.1944590,3.0305343,-0.7099237,6.7251906
3690,-17.7936153,6.1722202,-3.4332676,-102.1679382,128.4198456,164.6030579,0.0071826,-0.5099624,10.1298151,-2.0610688,-5.2595420,6.3664122
3700,-15.3419657,6.1794028,-2.3917952,-105.5343475,129.5877838,211.4961853,0.1460456,-0.5339043,10.4434547,-5.1297708,-8.3435116,3.1679389
3710,-12.2343082,5.6598639,-1.6184721,-107.9312973,130.2442780,248.9847260,0.1963235,-0.5841822,10.5918941,-6.2366414,-12.0381680,2.4809160
3720,-8.5472565,5.0349803,-1.0031654,-111.5725174,133.0229034,250.1297760,0.1939293,-0.7206510,10.8337069,-5.4351144,-14.2748089,1.8244275
3730,-5.0301919,4.3933377,-0.1747758,-113.6259537,136.6946564,250.1297760,0.3519458,-0.7517755,11.0228481,-3.4580152,-13.8625956,0.6183206
3740,-0.4261657,3.8761928,0.5003856,-111.1679382,121.4656525,250.1297760,0.4381367,-0.7733232,10.9677820,-1.4656489,-12.8931293,-1.1450381
3750,5.2648225,4.2568688,0.7206510,-104.4732819,82.7633591,250.1297760,0.3351865,-0.8978211,10.8313131,-0.1297710,-11.0992365,-1.8091604
3760,11.3460636,5.0948353,1.2377959,-95.6793900,28.4656487,250.1297760,0.2537841,-0.8020535,10.7068148,0.8931298,-9.2595415,-1.4274809
3770,17.1471844,6.6342988,2.4348907,-83.1221390,-21.1526718,197.4198456,0.2226596,-0.8451489,10.7977943,1.4274809,-7.4656487,0.0610687
3780,19.6126022,8.2000990,4.0701222,-68.5877838,-52.0610695,117.2748108,0.2633608,-0.7517755,10.8073711,2.1679389,-5.2671757,-0.0610687
3790,19.6126022,8.8872309,5.6742291,-55.4427490,-56.7175560,25.6946564,0.1125269,-0.7589580,10.6661139,2.5496182,-3.6488550,1.0152671
3800,19.6126022,8.6478119,7.7835097,-37.5648842,-50.1755714,-57.6641235,-0.0670373,-0.7278336,10.5344334,1.8396946,-3.6793892,2.1832061
3810,17.9420567,7.4531116,9.4714136,-9.1297712,-45.3435097,-119.6030502,-0.0718257,-0.7637464,10.5128860,0.9007633,-4.7099237,3.2519083
3820,13.5151997,6.8138633,9.7635050,29.5114498,-51.2213745,-158.9923706,-0.0814024,-0.7948709,10.6756907,0.3893130,-4.6564884,4.5343513
3830,9.8975792,6.6366930,8.5879574,66.0381699,-61.2442741,-178.5648804,-0.0143651,-0.8283895,10.8911676,0.9541985,-3.9007633,5.5496182
3840,7.8601241,6.8186517,6.5098009,96.8549652,-65.3740463,-190.2748108,0.1963235,-0.8762733,10.7906122,1.5725191,-3.1068702,5.4885497
3850,6.5409255,7.3046722,3.8450682,113.1450348,-56.3664131,-201.5801544,0.3878587,-0.9983770,10.5080976,0.3969466,-3.6106870,3.9847329
3860,5.2169390,7.6614060,1.3622938,116.3358765,-39.8702278,-214.7709961,0.4860204,-0.8259954,10.4171181,-1.3816794,-3.6412213,1.0152671
3870,3.1890604,7.7332320,-0.9624642,112.1297684,-23.6641216,-230.3358765,0.3758878,-0.8092360,10.6517487,-1.8091604,-4.3129773,-0.3511450
3880,1.0342898,7.4100165,-2.4923513,103.2977066,-19.4503822,-246.3206177,0.1436514,-0.8307837,10.8265247,-1.1984733,-4.1603055,-0.0763359
3890,-1.2377959,6.9024482,-3.7373297,96.5801544,-27.0381680,-250.1374054,0.2489957,-0.8834559,10.8241301,0.0534351,-5.0381680,-0.0076336
3900,-3.6439564,6.3661499,-4.7668314,89.8473282,-38.7709923,-250.1374054,0.4237715,-0.8547257,10.6900558,0.2137405,-6.0000000,-1.0534351
3910,-6.7516141,5.7245069,-5.3941088,81.3893127,-56.7709923,-250.1374054,0.2777260,-0.8140244,10.5416164,-1.2061069,-6.2061067,-3.0381680
3920,-9.6533718,5.5090299,-5.9782910,70.6412201,-66.1450348,-250.1374054,0.3184272,-0.6799498,10.6780853,-2.4045801,-7.6488547,-4.3129773
3930,-12.8879223,5.7436604,-6.4691000,52.1450386,-58.3282433,-222.6183167,0.2250538,-0.6871324,10.7451220,-2.4122138,-7.9083967,-4.2213740
3940,-16.1152897,6.0740585,-6.4188218,29.5954189,-32.2213745,-176.8396912,0.2226596,-0.5650287,10.7427282,-1.2595420,-7.6717558,-3.3969467
3950,-18.7225609,6.2296810,-6.2751703,6.8549619,2.6488550,-117.3587799,0.1915352,-0.4884146,10.6828737,-0.5954198,-8.2977095,-2.7786260
3960,-19.6131992,6.3278427,-6.1817970,-14.3816795,29.0152664,-47.4580154,0.1939293,-0.5434810,10.7882175,-0.2290076,-8.1908398,-2.1984732
3970,-19.6131992,6.3733325,-6.6127515,-42.1603050,59.6106873,24.7404575,0.1891410,-0.5506636,10.7954006,-0.2290076,-7.5343513,-1.2519084
3980,-19.6131992,6.2536230,-6.0070214,-70.6412201,89.3969498,94.9542007,0.1939293,-0.5650287,10.7546988,0.3740458,-6.3664122,0.0152672
3990,-18.7800217,6.0572991,-4.4986820,-89.4809189,109.8167953,156.5496216,0.3423691,-0.6224893,10.6637201,1.3740458,-4.4351144,0.5954198
4000,-16.5175133,5.5233951,-3.3111639,-98.2290039,117.4198456,209.7786255,0.3136388,-0.6799498,10.6278067,1.5496184,-3.4427481,0.5877863
4010,-14.3507719,4.9368186,-2.6503677,-104.0839691,118.3358765,250.1297760,0.3758878,-0.6943150,10.7163916,1.5648855,-3.0610688,-0.0152672
4020,-11.4921093,4.2305326,-1.7764885,-109.9694672,117.3358765,250.1297760,0.4429250,-0.7972651,10.7570934,1.9541985,-2.0076337,-0.1450382
4030,-8.8034344,3.4835455,-1.6831152,-115.3511429,121.0457993,250.1297760,0.5291159,-0.8834559,10.6086531,2.7251909,-0.5419847,-0.8244275
4040,-5.7292953,2.5665710,-1.7333932,-125.4580154,130.4732819,250.1297760,0.6440369,-0.9528874,10.6062593,1.7786260,-0.3587786,-2.5496182
4050,-2.1715298,1.5753766,-1.6591733,-139.9923706,139.3740387,250.1297760,0.5386927,-0.8595140,10.4769726,0.3893130,-0.2977099,-4.6030536
4060,1.0366840,0.8020535,-1.2354017,-157.1068726,130.3282471,250.1297760,0.4094064,-0.9073978,10.7139978,0.2977099,-0.9770992,-6.2824426
4070,6.2344694,1.0271072,0.6655847,-168.2824402,89.6793900,250.1297760,0.3208214,-0.8690908,10.6110477,0.5725191,-1.5877863,-6.1908398
4080,13.2757807,1.4532729,3.1818779,-162.4885559,39.1068687,250.1297760,0.1843526,-0.8068419,10.6637201,0.7938932,-1.2366412,-6.7022901
4090,19.6126022,4.9511838,6.1650376,-140.6870270,-9.9236641,250.1297760,0.0191535,-0.7900825,10.7714586,0.8702290,-0.4885496,-6.0687022
4100,19.6126022,7.5081782,9.6437950,-103.5343475,-37.0839691,179.1374054,-0.0383070,-0.8283895,10.7977943,1.3969465,-0.5725191,-5.0076337
4110,19.6126022,8.2455883,12.5168228,-61.3664131,-24.4809170,54.7251892,-0.1460456,-0.7805058,10.6038647,2.2442749,-0.9160305,-4.4122138
4120,19.6126022,7.6039457,14.9014349,-9.6946564,-25.6183205,-67.8473282,-0.1340746,-0.7182568,10.7786407,2.8015268,-1.6259542,-2.9236641
4130,19.6126022,6.4212160,14.4178085,53.5114517,-72.7862625,-156.6335907,-0.1268920,-0.7230452,10.6421719,2.5725191,-2.7251909,-2.5572519
4140,15.5694141,5.6000090,11.9326401,113.7022934,-139.4732819,-211.3587799,-0.1556223,-0.7230452,10.6206245,2.2671757,-3.8549619,-0.7251908
4150,11.5088692,5.0996237,8.8034344,162.0839691,-192.2671814,-238.2824402,-0.1388630,-0.8020535,10.6565371,1.9847329,-4.7099237,-0.4885496
4160,9.0452480,5.5712790,5.3174949,193.4885559,-201.9160309,-247.5343475,-0.0239419,-0.7876883,10.6373835,1.8320611,-5.8473282,0.4809160
4170,7.0053983,6.6726060,1.0797794,201.8854980,-169.3893127,-250.1374054,0.0191535,-0.9097920,10.6517487,1.8625954,-6.5648856,1.0381680
4180,4.6375451,7.3836803,-2.5210814,181.5954132,-119.0229034,-250.1374054,0.2585725,-0.8595140,10.7211800,2.0839694,-6.3740458,2.1297710
4190,1.8961980,7.7332320,-4.6662750,148.0229034,-82.2671738,-250.1374054,0.3088504,-0.9217629,10.7738523,2.4198472,-4.6183205,1.3664122
4200,-0.1101327,7.0891948,-5.5018473,115.7404556,-72.8244247,-250.1374054,0.3687052,-0.8236012,10.7211800,2.7938931,-3.5496182,1.4656489
4210,-2.1715298,6.2392578,-5.9328012,90.7022934,-64.5419846,-250.1374054,0.3495516,-0.6823440,10.8145542,2.9770992,-3.1297710,0.0381679
4220,-4.6351509,5.5425487,-5.9902620,75.9770966,-54.3664131,-250.1374054,0.3040621,-0.5841822,10.8337069,3.7099237,-3.3664122,-0.9389313
4230,-7.9989872,4.9966736,-5.8513989,69.0687027,-48.4809151,-250.1374054,0.2777260,-0.5602403,10.7786407,4.3740458,-3.1145039,-0.5725191
4240,-12.0762920,4.7548604,-5.8274570,64.2366409,-48.6641235,-250.1374054,0.2609667,-0.4548960,10.8241301,5.1984735,-2.1526718,-0.0305344
4250,-16.9963512,5.0349803,-5.7029591,58.9236641,-55.3129768,-203.5648804,0.1939293,-0.4070122,10.6756907,5.9770994,-0.5419847,1.3053435
4260,-19.6131992,5.5281835,-6.8521700,47.4961815,-46.5877876,-130.2748108,0.2537841,-0.3710994,10.6397781,6.8167939,1.4045801,1.9465649
4270,-19.6131992,7.1801744,-9.8449068,5.5877862,12.2671757,-43.2671738,0.4022238,-0.3280039,10.7379398,7.5190840,3.4885497,2.6030533
4280,-19.6131992,7.8912482,-10.9031391,-55.9465637,96.9389343,37.8778610,0.3878587,-0.4070122,10.6182299,8.1145039,4.9847326,1.8244275
4290,-19.6131992,7.1562324,-9.5504217,-107.6030502,167.9541931,108.5877838,0.3495516,-0.4692611,10.6278067,8.3740454,6.2748094,1.0381680
4300,-19.2085819,6.0572991,-7.1586266,-145.5648804,203.4351196,176.6183167,0.4836263,-0.5291159,10.6876621,8.8778629,7.1068702,0.3358779
4310,-16.5534267,5.4036856,-4.8817525,-167.3893127,201.4351196,236.2900696,0.4022238,-0.5123565,10.6014709,8.2900763,6.5190840,-1.0763359
4320,-12.2462788,4.7835903,-2.5593886,-175.0992432,183.0305328,250.1297760,0.2896969,-0.5554519,10.5464048,6.8549619,4.9847326,-2.7328243
4330,-8.3557215,4.3119354,-0.5865764,-172.6793823,161.6641235,250.1297760,0.2011119,-0.5793939,10.4889441,5.0763359,3.5267177,-4.0534353
4340,-3.8714044,4.1443419,1.1947005,-162.5114441,129.9694672,250.1297760,0.1604107,-0.5434810,10.5487986,3.2824428,1.9694656,-4.8473282
4350,1.1061156,4.0342093,2.6527619,-142.6717529,72.5954208,250.1297760,-0.0095768,-0.6272776,10.4458485,1.5801526,0.3435115,-5.2671757
4360,6.6055689,4.8554163,3.5314295,-113.7404556,6.9694657,250.1297760,-0.0359128,-0.6751614,10.6086531,0.2900763,-0.9618320,-5.8320613
4370,12.4569674,6.0333576,4.3598189,-82.0534363,-43.0381660,238.1221313,-0.1077385,-0.7445929,10.5679522,0.2977099,-0.5801527,-5.5114503
4380,17.1328201,7.5057840,5.4036856,-50.0076332,-83.9618301,172.4198456,-0.1915352,-0.7038917,10.7259684,0.5877863,0.0381679,-4.6335878
4390,19.6126022,8.7842808,6.2560172,-19.6183205,-117.5496216,91.0305328,-0.3040621,-0.7421987,10.7618818,1.2824427,0.3435115,-3.5343511
4400,19.6126022,9.2942438,6.6750002,8.1603050,-134.7099304,5.0305343,-0.2178712,-0.8427547,10.7834291,1.6183206,0.2977099,-3.1755726
4410,19.6126022,9.2032642,6.6510582,33.3511467,-131.8015289,-70.7480927,-0.2035061,-0.7733232,10.7714586,2.2137403,-0.5114504,-2.9694657
4420,16.3068237,8.7794924,5.8059096,54.4503822,-111.0381699,-123.0534363,-0.1819584,-0.7565638,10.6397781,2.1755726,-2.4503818,-3.4656489
4430,13.1057930,8.6142941,4.8434453,73.2595444,-97.0305328,-157.3740387,-0.1173153,-0.6200951,10.6493549,1.1450381,-4.8396945,-3.4961832
4440,10.1322098,8.4443064,3.1363883,87.7786255,-85.8167953,-180.9389343,-0.0933734,-0.5793939,10.5464048,-0.6106870,-6.5419846,-4.3053436
4450,7.5488791,8.4658537,1.4365137,96.1603088,-69.0457993,-199.1068726,-0.1005560,-0.5722113,10.4745789,-1.8702290,-8.0839691,-4.0305343
4460,4.7021880,8.3102312,-0.3974355,97.7328262,-57.7709923,-213.4580078,-0.1532281,-0.4955972,10.5895004,-2.2900763,-9.0992365,-4.1755724
4470,2.1140692,8.0660238,-1.9033806,93.5648880,-51.0687027,-225.1984711,-0.1101327,-0.3447633,10.6924505,-2.5877862,-9.6946564,-3.5419848
4480,0.0670373,7.7571740,-2.8395088,87.3816757,-48.7938919,-234.5190887,-0.0215477,-0.3495516,10.7187862,-2.4809160,-9.3358774,-2.3587787
4490,-2.3486998,6.9958215,-3.2728570,80.5801544,-47.6488533,-239.7251892,0.0071826,-0.4213773,10.7355452,-1.6183206,-8.6793890,-1.6793894
4500,-4.4723458,6.4882536,-3.6846576,75.3358765,-47.4198456,-235.7709961,0.1101327,-0.3495516,10.7882175,-0.5343512,-7.5496182,-0.9389313
4510,-7.1993275,6.1985564,-4.2616572,68.0152664,-45.9923668,-220.4580078,0.2202654,-0.3303981,10.7906122,0.5954198,-6.5725193,-0.7938932
4520,-9.2679071,6.2512288,-4.6854286,57.9465637,-45.3206100,-194.8625946,0.2968795,-0.3854645,10.7810354,1.4732825,-5.2671757,-0.7328244
4530,-11.2000179,6.4068508,-5.4395986,44.3664131,-28.0610695,-160.1374054,0.4165890,-0.4357425,10.6996326,2.0763359,-4.1755724,-0.5114504
4540,-12.4497852,6.7420373,-6.3876977,22.3129768,11.7557249,-119.0610657,0.4141948,-0.3806761,10.6972389,2.7251909,-3.3129771,-1.4351145
4550,-14.2693691,7.0915890,-7.1753860,-3.9160306,56.9847336,-74.2977066,0.3878587,-0.3950413,10.8073711,3.7022901,-1.7786260,-2.2213740
4560,-16.2134514,6.7228842,-7.2184811,-28.3053436,87.7786255,-25.6259537,0.2801202,-0.4668669,10.7044210,4.6870227,-0.3816794,-2.6335878
4570,-16.9724083,6.6630292,-6.1817970,-44.3282433,89.3587799,25.9694653,0.1867468,-0.4716553,10.8528605,5.7480917,1.7938931,-1.8931298
4580,-16.9245243,6.4834652,-5.3294659,-51.5038185,78.7938919,76.2824402,0.1053443,-0.3950413,10.8073711,7.1755724,4.0839696,-2.1450381
4590,-15.7609491,6.5624733,-4.9727316,-58.9389305,77.0457993,126.7022934,0.0263361,-0.4381367,10.9079275,8.7251911,6.4045801,-0.9847328
4600,-13.8719339,6.5050125,-4.5058646,-69.0305328,84.7633591,172.1068726,-0.0718257,-0.4860204,10.8193426,10.0839691,8.3358774,-0.7175573
4610,-11.8656025,6.1578555,-3.8809812,-76.7251892,93.8473282,211.6793823,-0.0191535,-0.4118006,10.7570934,10.7862597,10.2900763,0.5725191
4620,-9.4091644,6.0165982,-3.3758070,-81.7938919,97.0687027,245.0992432,-0.0167593,-0.3902529,10.7020273,10.9007635,12.1755724,0.9465649
4630,-6.7157016,5.3988972,-2.8897867,-83.7328262,79.4732819,250.1297760,-0.0023942,-0.4908088,10.6637201,11.1374044,13.0992365,1.3358779
4640,-3.3111639,4.8266859,-2.3774302,-81.2748108,42.8091621,250.1297760,-0.0574605,-0.5195391,10.6732969,11.1526718,13.4045801,0.9465649
4650,0.9600700,4.4172797,-2.2385671,-74.7175598,-1.9847329,250.1297760,-0.0718257,-0.5386927,10.7068148,11.6183205,13.4580154,0.3511450
4660,6.4475522,4.8793583,-2.6790979,-70.5038147,-30.5114498,250.1297760,-0.2082945,-0.4357425,10.7235746,12.1145039,13.6259546,-0.1603053
4670,11.4777441,6.2368636,-2.1475880,-72.9770966,-36.9160309,250.1297760,-0.2250538,-0.4261657,10.6421719,12.4961834,13.8396950,-0.3664122
4680,16.6731358,7.9654684,0.1101327,-76.1297684,-37.2442741,197.1908417,-0.4261657,-0.4165890,10.7810354,12.3664122,13.1068707,0.0458015
4690,19.6126022,9.5719690,3.1842721,-68.7328262,-31.8244267,121.1450348,-0.4070122,-0.4022238,10.6589317,11.7938929,12.9160309,-0.3587786
4700,19.6126022,10.1441803,5.7795734,-50.3816795,-35.6870232,29.9618320,-0.4477134,-0.3064562,10.5895004,11.5038166,11.6030531,0.1297710
4710,19.6126022,9.7036495,8.0923605,-19.0992374,-56.9541969,-61.7022896,-0.5793939,-0.3184272,10.5942879,10.6259546,9.3664122,0.1755725
4720,18.0641594,8.5879574,8.7699156,25.5496178,-91.8091583,-138.3893127,-0.5961532,-0.3112446,10.5248566,9.1984730,7.0229006,0.5343512
4730,13.8839045,7.7906923,7.3190370,70.8244247,-133.6030579,-193.5954132,-0.4860204,-0.3160330,10.4817610,7.3206105,4.2213740,0.6412213
4740,9.8137827,7.4004397,4.2209558,102.5648880,-158.6793823,-233.0992432,-0.5003856,-0.2681492,10.5535870,5.3511453,1.7175573,0.5190840
4750,6.6223278,7.3262196,1.1827296,112.5267181,-159.4351196,-250.1374054,-0.4955972,-0.2992737,10.4769726,3.8396947,-1.2366412,-0.2442748
4760,3.7062054,7.1945391,-1.1085097,108.2290039,-146.2595367,-250.1374054,-0.5650287,-0.3256098,10.4578199,2.4809160,-3.5877862,-0.6793893
4770,1.5729824,6.8737178,-2.9472473,94.1068726,-124.0992355,-250.1374054,-0.5147507,-0.3471575,10.6325951,1.8167939,-5.1526718,-0.0229008
4780,-0.9385223,6.4738884,-4.1515245,74.9083939,-92.1832047,-250.1374054,-0.4812321,-0.3016679,10.7427282,1.6412214,-5.5725193,-0.4122137
4790,-3.7516949,6.0644817,-4.7452836,54.9236641,-60.3587799,-250.1374054,-0.4955972,-0.2370248,10.6852674,1.9007634,-5.3282442,-0.0763359
4800,-6.7587967,5.5688848,-4.6638808,38.0305328,-41.7404594,-250.1374054,-0.5027798,-0.2082945,10.7187862,2.0763359,-5.5343513,0.5343512
4810,-11.4035244,5.1307478,-4.9009056,27.0610695,-25.0229015,-234.2671814,-0.4525018,-0.2035061,10.8073711,2.2900763,-5.2977099,1.0305344
4820,-15.8375635,5.3294659,-5.6622581,16.2442741,-13.4580154,-185.1145020,-0.4022238,-0.1651991,10.6373835,2.8244274,-4.5648856,2.5114503
4830,-19.6131992,6.1770086,-6.5026188,1.0534351,-4.5496182,-117.1755753,-0.3375807,-0.0933734,10.6876621,2.9541984,-3.5190840,2.5496182
4840,-19.6131992,5.7197185,-7.2328463,-22.9160309,18.6106873,-30.4045811,-0.2968795,-0.0359128,10.5966825,2.8167939,-3.4274809,2.7633588
4850,-19.6131992,6.2129216,-7.6518297,-60.6870232,56.6793900,68.3511429,-0.1771700,-0.0359128,10.5487986,2.4045801,-3.4351146,2.5114503
4860,-19.6131992,6.5457139,-6.5983863,-101.8473282,116.0534363,154.2977142,-0.0526722,-0.0071826,10.5918941,1.6106870,-4.1221375,1.3587786
4870,-17.6763000,5.5545197,-4.4268565,-131.4809113,169.1450348,222.8396912,-0.0646431,-0.0622489,10.6134415,1.2671756,-5.1297708,0.6641222
4880,-15.1408539,5.1642666,-2.5234756,-146.3816833,198.3740387,250.1297760,0.0119709,-0.0981618,10.5631638,0.6641222,-4.9160304,-1.3129771
4890,-11.8847561,4.5729017,-1.1468167,-151.6030579,207.2595367,250.1297760,0.0095768,-0.1987177,10.6086531,0.3740458,-4.4809160,-2.8320611
4900,-8.6597834,3.9001346,-0.0119709,-150.2748108,199.2137451,250.1297760,-0.0407012,-0.1556223,10.6397781,0.1755725,-4.0610685,-3.3282442
4910,-5.1786318,3.1100521,0.5889706,-145.6717529,170.9160309,250.1297760,-0.0957676,-0.1436514,10.7139978,-0.1145038,-3.4580152,-4.4198475
4920,-0.1628049,2.5450234,1.0893562,-136.7938995,119.2671738,250.1297760,-0.1939293,-0.1843526,10.7523050,0.0000000,-2.7022901,-4.8625956
4930,6.3996682,2.6240315,1.5418580,-122.4198456,54.5801544,250.1297760,-0.2442073,-0.1675933,10.6709023,0.2061069,-2.0534351,-4.9465647
4940,13.7761660,4.2951760,2.8682389,-102.4885483,-13.3816795,250.1297760,-0.2873027,-0.1747758,10.7379398,0.7022901,-0.9847328,-4.6488547
4950,19.6126022,6.7420373,5.0708933,-76.1603088,-73.7251892,223.0229034,-0.3088504,-0.0909792,10.7379398,1.0916030,-0.2366412,-5.0076337
4960,19.6126022,8.8417416,6.2967181,-50.7022896,-99.1603088,119.0992355,-0.3447633,-0.0766141,10.7666702,1.6641221,0.3435115,-4.3053436
4970,19.6126022,9.8760319,7.3334022,-25.3282452,-91.5496216,10.6183205,-0.3256098,-0.0861908,10.7475166,2.4122138,0.9312977,-4.3816795
4980,19.6126022,9.1458035,8.3988171,6.4580154,-74.9007645,-93.6335907,-0.3423691,-0.0574605,10.7882175,2.9007633,1.4809160,-4.3206105
4990,19.1271801,8.1737623,8.6023226,44.0839691,-85.0992355,-168.4580078,-0.3399749,-0.0478838,10.6828737,3.4580152,1.7633588,-4.1374044
5000,13.7498302,7.3357964,7.5225434,81.7938919,-112.3893127,-217.6259613,-0.3902529,-0.1005560,10.7810354,3.6564887,1.4427481,-3.6564887
5010,9.3708572,6.8449879,5.2121506,113.3358765,-133.8702240,-247.1603088,-0.4596844,-0.0646431,10.6014709,3.5801528,1.0610687,-3.9236641
5020,6.3853035,6.8976598,2.4588325,131.7251892,-138.2824402,-250.1374054,-0.4884146,-0.0909792,10.6254129,3.3511450,1.1679389,-3.9007633
5030,3.5242469,7.2328463,-0.6560079,132.6183167,-128.8931274,-250.1374054,-0.5674229,-0.1364688,10.6254129,3.2519083,1.2290076,-3.1832061
5040,0.8858501,7.3022780,-3.2537034,118.4122162,-103.6793900,-250.1374054,-0.5123565,-0.0981618,10.7666702,4.4198475,4.8244276,-2.8931298
5050,-1.1779412,7.2089043,-4.2808108,96.9007645,-76.8549652,-250.1374054,-0.6272776,-0.1628049,11.0180597,8.2900763,10.8244276,-0.1068702
5060,-3.4260850,6.6031747,-4.7500720,76.5648880,-52.5038185,-250.1374054,-0.7852941,-0.2274480,11.1329813,13.4045801,17.1526718,2.9618320
5070,-6.6271162,6.4236102,-5.1307478,61.2137413,-25.3740463,-250.1374054,-0.8044477,-0.2202654,11.2479019,17.7480907,20.5572510,5.7175574
5080,-11.1832590,6.2584114,-6.0477223,46.2824440,-3.3740458,-225.6412201,-0.6081241,-0.2418131,11.0922794,20.6946564,22.9770985,6.7786260
5090,-15.5526543,6.4283986,-6.9910331,27.5648861,10.7328243,-175.3129730,-0.5913648,-0.2920911,10.7954006,21.9541988,23.0992374,6.4274807
5100,-19.6131992,6.9024482,-7.8888540,6.6106873,21.0458012,-104.5572510,-0.7421987,-0.2633608,10.6158361,22.3358784,19.1984730,5.4732823
5110,-19.6131992,7.0293403,-8.6621771,-19.2290077,34.3358765,-19.4885502,-0.7517755,-0.1388630,10.3931761,20.4732819,18.3053436,3.5648854
5120,-19.6131992,7.0987716,-8.6526003,-52.6335869,65.6717529,66.4885483,-0.9528874,-0.0742199,10.3117743,16.9541988,14.1068707,1.6488550
5130,-18.4759598,6.9766679,-7.7978749,-90.7938919,112.9618301,141.6946564,-0.9959828,0.0071826,10.1250277,12.2061071,10.1603050,1.0229008
5140,-15.6172981,6.3350253,-5.9375896,-124.0687027,166.3664093,200.9541931,-1.1444225,0.1077385,10.2064295,7.8396945,5.1679387,0.2137405
5150,-13.1033993,5.6790175,-3.2800395,-142.4122162,200.2442780,244.9084015,-1.1252691,0.0574605,10.2830439,3.8396947,-0.1526718,-0.0687023
5160,-10.8193426,4.8099265,-1.5849534,-149.9923706,211.4885559,250.1297760,-1.1492109,0.1915352,10.3716288,0.4809160,-5.6335878,-0.2213740
5170,-7.3764977,3.6702924,0.1508339,-149.5572510,202.5572510,250.1297760,-1.0007712,0.1867468,10.3668404,-2.2519083,-9.6106873,-0.3129771
5180,-2.2313845,2.7748656,1.6232605,-142.0763397,174.5648804,250.1297760,-0.8810617,0.2585725,10.4817610,-4.1755724,-12.2519083,-0.9618320
5190,4.6543045,3.7445123,3.9456241,-122.1145020,110.6412201,250.1297760,-0.8619082,0.3136388,10.5487986,-5.0381680,-13.4503813,-0.8015267
5200,12.2893744,6.0046272,7.5225434,-90.5496216,18.4732819,243.7404633,-0.7685348,0.3016679,10.5535870,-5.1984735,-13.2748089,-0.2290076
5210,19.6126022,8.2838955,10.2399483,-40.2595406,-48.0305328,156.1526642,-0.6200951,0.2825144,10.7092094,-4.6564884,-12.2442751,-0.0229008
5220,19.6126022,9.9406748,10.9869356,23.0152664,-81.2213745,32.8625946,-0.4046180,0.3064562,10.8839855,-3.6717558,-10.7404585,0.4045801
5230,19.6126022,9.3445215,9.5145092,85.6641235,-105.1221390,-96.7938919,-0.3303981,0.2825144,10.7762470,-2.1221373,-8.3511448,0.9007633
5240,18.9978924,8.1234846,7.6566176,140.4427490,-156.9236603,-205.4198456,-0.2753318,0.2346306,10.8049774,-0.9312977,-5.7404580,0.0152672
5250,12.7897596,6.4068508,5.5976148,179.1755676,-211.0229034,-250.1374054,-0.2657550,0.2418131,10.6780853,-0.1755725,-4.0610685,-0.7175573
5260,6.7444315,5.9663200,3.2034254,199.4274750,-236.4580078,-250.1374054,-0.2466015,0.1747758,10.6900558,0.5877863,-2.0534351,-1.1068702
5270,2.8778157,6.2129216,0.6703730,206.5877838,-234.6946564,-250.1374054,-0.3112446,0.2394189,10.7092094,0.8549618,-0.6564885,-2.0076337
5280,-0.1867468,6.2584114,-1.9273225,200.9770966,-209.0381622,-250.1374054,-0.4237715,0.2609667,10.5966825,0.8244275,0.1755725,-2.8854961
5290,-2.8634505,6.2320752,-4.9966736,181.7404633,-168.8396912,-250.1374054,-0.6057299,0.3040621,10.6062593,0.3664122,-0.0534351,-3.3969467
5300,-4.8242917,6.2129216,-7.4674768,150.5343475,-121.4732819,-250.1374054,-0.7613522,0.3088504,10.6804790,-0.0610687,-0.2061069,-3.4961832
5310,-7.3669209,6.0501165,-9.4211359,111.4961853,-71.8015289,-250.1374054,-0.7278336,0.2777260,10.6302013,-0.9007633,-0.9618320,-3.4809160
5320,-10.5248566,5.8873119,-10.4075413,71.9923630,-22.1297703,-224.5572510,-0.7733232,0.2226596,10.6493549,-1.6641221,-1.5801526,-3.0687022
5330,-13.2207146,5.9711084,-10.5200682,35.0000000,10.3282442,-175.8320618,-0.7541697,0.1795642,10.6565371,-1.6793894,-2.4427481,-3.8702290
5340,-16.1105003,6.1003947,-9.8880024,2.2366412,37.5648842,-117.4580154,-0.7398046,0.1819584,10.6421719,-1.5267175,-2.7022901,-3.1679389
5350,-18.1623211,6.3637557,-8.9231443,-27.6793900,66.4961853,-50.2595406,-0.8403605,0.1244979,10.6732969,-0.9923664,-2.4351146,-3.6564887
5360,-19.5916519,6.6845770,-8.4395180,-57.0992355,95.7557220,22.5725193,-0.8259954,0.0598547,10.7906122,-0.0458015,-2.0152671,-3.9465649
5370,-19.6131992,6.6271162,-8.0995426,-90.8167953,137.5267181,98.3664093,-0.8331779,0.0239419,10.6469603,0.5419847,-1.1374046,-3.8549619
5380,-18.7656574,6.8210459,-7.2711535,-124.9236679,179.8931274,170.4809113,-0.8690908,-0.0287303,10.6565371,1.6106870,-0.3435115,-3.2213740
5390,-17.2573185,5.9902620,-6.0692701,-153.9465637,224.1603088,237.8625946,-0.9050036,0.0239419,10.5799236,2.1221373,0.1908397,-2.3053436
5400,-15.0905762,5.0876527,-5.4252334,-176.3664093,250.1297760,250.1297760,-1.0175306,0.0071826,10.6302013,2.0763359,0.3587786,-2.6030533
5410,-11.2335367,3.7301471,-4.8745699,-200.0534363,250.1297760,250.1297760,-1.0558375,-0.0502780,10.5679522,2.3282442,0.4045801,-2.0381680
5420,-6.2584114,2.0805507,-3.1244173,-219.8091583,248.0534363,250.1297760,-1.0295014,-0.0143651,10.6110477,1.8854961,-0.6488550,-1.4427481
5430,-0.5650287,0.9959828,-0.5339043,-223.5954132,197.0915985,250.1297760,-1.1420283,-0.0167593,10.5464048,1.6335878,-2.0610688,-0.6717557
5440,19.6126022,8.1617918,12.4641504,-107.2061081,-6.1068702,183.5725250,-1.0175306,0.0287303,10.5727406,-0.2137405,-6.4732823,0.5038168
5450,19.6126022,9.7946291,15.2725344,-35.6183205,-34.6259537,44.0534363,-0.9648584,0.1173153,10.4769726,-0.5877863,-7.2366414,0.9847328
5460,19.6126022,9.0763721,13.6756105,37.6412201,-55.4427490,-102.6259537,-0.8547257,0.1077385,10.5966825,-0.8396947,-7.6564884,1.1832061
5470,19.6126022,7.9319496,9.5552101,96.0916061,-89.4656525,-218.3969421,-0.9050036,0.1364688,10.6589317,-0.8702290,-7.8625956,1.2213740
5480,12.3204985,5.1858144,5.7316895,132.1145020,-136.1832123,-250.1374054,-0.7589580,0.1556223,10.6110477,-0.8396947,-7.9007635,1.6335878
5490,6.0716643,3.9168940,2.6575503,149.0915985,-176.0381622,-250.1374054,-0.6631905,0.1963235,10.6469603,-0.4427481,-7.2671757,2.1908398
5500,1.2449785,4.1611013,0.4668669,153.8473358,-196.0229034,-250.1374054,-0.5003856,0.1484398,10.5487986,-0.0916031,-6.9694657,2.3664122
5510,-1.2186425,4.6016321,-0.9073978,150.8625946,-194.3816833,-250.1374054,-0.4979914,0.2466015,10.6517487,0.0000000,-6.1526718,1.6564885
5520,-2.6312141,5.0637107,-2.4708035,140.9923706,-159.6183167,-250.1374054,-0.4501076,0.2394189,10.6565371,0.3740458,-4.4885497,0.5343512
5530,-4.0677280,5.5497313,-3.9743545,122.3282471,-113.8702316,-250.1374054,-0.3974355,0.2274480,10.7307568,0.7709923,-4.4198475,0.3664122
5540,-6.2153158,5.3749552,-5.4276276,96.2977066,-84.5343475,-250.1374054,-0.4118006,0.2609667,10.7116032,1.0152671,-4.0152674,-0.2290076
5550,-8.1402445,5.1594782,-6.3134775,70.7022934,-66.6564865,-250.1374054,-0.3687052,0.2489957,10.6541433,0.9847328,-2.9389312,-1.6106870
5560,-11.0779142,4.8961172,-6.6821828,51.3969460,-49.2519073,-228.3129730,-0.5578461,0.1939293,10.6325951,1.0992366,-2.5496182,-2.6564887
5570,-14.6907463,4.8458395,-7.1466556,36.5725174,-38.5343513,-190.2061005,-0.5841822,0.2250538,10.6828737,1.0458015,-2.6946564,-3.2061069
5580,-18.4496231,4.8554163,-7.4770536,23.3816795,-43.9618340,-135.4961853,-0.6105183,0.1460456,10.6637201,1.2442749,-2.8778627,-3.6106870
5590,-19.6131992,5.1786318,-8.0732069,5.5572519,-51.0687027,-64.8854980,-0.6631905,0.2250538,10.5152798,1.0305344,-2.4274809,-3.7251909
5600,-19.6131992,5.3486195,-9.0739784,-24.1450386,-24.4580154,16.9389305,-0.7254394,0.1149211,10.6661139,1.1297710,-1.6335878,-3.6412213
5610,-19.6131992,5.4898763,-9.4474716,-70.1984711,30.3740463,101.7022934,-0.7589580,0.1723816,10.5823174,1.2595420,-0.9236641,-3.3053436
5620,-19.4767303,5.2049680,-8.4059992,-117.8473282,100.0687027,175.6717529,-0.7134684,0.1532281,10.6900558,1.3587786,-0.3435115,-3.2748091
5630,-16.9412842,4.3646073,-6.0429344,-150.3816833,156.3282471,236.6412201,-0.7086801,0.1891410,10.6421719,1.8167939,0.0000000,-3.5267177
5640,-14.4441452,3.8163381,-3.9815371,-166.8015289,175.4580078,250.1297760,-0.6895266,0.1221037,10.7283630,1.9847329,0.3129771,-3.7633588
5650,-11.9110928,3.2776453,-2.9424589,-176.6488495,181.9541931,250.1297760,-0.7350162,0.1628049,10.6732969,2.1374047,0.4427481,-4.3511453
5660,-8.9829988,2.2218077,-2.5426292,-184.5877838,175.9770966,250.1297760,-0.7014975,0.1556223,10.7355452,2.2977099,0.1068702,-4.5114503
5670,-4.9799142,1.6112895,-1.6088953,-188.1374054,150.0915985,250.1297760,-0.7924767,0.1819584,10.5416164,2.3435113,-0.1374046,-5.0458016
5680,-1.1252691,0.7637464,-0.0478838,-184.0763397,115.4122162,250.1297760,-0.7254394,0.1532281,10.6302013,2.2519083,-0.6488550,-5.2900763
5690,3.7205703,0.7852941,1.0151364,-173.1755676,72.9312973,250.1297760,-0.9169745,0.2250538,10.6397781,1.7938931,-1.2519084,-5.5877862
5700,9.8664551,2.6000898,3.2848279,-152.5877838,22.7022896,250.1297760,-0.9792235,0.1484398,10.6302013,1.4198474,-1.8625954,-5.1526718
5710,17.5470142,6.2081332,6.6606350,-118.3511429,-34.0076332,250.1297760,-0.9888002,0.1747758,10.6517487,1.0992366,-2.2061069,-5.0229006
5720,19.6126022,8.1546097,9.2966375,-70.1068726,-73.7099228,165.6335907,-0.9911944,0.1436514,10.6349897,0.6412213,-2.1755726,-4.2442746
5730,19.6126022,9.9334917,10.5871058,-22.9541988,-81.4656525,49.8854980,-1.0414724,0.1436514,10.5607700,0.6030535,-2.5343511,-2.9312978
5740,19.6126022,10.3644457,11.0635490,22.9083977,-76.4351120,-59.1908379,-0.9433106,0.1556223,10.6732969,0.8625954,-2.5267177,-2.1068702
5750,18.7824154,9.2391768,10.1705170,68.4732819,-80.5877838,-144.0839691,-0.9600700,0.1292862,10.6302013,1.1603054,-2.2366412,-2.0076337
5760,13.8479919,8.1953106,7.9606800,111.7328262,-108.8320618,-201.3053436,-0.9744351,0.1173153,10.6110477,1.3893130,-2.0992367,-1.6030535
5770,9.4785957,7.4387465,4.8721757,144.1068726,-141.8702240,-237.4045868,-0.8930327,0.1364688,10.5871058,1.5496184,-2.1984732,-0.8625954
5780,6.4283986,7.1945391,1.8267666,157.0763397,-169.7480927,-250.1374054,-0.9313397,0.0885850,10.6804790,1.3206106,-2.5801528,-0.6259542
5790,3.2896163,7.1705976,-1.9105632,153.2366486,-164.8625946,-250.1374054,-0.9241571,0.1556223,10.6780853,1.2824427,-3.4656489,-1.0992366
5800,0.7374104,7.0796180,-3.9647777,138.8015289,-129.9618378,-250.1374054,-0.9002152,0.1556223,10.5176744,1.0916030,-4.5572519,-1.1984733
5810,-1.6065011,6.7468257,-5.1379304,116.8167953,-109.1450348,-250.1374054,-1.0366840,0.0837966,10.5679522,0.6335878,-5.2748094,-0.1832061
5820,-4.0964580,6.4044566,-5.6598639,93.6030502,-97.2290039,-250.1374054,-0.9169745,0.1963235,10.5033092,0.0916031,-6.1679387,-0.2061069
5830,-7.5369086,5.9328012,-6.0644817,74.5419846,-81.1450348,-250.1374054,-0.8858501,0.2011119,10.5200682,-0.1374046,-6.5419846,0.0381679
5840,-11.2000179,5.5664907,-6.4092450,59.2671738,-69.7557220,-230.5725250,-0.9313397,0.2059003,10.5655584,-0.3435115,-6.6259542,-0.5725191
5850,-14.1257181,5.8801293,-6.9407554,43.3053436,-67.6183243,-188.1374054,-0.8714849,0.2178712,10.6685085,-0.3587786,-7.0916033,0.0839695
5860,-17.1208496,6.3757267,-7.7284436,21.1450386,-55.1679382,-133.6870270,-0.7350162,0.2130829,10.6900558,-0.4580153,-7.2061067,0.1068702
5870,-19.3761749,6.6031747,-8.0229292,-5.9083967,-20.0305347,-67.5496216,-0.7254394,0.2202654,10.6254129,-0.4656489,-6.8015265,-0.4809160
5880,-19.6131992,6.7372489,-7.9702568,-39.4351158,22.4274807,11.6717558,-0.5482694,0.2130829,10.6924505,-0.3511450,-6.3740458,-0.7480916
5890,-19.6131992,6.6007805,-7.7930865,-76.5496216,74.5725174,91.6488571,-0.5985473,0.2489957,10.6038647,-0.2061069,-6.2900763,-1.9618320
5900,-18.5813046,6.0956063,-6.5959921,-111.0457993,116.6717529,164.1374054,-0.5362985,0.2226596,10.6924505,-0.2671756,-6.1450381,-2.6335878
5910,-15.7561607,5.3725610,-4.8458395,-133.6412201,144.9160309,223.5343475,-0.4908088,0.1867468,10.5918941,-0.5190840,-5.8854961,-3.5114503
5920,-12.9046812,4.9511838,-3.8450682,-147.3206177,156.9007568,250.1297760,-0.5746055,0.2154770,10.6038647,-0.7633588,-5.1603055,-3.5343511
5930,-9.9454632,4.6112089,-2.7988074,-157.4274750,159.6183167,250.1297760,-0.6105183,0.1987177,10.6756907,-0.5801527,-4.6106873,-4.0381680
5940,-6.9503322,3.9791429,-1.9273225,-164.7557220,161.7022858,250.1297760,-0.6296718,0.1628049,10.6661139,-0.0229008,-3.8167939,-4.5038166
5950,-4.3215117,3.5074875,-1.3527170,-170.4503784,159.1908417,250.1297760,-0.6584021,0.2202654,10.7187862,0.6259542,-2.9007633,-4.9770994
5960,-1.1635761,2.9999194,0.2657550,-171.3358765,143.8167877,250.1297760,-0.6560079,0.1460456,10.7139978,1.2290076,-2.1297710,-5.3664122
5970,2.6240315,2.7940190,1.9201399,-163.7557220,102.6564865,250.1297760,-0.7589580,0.2394189,10.7068148,1.8167939,-1.0152671,-5.5267177
5980,8.9135675,3.4691806,4.5992379,-141.3740387,32.3740463,250.1297760,-0.7158626,0.2681492,10.6780853,2.3053436,-0.4427481,-5.1450381
5990,15.7106714,5.4587522,6.4882536,-104.3893127,-45.1221390,245.6564941,-0.6751614,0.2466015,10.6828737,2.4045801,0.3435115,-5.1145039
6000,19.6126022,7.7380204,6.5696559,-67.2213745,-81.9083939,163.8625946,-0.7613522,0.3112446,10.5320396,2.4427481,0.5038168,-6.0992365
6010,19.6126022,9.7443514,6.8593526,-39.7709923,-75.4503784,68.2366409,-0.7613522,0.2753318,10.6397781,2.3053436,0.4351145,-5.8778625
6020,19.6126022,10.0867205,7.2711535,-19.1832066,-57.9618340,-30.7938938,-0.8475431,0.2442073,10.6110477,1.8091604,-0.1832061,-5.3816795
6030,19.6126022,9.1051025,8.0325060,3.9007633,-48.9312973,-115.6335907,-0.9265513,0.2226596,10.5775290,1.5648855,-0.2213740,-4.9236641
6040,16.5175133,8.2407999,8.4251528,37.1984749,-57.4503822,-173.6183167,-0.8595140,0.2130829,10.5823174,1.3435115,-0.7862595,-5.0229006
6050,12.4354200,7.7643566,7.8649125,73.0457993,-79.9389343,-207.9236603,-0.9457048,0.1628049,10.5775290,1.3053435,-0.7862595,-5.0534353
6060,8.8369532,7.6638002,5.7077475,100.9160309,-104.0076370,-227.6106873,-0.9935886,0.1029501,10.6062593,1.4732825,-0.7709923,-4.4351144
6070,6.6462698,7.7499914,3.4667864,115.6335907,-116.8778610,-244.1984711,-1.1085097,0.1149211,10.5942879,1.3816794,-0.9083970,-3.1450381
6080,4.0150557,7.5608501,1.1659702,120.4198456,-110.6259537,-250.1374054,-1.0414724,0.1292862,10.6158361,1.3893130,-1.4503816,-3.0534351
6090,1.6711442,7.4124107,-0.8690908,116.5114517,-96.3358765,-250.1374054,-1.0414724,0.0790083,10.6397781,1.5572519,-1.6641221,-2.8015268
6100,-1.0893562,7.1155310,-2.7605004,104.3740463,-85.6030502,-250.1374054,-1.1324517,0.1077385,10.5775290,1.5190840,-2.3282442,-2.5877862
6110,-3.6080434,6.6295104,-3.6391680,86.3740463,-78.6412201,-250.1374054,-1.1516051,0.0670373,10.5799236,1.1068702,-3.2290077,-1.9312977
6120,-6.5696559,5.9615316,-5.0134325,68.2824402,-56.7786255,-250.1374054,-1.0941446,0.1580165,10.4793673,0.8702290,-4.1068702,-2.0229008
6130,-10.1154509,5.7628140,-5.9375896,50.0839691,-25.7480907,-230.8244324,-1.0654143,0.1460456,10.5487986,0.2290076,-5.3358779,-1.1297710
6140,-14.0969877,5.6766233,-6.9599090,28.9618320,0.2442748,-189.9770966,-1.1061156,0.1963235,10.5966825,-0.4122137,-6.5343513,-0.7328244
6150,-18.3155499,5.7149301,-7.4507174,6.3282442,8.1526718,-131.2900696,-1.0223188,0.1987177,10.5368280,-0.8244275,-7.5877862,-0.3816794
6160,-19.6131992,6.0908179,-8.0516596,-17.8396950,20.3435116,-56.5954208,-0.9337339,0.2442073,10.6589317,-1.2671756,-7.5343513,0.3587786
6170,-19.6131992,6.2440462,-8.1139078,-46.2366409,53.1908379,24.4732819,-0.8882443,0.2681492,10.6493549,-1.2824427,-7.7099237,0.0076336
6180,-19.6131992,6.0118098,-7.7978749,-83.9847336,92.1374054,113.7099228,-0.8547257,0.2298422,10.6996326,-1.1374046,-7.7633586,0.9007633
6190,-19.6131992,5.6143742,-7.0317345,-125.8167953,145.7709961,196.6183167,-0.7278336,0.3519458,10.6493549,-0.7633588,-7.4885497,0.8396947
6200,-18.4376526,4.4962878,-5.3294659,-166.0076294,211.6030579,250.1297760,-0.6344602,0.3375807,10.6637201,-0.1755725,-6.7938933,0.2213740
6210,-15.9524841,3.3398943,-3.3949606,-195.0686951,250.1297760,250.1297760,-0.6344602,0.3256098,10.6397781,0.3053435,-6.0839696,0.0687023
6220,-12.3899307,2.2984219,-1.5514348,-213.1755676,250.1297760,250.1297760,-0.5841822,0.3471575,10.7211800,0.5267175,-5.6488547,-0.5572519
6230,-7.7978749,0.9289455,0.1340746,-223.0229034,250.1297760,250.1297760,-0.6224893,0.3088504,10.6541433,0.6259542,-5.0610685,-0.9160305
6240,-3.3207407,0.4429250,2.2218077,-225.5801544,232.8931274,250.1297760,-0.5937590,0.2873027,10.7714586,0.6564885,-4.2213740,-1.6335878
6250,3.0765336,0.4668669,5.2887645,-214.0076294,162.2519073,250.1297760,-0.5674229,0.2705434,10.6732969,0.9618320,-3.6488550,-2.3358779
6260,9.8233595,1.3383518,7.9654684,-186.1908417,57.1297722,250.1297760,-0.6009415,0.2082945,10.5296450,0.9847328,-2.9618320,-2.8167939
6270,17.7074261,3.8211265,10.1226330,-137.5572510,-58.9160309,250.1297760,-0.7182568,0.2035061,10.6637201,1.0229008,-2.4351146,-3.2519083
6280,19.6126022,5.7915444,12.0116482,-73.5801544,-157.4274750,174.3893127,-0.7158626,0.2753318,10.6732969,1.1526718,-2.1908398,-3.3587787
6290,19.6126022,7.2208753,12.6963863,-3.6793892,-215.5114441,47.9618340,-0.7805058,0.2705434,10.5942879,1.1908396,-1.4885496,-3.6259542
6300,19.6126022,8.0133524,12.2774038,57.3206100,-212.6870270,-69.1374054,-0.8714849,0.2920911,10.6613255,1.1984733,-0.9694657,-2.7709923
6310,19.6126022,7.8768835,11.2287483,100.7633591,-186.8625946,-152.8244324,-0.7876883,0.2489957,10.6014709,1.4427481,-0.9541985,-2.8931298
6320,17.7768574,7.4315639,8.7340031,123.5572510,-185.9770966,-198.8549652,-0.7685348,0.2896969,10.6876621,1.5267175,-0.9160305,-2.5572519
6330,13.9533358,7.4459291,5.9567432,133.7480927,-203.7022858,-220.2061005,-0.8355721,0.2729376,10.5847120,1.7862595,-0.9465649,-3.1984732
6340,11.8751793,7.4650826,3.1914546,138.8396912,-209.6488495,-237.5267181,-0.7805058,0.1915352,10.6325951,1.9923664,-1.2213740,-3.2137403
6350,3.7828193,7.9726510,-2.8969693,110.7938919,-114.0152664,-250.1374054,-0.9768293,0.1436514,10.6493549,1.6412214,-2.1984732,-2.8396947
6360,1.5873476,7.7380204,-3.5553713,89.6030502,-102.5572510,-250.1374054,-0.9169745,0.1556223,10.6709023,1.2671756,-2.0992367,-3.2900763
6370,-0.6033357,6.8713236,-3.4811516,74.8167953,-93.8549652,-250.1374054,-0.9648584,0.1795642,10.6182299,1.2290076,-1.9083970,-2.7557251
6380,-2.8442972,6.0764527,-3.5242469,66.7175598,-84.3358765,-250.1374054,-0.9504932,0.1484398,10.6158361,1.2824427,-1.8625954,-2.5877862
6390,-5.8513989,5.5210009,-3.4236910,59.8091621,-80.6488571,-250.1374054,-0.9672526,0.1843526,10.5823174,1.3969465,-2.4122138,-2.0610688
6400,-8.7052727,5.2624283,-3.7062054,49.0916023,-81.4122162,-250.1374054,-1.0318956,0.1843526,10.5416164,1.4503816,-2.9389312,-1.9160305
6410,-12.2295198,5.2911587,-3.9049230,34.7557259,-67.7633591,-247.6641235,-0.9552816,0.2370248,10.6852674,1.1374046,-3.2442749,-1.7786260
6420,-16.4935703,5.3701668,-4.1706781,18.1068707,-27.8702297,-193.0000000,-0.9648584,0.2418131,10.5727406,0.9694657,-3.5954199,-1.4961832
6430,-19.6131992,5.5880380,-5.1499014,-0.2824427,30.7404575,-119.6793900,-0.9241571,0.2777260,10.5033092,0.7557252,-4.1832061,-1.6106870
6440,-19.6131992,5.7149301,-5.9782910,-25.8625946,84.7862625,-37.7786255,-0.9265513,0.2657550,10.6828737,0.6412213,-4.3740458,-1.0076336
6450,-19.6131992,5.7340837,-6.3661499,-53.0534363,101.9618301,45.3282433,-0.9169745,0.2920911,10.6828737,0.5877863,-4.9007635,-0.9847328
6460,-19.6131992,5.5449429,-6.2296810,-74.7175598,100.0229034,123.1068726,-0.9193687,0.2082945,10.4913378,0.2977099,-5.5877862,-1.1755725
6470,-18.0402184,5.4802995,-5.9711084,-94.2748108,103.4427490,189.5343475,-0.7948709,0.2609667,10.6685085,-0.1603053,-5.7786260,-1.1374046
6480,-14.7075062,5.2360926,-5.3079181,-114.4503784,114.9694672,241.4732819,-0.8403605,0.2561783,10.5464048,-0.2977099,-5.8854961,-1.0610687
6490,-11.6094246,4.7668314,-4.0533628,-131.9007568,132.9923706,250.1297760,-0.7541697,0.2609667,10.5895004,-0.2519084,-5.8091602,-1.4656489
6500,-9.1984758,4.2353210,-3.3686244,-146.3816833,148.5496216,250.1297760,-0.7278336,0.2489957,10.6014709,-0.0763359,-5.3969464,-1.7099236
6510,-6.4882536,3.5362179,-2.7628946,-160.4198456,159.8702240,250.1297760,-0.7541697,0.2968795,10.8169479,0.1755725,-5.0610685,-2.3129771
6520,-3.4572096,2.9807658,-1.9368993,-172.3435059,166.1984711,250.1297760,-0.7302278,0.3064562,10.6014709,0.5801527,-4.8625956,-2.4885497
6530,-0.3303981,2.9041519,-1.0725969,-182.3129730,173.0000000,250.1297760,-0.7517755,0.2944853,10.6110477,0.6412213,-4.6641221,-2.9618320
6540,3.2130022,2.3199697,-0.1197095,-192.8549652,177.7557220,250.1297760,-0.8164186,0.2489957,10.6254129,0.8015267,-3.9541984,-2.4809160
6550,7.8002691,2.6575503,1.8243724,-204.3282471,138.9618378,250.1297760,-0.7541697,0.2920911,10.5152798,0.7862595,-3.1908398,-2.8015268
6560,12.9022865,3.2537034,5.2217274,-206.1068726,65.5877838,250.1297760,-0.6991033,0.2513899,10.6589317,0.5419847,-2.6412213,-2.4503818
6570,19.3019562,4.5752959,9.3181858,-184.3511505,-0.2748092,226.3511505,-0.6703730,0.2394189,10.6613255,0.8015267,-2.4274809,-2.9007633
6580,19.6126022,6.3733325,13.8527803,-136.2290039,-44.1450386,127.6641235,-0.7230452,0.2896969,10.6397781,0.5038168,-2.2366412,-2.5190840
6590,19.6126022,6.5169835,15.7250366,-76.4961853,-51.7786255,15.9236641,-0.7493813,0.2513899,10.6493549,0.7251908,-1.8320611,-3.4580152
6600,19.6126022,6.1770086,16.3259773,-17.4885502,-42.3969460,-86.1755753,-0.7733232,0.3734936,10.6685085,0.9236641,-1.4198474,-3.7404580
6610,19.6126022,5.8944945,15.7513723,40.7862587,-50.3282433,-160.2213745,-0.8283895,0.3303981,10.6589317,1.1984733,-0.9923664,-3.8091602
6620,16.3211899,5.4611464,14.0898046,99.3740463,-87.6412201,-203.2748108,-0.7996593,0.3758878,10.6230183,1.3893130,-0.8091603,-3.9618320
6630,12.6892042,4.8649931,11.1257982,150.0839691,-125.3893127,-225.6793823,-0.7924767,0.3902529,10.6158361,1.3664122,-0.9465649,-3.6793892
6640,10.7355452,5.2169390,7.7835097,187.5343475,-147.8473358,-238.4580078,-0.8259954,0.4046180,10.6421719,1.2824427,-1.1221374,-2.9465649
6650,9.0069408,5.8968887,4.8841467,206.8015289,-155.4885559,-250.1374054,-0.8571198,0.3112446,10.6852674,1.0992366,-1.4809160,-3.5877862
6660,6.8330169,6.1578555,2.2194135,206.3511505,-150.0305328,-250.1374054,-0.8379663,0.2992737,10.5918941,0.9541985,-1.6488550,-3.7709923
6670,4.5345950,6.1937680,-0.0215477,192.1755676,-132.8625946,-250.1374054,-0.9169745,0.2609667,10.5487986,0.8015267,-1.7862595,-3.8854961
6680,2.6719155,5.9088597,-2.1882892,172.0229034,-101.9312973,-250.1374054,-0.9888002,0.1987177,10.6780853,1.0839695,-1.5496184,-3.2137403
6690,0.8259954,5.4802995,-3.3590479,150.4961853,-83.0839691,-250.1374054,-1.0318956,0.1125269,10.6900558,1.3587786,-1.7328244,-3.3969467
6700,-1.5490406,4.8266859,-4.1898317,132.9313049,-79.9007645,-250.1374054,-0.9959828,0.1005560,10.7930059,1.7328244,-1.4427481,-3.5038168
6710,-4.1323709,4.2927818,-5.3629842,116.2748108,-70.8549652,-250.1374054,-1.1132981,0.1149211,10.7116032,1.9007634,-1.8091604,-2.9236641
6720,-7.6398587,4.1563129,-5.8705525,98.8091583,-57.4351158,-250.1374054,-1.1348459,0.1939293,10.5559816,1.9923664,-2.0916030,-2.5725191
6730,-11.2981796,4.3239059,-6.6821828,79.4274826,-47.3969460,-250.1374054,-1.2473727,0.1580165,10.5583754,1.9160305,-2.8854961,-1.4656489
6740,-14.9588957,4.9032998,-7.3884687,54.9847336,-36.1297722,-240.2671814,-1.1563935,0.2896969,10.5727406,1.3816794,-3.6488550,-1.6030535
6750,-18.1647148,5.9232249,-8.0253229,26.1297703,-13.7709923,-178.0686951,-1.0223188,0.2681492,10.5416164,0.8015267,-4.5038166,-0.3664122
6760,-19.6131992,6.1075773,-9.0572186,-10.1755724,27.4351139,-105.0687027,-0.9959828,0.2633608,10.6038647,0.5267175,-5.3129773,-0.5954198
6770,-19.6131992,6.2799587,-9.2128410,-52.8396950,63.5114517,-29.6488552,-0.9696468,0.3567342,10.6230183,0.1679389,-6.0687022,-0.9923664
6780,-19.6131992,6.2488346,-8.2575598,-89.5038147,84.5038147,39.4885483,-0.9265513,0.2801202,10.6014709,0.1679389,-6.8091602,-0.8167939
6790,-19.0433826,5.9782910,-7.3573442,-117.1068726,101.9847336,99.3358765,-0.8786675,0.3112446,10.5966825,-0.1450382,-6.8396945,-0.8015267
6800,-17.8247414,5.6694407,-6.4547348,-142.3664093,123.0381699,156.4274750,-0.8355721,0.3471575,10.6038647,0.0076336,-6.8473282,-1.0839695
6810,-15.9931860,5.3797436,-5.5784616,-164.6946564,130.8931274,206.6564941,-0.7781116,0.4022238,10.7020273,0.3206107,-6.1221375,-0.4656489
6820,-13.9796724,5.0038562,-4.3191175,-179.3358765,125.0916061,247.7938995,-0.7685348,0.4070122,10.6493549,0.6030535,-5.6946564,-0.7404580
6830,-12.1648769,4.4196739,-3.4117200,-188.4045868,117.7862625,250.1297760,-0.7541697,0.3830703,10.6972389,0.9770992,-5.2213740,-1.1221374
6840,-10.0029240,3.5290353,-2.7197993,-197.9541931,113.8778610,250.1297760,-0.6703730,0.4333483,10.6062593,1.4198474,-4.6793895,-1.4122137
6850,-7.5608501,2.4492557,-2.0901275,-210.3053436,113.0076370,250.1297760,-0.6823440,0.3926471,10.6349897,1.4274809,-4.0076337,-1.2442749
6860,-4.9583664,1.1228749,-1.2234308,-224.5419922,117.5419846,250.1297760,-0.7900825,0.3758878,10.5176744,1.3282443,-3.8015268,-1.4961832
6870,-1.9153515,-0.1939293,0.0263361,-240.0152740,126.4122162,250.1297760,-0.8690908,0.3998296,10.4482431,0.7557252,-4.0916033,-1.8854961
6880,1.2569494,-1.2856797,2.0853391,-250.1374054,133.2671814,250.1297760,-0.7996593,0.3758878,10.5080976,-0.3282443,-4.8625956,-1.7404580
6890,5.8801293,-1.5155219,4.8554163,-250.1374054,120.1679382,250.1297760,-0.8379663,0.3687052,10.4793673,-1.3511450,-5.2137403,-1.4809160
6900,12.7083578,-0.3303981,8.8154058,-245.0076294,68.1145020,250.1297760,-0.7469871,0.3088504,10.6254129,-1.8320611,-5.3664122,-1.6488550
6910,19.6126022,2.6216373,14.2454271,-200.2213745,8.3893127,250.1297760,-0.6871324,0.2609667,10.6038647,-1.6106870,-5.0152674,-2.4885497
6920,19.6126022,4.9344244,18.3107605,-133.9160309,-6.4732823,170.3740387,-0.6129125,0.2442073,10.7499104,-1.2137405,-4.2442746,-3.5038168
6930,19.6126022,6.2440462,19.6126022,-55.3587799,-4.5954199,45.0687027,-0.6679789,0.2250538,10.7786407,-0.1755725,-3.4351146,-4.8778625
6940,19.6126022,6.0716643,19.6126022,23.4274807,-24.7633591,-77.1908417,-0.6177009,0.2537841,10.7355452,0.7786260,-2.2366412,-5.8854961
6950,19.6126022,4.6997938,17.7792511,100.6488571,-74.5725174,-178.3358765,-0.6823440,0.3327923,10.7834291,1.7633588,-0.5725191,-6.2442746
6960,16.7689037,3.6487448,14.4202032,171.3129730,-140.0610657,-244.1450348,-0.7110743,0.3663110,10.6876621,2.4198472,0.2977099,-6.6412215
6970,12.9334116,3.4117200,11.2311430,225.4045868,-187.3587799,-250.1374054,-0.8499373,0.3687052,10.6613255,3.1221373,1.1068702,-6.7557254
6980,9.3828287,4.5322008,7.6590118,250.1297760,-205.2213745,-250.1374054,-0.8547257,0.3399749,10.5416164,3.1603053,1.3282443,-7.4427481
6990,6.9192076,5.7436604,4.6447277,250.1297760,-196.6946564,-250.1374054,-0.9600700,0.3543400,10.5583754,2.9007633,1.4427481,-6.5877862
7000,4.9942794,6.3661499,0.9864060,250.1297760,-179.5801544,-250.1374054,-1.0007712,0.3782819,10.5559816,2.6946564,1.8167939,-6.3893127
7010,3.7516949,6.9120250,-3.0861101,221.0229034,-151.2977142,-250.1374054,-1.1228749,0.3519458,10.6325951,2.4427481,1.7099236,-5.4503818
7020,1.7238164,7.2304521,-4.2185616,172.0458069,-142.2900696,-250.1374054,-1.1156923,0.3303981,10.5990763,2.6488550,1.6793894,-4.5190840
7030,0.1101327,5.9088597,-4.5178356,135.5801544,-123.6717529,-250.1374054,-1.1276633,0.3088504,10.5990763,2.5496182,0.9236641,-4.1603055
7040,-1.3144100,4.7979555,-4.6040263,112.7938919,-98.0610657,-250.1374054,-1.1587877,0.3184272,10.5583754,2.7862597,0.2748092,-3.2442749
7050,-3.8881636,4.3263001,-4.7428894,99.6259537,-77.8549652,-250.1374054,-1.1109039,0.3136388,10.5918941,2.9312978,-0.9694657,-3.1603053
7060,-6.6510582,4.0413918,-4.9152708,89.7709961,-69.0000000,-250.1374054,-1.0917504,0.3160330,10.6972389,2.7480917,-1.3358779,-2.8854961
7070,-9.2080526,3.8522508,-4.7285242,77.6870193,-55.7938919,-250.1374054,-1.0845678,0.3926471,10.6445665,2.9770992,-1.4427481,-2.4045801
7080,-11.5423870,4.3406653,-4.8697815,61.6183205,-31.4809170,-250.1374054,-1.0725969,0.3854645,10.7714586,2.9312978,-1.9007634,-1.3511450
7090,-14.4944229,4.8602047,-5.3222833,39.9541969,-0.5343512,-213.5954132,-1.0965388,0.3782819,10.6876621,3.1908398,-2.2671757,-0.8625954
7100,-16.2948532,5.1834202,-5.1427188,14.8015270,25.7404575,-163.0915985,-1.0917504,0.3663110,10.6182299,3.1679389,-2.6259542,-0.7404580
7110,-17.4320927,5.4802995,-4.4244623,-6.6946564,44.4274826,-109.2290039,-1.1468167,0.3256098,10.6278067,3.2900763,-3.2748091,-0.4198473
7120,-18.2652721,5.7508430,-3.9216824,-22.0152664,64.5343475,-50.8473282,-1.0821736,0.3878587,10.4745789,3.2977099,-2.7862597,-0.0381679
7130,-18.6531296,5.7149301,-3.7085996,-34.5190849,84.0534363,10.6488552,-1.1180865,0.3351865,10.4865494,3.1832061,-3.9160306,0.7404580
7140,-18.1192265,5.9830794,-3.2273674,-42.8244286,93.7938919,71.5877838,-1.0582317,0.3519458,10.5296450,2.7709923,-4.3282442,1.1450381
7150,-16.9676208,6.0932121,-3.7253587,-45.8625946,93.0457993,128.0915985,-1.1324517,0.2274480,10.5990763,2.4351146,-5.2748094,1.1755725
7160,-16.0410690,6.0812411,-4.6471219,-52.9236641,98.6717529,179.7480927,-1.1061156,0.3639168,10.5895004,2.0534351,-6.2137403,0.5114504
7170,-14.5662489,5.7460546,-5.3270717,-69.0534363,103.6717529,231.5496216,-1.0558375,0.3639168,10.5535870,1.6793894,-6.7251906,0.8167939
7180,-11.7315283,5.4324160,-5.6000090,-88.4274826,108.5572510,250.1297760,-0.9911944,0.4357425,10.5248566,1.2748091,-7.3664122,0.3206107
7190,-9.0141230,5.0254035,-5.5114241,-109.1755753,122.0381699,250.1297760,-0.8666966,0.4381367,10.5990763,0.8015267,-7.7480917,0.4656489
7200,-6.4068508,4.2736282,-4.8147149,-132.5114441,144.6335907,250.1297760,-0.8858501,0.4165890,10.5152798,0.4274809,-7.8091602,0.0152672
7210,-3.8330972,3.5984666,-4.4053087,-156.6870270,173.7709961,250.1297760,-0.7709290,0.4357425,10.5152798,0.1145038,-7.8396945,-0.4885496
7220,-1.5945302,2.9664006,-4.0964580,-184.9160309,207.5267181,250.1297760,-0.7158626,0.5003856,10.5440102,-0.2137405,-7.6259542,-1.4045801
7230,-0.2466015,2.1667414,-2.6671271,-218.0305328,235.3358765,250.1297760,-0.6392486,0.4740495,10.6613255,-0.3129771,-7.1603055,-1.9770992
7240,0.8355721,1.2497669,-0.5817881,-247.9313049,250.1297760,250.1297760,-0.5913648,0.4548960,10.6062593,-0.0763359,-5.7175574,-2.6183207
7250,2.4516499,0.1795642,2.1284344,-250.1374054,250.1297760,250.1297760,-0.5482694,0.4501076,10.5942879,0.4045801,-4.0000000,-2.8167939
7260,5.7077475,0.2896969,5.6814117,-250.1374054,223.4809113,250.1297760,-0.6775556,0.4405309,10.6709023,0.7099237,-2.5496182,-3.9465649
7270,12.7945480,1.6687500,10.6158361,-246.0915985,127.2366409,250.1297760,-0.7182568,0.3998296,10.7858238,1.1984733,-1.4274809,-4.5114503
7280,19.6126022,4.0892754,15.7920732,-178.5114441,-0.7404580,226.6030579,-0.7134684,0.3399749,10.6637201,1.8625954,-0.5343512,-5.9083967
7290,19.6126022,6.3781209,19.4240589,-81.4427490,-91.7862625,111.6488571,-0.7589580,0.3926471,10.7618818,2.8015268,0.2290076,-6.7633586
7300,19.6126022,6.8258343,19.4001179,20.0076332,-140.9770966,-17.2977104,-0.8906385,0.3926471,10.6948442,3.3893130,0.3053435,-7.4045801
7310,19.6126022,6.6797886,17.0418396,108.7328262,-166.1832123,-135.4503784,-0.8571198,0.3926471,10.6517487,3.3740458,-0.1221374,-7.3969464
7320,19.6126022,5.8466105,13.3667593,170.0610657,-213.9465637,-223.5419922,-0.9888002,0.4405309,10.6014709,3.1832061,-0.4732825,-6.9541984
7330,13.9557304,4.7811961,9.9430685,209.0229034,-250.1374054,-250.1374054,-1.1372399,0.4501076,10.4506369,2.5419848,-0.9923664,-7.0534353
7340,10.3213511,5.1379304,7.0820122,229.8549652,-250.1374054,-250.1374054,-1.0702027,0.3399749,10.5224628,1.7557251,-3.4351146,-6.8015265
7350,7.3405848,5.8466105,3.1459649,236.2824402,-250.1374054,-250.1374054,-1.1180865,0.4213773,10.4027529,0.7404580,-4.8854961,-7.7633586
7360,5.5305777,5.8226686,0.4405309,234.7557220,-250.1374054,-250.1374054,-1.1899122,0.4692611,10.5176744,-0.2366412,-5.7786260,-7.0000000
7370,2.7676830,5.9375896,-2.3846128,223.1832123,-208.7099304,-250.1374054,-1.1516051,0.3734936,10.4745789,-1.0229008,-5.6946564,-5.8167939
7380,-0.7014975,6.3876977,-5.4922705,192.6335907,-176.0229034,-250.1374054,-1.1372399,0.4309541,10.6732969,-0.9083970,-5.7480917,-5.1526718
7390,-2.9376705,6.6199336,-7.4267755,143.1374054,-165.1755676,-250.1374054,-1.1516051,0.4285599,10.6254129,-0.1526718,-5.1603055,-4.4122138
7400,-4.2233500,6.6462698,-7.4650826,96.6488571,-154.9923706,-250.1374054,-1.1252691,0.5027798,10.7235746,0.6946565,-4.6030536,-3.0992367
7410,-6.9934273,6.1171541,-6.7276726,69.7709961,-140.0839691,-250.1374054,-1.1516051,0.4405309,10.6349897,1.3816794,-4.5267177,-2.5038168
7420,-9.9310980,5.8442163,-6.3900914,54.7099228,-116.0305328,-242.3893127,-1.1180865,0.4620786,10.5895004,2.1068702,-4.1297708,-2.0000000
7430,-13.5199881,6.1530671,-6.6702118,38.2213745,-84.1297684,-195.8015289,-1.0749911,0.5243275,10.5535870,2.2290077,-4.9312978,-0.5343512
7440,-16.5366669,6.6773944,-6.9934273,14.3740454,-40.0916023,-133.6030579,-1.0630201,0.4908088,10.5080976,1.9847329,-5.3282442,-0.4427481
7450,-18.9907112,7.0532823,-7.3932571,-17.6793900,10.0076332,-59.6946564,-1.0103480,0.5746055,10.5272512,1.4656489,-5.3053436,-0.2671756
7460,-19.6131992,7.0604649,-8.0875721,-58.8549614,67.0534363,22.3664131,-0.9672526,0.5243275,10.4745789,1.0000000,-5.2595420,0.5725191
7470,-19.6131992,6.7635851,-7.5536675,-98.0229034,123.1068726,100.3206100,-0.9433106,0.5530578,10.4362717,0.5877863,-4.7251906,0.9541985
7480,-17.5948982,6.3637557,-6.3374195,-129.8244324,170.5038147,171.3664093,-1.0151364,0.5937590,10.6014709,0.4885496,-4.2748094,1.3740458
7490,-15.0426922,5.6263452,-4.8817525,-156.2671814,200.6259613,231.1526642,-0.9241571,0.4477134,10.7259684,0.5648855,-4.4045801,2.3511450
7500,-11.8153248,4.7093706,-3.1531475,-176.1374054,209.5648804,250.1297760,-0.9361281,0.4836263,10.5655584,0.7404580,-4.6183205,1.0381680
7510,-9.1769285,4.2951760,-1.8770446,-189.0992432,209.3893127,250.1297760,-0.8930327,0.4525018,10.6996326,0.9847328,-4.4045801,0.8549618
7520,-6.3278427,3.5170643,-0.7661406,-195.6183167,209.1832123,250.1297760,-0.8930327,0.5219333,10.6709023,1.3587786,-4.0152674,1.0458015
7530,-3.8929520,3.0789278,-0.0861908,-199.5801544,211.9007568,250.1297760,-0.8643024,0.4932030,10.6182299,1.7251909,-3.5190840,0.5419847
7540,-1.5203103,2.3223639,0.5961532,-203.8625946,217.3740387,250.1297760,-0.7996593,0.5434810,10.4769726,1.7709924,-2.9160306,0.4045801
7550,1.3503228,1.6280488,1.7788827,-208.0229034,214.9618378,250.1297760,-0.8379663,0.4788379,10.5320396,1.5343511,-2.4503818,0.1984733
7560,5.1834202,1.5227045,3.5386121,-205.5877838,195.9236603,250.1297760,-0.8858501,0.5003856,10.4314833,1.3816794,-2.1221373,-0.1755725
7570,10.4266949,2.3894010,6.1099715,-192.1526642,147.1908417,250.1297760,-0.8786675,0.4165890,10.5823174,0.8244275,-2.6183207,-0.3435115
7580,15.8040447,4.2329268,8.8585014,-166.1755676,64.2442780,249.0763397,-0.9313397,0.4501076,10.5128860,0.1526718,-2.6335878,-0.5648855
7590,19.6126022,6.3230543,11.5974541,-124.2824402,-18.4198475,163.3511505,-0.9313397,0.3878587,10.6110477,-0.3511450,-3.1908398,-1.4885496
7600,19.6126022,7.5177550,13.7689838,-69.1984711,-74.2824402,52.7175560,-0.9145803,0.3184272,10.6804790,-0.4045801,-3.7709923,-2.1679389
7610,19.6126022,8.1282730,15.5718079,-11.3587790,-100.4961853,-63.2900772,-0.8930327,0.3208214,10.7977943,-0.1679389,-4.2290077,-3.2671757
7620,19.6126022,6.7492199,15.4401274,46.3587799,-120.3053436,-166.9084015,-0.9624642,0.3351865,10.6230183,0.5190840,-3.3511450,-3.5572519
7630,16.9341011,5.3558016,13.8647509,102.1603088,-150.4961853,-236.9465637,-0.9672526,0.3974355,10.7403336,1.2290076,-3.4122138,-3.5648854
7640,12.7514534,4.0844874,11.6932211,153.7938995,-179.2290039,-250.1374054,-1.0007712,0.3663110,10.7235746,1.5038168,-2.6488550,-3.3129771
7650,8.8632889,4.1467361,9.5887289,193.8702240,-204.5419922,-250.1374054,-0.9744351,0.5171449,10.5464048,1.9389313,-2.2595420,-3.2824428
7660,5.3510137,4.7237358,6.8090749,216.4045868,-217.3206177,-250.1374054,-0.9289455,0.5195391,10.5823174,2.2290077,-1.9007634,-3.6641221
7670,3.6200144,5.6454988,3.9216824,218.9847260,-206.2061005,-250.1374054,-0.8978211,0.5458752,10.5272512,2.0381680,-2.3129771,-3.4198472
7680,2.2289903,6.4906478,1.3191984,205.9007568,-189.2442780,-250.1374054,-1.0007712,0.5243275,10.5080976,1.5954199,-2.6641221,-3.1297710
7690,0.7685348,6.5744443,-0.8164186,190.0381622,-167.9389343,-250.1374054,-1.0462608,0.5602403,10.5368280,1.3435115,-3.2061069,-2.8396947
7700,-0.9911944,5.9950504,-2.9496415,175.9541931,-143.5801544,-250.1374054,-1.0199248,0.6129125,10.5152798,0.7786260,-3.7709923,-2.7328243
7710,-2.9999194,5.7101417,-4.9104824,159.7557220,-130.5343475,-250.1374054,-1.0390782,0.5554519,10.5871058,0.3893130,-4.3282442,-2.4274809
7720,-5.3893204,5.7269011,-6.3062949,140.3358765,-129.0152740,-250.1374054,-0.9720409,0.6296718,10.5511932,0.2595420,-4.8396945,-2.2748091
7730,-8.6047173,6.0237808,-7.7092900,117.4732819,-123.4885483,-248.8015289,-1.0103480,0.5698171,10.5104914,0.1526718,-4.0839696,-2.0076337
7740,-12.5694942,6.7013364,-8.9925756,87.6641235,-90.0763321,-205.5572510,-0.9504932,0.6153067,10.6110477,0.0992366,-3.8396947,-1.4198474
7750,-16.8383350,6.7228842,-10.2830439,48.6412201,-26.6870232,-138.5114441,-1.0318956,0.5889706,10.5775290,0.2671756,-3.9236641,-0.9541985
7760,-19.6131992,6.6869712,-11.1449518,0.5877863,39.7251892,-51.9923668,-0.9265513,0.5482694,10.6732969,-0.0763359,-3.8549619,-1.3740458
7770,-19.6131992,6.8138633,-11.2814207,-52.0992355,88.9465637,40.6946564,-0.9073978,0.4405309,10.5296450,-0.1145038,-3.7251909,-1.4045801
7780,-19.6131992,6.0716643,-10.3428984,-103.9160309,137.7557220,128.7328186,-0.8834559,0.4740495,10.5535870,-0.1068702,-3.8244274,-1.4656489
7790,-18.1814747,5.1115947,-8.2168579,-150.6030579,189.9770966,206.6183167,-0.9241571,0.4812321,10.7211800,-0.1068702,-3.8473282,-1.7480916
7800,-16.3068237,3.6535332,-6.0357518,-188.2137451,233.7175598,250.1297760,-0.8643024,0.4189832,10.6852674,-0.1068702,-3.8549619,-1.7709924
7810,-13.5822372,2.2218077,-3.7708483,-215.1832123,250.1297760,250.1297760,-0.8547257,0.4644727,10.6110477,-0.0305344,-3.5267177,-2.1221373
7820,-11.2670555,1.4867916,-1.1300575,-233.0458069,250.1297760,250.1297760,-0.8786675,0.5578461,10.6302013,0.2748092,-3.0381680,-2.3740458
7830,-8.8513184,0.5506636,1.1228749,-241.7557220,250.1297760,250.1297760,-0.8499373,0.5315101,10.6565371,0.6946565,-2.6946564,-2.3206108
7840,-5.3127065,-0.5482694,3.1172347,-240.4427490,233.5648804,250.1297760,-0.9193687,0.5386927,10.6014709,1.1068702,-2.3816793,-2.2519083
7850,0.3399749,-1.4125718,5.7149301,-226.4045868,172.4045868,250.1297760,-0.9504932,0.6775556,10.6302013,1.3969465,-2.0305343,-2.2748091
7860,7.6087341,-1.1372399,7.3956513,-198.3206177,73.5877838,250.1297760,-0.8259954,0.6607963,10.5823174,1.1603054,-2.2137403,-2.1832061
7870,18.0306416,1.8890154,9.3971939,-154.3816833,-42.8091621,250.1297760,-0.8858501,0.5961532,10.6230183,1.2900764,-2.0916030,-2.2061069
7880,19.6126022,5.0397687,11.4729557,-93.6946564,-143.9847260,250.1297760,-0.8858501,0.6153067,10.5080976,0.7099237,-2.0229008,-2.5954199
7890,19.6126022,7.9678626,12.3516235,-27.0152664,-196.5572510,130.5190887,-0.9097920,0.5722113,10.5296450,0.4198473,-2.2824428,-2.7633588
7900,19.6126022,9.2511482,12.0284081,26.1374054,-172.1450348,-18.3435116,-0.9576758,0.5099624,10.5631638,-0.0458015,-2.7709923,-3.0076337
7910,19.6126022,8.4897957,10.8935623,67.7633591,-143.8854980,-140.3358765,-0.9744351,0.4094064,10.4985209,-0.2442748,-2.8549619,-3.4885497
7920,19.6126022,6.5624733,9.0141230,106.7557220,-151.3664093,-223.8702240,-0.9744351,0.3902529,10.4985209,-0.4885496,-2.5954199,-3.4045801
7930,18.7872047,5.2097564,6.4978304,136.1526642,-158.3282471,-250.1374054,-1.1444225,0.4022238,10.6230183,-0.7022901,-2.7938931,-3.2519083
7940,13.3667593,4.9344244,4.5489597,156.9618378,-153.6335907,-250.1374054,-1.1085097,0.3327923,10.6469603,-0.6717557,-3.1450381,-3.0916030
7950,9.0117292,5.0541339,2.6862805,168.5419922,-132.9236603,-250.1374054,-1.2186425,0.3758878,10.5655584,-0.8167939,-3.8396947,-3.0229008
7960,4.7333126,5.2432747,0.7469871,169.0763397,-101.7328262,-250.1374054,-1.2162483,0.3303981,10.5487986,-0.9923664,-4.7480917,-2.6183207
7970,1.1348459,5.4515696,-1.2761030,159.4656525,-76.7251892,-250.1374054,-1.1396341,0.3280039,10.5775290,-1.0916030,-5.5343513,-2.8778627
7980,-1.6926919,5.4372044,-2.7317703,144.9084015,-68.8931274,-250.1374054,-1.0797794,0.3782819,10.6541433,-1.0763359,-5.9389315,-3.3511450
7990,-4.4867110,5.2001796,-4.2018023,129.9541931,-63.1374054,-250.1374054,-1.0797794,0.3734936,10.7211800,-0.9618320,-6.2671757,-3.2366412
8000,-7.8505473,5.0325861,-5.5856438,115.5190811,-53.9465637,-250.1374054,-1.0127422,0.3950413,10.6445665,-0.8473282,-6.0610685,-3.4809160
8010,-11.9446115,5.4108682,-7.3621325,97.1526718,-44.7328262,-235.2290039,-0.9648584,0.4860204,10.6134415,-0.6946565,-5.6946564,-3.2595420
8020,-16.2373924,6.0812411,-9.4091644,68.6335907,-36.5496178,-174.1450348,-1.0342898,0.4165890,10.6948442,-0.5648855,-5.4351144,-2.8931298
8030,-19.5198269,6.5457139,-10.7068148,29.4351139,-24.0992374,-94.7786255,-0.9121862,0.5602403,10.6325951,-0.2290076,-5.1832061,-2.9847329
8040,-19.6131992,6.8521700,-10.7834291,-15.1145039,9.3587790,-8.5419846,-0.9026094,0.5339043,10.6397781,-0.1450382,-4.6793895,-2.9923663
8050,-18.6555233,7.0796180,-10.1681223,-58.0000000,56.7175560,70.1984711,-0.8714849,0.5506636,10.6230183,0.0458015,-4.5343513,-2.7862597
8060,-16.3140068,6.9982157,-8.6406298,-93.8778610,107.7557220,134.9618378,-0.8978211,0.5769997,10.6302013,0.0839695,-4.2366414,-2.9694657
8070,-14.2957048,6.5002246,-6.8066807,-120.3282471,144.3282471,188.1908417,-0.9552816,0.5554519,10.6517487,-0.2366412,-3.8702290,-2.5954199
8080,-12.2103662,5.9902620,-5.6478930,-138.6259613,154.4122162,232.8167877,-0.8954269,0.6009415,10.4937325,-0.4351145,-4.5190840,-2.4580152
8090,-9.8712435,5.5018473,-4.8697815,-151.6641235,152.1755676,250.1297760,-0.8906385,0.5698171,10.5871058,-0.9160305,-4.4885497,-2.4961832
8100,-7.5321202,4.8027439,-4.0653338,-162.3282471,151.5267181,250.1297760,-0.9409165,0.4932030,10.5847120,-1.3587786,-4.3053436,-2.5343511
8110,-4.4507980,3.4284792,-3.5266411,-174.5496216,159.0152740,250.1297760,-0.9409165,0.5267217,10.5416164,-1.5267175,-3.9923663,-2.9389312
8120,-0.9576758,2.5378408,-2.2696917,-187.2900696,161.1832123,250.1297760,-0.9648584,0.3950413,10.5942879,-1.2595420,-3.9236641,-2.5572519
8130,3.5817075,1.8985922,-0.2035061,-195.7633514,155.4809113,250.1297760,-0.9385223,0.4405309,10.6421719,-0.7557252,-3.2900763,-2.4427481
8140,7.9630742,1.7238164,2.4061604,-193.5190887,128.7557220,250.1297760,-0.9983770,0.4022238,10.6637201,-0.1755725,-2.7633588,-2.7251909
8150,15.3228121,2.3127871,5.5928264,-175.4732819,61.6335869,250.1297760,-0.9935886,0.5315101,10.7187862,0.5572519,-2.3969467,-1.5267175
8160,19.6126022,5.3510137,9.6414013,-140.6946564,-15.5419846,233.6183167,-1.0103480,0.4405309,10.6637201,0.9847328,-2.4198472,-2.3206108
8170,19.6126022,7.4555058,13.1943779,-84.7633591,-61.1221390,137.5114441,-1.0534433,0.5051740,10.5511932,1.1679389,-2.2519083,-1.9465649
8180,19.6126022,8.7196379,14.7745428,-24.9389305,-50.8702278,30.4503822,-1.0103480,0.6081241,10.4530315,1.1068702,-2.4580152,-2.1450381
8190,19.6126022,8.2048874,14.0084028,32.1908379,-33.7328262,-72.1068726,-1.0271072,0.5746055,10.4865494,0.7404580,-2.7633588,-1.1374046
8200,19.6126022,6.5552907,11.4921093,83.4580154,-64.7709961,-154.8549652,-1.0223188,0.6129125,10.5248566,0.0152672,-3.6870229,-0.3664122
8210,18.9284611,4.9679432,8.4586716,121.2442780,-119.6335907,-215.1221313,-0.9888002,0.6655847,10.4530315,-0.7404580,-4.6946564,-0.9236641
8220,14.9086180,4.6255741,6.0285692,146.2519073,-161.7786255,-250.1374054,-0.9552816,0.5722113,10.4650021,-1.4045801,-5.1603055,-0.9923664
8230,11.4274664,5.3438311,3.8043671,158.3206177,-175.0000000,-250.1374054,-0.9480990,0.4979914,10.4626083,-2.2137403,-5.6259542,-1.0992366
8240,8.6071110,5.8154860,1.2545552,156.9007568,-154.9313049,-250.1374054,-0.8858501,0.5195391,10.6517487,-2.5725191,-5.4885497,-1.1221374
8250,6.4164276,6.1817970,-0.6871324,147.8167877,-118.4885483,-250.1374054,-0.8427547,0.4381367,10.7139978,-2.3435113,-4.8702292,-0.9923664
8260,3.8307030,6.1003947,-2.3127871,137.0229034,-90.6870193,-250.1374054,-0.9409165,0.3806761,10.7283630,-1.6793894,-4.0992365,-1.8854961
8270,1.2713146,5.4850879,-4.0270267,124.6641235,-89.2595444,-250.1374054,-0.8978211,0.3112446,10.7570934,-0.5801527,-3.0916030,-2.8396947
8280,-1.0893562,4.8554163,-5.0325861,110.2366409,-109.7633591,-250.1374054,-0.9744351,0.2944853,10.7930059,0.2137405,-2.5725191,-2.7404580
8290,-3.5936785,4.4579806,-5.3366485,97.3358765,-132.5419922,-250.1374054,-1.0151364,0.2585725,10.6302013,0.9236641,-2.0076337,-2.7328243
8300,-6.5002246,4.1371593,-5.7843618,83.7022934,-138.1908417,-250.1374054,-1.1037214,0.2920911,10.5990763,1.0305344,-1.9160305,-2.7175572
8310,-9.8880024,4.3358769,-5.9974446,67.1603088,-129.4274750,-250.1374054,-1.0893562,0.3112446,10.5224628,0.9770992,-2.4274809,-3.0534351
8320,-12.5527353,4.8578105,-5.9399838,48.3206100,-106.9847336,-250.1374054,-1.1252691,0.3495516,10.4985209,0.5419847,-3.2442749,-3.2824428
8330,-16.5558205,4.8602047,-6.3613615,24.4656487,-59.3206100,-205.2137451,-1.0773853,0.4716553,10.4434547,-0.0687023,-4.2366414,-2.2748091
8340,-19.6131992,5.1163831,-6.9407554,-3.2824428,-5.0000000,-127.7862625,-1.0534433,0.3710994,10.6349897,-0.6488550,-5.1679387,-2.8091602
8350,-19.6131992,5.3486195,-7.1897511,-34.9083977,43.0534363,-45.6870232,-1.0486550,0.4309541,10.5248566,-0.9465649,-5.4427481,-2.7251909
8360,-19.6131992,5.4659348,-7.4794478,-69.6259537,81.8702316,32.5267181,-1.0390782,0.4812321,10.5918941,-0.9923664,-5.9083967,-2.8244274
8370,-19.5461636,5.0972295,-7.1083484,-106.1145020,122.9160309,99.8473282,-0.9313397,0.5267217,10.6134415,-0.9389313,-5.5725193,-2.4122138
8380,-17.9947281,4.5848727,-5.5928264,-139.2671814,149.9541931,158.2748108,-0.8978211,0.4692611,10.6613255,-0.6717557,-5.0381680,-2.2442749
8390,-16.0410690,3.6774750,-3.9384418,-163.6412201,157.1297760,208.5496216,-0.8140244,0.5769997,10.7187862,-0.5801527,-4.9236641,-1.6564885
8400,-14.0395269,3.0166788,-2.4803803,-180.0534363,164.0152740,250.1297760,-0.7996593,0.5746055,10.6996326,-0.3969466,-4.2671757,-2.7862597
8410,-11.9565821,2.3846128,-1.2665262,-189.5801544,170.6488495,250.1297760,-0.7421987,0.5530578,10.6397781,-0.0610687,-3.9923663,-3.1603053
8420,-9.4738073,1.7740943,-0.3327923,-197.1526642,168.8931274,250.1297760,-0.7565638,0.5243275,10.6014709,-0.0076336,-3.5267177,-3.6564887
8430,-6.4882536,0.9337339,0.7062859,-202.6259613,157.7633514,250.1297760,-0.7613522,0.4836263,10.4386663,0.1450382,-3.1832061,-3.1679389
8440,-2.7533178,-0.0167593,1.8435259,-202.4656525,124.4732819,250.1297760,-0.8283895,0.5075682,10.5679522,0.0534351,-2.6564887,-3.5572519
8450,3.1507533,-0.8092360,3.2776453,-193.0000000,67.3664093,250.1297760,-0.8738791,0.4548960,10.6517487,0.2824427,-2.1526718,-4.2137403
8460,10.6924505,0.1795642,4.7381010,-173.9618378,-9.9770994,250.1297760,-0.9337339,0.4189832,10.6349897,0.3358779,-2.0839694,-4.1679387
8470,19.6126022,3.7971845,6.8809004,-141.8778687,-98.0916061,250.1297760,-1.0223188,0.4596844,10.6972389,0.4198473,-2.2290077,-4.1755724
8480,19.6126022,6.2081332,9.0955257,-96.8320618,-158.4503784,216.0152740,-1.0055596,0.3998296,10.6661139,0.6488550,-1.9389313,-3.8015268
8490,19.6126022,8.5951405,10.7235746,-48.4427490,-159.8549652,92.2137375,-1.0917504,0.3806761,10.5942879,0.7175573,-2.1984732,-4.0839696
8500,19.6126022,8.9925756,11.2886028,-1.8778626,-129.6564941,-44.5419846,-1.0438666,0.5051740,10.4985209,0.7099237,-2.1832061,-3.2748091
8510,19.6126022,8.9542685,11.3484583,41.6717567,-94.1603088,-167.0229034,-1.0223188,0.5099624,10.6517487,0.6870229,-2.1526718,-3.0000000
8520,19.6126022,7.8289995,9.7323799,77.4274826,-80.6870193,-250.1374054,-0.9959828,0.5027798,10.6541433,0.7786260,-2.1221373,-2.5725191
8530,16.6108856,7.4674768,7.4052281,104.0839691,-72.6183243,-250.1374054,-1.0055596,0.5099624,10.7092094,0.8473282,-2.0381680,-2.2977099
8540,11.2742386,7.3477674,5.2241216,123.5648880,-60.3664131,-250.1374054,-0.9696468,0.5410868,10.5392218,1.0458015,-1.8167939,-2.7328243
8550,7.2567883,6.9311786,3.0669568,134.2061005,-42.7786255,-250.1374054,-0.9169745,0.4884146,10.5200682,1.1145039,-1.6564885,-2.8931298
8560,3.3159523,7.1490498,0.7829000,135.4580078,-27.7709923,-250.1374054,-0.9241571,0.5362985,10.5918941,0.9847328,-1.9694656,-3.1679389
8570,0.9840119,7.1322904,-1.3359578,129.3129730,-26.2519093,-250.1374054,-0.9552816,0.4979914,10.5080976,1.0534351,-2.4274809,-2.5648854
8580,-0.3902529,7.1849627,-2.9089401,117.6870193,-35.2595406,-247.6259613,-1.0606259,0.5793939,10.5200682,0.6793893,-2.7328243,-2.9770992
8590,-2.2313845,7.0796180,-3.5529771,104.0381699,-66.0076370,-247.2290039,-1.1324517,0.5243275,10.4578199,0.1526718,-3.0916030,-2.4656489
8600,-4.4172797,6.7276726,-4.1467361,93.5190811,-110.9236679,-238.6183167,-1.0917504,0.4740495,10.5152798,-0.3206107,-3.1145039,-2.1450381
8610,-5.9735026,6.0333576,-4.0725164,88.5725174,-143.7786255,-230.2824402,-1.0893562,0.4405309,10.5224628,-0.6030535,-3.5343511,-1.5572519
8620,-8.2192526,6.1363077,-4.2496862,87.2824402,-164.7633514,-219.9770966,-1.1563935,0.3160330,10.5416164,-0.7862595,-3.2519083,-1.2213740
8630,-11.3269100,6.1339135,-5.6407104,76.2366409,-169.0763397,-204.0534363,-1.1061156,0.3016679,10.5487986,-0.4503817,-3.2519083,-1.1297710
8640,-15.1552191,6.2320752,-6.3254485,52.7022896,-166.4503784,-172.2442780,-1.1013272,0.3088504,10.6086531,-0.1755725,-3.2137403,-1.4427481
8650,-17.5996876,6.1530671,-6.9958215,25.4045811,-148.7175598,-120.7557220,-1.0702027,0.2849085,10.6349897,0.3587786,-3.3206108,-0.8778626
8660,-18.7895985,6.5768385,-7.1107426,-5.3969464,-101.9465637,-60.4351158,-1.0510491,0.2968795,10.6158361,0.8244275,-3.2977099,-1.0534351
8670,-19.2971668,6.5050125,-6.9742737,-42.1603050,-52.9465637,8.4961834,-1.0558375,0.3112446,10.7020273,1.0076336,-3.7251909,-1.7328244
8680,-18.5693340,6.2560172,-5.8849177,-73.7328262,-6.8167939,79.7633591,-1.1444225,0.3591284,10.5535870,0.8396947,-4.2061067,-1.5496184
