timestamp,rxacclX,rxacclY,rxacclZ,rxgyroX,rxgyroY,rxgyroZ,txacclX,txacclY,txacclZ,txgyroX,txgyroY,txgyroZ
0,-5.3653784,8.9470863,-5.6885943,34.1450386,-0.5419847,-88.0229034,-0.3303981,1.4269369,11.4107065,4.2595420,-45.3282433,-6.1068702
10,-5.5569139,9.1434097,-6.2608056,-2.6641221,30.6870232,-41.3511467,-0.0598547,1.4915800,11.1593170,6.9694657,-46.9618340,-6.8396945
20,-5.5042415,8.9925756,-6.3350253,-43.0763359,52.8931313,2.0229008,-0.0119709,1.6088953,10.7499104,9.2748089,-45.5114517,-7.3587785
30,-4.8649931,8.7244263,-5.5976148,-84.1068726,69.6030502,42.8778610,0.2059003,1.6424140,10.3141680,10.1679392,-43.3587799,-7.8931298
40,-3.8354914,8.4921904,-4.2999644,-120.6946564,88.6717529,79.7404556,0.2705434,1.7405758,9.9957409,9.0916033,-39.3435097,-7.5038166
50,-2.9233053,7.8936424,-2.8490853,-150.8167877,112.4427490,113.4122162,0.4596844,1.8578910,9.6940727,7.2824426,-34.0381660,-7.0992365
60,-2.1882892,7.2496057,-1.8339491,-176.6793823,139.9313049,146.1526642,0.5386927,1.8531027,9.7084379,4.9465647,-26.4732819,-5.8396945
70,-1.0654143,6.5098009,-0.2753318,-198.5648804,165.0915985,176.0763397,0.5003856,1.9249283,9.7395630,2.1297710,-20.0305347,-4.4885497
80,0.0335187,5.9208307,0.9457048,-213.9160309,184.8625946,200.8396912,0.4285599,1.9919657,9.7874460,-0.9236641,-17.7480907,-2.6793892
90,1.0247130,5.2432747,1.8578910,-224.5572510,198.3893127,217.4351196,0.4501076,1.8818330,10.1154509,-4.5801525,-24.3893127,-1.1450381
100,2.2649033,4.4053087,3.1483591,-231.0381622,199.7175598,224.3740387,0.5650287,1.7764885,10.5440102,-8.1832066,-31.4274807,-0.5725191
110,3.8857694,3.7923961,5.1594782,-228.0915985,183.4656525,217.5877838,0.7757174,1.7669119,10.7738523,-10.2137403,-36.0763359,-1.6641221
120,6.5002246,3.5410061,8.5113440,-209.1679382,141.2213745,193.3511505,0.9169745,1.5610116,11.0108776,-10.1374044,-40.7938919,-3.6793892
130,10.6230183,3.7828193,13.4266148,-164.4045868,62.3358765,143.1603088,0.9050036,1.4748207,11.1305866,-8.2748089,-42.2748108,-6.3587785
140,14.1329002,4.6040263,18.0833130,-86.7709961,-46.3893127,62.1908379,0.9002152,1.3838415,11.2502966,-5.2595420,-41.1755714,-7.6488547
150,16.4720230,4.9416070,19.6126022,13.3129768,-142.3206177,-40.2366409,0.8116302,1.4939742,11.4777441,-1.3282443,-43.5190849,-10.0229006
160,15.3946381,4.8554163,18.6674957,116.9236679,-202.6564941,-143.1755676,0.8619082,1.4006008,11.2838144,2.4961832,-49.5725174,-11.6641226
170,12.0427732,4.1970143,14.6237087,198.5725250,-232.2061005,-223.5954132,0.8954269,1.1635761,11.0324249,3.6335878,-53.4122124,-13.2748089
180,-13.4050665,9.8185711,-9.2104464,-90.6488571,40.1603050,67.6106873,0.8283895,1.9560528,10.6709023,3.9236641,17.7099228,1.6030535
190,-12.5024576,9.6054878,-9.6318245,-150.7633514,79.0381699,138.4198456,0.9313397,1.7477583,10.7187862,3.8320611,10.2442751,1.4122137
200,-11.0587606,8.5424681,-9.5695753,-218.6564941,126.0000000,205.3129730,-0.0335187,-0.8236012,8.0013809,3.1374047,10.0381680,1.9007634
210,-9.2391768,6.5552907,-8.4036045,-250.1374054,175.5267181,250.1297760,1.7046629,2.1882892,11.1018562,-0.0687023,5.6412215,3.0305343
220,-7.2615767,4.6327567,-6.0142040,-250.1374054,210.9541931,250.1297760,1.4532729,2.2433555,11.0276365,-0.7480916,2.9389312,1.1526718
230,-4.9368186,2.4181314,-2.6982515,-250.1374054,230.0000000,250.1297760,1.2162483,1.7046629,11.1976242,4.4732823,-2.3587787,-0.9160305
240,-3.0956869,0.6991033,0.7661406,-250.1374054,243.1832123,250.1297760,1.1276633,1.1970947,11.0252428,8.2061071,-2.9236641,0.2366412
250,-1.1827296,-1.5298871,4.2089849,-250.1374054,250.1297760,250.1297760,1.2593436,1.5274929,11.0420017,11.0381680,1.7328244,0.8625954
260,2.1236460,-2.7365584,8.6502066,-250.1374054,232.7938995,250.1297760,1.3239868,1.7405758,11.0204544,13.3053436,4.3435116,0.1679389
270,8.0708122,-2.6144550,14.2047262,-250.1374054,176.2366486,250.1297760,1.2162483,1.7214222,11.0036945,16.3435116,5.2900763,0.1908397
280,16.8407288,-1.3191984,19.6126022,-250.1374054,90.2442780,250.1297760,1.2449785,1.7836711,10.9294748,18.6488552,6.0687022,-0.3358779
290,19.6126022,1.1300575,19.6126022,-155.2519073,-13.3893127,109.5267181,1.2306134,1.8794388,10.5344334,19.7251911,7.4656487,0.3587786
300,19.6126022,1.6974803,19.6126022,10.3435116,-110.5419846,-57.7786255,1.1587877,1.9919657,10.0843258,19.0687027,6.9694657,-0.3053435
310,19.6126022,0.9600700,19.6126022,147.6946564,-183.2366486,-199.8320618,1.1468167,2.1188576,10.0244713,15.8473282,5.0076337,-1.5419847
320,15.6579990,0.0694315,18.2772427,241.7251892,-250.1374054,-250.1374054,1.1109039,2.0949159,9.6988611,11.4427481,2.7557251,-1.9236641
330,10.4793673,0.2657550,13.5056229,250.1297760,-250.1374054,-250.1374054,1.1420283,2.1116750,9.7180147,6.8625956,0.0839695,-3.0305343
340,6.5098009,1.3886299,9.3924055,250.1297760,-250.1374054,-250.1374054,1.1539993,2.0613971,9.7467451,2.9083970,-2.5419848,-3.8778627
350,4.8530221,3.2656744,6.1770086,250.1297760,-250.1374054,-250.1374054,1.2377959,2.1906834,9.8592720,-0.3358779,-5.2061067,-4.5572519
360,3.6774750,5.0301919,3.0262554,250.1297760,-250.1374054,-250.1374054,1.1276633,2.1284344,10.1417866,-2.4045801,-7.7404580,-5.6183205
370,2.3606708,6.5696559,-0.2633608,250.1297760,-184.9007568,-250.1374054,0.9600700,1.9536586,10.2782555,-3.4580152,-8.4122133,-6.0687022
380,0.9696468,6.9814563,-2.6767037,224.9923706,-106.6870193,-250.1374054,0.9792235,1.8938038,10.4362717,-4.1755724,-8.0916033,-5.9389315
390,-0.7493813,6.9144192,-4.2209558,179.5419922,-43.6946564,-250.1374054,0.9361281,1.9177457,10.5200682,-4.4198475,-7.6030536,-5.2290077
400,-2.6024840,6.4691000,-5.0277977,139.0305328,6.1679387,-250.1374054,0.9744351,1.9033806,10.5368280,-4.7786260,-5.7404580,-4.5877862
410,-6.0932121,5.9304070,-4.7500720,110.1221390,31.2519093,-250.1374054,0.9552816,1.8243724,10.3596573,-5.4427481,-4.7938933,-3.8702290
420,-10.4745789,5.4036856,-4.8314743,94.5190811,15.5572519,-250.1374054,0.9935886,1.8483143,10.2854376,-6.5267177,-6.1221375,-3.1679389
430,-15.6316633,5.7771792,-5.3318601,86.9542007,-30.4885502,-213.6870270,1.0031654,1.8100072,10.2806492,-7.8015265,-7.4122138,-3.9618320
440,-18.4807491,7.3118544,-6.0165982,74.0610657,-69.6641235,-149.9465637,1.0342898,1.8938038,10.3285332,-9.3129768,-8.3358774,-4.1068702
450,-18.7560806,9.1529865,-6.3900914,46.4656487,-71.8549652,-80.1450348,1.0797794,1.8842272,10.2231894,-10.7328243,-9.5877867,-4.3282442
460,-19.6131992,8.4921904,-8.7244263,-2.2290077,-35.5801544,14.0076332,1.0486550,1.8602852,10.3021975,-12.3358774,-11.4122133,-4.9541984
470,-19.6131992,7.6614060,-9.1290445,-71.9007645,20.9847336,123.1450348,0.9696468,1.8746504,10.4123297,-12.9160309,-12.4198475,-4.7328243
480,-17.0155048,6.7923155,-8.5903521,-150.5038147,64.7938919,230.3664093,0.9433106,1.8674678,10.6972389,-11.7786255,-13.0916033,-4.2900763
490,-12.2223368,5.9136481,-6.8593526,-224.9618378,111.5343475,250.1297760,1.0893562,1.7573351,10.8097658,-10.0458012,-12.7099237,-4.0152674
500,-8.0875721,5.1187773,-5.4419928,-250.1374054,150.3206177,250.1297760,1.0342898,1.6855093,10.7427282,-8.3511448,-11.1145039,-3.3282442
510,-4.6375451,4.2784166,-3.9671719,-250.1374054,186.8549652,250.1297760,1.1372399,1.7214222,10.8073711,-6.6870227,-9.7480917,-3.9541984
520,-2.0853391,2.5785420,-1.7238164,-250.1374054,213.2290039,250.1297760,1.1611819,1.8147956,10.7858238,-5.3358779,-8.6793890,-4.1984735
530,0.4548960,0.7709290,0.6703730,-250.1374054,210.9694672,250.1297760,1.1755470,1.7525467,10.8073711,-4.0992365,-7.6335878,-3.7938931
540,4.5729017,-1.0773853,3.8977404,-250.1374054,177.9389343,250.1297760,1.2114599,1.7573351,10.6685085,-3.0839694,-6.3816795,-3.5343511
550,11.1425581,-2.0374553,8.1522150,-250.1374054,108.3587799,250.1297760,1.2665262,1.8052188,10.6230183,-2.1755726,-5.7099237,-3.6259542
560,19.6126022,-1.2282192,14.9062233,-250.1374054,12.3129768,238.8473358,1.2569494,1.7860653,10.5511932,-1.8473282,-5.8854961,-3.8931298
570,19.6126022,0.4932030,19.6126022,-250.1374054,-36.3969460,67.0152664,1.2856797,1.7573351,10.3572636,-2.3511450,-5.9312978,-4.3816795
580,19.6126022,1.9991482,19.6126022,-113.0610657,-48.9083977,-111.2442780,1.2138541,1.7908537,10.1633339,-4.2900763,-7.0534353,-5.1984735
590,19.6126022,-0.1053443,19.6126022,16.1755733,-58.5648842,-250.1374054,1.2210367,1.8722562,10.1322098,-6.5419846,-8.5648851,-6.2213740
600,16.1176834,-2.3798244,19.6126022,145.4961853,-120.7404556,-250.1374054,0.9983770,1.8267666,10.0699606,-8.9465647,-10.0992365,-5.3358779
610,10.2447367,-2.2194135,17.4440651,249.0915985,-207.7862549,-250.1374054,0.9337339,1.8339491,10.1322098,-11.5419846,-11.7633591,-4.5572519
620,6.0189924,-1.5801650,12.4402084,250.1297760,-250.1374054,-250.1374054,0.9480990,1.7429699,10.4841557,-12.1679392,-11.8625956,-2.3435113
630,1.7238164,-0.9959828,7.6398587,250.1297760,-250.1374054,-250.1374054,0.8810617,1.7381816,10.8552551,-11.1679392,-9.0076332,-0.6030535
640,-1.5658000,0.3327923,1.7262106,250.1297760,-236.8702240,-250.1374054,0.9337339,1.6974803,11.1856527,-8.0229006,-7.4961834,0.6564885
650,-5.6431046,3.3087699,-3.2991931,250.1297760,-162.3816833,-250.1374054,1.1827296,1.6998745,11.2335367,-4.5572519,-2.4656489,1.8931298
660,-8.1043310,5.4372044,-5.6215568,222.1908417,-80.2900772,-250.1374054,1.2641320,1.7309990,11.5208397,-0.4503817,7.3511453,1.8473282
670,-11.3652172,6.3661499,-6.6223278,162.8778687,-44.9389305,-250.1374054,1.0869620,1.9033806,11.9350348,5.6946564,15.6335878,-1.3664122
680,-15.3659077,7.0748301,-6.8952656,111.6259537,-35.4274826,-250.1374054,0.8116302,1.9584470,12.0236197,14.0458012,21.7862587,-3.9770992
690,-19.6131992,7.7571740,-5.5401545,73.8473282,-39.1908379,-229.5419922,0.5291159,2.0063307,11.7482872,22.5496178,25.7404575,-7.1908398
700,-19.6131992,9.0404596,-5.3438311,40.5190849,-46.1603050,-133.1221313,0.0383070,2.0278785,11.4921093,29.4580154,28.7480907,-9.4198475
710,-17.5565910,8.2503767,1.0606259,19.2137413,9.6641226,-34.6564903,-0.7517755,2.3079987,11.1234045,34.8244286,27.7938938,-7.5877862
720,-19.0170460,8.7890692,-4.7500720,-9.0916033,13.6793890,70.8244247,-1.3407460,2.5258698,10.7139978,38.3282433,24.1755733,-2.1908398
730,-18.7201672,8.8824425,-5.0277977,-55.2977104,54.0458031,174.5648804,-1.7118455,2.6838863,10.1920643,38.2977104,19.8244267,8.3053436
740,-16.2230282,7.6374645,-5.6191626,-112.4809189,87.7862625,250.1297760,-1.7214222,2.7605004,9.7204094,34.9160309,16.5038166,21.1068707
750,-12.5527353,6.3254485,-4.1491303,-172.6641235,98.3282471,250.1297760,-1.3670821,2.6407909,9.2272062,29.2977104,14.8167934,33.7633591
760,-8.9039907,4.7764082,-2.2074428,-214.5648804,102.7099228,250.1297760,-0.9888002,2.6407909,9.1745338,21.9541988,13.9770994,43.9541969
770,-6.5145893,3.5050933,0.1101327,-237.0915985,110.8396912,250.1297760,-0.6248835,2.3223639,9.2319946,14.9312973,9.3511448,51.3587799
780,-4.3789725,1.9704180,2.2529323,-241.9389343,113.8931274,250.1297760,0.0694315,1.9033806,9.1027079,7.9083967,0.1374046,54.3664131
790,-0.3663110,0.7733232,4.1515245,-233.9770966,112.8625946,250.1297760,0.5602403,1.6112895,9.1218615,0.5038168,-8.1526718,54.3587799
800,5.1163831,0.0526722,5.7747850,-218.5648804,95.7022934,250.1297760,0.9648584,1.6136837,9.1194677,-6.7022901,-16.4198475,52.5648842
810,12.5862541,0.3016679,8.9183559,-186.5801544,54.2366409,250.1297760,1.2282192,1.8028246,9.1577749,-14.2519083,-25.2748089,49.8320618
820,19.6126022,2.3534882,14.1017761,-127.7175598,7.1908398,250.1297760,1.3048333,2.0685797,9.1194677,-20.6335869,-36.2213745,48.8091621
830,19.6126022,4.0485744,18.1024666,-46.9236641,-19.9923668,66.1603088,1.4867916,1.9057748,8.6956959,-27.4732819,-46.6259537,49.6793900
840,19.6126022,3.6367738,18.6579189,37.4732819,-48.6564903,-140.8167877,1.7238164,1.4484847,8.3509331,-35.6335869,-55.3129768,49.2748108
850,19.6126022,1.9512644,16.0602226,117.9389343,-95.5190811,-250.1374054,1.7142396,1.1827296,7.9223728,-45.7404594,-62.7328262,48.2366409
860,13.4170380,0.8236012,13.3332415,184.7480927,-132.6946564,-250.1374054,1.4820032,0.7517755,7.6087341,-60.0992355,-71.9847336,49.6564903
870,7.1634150,0.2825144,9.5599985,230.9313049,-151.4274750,-250.1374054,1.6735384,0.1604107,7.6422529,-80.6870193,-70.5801544,54.0687027
880,2.0757623,0.9864060,5.6550756,250.1297760,-156.6106873,-250.1374054,2.7461352,-0.1675933,9.0069408,-105.7557220,-50.1908379,62.3053436
890,-2.0254843,1.9225341,1.1947005,246.4580078,-152.9389343,-250.1374054,3.8881636,-0.1125269,11.2239599,-124.6335907,-21.5038166,67.6412201
900,-6.0429344,3.1387823,-1.5658000,219.4580078,-129.5877838,-250.1374054,3.7923961,-0.4548960,13.4026728,-127.7404556,-0.0534351,67.5114517
910,-11.3029680,4.3789725,-3.1507533,178.9313049,-117.7175598,-250.1374054,4.0318151,-1.3191984,15.7705259,-112.1908417,17.0916023,66.9465637
920,-15.8926296,4.7740140,-4.5824785,133.2671814,-128.4580078,-250.1374054,4.5250182,-1.8770446,17.2501354,-79.6641235,43.2137413,65.3206100
930,-19.6131992,4.8913293,-5.0421629,81.3664093,-154.0610657,-250.1374054,5.0613165,-2.2242019,18.0090923,-33.4274826,73.5954208,63.0305328
940,-19.6131992,5.3773494,-5.4324160,22.0763359,-167.2290039,-243.3282471,5.5880380,-2.4396791,17.7792511,17.1755733,105.7633591,55.5343513
950,-19.6131992,5.8801293,-4.2736282,-35.4503822,-153.5648804,-118.0916061,6.0118098,-2.3774302,16.7808743,63.4503822,137.9541931,44.5038185
960,-19.6131992,6.2009506,-2.6575503,-79.4809189,-114.2824402,29.8320618,6.0381460,-1.9632354,15.3132353,96.4885483,161.3511505,28.9389305
970,-19.6131992,5.2193332,-1.0342898,-110.2213745,-56.9694672,182.8931274,5.4826937,-1.2617378,13.9844608,114.8625946,168.0381622,13.1450386
980,-19.4240589,4.0485744,0.2346306,-132.0839691,-4.5038166,250.1297760,4.7596488,-0.6464311,12.9669304,120.6717529,158.4427490,-1.9618320
990,-16.3355541,2.2337787,1.6280488,-152.1908417,46.5419846,250.1297760,3.9504125,-0.1915352,12.5000629,117.7175598,139.2900696,-14.8167934
1000,-12.9836893,0.9935886,3.3255291,-162.6641235,76.1450348,250.1297760,2.8275378,0.0909792,12.1888189,111.3053436,111.1679382,-27.2748089
1010,-8.4826136,-0.6129125,3.9384418,-160.7557220,95.6412201,250.1297760,1.9273225,0.1292862,11.8033543,103.3740463,76.0763321,-36.3664131
1020,-3.5410061,-1.9464760,4.2736282,-157.5190887,103.1832047,250.1297760,1.1611819,-0.0335187,11.3053627,94.2824402,41.4961815,-45.3129768
1030,2.3032103,-2.7820482,4.0629396,-157.0076294,97.5725174,250.1297760,-0.2106887,0.1244979,11.2095947,87.1450348,9.5190840,-53.0305328
1040,6.7851329,-3.3829896,5.0254035,-156.2061005,83.3893127,250.1297760,-1.5586174,0.5530578,11.3724003,79.0229034,-18.6030540,-58.7251892
1050,16.7689037,-2.1188576,8.8824425,-133.4122162,52.8778610,250.1297760,-2.5689652,1.2042773,11.6884327,74.5572510,-40.0381660,-57.2442741
1060,19.6126022,-0.1244979,13.4840746,-76.9770966,23.1526718,250.1297760,-2.4971397,1.7932479,12.1840305,71.2442780,-60.8778610,-47.4809151
1070,19.6126022,2.1236460,16.8287582,9.0534353,11.7099237,214.3893127,-1.5921360,2.0135133,12.2558556,72.3358765,-69.5343475,-37.1145020
1080,19.6126022,3.3446827,17.8271351,106.1221390,-0.8778626,-13.3587790,-0.4620786,1.6950861,12.6054077,80.0152664,-59.5572510,-31.3587780
1090,19.6126022,2.6934631,14.3244352,189.5419922,-39.6793900,-238.7938995,0.5243275,1.4221486,12.8567972,96.9694672,-40.6793900,-34.2671738
1100,19.6126022,0.2394189,9.4450769,236.4885559,-87.2290039,-250.1374054,1.2665262,1.3311694,12.9956608,120.8396912,-17.8854961,-43.3816795
1110,12.8208847,-0.8212070,6.1315193,250.1297760,-132.7633514,-250.1374054,1.7381816,1.2737088,12.5168228,147.0992432,8.4732828,-55.4580154
1120,5.7915444,-1.0917504,3.2537034,250.1297760,-152.9007568,-250.1374054,1.9704180,1.3239868,11.6597023,172.2748108,36.4732819,-67.4503784
1130,-1.6017127,-0.2035061,1.2282192,243.5114441,-133.9160309,-250.1374054,2.0326669,1.3670821,10.6996326,193.7862549,62.7099228,-80.5572510
1140,-8.0013809,1.1516051,-0.1771700,227.0763397,-105.9923630,-250.1374054,2.1523764,1.4915800,9.4043760,211.5343475,84.3740463,-92.7709961
1150,-15.4640694,2.2792683,-1.1204807,213.1450348,-81.0992355,-250.1374054,1.9105632,1.5897418,8.2431946,224.9923706,100.1984711,-106.6946564
1160,-19.6131992,3.5242469,-3.0382264,189.4351196,-71.2595444,-250.1374054,1.4029950,1.6807210,7.0604649,233.5496216,117.2137375,-119.0534363
1170,-19.6131992,5.0086441,-4.1395535,154.2977142,-77.1908417,-250.1374054,0.2394189,1.9560528,6.1147599,237.5190887,132.3282471,-128.7938995
1180,-19.6131992,7.2496057,-5.3534074,106.6641235,-72.6793900,-213.8091583,-1.0678085,2.4205256,5.3151007,239.2213745,136.1832123,-135.7404633
1190,-19.6131992,9.0404596,-6.2679882,46.0610695,-34.4656487,-70.3587799,-2.2409613,3.0669568,4.5034704,236.3587799,132.8396912,-136.7709961
1200,-19.6131992,8.5831690,-6.4331870,-18.1603050,17.7786255,81.4580154,-3.5194585,3.8235207,3.6511390,227.4580078,120.2519073,-134.8931274
1210,-19.6131992,7.5057840,-5.5880380,-78.8396912,66.2519073,234.4580078,-4.4579806,4.6997938,2.7341642,210.5267181,99.6259537,-127.1145020
1220,-19.6131992,6.0477223,-3.2441268,-123.9694672,113.3282471,250.1297760,-5.3821378,5.5281835,1.9057748,185.2977142,73.9465637,-115.6412201
1230,-17.8175583,4.1299767,-1.4772149,-153.9847260,156.8167877,250.1297760,-5.9447722,6.1794028,1.4125718,154.8854980,40.9236641,-100.9160309
1240,-14.6237087,2.3008161,-0.6153067,-174.7404633,185.3740387,250.1297760,-6.2057390,6.6055689,1.2042773,122.6870193,0.8320611,-85.8244247
1250,-10.6661139,1.0486550,0.0263361,-192.1145020,202.8931274,250.1297760,-6.0932121,6.7013364,1.0175306,91.4809189,-40.3358765,-73.9694672
1260,-6.3781209,-0.0550664,1.0486550,-206.9007568,212.5801544,250.1297760,-6.0213866,6.8354111,0.9265513,62.7938919,-79.2671738,-69.3740463
1270,-1.8578910,-1.0893562,2.1523764,-220.0915985,210.9236603,250.1297760,-6.2560172,7.0748301,0.7924767,35.4885483,-112.3740463,-65.5038147
1280,2.4324965,-2.4684093,3.5864959,-229.4427490,203.1832123,250.1297760,-6.6223278,7.6781654,0.6296718,9.9618320,-134.9313049,-60.0076332
1290,8.6166878,-3.0597742,6.9359670,-224.4045868,182.5954132,250.1297760,-7.2783360,8.0061693,0.3471575,-15.9160309,-156.2900696,-49.2290077
1300,18.1335907,-2.1044924,12.1648769,-178.7251892,132.6259613,250.1297760,-7.8697009,8.3868456,-0.0167593,-43.1297722,-170.9236603,-33.3129768
1310,19.6126022,-0.8427547,18.5334206,-79.3282471,87.0992355,250.1297760,-7.9989872,8.6765423,-0.5554519,-71.8015289,-178.7404633,-12.7709923
1320,19.6126022,-1.1899122,19.6126022,46.1984749,32.7480927,20.1297703,-7.7404146,8.6023226,-0.8307837,-101.4580154,-184.1145020,10.7099237
1330,19.6126022,-2.4684093,19.6126022,150.9160309,-58.8473282,-220.0458069,-6.8593526,8.0756006,-1.1707586,-132.4732819,-191.1755676,32.9007645
1340,19.6126022,-2.9185169,15.7609491,218.9236603,-202.3206177,-250.1374054,-5.5976148,7.4267755,-1.3886299,-165.9541931,-188.8091583,52.2519073
1350,17.2908363,-2.3247581,10.9893293,250.1297760,-250.1374054,-250.1374054,-4.6734576,6.4164276,-0.8762733,-200.0763397,-175.0458069,67.0152664
1360,8.1139078,-0.5746055,6.6773944,250.1297760,-250.1374054,-250.1374054,-3.9216824,5.3965030,0.4285599,-230.8396912,-161.7862549,79.7175598
1370,2.4492557,0.4860204,1.8626794,250.1297760,-234.1832123,-250.1374054,-3.2896163,4.3358769,2.0685797,-250.1374054,-150.8396912,91.6870193
1380,-1.1923064,1.6328372,-2.9735832,232.7022858,-194.5801544,-250.1374054,-2.5809362,3.2249732,3.9384418,-250.1374054,-140.5877838,101.0839691
1390,-6.0285692,2.7221935,-5.6670465,183.6946564,-164.2671814,-250.1374054,-1.9656296,2.3127871,5.6478930,-250.1374054,-127.9160309,106.1526718
1400,-12.2750092,2.4372849,-5.3653784,130.4351196,-152.6870270,-250.1374054,-1.2545552,1.6400198,7.2639709,-250.1374054,-107.9847336,113.4427490
1410,-17.4919491,3.4955165,-4.0916696,83.3358765,-158.6335907,-250.1374054,-0.4908088,1.2114599,9.6006994,-250.1374054,-81.9083939,123.1221390
1420,-19.6131992,4.5824785,-2.7006457,48.7862587,-154.2442780,-250.1374054,0.1268920,0.6057299,11.5375986,-250.1374054,-61.2671738,130.7099304
1430,-19.6131992,5.4611464,-2.5617826,20.1526718,-136.4961853,-240.3740387,0.7924767,-0.3950413,13.1895895,-250.1374054,-49.3282433,133.1832123
1440,-19.6131992,6.7444315,-2.8490853,-10.9541988,-97.6717529,-103.3206100,1.7070571,-1.2162483,14.4273853,-230.3206177,-33.4045792,132.2595367
1450,-19.6131992,6.8928714,-3.5577655,-51.5496178,-45.0305328,34.6793900,2.2433555,-1.8267666,15.2438040,-198.8931274,-15.2900763,127.6335907
1460,-19.6131992,6.2560172,-3.0693510,-93.9694672,9.1603050,169.7862549,2.6599445,-2.2361729,15.7896795,-164.0686951,4.6564884,119.7404556
1470,-18.1671104,5.1858144,-1.4006008,-124.4885483,54.6488533,250.1297760,2.9951310,-2.1451938,16.0434628,-133.1374054,30.7862587,112.3816757
1480,-15.0522690,4.1347651,0.6248835,-141.9923706,90.4656525,250.1297760,2.9472473,-2.0422437,16.0697994,-104.2977066,53.6717567,106.3358765
1490,-11.9996777,2.7245877,2.1380112,-149.1832123,109.5419846,250.1297760,2.8538737,-1.9847831,15.9405136,-78.8549652,67.1450348,99.5725174
1500,-8.9853926,1.6663558,2.7413468,-151.7786255,109.9542007,250.1297760,2.3127871,-2.0901275,15.4880114,-56.8625946,67.9465637,91.8473282
1510,-5.6335278,0.7805058,3.3829896,-148.2519073,95.7709961,250.1297760,2.1044924,-1.8985922,14.8200331,-38.4198456,61.9465637,83.6564865
1520,-1.8267666,0.4740495,3.6224086,-141.1145020,79.0992355,250.1297760,2.1092808,-1.6400198,13.6875811,-25.6717548,53.3740463,76.9618301
1530,4.5034704,0.8738791,4.8003497,-129.9007568,66.3282471,250.1297760,2.1332228,-1.2162483,12.9070749,-21.1068707,46.8702278,70.5572510
1540,12.3204985,2.2098370,6.9000540,-105.1221390,53.8320618,250.1297760,1.4867916,-1.1420283,13.2350798,-30.8931293,-2.2595420,66.0916061
1550,19.6126022,4.7979555,10.0053177,-61.1221390,33.6946564,250.1297760,2.4875629,-0.6584021,13.6277266,-47.9465637,-38.8854980,55.4732819
1560,19.6126022,7.1753860,12.8544035,1.0076336,3.7709923,135.7480927,3.7301471,-1.5370697,14.5231533,-50.4045792,-59.9694672,47.2366409
1570,19.6126022,7.9319496,12.6724443,63.5954208,-37.6030540,-47.0152664,4.7237358,-1.9799947,14.8200331,-33.6183205,-62.4122124,33.3206100
1580,19.6126022,7.0293403,10.2614956,112.2061081,-77.1603088,-222.0763397,5.0684991,-1.9081690,14.7745428,-9.1145039,-37.1374054,18.0687027
1590,18.8231182,6.0213866,7.5823979,142.8625946,-105.6183243,-250.1374054,4.9080882,-1.7621235,14.6596222,15.8625956,0.6946565,4.5648856
1600,11.8895445,5.8130918,4.8242917,161.5267181,-116.3587799,-250.1374054,4.5250182,-1.4197544,14.5159702,38.6412201,37.1374054,-4.3664122
1610,6.8425937,5.0086441,1.2210367,161.0000000,-117.0152664,-250.1374054,3.9647777,-1.5274929,14.5638542,56.9007645,69.6183243,-10.6946564
1620,1.5514348,4.7428894,-1.2425843,141.0534363,-119.7709961,-250.1374054,3.6319854,-1.3934183,14.8415804,74.6106873,99.0687027,-15.9312973
1630,-3.2393384,4.4795284,-2.2553265,110.1068726,-113.8549652,-250.1374054,2.9280937,-1.3000449,15.5837793,96.0152664,127.0152664,-19.7557259
1640,-7.2974896,3.3997490,-2.5234756,75.2061081,-108.0152664,-250.1374054,2.2050486,-1.2090657,16.0697994,124.5801544,149.4198456,-22.5954189
1650,-11.1712875,2.2050486,-1.3144100,44.0305328,-108.4122162,-250.1374054,1.5322813,-1.0175306,15.7561607,156.4122162,162.6335907,-25.2061062
1660,-14.3962612,1.5586174,0.4261657,24.6030540,-105.7099228,-250.1374054,1.2138541,-1.1324517,15.0474806,188.8778687,163.7175598,-30.1526718
1670,-17.5015240,1.4724265,1.2808913,12.3358774,-96.8015289,-250.1374054,0.9289455,-1.0199248,14.1376886,217.9847260,155.2824402,-38.3129768
1680,-19.6131992,1.0845678,1.4556671,2.2900763,-84.7862625,-250.1374054,0.3878587,-0.6751614,13.0531206,237.8473358,139.3740387,-50.9541969
1690,-19.6131992,1.5442522,1.3048333,-11.4198475,-62.2290077,-127.5648880,-0.2873027,-0.1723816,12.1457233,247.7938995,122.0992355,-65.8549652
1700,-19.6131992,2.1954718,0.7398046,-29.9923668,-16.6564884,25.2366409,-1.7190280,0.5482694,12.1002331,250.1297760,103.5496216,-76.1145020
1710,-19.6131992,2.2553265,-0.1268920,-56.4122124,40.9160309,185.1603088,-2.9616125,0.8954269,11.7578640,250.1297760,69.7404556,-80.8549652
1720,-19.6131992,2.1858950,-0.6775556,-89.8702316,98.7175598,250.1297760,-3.6319854,1.0223188,10.9294748,250.1297760,31.3129768,-83.4809189
1730,-19.6131992,1.9991482,-1.4269369,-124.3435135,142.0992432,250.1297760,-3.8019729,1.3598996,9.7275915,250.1297760,0.8396947,-86.9694672
1740,-16.8790359,1.1156923,-1.3886299,-158.8778687,171.6946564,250.1297760,-3.7684543,1.8890154,8.6023226,250.1297760,-19.3129768,-89.3893127
1750,-12.3540173,0.4405309,-0.7445929,-188.8778687,194.5572510,250.1297760,-3.7205703,2.4540441,7.4363523,242.8396912,-26.9847336,-92.3511429
1760,-7.0484939,-0.7158626,0.4022238,-212.9541931,209.3358765,250.1297760,-3.5218527,3.0837159,6.4762826,230.7099304,-25.1603050,-91.8473282
1770,-2.4636209,-3.0525916,2.0901275,-229.3435059,201.7251892,250.1297760,-3.4404502,3.6894460,5.5233951,215.3969421,-20.0534344,-89.9618301
1780,4.6159973,-4.5226240,5.6670465,-227.6870270,166.1068726,250.1297760,-3.2130022,4.3957319,4.9032998,198.0000000,-18.9083977,-85.7099228
1790,14.7386303,-3.2297616,10.8337069,-185.8473358,110.5572510,250.1297760,-2.9280937,4.9152708,4.4699516,178.7557220,-19.0076332,-84.9542007
1800,19.6126022,0.1029501,16.9101601,-87.8167953,50.3206100,250.1297760,-2.8658447,5.1906028,4.0701222,160.0839691,-24.2290077,-87.1679382
1810,19.6126022,2.7245877,19.6126022,42.0916023,2.1450381,135.2595367,-3.1459649,5.3270717,3.8163381,142.1297760,-35.7480927,-89.6106873
1820,19.6126022,2.6767037,17.3482971,139.3053436,-69.5801544,-144.9541931,-3.5026991,5.6478930,3.3901722,124.0229034,-51.9160309,-90.5038147
1830,19.6126022,2.0278785,11.6453371,191.5419922,-145.4809113,-250.1374054,-4.0916696,6.1291251,3.0597742,105.1603088,-63.6488533,-88.1679382
1840,15.9237537,1.3311694,7.9846220,220.8702240,-170.3740387,-250.1374054,-4.9200592,6.6438756,2.7533178,85.8702316,-71.9618301,-81.2213745
1850,6.8737178,0.8212070,4.6183915,238.3435059,-161.4809113,-250.1374054,-5.4395986,7.3334022,2.1068866,65.1221390,-75.9923630,-71.7022934
1860,0.0383070,0.8068419,1.5921360,243.8473358,-129.7251892,-250.1374054,-5.5066357,7.8840661,1.4269369,42.2900772,-76.2671738,-59.6641235
1870,-5.0158267,0.0239419,-0.1819584,242.7938995,-92.2442780,-250.1374054,-5.2911587,8.2072811,0.7948709,16.2671757,-72.4732819,-45.6870232
1880,-10.6349897,-0.2585725,-1.3886299,237.0076294,-61.5343513,-250.1374054,-5.1953912,8.3461447,0.2825144,-12.7786255,-67.9312973,-31.6870232
1890,-16.6851063,0.9002152,-2.7102225,223.7404633,-45.8396950,-250.1374054,-4.8649931,8.1091194,0.0478838,-45.0992355,-64.3664093,-17.4351139
1900,-19.6131992,2.3941894,-3.8737986,192.3129730,-23.0763359,-250.1374054,-4.5561423,7.6350703,0.4836263,-78.8396912,-61.1221390,-4.2213740
1910,-19.6131992,5.7484488,-7.2328463,139.2137451,25.2977104,-132.4732819,-4.1946201,6.9910331,1.1899122,-109.9007645,-58.8854980,8.0916033
1920,-19.6131992,8.0229292,-11.2526903,55.4885483,95.7175598,73.8396912,-3.7828193,6.3158717,2.5138988,-134.6870270,-57.7633591,18.3511448
1930,-19.6131992,8.4299412,-12.8065195,-47.0458031,169.3893127,250.1297760,-3.3351059,5.5712790,3.5817075,-151.9389343,-57.9694672,26.5572510
1940,-19.6131992,7.0053983,-12.1337519,-153.4580078,242.0229034,250.1297760,-2.6982515,4.7788019,4.3478479,-164.1068726,-56.2977104,30.8320618
1950,-16.1033192,4.4100971,-8.2791071,-242.9465637,250.1297760,250.1297760,-2.2218077,4.1419477,5.0230093,-172.3053436,-54.8091621,32.6030540
1960,-11.5639353,1.4532729,-2.2433555,-250.1374054,250.1297760,250.1297760,-1.6783268,3.5817075,5.3558016,-178.1603088,-52.8320618,32.8244286
1970,-7.8697009,-1.1779412,3.3159523,-250.1374054,250.1297760,250.1297760,-1.4436963,3.1148405,5.6335278,-183.5419922,-48.2442741,32.4274826
1980,-4.1850433,-2.1380112,6.7300668,-250.1374054,250.1297760,250.1297760,-1.2856797,2.8395088,6.1075773,-188.6335907,-41.3969460,30.8625946
1990,-0.0095768,-1.9081690,8.0061693,-222.1679382,225.8854980,250.1297760,-1.5394639,2.4923513,6.5145893,-192.1374054,-36.1221390,29.5725193
2000,3.8881636,-1.6974803,7.9918046,-173.9694672,179.7404633,250.1297760,-2.0063307,2.3151813,7.1298962,-194.2366486,-36.7633591,29.9618320
2010,9.9143381,-1.7788827,8.2120695,-126.6259537,110.3129807,250.1297760,-2.3415172,2.0111191,7.5776095,-195.6259613,-41.9389305,35.2061081
2020,16.6635590,-1.9321109,8.2791071,-78.8091583,15.7022905,250.1297760,-3.2824337,2.2313845,8.0396881,-198.3740387,-53.3893127,44.1297722
2030,19.6126022,2.1930776,10.0148945,-26.4351139,-93.4503784,215.0610657,-3.8977404,2.4420733,8.9758167,-209.4274750,-74.3129807,55.8015251
2040,19.6126022,4.3071470,11.7865944,40.1374054,-177.9923706,-23.2366409,-3.9719603,2.1571648,10.1154509,-220.1679382,-92.8549652,69.1984711
2050,19.6126022,4.6710634,9.0428534,87.5496216,-217.1526642,-250.1374054,-5.9687142,1.5346755,12.6413202,-234.7557220,-153.0915985,83.7709961
2060,19.6126022,3.7157819,6.0046272,101.9618301,-241.3816833,-250.1374054,-4.3622131,0.8355721,14.8367920,-250.1374054,-250.1374054,98.6488571
2070,14.8870697,3.3446827,5.2025738,111.4503784,-249.2824402,-250.1374054,-1.2282192,-0.8786675,16.0314922,-250.1374054,-250.1374054,105.7557220
2080,9.5504217,3.1890604,4.9463954,134.2900696,-242.8244324,-250.1374054,1.7932479,-2.1811066,16.5941277,-234.4656525,-250.1374054,98.1450348
2090,4.6638808,3.0478032,3.4548154,155.8549652,-221.1145020,-250.1374054,3.4715748,-2.5617826,16.8407288,-182.3893127,-250.1374054,83.3893127
2100,-0.0957676,3.0525916,1.6879035,163.8396912,-195.5572510,-250.1374054,4.2712340,-2.3486998,16.7305965,-125.0687027,-220.8015289,69.3664093
2110,-4.8003497,2.6838863,1.0606259,162.3282471,-172.5190887,-250.1374054,4.8625989,-1.7405758,16.3690739,-78.8015289,-156.4122162,62.2366409
2120,-9.6198530,2.9376705,0.0718257,159.4809113,-153.4351196,-250.1374054,5.1259594,-1.4676381,16.1464138,-44.3358765,-89.8396912,60.7480927
2130,-16.2972469,4.1563129,-1.1659702,159.7862549,-136.1526642,-250.1374054,5.2576399,-1.7142396,15.4640694,-11.7709923,-46.0381660,55.2595406
2140,-19.6131992,6.1171541,-3.3327117,150.0076294,-118.2519073,-250.1374054,5.4946647,-1.9680238,14.6093445,15.1145039,-24.3893127,44.8625946
2150,-19.6131992,8.0205345,-6.4164276,120.2442780,-90.1450348,-176.3893127,5.7532372,-1.8411317,13.0938225,34.0610695,-14.5572519,31.2290077
2160,-19.6131992,9.3373384,-9.1074963,68.3282471,-41.9312973,-47.6106873,5.6838059,-1.7142396,11.8871508,43.7175560,-7.5877862,18.2671757
2170,-19.6131992,9.8664551,-10.5871058,2.8091602,28.0610695,73.9465637,5.3438311,-1.4125718,10.9079275,46.5038185,-3.0534351,7.0687022
2180,-18.7393208,9.2439651,-10.6206245,-66.7404556,100.6946564,190.8396912,4.9607606,-1.0989330,10.2567072,45.0916023,-0.8015267,-1.0152671
2190,-17.7648849,7.7619624,-8.9782104,-129.1908417,163.5343475,250.1297760,4.8817525,-0.6464311,9.7611103,40.6030540,6.4580154,-7.6106873
2200,-15.3036594,6.2512288,-6.6103573,-171.3511505,202.7022858,250.1297760,4.4364328,-0.2274480,10.0795374,36.4580154,20.9236641,-12.2366409
2210,-12.0643206,5.0948353,-4.7907729,-197.7175598,227.9465637,250.1297760,3.6008608,0.0311245,10.5990763,36.9465637,33.3511467,-14.4122133
2220,-8.8249826,3.8378856,-3.5697365,-218.1755676,245.8320618,250.1297760,2.9616125,0.0766141,10.8456783,41.0763359,36.4656487,-14.1526718
2230,-5.0756817,2.5474176,-2.5234756,-237.8625946,250.1297760,250.1297760,2.7988074,0.1029501,10.6397781,44.2748108,39.6717567,-14.1832066
2240,-1.5370697,1.2018831,-1.4556671,-250.1374054,240.5725250,250.1297760,2.7197993,0.2442073,10.4482431,44.4198456,44.7175560,-15.4503813
2250,0.9504932,-0.2346306,-0.3112446,-250.1374054,204.4961853,250.1297760,2.5976956,0.3878587,10.2279778,42.8473282,48.0610695,-19.5190830
2260,4.7117648,-2.1763182,2.0757623,-250.1374054,144.6488495,250.1297760,2.3989778,0.6464311,10.3093796,40.7709923,49.1297722,-24.2595425
2270,12.7227230,-2.7030399,6.2823529,-250.1374054,59.6259537,250.1297760,1.9512644,0.7996593,10.2686787,38.3969460,48.5496178,-28.3206100
2280,19.6126022,-1.4341195,11.9948893,-205.4351196,-33.8931313,250.1297760,1.5969244,0.9864060,10.2567072,36.2213745,46.2671738,-30.6183205
2290,19.6126022,-1.6926919,16.6635590,-118.3816757,-98.1374054,46.2671738,1.4101776,1.2737088,10.0172882,33.5725174,43.1068687,-32.0076332
2300,19.6126022,-0.0071826,17.2932301,-35.8931313,-155.8702240,-186.0000000,1.2306134,1.4077834,9.8520899,30.7862587,38.8320618,-33.3816795
2310,19.6126022,0.3710994,15.1288834,20.3664131,-216.2824402,-250.1374054,1.0534433,1.4604555,9.8185711,26.4885502,32.8396950,-34.8549614
2320,18.2078114,0.1316804,12.7873659,66.4351120,-240.4732819,-250.1374054,0.8307837,1.5681942,9.8257532,22.2900772,26.7099228,-35.1221390
2330,13.5319586,0.6368544,11.5759058,118.0992355,-244.9084015,-250.1374054,0.8044477,1.6543850,9.7922344,17.6488552,21.7633591,-35.2442741
2340,8.7818871,1.2186425,9.2104464,167.6564941,-239.9847260,-250.1374054,0.6129125,1.7693061,9.9287033,12.7786255,18.2595425,-34.4274826
2350,4.0150557,2.0254843,5.5114241,195.1068726,-219.6030579,-250.1374054,0.4644727,1.8339491,10.0148945,8.4198475,15.1526718,-32.8625946
2360,-0.8523315,3.4212968,2.4516499,196.7786255,-180.0763397,-250.1374054,0.3088504,1.8339491,10.1753054,5.2748094,11.9847326,-29.9236641
2370,-4.5944495,4.8745699,-0.4070122,191.6106873,-115.7099228,-250.1374054,0.2873027,1.8698620,10.3740225,4.0763359,9.9618320,-26.7786255
2380,-6.4140334,5.7053533,-3.0166788,171.7099304,-50.7862587,-250.1374054,0.3423691,1.8985922,10.3835993,3.9770992,9.8015270,-24.6870232
2390,-9.8760319,6.2943239,-5.5856438,140.8244324,-6.7404580,-250.1374054,0.3399749,1.9584470,10.5416164,4.1984735,11.0687027,-21.4809170
2400,-16.5270901,6.3230543,-6.2177100,99.9770966,-12.2824430,-250.1374054,0.2466015,2.0637913,10.4937325,5.0152674,12.5648851,-18.1221371
2410,-19.6131992,7.4650826,-5.8729467,58.4198456,-35.3282433,-181.6106873,0.1723816,2.1188576,10.5368280,5.5343513,12.8854961,-14.4274807
2420,-19.6131992,8.9279327,-5.7939386,22.1908398,-42.9007645,-62.0458031,0.1963235,2.1356170,10.5535870,6.3587785,13.5954199,-11.1755724
2430,-19.4623661,10.6565371,-6.9192076,-13.7938929,-21.6946564,53.3664131,0.1292862,2.1619530,10.5847120,6.0916033,12.8549614,-8.7786255
2440,-15.1935263,10.8408899,-8.3413563,-61.9465637,26.2061062,158.5877838,0.1675933,2.1715298,10.3907824,5.8625956,11.9847326,-6.4503818
2450,-12.4066896,10.0962973,-8.8585014,-126.3053436,92.7862625,250.1297760,0.2226596,2.1116750,10.2064295,4.6183205,10.5343513,-4.3664122
2460,-11.3005743,7.7212610,-7.5201492,-195.7175598,151.5801544,250.1297760,0.2992737,1.9345051,10.0316534,2.4198472,7.5725193,-3.4274809
2470,-10.0962973,5.2001796,-4.5345950,-250.1374054,190.2748108,250.1297760,0.3327923,1.8411317,10.1250277,-0.2595420,4.1984735,-4.0305343
2480,-8.7148495,3.0071020,-1.3168042,-250.1374054,210.1603088,250.1297760,0.4381367,1.7046629,9.9358864,-3.0152671,1.0839695,-5.1755724
2490,-6.7204900,0.7110743,1.4197544,-250.1374054,208.6793823,250.1297760,0.3471575,1.5562232,10.1369982,-6.5496182,-3.0000000,-5.5801525
2500,-3.9623835,-1.1827296,3.7325413,-250.1374054,185.8625946,250.1297760,0.2513899,1.5418580,10.1776991,-9.9312973,-6.1374044,-5.7022901
2510,1.2617378,-2.6312141,6.1530671,-250.1374054,131.8931274,250.1297760,0.3639168,1.3431402,10.3213511,-12.6870232,-8.5572519,-5.7175574
2520,8.3389616,-2.3486998,8.8058290,-218.1984711,73.5801544,250.1297760,0.2873027,1.2330076,10.5847120,-13.5801525,-9.8244276,-5.5725193
2530,18.5645447,-0.2154770,11.9374285,-145.6641235,27.4351139,250.1297760,0.2274480,1.1444225,10.7954006,-12.6641226,-9.3129768,-5.8473282
2540,19.6126022,1.2282192,14.8535509,-59.9847336,-3.4503818,222.9160309,0.0694315,1.1300575,11.1210098,-10.8015270,-8.2824430,-4.3587785
2550,19.6126022,1.1635761,15.0187502,15.9770994,-36.5725174,16.5038166,0.0502780,1.2210367,11.1042509,-8.4656487,-6.8778625,-3.0687022
2560,19.6126022,1.5179161,13.2949343,63.9541969,-95.7328262,-165.9694672,0.2346306,1.2114599,11.1712875,-5.5725193,-6.2595420,-0.2824427
2570,19.6126022,1.7908537,10.7882175,96.1679382,-153.2671814,-250.1374054,0.3543400,1.3215926,11.2072010,-2.2824428,-5.2900763,0.2442748
2580,15.3012648,2.1667414,8.6669655,126.3206100,-180.1297760,-250.1374054,0.4668669,1.3168042,11.0539722,1.0000000,-3.7022901,1.6412214
2590,10.4506369,2.5785420,6.4547348,154.4961853,-182.7633514,-250.1374054,0.5937590,1.3862357,10.8624372,4.1221375,-1.7099236,2.2290077
2600,6.3493905,3.1148405,4.3263001,171.5343475,-176.3816833,-250.1374054,0.6847382,1.5418580,10.8361015,5.9541984,-0.0763359,2.5877862
2610,2.0326669,4.2879934,2.0278785,175.6946564,-154.7633514,-250.1374054,0.7134684,1.5849534,10.6397781,6.2824426,0.7404580,1.0610687
2620,-0.6967092,5.1953912,0.2609667,168.6412201,-115.9083939,-250.1374054,0.6919208,1.6136837,10.3907824,5.3053436,0.3893130,-0.0305344
2630,-2.5234756,5.4491754,-0.4237715,158.0076294,-65.4656525,-250.1374054,0.7445929,1.5466464,10.1872759,3.4503818,-1.4045801,-0.7938932
2640,-3.6200144,5.3677726,-1.9608412,143.8473358,-27.1984730,-250.1374054,0.8116302,1.5586174,10.0771437,1.6564885,-2.5343511,-1.9083970
2650,-6.8665352,5.2121506,-2.7796540,126.5038147,-2.9770992,-250.1374054,0.7661406,1.5921360,10.1944590,-0.5343512,-3.5801528,-2.8167939
2660,-13.2398672,5.1714492,-2.3486998,110.9312973,-8.5343513,-250.1374054,0.6727672,1.4484847,10.4027529,-2.7022901,-4.4503818,-3.0076337
2670,-18.7848110,6.1841912,-2.3151813,98.9465637,-31.0534344,-240.7862549,0.5698171,1.4652439,10.3931761,-4.5954199,-5.5267177,-4.0381680
2680,-19.6131992,8.1737623,-3.3566537,84.7786255,-45.3893127,-151.6183167,0.6153067,1.3598996,10.5942879,-5.1526718,-5.8702292,-4.1068702
2690,-19.6131992,9.5360565,-4.9320302,59.7786255,-40.9618340,-54.9847336,0.5913648,1.3503228,10.7762470,-4.6412215,-5.7251906,-4.3740458
2700,-16.6084919,10.7163916,-6.8617468,20.8320618,-5.9083967,41.3206100,0.6512195,1.3000449,10.9653873,-2.6412213,-4.2977099,-4.9083967
2710,-13.7450418,10.9629936,-8.3389616,-33.0839691,53.2137413,135.1221313,0.6105183,1.3287752,11.0396080,-0.8396947,-3.0687022,-5.2442746
2720,-12.0140429,9.9119444,-8.4897957,-98.9694672,115.3893127,229.6870270,0.5865764,1.3287752,10.9510221,1.3435115,-1.3893130,-5.3511453
2730,-11.3077564,8.3940287,-6.6319046,-158.8396912,162.4122162,250.1297760,0.6440369,1.3670821,10.8025827,2.9923663,-0.2442748,-5.9083967
2740,-10.6613255,6.9216018,-4.0820932,-201.0534363,194.3358765,250.1297760,0.6871324,1.3790531,10.6541433,3.9236641,0.6335878,-6.0687022
2750,-9.3086090,5.7221127,-2.0566087,-225.4580078,211.9541931,250.1297760,0.6296718,1.4508789,10.6397781,4.3435116,0.8244275,-5.7251906
2760,-7.2807302,4.0749106,0.0407012,-236.1832123,218.5267181,250.1297760,0.5267217,1.4173602,10.6014709,4.1908398,0.9007633,-5.6641221
2770,-4.9224534,2.3774302,1.7333932,-239.0763397,218.4198456,250.1297760,0.5578461,1.5107336,10.5775290,3.8931298,0.8854962,-6.0610685
2780,-2.1547706,0.9528874,2.7174051,-238.9160309,213.1450348,250.1297760,0.4979914,1.5131277,10.4985209,3.3358779,0.6335878,-5.5190840
2790,0.5913648,-0.3519458,3.8857694,-237.7480927,197.6564941,250.1297760,0.4860204,1.5562232,10.6014709,2.5190840,0.1679389,-5.4961834
2800,4.3119354,-1.6448082,5.4946647,-231.8702240,168.2595367,250.1297760,0.4381367,1.5681942,10.5990763,2.3587787,-0.1145038,-5.0458016
2810,9.9382801,-2.2242019,8.3700867,-209.2442780,123.2137375,250.1297760,0.4285599,1.5394639,10.6158361,2.7175572,-0.1603053,-4.4427481
2820,19.6126022,-1.0103480,13.0339670,-155.0076294,56.4580154,250.1297760,0.4165890,1.4700323,10.7092094,3.4809160,0.6946565,-4.2290077
2830,19.6126022,-0.0047884,18.3275204,-57.2290077,-13.7328243,171.2595367,0.2633608,1.5993185,10.7499104,3.5343511,0.3206107,-3.6717558
2840,19.6126022,-0.8044477,18.1695042,56.3435097,-74.6717529,-74.9083939,0.5602403,1.5250987,10.5607700,3.4045801,-1.1679389,-3.2671757
2850,19.6126022,-0.1723816,14.3172531,132.5877838,-166.1221313,-250.1374054,0.5147507,1.5059452,10.4985209,2.9465649,-0.9618320,-3.1450381
2860,19.6126022,0.2681492,9.2846670,164.0763397,-249.5801544,-250.1374054,0.5267217,1.4460905,10.6230183,2.7786260,-0.7786260,-2.4274809
2870,15.3347836,0.8595140,6.9144192,175.1374054,-250.1374054,-250.1374054,0.4716553,1.4604555,10.5559816,2.6412213,-0.4656489,-2.8167939
2880,9.6509781,1.0917504,4.8721757,184.7938995,-250.1374054,-250.1374054,0.4668669,1.5227045,10.6110477,2.6641221,-0.1908397,-2.8015268
2890,4.0820932,2.0925217,2.8514795,189.0686951,-245.5419922,-250.1374054,0.3399749,1.4365137,10.7379398,2.7480917,-0.3893130,-2.8473282
2900,-1.2689204,3.1770895,1.0438666,182.9923706,-213.2213745,-250.1374054,0.2920911,1.4197544,10.5751352,2.9694657,-0.1984733,-1.8320611
2910,-4.9224534,2.3870070,0.3926471,169.0305328,-183.6183167,-250.1374054,0.3040621,1.3335636,10.5942879,3.2595420,-0.5038168,-1.8167939
2920,-7.9367380,2.4468615,-0.6703730,156.6488495,-170.4122162,-250.1374054,0.2657550,1.4413021,10.5176744,3.0916030,0.1068702,-1.9770992
2930,-13.6588507,3.4500270,-1.0438666,140.3969421,-162.1755676,-250.1374054,0.2322364,1.3982066,10.5033092,2.5190840,-0.1832061,-1.3816794
2940,-19.2780132,5.3917146,-1.7764885,119.8854980,-152.8854980,-250.1374054,0.2370248,1.4077834,10.5727406,2.0916030,-0.0534351,-0.8931298
2950,-19.6131992,6.8042865,-3.5362179,88.3969498,-127.7328262,-250.1374054,0.1675933,1.4867916,10.5128860,1.8931298,-0.8854962,-1.4045801
2960,-19.6131992,9.5121145,-5.7077475,43.1068687,-71.6717529,-128.8320618,0.3232156,1.5059452,10.7068148,1.8473282,-1.7862595,-1.0458015
2970,-19.6131992,10.5775290,-7.3764977,-18.3129768,7.0610685,22.4198475,0.2705434,1.5059452,10.7738523,1.9847329,-1.9083970,-0.8167939
2980,-19.6131992,9.8089943,-8.4251528,-93.9465637,95.9770966,182.5648804,0.4740495,1.5777708,10.7116032,2.5114503,-2.2442749,-1.2366412
2990,-19.6131992,7.3501616,-7.2591825,-169.1908417,170.6564941,250.1297760,0.6607963,1.6041069,10.7403336,3.1526718,-2.6259542,-1.5648855
3000,-17.6475697,4.4100971,-4.2640514,-226.7862549,229.9236603,250.1297760,0.7972651,1.5777708,10.5918941,3.6717558,-1.9770992,-3.0381680
3010,-14.7625723,1.8602852,-1.6950861,-250.1374054,250.1297760,250.1297760,0.8451489,1.6519908,10.6421719,4.0152674,-1.3206106,-4.3740458
3020,-10.3740225,-0.9289455,0.7613522,-250.1374054,250.1297760,250.1297760,0.8188128,1.7070571,10.3979645,4.2213740,-1.0992366,-6.4656487
3030,-5.8490047,-2.9999194,3.1818779,-250.1374054,250.1297760,250.1297760,0.8020535,1.7525467,10.4602137,3.7251909,-1.0152671,-7.6030536
3040,-1.2832855,-5.0780759,5.3342543,-250.1374054,250.1297760,250.1297760,0.7134684,1.7381816,10.2471304,2.6641221,-1.3969465,-9.4656487
3050,5.5018473,-6.4164276,8.5496502,-250.1374054,187.0915985,250.1297760,0.6584021,1.6687500,10.2902260,0.9007633,-1.4045801,-9.7022905
3060,19.6126022,-4.6662750,13.7546186,-194.4961853,103.9694672,250.1297760,0.5243275,1.6687500,10.2806492,-1.1603054,-2.6030533,-10.1679392
3070,19.6126022,-3.0621684,18.9524040,-73.4427490,46.1526718,250.1297760,0.4022238,1.6160779,10.3620520,-2.6870229,-2.6870229,-10.8015270
3080,19.6126022,-2.0374553,19.5030670,49.5343513,-7.5343513,-10.4045801,0.3280039,1.5227045,10.4937325,-3.5496182,-3.1755726,-10.8702288
3090,19.6126022,-2.3534882,15.3994265,118.2442780,-132.9007568,-250.1374054,0.2322364,1.5203103,10.5847120,-4.0763359,-2.9083970,-11.3893127
3100,19.6126022,-2.1978660,11.0108776,141.9618378,-236.6488495,-250.1374054,0.0335187,1.4149660,10.6421719,-4.2519083,-2.8244274,-11.3511448
3110,16.5582142,-1.6304430,8.3293848,159.0229034,-250.1374054,-250.1374054,-0.1532281,1.3790531,10.8552551,-3.3740458,-3.4122138,-10.3511448
3120,8.9255381,-1.1180865,5.9782910,171.2442780,-224.1908417,-250.1374054,-0.1771700,1.3024391,10.8097658,-2.3969467,-3.8854961,-8.4503813
3130,2.0183017,0.7493813,3.5912843,174.0381622,-185.3816833,-250.1374054,-0.2130829,1.3383518,10.8337069,-1.2977099,-3.6793892,-7.2290077
3140,-3.4715748,2.9352763,2.0877333,173.2442780,-134.5419922,-250.1374054,-0.1244979,1.3527170,10.8049774,0.0687023,-2.8015268,-5.4961834
3150,-7.9726510,3.3063757,0.4477134,169.0229034,-80.4198456,-250.1374054,-0.0861908,1.4389079,10.8241301,0.9923664,-2.9541984,-3.2595420
3160,-10.0795374,4.7237358,-1.2808913,165.4351196,-37.5725174,-250.1374054,-0.0191535,1.4245427,10.6804790,1.6564885,-2.5572519,-2.2595420
3170,-15.3515425,5.6742291,-2.7030399,149.6183167,-18.4274807,-250.1374054,0.1819584,1.4413021,10.6110477,2.2977099,-2.7175572,-1.7938931
3180,-19.6131992,7.2879128,-4.0653338,125.1908417,-7.2671757,-240.8015289,0.2011119,1.5394639,10.5871058,2.4045801,-2.6106870,-1.2519084
3190,-19.6131992,8.3341732,-5.5808558,88.5801544,11.4809160,-111.7328262,0.2801202,1.5538290,10.5799236,2.2442749,-2.8625953,-1.2061069
3200,-19.6131992,9.6102762,-7.0101867,39.9771004,35.7938919,15.1984730,0.3519458,1.6687500,10.4865494,1.9694656,-2.6946564,-0.6641222
3210,-16.7353840,10.1800938,-8.0133524,-19.1221371,73.5954208,133.3129730,0.3854645,1.7453641,10.6924505,1.9694656,-2.6030533,-0.7404580
3220,-13.2949343,10.0484133,-7.7068958,-78.6641235,117.9465637,230.0686951,0.3160330,1.7309990,10.5320396,0.7404580,-3.0381680,-0.4503817
3230,-10.5607700,8.8872309,-5.6933827,-133.3740387,162.2290039,250.1297760,0.3687052,1.6543850,10.5775290,0.0000000,-4.5954199,-0.2595420
3240,-8.6956959,7.2448173,-3.2608860,-167.9541931,194.5496216,250.1297760,0.3447633,1.6136837,10.5679522,-0.3893130,-3.8473282,0.3435115
3250,-7.1059542,5.9615316,-1.0630201,-184.4122162,210.6183167,250.1297760,0.3088504,1.5801650,10.5511932,-0.4122137,-3.4503818,0.0839695
3260,-5.3486195,5.3677726,0.5267217,-187.0915985,220.0305328,250.1297760,0.3088504,1.6256547,10.5775290,-0.2748092,-3.5801528,0.0076336
3270,-3.1483591,4.8985114,1.6112895,-181.8778687,224.0076294,250.1297760,0.4836263,1.6088953,10.6709023,-0.4809160,-3.6717558,-0.0839695
3280,-0.8595140,4.4795284,2.1380112,-174.5725250,224.9541931,250.1297760,0.4118006,1.6495966,10.6541433,-0.5954198,-4.1832061,-0.0229008
3290,1.4029950,4.0629396,2.6024840,-169.9847260,216.3587799,250.1297760,0.4668669,1.5681942,10.7499104,0.3664122,-3.3969467,-1.0534351
3300,3.7277529,3.5553713,3.2345500,-167.1450348,202.7175598,250.1297760,0.3974355,1.5897418,10.6900558,1.2137405,-2.9465649,-2.1984732
3310,6.1363077,3.1507533,4.3119354,-161.8473358,191.6259613,250.1297760,0.4189832,1.6136837,10.6254129,1.1908396,-2.5725191,-1.7633588
3320,8.4826136,2.9568241,5.6167684,-150.5725250,181.0076294,250.1297760,0.3280039,1.6448082,10.5487986,0.6030535,-2.4274809,-1.8015267
3330,10.3788109,3.0310438,6.9239960,-131.7709961,165.9236603,250.1297760,0.3184272,1.6065011,10.6062593,-0.2900763,-3.0992367,-2.2366412
3340,12.3947191,3.1675127,8.4969788,-103.3893127,146.0992432,223.4656525,0.2729376,1.5610116,10.4362717,-0.6946565,-3.7175572,-2.7633588
3350,14.1712074,3.6511390,9.8832140,-65.5419846,123.5267181,150.6946564,0.3639168,1.6160779,10.5009146,-0.3816794,-3.4427481,-3.2748091
3360,14.0538921,4.1060348,10.9773588,-24.0763359,88.3206100,76.7938919,0.2968795,1.4604555,10.6038647,-0.7862595,-2.9770992,-4.3358779
3370,13.0842457,4.1826491,10.9055328,14.9465647,34.3053436,10.0229006,0.2130829,1.4604555,10.6517487,-1.6259542,-3.6793892,-3.4351146
3380,11.4897156,4.3717899,10.2112179,46.4961815,-22.1526718,-46.2977104,0.3495516,1.4628497,10.6493549,-1.7862595,-4.0610685,-3.2442749
3390,10.1417866,4.7596488,9.2056589,69.5496216,-80.8854980,-93.9389343,0.3088504,1.4221486,10.7116032,-1.1908396,-3.5877862,-3.5648854
3400,8.9734221,5.2336984,8.2862902,86.6488571,-136.2748108,-134.3664093,0.3615226,1.4891858,10.7235746,-0.2748092,-3.1755726,-4.5572519
3410,8.3102312,5.5952206,7.1753860,102.0152664,-173.2900696,-168.3435059,0.2920911,1.5131277,10.7283630,0.3511450,-3.0610688,-5.1450381
3420,7.6757712,6.2368636,6.0980005,114.8015289,-191.8931274,-194.5954132,0.2777260,1.5681942,10.7307568,0.9160305,-2.6870229,-3.8625953
3430,7.2256637,7.1801744,4.8458395,127.2213745,-197.7175598,-215.6106873,0.2705434,1.5801650,10.6493549,1.1297710,-2.4351146,-3.7480917
3440,6.6414814,7.9104018,3.6295912,137.7709961,-196.8320618,-233.1832123,0.3351865,1.6328372,10.6325951,1.6793894,-2.2748091,-3.6183207
3450,5.1977854,8.6382351,1.6376256,142.1068726,-185.2595367,-246.2671814,0.2705434,1.6232605,10.5248566,1.9847329,-1.9847329,-3.6717558
3460,3.4548154,9.6246414,-0.2873027,135.8396912,-156.4427490,-247.8015289,0.1771700,1.6424140,10.5104914,1.5877863,-2.1755726,-3.0763359
3470,1.7932479,10.2782555,-1.9153515,117.8091583,-118.2595444,-233.7938995,0.1723816,1.6615674,10.4817610,0.7328244,-2.8396947,-1.8091604
3480,0.1891410,11.0611553,-3.5314295,88.9847336,-74.3587799,-202.5877838,0.1651991,1.6065011,10.4338779,-0.3511450,-3.5572519,-1.5648855
3490,-1.2569494,11.7099810,-4.7764082,54.2213745,-29.5114498,-156.3435059,0.1867468,1.5059452,10.4985209,-1.0152671,-4.2366414,-1.3664122
3500,-2.8083842,12.3204985,-5.6718349,12.9236641,12.3740454,-96.1297684,0.2154770,1.4700323,10.5990763,-1.6870229,-4.7175574,-1.4885496
3510,-3.8283088,12.2127600,-5.8801293,-30.1832066,46.7709923,-31.2061062,0.2035061,1.4772149,10.6685085,-1.6870229,-4.9923663,-1.2213740
3520,-4.5944495,11.4705620,-5.3031297,-71.0992355,72.1679382,33.7557259,0.1891410,1.4293311,10.7738523,-1.3435115,-5.1374044,-0.9847328
3530,-4.7069764,10.1441803,-3.2896163,-101.7557220,63.8778610,88.1297684,0.2753318,1.5035510,10.7906122,-0.7480916,-4.6564884,-0.8625954
3540,-1.0678085,8.4778252,0.3902529,-113.3664093,8.9083967,110.5801544,0.3399749,1.5298871,10.7139978,0.3816794,-3.9160306,-0.8015267
3550,3.2130022,7.4028339,4.0246325,-98.1374054,-71.6641235,85.1832047,0.4118006,1.5490406,10.7187862,1.6106870,-3.3282442,-0.5267175
3560,7.3741035,7.1586266,6.9910331,-60.4198456,-157.3511505,14.8473282,0.4453192,1.6639616,10.5487986,2.2442749,-2.5190840,-1.0534351
3570,10.1274214,6.2105274,6.8928714,-17.0152664,-211.9541931,-79.4580154,0.4141948,1.6926919,10.4171181,2.0839694,-2.2977099,-1.2366412
3580,10.2112179,5.7652082,5.4491754,13.4503813,-250.1374054,-166.7557220,0.4979914,1.7046629,10.3117743,1.5877863,-2.3511450,-1.1679389
3590,10.3979645,6.4858594,5.0828643,29.6412220,-250.1374054,-230.1832123,0.4620786,1.6136837,10.3692341,0.4732825,-2.9465649,-2.0229008
3600,10.6421719,7.4770536,4.8937230,42.0000000,-250.1374054,-250.1374054,0.4692611,1.6376256,10.3788109,-0.4045801,-3.2213740,-2.9770992
3610,10.2878323,8.1617918,4.3741841,51.2213745,-224.7404633,-250.1374054,0.3734936,1.5945302,10.4338779,-1.4961832,-3.9847329,-4.3053436
3620,9.1481981,8.7028790,3.7947903,56.8244286,-176.8549652,-250.1374054,0.2370248,1.5634058,10.5344334,-2.4045801,-4.5267177,-4.3664122
3630,6.9096308,8.4012108,3.2800395,60.3206100,-130.8167877,-250.1374054,0.1508339,1.5179161,10.5751352,-3.5343511,-4.9465647,-4.5419846
3640,4.0533628,7.3525558,2.4253139,60.2671738,-81.5190811,-250.1374054,0.1292862,1.4389079,10.6541433,-2.9465649,-5.2442746,-3.9770992
3650,1.1899122,7.0053983,1.7788827,57.4503822,-39.5267181,-250.1374054,0.1484398,1.3048333,10.8983507,-1.7404580,-4.3282442,-4.0763359
3660,-0.7158626,6.8449879,1.2425843,52.5954208,-3.7022901,-250.1374054,0.0885850,1.3646880,10.8361015,-0.3206107,-3.6641221,-4.3511453
3670,-3.0238612,6.5361371,0.7278336,48.4961815,23.1221371,-233.5419922,0.0766141,1.4293311,10.7211800,0.3511450,-3.1679389,-2.9618320
3680,-7.5488791,6.8258343,0.4046180,47.2977104,32.9312973,-196.8167877,0.1221037,1.4389079,10.7475166,1.0152671,-2.9618320,-1.7633588
3690,-12.5072460,7.8218169,-0.4884146,46.5496178,36.4580154,-136.9770966,0.2274480,1.3646880,10.8049774,2.3053436,-2.5725191,-1.7938931
3700,-17.4967365,9.2176294,-2.9065459,31.6030540,53.6412201,-50.0534363,0.2801202,1.4724265,10.6110477,2.9618320,-1.9465649,-1.5190840
3710,-19.6131992,9.5983057,-6.0884237,-11.1526718,96.4580154,76.7099228,0.4668669,1.5921360,10.6206245,3.0076337,-2.8167939,-2.1984732
3720,-19.6131992,8.8393478,-7.9846220,-76.1297684,150.1832123,228.2366486,0.4644727,1.6304430,10.5440102,2.3435113,-2.8015268,-2.1450381
3730,-16.2900658,8.2910776,-7.6661944,-145.3206177,202.2213745,250.1297760,0.5722113,1.6998745,10.5847120,2.0916030,-2.3282442,-2.3358779
3740,-12.3085279,6.8665352,-5.0038562,-200.8702240,250.1297760,250.1297760,0.5147507,1.7525467,10.5200682,2.3511450,-1.8015267,-3.1145039
3750,-9.2559366,4.2544746,-2.6264257,-242.8854980,250.1297760,250.1297760,0.5482694,1.8267666,10.4602137,2.0229008,-1.5496184,-4.2671757
3760,-7.2567883,0.7948709,-0.2681492,-250.1374054,250.1297760,250.1297760,0.5027798,1.9249283,10.4626083,1.5267175,-1.2519084,-4.6183205
3770,-4.0413918,-2.1763182,3.2177906,-250.1374054,243.7938995,250.1297760,0.4357425,1.8794388,10.4554253,0.7709923,-1.5725191,-4.9694657
3780,4.9392128,-3.1268115,8.1139078,-250.1374054,120.9083939,250.1297760,0.4860204,1.8243724,10.3859940,-0.1679389,-2.6335878,-5.6641221
3790,19.6126022,-0.3854645,13.6612453,-168.8778687,21.4580154,250.1297760,0.3974355,1.7764885,10.4123297,-1.6183206,-3.4351146,-5.8396945
3800,19.6126022,-0.0143651,17.0969067,-53.6030540,-46.0992355,161.5801544,0.3327923,1.6687500,10.4554253,-2.7099237,-4.0839696,-5.8702292
3810,19.6126022,-0.2849085,16.6037045,33.2519073,-133.9236603,-150.5572510,0.2011119,1.5203103,10.3931761,-3.5419848,-4.6030536,-6.2824426
3820,19.6126022,0.2873027,14.2957048,79.4732819,-234.5725250,-250.1374054,0.3016679,1.4006008,10.4937325,-3.9618320,-4.9694657,-6.6183205
3830,19.6126022,-0.1125269,11.5136566,118.4961853,-246.6030579,-250.1374054,0.2154770,1.3191984,10.6756907,-4.2977099,-4.8167939,-6.6335878
3840,11.4394369,-0.3710994,8.8680773,152.8396912,-229.0152740,-250.1374054,0.0430954,1.3048333,10.7977943,-3.9923663,-4.7633586,-6.3282442
3850,3.9767487,0.2442073,5.2073622,175.8396912,-203.2671814,-250.1374054,-0.0598547,1.2401901,10.7762470,-3.0763359,-4.0229006,-5.7404580
3860,-3.2465210,2.6886747,2.2984219,188.9313049,-159.9007568,-250.1374054,-0.1819584,1.2593436,10.9318695,-1.8396946,-3.2977099,-4.5877862
3870,-8.0971489,3.4117200,0.8499373,191.6335907,-134.1145020,-250.1374054,-0.2753318,1.2425843,10.9246864,-0.4809160,-2.7786260,-3.1145039
3880,-12.2175484,3.2130022,-1.2904681,183.9465637,-113.3435135,-250.1374054,-0.3495516,1.3287752,10.8121595,0.7175573,-2.9083970,-1.6641221
3890,-16.6252518,6.5648675,-3.6271970,164.1297760,-87.5648880,-250.1374054,-0.2130829,1.3503228,10.7834291,1.7175573,-2.9541984,-0.2748092
3900,-19.6131992,8.9710283,-5.9088597,122.4503784,-46.8778610,-235.3206177,-0.0981618,1.4556671,10.5703468,2.3664122,-2.9847329,0.2366412
3910,-19.6131992,11.2622671,-9.0260944,56.5419846,18.7633591,-83.3358765,0.0143651,1.4939742,10.5559816,1.9389313,-3.2137403,1.3664122
3920,-19.6131992,11.7506819,-11.2862091,-31.0610695,98.2671738,83.8396912,0.1628049,1.5131277,10.5990763,1.6030535,-3.3893130,1.2748091
3930,-19.6131992,10.1896706,-10.7044210,-126.4427490,172.7938995,250.1297760,0.2346306,1.5681942,10.5392218,1.1603054,-3.6335878,1.5038168
3940,-18.0114880,7.7619624,-7.0006099,-203.8549652,239.7786255,250.1297760,0.3423691,1.5418580,10.5823174,1.0458015,-4.0687022,0.7022901
3950,-15.0809994,5.2073622,-3.7828193,-246.8473358,250.1297760,250.1297760,0.3998296,1.5969244,10.5128860,0.6793893,-3.8625953,0.7328244
3960,-12.1337519,2.8179610,-1.0438666,-250.1374054,250.1297760,250.1297760,0.4237715,1.6663558,10.6014709,1.0229008,-3.7175572,-0.0687023
3970,-8.4802189,0.8762733,1.5203103,-250.1374054,250.1297760,250.1297760,0.4740495,1.6831152,10.6134415,0.9923664,-3.0229008,-1.4274809
3980,-4.6399393,-0.1508339,3.6271970,-250.1374054,250.1297760,250.1297760,0.4548960,1.6376256,10.5368280,1.0839695,-2.8549619,-1.3664122
3990,0.2777260,-1.2425843,5.9663200,-250.1374054,250.1297760,250.1297760,0.5027798,1.6735384,10.5344334,0.9541985,-2.9007633,-1.8091604
4000,6.5145893,-1.8674678,8.4993725,-239.0686951,212.6793823,250.1297760,0.4357425,1.6998745,10.4913378,0.3893130,-2.9770992,-2.9923663
4010,14.3651371,-1.5801650,11.8057480,-185.3358765,154.1450348,250.1297760,0.3280039,1.6759326,10.3428984,-0.4885496,-3.2671757,-3.0076337
4020,19.6126022,-0.9145803,14.7936964,-107.8625946,81.0000000,250.1297760,0.3136388,1.6160779,10.3572636,-1.3587786,-3.8015268,-2.6030533
4030,19.6126022,-1.2210367,15.8926296,-21.7404575,3.9847329,81.8244247,0.2561783,1.7022687,10.4673967,-2.2977099,-4.4045801,-2.7175572
4040,19.6126022,-0.1029501,14.9660778,48.7175560,-83.1679382,-131.5954132,0.2489957,1.5658000,10.4985209,-3.3358779,-5.3358779,-3.3511450
4050,19.6126022,0.8020535,13.0435438,96.4503784,-183.8854980,-250.1374054,0.2442073,1.4963684,10.5535870,-3.8015268,-5.5648856,-3.4580152
4060,17.8941727,0.5769997,10.8648319,131.0915985,-244.3282471,-250.1374054,0.1316804,1.4413021,10.5775290,-3.9160306,-5.3664122,-3.2748091
4070,13.1560707,0.7445929,8.9542685,157.0076294,-250.1374054,-250.1374054,0.1197095,1.4413021,10.6254129,-4.0000000,-5.8091602,-2.6106870
4080,9.1769285,1.4867916,7.7475972,177.5190887,-250.1374054,-250.1374054,0.1029501,1.3766589,10.7594872,-3.3816793,-5.6641221,-2.6564887
4090,5.6071916,2.1906834,5.9184365,191.3664093,-250.1374054,-250.1374054,0.1604107,1.3000449,10.7211800,-2.9618320,-5.4809160,-1.9618320
4100,1.6974803,3.7038112,3.3542595,192.6412201,-229.2137451,-250.1374054,0.2370248,1.2282192,10.8241301,-1.8854961,-5.3740458,-1.9618320
4110,-0.7398046,4.9775200,1.9368993,179.6564941,-188.8167877,-250.1374054,0.2466015,1.3096216,10.8121595,-0.9923664,-4.7251906,-1.9465649
4120,-2.6072724,4.5369892,0.5626345,155.5343475,-140.5725250,-250.1374054,0.2992737,1.3646880,10.8001890,-0.0458015,-4.0229006,-2.8854961
4130,-3.7660601,5.1642666,-1.3527170,132.8091583,-82.1221390,-250.1374054,0.3830703,1.3694763,10.8313131,0.7480916,-3.3664122,-3.1450381
4140,-7.1610208,4.9942794,-2.4444675,102.5725174,-40.2824440,-250.1374054,0.3782819,1.4676381,10.6972389,1.4809160,-2.9236641,-3.2061069
4150,-11.2909975,5.0804701,-2.7581062,71.4045792,-22.9389305,-250.1374054,0.4357425,1.4820032,10.6254129,1.7709924,-2.4198472,-3.8549619
4160,-17.0226879,4.8099265,-2.4061604,47.7480927,-30.9694653,-250.1374054,0.4525018,1.5897418,10.6900558,1.8167939,-2.1984732,-4.2671757
4170,-19.6131992,5.1355362,-2.1260402,34.4274826,-51.6946564,-208.3435059,0.4070122,1.6639616,10.5033092,1.7862595,-2.0992367,-5.5114503
4180,-19.6131992,6.8425937,-2.8442972,23.7709923,-60.4274826,-117.0839691,0.4644727,1.7333932,10.4314833,1.2748091,-2.5801528,-5.4351144
4190,-19.6131992,8.4969788,-4.3454537,1.4274809,-36.2748108,-17.4656487,0.3256098,1.7070571,10.4099360,0.4656489,-2.8625953,-5.4351144
4200,-18.0258522,9.1912937,-5.5593081,-38.3053436,12.8396950,91.5267181,0.3854645,1.6352314,10.3716288,-0.5954198,-3.3893130,-6.3053436
4210,-16.8191814,8.8154058,-6.5121951,-93.3282471,68.9465637,204.2519073,0.4165890,1.6017127,10.4314833,-1.7099236,-4.2442746,-6.5648856
4220,-16.1535969,7.4195933,-6.3972740,-155.1068726,116.3282471,250.1297760,0.2681492,1.5634058,10.4745789,-2.6793892,-4.8778625,-7.1221375
4230,-14.6261034,5.7676024,-5.2887645,-212.4122162,151.0305328,250.1297760,0.2178712,1.4867916,10.5535870,-3.3206108,-5.2748094,-7.2213740
4240,-11.7099810,4.3358769,-3.8354914,-250.1374054,177.3053436,250.1297760,0.1221037,1.4652439,10.6900558,-3.3511450,-4.5954199,-6.6259542
4250,-8.6813307,2.3941894,-2.0709739,-250.1374054,189.3282471,250.1297760,-0.0023942,1.3598996,10.6325951,-2.9236641,-4.5419846,-6.3740458
4260,-5.3629842,-0.2920911,-0.0167593,-250.1374054,183.8931274,250.1297760,0.0909792,1.3455344,10.7475166,-2.3282442,-4.5343513,-5.2977099
4270,-2.2170193,-2.9807658,2.5330524,-250.1374054,158.8549652,250.1297760,0.0957676,1.2832855,10.7906122,-1.4427481,-3.9847329,-4.8167939
4280,2.2505381,-4.7764082,5.3246775,-250.1374054,118.2977066,250.1297760,0.0191535,1.3479286,10.8193426,-0.4580153,-3.6259542,-4.8091602
4290,9.1027079,-5.1283536,8.5592270,-250.1374054,62.4503822,250.1297760,-0.0071826,1.3120158,10.7283630,0.3282443,-3.1908398,-4.3053436
4300,19.6126022,-2.9472473,12.7035694,-224.9084015,-3.7557251,250.1297760,0.0407012,1.4101776,10.7068148,0.9236641,-3.3282442,-2.9847329
4310,19.6126022,-0.2154770,19.1343613,-115.1755753,-28.1221371,231.8244324,0.1508339,1.4915800,10.6900558,1.4885496,-3.2824428,-2.4580152
4320,19.6126022,0.2346306,19.6126022,12.1908398,-40.2137413,-45.0381660,0.1771700,1.4460905,10.6278067,1.7404580,-2.7175572,-2.1450381
4330,19.6126022,-1.0893562,15.9189653,86.9694672,-106.7862625,-250.1374054,0.2753318,1.4676381,10.6302013,2.0610688,-2.3816793,-1.4427481
4340,19.6126022,-1.3479286,12.6413202,127.0229034,-184.1755676,-250.1374054,0.3184272,1.5298871,10.5679522,2.1526718,-2.6106870,-1.7022901
4350,15.4066095,-1.2090657,10.7259684,164.5954132,-214.5419922,-250.1374054,0.2992737,1.7022687,10.5607700,2.1526718,-2.4045801,-1.9236641
4360,10.4027529,-1.1061156,8.2527714,194.7709961,-212.4961853,-250.1374054,0.3639168,1.6711442,10.6349897,1.9083970,-2.3282442,-2.4580152
4370,4.6830344,-0.4884146,5.3558016,209.9694672,-190.5801544,-250.1374054,0.3902529,1.6950861,10.5727406,1.7557251,-2.1526718,-2.2595420
4380,-0.7709290,1.3359578,2.8873925,209.0992432,-154.2366486,-250.1374054,0.2394189,1.6448082,10.4961262,1.2671756,-2.3664122,-2.7022901
4390,-6.9263902,3.9216824,0.9911944,196.0381622,-103.5725174,-250.1374054,0.2418131,1.6472024,10.4027529,0.6335878,-3.3206108,-2.7862597
4400,-10.1058741,5.4395986,-0.4429250,183.4198456,-56.2595406,-250.1374054,0.1556223,1.5562232,10.4171181,-0.5419847,-3.9465649,-2.2137403
4410,-13.4816809,5.5569139,-3.1962428,157.1297760,-39.9923668,-250.1374054,0.1101327,1.5011568,10.4578199,-1.5343511,-4.4351144,-1.3969465
4420,-18.0138817,6.6223278,-4.8745699,119.6183243,-49.7404594,-250.1374054,0.0861908,1.3862357,10.5751352,-2.3282442,-5.1374044,-1.1984733
4430,-19.6131992,7.9678626,-5.8681583,71.3053436,-51.5419846,-207.1908417,0.0119709,1.2952565,10.6589317,-2.8549619,-5.4961834,-1.5419847
4440,-19.6131992,9.1841106,-6.3805151,17.2824421,-39.8702278,-90.1984711,0.0430954,1.1970947,10.6732969,-2.6641221,-5.6564884,-1.0152671
4450,-18.1551380,9.8209648,-6.4906478,-38.2977104,-14.4274807,20.7328243,-0.0071826,1.2138541,10.7427282,-2.2748091,-5.3740458,-0.5648855
4460,-16.0219154,9.2846670,-5.8466105,-96.2900772,18.3740463,129.7099304,0.0837966,1.2330076,10.8696203,-1.2671756,-5.0916033,-0.6946565
4470,-13.9198179,7.9271612,-4.1515245,-146.5496216,52.7557259,230.2900696,0.1101327,1.2210367,10.8049774,-0.1984733,-4.8549619,-0.1374046
4480,-12.8137016,6.3374195,-2.1427996,-186.2213745,84.9770966,250.1297760,0.2849085,1.3694763,10.7714586,1.0992366,-4.2748094,-0.6335878
4490,-11.3508520,4.2329268,-0.1197095,-212.5572510,109.8015289,250.1297760,0.2944853,1.4197544,10.6828737,1.9923664,-3.8167939,-0.2748092
4500,-9.1697454,2.8131726,1.3455344,-227.4885559,117.7404556,250.1297760,0.3399749,1.4436963,10.6421719,2.5343511,-3.0916030,-0.4732825
4510,-6.5720501,2.1356170,2.8658447,-231.1603088,108.9618301,250.1297760,0.4213773,1.5274929,10.5751352,2.5954199,-2.7786260,-1.5877863
4520,-4.1084290,1.2784972,4.0437860,-225.1908417,90.8167953,250.1297760,0.4405309,1.5993185,10.5559816,2.2748091,-2.6030533,-1.6106870
4530,-0.7996593,0.4501076,5.0661049,-210.9770966,67.7633591,250.1297760,0.5889706,1.6424140,10.5368280,1.9083970,-2.9007633,-2.9083970
4540,4.7764082,0.2178712,6.8785062,-186.3511505,37.8015251,250.1297760,0.5817881,1.6807210,10.4458485,1.6946565,-3.0152671,-4.2977099
4550,11.1425581,0.6464311,9.1410151,-147.7786255,15.8778629,250.1297760,0.5841822,1.7094513,10.4865494,1.1603054,-2.9694657,-6.1068702
4560,18.4999027,2.3319404,11.5735121,-97.4809189,3.8473282,250.1297760,0.5698171,1.7022687,10.4985209,0.7709923,-2.8244274,-6.7709923
4570,19.6126022,3.7923961,14.1089582,-34.3816795,11.8396950,162.4809113,0.4692611,1.6495966,10.4793673,0.2290076,-2.8244274,-7.5267177
4580,19.6126022,3.6702924,14.9229832,31.5877857,-1.5038168,5.6488547,0.2705434,1.5753766,10.5440102,-0.4351145,-3.1755726,-8.4656487
4590,19.6126022,2.8466914,13.6396971,89.1297684,-38.5954208,-143.7786255,0.1675933,1.5514348,10.5104914,-1.0229008,-3.5801528,-7.9389315
4600,19.6126022,2.3247581,11.7937775,133.9389343,-76.8625946,-250.1374054,0.0454896,1.4508789,10.4266949,-1.8091604,-3.9236641,-7.6259542
4610,15.9740324,2.1715298,9.4091644,170.4198456,-92.3587799,-250.1374054,-0.0023942,1.3886299,10.5487986,-1.9770992,-3.9083970,-6.5877862
4620,12.2343082,2.4827745,7.7763271,200.4580078,-79.0457993,-250.1374054,-0.0718257,1.3982066,10.6421719,-1.8702290,-3.7938931,-6.1068702
4630,7.4986014,3.3063757,5.7436604,218.2061005,-66.7633591,-250.1374054,-0.0742199,1.3886299,10.7427282,-1.1374046,-3.7099237,-5.2061067
4640,3.1675127,4.2353210,3.1315999,220.2748108,-51.8396950,-250.1374054,-0.0885850,1.3670821,10.7163916,-0.6564885,-3.2213740,-4.2442746
4650,-1.2018831,5.0541339,0.1388630,208.6717529,-20.6946564,-250.1374054,-0.1197095,1.4221486,10.6876621,0.0458015,-3.0763359,-3.5496182
4660,-3.3925664,6.2105274,-2.3223639,185.7251892,19.2519093,-250.1374054,-0.0502780,1.4460905,10.6709023,0.8091603,-3.2977099,-2.6183207
4670,-4.1227942,6.4020624,-4.6758518,150.5496216,61.9847336,-250.1374054,-0.0718257,1.4006008,10.6421719,1.2290076,-3.3664122,-1.7175573
4680,-5.5449429,6.4882536,-6.7444315,103.0457993,88.8167953,-250.1374054,-0.0383070,1.4652439,10.6661139,0.9847328,-3.6259542,-0.4961832
4690,-8.9758167,6.4092450,-7.6542239,47.6717567,106.8015289,-250.1374054,-0.0454896,1.5011568,10.6302013,0.5419847,-3.6793892,0.3206107
4700,-13.4385853,5.7819676,-6.7372489,1.0916030,109.9312973,-250.1374054,0.0143651,1.4628497,10.5607700,0.3358779,-4.2977099,1.1297710
4710,-17.1088772,5.2624283,-4.4220681,-24.3587780,105.8473282,-225.3206177,0.0359128,1.4867916,10.7882175,0.7175573,-4.4885497,1.9236641
4720,-19.6131992,5.5090299,-2.2529323,-28.9694653,91.2137375,-148.7022858,0.0885850,1.4580613,10.8815908,2.3282442,-3.7328243,2.8931298
4730,-19.6131992,5.6215568,-1.1348459,-19.8244267,58.0534363,-67.9160309,0.1340746,1.4484847,11.1784706,5.3816795,-1.9694656,3.7175572
4740,-19.6131992,6.3637557,-3.1914546,-19.7328243,14.1297712,76.6412201,0.2274480,1.4724265,11.2886028,12.6412210,1.5267175,3.3053436
4750,-16.5869446,6.8114691,-4.4962878,-43.5496178,7.4961834,131.9541931,0.1747758,1.6065011,11.4178896,17.6946564,4.3282442,4.2061067
4760,-14.6308918,7.0149751,-4.9990678,-79.3816757,13.3282442,180.9541931,0.2489957,1.6448082,11.5639353,23.8625946,8.5114508,5.5801525
4770,-13.0435438,6.5505023,-4.1012464,-116.8778610,25.3740463,228.8854980,0.3471575,1.6687500,11.3460636,29.1526718,13.0305347,6.0534353
4780,-12.2247314,5.7819676,-2.3750360,-143.1755676,35.7862587,250.1297760,0.5027798,1.6902977,10.9989061,32.5419846,17.3511448,5.4351144
4790,-10.8384953,5.0780759,-0.7230452,-156.2977142,41.6030540,250.1297760,0.4501076,1.6926919,10.4673967,33.4427490,18.3358784,3.3129771
4800,-9.0236998,4.5729017,0.1819584,-162.7404633,43.0000000,250.1297760,0.5003856,1.7669119,10.1585455,31.6717548,16.5877857,1.4427481
4810,-7.1993275,4.0198441,1.1731528,-163.9084015,31.7404575,250.1297760,0.4381367,1.7764885,9.7371683,27.8396950,15.2748089,-0.3740458
4820,-4.2903876,3.3494711,1.9368993,-162.7709961,7.2137403,250.1297760,0.4525018,1.8435259,9.6461897,22.5648861,12.1450386,-3.1450381
4830,-1.6280488,2.7030399,2.3510940,-157.5190887,-15.1526718,250.1297760,0.1987177,1.8291607,9.4857788,16.3587780,8.6259546,-5.6106873
4840,1.1204807,2.0350611,2.5091105,-149.1374054,-43.2824440,250.1297760,0.1412572,1.8770446,9.5983057,10.2595415,4.7099237,-7.6259542
4850,5.1642666,1.8339491,2.9759774,-135.4198456,-82.0000000,250.1297760,-0.2346306,1.8890154,9.6988611,4.5725193,0.7175573,-9.0076332
4860,9.6270361,2.2409613,4.3861551,-112.5114517,-117.2442780,250.1297760,-0.4309541,1.8291607,9.9143381,0.4580153,-2.3053436,-9.0305347
4870,14.3795023,3.0262554,5.8944945,-81.0000000,-127.1679382,250.1297760,-0.5674229,1.8818330,10.2423429,-2.2366412,-4.9389315,-7.5572519
4880,19.0409889,4.3981261,7.8409705,-47.7480927,-110.1068726,177.8244324,-0.4740495,1.9081690,10.3764172,-3.8473282,-5.9541984,-5.7251906
4890,19.6126022,5.3965030,9.5791521,-21.0458012,-91.6793900,81.9083939,-0.3663110,1.9584470,10.4290895,-4.7557254,-6.5954199,-4.9618320
4900,19.6126022,5.0948353,10.7882175,2.7480917,-75.5496216,-18.4045811,-0.2609667,1.9680238,10.5128860,-5.1068702,-6.7480917,-4.9618320
4910,19.6126022,4.6088147,11.1808643,30.0152664,-66.3740463,-111.4580154,-0.0670373,2.0159075,10.3979645,-5.4580154,-7.2442746,-4.4045801
4920,19.1630917,4.1012464,11.1593170,63.5801544,-57.3435097,-189.5190887,-0.0574605,2.0637913,10.3835993,-5.9389315,-7.5801525,-3.9465649
4930,16.2804890,3.6128318,10.1154509,100.9236679,-51.6106873,-248.9770966,0.0957676,2.0590029,10.4099360,-6.8702292,-7.8396945,-4.2366414
4940,13.0459385,3.4236910,8.4443064,134.2213745,-38.8931313,-250.1374054,0.1747758,2.0398495,10.3476868,-7.9236641,-8.0305347,-4.2137403
4950,9.9717989,3.6032550,6.3206601,156.7175598,-28.7022896,-250.1374054,0.2298422,2.0853391,10.2423429,-9.2442751,-8.5877867,-4.4427481
4960,6.6606350,4.5920553,3.2800395,165.0305328,-10.5648851,-250.1374054,0.0694315,1.9991482,10.2519188,-10.3129768,-9.3129768,-4.7480917
4970,3.5434003,5.2241216,0.6320660,160.3816833,15.2442751,-250.1374054,-0.0167593,1.8507085,10.4195127,-10.7251911,-10.2442751,-5.1679387
4980,0.8906385,6.2057390,-1.6807210,147.5114441,43.9389305,-250.1374054,-0.0574605,1.9105632,10.6349897,-9.9847326,-10.3282442,-4.1908398
4990,-1.0845678,6.7300668,-3.1986370,129.8473358,75.4122162,-250.1374054,-0.2178712,1.7286048,10.8552551,-8.5114508,-10.0992365,-4.8625956
5000,-3.9935081,6.4379754,-4.2736282,110.7099228,92.6564865,-250.1374054,-0.1460456,1.7381816,10.8624372,-7.2442746,-8.4809160,-3.7404580
5010,-9.3157911,5.3773494,-4.2688398,95.4885483,68.2366409,-250.1374054,-0.2729376,1.6136837,10.7546988,-5.8396945,-7.5877862,-2.5877862
5020,-14.5758257,5.0277977,-3.5003049,89.6870193,17.2519093,-250.1374054,-0.2154770,1.6088953,10.7331514,-4.2061067,-6.4274807,-1.2061069
5030,-17.8534698,5.9136481,-3.0956869,85.5648880,-31.9312973,-250.1374054,-0.1795642,1.5490406,10.7546988,-2.7480917,-5.7251906,-1.0152671
5040,-18.1168308,7.3621325,-4.0509686,70.1297684,-53.6870232,-200.2442780,-0.1795642,1.6328372,10.6349897,-1.4809160,-5.3435116,-0.9312977
5050,-16.8910065,8.0372944,-5.1594782,38.3435097,-46.0152664,-141.8091583,-0.0287303,1.6232605,10.6876621,-1.1832061,-5.0687022,-0.5954198
5060,-16.3618908,8.1474266,-5.6119800,-6.4198475,-20.8320618,-73.5267181,-0.1101327,1.7238164,10.6278067,-1.0763359,-4.9847326,-1.0687023
5070,-16.4528694,7.5057840,-5.2001796,-52.2748108,7.3511453,-0.7328244,0.0287303,1.7717001,10.5511932,-1.3587786,-4.7633586,-0.6183206
5080,-16.2373924,6.5289545,-3.8977404,-89.5419846,20.7862587,68.2977066,0.0311245,1.7525467,10.5248566,-1.6030535,-5.0000000,-0.3435115
5090,-15.7896795,6.0213866,-2.1116750,-107.4732819,21.8702297,127.8320618,0.1053443,1.8171898,10.3835993,-1.9389313,-4.6335878,-0.3893130
5100,-14.9900198,5.8585815,-0.7613522,-111.0916061,19.1755733,180.0229034,0.2106887,1.8315549,10.4889441,-2.2824428,-4.8549619,-1.5114504
5110,-14.1520538,5.6814117,-0.2849085,-109.7099228,24.1526718,228.6564941,0.1795642,1.8770446,10.4961262,-2.7633588,-5.6412215,-1.3206106
5120,-13.0100250,5.1355362,0.0287303,-111.8396912,28.3511448,250.1297760,0.2298422,1.8722562,10.5392218,-3.0839694,-5.7175574,-1.9312977
5130,-11.0276365,4.9152708,0.1388630,-114.8702316,29.3587780,250.1297760,0.1939293,1.8459201,10.6182299,-2.9389312,-5.3969464,-1.5038168
5140,-8.7100611,4.8362627,0.4070122,-119.5114517,30.7099228,250.1297760,0.2681492,1.8674678,10.6134415,-2.5954199,-5.1526718,-3.0992367
5150,-6.4643116,4.7165532,0.0263361,-126.2061081,31.8854961,250.1297760,0.2442073,1.8363433,10.6541433,-2.2824428,-4.8091602,-3.0381680
5160,-4.2496862,4.6734576,-0.4381367,-136.2290039,31.8702297,250.1297760,0.2466015,1.8363433,10.4769726,-2.0839694,-4.3816795,-3.6412213
5170,-2.2218077,4.1611013,-0.8906385,-150.8015289,32.7099228,250.1297760,0.2346306,1.8124014,10.4482431,-2.2061069,-4.3358779,-4.3587785
5180,-0.2274480,2.9855542,-0.5171449,-167.8167877,25.1679382,250.1297760,0.1891410,1.7070571,10.4721851,-2.3587787,-4.5648856,-5.0229006
5190,3.3303175,1.6759326,0.7757174,-179.3664093,4.5114503,250.1297760,0.0861908,1.7142396,10.4697905,-2.5267177,-4.6259542,-5.7404580
5200,8.1522150,1.0869620,3.0932927,-176.1832123,-16.2213745,250.1297760,0.1029501,1.6831152,10.5511932,-2.7786260,-4.6259542,-6.2977099
5210,15.3323889,2.0135133,5.6000090,-156.7175598,-27.2519093,250.1297760,0.0023942,1.6208663,10.5464048,-2.9618320,-4.3969464,-5.9465647
5220,19.6126022,4.0533628,8.8944139,-121.3740463,-1.7709924,250.1297760,-0.0694315,1.6615674,10.5033092,-3.0992367,-4.2366414,-5.4732823
5230,19.6126022,5.0397687,11.4178896,-85.5801544,44.7404594,128.0534363,-0.0502780,1.5442522,10.5440102,-3.0916030,-4.4122138,-5.0763359
5240,6.0860295,7.0724359,3.7109938,143.8396912,65.2824402,-244.7099304,0.0383070,1.6855093,10.5607700,0.7480916,-3.0916030,-1.4732825
5250,4.6758518,7.7045016,2.0422437,146.4809113,72.3053436,-250.1374054,0.1699875,1.6687500,10.5200682,0.7633588,-3.2290077,-1.8015267
5260,3.2896163,7.7428088,0.4572902,146.3969421,74.5572510,-250.1374054,0.1675933,1.7333932,10.5703468,0.5877863,-3.5419848,-2.1297710
5270,1.8531027,7.6207051,-0.7421987,141.9084015,71.8091583,-250.1374054,0.0263361,1.6495966,10.5296450,-0.1755725,-4.0687022,-2.3816793
5280,-0.0143651,7.2160869,-1.4077834,134.4427490,60.1984749,-250.1374054,0.0622489,1.7333932,10.4506369,-1.0000000,-4.3893127,-2.1145039
5290,-8.5831690,5.7436604,-1.1300575,114.3282471,13.1297712,-250.1374054,-0.0454896,1.6160779,10.5392218,-2.3969467,-4.9312978,-1.6488550
5300,-12.6868095,5.5760674,-1.4891858,106.3129807,-1.8854961,-250.1374054,-0.0191535,1.5921360,10.4937325,-2.6793892,-5.1297708,-1.5877863
5310,-15.4832230,5.9806852,-2.1643472,91.7938919,-13.3282442,-244.9618378,0.0119709,1.5298871,10.6445665,-2.8854961,-5.5801525,-1.4351145
5320,-16.9197369,6.9168134,-2.9448531,69.4122162,-14.1679392,-176.9465637,0.0359128,1.5203103,10.6756907,-2.4198472,-5.7099237,-1.6106870
5330,-17.0729656,7.8625183,-4.1898317,37.4351158,-2.8625953,-100.6793900,0.0047884,1.5131277,10.6637201,-1.8931298,-5.4122138,-1.8244275
5340,-17.1543674,7.6590118,-4.4484038,0.5190840,12.4732828,-18.0381680,0.0311245,1.5131277,10.6373835,-1.7328244,-4.9541984,-2.1679389
5350,-16.2373924,7.0700417,-4.2425036,-37.3587799,24.2061062,62.0305328,0.0550664,1.6088953,10.6948442,-0.8091603,-4.3587785,-2.1221373
5360,-14.4034433,6.7492199,-3.3853838,-70.1297684,33.2595406,132.4503784,0.1149211,1.5873476,10.6804790,-0.0229008,-3.7480917,-2.4427481
5370,-12.1912127,6.2943239,-2.2601149,-93.3587799,42.0228996,189.2900696,0.1556223,1.6879035,10.6565371,0.7786260,-3.5114503,-2.4045801
5380,-10.4793673,6.0285692,-1.4317253,-108.1755753,45.5190849,233.2137451,0.1340746,1.7262106,10.6110477,1.4351145,-2.8702290,-2.1297710
5390,-8.8920193,6.0357518,-0.5913648,-116.9923630,45.7557259,250.1297760,0.2489957,1.7573351,10.6493549,1.6183206,-3.0610688,-2.5267177
5400,-7.3118544,5.9112539,0.0239419,-120.8473282,42.2824440,250.1297760,0.1675933,1.8219782,10.5392218,1.5725191,-2.6870229,-2.9618320
5410,-5.7125359,5.8873119,0.3998296,-121.3587799,36.3206100,250.1297760,0.1460456,1.8554969,10.4195127,0.8244275,-2.4732823,-2.8549619
5420,-3.9504125,6.3853035,0.3926471,-121.3282471,30.4809170,250.1297760,0.1388630,1.8435259,10.4458485,0.2366412,-3.1374047,-2.5267177
5430,-2.4205256,6.5050125,0.3495516,-123.7938919,24.3587780,250.1297760,0.1197095,1.7669119,10.3788109,-0.4274809,-3.8320611,-3.2824428
5440,-1.4748207,6.1770086,0.2346306,-129.7404633,20.7786255,250.1297760,0.1747758,1.7262106,10.4266949,-0.9160305,-3.8167939,-3.9770992
5450,-0.7948709,5.4826937,0.4860204,-137.7709961,18.2290077,250.1297760,-0.0191535,1.6112895,10.4817610,-2.3816793,-4.8854961,-3.3358779
5460,-0.3663110,4.8937230,1.0821736,-146.0076294,15.6488552,250.1297760,0.0694315,1.6472024,10.5080976,-2.9083970,-5.2061067,-2.8702290
5470,0.0790083,4.0533628,1.7956421,-152.7251892,14.6793890,250.1297760,0.0742199,1.5969244,10.4985209,-3.5190840,-5.6564884,-2.9923663
5480,0.5315101,2.9209111,2.5282640,-160.2671814,14.6717558,250.1297760,0.0550664,1.5131277,10.6876621,-2.4885497,-5.4427481,-3.4122138
5490,0.8451489,1.2497669,2.6623387,-170.5267181,20.6717548,250.1297760,-0.0478838,1.5873476,10.6756907,-2.7709923,-5.0916033,-2.9694657
5500,2.1715298,-0.9026094,2.8203552,-186.5343475,26.3206100,250.1297760,-0.0407012,1.5131277,10.6230183,-2.3053436,-4.9847326,-2.4503818
5510,5.6191626,-2.7054341,3.8953462,-200.9770966,29.7022896,250.1297760,-0.0454896,1.5250987,10.7139978,-1.9236641,-4.4351144,-1.8778626
5520,11.8584204,-3.2752512,6.7540083,-204.5648804,37.3053436,250.1297760,0.1053443,1.5059452,10.7020273,-1.0000000,-4.5267177,-2.8931298
5530,19.6126022,-1.8459201,10.9845409,-189.1450348,57.8702278,250.1297760,0.0454896,1.4891858,10.7163916,-0.6106870,-4.0381680,-3.1755726
5540,19.6126022,0.1699875,17.1854916,-138.6870270,80.0610657,250.1297760,0.0047884,1.5346755,10.5631638,-1.1221374,-4.1145039,-2.8091602
5550,19.6126022,-0.5817881,19.6126022,-64.5496216,74.9465637,136.6641235,0.0670373,1.5538290,10.6086531,-0.9465649,-4.0152674,-3.1603053
5560,19.6126022,-1.6280488,19.6126022,14.3816795,56.4122124,-7.4580154,0.0694315,1.4891858,10.7355452,0.0076336,-4.2977099,-3.9541984
5570,19.6126022,-1.6184721,19.6126022,94.3282471,1.8167939,-135.0686951,0.0837966,1.5083394,10.5847120,0.6030535,-3.8091602,-4.1145039
5580,18.8805771,-1.1563935,16.8862190,171.5648804,-57.5725174,-239.7480927,0.0454896,1.5801650,10.6421719,0.5038168,-3.4503818,-4.0305343
5590,14.7218714,-0.6272776,12.6724443,237.1221313,-86.4198456,-250.1374054,0.1149211,1.6879035,10.5966825,0.4503817,-3.3053436,-3.6946564
5600,11.8847561,0.4860204,9.0763721,250.1297760,-92.7175598,-250.1374054,0.3040621,1.5873476,10.7068148,1.0687023,-4.4809160,-3.9389312
5610,9.0500364,2.6455793,5.0014620,250.1297760,-84.8320618,-250.1374054,0.3160330,1.6615674,10.5416164,1.4580153,-3.1984732,-4.5877862
5620,5.9328012,4.8434453,0.9265513,250.1297760,-63.1679382,-250.1374054,0.2657550,1.7238164,10.6086531,1.4580153,-1.6488550,-5.7709923
5630,2.8802099,6.7779503,-2.8873925,250.1297760,-32.3664131,-250.1374054,0.0646431,1.8243724,10.5511932,1.6030535,-1.8244275,-5.1603055
5640,-0.3950413,8.2958660,-6.2751703,215.3129730,-5.6335878,-250.1374054,0.0047884,1.6926919,10.5679522,2.1908398,-1.4656489,-3.6259542
5650,-3.4380560,9.2703018,-7.7978749,159.4198456,13.5877867,-250.1374054,-0.1125269,1.9177457,10.2950144,0.7099237,-1.7633588,-3.6488550
5660,-5.5664907,9.3708572,-7.9008250,102.3053436,23.8091602,-250.1374054,-0.0095768,1.8100072,10.3117743,0.3129771,-4.3664122,-2.3816793
5670,-7.3836803,9.2080526,-6.2631998,57.2824440,19.7786255,-250.1374054,0.0622489,1.7740943,10.2710724,-1.2519084,-4.8244276,-2.2977099
5680,-10.0723553,9.1003141,-4.0366035,31.0992374,14.1221371,-247.7709961,-0.1675933,1.5849534,10.3859940,-2.8244274,-4.3282442,-2.3587787
5690,-12.6006193,8.8704720,-2.8466914,15.9618320,7.6488547,-190.2595367,-0.1699875,1.5705882,10.4482431,-3.8473282,-6.0229006,-1.4580153
5700,-15.5646257,8.8082228,-2.5115047,2.2366412,1.9541985,-120.4961853,-0.1963235,1.5155219,10.5487986,-4.5190840,-6.6793895,0.2061069
5710,-16.7329903,8.8872309,-2.9233053,-16.1450386,-0.2442748,-40.7022896,-0.1292862,1.4676381,10.6852674,-4.7099237,-6.3206105,0.4274809
5720,-16.2469692,9.6366129,-3.6224086,-42.5877876,6.6259542,42.8702278,-0.0742199,1.3622938,10.8313131,-3.8549619,-6.8931298,0.3893130
5730,-15.5430775,10.2638903,-5.5186067,-84.6870193,32.5572510,129.4351196,-0.1292862,1.3838415,10.8169479,-2.5114503,-5.9160304,0.3893130
5740,-15.6579990,9.3995876,-7.0868006,-145.6259613,67.9923630,230.2519073,0.1197095,1.3910241,10.7475166,-1.4274809,-4.8473282,0.8396947
5750,-14.7075062,7.5057840,-7.6302819,-215.6564941,100.2213745,250.1297760,0.0574605,1.3670821,10.9366570,-0.0076336,-4.1297708,0.8320611
5760,-12.4258432,4.5250182,-6.0357518,-250.1374054,130.0915985,250.1297760,0.2082945,1.3862357,10.9127159,1.8625954,-3.1679389,-0.0992366
5770,-9.6006994,0.8930327,-3.4069316,-250.1374054,150.8778687,250.1297760,0.2873027,1.5035510,10.7762470,2.4503818,-2.8244274,-1.0763359
5780,-6.4834652,-3.1052637,-0.4405309,-250.1374054,152.1068726,250.1297760,0.2466015,1.6065011,10.6421719,3.0305343,-1.8396946,-1.2290076
5790,-2.1739240,-6.0740585,3.7349355,-250.1374054,125.2748108,250.1297760,0.3351865,1.6448082,10.5727406,2.5343511,-2.3129771,-2.2213740
5800,3.4404502,-7.1610208,7.2543941,-250.1374054,76.5801544,250.1297760,0.3160330,1.6998745,10.4410601,2.8320611,-3.0305343,-2.5725191
5810,12.7227230,-6.8401995,10.9773588,-250.1374054,15.5572519,250.1297760,0.3351865,1.8076130,10.5296450,2.5877862,-2.2595420,-3.6946564
5820,19.6126022,-5.0852585,16.6467991,-246.9236603,-25.2824421,250.1297760,0.1843526,1.7908537,10.4530315,1.2977099,-2.4732823,-3.8244274
5830,19.6126022,-5.7891502,19.6126022,-131.1908417,-31.3358784,89.4351120,0.1915352,1.7333932,10.4721851,-0.0305344,-3.2290077,-4.9007635
5840,19.6126022,-5.8801293,19.6126022,-23.4351139,-61.3893127,-134.8167877,0.3040621,1.6735384,10.5320396,0.0305344,-4.7022901,-5.3816795
5850,19.6126022,-5.1786318,19.6126022,59.7633591,-130.0381622,-250.1374054,0.1436514,1.6280488,10.4578199,-0.0687023,-2.9770992,-6.6488547
5860,19.0385952,-5.4372044,19.6126022,134.9541931,-175.7709961,-250.1374054,-0.0502780,1.6735384,10.6038647,-0.8167939,-3.0687022,-6.7251906
5870,14.5423069,-5.5617023,17.7433376,206.6564941,-187.8473358,-250.1374054,-0.1628049,1.6783268,10.5392218,-1.3053435,-4.1908398,-5.5419846
5880,10.4458485,-4.8027439,14.4800577,250.1297760,-183.5038147,-250.1374054,-0.1604107,1.6041069,10.5416164,-1.4274809,-4.5038166,-3.7404580
5890,7.1131368,-3.3183465,10.8959560,250.1297760,-167.5954132,-250.1374054,-0.1364688,1.4532729,10.6278067,-0.9847328,-4.4351144,-3.0687022
5900,3.3446827,-1.2689204,7.2112985,250.1297760,-139.7175598,-250.1374054,-0.0694315,1.5227045,10.6756907,-0.8549618,-4.2900763,-2.9007633
5910,-0.2466015,1.0486550,3.3518653,250.1297760,-99.9923630,-250.1374054,0.0478838,1.5370697,10.6349897,-0.6564885,-4.1908398,-2.8167939
5920,-2.7772598,2.6886747,-0.2705434,250.1297760,-53.5648842,-250.1374054,0.0359128,1.5298871,10.7331514,-0.3664122,-3.9236641,-2.4580152
5930,-4.7572546,3.7636659,-3.8809812,250.1297760,-8.0076332,-250.1374054,0.0478838,1.5298871,10.6349897,0.2748092,-3.6412213,-1.8931298
5940,-7.6015515,4.3071470,-5.4802995,206.2442780,1.3129771,-250.1374054,0.1388630,1.5777708,10.7139978,0.7633588,-3.1679389,-2.0763359
5950,-11.1856527,4.5681133,-5.7843618,161.9541931,-17.3053436,-250.1374054,0.1436514,1.6855093,10.6972389,1.4809160,-2.8625953,-1.4503816
5960,-15.4401274,5.6407104,-4.7644372,127.2442780,-46.0305328,-250.1374054,0.1556223,1.7429699,10.6110477,2.0839694,-2.3053436,-2.0000000
5970,-18.1024666,6.6845770,-4.0270267,103.2442780,-66.1221390,-248.0610657,0.1628049,1.7142396,10.5799236,2.3053436,-2.3740458,-1.9541985
5980,-18.9404335,7.6709828,-4.0964580,77.4198456,-70.2442780,-176.8015289,0.0981618,1.7309990,10.5535870,2.4122138,-2.6030533,-2.1755726
5990,-19.0457764,8.4419117,-4.2472920,41.9007645,-59.4122124,-94.7328262,0.0383070,1.7980363,10.4266949,1.2519084,-2.9312978,-1.8549619
6000,-19.2660427,8.3964224,-4.5776901,-1.0076336,-30.8473282,-2.1832061,-0.0119709,1.7214222,10.3428984,0.4809160,-4.5801525,-1.4809160
6010,-19.6131992,7.7332320,-4.6590929,-48.2977104,5.6641221,102.0076370,0.2130829,1.6088953,10.3357162,-0.5648855,-6.3511453,-1.9618320
6020,-18.6651001,6.6151457,-3.8809812,-91.3282471,38.0076332,211.4427490,0.1316804,1.4987626,10.3740225,-1.8702290,-5.5114503,-2.3587787
6030,-16.1703548,6.3948798,-2.8778157,-121.4351120,62.6946564,250.1297760,-0.0718257,1.5155219,10.4650021,-3.1221373,-4.1145039,-2.6030533
6040,-13.0339670,5.8513989,-2.4372849,-145.2290039,88.3053436,250.1297760,-0.1915352,1.4006008,10.5751352,-3.5648854,-5.0992365,-1.5801526
6050,-10.3261395,4.8314743,-2.3846128,-169.3969421,108.5114517,250.1297760,-0.2035061,1.3742647,10.7307568,-3.0229008,-6.0610685,-1.5954199
6060,-7.6326761,3.7229645,-1.8243724,-195.0152740,121.7404556,250.1297760,-0.2873027,1.3551112,10.8073711,-2.2290077,-5.7862597,-1.5267175
6070,-4.8745699,2.1835008,-0.3399749,-218.6488495,120.3893127,250.1297760,-0.0981618,1.3934183,10.7786407,-1.3206106,-4.8473282,-0.8702290
6080,17.6068687,-2.1499822,11.6932211,-158.8244324,21.0763359,250.1297760,0.4860204,1.7094513,10.5152798,1.0305344,-3.4427481,-4.2213740
6090,19.6126022,-1.3383518,14.9612904,-98.9083939,-4.9541984,185.0000000,0.5626345,1.6687500,10.5871058,1.8625954,-3.0610688,-5.9541984
6100,19.6126022,-1.3120158,16.9508610,-24.1450386,-30.1603050,40.2061081,0.5075682,1.7453641,10.6421719,2.3053436,-1.8091604,-8.0076332
6110,19.6126022,-1.7501525,16.6563759,41.9618340,-61.2061081,-103.1603088,0.2825144,1.8818330,10.5033092,1.6641221,-1.1755725,-8.1679392
6120,19.6126022,-1.6615674,15.9644556,92.0457993,-116.6717529,-229.2977142,0.1077385,1.8147956,10.4386663,1.0076336,-2.0381680,-7.3816795
6130,19.3091373,-1.6424140,14.8846760,131.6717529,-172.3435059,-250.1374054,0.0790083,1.6711442,10.5727406,0.9083970,-2.3129771,-8.1068707
6140,15.7968616,-0.7086801,13.0555153,168.3053436,-186.3129730,-250.1374054,0.1221037,1.6639616,10.4937325,0.5877863,-2.7328243,-8.8015270
6150,13.2302914,0.9409165,11.0276365,201.9389343,-166.4198456,-250.1374054,0.1173153,1.5993185,10.4219065,-0.4045801,-4.5190840,-8.3893127
6160,10.5703468,3.0837159,9.0644016,228.6564941,-127.1832047,-250.1374054,-0.1005560,1.6591733,10.4410601,-1.6259542,-3.7633588,-8.4503813
6170,7.2208753,5.1953912,5.5305777,241.9236603,-70.3282471,-250.1374054,-0.1388630,1.5298871,10.5296450,-2.1068702,-3.0458016,-7.2061067
6180,4.4148855,6.8042865,1.9943599,238.6793823,-6.6488547,-250.1374054,-0.2322364,1.6017127,10.6302013,-2.0839694,-4.7557254,-5.7328243
6190,1.9680238,8.0181408,-1.7908537,218.1374054,39.0228996,-250.1374054,-0.2082945,1.5777708,10.6134415,-2.0610688,-3.9465649,-4.9083967
6200,0.0383070,8.6526003,-4.5633249,182.6488495,65.0992355,-250.1374054,-0.2370248,1.5322813,10.6637201,-1.7557251,-5.0229006,-4.2290077
6210,-0.9816177,9.0308828,-6.3110833,135.3053436,75.6259537,-250.1374054,-0.0383070,1.5322813,10.6038647,-1.2824427,-5.1603055,-3.6717558
6220,-1.6208663,8.5281029,-6.0668759,86.9542007,75.9618301,-250.1374054,-0.0933734,1.4963684,10.6972389,-1.0076336,-3.5038168,-2.8931298
6230,-4.5729017,7.3597383,-4.4172797,53.8854980,71.8320618,-250.1374054,-0.2394189,1.4820032,10.6828737,-0.6030535,-3.5725191,-2.1603053
6240,-9.0380650,5.9830794,-2.4708035,42.4961815,53.0534363,-250.1374054,-0.2226596,1.5011568,10.5823174,-0.1526718,-4.0839696,-1.6106870
6250,-14.6021614,5.2720051,-1.0199248,43.7251892,5.3664122,-250.1374054,-0.1867468,1.5203103,10.6230183,-0.0305344,-4.3435116,-0.5648855
6260,-18.3490677,5.5617023,-0.9026094,49.9847336,-43.8244286,-207.0610657,-0.1364688,1.4891858,10.5871058,-0.0381679,-4.3129773,-1.1374046
6270,-19.4049053,7.1538382,-2.3678534,43.9771004,-68.2900772,-140.3053436,-0.0598547,1.5227045,10.5655584,-0.1450382,-4.3129773,0.1221374
6280,-18.2437229,8.8010406,-4.8218975,13.4427481,-62.4580154,-59.8473282,0.0502780,1.5610116,10.5990763,-0.0763359,-4.5572519,-0.3358779
6290,-17.3626614,9.3181858,-6.5098009,-40.8244286,-28.8320618,35.7633591,0.1771700,1.5777708,10.5895004,0.2519084,-4.3358779,0.0687023
6300,-16.7497501,8.4107876,-7.0676475,-110.3511429,13.4045801,147.0915985,0.2274480,1.5849534,10.6110477,0.6106870,-4.0763359,-1.1679389
6310,-15.2677460,6.2679882,-5.7077475,-177.2671814,47.3358765,250.1297760,0.2130829,1.6136837,10.5487986,0.7786260,-3.9007633,-1.9083970
6320,-13.3212700,4.6614871,-3.5314295,-230.1450348,81.2366409,250.1297760,0.2920911,1.7070571,10.5942879,0.5114504,-3.5496182,-2.4885497
6330,-10.4673967,2.4851687,-1.1563935,-250.1374054,110.3129807,250.1297760,0.2777260,1.7094513,10.5033092,-0.0534351,-3.6564887,-2.4427481
6340,-7.3788919,0.2585725,0.8714849,-250.1374054,122.7480927,250.1297760,0.2489957,1.6974803,10.4290895,-0.7328244,-4.0839696,-3.2442749
6350,-4.4005203,-1.9704180,2.4540441,-250.1374054,115.0305328,250.1297760,0.1173153,1.6304430,10.4314833,-1.5725191,-4.6030536,-3.3053436
6360,-0.7493813,-3.9456241,4.1970143,-250.1374054,93.9236679,250.1297760,0.0335187,1.5825592,10.4745789,-2.5267177,-5.2519083,-3.8396947
6370,3.7109938,-5.2097564,6.2895355,-250.1374054,57.4885483,250.1297760,0.0119709,1.5466464,10.4793673,-3.0763359,-5.7099237,-4.1832061
6380,11.1234045,-4.7596488,9.9430685,-250.1374054,-0.8167939,250.1297760,-0.0837966,1.4963684,10.6948442,-3.4045801,-6.1374044,-4.6183205
6390,19.6126022,-2.8993635,15.5933561,-176.6946564,-49.6106873,250.1297760,-0.0718257,1.4724265,10.6900558,-3.0839694,-5.9618320,-3.8015268
6400,19.6126022,-1.1803354,19.6126022,-65.2748108,-58.5038185,138.6106873,-0.0287303,1.5083394,10.7139978,-2.3129771,-5.4885497,-3.1908398
6410,19.6126022,0.3854645,19.6126022,39.3206100,-78.7709961,-75.1755753,0.0000000,1.4317253,10.7906122,-1.4732825,-4.8091602,-2.6412213
6420,19.6126022,0.6296718,19.6126022,125.5572510,-126.3129807,-250.1374054,-0.0047884,1.3886299,10.7379398,0.0305344,-3.5954199,-3.4809160
6430,19.6126022,-0.2585725,16.0075512,196.7251892,-148.7633514,-250.1374054,0.0909792,1.4245427,10.7738523,0.9847328,-2.7404580,-2.8091602
6440,14.4824524,-0.8355721,12.5814657,250.1297760,-161.9541931,-250.1374054,0.1364688,1.4772149,10.7906122,1.6412214,-2.6564887,-2.5877862
6450,9.2439651,-0.1412572,9.3229742,250.1297760,-165.0381622,-250.1374054,0.0335187,1.4269369,10.7044210,2.3511450,-2.3206108,-2.9236641
6460,5.0038562,1.2593436,5.4372044,250.1297760,-148.4503784,-250.1374054,0.2178712,1.5203103,10.6565371,2.7404580,-1.8549619,-3.4580152
6470,0.1963235,3.4691806,0.8020535,250.1297760,-121.9542007,-250.1374054,0.1077385,1.5227045,10.6709023,3.0381680,-1.8854961,-3.4122138
6480,-2.2720859,4.3430595,-3.4380560,250.1297760,-85.7786255,-250.1374054,0.0814024,1.6663558,10.6565371,3.0610688,-1.9847329,-3.4732823
6490,-4.6878228,4.3574247,-5.5952206,234.9160309,-64.8854980,-250.1374054,0.0981618,1.7549409,10.6493549,3.2748091,-1.5725191,-2.7022901
6500,-9.3157911,5.0493455,-6.1123657,178.1679382,-65.6717529,-250.1374054,0.1101327,1.7573351,10.4841557,3.2213740,-1.5343511,-2.4656489
6510,-17.6403885,3.7923961,-5.0301919,142.5114441,-80.2442780,-250.1374054,0.1556223,1.7884595,10.5320396,3.0763359,-1.4580153,-2.9007633
6520,-19.6131992,4.2688398,-5.2121506,113.7862625,-110.1603088,-250.1374054,0.1963235,1.8363433,10.5200682,2.6030533,-1.8015267,-3.1908398
6530,-19.6131992,5.9830794,-5.8873119,81.2519073,-124.0152664,-240.3435059,0.1508339,1.7693061,10.4578199,1.8167939,-2.3206108,-3.2595420
6540,-19.6131992,7.3070664,-6.9527264,30.8549614,-105.4503784,-129.6183167,0.0909792,1.8554969,10.3261395,0.9541985,-2.8931298,-3.2290077
6550,-19.6131992,7.4722652,-7.1179252,-33.0076332,-56.5419846,-7.8320613,0.0790083,1.7525467,10.3788109,0.2442748,-3.3969467,-3.1755726
6560,-19.6131992,6.3422079,-6.3158717,-99.9083939,-5.4274807,127.9618301,0.0861908,1.8052188,10.4745789,-0.5648855,-3.5343511,-2.5572519
6570,-19.6131992,5.0397687,-5.1546898,-154.7938995,41.9618340,250.1297760,0.1628049,1.7238164,10.4769726,-1.5343511,-5.4045801,-2.8854961
6580,-18.4639893,3.4141142,-3.8761928,-201.4732819,85.6183243,250.1297760,0.2274480,1.5634058,10.5511932,-2.3893130,-6.4656487,-3.0152671
6590,-14.8655224,1.9225341,-3.1028695,-241.0152740,116.6946564,250.1297760,0.2298422,1.4341195,10.5224628,-2.6412213,-5.0763359,-3.4503818
6600,-10.3692341,0.4453192,-2.4301023,-250.1374054,134.0686951,250.1297760,0.1867468,1.4149660,10.6589317,-2.3435113,-4.9847326,-3.8473282
6610,-6.3230543,-1.3790531,-1.3000449,-250.1374054,133.7786255,250.1297760,-0.0335187,1.3766589,10.7594872,-2.0458016,-4.1221375,-3.3282442
6620,-2.2840567,-3.3111639,0.5698171,-250.1374054,127.6717529,250.1297760,-0.0933734,1.3072275,10.7618818,-1.1679389,-4.1221375,-3.2824428
6630,0.3303981,-5.2145448,3.2249732,-250.1374054,124.7251892,250.1297760,-0.1771700,1.3383518,10.8001890,-0.3282443,-4.0763359,-2.6870229
6640,3.6559272,-6.8425937,6.4858594,-250.1374054,117.7099228,250.1297760,-0.2489957,1.2952565,10.7259684,0.2290076,-3.8244274,-2.0076337
6650,9.4809904,-7.6087341,10.9175043,-250.1374054,103.3053436,250.1297760,-0.1843526,1.3215926,10.6158361,0.7633588,-2.6106870,-1.7633588
6660,15.0283270,-6.3278427,15.7657375,-250.1374054,106.1068726,250.1297760,-0.3136388,1.3622938,10.7020273,1.4427481,-2.7099237,-1.4809160
6670,19.4264526,-4.6902170,19.6126022,-208.2442780,132.4809113,250.1297760,-0.2801202,1.4341195,10.6613255,1.6335878,-2.6641221,-1.2977099
6680,19.6126022,-2.2505381,19.6126022,-109.3893127,129.3053436,246.4122162,-0.1819584,1.5107336,10.5296450,1.7480916,-3.6641221,-0.9236641
6690,19.6126022,-2.1068866,19.6126022,6.2213740,99.8625946,111.9083939,-0.1843526,1.5538290,10.5080976,1.3206106,-4.2061067,-0.4961832
6700,19.6126022,-2.2505381,19.6126022,113.1145020,60.4885483,-22.6259537,0.0215477,1.6160779,10.4338779,0.8167939,-4.5038166,-0.9160305
6710,14.9062233,-2.5761478,17.1447906,199.6641235,0.0610687,-132.9923706,0.1053443,1.6304430,10.4434547,0.1450382,-4.6259542,-1.1603054
6720,10.7954006,-2.1619530,13.5726604,250.1297760,-62.3664131,-210.9313049,0.1197095,1.6400198,10.4362717,-0.5648855,-4.9083967,-1.7862595
6730,7.7667508,-0.9217629,10.5344334,250.1297760,-99.7862625,-250.1374054,0.2154770,1.6112895,10.5104914,-0.8625954,-4.9618320,-2.5648854
6740,5.4395986,1.2377959,7.4602942,250.1297760,-106.6488571,-250.1374054,0.2729376,1.5993185,10.5918941,-0.9007633,-5.1145039,-3.3206108
6750,3.1315999,4.0318151,4.5202298,250.1297760,-98.5419846,-239.8396912,0.2106887,1.5921360,10.6134415,-0.8854962,-4.5114503,-4.0076337
6760,2.4181314,6.3039007,1.6112895,250.1297760,-53.2137413,-203.1908417,0.2394189,1.6017127,10.6182299,-0.9007633,-4.2595420,-4.1297708
6770,3.7804251,9.2367830,-1.5250987,250.1297760,-27.5038166,-171.5648804,0.1747758,1.5753766,10.6349897,-0.8396947,-4.3282442,-3.8778627
6780,5.0517397,11.5112629,-3.8235207,250.1297760,-28.7022896,-168.0458069,0.0215477,1.4293311,10.5607700,-0.9160305,-4.1679387,-5.0000000
6790,5.6407104,11.7099810,-5.3366485,245.9923706,-32.2137413,-200.3664093,0.0095768,1.4628497,10.6469603,-1.0610687,-4.0076337,-3.6412213
6800,3.3518653,10.6565371,-5.6981707,190.4351196,-46.0076332,-237.8015289,-0.0263361,1.4796091,10.6230183,-0.8167939,-3.8778627,-3.5343511
6810,1.9249283,10.0101061,-4.8099265,136.2900696,-55.9160309,-250.1374054,-0.0598547,1.4891858,10.6732969,-0.5954198,-3.7709923,-3.4122138
6820,0.1077385,9.5288744,-2.6910689,109.3358765,-64.4274826,-250.1374054,-0.0718257,1.3862357,10.6780853,-0.0763359,-3.5572519,-3.1297710
6830,-2.4109488,8.7028790,-1.4389079,109.0076370,-65.6412201,-250.1374054,-0.0311245,1.4700323,10.7379398,0.5190840,-3.7404580,-3.7251909
6840,-6.2248926,7.9678626,-1.2593436,120.6564865,-70.6641235,-250.1374054,0.0287303,1.4676381,10.7427282,1.1450381,-3.5038168,-3.3664122
6850,-9.3133974,7.6997132,-2.3032103,128.3053436,-86.3053436,-250.1374054,-0.0167593,1.6256547,10.6756907,1.7328244,-3.0534351,-2.4809160
6860,-11.8919392,7.9558916,-4.7788019,122.8396912,-110.4351120,-211.0686951,0.0646431,1.6017127,10.6565371,2.3053436,-2.5725191,-2.3587787
6870,-14.3962612,9.0404596,-7.1777802,103.0076370,-134.1068726,-147.3511505,0.1388630,1.6879035,10.6613255,2.7328243,-2.4045801,-2.2442749
6880,-14.5375185,9.6102762,-9.0141230,66.1603088,-144.0915985,-84.5038147,0.1508339,1.7046629,10.5679522,2.7862597,-2.1832061,-2.7709923
6890,-14.6859579,9.9454632,-9.7730818,17.7557259,-132.8931274,-15.7251911,0.2322364,1.7118455,10.4578199,2.6870229,-2.2748091,-2.7709923
6900,-12.4497852,10.0364418,-9.9957409,-32.3893127,-104.1755753,62.7709923,0.2059003,1.8076130,10.4745789,2.1832061,-2.4885497,-3.9007633
6910,-9.3397331,9.7946291,-9.0332766,-86.5801544,-80.8167953,131.8702240,0.2130829,1.7381816,10.4243011,1.5648855,-2.7709923,-4.1679387
6920,-7.5153608,8.8489246,-7.0676475,-134.8854980,-56.3435097,184.2900696,0.1891410,1.7381816,10.5559816,1.2595420,-3.2061069,-4.6412215
6930,-5.9806852,7.2663651,-4.8961172,-176.3511505,-33.5725174,228.9618378,0.1891410,1.7214222,10.4410601,0.6946565,-3.4274809,-4.6259542
6940,-4.4005203,5.8130918,-3.1196289,-207.9847260,-12.6106873,250.1297760,0.0766141,1.6926919,10.5368280,0.3053435,-3.5572519,-5.6870227
6950,-1.3934183,4.6399393,-0.3782819,-224.8931274,1.4122137,250.1297760,-0.0143651,1.6735384,10.4243011,-0.1297710,-3.3358779,-4.7938933
6960,1.2545552,3.2944047,1.7740943,-226.5114441,7.9923663,250.1297760,0.0119709,1.4987626,10.4745789,-0.6106870,-4.5572519,-4.4732823
6970,5.5210009,2.2816625,4.1778607,-214.5801544,0.5496183,250.1297760,0.0670373,1.5562232,10.5104914,-1.0534351,-5.1450381,-4.9465647
6980,9.2367830,2.8275378,8.3892403,-181.7709961,2.1145039,250.1297760,-0.0071826,1.4556671,10.5152798,-1.3587786,-3.8854961,-4.8244276
6990,-4.3023586,3.9049230,-4.1802549,149.7328186,57.1832047,-250.1374054,0.0718257,1.6711442,10.4937325,0.8091603,-1.6106870,-3.1526718
7000,-9.5025377,3.4596038,-5.0708933,138.4732819,17.0916023,-250.1374054,-0.1005560,1.6998745,10.5320396,0.4198473,-3.1679389,-2.6335878
7010,-16.1607780,3.0789278,-6.1554613,127.6335907,-28.6870232,-250.1374054,-0.0742199,1.6831152,10.4985209,-0.2519084,-3.9389312,-2.3129771
7020,-19.6131992,3.3925664,-6.6319046,112.0305328,-77.8244247,-237.2671814,-0.1915352,1.5969244,10.4290895,-0.9694657,-4.3053436,-1.7404580
7030,-19.6131992,4.7979555,-7.7068958,84.9312973,-98.3282471,-155.2061005,-0.1580165,1.4748207,10.5631638,-1.2671756,-4.3969464,-0.6793893
7040,-19.6131992,5.7532372,-8.5592270,36.1221390,-75.8473282,-65.2748108,-0.2418131,1.4604555,10.6086531,-1.2137405,-4.8396945,-0.7404580
7050,-19.6131992,5.7364779,-8.8944139,-30.2137413,-33.9618340,33.8244286,-0.1795642,1.4532729,10.6852674,-0.9465649,-5.0687022,-0.1068702
7060,-19.6131992,5.6766233,-8.7794924,-98.6030502,16.0916023,141.2061005,-0.1795642,1.4772149,10.6206245,-0.4885496,-4.8167939,0.3129771
7070,-18.4759598,5.3917146,-8.0684185,-161.8625946,64.6870193,240.4122162,-0.0837966,1.4604555,10.7211800,-0.0763359,-4.2748094,0.9312977
7080,-14.6404686,4.9511838,-6.6630292,-215.1679382,106.7480927,250.1297760,0.0119709,1.5059452,10.7139978,0.3893130,-4.2061067,0.8473282
7090,-10.9653873,4.3478479,-5.3677726,-250.1374054,131.5801544,250.1297760,0.1244979,1.4939742,10.6541433,0.4809160,-4.0076337,1.2977099
7100,-7.2927012,3.2991931,-4.1563129,-250.1374054,148.7709961,250.1297760,0.2801202,1.5011568,10.5272512,0.9083970,-2.2061069,1.3893130
7110,-4.2137733,2.1619530,-2.2768741,-250.1374054,159.9618378,250.1297760,0.0933734,1.5753766,10.7475166,1.1450381,-0.1068702,1.4961832
7120,-0.8092360,0.5769997,-0.1460456,-250.1374054,159.0992432,250.1297760,0.0191535,1.5466464,10.7163916,1.1526718,-2.5038168,-0.4351145
7130,2.7628946,-0.5315101,2.3151813,-250.1374054,155.1374054,250.1297760,0.1053443,1.6208663,10.6302013,2.0916030,-4.1374044,-0.7099237
7140,7.3812861,-1.1755470,5.9280128,-250.1374054,158.5114441,250.1297760,0.0502780,1.6448082,10.5583754,2.1145039,-2.8931298,-1.7251909
7150,13.0722742,-0.6871324,10.7403336,-250.1374054,175.7480927,250.1297760,0.1077385,1.6328372,10.4769726,1.5419847,-2.6641221,-1.4885496
7160,17.7409439,0.7781116,16.8766422,-196.2977142,205.6717529,250.1297760,0.0335187,1.6687500,10.5511932,1.1450381,-3.4198472,-1.8015267
7170,19.5389805,2.3654592,19.6126022,-95.1374054,233.1908417,208.5496216,0.0574605,1.7070571,10.5200682,0.7022901,-3.1221373,-2.6717558
7180,18.0617657,2.6048782,19.6126022,18.6259537,213.1755676,104.5343475,0.1005560,1.7717001,10.4985209,0.5114504,-3.8473282,-2.3435113
7190,14.4537220,2.6503677,19.6126022,135.5419922,137.5801544,5.6183205,0.1795642,1.8124014,10.5176744,0.2595420,-3.4580152,-3.0916030
7200,10.7211800,2.7581062,19.6126022,235.0000000,37.6183205,-72.0687027,0.1699875,1.6998745,10.6756907,0.3511450,-3.3511450,-3.0000000
7210,8.4083929,3.0406206,19.6126022,250.1297760,-55.0839691,-126.3358765,0.1987177,1.7429699,10.6278067,0.8702290,-3.1832061,-3.6564887
7220,7.8888540,3.0406206,14.8511572,250.1297760,-80.5114517,-160.3893127,0.1412572,1.7046629,10.5655584,0.7862595,-2.8091602,-3.8625953
7230,6.9814563,3.6439564,10.9007444,250.1297760,-58.0916023,-172.4274750,0.1197095,1.7094513,10.4506369,0.8167939,-2.4198472,-4.5496182
7240,5.4707227,4.2808108,6.5289545,250.1297760,-18.9007626,-169.3511505,0.0407012,1.6424140,10.4745789,-0.0152672,-3.2671757,-4.9236641
7250,2.7916248,5.3294659,2.8442972,250.1297760,-23.6106873,-150.7709961,-0.0095768,1.5969244,10.4650021,-0.8778626,-3.8167939,-4.5419846
7260,2.6623387,7.0365229,-0.9935886,250.1297760,-24.6870232,-133.6641235,-0.0454896,1.5131277,10.5320396,-1.0839695,-3.9312978,-4.4885497
7270,2.9520357,8.1498213,-3.4452386,250.1297760,6.3816795,-134.2671814,-0.0071826,1.5801650,10.6732969,-1.0763359,-3.8244274,-3.7022901
7280,2.8921809,7.9343438,-3.4428444,240.8931274,22.7175579,-153.6335907,-0.0981618,1.6400198,10.6876621,-0.4045801,-3.6183207,-3.1755726
7290,1.6472024,7.2855186,-3.1603301,231.5190887,28.7862587,-179.1068726,0.0071826,1.5945302,10.9438400,0.8778626,-3.0610688,-2.5419848
7300,-0.7062859,6.0980005,-3.4093258,235.2977142,15.3740454,-188.0000000,0.0670373,1.6519908,10.7427282,1.7480916,-2.4656489,-2.7938931
7310,-3.5960727,5.2289100,-5.0373745,245.5801544,12.7938929,-189.4274750,0.0814024,1.7214222,10.7235746,2.9847329,-1.6335878,-3.0381680
7320,-7.4986014,4.9775200,-7.4171991,249.2213745,14.8854961,-174.8244324,0.1628049,1.7453641,10.7235746,4.2671757,-1.2290076,-3.1832061
7330,-11.7674408,5.5042415,-10.5033092,228.5572510,15.8625956,-138.6030579,0.1747758,1.7525467,10.6565371,4.5267177,-2.0534351,-4.0839696
7340,-15.0115681,5.7771792,-13.9700956,186.3053436,40.4732819,-80.7251892,0.3399749,1.7884595,10.5057030,3.6793892,-3.8167939,-4.4351144
7350,-16.7808743,5.9328012,-16.4289284,125.5114517,87.3206100,-10.5648851,0.1819584,1.8866212,10.4602137,2.5725191,-2.2213740,-4.9694657
7360,-17.2357693,6.5648675,-18.5717278,48.5038185,128.9618378,64.6335907,0.1675933,1.7860653,10.3788109,1.6946565,-2.2900763,-5.1984735
7370,-15.1240950,6.7085190,-19.6131992,-31.9618320,130.0992432,123.9083939,-0.1077385,1.7286048,10.4027529,1.1450381,-2.7938931,-5.0305343
7380,-11.9039097,6.5098009,-17.8822002,-102.4580154,92.1450348,160.0229034,-0.0526722,1.6831152,10.3692341,0.3893130,-2.2671757,-5.3358779
7390,-8.4634600,5.7245069,-14.6811695,-154.2061005,43.4809151,185.2366486,-0.3375807,1.6136837,10.4410601,-0.8931298,-2.6106870,-4.4122138
7400,-5.6239510,4.8649931,-12.5000629,-190.4274750,-5.4198475,207.1984711,-0.3232156,1.5155219,10.4338779,-1.5877863,-3.7022901,-3.5648854
7410,-2.2289903,4.7117648,-10.3620520,-222.6946564,-26.0000000,227.7022858,-0.4165890,1.4029950,10.4027529,-2.1068702,-4.1908398,-4.3053436
7420,1.1300575,4.8314743,-8.9446917,-250.1374054,29.9618320,240.4122162,-0.5147507,1.2928623,10.5176744,-2.4274809,-4.5114503,-2.9923663
7430,3.2872221,3.2010312,-5.4252334,-250.1374054,127.4198456,244.2213745,-0.6512195,1.3718705,10.5176744,-2.4580152,-4.3129773,-2.7404580
7440,4.9224534,3.2273674,-2.2481439,-250.1374054,163.5801544,243.2519073,-0.6536137,1.3982066,10.6325951,-2.1832061,-5.4045801,-1.6793894
7450,7.2759418,3.0573800,0.5123565,-250.1374054,135.4961853,226.8931274,-0.5554519,1.3766589,10.7403336,-1.8320611,-6.4503818,-0.1526718
7460,11.5160513,3.0980811,7.5871863,-250.1374054,48.8091621,189.3053436,-0.4405309,1.3431402,10.6469603,-1.8702290,-6.2442746,1.0763359
7470,17.5925045,6.1578555,15.4904060,-203.8015289,-97.0763321,121.6793900,-0.3423691,1.3503228,10.5966825,-1.2061069,-5.9618320,1.7480916
7480,19.6126022,9.5623922,19.5126438,-105.1832047,-217.8702240,18.2824421,-0.1221037,1.3766589,10.6828737,-0.3435115,-5.0916033,1.9618320
7490,19.6126022,9.7467451,19.6126022,-18.2671757,-250.1374054,-87.5496216,-0.0239419,1.4077834,10.6517487,0.4580153,-4.1526718,1.8625954
7500,18.9260674,8.6837254,19.6126022,55.1755714,-250.1374054,-159.8244324,0.0215477,1.6184721,10.6445665,-0.1221374,-4.2290077,1.9007634
7510,14.7697544,7.3190370,17.0969067,116.4427490,-249.7099304,-199.9694672,0.0670373,1.5969244,10.6732969,0.4198473,-3.9847329,2.0763359
7520,-19.6131992,6.0405402,-17.2285881,-70.6030502,-31.9465656,30.2824421,-0.2130829,1.7525467,10.3883877,-4.6717558,-5.5648856,-7.5343513
7530,-19.6131992,5.0254035,-14.1065645,-153.4045868,49.8931313,122.5877838,-0.2226596,1.7333932,10.5942879,-4.8396945,-6.7099237,-7.3053436
7540,-19.6131992,3.7157819,-9.8616667,-205.2213745,81.9160309,207.8015289,-0.2489957,1.5490406,10.6421719,-4.2977099,-6.6259542,-6.6412215
7550,-16.3020363,2.7940190,-6.4331870,-231.6335907,87.3206100,250.1297760,-0.2801202,1.4748207,10.8217363,-3.3053436,-5.8778625,-6.5114503
7560,-11.2359314,2.2002602,-3.6056492,-245.2748108,83.8778610,250.1297760,-0.3112446,1.5107336,10.7331514,-1.9694656,-4.7480917,-5.8320613
7570,-6.8952656,1.6759326,-1.4628497,-249.3206177,98.1450348,250.1297760,-0.3639168,1.3814473,10.8193426,-0.0916031,-3.4274809,-5.1068702
7580,-2.6072724,1.3431402,1.2545552,-241.7404633,83.9083939,250.1297760,-0.4022238,1.4365137,10.7762470,0.8396947,-2.2977099,-3.7480917
7590,3.9671719,2.0781565,4.8003497,-210.3893127,24.0992374,250.1297760,-0.5339043,1.3790531,10.7092094,1.1068702,-2.4885497,-2.5801528
7600,10.6397781,4.3646073,8.5592270,-158.0610657,-76.5725174,250.1297760,-0.5578461,1.4077834,10.5823174,1.0381680,-2.6259542,-1.6641221
7610,19.0361996,7.7835097,12.4114780,-82.4198456,-162.4198456,200.2213745,-0.5291159,1.3862357,10.5918941,1.3282443,-2.9770992,-0.8702290
7620,19.6126022,10.6182299,13.3069048,-0.7633588,-202.8244324,94.8549652,-0.3782819,1.3886299,10.5631638,1.5114504,-3.4656489,-0.4351145
7630,19.6126022,12.2031832,11.2263546,60.5190849,-214.2290039,-17.6564884,-0.3734936,1.4508789,10.5775290,1.1755725,-3.8778627,0.4122137
7640,19.6126022,12.0236197,7.0628591,90.8244247,-206.4809113,-125.3435135,-0.2561783,1.5634058,10.6014709,1.0839695,-4.1221375,1.3206106
7650,19.0601425,10.6613255,4.5705075,100.2137375,-211.0152740,-207.2595367,-0.0885850,1.6184721,10.6158361,1.4198474,-3.9465649,1.0992366
7660,14.1496601,9.1888990,2.3463056,101.4351120,-233.4580078,-250.1374054,-0.0933734,1.6280488,10.6373835,2.4809160,-3.3282442,0.7175573
7670,10.1705170,8.6645718,0.1197095,99.6030502,-236.7938995,-250.1374054,0.0646431,1.7405758,10.5296450,3.1603053,-2.6717558,0.4427481
7680,7.2855186,8.6430235,-1.7956421,90.5801544,-208.1068726,-250.1374054,0.0239419,1.7980363,10.4721851,2.2290077,-2.6870229,1.0916030
7690,4.5034704,8.2503767,-3.3279233,76.8473282,-149.3358765,-250.1374054,0.0526722,1.7836711,10.3428984,1.3664122,-3.0076337,0.8778626
7700,1.2521610,7.7763271,-4.1084290,58.1145020,-89.1068726,-250.1374054,0.0742199,1.8554969,10.2974091,0.4656489,-3.7404580,0.0305344
7710,-1.1731528,6.7731619,-4.3334827,34.0916023,-45.3969460,-250.1374054,0.0694315,1.8171898,10.4075413,-0.4045801,-4.2137403,-0.1297710
7720,-4.1706781,5.2504573,-3.6966286,13.0152674,-33.5343513,-250.1374054,0.1244979,2.0566087,10.2614956,-2.1374047,-4.6030536,-0.4809160
7730,-7.2256637,3.7636659,-2.7796540,0.9770992,-34.5114517,-250.1374054,0.1173153,1.8076130,10.3476868,-2.7786260,-5.0152674,0.0534351
7740,-10.4171181,2.5186872,-2.1116750,-2.3206108,-39.0916023,-250.1374054,-0.0287303,1.6926919,10.6685085,-3.3435113,-6.3664122,-0.0763359
7750,-14.2047262,1.7740943,-1.4939742,-4.7175574,-47.6412201,-247.2748108,0.0837966,1.6400198,10.8097658,-2.3358779,-5.3206105,-0.1450382
7760,-16.9580441,2.0183017,-1.0606259,-11.0687027,-51.8854980,-196.5267181,0.1197095,1.5777708,10.7475166,-1.6870229,-4.8549619,-1.1145039
7770,-19.6131992,2.4253139,-1.1372399,-25.4122143,-30.7862587,-134.9923706,0.0311245,1.5370697,10.6996326,-0.9160305,-3.9770992,-1.4732825
7780,-19.6131992,2.4612267,-0.4333483,-40.5725174,3.9007633,-54.7251892,0.0000000,1.5945302,10.6996326,-0.4351145,-3.4427481,-1.5801526
7790,-19.6131992,2.5546002,0.0742199,-48.8473282,40.9312973,35.2290077,0.0191535,1.5466464,10.6756907,0.7786260,-3.1526718,-1.8625954
7800,-19.6131992,2.5713594,-0.0861908,-51.7099228,80.1603088,120.4885483,0.0167593,1.5610116,10.6230183,1.3053435,-2.7709923,-2.3358779
7810,-18.2102051,2.8323262,-0.8379663,-57.1297722,108.3053436,192.3206177,0.0119709,1.5203103,10.5535870,1.7938931,-2.7404580,-2.8778627
7820,-15.1911325,2.9616125,-1.6088953,-69.4198456,130.7862549,249.7862549,-0.0885850,1.6615674,10.6230183,2.1374047,-1.9465649,-2.5572519
7830,-11.8895445,3.3542595,-1.6519908,-82.8167953,154.5725250,250.1297760,-0.0215477,1.6974803,10.4769726,1.8091604,-2.2442749,-2.5725191
7840,-9.3086090,3.2537034,-1.4245427,-94.6717529,165.2671814,250.1297760,0.0335187,1.7046629,10.5248566,1.3435115,-2.6412213,-2.9770992
7850,-6.9718795,3.0813217,-0.8690908,-101.8320618,162.4809113,250.1297760,0.0335187,1.7477583,10.5607700,1.0763359,-2.9923663,-2.9847329
7860,-4.4651632,3.0717452,0.0191535,-102.3587799,149.0152740,250.1297760,0.0359128,1.7621235,10.5128860,0.6335878,-3.0076337,-3.9465649
7870,-1.4891858,2.8706331,0.9241571,-96.7480927,130.0915985,250.1297760,0.0622489,1.7645177,10.5200682,0.1145038,-3.6870229,-3.9694657
7880,1.7645177,3.0358322,2.2313845,-85.3969498,108.0457993,250.1297760,0.0909792,1.8171898,10.4793673,-0.3358779,-3.8244274,-4.3053436
7890,6.3876977,4.1275826,3.6774750,-63.1679382,72.4198456,250.1297760,0.0766141,1.8076130,10.4434547,-0.5572519,-3.8854961,-3.8320611
7900,12.0020714,6.3829093,4.2975702,-35.0687027,30.8931293,250.1297760,0.1436514,1.8076130,10.5392218,-0.9770992,-4.2519083,-4.7709923
7910,17.4392757,9.3756456,4.1156116,-9.6793890,7.6335878,238.5190887,0.0957676,1.7286048,10.5200682,-0.6641222,-4.4427481,-5.0152674
7920,19.6126022,11.8272963,4.1180058,11.0458012,-11.7251911,149.8549652,0.0430954,1.7094513,10.5464048,-0.8396947,-4.2137403,-5.1984735
7930,19.6126022,13.1680422,4.2879934,34.0000000,-38.9465637,49.2519073,-0.0598547,1.7046629,10.5272512,-0.8778626,-4.5496182,-5.4809160
7940,19.6126022,13.3523941,3.9408360,58.7786255,-68.6335907,-55.5267181,-0.1364688,1.6304430,10.5176744,-0.8778626,-4.1908398,-4.9389315
7950,19.1535149,12.2055779,3.2441268,80.0916061,-101.6183243,-146.6641235,-0.1556223,1.5897418,10.5583754,-1.1603054,-4.4732823,-4.3053436
7960,15.1240950,10.6828737,2.6695213,97.4809189,-123.6946564,-219.9313049,-0.1987177,1.5418580,10.4578199,-1.3587786,-4.3053436,-4.4503818
7970,11.2383251,9.6916790,1.6208663,109.4961853,-132.9465637,-250.1374054,-0.1963235,1.4484847,10.4745789,-1.6106870,-4.5496182,-4.4732823
7980,7.0508881,8.8872309,0.3782819,115.0763321,-120.8549652,-250.1374054,-0.2489957,1.4556671,10.5751352,-2.0763359,-4.8778625,-4.0763359
7990,3.5242469,8.1977043,-0.8810617,115.6183243,-101.8015289,-250.1374054,-0.2466015,1.3838415,10.5966825,-2.3358779,-5.0152674,-3.3435113
8000,0.5339043,7.2783360,-2.3223639,109.7175598,-86.6641235,-250.1374054,-0.2513899,1.4796091,10.6948442,-2.1374047,-4.9694657,-3.3358779
8010,-2.0494261,6.2368636,-3.5649481,99.5038147,-87.0305328,-250.1374054,-0.2035061,1.4748207,10.7858238,-1.3358779,-4.5725193,-2.9160306
8020,-4.3358769,5.2887645,-4.1299767,85.7480927,-94.8702316,-250.1374054,-0.1819584,1.5490406,10.8121595,0.3511450,-3.8015268,-3.2671757
8030,-6.7204900,4.5752959,-4.2401094,71.0457993,-102.5496216,-250.1374054,-0.0766141,1.5753766,10.7499104,1.7633588,-3.0610688,-3.2900763
8040,-8.9782104,3.9049230,-3.8330972,55.3358765,-100.4961853,-250.1374054,-0.0215477,1.6950861,10.7092094,2.0534351,-2.5343511,-3.1374047
8050,-11.6453371,3.3734128,-2.9472473,41.1679382,-89.8702316,-250.1374054,0.0454896,1.6902977,10.5655584,2.0458016,-2.2290077,-3.5114503
8060,-14.5925846,2.8514795,-1.9033806,28.7862587,-75.6717529,-243.6030579,0.0239419,1.7453641,10.4266949,1.8778626,-2.4198472,-3.4274809
8070,-18.1766872,2.5138988,-1.1037214,18.1908398,-49.4656487,-186.5572510,0.1005560,1.8315549,10.4458485,0.9389313,-2.9083970,-4.3893127
8080,-19.6131992,1.6184721,-0.5626345,11.8702288,-20.8320618,-110.2366409,0.0263361,1.8291607,10.4506369,0.0381679,-3.5801528,-4.2290077
8090,-19.6131992,1.3431402,-0.6919208,7.0992365,-9.6335878,-19.0610695,-0.0790083,1.8171898,10.4171181,-1.5877863,-4.1450381,-3.7862597
8100,-19.6131992,1.1396341,-1.8770446,-0.3816794,2.9160306,79.5343475,-0.0837966,1.7357874,10.4266949,-2.0534351,-4.5190840,-3.8854961
8110,-19.6131992,1.9943599,-3.8115497,-24.0992374,50.3969460,176.3358765,-0.1508339,1.7621235,10.5176744,-2.6030533,-5.0076337,-3.0381680
8120,-16.5582142,2.4875629,-5.1235652,-61.3740463,105.8625946,250.1297760,-0.2106887,1.6639616,10.5679522,-2.5954199,-5.2824426,-2.5648854
8130,-13.1656475,2.5641768,-6.0357518,-112.1908417,173.0610657,250.1297760,-0.2609667,1.5322813,10.6661139,-2.4351146,-4.9923663,-1.8854961
8140,-10.3692341,2.4827745,-5.4635406,-161.9923706,229.2977142,250.1297760,-0.2418131,1.5610116,10.6685085,-1.8396946,-4.5648856,-0.8931298
8150,-8.1115141,2.0374553,-4.1850433,-205.2977142,250.1297760,250.1297760,-0.2130829,1.4700323,10.7475166,-1.0992366,-4.2213740,-0.7175573
8160,-5.8585815,1.2066715,-3.0597742,-240.6259613,250.1297760,250.1297760,-0.1915352,1.4700323,10.8001890,0.3206107,-3.5419848,-0.2061069
8170,-2.8969693,0.4070122,-1.5538290,-250.1374054,250.1297760,250.1297760,-0.1532281,1.4843974,10.6900558,0.7251908,-3.2595420,-0.1374046
8180,0.5362985,-0.3591284,0.0957676,-250.1374054,250.1297760,250.1297760,-0.1699875,1.5298871,10.5918941,1.1450381,-3.1679389,-0.1145038
8190,5.0421629,-0.2920911,3.2249732,-250.1374054,250.1297760,250.1297760,-0.0550664,1.4772149,10.5799236,1.1908396,-3.0763359,-0.7633588
8200,12.0954447,1.9201399,6.9263902,-250.1374054,221.5877838,250.1297760,-0.1005560,1.5370697,10.5344334,1.4427481,-3.2595420,-1.2137405
8210,19.6126022,6.3350253,11.8033543,-221.3053436,136.7404633,250.1297760,-0.0359128,1.6304430,10.3716288,0.7633588,-3.4198472,-1.3358779
8220,19.6126022,10.5128860,16.3092194,-133.6030579,39.6793900,186.1832123,-0.0598547,1.6735384,10.5559816,0.0152672,-3.9236641,-0.7099237
8230,19.6126022,11.5136566,17.6595421,-32.7862587,-34.4351158,18.7557259,-0.0263361,1.7549409,10.5104914,-0.6488550,-4.5038166,-0.9465649
8240,19.6126022,10.3141680,16.8359394,62.6259537,-116.7022934,-128.2442780,-0.0407012,1.7549409,10.5152798,-0.6946565,-4.5114503,-1.1297710
8250,18.7201672,8.2288294,13.7737722,138.6870270,-201.6030579,-230.7404633,0.1412572,1.7453641,10.5248566,-0.8320611,-4.4351144,-1.7862595
8260,13.5439301,6.3182659,10.3213511,195.6488495,-233.2290039,-250.1374054,0.1125269,1.7764885,10.6110477,-0.7251908,-4.1679387,-2.4351146
8270,8.8441362,5.9328012,7.6853480,236.6564941,-221.7022858,-250.1374054,0.1580165,1.8004304,10.5440102,-0.7175573,-4.4122138,-2.8931298
8280,5.3414369,6.1003947,4.5441718,250.1297760,-196.2213745,-250.1374054,0.1651991,1.7573351,10.5248566,-0.4045801,-4.3358779,-3.5954199
8290,2.2289903,6.0572991,0.4932030,250.1297760,-156.0381622,-250.1374054,0.0861908,1.7453641,10.4554253,-1.0305344,-4.8091602,-4.4809160
8300,-0.1532281,6.2392578,-2.5713594,239.2442780,-118.1755753,-250.1374054,0.0383070,1.6639616,10.3620520,-2.1068702,-5.1526718,-4.7862597
8310,-2.1835008,6.0357518,-4.4795284,201.6335907,-98.8931274,-250.1374054,-0.0622489,1.6591733,10.4123297,-2.8091602,-5.6106873,-4.8778625
8320,-3.8594334,5.5832496,-5.0852585,158.2137451,-89.8931274,-250.1374054,-0.2154770,1.5179161,10.5727406,-3.5419848,-6.1068702,-4.9541984
8330,-6.2153158,5.2289100,-4.8195033,123.1297684,-87.7251892,-250.1374054,-0.1963235,1.4436963,10.5464048,-4.2366414,-6.2595420,-4.0381680
8340,-9.2942438,4.5633249,-4.7285242,97.0763321,-80.7709961,-250.1374054,-0.3064562,1.3191984,10.5918941,-4.3358779,-6.0305343,-3.4427481
8350,-12.4090843,3.7301471,-4.7428894,77.5954208,-68.3358765,-250.1374054,-0.2418131,1.2521610,10.6589317,-3.7099237,-5.7099237,-3.6335878
8360,-14.7553892,3.8450682,-5.5186067,60.6183205,-48.3969460,-199.3511505,-0.1364688,1.1539993,10.8624372,-2.0839694,-4.7862597,-4.0152674
8370,-17.8726234,3.8522508,-6.9886389,35.8778610,-14.9770994,-122.5496216,-0.1580165,1.2425843,11.0132713,-0.4122137,-4.1221375,-3.7480917
8380,-19.6131992,3.3901722,-8.3533268,1.1832061,11.3664122,-29.0763359,-0.0909792,1.4053892,10.8959560,0.9618320,-3.2900763,-3.4503818
8390,-19.3977222,3.6774750,-9.7850523,-39.9312973,32.4885483,65.9083939,-0.1077385,1.4676381,10.8839855,2.2748091,-2.5267177,-3.1984732
8400,-17.2118282,4.4484038,-10.6685085,-87.7404556,77.3358765,153.9236603,-0.0095768,1.5681942,10.8432837,3.3587787,-1.5419847,-3.6641221
8410,-14.1017761,4.9463954,-10.5703468,-148.6106873,140.0534363,234.1145020,0.1939293,1.6759326,10.7499104,4.4351144,-1.2290076,-4.2442746
8420,-11.6046362,4.5633249,-9.0572186,-214.6183167,206.9007568,250.1297760,0.1436514,1.8890154,10.3788109,4.1068702,-1.4656489,-4.6183205
8430,-9.6797075,3.6415622,-6.3541789,-250.1374054,250.1297760,250.1297760,0.1915352,1.9608412,10.3596573,3.3358779,-1.7786260,-3.8091602
8440,-8.0971489,2.6551561,-4.0150557,-250.1374054,250.1297760,250.1297760,0.1747758,2.0302727,10.1705170,1.7404580,-2.1450381,-4.2519083
8450,-5.9016771,1.5250987,-1.2377959,-250.1374054,250.1297760,250.1297760,0.2681492,1.9249283,10.2974091,0.8931298,-3.5114503,-5.4503818
8460,-2.8323262,0.4788379,1.5849534,-250.1374054,250.1297760,250.1297760,0.2489957,1.9440818,10.2207947,-1.4885496,-4.3129773,-5.8625956
8470,2.2840567,0.4261657,5.3174949,-250.1374054,197.8396912,250.1297760,0.1029501,1.8722562,10.1250277,-3.8396947,-5.4580154,-6.0763359
8480,9.6414013,2.1906834,9.5145092,-250.1374054,73.6564865,250.1297760,0.0718257,1.7453641,10.2255831,-5.9770994,-5.4885497,-6.0534353
8490,18.8925495,6.9551206,14.2095146,-172.6564941,-53.3893127,225.9236603,-0.0167593,1.6017127,10.5152798,-6.5648856,-6.9007635,-6.7480917
8500,19.6126022,10.8049774,17.4105453,-51.3129768,-136.1221313,71.8244247,-0.0311245,1.4269369,10.6469603,-6.3511453,-7.0763359,-7.3587785
8510,19.6126022,11.4131012,17.9803619,58.8396950,-179.4732819,-81.2366409,-0.2681492,1.4269369,10.6900558,-5.9618320,-5.8396945,-6.4351144
8520,19.6126022,10.4650021,16.2685165,146.2977142,-218.1908417,-206.9694672,-0.3734936,1.3527170,10.8049774,-5.3511453,-4.8091602,-5.1908398
8530,14.4417505,8.6837254,12.3348637,207.4885559,-240.6106873,-250.1374054,-0.3040621,1.2497669,10.7475166,-4.5190840,-5.2900763,-3.8320611
8540,9.3660688,7.5297260,7.3357964,245.7251892,-212.9541931,-250.1374054,-0.3687052,1.2162483,10.7403336,-3.0916030,-3.7480917,-3.5877862
8550,5.6095858,6.8138633,2.9951310,250.1297760,-173.4732819,-250.1374054,-0.4213773,1.2282192,10.7211800,-1.5190840,-2.6641221,-2.7404580
8560,2.1930776,6.3086891,-1.3191984,249.9160309,-135.1297760,-250.1374054,-0.3806761,1.2856797,10.8049774,-0.9160305,-3.2519083,-1.6564885
8570,-0.6464311,6.0764527,-4.3215117,217.0534363,-100.9083939,-250.1374054,-0.3136388,1.3790531,10.6804790,-0.6488550,-3.2900763,-0.8549618
8580,-2.7461352,5.4779053,-5.8729467,174.7251892,-58.4885483,-250.1374054,-0.3687052,1.5179161,10.5511932,-0.2824427,-3.8625953,-0.3129771
8590,-5.4731169,5.1977854,-5.6191626,139.4580078,-19.9618320,-250.1374054,-0.6200951,1.5514348,10.6373835,-0.3511450,-4.8778625,0.7862595
8600,-8.4514885,4.7165532,-5.7245069,115.4885483,-3.5267177,-240.9313049,-0.7757174,1.7597293,10.3357162,-1.2213740,-6.0916033,3.7480917
8610,-11.5878773,4.5872669,-6.2512288,94.6870193,0.8778626,-198.7099304,-0.7541697,2.0733681,10.2279778,-2.3129771,-7.1221375,6.7404580
8620,-14.3890781,4.2281384,-6.5098009,76.6717529,-1.5267175,-145.0000000,-0.7493813,1.8698620,10.2255831,-4.3358779,-9.4503813,11.0458012
8630,-15.7561607,4.4268565,-7.1322904,60.7022896,-2.7786260,-84.4122162,-0.3591284,1.8435259,10.1968527,-5.9236641,-10.3740454,12.3282442
8640,-16.1009235,5.0541339,-8.3054428,42.4885483,8.9618320,-21.7175579,-0.2059003,1.7717001,10.1202393,-8.1984730,-10.6259546,13.3435116
8650,-15.8399572,5.4635406,-8.9446917,16.0076332,36.7633591,40.5725174,0.0814024,1.5681942,10.2710724,-10.0152674,-12.9083967,13.3511448
8660,-14.7625723,5.7580256,-9.2487535,-22.5114498,78.6106873,105.4503784,0.2609667,1.4676381,10.4362717,-11.8091602,-14.5725193,12.3206110
8670,-13.0363617,5.9567432,-8.9877872,-70.7557220,122.5114517,165.0839691,0.4908088,1.3527170,10.6254129,-13.0763359,-14.9770994,10.6717558
8680,-10.7954006,6.0213866,-8.3796635,-119.7938919,158.3664093,207.4427490,0.8020535,1.0797794,10.8408899,-13.7251911,-18.4274807,7.7862597
8690,-9.1434097,6.0046272,-7.5680327,-163.4427490,184.1908417,237.0076294,1.0749911,0.9385223,11.0396080,-13.3664122,-22.6030540,3.2519083
8700,-7.8649125,5.6454988,-6.2991123,-197.8625946,200.0152740,250.1297760,1.0414724,0.9864060,11.0156660,-11.9618320,-23.3664131,-1.9847329
