timestamp,rxacclX,rxacclY,rxacclZ,rxgyroX,rxgyroY,rxgyroZ,txacclX,txacclY,txacclZ,txgyroX,txgyroY,txgyroZ
0,0.5291159,8.9686337,-7.6853480,-58.3511467,-166.5114441,-83.9694672,0.1364688,1.8961980,10.5344334,-1.9236641,-7.6259542,-2.5267177
10,-0.3112446,8.0420828,-7.5871863,-97.4885483,-125.5419846,-56.4351158,0.2944853,1.9033806,10.6182299,-3.2061069,-7.8167939,-1.2290076
20,-1.1659702,7.7906923,-7.5009956,-138.7862549,-74.2748108,-20.3816795,0.4716553,1.9297167,10.5464048,-3.8167939,-7.6183205,-0.2366412
30,-1.3263810,7.3214312,-6.6678176,-180.7175598,-19.5648861,14.8778629,0.6296718,1.8267666,10.4913378,-4.4961834,-7.0381680,-0.5572519
40,-1.6519908,6.3613615,-5.4539638,-223.5725250,26.1221371,49.1679382,0.6823440,1.8219782,10.3716288,-6.8778625,-5.5267177,-1.1221374
50,-1.6543850,5.6670465,-4.1658897,-250.1374054,59.0839691,79.5267181,0.7278336,1.6807210,10.3141680,-10.6564884,-3.7557251,-1.7557251
60,-1.5610116,4.8410511,-2.6958573,-250.1374054,80.5038147,108.4198456,0.7158626,1.4772149,10.4793673,-11.6030531,-5.0610685,-2.0916030
70,-0.2298422,3.4667864,-1.0414724,-250.1374054,87.8702316,131.9389343,0.6272776,1.4413021,10.5751352,-10.2290077,-7.3435116,-3.4198472
80,1.7908537,3.1962428,6.4499464,-250.1374054,56.6106873,142.0076294,0.7062859,1.4676381,10.8624372,-8.4503813,-8.0839691,-3.0152671
90,4.7333126,3.7828193,9.7802639,-250.1374054,-14.5877867,133.7557220,0.7374104,1.5179161,10.9079275,-6.7557254,-7.1526718,-3.1145039
100,9.3181858,4.7955613,14.8032732,-242.4656525,-93.0534363,107.8167953,0.6200951,1.5394639,10.9390516,-5.0305343,-5.8931298,-4.0916033
110,14.0514975,6.6151457,18.6507359,-148.7251892,-159.3587799,49.8244286,0.4357425,1.6208663,10.9725704,-3.1755726,-5.3816795,-4.0152674
120,17.6403885,7.7380204,19.6126022,-31.5038166,-167.6488495,-36.8473282,0.4333483,1.5562232,10.8480721,-0.9312977,-5.4503818,-2.9389312
130,17.9372673,7.3166428,18.8638191,85.3358765,-118.5038147,-136.5725250,0.4405309,1.5538290,10.6685085,0.9465649,-4.8244276,-2.3282442
140,13.6923695,6.1123657,13.6923695,176.1526642,-65.0534363,-218.1374054,0.5650287,1.5394639,10.6373835,2.6106870,-6.1908398,-1.2977099
150,8.6166878,5.1020179,8.6597834,233.6717529,-56.0992355,-250.1374054,0.7661406,1.4891858,10.5655584,3.5114503,-5.8625956,-1.8549619
160,4.9032998,4.1874375,4.7333126,250.1297760,-67.3053436,-250.1374054,0.8427547,1.5610116,10.6110477,4.0610685,-6.5648856,-2.2977099
170,1.9321109,3.4428444,1.5658000,250.1297760,-83.4656525,-250.1374054,0.9313397,1.5490406,10.5296450,4.4351144,-6.2137403,-2.6488550
180,-0.5769997,3.4045374,-0.4740495,250.1297760,-93.0916061,-250.1374054,0.9313397,1.6376256,10.6230183,4.2900763,-5.5877862,-3.7557251
190,-4.1299767,3.3901722,-2.4731977,250.1297760,-103.1832047,-250.1374054,0.9097920,1.6519908,10.5487986,3.7328243,-5.1145039,-4.3816795
200,-7.4890246,3.9312592,-5.0924411,250.1297760,-113.1755753,-250.1374054,0.8044477,1.6567791,10.5559816,2.7709923,-5.1679387,-4.9847326
210,-10.7187862,5.0254035,-7.7380204,233.7938995,-102.5725174,-250.1374054,0.8116302,1.6472024,10.3405046,1.8167939,-5.0839696,-4.8167939
220,-13.2757807,6.2344694,-10.0819321,201.2213745,-76.0000000,-198.6259613,0.7733232,1.6567791,10.3883877,0.8473282,-5.0610685,-4.8625956
230,-15.2677460,8.0708122,-11.3700056,160.8320618,-41.7633591,-125.3129807,0.7086801,1.6424140,10.4554253,0.2137405,-6.1526718,-5.2824426
240,-15.7801027,6.7061248,-13.0291786,114.7709961,-18.9160309,-56.1603050,0.7350162,1.6855093,10.5487986,-0.3282443,-6.8244276,-5.4274807
250,-16.8048153,7.0460997,-14.3818960,47.3664131,15.1679392,17.3358784,0.6919208,1.7405758,10.6421719,-0.1603053,-6.9541984,-5.7175574
260,-15.3084478,7.2280579,-14.7218714,-34.8778610,53.4503822,83.5343475,0.6799498,1.6950861,10.6828737,-0.0610687,-5.8625956,-5.5496182
270,-13.1129761,7.6853480,-13.9581242,-120.3816757,113.5801544,136.1068726,0.6153067,1.7046629,10.4961262,-0.3893130,-6.0763359,-5.3740458
280,-11.3388815,7.0125809,-11.3245163,-185.9236603,169.0229034,175.4732819,0.6153067,1.6807210,10.4195127,-1.1068702,-7.1603055,-5.6412215
290,-10.5344334,6.4020624,-8.6789370,-228.3358765,209.6106873,208.9389343,0.6512195,1.6855093,10.4171181,-2.0916030,-8.6030531,-5.3511453
300,-9.6916790,5.8466105,-6.5744443,-250.1374054,226.8854980,240.9236603,0.5578461,1.6448082,10.5416164,-3.0229008,-9.1450386,-4.5343513
310,-8.5735922,5.3055239,-2.1356170,-250.1374054,221.9694672,250.1297760,0.6823440,1.6663558,10.6278067,-3.5801528,-8.5877867,-4.5190840
320,-6.0189924,4.5274124,-2.5354466,-250.1374054,214.2213745,250.1297760,0.6512195,1.6495966,10.5607700,-3.4045801,-7.8931298,-4.5190840
330,-3.7014170,3.9767487,-1.9704180,-250.1374054,221.6106873,250.1297760,0.7014975,1.5849534,10.8121595,-2.8549619,-8.1450386,-4.0992365
340,-1.1204807,3.6607156,-1.6112895,-250.1374054,230.8778687,250.1297760,0.7398046,1.5418580,10.7044210,-2.1145039,-7.7862597,-5.0152674
350,0.6967092,3.5721307,-0.6368544,-250.1374054,249.8625946,250.1297760,0.6536137,1.5538290,10.7977943,-1.5419847,-6.5267177,-4.0229006
360,2.3917952,2.9400647,1.3790531,-250.1374054,250.1297760,250.1297760,0.6320660,1.5370697,10.8145542,-0.3511450,-5.2061067,-4.0763359
370,4.2712340,2.6024840,4.1299767,-250.1374054,235.0763397,250.1297760,0.7374104,1.5705882,10.6876621,0.6793893,-3.8015268,-4.0076337
380,7.7643566,2.6120608,8.9662399,-250.1374054,177.2061005,250.1297760,0.7206510,1.5370697,10.7594872,1.6488550,-3.0000000,-3.5572519
390,10.9079275,3.4811516,15.4161863,-224.6259613,81.4809189,206.4122162,0.7158626,1.5562232,10.6349897,2.1145039,-3.3587787,-3.3435113
400,12.4761209,4.1611013,19.6126022,-124.5954208,-45.1832047,143.5267181,0.7374104,1.5873476,10.5057030,1.4580153,-3.8473282,-2.9083970
410,14.6284971,4.2664456,19.6126022,-6.1755724,-166.0992432,84.0457993,0.7062859,1.6328372,10.3476868,-0.5648855,-5.2442746,-3.1679389
420,17.4344883,4.6423335,19.6126022,104.7022934,-245.6717529,25.2213745,0.7062859,1.6304430,10.2519188,-2.3435113,-6.8702292,-3.3206108
430,18.9404335,5.4994531,16.2086620,190.5801544,-250.1374054,-39.2061081,0.6919208,1.5945302,10.2519188,-4.0610685,-8.0076332,-3.5038168
440,19.2301292,5.8825235,10.5128860,247.1832123,-250.1374054,-108.5343475,0.6919208,1.6400198,10.4290895,-5.2977099,-8.3664122,-2.4809160
450,18.7034073,6.2105274,5.3318601,250.1297760,-250.1374054,-175.4809113,0.7182568,1.5514348,10.7068148,-5.2671757,-8.3282442,-2.4274809
460,16.2565460,6.0956063,1.1420283,250.1297760,-250.1374054,-235.0915985,0.7062859,1.5610116,10.7403336,-4.7328243,-8.3969469,-1.8854961
470,12.5072460,6.1171541,-1.3096216,235.9313049,-204.8015289,-250.1374054,0.7541697,1.4891858,10.6541433,-4.3511453,-8.2519083,-1.4580153
480,8.9279327,6.4714942,-2.3415172,195.4580078,-174.9084015,-250.1374054,0.8690908,1.5250987,10.6421719,-3.7633588,-6.5038166,-2.1908398
490,6.8378053,6.4283986,-2.4301023,156.5496216,-152.0915985,-250.1374054,0.8834559,1.6615674,10.6302013,-4.4656487,-4.6259542,-1.3358779
500,4.8673873,6.4403696,-1.8650736,129.6106873,-111.3893127,-250.1374054,1.0223188,1.9177457,10.2136126,-11.2137403,1.4045801,-1.3816794
510,2.6814921,6.2081332,-1.8746504,116.2061081,-65.1221390,-250.1374054,1.1085097,1.9464760,9.9837704,-21.6488552,10.4503813,-1.9160305
520,0.3351865,5.8346395,-2.5929072,107.6030502,-33.9465637,-250.1374054,1.1348459,1.7142396,9.7970228,-31.8167934,17.9618320,-3.7633588
530,-2.3989778,5.4012914,-4.0796990,99.9007645,-22.3969460,-250.1374054,0.9026094,1.4820032,10.2327662,-36.5572510,19.6335869,-5.0305343
540,-5.3342543,5.1929970,-5.3773494,89.9083939,-38.2290077,-250.1374054,0.5841822,1.1300575,10.6876621,-33.6564903,15.0458012,-5.3816795
550,-7.3166428,5.4970589,-6.8282285,77.8702316,-65.7022934,-240.4198456,0.5674229,0.9720409,11.1234045,-26.7938938,10.6946564,-5.8244276
560,-9.2343884,6.3230543,-8.0612354,56.7328262,-72.8625946,-203.9084015,0.7900825,0.9840119,11.4466200,-19.2519093,11.0381680,-6.2824426
570,-11.2622671,7.1586266,-9.4738073,23.1145039,-47.4732819,-155.3053436,0.9409165,1.0271072,11.7243462,-11.4198475,17.3816795,-8.4885492
580,-13.1560707,7.8289995,-10.9342632,-28.5801525,13.1603050,-93.3511429,0.8475431,0.8355721,11.8608141,-1.8167939,23.4351139,-10.1374044
590,-14.6524391,8.7340031,-12.0523500,-91.3664093,88.2595444,-31.7099228,0.6081241,0.8619082,11.8320847,7.9312978,25.4274807,-11.6259546
600,-16.9460735,7.9223728,-12.3013458,-158.9694672,156.4198456,41.6946564,0.4213773,1.1085097,11.0874910,14.6259546,25.4809170,-11.8549614
610,-17.1543674,6.6031747,-10.7235746,-224.0686951,196.8396912,121.9083939,0.1221037,1.4365137,10.7259684,15.9694653,26.3664131,-11.8091602
620,-14.2573986,6.1291251,-7.5033898,-250.1374054,203.9465637,191.7404633,-0.2777260,1.5658000,10.3788109,13.8778629,26.8625946,-9.2290077
630,-10.8839855,5.7245069,-4.3047528,-250.1374054,204.4809113,239.7633514,-0.4405309,1.5729824,10.1369982,10.5343513,23.2900772,-5.8702292
640,-8.4754305,5.2217274,-1.9560528,-250.1374054,202.3282471,250.1297760,-0.3184272,1.4293311,10.1106625,7.6946564,17.3816795,-3.0610688
650,-5.8059096,3.9504125,0.8786675,-250.1374054,198.2748108,250.1297760,-0.1508339,1.3982066,9.9406748,4.2442746,12.0992365,-1.2900764
660,-2.7772598,2.7341642,1.8076130,-250.1374054,192.1755676,250.1297760,0.0766141,1.3455344,10.0436249,0.9847328,6.3740458,-1.0152671
670,0.2489957,2.0805507,2.7868366,-250.1374054,192.3969421,250.1297760,0.1388630,1.3479286,10.1944590,-1.7786260,0.7175573,-2.3664122
680,3.6080434,1.6424140,4.6399393,-250.1374054,187.8473358,250.1297760,0.2035061,1.2928623,10.2974091,-4.1145039,-4.7099237,-3.9236641
690,8.6047173,2.2696917,7.2160869,-250.1374054,157.9465637,250.1297760,0.1101327,1.2976507,10.3524752,-5.9312978,-8.8702288,-5.0000000
700,12.5910425,3.3159523,11.4178896,-225.4351196,99.9542007,206.5114441,0.1699875,1.3191984,10.3716288,-7.3435116,-12.6412210,-5.8244276
710,15.7729197,4.2640514,15.8758707,-159.9160309,23.5801525,123.6335907,0.1412572,1.2880739,10.6062593,-7.8931298,-15.2671757,-5.3740458
720,17.5326500,4.8338685,19.4240589,-71.5190811,-45.0458031,36.2137413,0.1340746,1.2952565,10.5847120,-7.5267177,-17.2213745,-5.6717558
730,16.7258072,4.8937230,19.6126022,28.9312973,-89.1450348,-47.4580154,0.2130829,1.2210367,10.6900558,-6.7022901,-18.1603050,-5.0916033
740,13.2877512,4.3263001,18.8710022,124.4961853,-110.8931274,-116.5343475,0.2346306,1.1803354,10.7092094,-5.8854961,-19.2290077,-4.5343513
750,8.4562769,3.7756367,15.9141769,205.8091583,-124.9465637,-162.5877838,0.2896969,1.1707586,10.8384953,-4.8320613,-19.7557259,-4.5038166
760,5.0661049,3.3686244,13.2685976,250.1297760,-134.4274750,-186.1908417,0.3375807,1.1611819,10.7475166,-3.7862597,-18.1068707,-3.5725191
770,2.7676830,3.3015873,10.2399483,250.1297760,-147.0229034,-197.2442780,0.3591284,1.1707586,10.7475166,-3.1221373,-16.1679382,-3.4656489
780,1.1827296,3.4045374,6.6031747,250.1297760,-147.0229034,-202.8320618,0.3663110,1.1923064,10.6876621,-3.6564887,-14.1526718,-3.5572519
790,-0.1843526,3.7445123,3.5026991,250.1297760,-135.1908417,-198.0992432,0.4668669,1.1947005,10.6182299,-5.0152674,-12.6412210,-3.1755726
800,-1.0845678,4.4460096,0.0023942,250.1297760,-111.2900772,-183.8244324,0.2968795,1.1228749,10.7092094,-5.0152674,-12.7862597,-3.1832061
810,-1.4365137,5.0972295,-3.3063757,250.1297760,-81.3206100,-163.3053436,0.4141948,1.0558375,10.6565371,-4.4961834,-13.1679392,-2.8244274
820,-2.4085546,5.6143742,-6.6678176,250.1297760,-46.2977104,-136.4198456,0.4596844,1.1037214,10.6732969,-4.3893127,-13.0381680,-2.6870229
830,-5.0134325,6.8234401,-9.9215212,250.1297760,-17.4122143,-99.3358765,0.4955972,1.1444225,10.6661139,-4.6870227,-12.9083967,-2.9312978
840,-6.1817970,7.8266053,-13.9868546,250.1297760,-8.7557249,-53.1908379,0.5339043,1.1180865,10.6110477,-4.8320613,-12.2290077,-4.0534353
850,-7.0030041,10.3596573,-18.2868195,185.8167877,-20.6717548,-8.2519083,0.5698171,1.1396341,10.4793673,-5.3587785,-12.5496187,-4.6030536
860,-5.6862001,11.6908274,-19.6131992,93.5496216,-20.1603050,33.9618340,0.5291159,1.0342898,10.4027529,-6.3511453,-14.5801525,-4.3358779
870,-3.6271970,11.6597023,-19.6131992,-20.0992374,20.5954189,70.0000000,0.5075682,1.0390782,10.2710724,-7.9007635,-17.3816795,-4.2900763
880,-1.7477583,10.9582052,-19.6131992,-127.7633591,86.6030502,96.2595444,0.5722113,1.0151364,10.0196829,-10.6183205,-20.5038166,-4.4732823
890,-0.8523315,10.1417866,-16.8550930,-216.8320618,156.0686951,114.4961853,0.6991033,1.0031654,9.8281479,-14.4045801,-22.9389305,-4.0610685
900,-0.8236012,9.2008705,-13.3787308,-250.1374054,211.5877838,126.9847336,0.9648584,0.9816177,9.8305416,-16.8396950,-22.5267181,-4.1984735
910,-0.8427547,8.4467001,-10.3141680,-250.1374054,236.6870270,135.4122162,1.0702027,0.8236012,9.8903971,-17.0687027,-20.0534344,-4.7633586
920,-1.2090657,7.6159167,-7.8242111,-250.1374054,237.9770966,143.4503784,1.3168042,0.7972651,10.1848822,-16.3129768,-16.3587780,-4.8320613
930,-1.3383518,6.6103573,-5.9040713,-250.1374054,225.9465637,154.0610657,1.2497669,0.7829000,10.2614956,-16.6106873,-12.1297712,-5.8549619
940,-0.7445929,5.3845320,-3.6750808,-250.1374054,210.5954132,164.5801544,1.3958124,0.9169745,9.8473015,-17.3206100,-9.5572519,-8.5496187
950,0.5865764,3.9384418,-1.4604555,-250.1374054,192.5267181,169.3740387,1.3694763,1.2976507,9.4929609,-20.6870232,-3.1450381,-12.1984730
960,2.1068866,2.8778157,1.0606259,-250.1374054,168.2824402,165.1603088,0.7829000,1.3742647,9.2463598,-28.4580154,-0.1832061,-15.7022905
970,2.2912393,2.2265961,7.8457589,-250.1374054,134.2442780,157.5496216,0.1843526,0.3902529,7.9247670,-36.6488533,-33.7480927,-14.2748089
980,7.3070664,2.1475880,11.1904411,-250.1374054,61.8015251,123.2137375,1.5227045,0.2705434,7.8457589,-48.6793900,-31.8244267,-14.5496187
990,11.9637651,3.2752512,18.9931049,-250.1374054,-37.8931313,71.7633591,2.3415172,0.3543400,8.4514885,-59.2213745,-9.7022905,-16.7022896
1000,15.2078915,3.9480183,19.6126022,-135.6870270,-130.0458069,1.2213740,2.1188576,0.1101327,9.3038206,-64.3893127,12.3053436,-20.6259537
1010,16.8526993,4.3885493,19.6126022,-7.5954199,-170.3511505,-65.5877838,2.0757623,-0.9600700,10.7762470,-64.8473282,38.8854980,-25.9007626
1020,17.0107155,4.5585365,19.6126022,98.5419846,-176.2061005,-130.4656525,1.1587877,-1.8650736,12.4689388,-62.0152664,88.7938919,-24.0305347
1030,15.5167418,4.2951760,16.7641144,169.9389343,-179.4198456,-197.6488495,-0.2442073,-1.8746504,13.7570124,-55.1984749,86.6793900,-15.0763359
1040,12.2103662,3.5721307,12.8974981,215.9694672,-183.9694672,-250.1374054,-0.1460456,-0.5315101,13.5056229,-45.2595406,88.7480927,-12.8473282
1050,8.7340031,3.1627243,10.0843258,246.3206177,-188.0152740,-250.1374054,-0.6464311,0.7302278,14.0945930,-31.3206100,81.3740463,-21.1984730
1060,6.0237808,3.1052637,7.9247670,250.1297760,-188.1068726,-250.1374054,-0.5626345,0.3950413,13.5511122,-14.7557249,64.9236679,-25.2519093
1070,3.6535332,3.1770895,4.9607606,250.1297760,-178.6259613,-250.1374054,-0.5171449,0.7900825,13.1728306,0.2595420,67.9083939,-23.5343513
1080,2.3534882,3.6271970,1.5753766,250.1297760,-153.2900696,-250.1374054,-0.3543400,0.6057299,12.8544035,13.3664122,94.9694672,-18.7099228
1090,1.0079538,4.1706781,-0.7948709,250.1297760,-123.0839691,-250.1374054,-0.6033357,-0.3447633,12.5934362,24.0534344,125.9770966,-12.2748089
1100,-0.8475431,4.1970143,-2.8514795,231.5038147,-85.2900772,-250.1374054,-1.7046629,-0.5674229,12.3492289,33.2977104,142.4427490,3.1145039
1110,-3.3446827,3.9791429,-4.8649931,205.7022858,-49.9236641,-250.1374054,-2.3822186,-0.3974355,12.0116482,42.2061081,151.8625946,17.0000000
1120,-6.2943239,4.2425036,-6.6007805,180.3053436,-28.4198475,-250.1374054,-2.3582766,0.1508339,12.0355902,51.2442741,147.6793823,27.3816795
1130,-9.6174593,4.6614871,-7.8361821,154.0305328,-33.0000000,-245.0152740,-1.8866212,0.7014975,12.0451670,59.8931313,133.1984711,33.2977104
1140,-12.7322998,5.4372044,-9.8425131,126.4656525,-47.7480927,-197.4122162,-1.3191984,0.7565638,11.8512383,67.2671738,122.7557220,34.3435097
1150,-15.0929699,6.7659793,-12.1840305,84.8854980,-40.8931313,-134.6030579,-0.9145803,0.8427547,11.2335367,71.7328262,121.4274826,29.2900772
1160,-16.7282009,7.9606800,-14.2550039,21.3664131,6.0839696,-64.2977066,-0.8690908,1.0773853,10.6613255,72.3358765,119.0305328,20.5954189
1170,-18.4137115,8.8034344,-15.1671906,-56.8931313,67.2519073,9.7709923,-1.1132981,1.2976507,10.2112179,69.6259537,111.6259537,11.7175570
1180,-18.4903259,8.8249826,-14.2980995,-134.3893127,109.9770966,87.2977066,-1.5011568,1.0318956,9.9119444,62.6870232,93.9160309,1.6717557
1190,-16.5199070,8.2288294,-11.9924946,-195.7938995,120.0305328,155.3435059,-1.8171898,0.6009415,9.7084379,52.6564903,63.8396950,-11.4961834
1200,-15.5646257,7.0748301,-9.8113880,-241.2290039,117.9694672,223.1450348,-1.8770446,0.7876883,9.4618368,41.1755714,28.8015270,-26.2137413
1210,-12.7682123,5.0325861,-7.8098459,-250.1374054,119.9923630,250.1297760,-1.7166338,1.3431402,8.9686337,29.5038166,3.2977099,-40.6106873
1220,-8.6334467,3.3375001,-5.4204450,-250.1374054,117.8778610,250.1297760,-1.7022687,2.0254843,8.7938576,19.2061062,-11.2061071,-50.8778610
1230,-4.6064205,2.0063307,-3.4404502,-250.1374054,125.4198456,250.1297760,-1.9105632,2.6814921,8.7747040,11.1755724,-16.0305347,-55.3129768
1240,-1.7262106,0.6488253,-1.6998745,-250.1374054,146.3816833,250.1297760,-2.3870070,2.9352763,9.0715837,5.3816795,-20.2748089,-52.2519073
1250,1.2593436,-0.5171449,0.4309541,-250.1374054,156.3664093,250.1297760,-2.7126167,2.7509236,9.1721401,2.0000000,-29.0152664,-45.3129768
1260,4.9080882,-1.4077834,3.4117200,-250.1374054,140.4732819,250.1297760,-3.2513094,2.4133430,9.1290445,-0.9312977,-42.0000000,-38.1908379
1270,9.9670105,-1.5873476,8.8944139,-250.1374054,90.1068726,250.1297760,-3.1244173,2.0206959,9.4690189,-5.2900763,-54.9923668,-30.1221371
1280,16.9580441,-0.2130829,18.3610382,-250.1374054,1.3816794,236.3282471,-3.4548154,1.6855093,9.9454632,-9.5801525,-63.2748108,-27.8702297
1290,19.6126022,1.9632354,19.6126022,-195.0915985,-93.0916061,129.6106873,-4.1036406,1.5945302,10.1872759,-12.4961834,-81.2748108,-27.5114498
1300,19.6126022,3.6080434,19.6126022,-31.9541988,-145.9618378,1.2442749,-3.7349355,1.3455344,9.5576038,-19.2137413,-107.6564865,-22.1679382
1310,19.6126022,3.1411765,19.6126022,118.1679382,-151.2595367,-117.8549652,-3.3279233,1.2784972,8.4538832,-31.5343513,-108.1908417,-17.0839691
1320,19.6126022,2.4061604,19.6126022,232.4274750,-162.6183167,-221.0458069,-2.8395088,0.9696468,7.7595682,-47.1755714,-87.2519073,-13.2366409
1330,15.6029329,1.6400198,15.6316633,250.1297760,-204.0610657,-250.1374054,-2.6862805,0.3950413,7.9894104,-61.3587799,-68.8167953,-8.8625956
1340,11.1018562,1.6879035,11.4466200,250.1297760,-236.5114441,-250.1374054,-2.3654592,0.0047884,8.1689749,-76.5572510,-79.7709961,-3.2748091
1350,7.6494355,2.0661855,7.2663651,250.1297760,-236.3435059,-250.1374054,-1.6065011,0.0814024,8.5544386,-94.1145020,-124.2595444,-2.6412213
1360,5.2983413,2.3032103,2.7676830,250.1297760,-210.0992432,-250.1374054,-0.5961532,-0.1125269,8.9973640,-105.3282471,-167.7938995,-12.4274807
1370,2.6814921,2.4468615,-0.9528874,250.1297760,-182.4885559,-250.1374054,-0.6033357,-0.1412572,9.1505919,-116.4198456,-191.5801544,-25.9770985
1380,-0.3998296,2.0183017,-3.8929520,250.1297760,-138.6641235,-250.1374054,-1.7022687,-0.1795642,9.5528164,-128.0229034,-204.8091583,-34.3358765
1390,-3.1459649,1.9153515,-6.2368636,250.1297760,-60.1832047,-250.1374054,-2.6767037,-0.4141948,10.4865494,-132.1450348,-214.8702240,-30.0687027
1400,-6.9383612,1.8411317,-7.9008250,227.9313049,-1.1068702,-250.1374054,-2.7820482,-0.6607963,11.7051926,-128.2061005,-219.0458069,-15.3358774
1410,-12.6532917,2.1499822,-10.1824875,191.1755676,11.2824430,-250.1374054,-1.4006008,-1.0342898,12.9573536,-115.5496216,-208.4198456,0.7709923
1420,-18.9260674,3.6870518,-12.7682123,149.1908417,-18.2519093,-250.1374054,0.5626345,-1.4317253,14.8655224,-89.7404556,-155.3053436,9.1374044
1430,-19.6131992,5.9040713,-15.3802729,89.8473282,-58.9312973,-152.7251892,1.7501525,-1.4724265,17.4368820,-48.0916023,-49.0228996,14.1297712
1440,-19.6131992,7.3381906,-17.0825424,7.6183205,-57.7404594,-50.0152664,3.6918402,-1.1300575,18.9093075,4.8473282,102.5190811,14.4427481
1450,-19.6131992,8.0420828,-16.9867744,-86.1679382,-19.9007626,51.8702278,2.2218077,-0.8475431,18.9931049,50.5496178,250.1297760,-8.1068707
1460,-19.6131992,7.2328463,-15.2509871,-181.0915985,41.3358765,150.9160309,-0.3543400,-1.9297167,18.0785236,100.0457993,250.1297760,-6.4580154
1470,-18.2652721,5.8992829,-12.0212250,-250.1374054,77.7251892,235.2366486,-2.3008161,-2.5617826,17.5781384,147.4885559,250.1297760,17.6030540
1480,-14.9229832,3.7684543,-8.5496502,-250.1374054,88.1679382,250.1297760,-3.7397239,-3.4236910,17.0705700,188.3664093,250.1297760,48.8015251
1490,-11.8129311,1.6232605,-4.8889351,-250.1374054,93.1374054,250.1297760,-3.7708483,-4.9511838,16.3451309,217.8778687,250.1297760,83.7709961
1500,-8.1043310,-0.6105183,-2.2361729,-250.1374054,96.7404556,250.1297760,-2.3032103,-5.4491754,15.6005383,230.6412201,207.2824402,113.1526718
1510,-4.3167233,-2.5474176,0.2274480,-250.1374054,97.4274826,250.1297760,1.0462608,-3.2967989,14.4154148,227.6412201,157.7938995,115.2137375
1520,0.0718257,-4.0485744,3.2369442,-250.1374054,89.6030502,250.1297760,3.3901722,-0.9959828,13.4361916,216.0305328,119.8778610,78.1221390
1530,5.6646523,-4.2257442,7.0963774,-250.1374054,67.0534363,250.1297760,2.5689652,-0.0095768,12.9286232,201.7557220,75.5648880,23.1603050
1540,14.5399122,-2.4564383,13.8910875,-250.1374054,14.1603050,250.1297760,-0.0909792,0.4501076,12.6221666,189.4961853,15.6488552,-24.4503822
1550,19.6126022,1.3311694,19.6126022,-206.4732819,-66.5267181,250.1297760,-3.2465210,0.7948709,12.5479469,181.8091583,-42.9694672,-49.6259537
1560,19.6126022,4.7452836,19.6126022,-74.6793900,-118.0076370,109.8167953,-5.2049680,1.2665262,12.0212250,180.4427490,-87.6870193,-51.9541969
1570,19.6126022,5.4731169,19.6126022,58.3664131,-121.4427490,-59.1679382,-5.9854736,1.7812769,11.3245163,183.1832123,-113.9618301,-42.7709923
1580,19.6126022,4.0174499,18.8901539,164.8396912,-117.6335907,-205.1755676,-5.8035154,2.2672975,10.8121595,185.7099304,-118.6335907,-26.5572510
1590,17.0969067,2.6934631,14.0107965,241.0610657,-143.4961853,-250.1374054,-6.1817970,2.7916248,10.9222927,190.7633514,-97.8549652,-9.0916033
1600,9.8999729,2.0661855,9.7204094,250.1297760,-170.6641235,-250.1374054,-5.5377603,2.9041519,10.5344334,197.7175598,-80.1145020,9.9847326
1610,5.2720051,2.3558824,6.1291251,250.1297760,-175.1145020,-250.1374054,-4.6950054,2.7988074,9.6485834,204.0915985,-69.4503784,24.2366409
1620,2.3127871,2.8514795,2.4396791,250.1297760,-152.4503784,-250.1374054,-3.7301471,2.7030399,8.5113440,205.2061005,-62.9007645,31.0610695
1630,-0.4740495,3.0358322,-0.7661406,250.1297760,-110.4503784,-250.1374054,-2.5641768,3.4476328,6.7013364,201.2671814,-73.5496216,31.9083977
1640,-3.2321558,3.2896163,-3.6248028,250.1297760,-59.5648842,-250.1374054,-0.6033357,4.5154414,5.8035154,188.7099304,-80.4122162,28.0992374
1650,-7.6925306,3.6870518,-6.7516141,250.1297760,-15.0229006,-250.1374054,-0.8858501,4.3095412,5.7580256,174.8091583,-74.0534363,21.0381680
1660,-13.2159262,4.4771342,-10.0675669,211.8015289,12.4198475,-250.1374054,-1.4436963,4.0270267,5.9639258,162.9770966,-68.9542007,15.9389315
1670,-18.7297440,5.9926562,-13.8001080,161.0152740,11.8320608,-201.2900696,-1.6017127,4.1539187,6.2464404,155.7175598,-64.1145020,15.4885492
1680,-19.6131992,7.6997132,-16.0195217,95.5038147,-15.0305347,-101.1374054,-1.8938038,4.6638808,6.7492199,153.7175598,-54.1603050,18.9083977
1690,-19.6131992,8.6885138,-16.4121685,15.0610685,-25.6946564,4.4656487,-1.4508789,4.8266859,5.7604198,153.9618378,-49.6030540,22.2671757
1700,-19.4887028,8.1546097,-14.5016060,-66.4732819,16.8473282,95.5114517,-0.8451489,4.9727316,4.7740140,148.5725250,-36.7175560,24.5572510
1710,-17.8989601,7.0221577,-12.6868095,-146.6793823,78.6488571,173.6793823,-0.8762733,5.3917146,4.2784166,138.9618378,-13.7709923,28.1679382
1720,-15.4497042,6.0788469,-10.1920643,-230.3129730,88.8931274,240.8854980,-0.7876883,5.6981707,3.6678982,129.0076294,5.6870227,30.2824421
1730,-12.3204985,4.4077029,-7.2879128,-250.1374054,56.2519073,250.1297760,-0.3088504,5.7149301,2.9089401,120.9007645,15.6030531,28.4045811
1740,-8.0971489,2.9640064,-3.7038112,-250.1374054,16.5419846,250.1297760,0.0119709,5.6215568,2.2050486,111.0687027,19.4427490,21.0305347
1750,-4.4484038,0.4453192,-0.3495516,-250.1374054,-8.1603050,250.1297760,-0.1699875,5.4850879,1.5203103,96.0839691,18.2442741,18.5954189
1760,-0.2537841,-0.9409165,2.7652888,-250.1374054,-12.4198475,250.1297760,-0.2154770,5.7364779,1.3311694,79.1221390,14.4961834,19.7022896
1770,3.9695661,-1.3862357,5.5808558,-250.1374054,-22.7786255,250.1297760,-0.3303981,6.1650376,1.4843974,61.2977104,8.4961834,20.2595425
1780,11.0970678,-0.6177009,8.7076674,-250.1374054,-66.4656525,250.1297760,-0.5003856,6.5241661,1.8770446,43.4427490,-0.6259542,21.1679382
1790,19.4982796,1.1516051,11.6261835,-250.1374054,-107.5343475,250.1297760,-0.9576758,6.7779503,1.9776005,25.5877857,-18.4885502,23.8320618
1800,19.6126022,4.5489597,13.9222116,-186.2519073,-113.4427490,173.2671814,-1.0773853,6.9216018,1.7621235,4.9770994,-51.0000000,24.3740463
1810,19.6126022,7.2232695,16.7042599,-100.9465637,-74.7328262,17.1679382,-0.7972651,6.9982157,1.4053892,-18.9160309,-88.8854980,24.7480907
1820,19.6126022,6.2631998,15.0857878,6.3587785,-71.0381699,-133.3969421,-0.4309541,7.3094602,0.7302278,-49.7022896,-114.1526718,26.0610695
1830,19.3713875,6.0022330,11.9326401,93.5725174,-122.2977066,-250.1374054,-0.3208214,7.4315639,0.3495516,-83.3435135,-129.2824402,29.2061062
1840,13.5319586,5.6454988,10.3093796,172.3282471,-137.9389343,-250.1374054,-0.3615226,7.3764977,-0.0119709,-118.1450348,-144.8854980,34.2671738
1850,7.0748301,4.4172797,7.1418672,228.8091583,-135.1984711,-250.1374054,0.3280039,7.2639709,-0.9050036,-153.6641235,-152.0076294,40.0305328
1860,1.0103480,4.3909435,4.0988522,247.9313049,-126.8396912,-250.1374054,1.3287752,6.8689294,-1.8028246,-190.9770966,-148.7328186,44.6488533
1870,-2.7197993,4.4867110,1.2521610,243.4961853,-115.4809189,-250.1374054,2.2912393,5.9040713,-2.3223639,-228.9770966,-150.5801544,44.3129768
1880,-6.2296810,5.6454988,-1.6256547,225.2900696,-88.7328262,-250.1374054,3.1124463,4.4005203,-1.8147956,-250.1374054,-159.5648804,37.4503822
1890,-9.5480280,7.0484939,-3.8666160,199.0534363,-64.4580154,-250.1374054,3.5697365,2.6144550,0.3016679,-250.1374054,-160.4198456,32.0076332
1900,-12.2414904,7.7428088,-6.4643116,160.6030579,-54.9694672,-250.1374054,4.3071470,1.2593436,3.7947903,-250.1374054,-140.0381622,27.9694653
1910,-14.4465389,8.2838955,-7.7260494,113.1908417,-56.8549614,-236.2900696,5.1259594,0.4429250,7.9989872,-250.1374054,-87.4656525,24.0610695
1920,-16.7641144,8.6861191,-8.8824425,63.7862587,-57.9236641,-163.9847260,5.9615316,-0.2346306,12.5120344,-250.1374054,3.3816793,15.8473282
1930,-17.5350437,8.8800488,-8.1857338,20.7557259,-51.4427490,-75.9770966,8.7411861,-0.9073978,17.1902809,-228.1297760,128.3053436,-9.9007635
1940,-17.0250816,8.6358414,-5.7723908,-11.6335878,-26.5725193,26.7862587,7.4267755,-1.2186425,19.6126022,-165.1450348,247.1374054,-39.1603050
1950,-15.1193066,8.4490948,-4.4172797,-30.9770985,-7.1908398,127.9542007,5.6885943,-0.7565638,19.6126022,-71.8473282,250.1297760,-47.1526718
1960,-13.8168669,8.2838955,-5.0948353,-62.0076332,19.1755733,215.2519073,4.8458395,-1.5538290,19.6126022,45.6488533,250.1297760,-58.3435097
1970,-11.1257982,7.8577299,-4.0677280,-92.3969498,36.6030540,250.1297760,3.0382264,-2.0015423,19.6126022,164.3664093,250.1297760,-62.8320618
1980,-7.9894104,6.9359670,-3.6535332,-125.2748108,44.6488533,250.1297760,2.3151813,-1.0127422,19.6126022,250.1297760,250.1297760,-62.8931313
1990,-5.1187773,5.6383162,-2.3032103,-152.6488495,40.9083977,250.1297760,1.9249283,2.9711890,14.9134064,250.1297760,250.1297760,-67.8244247
2000,-1.1204807,3.7852135,-0.6607963,-169.3587799,20.4427490,250.1297760,-1.0031654,5.0517397,11.4059181,232.2671814,250.1297760,-82.7938919
2010,3.8402798,3.1268115,0.9169745,-173.9084015,10.6488552,250.1297760,-6.4786768,4.0485744,9.8927908,196.9465637,250.1297760,-79.0305328
2020,10.4961262,3.8426740,2.5043221,-169.1374054,1.9618320,250.1297760,-10.5655584,4.2664456,9.3229742,174.3358765,250.1297760,-54.7862587
2030,19.1702747,6.6750002,6.1841912,-153.5343475,9.1984730,250.1297760,-11.0587606,5.3558016,8.4802189,156.4732819,154.0915985,-27.9312973
2040,19.6126022,9.7060442,10.9462337,-121.9007645,29.0152664,204.0610657,-9.8281479,6.3230543,7.4507174,137.9313049,48.1679382,-12.3816795
2050,19.6126022,8.7914639,13.2829628,-64.5648880,34.1221390,26.7251911,-8.5424681,6.7180958,7.0101867,120.7557220,-31.4045811,-8.9465647
2060,19.6126022,5.6478930,12.6556854,2.8015268,12.2748089,-140.0534363,-7.6661944,6.8880830,6.4116392,107.9618301,-83.9847336,-9.6030531
2070,17.9516335,2.2074428,11.1210098,73.1526718,-26.7862587,-250.1374054,-7.3238254,6.9982157,5.8753409,97.8702316,-107.9465637,-7.9083967
2080,12.0834742,1.0869620,9.7946291,144.5114441,-70.5419846,-250.1374054,-6.6271162,7.0508881,5.0277977,88.7938919,-112.7786255,-4.6259542
2090,6.9216018,0.0909792,7.0269461,206.7862549,-105.8091583,-250.1374054,-6.4451580,7.1155310,4.0318151,79.4351120,-103.9542007,-0.1145038
2100,2.3558824,0.8571198,3.9216824,243.5572510,-120.0381699,-250.1374054,-6.8162575,7.3908629,3.4476328,67.7251892,-85.5572510,6.1374044
2110,-1.6902977,0.9552816,1.0175306,247.9923706,-120.0687027,-250.1374054,-7.2615767,7.7978749,2.7964132,52.9160309,-75.2366409,15.1832066
2120,-8.7363977,1.4125718,-1.3096216,233.9465637,-116.2671738,-250.1374054,-7.4052281,7.6853480,2.1906834,36.9923668,-86.2519073,23.9618320
2130,-13.9078465,3.1315999,-3.2944047,202.0610657,-117.9847336,-250.1374054,-7.2591825,7.5847921,2.1044924,20.9007626,-108.2290039,31.1679382
2140,-19.6131992,5.3294659,-5.3749552,155.5267181,-115.7251892,-250.1374054,-6.7683735,7.6374645,2.2194135,6.7175574,-130.0610657,34.4427490
2150,-19.6131992,5.9711084,-7.3381906,100.5038147,-104.0992355,-250.1374054,-6.6989422,7.6135225,2.4420733,-7.6183205,-141.6335907,37.8015251
2160,-19.6131992,6.1554613,-8.6023226,40.7099228,-82.7480927,-152.0152740,-7.0556765,7.9223728,2.8802099,-22.1221371,-140.2595367,46.4732819
2170,-19.6131992,7.0604649,-9.1960821,-20.9847336,-39.1908379,28.6183205,-6.9623032,8.1210909,3.1531475,-33.6030540,-146.7328186,57.1755714
2180,-19.6131992,8.5879574,-8.4131813,-83.7709961,38.3587799,209.8854980,-6.3781209,7.6853480,3.0214672,-45.3587799,-161.4656525,66.3511429
2190,-17.8079815,6.9479380,-6.5935979,-139.1297760,117.9083939,250.1297760,-5.4946647,7.4770536,2.7605004,-59.3358765,-176.7786255,73.0229034
2200,-15.0618458,4.9056940,-4.6231799,-187.6259613,182.6030579,250.1297760,-4.8554163,7.2496057,2.4013720,-75.8167953,-194.2977142,77.0534363
2210,-13.2853575,2.0350611,-2.2409613,-220.6488495,228.0076294,250.1297760,-4.1802549,6.8425937,2.5689652,-94.7175598,-208.9084015,82.8625946
2220,-9.8496952,-0.5530578,0.0023942,-236.4427490,250.1297760,250.1297760,-3.3805954,6.3805151,3.0478032,-112.4732819,-218.3893127,88.5496216
2230,-5.0038562,-2.6814921,1.8124014,-244.9694672,250.1297760,250.1297760,-2.6503677,5.8418221,3.5242469,-128.1832123,-224.3358765,93.6183243
2240,1.1492109,-2.6862805,5.0349803,-236.1526642,187.0229034,250.1297760,-2.1260402,5.4228392,3.7900019,-142.2519073,-231.4351196,98.2519073
2250,10.6637201,-0.9768293,8.7148495,-191.1221313,96.2290039,250.1297760,-1.2497669,4.9679432,3.9935081,-155.5038147,-242.6564941,102.3816757
2260,19.6126022,2.2433555,12.3516235,-109.1145020,26.0763359,250.1297760,-0.1819584,4.4747400,3.9647777,-167.7862549,-250.1374054,105.6946564
2270,19.6126022,2.9951310,14.3842907,-9.3969469,-8.2213745,202.1832123,1.0893562,3.7445123,4.2281384,-175.9313049,-250.1374054,104.9312973
2280,19.6126022,1.4556671,12.7107515,64.1832047,-60.0763359,-77.8091583,2.5665710,2.8083842,4.3478479,-183.0534363,-250.1374054,102.1068726
2290,19.6126022,0.6871324,10.9534168,104.9618301,-158.6259613,-250.1374054,4.6997938,2.2194135,4.5609307,-196.2213745,-250.1374054,100.4351120
2300,16.9700146,0.6464311,9.3253679,138.7099304,-236.3969421,-250.1374054,7.1083484,1.5634058,5.4491754,-212.3969421,-203.7251892,98.1908417
2310,9.7180147,0.7086801,6.9575148,167.7404633,-250.1374054,-250.1374054,8.5496502,0.8954269,7.1442614,-214.0076294,-128.4351196,87.2977066
2320,2.8658447,1.6567791,4.2927818,184.3511505,-239.1832123,-250.1374054,9.4905672,0.2130829,8.5448618,-204.8473358,-45.3969460,66.9465637
2330,-2.5929072,2.9999194,2.1906834,188.1908417,-210.3664093,-250.1374054,10.1896706,-0.8259954,9.4043760,-189.4122162,40.3587799,34.3664131
2340,-7.6638002,3.3853838,0.2250538,180.7480927,-182.1984711,-250.1374054,9.7611103,-1.4101776,9.6773138,-159.3816833,103.0229034,5.2519083
2350,-12.5862541,4.7859845,-1.9632354,163.2213745,-158.2595367,-250.1374054,9.5097208,-1.7645177,8.1713686,-130.8625946,159.5114441,-30.4885502
2360,-19.6131992,6.5864153,-3.7876077,142.6259613,-130.9465637,-250.1374054,7.2998838,-1.6998745,7.2543941,-110.9160309,197.9084015,-65.6488571
2370,-19.6131992,8.9686337,-6.3781209,107.2442780,-93.4885483,-207.7251892,4.4771342,-1.0725969,7.2687593,-104.5038147,236.0458069,-88.9389343
2380,-19.6131992,11.1569233,-9.0715837,52.9923668,-28.4045811,-39.7328262,1.5035510,-0.4165890,7.3812861,-112.3129807,250.1297760,-97.9007645
2390,-19.6131992,11.8081427,-10.8648319,-25.9389305,50.6870232,128.7633514,-1.6974803,0.3495516,7.8601241,-127.2061081,250.1297760,-90.3206100
2400,-17.3171730,10.0915089,-10.3644457,-110.6335907,123.7480927,250.1297760,-4.6447277,1.2354017,9.3277617,-147.4274750,250.1297760,-66.0457993
2410,-15.2533808,7.2065101,-7.4459291,-183.2671814,184.4961853,250.1297760,-6.1746144,1.9560528,11.3867655,-168.7938995,250.1297760,-28.0229015
2420,-12.5551291,3.9384418,-3.9456241,-231.9465637,229.1984711,250.1297760,-6.2799587,1.9464760,15.5263186,-181.4274750,250.1297760,17.6717548
2430,-9.0332766,0.7852941,-0.6631905,-250.1374054,250.1297760,250.1297760,-4.7357068,0.7062859,19.6126022,-171.3358765,234.5496216,52.8931313
2440,-5.3486195,-1.6424140,2.2265961,-250.1374054,250.1297760,250.1297760,-2.5665710,-1.2258250,19.6126022,-137.7175598,238.7862549,67.4045792
2450,0.6200951,-3.1651185,5.8011212,-250.1374054,232.6564941,250.1297760,-1.6232605,-2.0685797,19.6126022,-80.1832047,233.4961853,64.1832047
2460,9.6773138,-1.7812769,10.5775290,-216.5648804,157.8015289,250.1297760,-1.0749911,-3.1220231,19.6126022,0.4732825,201.8091583,53.2824440
2470,19.6126022,1.5945302,13.8862991,-128.4122162,58.5496178,250.1297760,-0.8571198,-3.4356618,19.6126022,85.6946564,175.4580078,41.4580154
2480,19.6126022,2.2098370,14.8631277,-9.0229006,-25.2213745,250.1297760,-1.0079538,-2.7197993,19.6126022,162.9389343,153.6870270,29.3969460
2490,19.6126022,0.1364688,12.2678270,90.5190811,-82.0610657,-33.7328262,-1.1611819,-1.9153515,19.6126022,221.1908417,123.9236679,16.9465656
2500,19.6126022,-0.1771700,9.1218615,134.2061005,-177.0534363,-250.1374054,-1.5945302,-1.2569494,19.6126022,250.1297760,107.4885483,6.3206105
2510,19.5557404,-0.4572902,5.6239510,131.4961853,-250.1374054,-250.1374054,-2.5976956,-0.7469871,18.4328651,250.1297760,89.4503784,-1.2290076
2520,13.4385853,-0.3160330,4.6351509,118.1908417,-250.1374054,-250.1374054,-3.2704628,-0.5123565,15.8782644,250.1297760,63.3206100,-8.1679392
2530,7.7212610,0.7565638,3.9432299,110.5190811,-250.1374054,-250.1374054,-3.8690102,-0.2537841,12.8448267,250.1297760,38.1450386,-14.3816795
2540,1.6472024,2.0709739,2.9711890,107.1679382,-237.9084015,-250.1374054,-4.2041965,0.4381367,10.0867205,250.1297760,15.5801525,-19.2290077
2550,-4.0964580,3.0310438,2.0757623,104.5801544,-177.9007568,-250.1374054,-4.7261300,1.2641320,7.6709828,250.1297760,2.7633588,-21.7175579
2560,-7.8146343,3.1842721,0.7086801,101.3129807,-128.7404633,-250.1374054,-4.7261300,2.1427996,5.6047974,250.1297760,-8.9236641,-22.2748089
2570,-11.5878773,4.8602047,-1.3886299,96.3969498,-77.6412201,-250.1374054,-5.0756817,2.9496415,4.2257442,250.1297760,-16.7251911,-21.4732819
2580,-17.7289734,6.0692701,-1.8626794,82.6335907,-57.0687027,-250.1374054,-4.9416070,3.7038112,3.3207407,246.9236603,-10.5801525,-16.7938938
2590,-19.6131992,6.4140334,-3.3782012,60.7099228,-19.8091602,-198.6564941,-5.0206151,4.4268565,2.4540441,226.0610657,17.7251911,-12.1603050
2600,-19.6131992,6.9479380,-5.5353661,27.1908398,42.7709923,2.3969467,-5.6359220,4.4914994,1.4317253,209.4122162,23.3587780,-3.1526718
2610,-19.6131992,7.4483232,-7.6877422,-21.8854961,109.1603088,213.4809113,-5.9998388,5.0230093,-0.1891410,187.0610657,9.2137403,7.8625956
2620,-19.6131992,7.1538382,-8.5089493,-86.3282471,173.2595367,250.1297760,-5.8921003,5.8346395,-2.0015423,153.7328186,-5.3435116,17.5954189
2630,-16.9676208,5.4324160,-7.2974896,-149.4427490,234.7022858,250.1297760,-5.8059096,6.4283986,-3.0597742,110.9083939,-24.7557259,24.7938938
2640,-12.3181047,3.0908985,-5.4491754,-208.8931274,250.1297760,250.1297760,-5.8322453,6.7803445,-3.4428444,66.9694672,-54.0228996,30.0381680
2650,-8.5544386,0.0861908,-2.7916248,-250.1374054,250.1297760,250.1297760,-5.6502872,6.9359670,-3.5841017,25.9847336,-92.9007645,34.5801544
2660,-4.8578105,-2.4636209,1.3144100,-250.1374054,250.1297760,250.1297760,-4.9248476,7.0149751,-3.5050933,-15.5648851,-132.5267181,38.6183205
2670,0.5817881,-3.4165084,6.4738884,-250.1374054,240.3282471,250.1297760,-4.1371593,6.9766679,-3.3255291,-57.5801544,-162.6335907,41.9465637
2680,11.0396080,-2.0542145,9.5169029,-205.7099304,149.5190887,250.1297760,-3.2369442,6.8018923,-2.7652888,-99.6641235,-174.6106873,47.0839691
2690,19.6126022,0.0000000,12.4497852,-119.4198456,56.3893127,250.1297760,-2.4492557,6.5935979,-2.1954718,-136.4198456,-174.6183167,52.4580154
2700,19.6126022,-0.5769997,11.3293047,-26.6793900,-27.6488552,207.2977142,-1.3670821,5.7747850,-1.6998745,-168.4961853,-179.4274750,53.4732819
2710,19.6126022,-0.1388630,8.9231443,30.4351139,-107.0534363,-114.3816757,-0.3734936,4.7740140,-1.2258250,-197.1068726,-184.9236603,48.3664131
2720,19.6126022,0.7517755,6.8880830,38.6183205,-212.5038147,-250.1374054,0.8834559,3.5625539,-0.5410868,-220.3816833,-188.6106873,38.9847336
2730,17.1160603,1.2521610,5.4970589,30.1297703,-250.1374054,-250.1374054,1.5298871,2.9472473,0.1316804,-242.1755676,-187.4427490,27.0610695
2740,12.9142580,2.2457497,5.1642666,35.1068687,-248.8625946,-250.1374054,2.2529323,2.0590029,1.0989330,-250.1374054,-160.5725250,15.4045801
2750,8.2695303,3.6846576,4.6519103,50.1145020,-222.9541931,-250.1374054,2.4324965,1.3886299,2.6431851,-250.1374054,-109.2061081,5.4580154
2760,3.7373297,4.5393834,3.8833754,62.9083977,-193.9236603,-250.1374054,2.4731977,0.4094064,4.5034704,-250.1374054,-44.3969460,-2.5267177
2770,1.2330076,5.3988972,3.0334380,73.4656525,-163.9236603,-250.1374054,2.0398495,-0.4046180,6.6702118,-250.1374054,23.5877857,-3.7099237
2780,0.3543400,6.6079631,1.2258250,75.8778610,-128.1221313,-250.1374054,0.8810617,-0.7757174,8.9542685,-250.1374054,77.7251892,-10.5343513
2790,-2.2409613,7.1442614,0.8930327,80.9770966,-80.4427490,-250.1374054,-0.4285599,0.6248835,10.1058741,-250.1374054,109.4732819,-16.1526718
2800,-3.2967989,7.9870162,-0.9409165,71.5954208,-27.0229015,-250.1374054,-1.9728121,-1.5442522,11.5328102,-250.1374054,119.6870193,-19.7099228
2810,-4.6638808,9.0021524,-2.3822186,51.0076332,23.8473282,-250.1374054,-3.2369442,-3.1172347,13.3835192,-250.1374054,111.5648880,-10.1145039
2820,-6.6750002,8.8034344,-3.7660601,20.8167934,54.9389305,-250.1374054,-3.4596038,-4.6950054,15.5646257,-250.1374054,102.5572510,3.5648854
2830,-8.7340031,8.5903521,-3.7109938,-8.5801525,60.3740463,-206.5114441,-4.1802549,-5.4180508,17.0801468,-250.1374054,27.5114498,28.8854961
2840,-12.2007895,8.2479830,-3.5290353,-30.8625946,28.7099228,-154.9007568,-3.2249732,-5.3581958,17.2716827,-250.1374054,-52.3816795,52.9541969
2850,-15.9740324,8.3317795,-3.6583214,-52.7862587,-2.2442749,-91.4503784,-1.3622938,-4.8602047,17.2022514,-250.1374054,-84.0305328,60.4580154
2860,-17.1783085,8.0468712,-3.9839313,-81.2366409,-3.5267177,-12.1908398,-1.6519908,-4.2855992,16.7186241,-245.4274750,-80.6793900,61.7709923
2870,-17.2190113,7.8337879,-3.6966286,-113.0229034,10.8320608,84.2900772,-0.9840119,-5.2839761,16.9221306,-214.2900696,-27.1832066,60.6335869
2880,-15.7729197,7.3741035,-2.8826041,-138.6946564,25.2366409,191.6030579,-3.1531475,-5.1882086,18.7058029,-180.0915985,-4.4809160,54.6946564
2890,-13.3260584,6.8856888,-2.3295465,-159.2366486,45.0000000,250.1297760,-4.3239059,-3.6176202,19.6126022,-138.6183167,-17.0610695,47.0687027
2900,-11.5208397,6.6630292,-1.2880739,-176.6717529,80.4045792,250.1297760,-1.6472024,-3.4260850,19.1487274,-94.7480927,-48.6870232,31.6946564
2910,-8.2264347,5.5425487,-0.6919208,-190.1908417,109.2824402,250.1297760,0.5865764,-3.8857694,16.5725803,-55.7022896,-27.2900772,12.2519083
2920,-5.0900469,3.7157819,0.1771700,-206.5419922,136.1679382,250.1297760,0.9648584,-4.3741841,14.5255470,-20.9618320,34.1526718,-6.5496182
2930,-1.1396341,1.1276633,1.4748207,-220.6259613,144.3587799,250.1297760,-0.1843526,-4.4196739,13.0243902,10.1450386,84.9847336,-18.0000000
2940,3.8139439,-0.9768293,4.1946201,-220.5801544,128.7480927,250.1297760,-1.0247130,-4.0557570,11.8009596,38.8320618,116.6259537,-21.0381680
2950,10.4027529,-1.1659702,8.4706421,-190.2748108,66.2748108,250.1297760,-1.7286048,-3.3805954,11.2119894,64.5954208,127.1526718,-14.5419846
2960,18.8207226,-0.1963235,12.4019012,-123.1145020,-7.7633586,250.1297760,-1.1587877,-1.9249283,10.9438400,87.2519073,116.0687027,-4.9007635
2970,19.6126022,2.4755919,16.5246964,-43.5038185,9.3816795,212.3129730,-1.5394639,-0.8714849,10.6206245,108.7633591,85.6488571,-0.8167939
2980,19.6126022,4.4292507,16.9819851,54.4961815,-67.6641235,32.9694672,-1.9273225,-0.7398046,10.0148945,127.4503784,58.8625946,2.9694657
2990,19.6126022,2.8131726,12.8400383,135.1526642,-56.4503822,-162.8549652,-2.4181314,-0.8762733,9.5001440,143.6488495,46.4122124,5.9160304
3000,19.1535149,2.1882892,8.2503767,180.2671814,-61.6564903,-250.1374054,-2.8227494,-1.0462608,9.1960821,157.8320618,48.5190849,7.7862597
3010,13.2638092,2.3846128,5.5952206,195.4961853,-84.1450348,-250.1374054,-3.2417326,-1.1252691,9.4929609,169.6870270,61.1297722,10.9312973
3020,8.0684185,2.9233053,3.1220231,197.2442780,-99.7022934,-250.1374054,-3.2106080,-1.3168042,10.0053177,161.5419922,59.4122124,12.5954199
3030,3.3638363,3.4308734,1.2138541,189.9847260,-85.8015289,-250.1374054,-2.7628946,-0.1077385,9.6318245,121.4274826,82.3206100,8.6946564
3040,-1.5466464,4.4029145,-0.2920911,177.0305328,-69.6412201,-250.1374054,-2.9472473,0.9768293,8.2216463,54.4961815,113.6564865,-3.8931298
3050,-5.6263452,5.5640965,-2.0015423,159.1450348,-49.4580154,-250.1374054,-3.7971845,1.5705882,6.5672617,6.2671757,113.1679382,-20.1603050
3060,-8.5616217,7.1394730,-3.4332676,143.1221313,-32.0839691,-250.1374054,-4.0078731,1.1994889,6.0429344,-17.5114498,101.9542007,-31.5267181
3070,-11.5040808,7.3884687,-5.2217274,117.4732819,-26.2519093,-250.1374054,-2.0135133,-0.5698171,6.8066807,-31.6564884,91.4122162,-40.6183205
3080,-14.9732609,7.5632443,-5.6742291,79.4885483,-24.3358784,-250.1374054,-4.7141590,-0.2130829,8.1570034,-43.1603050,112.8625946,-43.2366409
3090,-18.3993454,7.0101867,-5.1283536,42.6641235,-38.1603050,-250.1374054,-12.4569674,-0.1699875,12.6006193,-52.0152664,77.8702316,-29.5267181
3100,-19.6131992,6.0932121,-4.7021880,3.8320611,-43.1221390,-112.1450348,-7.6230993,-0.5482694,11.5735121,-53.5496178,20.7557259,-6.7328243
3110,-18.6962261,5.9136481,-4.7740140,-40.0000000,-36.3358765,22.6488552,-3.4548154,-0.8331779,9.1769285,-57.2748108,70.1526718,12.5038166
3120,-16.1703548,6.7540083,-3.9432299,-88.5190811,-13.9694653,136.7022858,-2.4899571,-0.5339043,9.7180147,-59.3969460,100.8473282,27.6259537
3130,-14.1113529,6.0429344,-2.5426292,-128.6030579,11.6412210,231.4580078,-1.7597293,-0.5482694,9.1027079,-53.4580154,102.3816757,36.3511467
3140,-12.3109226,5.5952206,-1.2138541,-154.8320618,32.2137413,250.1297760,-0.3519458,-1.1348459,6.3469963,-48.3358765,169.7633514,38.9236641
3150,-10.6900558,5.4635406,-0.7158626,-172.3740387,43.4885483,250.1297760,-1.3239868,-0.0550664,4.9440012,-45.0458031,231.9694672,35.6793900
3160,-8.7459745,5.4324160,0.0981618,-177.5954132,55.3282433,250.1297760,-19.6131992,-10.5583754,10.1705170,24.0763359,250.1297760,71.5190811
3170,-5.3270717,4.7357068,0.3112446,-176.5038147,62.1603050,250.1297760,-8.4490948,0.5602403,9.2080526,76.2442780,-68.4122162,81.3969498
3180,-2.0757623,3.7349355,0.9169745,-176.0152740,56.6870232,250.1297760,-2.5354466,1.3575054,4.1994085,70.4427490,-37.6641235,48.9465637
3190,1.6759326,3.3805954,1.3311694,-175.3969421,41.4122124,250.1297760,-2.8323262,2.0518203,4.4220681,61.7175560,-2.7786260,18.8320618
3200,6.9862447,3.4236910,4.6997938,-163.8167877,35.0763359,250.1297760,-19.6131992,-6.3589673,19.6126022,134.1755676,-250.1374054,59.9083977
3210,14.1281118,4.4029145,7.8170285,-131.2595367,24.1984730,250.1297760,-4.2281384,2.6383967,7.5704269,55.3740463,-250.1374054,6.1755724
3220,19.6126022,5.3462253,10.8432837,-89.1984711,-13.1832066,250.1297760,-4.5800843,-0.8930327,9.3924055,-17.8091602,-250.1374054,-55.6564903
3230,19.6126022,4.5633249,12.5982246,-35.8549614,-42.2290077,88.4503784,-0.8164186,-1.7333932,7.6230993,-32.4503822,-163.8015289,-85.3816757
3240,19.6126022,3.1076579,13.2422619,26.5343513,-54.6641235,-87.8931274,-14.7793312,-2.0326669,14.5997677,43.8625946,-250.1374054,-39.1908379
3250,19.6126022,2.8706331,13.6612453,95.1450348,-71.7404556,-240.4656525,-1.3575054,-3.0789278,7.3405848,36.5190849,-119.4961853,-43.7175560
3260,15.8878412,2.0494261,12.5958309,161.9694672,-87.2442780,-250.1374054,-2.9568241,-2.4205256,8.4586716,28.8549614,14.8396950,-49.7175560
3270,11.7913828,0.6105183,9.8377247,222.0839691,-86.6870193,-250.1374054,-6.2775645,-2.2768741,13.6899757,56.3664131,71.0381699,-33.1908379
3280,7.3693151,0.2059003,6.7133074,250.1297760,-80.7022934,-250.1374054,-4.7261300,0.4884146,8.2312231,32.8702278,179.0992432,-40.2366409
3290,3.5050933,0.5674229,3.2967989,250.1297760,-64.1755753,-250.1374054,-3.1483591,1.8890154,6.6127515,51.1526718,131.0763397,-24.0458012
3300,-1.0893562,2.0542145,0.0909792,250.1297760,-41.1755714,-250.1374054,-10.0029240,0.7948709,16.2685165,61.5877876,34.6335869,-18.7175579
3310,-4.2951760,3.3853838,-3.0525916,245.1679382,-18.3282452,-250.1374054,-5.8561873,1.2569494,8.0708122,40.6793900,48.4885483,-23.9236641
3320,-6.7971039,3.7014170,-5.7292953,201.4503784,-5.9465647,-250.1374054,-1.8339491,-0.9361281,5.2049680,3.7938931,77.4961853,-27.1908398
3330,-11.0922794,4.3286943,-7.2807302,146.0534363,-8.8778629,-250.1374054,-3.9312592,-1.7908537,11.3987360,-4.1679387,17.6259537,-4.0458016
3340,-19.2684364,3.8091555,-7.7140784,83.3816757,-38.8396950,-250.1374054,-4.4651632,0.0885850,8.0612354,1.9694656,16.2748089,12.0992365
3350,-19.6131992,4.2592630,-7.5129666,28.2290077,-56.7404594,-244.9313049,-4.7452836,0.2274480,7.2783360,-9.0839691,-31.2519093,6.0381680
3360,-19.6131992,5.4731169,-7.5943689,-23.9007626,-45.2824440,-93.8931274,-4.8218975,0.0383070,7.6733770,-5.0839696,-88.1221390,9.9389315
3370,-19.6131992,5.5449429,-7.8074517,-74.2366409,-10.1526718,77.4198456,-4.5824785,0.0957676,8.9255381,-6.5954199,-110.3893127,8.2213745
3380,-19.6131992,5.1331420,-6.9383612,-120.6106873,32.7328262,250.1297760,-4.3239059,0.0502780,9.9263096,-4.7480917,-105.4427490,7.9465647
3390,-19.6131992,5.2217274,-5.8346395,-161.5038147,85.5496216,250.1297760,-3.8666160,0.0478838,9.2200232,-4.2900763,-108.1679382,7.0763359
3400,-15.5335016,4.0150557,-5.2289100,-200.4580078,135.1603088,250.1297760,-4.1850433,-0.1604107,10.5607700,-3.9312978,-96.7404556,6.4961834
3410,-11.4346485,2.4923513,-4.4771342,-242.3816833,166.7786255,250.1297760,-4.2616572,-0.0071826,10.2734671,-4.9389315,-73.4656525,7.9923663
3420,-7.8768835,0.4094064,-3.0980811,-250.1374054,173.1526642,250.1297760,-3.9480183,-0.0071826,10.5080976,-6.4045801,-54.0152664,11.4885492
3430,-3.4883339,-1.6136837,-1.1252691,-250.1374054,156.4656525,250.1297760,-3.7684543,0.0143651,10.0436249,-7.5343513,-44.1297722,13.8625956
3440,2.9496415,-1.9057748,2.4253139,-250.1374054,106.9389343,250.1297760,-3.7109938,0.0526722,9.3133974,-8.4580154,-52.0228996,16.7709923
3450,11.3580351,-0.0694315,6.6630292,-250.1374054,34.2137413,250.1297760,-3.7133877,0.1149211,9.2750902,-9.1755724,-64.1068726,19.1068707
3460,19.6126022,3.0023136,10.6134415,-186.8854980,-22.4122143,250.1297760,-3.7062054,0.2801202,9.9526453,-9.4580154,-70.2061081,19.7633591
3470,19.6126022,3.8426740,14.2693691,-96.7709961,-31.7099228,232.0229034,-3.0454090,0.3016679,10.5847120,-8.6717558,-60.8931313,18.0763359
3480,19.6126022,1.6304430,13.2542324,-16.7557259,-33.7099228,-24.8396950,-2.9017577,0.2489957,10.0675669,-6.8244276,-56.9694672,15.1603050
3490,19.6126022,0.8307837,12.2247314,31.0610695,-79.8015289,-240.2137451,-2.9256995,0.1340746,10.3333216,-6.2061067,-56.5572510,12.0610685
3500,17.1759148,0.6919208,11.8512383,67.8702316,-141.3435059,-250.1374054,-2.5929072,0.1963235,10.8696203,-4.2748094,-43.2519073,9.5572519
3510,13.1536770,0.8978211,10.3548698,108.5114517,-165.4351196,-250.1374054,-2.6168492,0.0933734,10.6661139,-3.5877862,-31.2748089,7.6793895
3520,8.2000990,0.9576758,7.8744893,145.5419922,-154.1068726,-250.1374054,-3.1004753,0.0718257,9.6605549,-3.2290077,-33.3129768,6.3053436
3530,3.1914546,1.7022687,5.7915444,169.2900696,-133.6564941,-250.1374054,-3.5457945,0.0718257,8.2336178,-3.0839694,-61.3664131,6.3893127
3540,-1.8938038,3.7133877,3.3446827,178.5343475,-112.7862625,-250.1374054,-3.5481887,0.0526722,8.3413563,-2.6641221,-100.8702316,5.5114503
3550,-5.6454988,5.9567432,1.3862357,171.4885559,-86.2061081,-250.1374054,-3.2991931,0.1292862,8.6095057,-1.8931298,-141.6412201,4.1679387
3560,-8.1953106,6.2631998,-0.0885850,160.5877838,-51.3816795,-250.1374054,-2.3271523,0.2801202,9.2080526,-0.7862595,-162.8396912,1.1068702
3570,-8.4754305,7.0030041,-1.9871773,134.4885559,-23.9847336,-250.1374054,-1.9871773,0.1101327,8.4538832,0.0000000,-198.3129730,-1.5801526
3580,-11.2383251,7.2567883,-3.3590479,99.0000000,-16.0839691,-250.1374054,-2.5713594,0.1987177,5.9567432,0.5267175,-250.1374054,-4.2900763
3590,-15.1959200,7.2376347,-3.7995787,62.2213745,-25.6870232,-244.7862549,-2.6192431,0.8690908,2.4492557,-43.9160309,-250.1374054,-17.2213745
3600,-18.5094795,6.6007805,-3.8139439,26.0916023,-32.6412201,-142.2213745,-8.8656836,-10.4123297,19.6126022,120.0916061,-250.1374054,4.5725193
3610,-19.6131992,6.4355812,-3.4524212,-6.1984735,-30.0534344,-20.3435116,14.8296099,-3.6798692,19.6126022,-15.8778629,-171.6564941,-20.6183205
3620,-19.2995605,7.0915890,-3.1268115,-34.6717567,-7.9007635,107.3358765,5.6263452,-1.1851238,4.5800843,10.1526718,-81.6412201,-30.1832066
3630,-17.3674507,7.1897511,-2.8849983,-63.6946564,30.7557259,231.1145020,0.9169745,-2.6719155,0.4908088,30.7022896,100.0687027,-38.7938919
3640,-14.7649660,6.3709383,-2.9017577,-97.6030502,71.3664093,250.1297760,6.0572991,-1.2904681,3.1555417,5.1145039,250.1297760,-37.0000000
3650,-12.5599174,5.1379304,-2.8371146,-137.7633514,107.7786255,250.1297760,2.4612267,1.1923064,7.0748301,-14.3282442,103.7251892,-21.0381680
3660,-10.1848822,3.6583214,-1.8650736,-178.5954132,133.5267181,250.1297760,-8.5472565,1.6112895,16.2541523,-5.8473282,2.2595420,-9.8702288
3670,-7.2208753,1.9943599,-0.2082945,-207.9465637,146.7251892,250.1297760,-1.3622938,-0.1244979,8.8177996,10.8549614,-96.1984711,-2.2137403
3680,-4.2879934,0.6512195,1.8243724,-223.9694672,146.3358765,250.1297760,-0.6584021,0.0215477,10.1920643,16.1297703,-166.4274750,-1.3053435
3690,-0.1292862,0.3064562,4.0413918,-223.2137451,135.6030579,250.1297760,4.9918852,3.8283088,2.2361729,-7.4274807,39.6641235,-6.2595420
3700,3.8809812,0.4046180,5.7532372,-203.2595367,116.2671738,250.1297760,-1.0941446,0.0454896,10.9294748,-4.5343513,7.1374044,-2.5419848
3710,8.4610653,1.5873476,7.5823979,-170.7862549,116.9007645,250.1297760,5.5976148,1.9273225,10.1944590,-6.5648856,-21.6564884,-1.8167939
3720,13.1249466,2.6336083,8.7723103,-129.0915985,111.1603088,250.1297760,0.1747758,0.0287303,11.4322548,0.3969466,2.0000000,-2.0076337
3730,17.1830978,3.6678982,9.8712435,-79.9542007,96.8473282,250.1297760,0.8116302,-0.0119709,10.7307568,0.0916031,-2.4045801,-2.6564887
3740,19.3953285,3.8714044,9.6342182,-27.6564884,78.0229034,250.1297760,0.0837966,0.0622489,10.9510221,0.0916031,-3.9847329,-2.1221373
3750,19.5772877,3.6056492,9.3086090,17.3893127,57.4045792,119.2671738,0.2944853,0.1244979,10.8744087,0.1297710,-2.9236641,-2.3816793
3760,17.7289734,3.5577655,9.7347746,51.4045792,11.5343513,-4.2519083,0.4213773,0.0957676,10.7762470,-0.1145038,-3.4809160,-1.8396946
3770,16.3978043,3.2896163,9.4307127,74.7633591,-57.5725174,-115.4885483,0.2346306,0.1364688,10.8169479,0.1450382,-3.4885497,-2.6488550
3780,15.1240950,3.2297616,8.8656836,93.7786255,-98.2748108,-212.1755676,0.3519458,0.0766141,10.7331514,0.2061069,-3.6106870,-2.5419848
3790,14.2717638,3.8259149,8.7651272,113.9770966,-133.8167877,-250.1374054,0.4357425,0.0957676,10.5895004,0.1450382,-3.6717558,-2.8167939
3800,13.4601336,3.6942344,8.3605099,136.6106873,-164.2366486,-250.1374054,0.2968795,0.1292862,10.8049774,0.0534351,-3.8702290,-2.9465649
3810,11.8033543,3.5074875,6.8138633,156.4809113,-166.5267181,-250.1374054,0.3639168,0.0861908,10.6278067,0.1984733,-3.6030533,-2.1450381
3820,8.8632889,3.9073172,5.0062504,167.1908417,-150.1374054,-250.1374054,0.3543400,0.0622489,10.7930059,0.1603053,-3.5648854,-2.4427481
3830,6.0309634,4.5417776,3.9432299,168.7633514,-130.9084015,-250.1374054,0.3256098,0.1244979,10.7020273,0.0305344,-3.5419848,-2.2137403
3840,3.8307030,5.1929970,2.6288199,163.5572510,-103.5190811,-250.1374054,0.3663110,0.0694315,10.8025827,0.1984733,-3.4503818,-2.2748091
3850,1.6184721,5.6766233,1.2210367,152.4503784,-70.6106873,-250.1374054,0.3615226,0.1005560,10.7594872,0.1145038,-3.5648854,-2.8625953
3860,-0.7086801,6.0189924,-0.4309541,136.0305328,-27.2824421,-250.1374054,0.3303981,0.0981618,10.8073711,0.1068702,-3.8167939,-2.0076337
3870,-2.6360025,6.7564025,-1.4484847,115.5419846,9.9236641,-250.1374054,0.2968795,0.0694315,10.6828737,0.0610687,-3.8625953,-2.7633588
3880,-3.8211265,6.9120250,-2.3630650,94.7557220,41.6488533,-250.1374054,0.3758878,0.0981618,10.6828737,0.1145038,-3.6106870,-2.3358779
3890,-5.2839761,6.8545642,-3.0118904,74.7175598,68.4198456,-250.1374054,0.3615226,0.0646431,10.7092094,0.2442748,-3.6412213,-2.1984732
3900,-8.3317795,6.6654234,-3.0190730,57.2366409,80.5801544,-250.1374054,0.2849085,0.1077385,10.6948442,0.0152672,-3.7938931,-1.9312977
3910,-12.7825775,5.4180508,-2.7078283,45.3740463,55.4656487,-250.1374054,0.3184272,0.1268920,10.7211800,0.1297710,-3.8473282,-2.4809160
3920,-15.9309368,4.9631548,-2.5785420,38.3816795,17.0000000,-202.8167877,0.4070122,0.0718257,10.7475166,0.1450382,-3.6106870,-2.2977099
3930,-17.6284161,6.3254485,-3.1363883,32.0076332,-21.0000000,-143.1221313,0.3758878,0.0574605,10.8097658,0.0687023,-3.6412213,-2.9389312
3940,-17.5134964,7.1322904,-3.7588775,21.6106873,-47.9236641,-83.2824402,0.2920911,0.0933734,10.7355452,0.1068702,-3.7022901,-2.2366412
3950,-17.6020813,7.2711535,-4.6519103,2.9694657,-46.7938919,-14.1755724,0.3256098,0.0718257,10.6661139,-0.0610687,-3.7099237,-2.4045801
3960,-16.9364967,7.1370788,-5.3486195,-29.4809170,-22.2824421,71.2671738,0.3399749,0.1149211,10.6397781,0.0839695,-3.7557251,-2.2442749
3970,-15.5311069,6.9048424,-5.1020179,-69.5877838,7.0000000,162.6106873,0.3399749,0.0861908,10.7379398,-0.0381679,-3.7938931,-2.4198472
3980,-15.1935263,6.4978304,-4.4268565,-109.5954208,38.0305328,250.1297760,0.3303981,0.0598547,10.6709023,0.1526718,-3.6641221,-2.4809160
3990,-14.6476507,5.2839761,-3.6583214,-143.8931274,71.0534363,250.1297760,0.3447633,0.1101327,10.7403336,-0.0152672,-3.6335878,-2.1145039
4000,-12.6556854,4.6255741,-3.0286496,-172.8167877,97.8549652,250.1297760,0.3519458,0.1101327,10.6589317,0.0076336,-3.8931298,-2.2442749
4010,-10.0196829,3.6487448,-2.4755919,-194.7175598,114.3740463,250.1297760,0.3710994,0.0790083,10.7451220,-0.0305344,-3.8778627,-2.0305343
4020,-7.2807302,2.0015423,-1.6663558,-213.5572510,130.3129730,250.1297760,0.3399749,0.1077385,10.8049774,0.1603053,-3.5954199,-2.2213740
4030,-3.7014170,0.4932030,0.0407012,-227.8473358,140.0076294,250.1297760,0.3351865,0.1244979,10.8337069,0.0916031,-3.5648854,-1.8625954
4040,1.0773853,0.4477134,2.5426292,-230.1297760,138.4274750,250.1297760,0.3136388,0.0646431,10.7187862,0.1221374,-3.7480917,-2.2671757
4050,7.3046722,1.2880739,5.5305777,-211.7709961,126.5877838,250.1297760,0.3495516,0.1053443,10.7810354,0.0229008,-3.6259542,-1.7709924
4060,14.0921993,2.4109488,8.8800488,-172.6564941,114.3587799,250.1297760,0.2896969,0.1436514,10.7355452,0.0381679,-3.7480917,-2.3816793
4070,19.5940456,3.5936785,11.6525202,-110.3740463,91.8015289,250.1297760,0.3447633,0.1005560,10.6900558,0.0076336,-3.7633588,-2.1526718
4080,19.6126022,3.5074875,12.8544035,-39.4351158,60.4274826,180.5419922,0.3615226,0.0837966,10.7068148,0.1603053,-3.8396947,-2.9541984
4090,19.6126022,2.9592183,12.3971128,32.0228996,15.8015270,-1.2290076,0.3399749,0.0885850,10.7116032,0.0458015,-3.7862597,-2.3816793
4100,19.2420998,2.5091105,10.9175043,86.8244247,-46.1221390,-155.9770966,0.3280039,0.0526722,10.7618818,-0.0458015,-3.7786260,-2.0687022
4110,15.3754845,2.4133430,9.7515335,122.3816757,-113.5038147,-250.1374054,0.3399749,0.0981618,10.7211800,0.1068702,-3.8320611,-2.7251909
4120,11.7171631,3.1220231,8.2264347,142.9541931,-175.3664093,-250.1374054,0.3639168,0.0885850,10.7666702,0.1221374,-3.8091602,-2.4961832
4130,8.9446917,3.9839313,6.8162575,152.8549652,-209.7633514,-250.1374054,0.3303981,0.1244979,10.7403336,0.1145038,-3.6488550,-1.8778626
4140,6.2201042,4.8817525,5.0014620,154.6259613,-213.5267181,-250.1374054,0.2753318,0.0454896,10.7475166,0.0534351,-3.7862597,-2.4122138
4150,3.8714044,6.0142040,3.0908985,146.5038147,-193.6946564,-250.1374054,0.3782819,0.0359128,10.7546988,0.1145038,-3.8244274,-2.3511450
4160,1.6855093,7.1658092,1.4101776,128.6793823,-159.7328186,-250.1374054,0.2825144,0.0790083,10.7714586,0.1145038,-3.8167939,-2.4351146
4170,-0.4788379,7.9894104,-0.2681492,104.5038147,-117.1526718,-250.1374054,0.2106887,0.1532281,10.6565371,0.1908397,-3.7404580,-2.5190840
4180,-2.3008161,8.4969788,-1.3096216,76.0305328,-68.7099228,-250.1374054,0.3112446,0.1053443,10.6900558,0.1832061,-3.9236641,-2.5954199
4190,-3.9336534,9.0907373,-1.4389079,51.3206100,-22.0916023,-250.1374054,0.2873027,0.1484398,10.7714586,0.0687023,-3.8244274,-2.1832061
4200,-5.1618724,9.2511482,-1.4604555,32.1450386,17.3893127,-194.8396912,0.3040621,0.0742199,10.6852674,0.0839695,-3.7480917,-2.0229008
4210,-6.2057390,9.1074963,-1.3718705,18.9694653,49.6717567,-136.6030579,0.3567342,0.1628049,10.7211800,0.1297710,-3.8320611,-2.2900763
4220,-7.1562324,9.0021524,-1.4915800,10.2137403,70.8167953,-82.6793900,0.3567342,0.0837966,10.7163916,0.1526718,-3.7633588,-2.4503818
4230,-8.5496502,8.7172441,-1.5370697,3.6717558,74.4503784,-33.2748108,0.3399749,0.1125269,10.7618818,0.2213740,-3.6564887,-2.2061069
4240,-10.0268650,8.4203644,-1.7118455,-0.5725191,65.3129807,10.4580154,0.3519458,0.1316804,10.7451220,0.1297710,-3.8473282,-2.6641221
4250,-11.1329813,8.6526003,-2.0997043,-6.3129773,51.0687027,51.8167953,0.3112446,0.0383070,10.7451220,0.1145038,-3.7251909,-2.5419848
4260,-11.0850973,9.4187412,-2.5857246,-16.4122143,40.0152664,89.0534363,0.3519458,0.1029501,10.6589317,0.0229008,-3.6870229,-2.2366412
4270,-10.3333216,9.6222477,-3.3135581,-35.8702278,42.1374054,119.9236679,0.3016679,0.0861908,10.8025827,0.1526718,-3.9847329,-2.2748091
4280,-10.1609402,9.5959110,-3.8498566,-67.4427490,53.6183205,154.8167877,0.3423691,0.0933734,10.6541433,-0.0076336,-3.6870229,-2.3282442
4290,-10.9605989,8.9279327,-4.2640514,-106.8396912,66.8320618,203.1374054,0.3351865,0.1149211,10.7163916,0.0992366,-3.6488550,-2.2519083
4300,-10.7570934,7.8601241,-3.7564833,-146.3053436,82.1145020,250.1297760,0.3639168,0.0885850,10.7163916,0.0305344,-3.8549619,-2.5572519
4310,-9.2487535,6.7947097,-2.4157372,-175.6412201,93.2595444,250.1297760,0.3615226,0.0694315,10.7163916,-0.0458015,-3.7480917,-2.4198472
4320,-7.4387465,5.8466105,-1.2737088,-192.8244324,102.4122162,250.1297760,0.3495516,0.0335187,10.7546988,0.2061069,-3.8015268,-2.5725191
4330,-5.0469513,4.6519103,-0.2178712,-203.2061005,113.6183243,250.1297760,0.3734936,0.0191535,10.7762470,0.1068702,-3.6641221,-2.7557251
4340,-2.4181314,3.1938488,0.9169745,-210.0992432,132.3435059,250.1297760,0.3639168,0.1221037,10.7810354,-0.1603053,-3.9694657,-2.8015268
4350,2.3151813,2.4301023,3.8498566,-206.8931274,140.6030579,250.1297760,0.3399749,0.0742199,10.7116032,0.0229008,-3.7404580,-2.2748091
4360,8.5520449,2.2577207,6.9694853,-184.8625946,123.4885483,250.1297760,0.3734936,0.1340746,10.7810354,0.0000000,-3.8320611,-2.4427481
4370,16.2302094,3.0334380,10.2902260,-138.3816833,83.2061081,250.1297760,0.3567342,0.1101327,10.7068148,0.1374046,-3.8854961,-2.4656489
4380,19.6126022,3.2560976,13.1943779,-69.8167953,28.9083977,200.9160309,0.3136388,0.1077385,10.7786407,0.0458015,-3.9160306,-2.4656489
4390,19.6126022,3.0693510,13.5511122,6.0610685,-24.1450386,27.8473282,0.3447633,0.1412572,10.7834291,0.0458015,-3.9541984,-2.4656489
4400,19.6126022,2.7413468,12.9501705,68.0763321,-70.1526718,-140.6183167,0.2944853,0.0766141,10.6996326,0.0381679,-3.7251909,-2.2290077
4410,19.6126022,2.4085546,11.8727856,109.7633591,-125.1526718,-250.1374054,0.3303981,0.1173153,10.6756907,0.0076336,-3.8854961,-2.8778627
4420,15.8471403,2.8395088,10.1944590,135.0000000,-177.0534363,-250.1374054,0.3303981,0.0359128,10.7427282,0.2213740,-3.7328243,-1.9541985
4430,12.1337519,3.7085996,9.0021524,152.9618378,-205.9160309,-250.1374054,0.2298422,0.0454896,10.7810354,0.0610687,-4.0610685,-2.6259542
4440,9.1553802,4.0078731,7.4626884,166.1221313,-207.5954132,-250.1374054,0.3040621,0.0502780,10.6924505,0.0305344,-3.9541984,-2.3282442
4450,5.3725610,4.4843168,5.4348102,171.2213745,-192.3969421,-250.1374054,0.3040621,-0.0023942,10.6158361,0.1374046,-3.8549619,-2.3664122
4460,1.9440818,4.8410511,3.2393384,164.0610657,-166.0305328,-250.1374054,0.2920911,0.0502780,10.6589317,0.0763359,-3.8778627,-2.4503818
4470,-0.9409165,5.5042415,1.2832855,148.1450348,-126.5954208,-250.1374054,0.3782819,0.0861908,10.7187862,0.2519084,-3.8320611,-2.8854961
4480,-3.6200144,6.2248926,-0.6679789,123.6946564,-74.7022934,-250.1374054,0.2777260,0.1029501,10.6661139,0.1297710,-3.8396947,-2.2595420
4490,-5.8083038,6.8282285,-2.3558824,93.8396912,-24.6793900,-250.1374054,0.3303981,0.1005560,10.6685085,0.0687023,-3.9007633,-2.2442749
4500,-8.2551651,7.5967631,-4.0749106,56.6030540,20.7786255,-250.1374054,0.3782819,0.0383070,10.7642756,0.2977099,-3.9541984,-2.5267177
4510,-11.4322548,8.1929159,-5.4228392,11.0610685,61.4427490,-250.1374054,0.2849085,0.0646431,10.6972389,0.1068702,-3.7099237,-2.1679389
4520,-15.1360655,8.7723103,-6.3900914,-40.3893127,101.0763321,-210.3282471,0.3447633,0.0670373,10.7092094,0.1832061,-3.8625953,-2.2213740
4530,-17.9109306,8.7555504,-6.4044566,-92.6030502,127.6488571,-102.4656525,0.2753318,0.1173153,10.8217363,-0.0152672,-3.5572519,-2.6106870
4540,-19.2229462,7.9846220,-5.5473371,-136.4961853,137.4503784,20.0763359,0.3710994,0.1197095,10.7499104,0.1145038,-3.9160306,-2.3816793
4550,-19.6131992,7.3405848,-4.0916696,-169.2900696,138.5114441,152.7633514,0.3040621,0.1005560,10.7283630,0.0992366,-3.8015268,-2.7022901
4560,-18.4663830,6.8234401,-2.7102225,-188.8244324,143.0534363,250.1297760,0.2920911,0.1173153,10.7068148,0.1145038,-3.7709923,-2.5877862
4570,-15.9907913,6.1794028,-2.1356170,-202.8396912,149.9618378,250.1297760,0.2801202,0.0430954,10.7139978,0.2061069,-3.9770992,-2.1908398
4580,-12.8424320,4.8913293,-1.4820032,-217.0076294,155.3282471,250.1297760,0.3734936,0.0885850,10.7666702,0.1374046,-3.8091602,-2.5190840
4590,-9.7204094,3.3877780,-0.6272776,-231.0763397,156.1145020,250.1297760,0.3112446,0.1101327,10.6589317,0.1068702,-3.7633588,-2.5038168
4600,-6.6151457,1.9632354,0.8427547,-239.2366486,147.2595367,250.1297760,0.3710994,0.1029501,10.6230183,0.1297710,-3.7175572,-2.9541984
4610,-3.0358322,0.8427547,2.8107784,-235.2671814,123.0839691,250.1297760,0.3423691,0.0718257,10.7211800,0.0610687,-3.9007633,-2.2213740
4620,2.2385671,0.3112446,5.6287394,-211.9236603,73.7480927,250.1297760,0.3327923,0.1292862,10.7187862,0.1221374,-3.8702290,-2.1984732
4630,8.5472565,1.1300575,8.6502066,-165.0152740,-0.6259542,250.1297760,0.3112446,0.0837966,10.8073711,0.0076336,-3.8549619,-2.2595420
4640,14.5638542,1.6448082,9.6270361,-101.7099228,-71.6793900,250.1297760,0.3567342,0.0861908,10.6876621,0.0610687,-3.9236641,-2.6793892
4650,19.2468891,2.1451938,10.1298151,-38.5572510,-120.2213745,151.1755676,0.3327923,0.0694315,10.6565371,0.1068702,-3.9083970,-2.7557251
4660,19.6126022,2.7748656,10.7546988,14.0305347,-156.9618378,-33.0152664,0.3447633,0.0718257,10.7690639,0.1374046,-3.9160306,-2.1145039
4670,19.6126022,3.2944047,10.8432837,50.9618340,-188.9465637,-198.0839691,0.3088504,0.1221037,10.7642756,0.1832061,-3.9541984,-2.6259542
4680,18.9260674,3.5721307,11.0420017,82.3587799,-215.2748108,-250.1374054,0.3495516,0.1484398,10.6876621,0.0458015,-3.8625953,-2.8396947
4690,15.6747580,3.3398943,10.2567072,114.2519073,-225.5343475,-250.1374054,0.3495516,0.1053443,10.7546988,0.0381679,-3.8702290,-2.5954199
4700,10.6206245,2.6767037,8.3222027,139.6335907,-217.6793823,-250.1374054,0.3567342,0.0670373,10.6589317,0.0916031,-3.6564887,-2.4351146
4710,5.4994531,2.9280937,6.7755561,156.3053436,-204.2290039,-250.1374054,0.3232156,0.0909792,10.7930059,0.2748092,-3.7557251,-2.5725191
4720,1.5681942,3.4763632,5.3893204,164.1297760,-187.4732819,-250.1374054,0.3830703,0.1173153,10.7283630,0.1145038,-3.8244274,-2.1984732
4730,-1.5586174,4.0725164,3.3949606,164.0000000,-158.5877838,-250.1374054,0.3567342,0.0598547,10.6565371,0.1221374,-3.7786260,-2.4732823
4740,-4.8218975,4.8985114,1.6232605,154.8931274,-117.5343475,-250.1374054,0.3232156,0.0861908,10.8313131,0.0381679,-3.9160306,-2.3587787
4750,-8.8058290,5.3246775,0.3974355,140.6488495,-89.6335907,-250.1374054,0.2849085,0.0454896,10.8313131,0.0839695,-3.8473282,-2.6717558
4760,-13.6420918,6.2009506,-1.0199248,123.4580154,-72.2366409,-250.1374054,0.2394189,0.1125269,10.6924505,0.1984733,-4.0076337,-2.6946564
4770,-17.8007984,7.5033898,-2.0829449,102.4809189,-53.0458031,-244.6717529,0.3639168,0.0957676,10.6397781,0.3129771,-4.0305343,-1.9541985
4780,-19.6131992,8.6238708,-3.7971845,73.5267181,-19.0763359,-110.0534363,0.3710994,0.0885850,10.6589317,0.1450382,-3.9770992,-2.2900763
4790,-19.6131992,9.2703018,-5.6000090,32.1068687,32.1832047,47.0610695,0.3375807,0.0191535,10.7163916,0.1832061,-3.6259542,-2.3282442
4800,-19.6131992,8.6693602,-7.3501616,-30.6870232,91.0305328,215.1068726,0.3591284,0.1436514,10.8169479,0.0687023,-3.8015268,-2.2900763
4810,-17.5948982,6.8234401,-7.3094602,-108.6412201,145.4045868,250.1297760,0.2920911,0.0814024,10.7044210,0.0458015,-4.0381680,-2.4122138
4820,-15.1480370,4.7596488,-5.4659348,-188.8778687,201.2748108,250.1297760,0.3519458,0.1053443,10.6732969,0.0610687,-3.7251909,-2.6717558
4830,-12.1768475,1.6663558,-3.1339941,-250.1374054,244.9770966,250.1297760,0.2992737,0.0622489,10.8959560,0.0534351,-3.8396947,-2.2290077
4840,-8.1234846,-1.8578910,-0.0742199,-250.1374054,250.1297760,250.1297760,0.3184272,0.0359128,10.6661139,0.1755725,-3.8320611,-2.7175572
4850,-2.9592183,-4.1611013,3.8426740,-250.1374054,250.1297760,250.1297760,0.2896969,0.0718257,10.7499104,0.1068702,-3.8473282,-2.1755726
4860,7.4555058,-2.4708035,9.4785957,-250.1374054,211.5190887,250.1297760,0.3687052,0.1292862,10.7331514,0.1297710,-3.8396947,-2.6946564
4870,18.2293587,1.1396341,16.2206345,-222.3740387,118.8549652,250.1297760,0.3734936,0.1388630,10.7642756,0.1068702,-3.9541984,-2.4274809
4880,19.6126022,2.7605004,18.1718979,-92.7175598,42.3969460,250.1297760,0.3663110,0.0981618,10.7187862,0.0000000,-3.7786260,-2.3740458
4890,19.6126022,1.0103480,14.3579540,28.6641216,21.5954189,124.4656525,0.2849085,0.0646431,10.7546988,0.0458015,-3.8015268,-1.9312977
4900,19.6126022,0.4596844,12.2103662,101.4580154,-36.0228996,-137.7938995,0.3591284,0.1173153,10.7762470,0.1450382,-3.8396947,-2.6030533
4910,19.6126022,0.9265513,10.2351599,136.7786255,-142.4045868,-250.1374054,0.3471575,0.0814024,10.7594872,0.1221374,-3.7404580,-2.4427481
4920,16.2158451,1.3239868,7.6661944,152.3893127,-193.9694672,-250.1374054,0.3710994,0.1053443,10.7762470,0.0000000,-3.8549619,-2.6030533
4930,10.1896706,2.0159075,5.6167684,160.0763397,-188.9694672,-250.1374054,0.3471575,0.1604107,10.6325951,0.0992366,-3.8320611,-2.5877862
4940,4.6926112,3.5553713,4.1802549,160.0992432,-167.1526642,-250.1374054,0.2777260,0.0861908,10.8145542,0.0305344,-3.9160306,-2.1603053
4950,-1.1204807,5.2935529,2.8802099,156.4503784,-137.6106873,-250.1374054,0.2322364,0.0646431,10.6852674,0.2671756,-3.9236641,-2.5648854
4960,-5.1235652,6.6486640,1.2737088,150.5190887,-94.7709961,-250.1374054,0.2609667,0.1029501,10.7092094,0.0534351,-3.7480917,-2.5648854
4970,-7.6470413,7.4842362,-0.8164186,137.2824402,-46.6106873,-250.1374054,0.3303981,0.0191535,10.6828737,0.1755725,-3.8931298,-2.0992367
4980,-9.0811605,8.5304966,-2.8730273,112.7328262,-4.5954199,-250.1374054,0.3327923,0.1125269,10.7834291,0.1526718,-3.8091602,-2.6106870
4990,-11.3101511,9.6749191,-4.4938936,75.7251892,31.7557259,-250.1374054,0.3375807,0.0646431,10.6804790,0.0916031,-3.8015268,-2.2213740
5000,-15.0259333,10.5296450,-6.1339135,25.2213745,71.9847336,-139.7786255,0.2825144,0.1125269,10.6493549,-0.0076336,-3.8320611,-2.6870229
5010,-19.2612534,9.9334917,-6.3062949,-26.9847336,121.8091583,10.7328243,0.3351865,0.0957676,10.7379398,0.1526718,-3.9770992,-2.3893130
5020,-19.6131992,8.7028790,-6.5983863,-90.2900772,165.7175598,170.5801544,0.2322364,0.1268920,10.7020273,0.0763359,-3.9770992,-2.2442749
5030,-19.6131992,7.2855186,-5.6311336,-151.1374054,198.5267181,250.1297760,0.3543400,0.0622489,10.7044210,0.1679389,-3.7557251,-2.1984732
5040,-17.3099899,5.8753409,-3.9049230,-198.3358765,221.2137451,250.1297760,0.3208214,0.0957676,10.7930059,0.0610687,-3.6946564,-2.3816793
5050,-14.4130201,3.7109938,-2.0039365,-231.5419922,235.6183167,250.1297760,0.3232156,0.1029501,10.7092094,0.0076336,-3.7480917,-2.5038168
5060,-10.5966825,1.4772149,0.6727672,-250.1374054,235.2748108,250.1297760,0.3758878,0.0814024,10.7331514,0.2366412,-3.9389312,-2.5801528
5070,-5.8968887,-0.3040621,2.9400647,-250.1374054,203.1450348,250.1297760,0.3112446,0.0646431,10.7307568,0.2366412,-3.7938931,-2.2595420
5080,-0.5650287,-1.2617378,5.4156566,-244.4122162,135.5419922,250.1297760,0.2968795,0.0718257,10.7882175,0.0839695,-3.9236641,-1.8854961
5090,7.9487090,-0.4764437,8.7890692,-201.1603088,50.4274826,250.1297760,0.3639168,0.0933734,10.7379398,0.0381679,-3.7786260,-2.3893130
5100,17.5877151,1.2784972,11.3652172,-128.4274750,-22.3053436,250.1297760,0.3303981,0.0933734,10.6756907,0.1145038,-3.9312978,-2.6564887
5110,19.6126022,1.7908537,11.2981796,-45.5496178,-80.4351120,160.2671814,0.2466015,0.0909792,10.7882175,0.1908397,-3.7938931,-2.1603053
5120,19.6126022,1.6879035,10.2136126,16.7786255,-132.4885559,-64.3511429,0.3136388,0.0957676,10.7499104,0.1297710,-4.0229006,-2.7938931
5130,19.6126022,2.0973101,9.8305416,55.3282433,-195.6564941,-250.1374054,0.3303981,0.1268920,10.7690639,-0.0916031,-3.8167939,-2.5496182
5140,19.0840836,2.3534882,9.4378948,83.2519073,-229.8320618,-250.1374054,0.3040621,0.1077385,10.8193426,0.0992366,-4.0305343,-2.7099237
5150,14.8894644,2.4827745,8.0660238,106.0076370,-229.3358765,-250.1374054,0.3639168,0.1388630,10.5009146,-0.0534351,-3.8167939,-2.5572519
5160,9.2726955,2.9137285,6.8354111,124.8091583,-215.3816833,-250.1374054,0.4932030,0.1891410,10.6756907,0.1450382,-3.5343511,-2.4503818
5170,4.1180058,4.0844874,5.8059096,138.7862549,-199.2748108,-250.1374054,0.3471575,0.0742199,10.7858238,0.1297710,-3.7557251,-2.1679389
5180,-0.1460456,5.9423780,4.7357068,149.2748108,-177.8167877,-250.1374054,0.3040621,0.0239419,10.7666702,0.2137405,-3.8931298,-2.0229008
5190,-14.9038296,8.0396881,-4.6495161,-131.0610657,146.4274750,250.1297760,0.2896969,0.1532281,10.6565371,0.1908397,-3.9007633,-2.7022901
5200,-12.9358053,6.1650376,-3.1363883,-174.6564941,181.8702240,250.1297760,0.3687052,0.0957676,10.7187862,0.0534351,-3.8778627,-2.4885497
5210,-10.6852674,4.0940638,-1.4628497,-208.3740387,210.9160309,250.1297760,0.3854645,0.1388630,10.5751352,0.1603053,-4.0916033,-2.5954199
5220,8.7004843,2.1260402,8.0277176,-189.2442780,209.3129730,250.1297760,0.2896969,0.1197095,10.6373835,0.2442748,-4.1908398,-2.3969467
5230,12.7179346,2.3702476,7.9630742,-148.1984711,192.4122162,250.1297760,0.2561783,0.1149211,10.6565371,0.2061069,-3.9847329,-2.6335878
5240,15.3946381,2.2792683,7.4387465,-113.3816757,180.3893127,250.1297760,0.3375807,0.0454896,10.7762470,0.1068702,-4.0152674,-2.2519083
5250,17.6786957,2.7605004,8.0205345,-86.0076370,151.2519073,183.8625946,0.3782819,0.1173153,10.7690639,0.1145038,-3.7404580,-2.7099237
5260,17.9540272,3.1268115,9.2104464,-61.3358765,91.8778610,55.3587799,0.4094064,0.0981618,10.6493549,0.0763359,-3.7557251,-2.1450381
5270,16.7449608,2.9807658,8.4658537,-43.0763359,36.9465637,-62.5648842,0.4285599,0.0574605,10.7092094,0.1068702,-3.9312978,-2.6488550
5280,14.1783895,3.1315999,8.5688038,-28.7022896,-0.3282443,-150.1832123,0.2968795,0.1077385,10.7139978,0.1068702,-3.8473282,-2.3053436
5290,11.8368731,3.7564833,8.7148495,-14.6946564,-42.0687027,-208.2977142,0.3950413,0.1029501,10.6876621,0.1374046,-3.9007633,-2.7480917
5300,11.2479019,4.0318151,8.6238708,0.6717557,-70.9923630,-242.6717529,0.2489957,0.1556223,10.6924505,0.0687023,-3.8396947,-2.5648854
5310,11.3700056,4.3550305,9.4546537,22.6641216,-81.3129807,-250.1374054,0.3663110,0.0766141,10.6421719,0.2748092,-4.1832061,-2.2900763
5320,11.2311430,4.1754665,10.3381100,48.6335869,-85.5190811,-250.1374054,0.3232156,0.0814024,10.6302013,-0.0229008,-3.9618320,-2.1374047
5330,10.3093796,4.0796990,10.5272512,73.9770966,-82.5877838,-250.1374054,0.3112446,0.0526722,10.7235746,0.2061069,-3.6564887,-2.5801528
5340,9.5719690,4.4962878,10.3189564,92.6335907,-71.9923630,-250.1374054,0.3112446,0.0574605,10.8313131,0.1755725,-3.9465649,-1.7557251
5350,8.6526003,4.8171091,11.0491848,108.7862625,-66.6412201,-250.1374054,0.3232156,0.0885850,10.7546988,0.1221374,-3.9160306,-2.4580152
5360,8.2192526,4.1036406,10.8863792,122.5648880,-74.7099228,-250.1374054,0.4094064,0.0598547,10.7618818,0.0610687,-3.9083970,-2.2061069
5370,7.1753860,4.1227942,10.3237448,126.7175598,-78.6870193,-250.1374054,0.3327923,0.1268920,10.7666702,0.0992366,-3.9160306,-2.2595420
5380,5.9160423,4.4675574,9.5288744,132.5496216,-66.9465637,-250.1374054,0.3136388,0.1173153,10.7403336,0.0534351,-3.9083970,-2.7480917
5390,4.3909435,4.2305326,9.3780403,142.2213745,-47.6641235,-247.3129730,0.3447633,0.0622489,10.7235746,-0.0458015,-3.7404580,-1.8549619
5400,3.2201848,3.7947903,8.6765423,155.0915985,-37.3511467,-239.5954132,0.3423691,0.1460456,10.7977943,0.0229008,-3.8473282,-2.9389312
5410,1.8578910,3.6367738,7.5752153,170.3893127,-28.9465656,-237.5496216,0.3088504,0.0933734,10.7020273,-0.1145038,-3.7938931,-2.5877862
5420,0.9480990,3.5026991,5.7699966,188.2900696,-26.6717548,-242.4961853,0.4070122,0.1053443,10.7331514,0.0687023,-3.7251909,-2.4351146
5430,-0.1125269,3.6942344,3.6918402,199.8473358,-34.4885483,-250.1374054,0.3687052,0.1101327,10.7020273,0.1755725,-3.6335878,-2.3893130
5440,-1.0702027,4.3310885,0.5578461,199.8244324,-46.9618340,-250.1374054,0.3375807,0.0359128,10.6637201,0.1526718,-3.9541984,-2.6106870
5450,-2.4995339,4.7333126,-1.5011568,188.5725250,-64.6793900,-250.1374054,0.3232156,0.1460456,10.7020273,0.1832061,-3.9618320,-2.6030533
5460,-4.8673873,5.5257893,-2.9735832,168.7709961,-95.2748108,-250.1374054,0.3351865,0.1005560,10.7451220,0.0610687,-3.7862597,-2.1755726
5470,-7.2807302,6.2727766,-4.5274124,140.6106873,-127.1526718,-250.1374054,0.3615226,0.1388630,10.6158361,0.2137405,-3.8778627,-2.5801528
5480,-10.3237448,6.8449879,-5.3462253,106.0076370,-153.7786255,-250.1374054,0.3088504,0.0670373,10.6972389,0.1145038,-3.9236641,-2.2442749
5490,-13.1177645,7.5321202,-5.5976148,68.5496216,-170.1984711,-245.2671814,0.3375807,0.0742199,10.7570934,0.0152672,-3.8244274,-2.1984732
5500,-15.5382900,8.0851774,-5.3486195,32.9847336,-152.8091583,-182.0992432,0.2920911,0.0670373,10.8025827,0.0992366,-3.7633588,-2.5419848
5510,-17.3219604,8.3533268,-4.8817525,-2.9618320,-113.3969498,-90.1984711,0.3016679,0.0837966,10.7211800,0.1832061,-3.8625953,-2.3129771
5520,-18.8374825,8.5113440,-5.0972295,-37.9160309,-54.5343513,28.8167934,0.3758878,0.0574605,10.7235746,-0.0152672,-3.8396947,-2.2290077
5530,-18.3370972,8.0851774,-5.1211715,-73.1603088,11.2061071,159.8549652,0.3256098,0.1005560,10.6996326,0.2442748,-3.7633588,-2.6259542
5540,-16.5606079,7.5105724,-5.0397687,-112.3358765,77.8015289,250.1297760,0.3232156,0.1244979,10.7714586,0.1374046,-3.7709923,-2.5114503
5550,-14.3316183,6.6247220,-5.0158267,-155.4503784,131.1526642,250.1297760,0.2992737,0.0957676,10.8217363,0.1908397,-4.0534353,-2.4809160
5560,-11.7147694,5.1331420,-4.3550305,-201.1679382,168.8167877,250.1297760,0.2992737,0.1508339,10.6876621,0.2061069,-3.9923663,-2.1908398
5570,-8.7747040,3.3375001,-3.1914546,-245.7175598,184.8931274,250.1297760,0.3399749,0.0742199,10.7259684,0.1297710,-3.8778627,-2.1526718
5580,-5.0684991,1.5059452,-0.8092360,-250.1374054,175.5343475,250.1297760,0.3351865,0.0861908,10.6685085,0.0839695,-3.9694657,-2.4351146
5590,-1.4006008,0.1628049,1.4939742,-250.1374054,146.5343475,250.1297760,0.3615226,0.0430954,10.7235746,0.1832061,-3.7862597,-2.2824428
5600,3.0094962,-0.6679789,3.6415622,-250.1374054,118.0534363,250.1297760,0.3519458,0.0885850,10.7379398,0.0534351,-3.7786260,-2.4198472
5610,7.7787213,-1.0271072,5.4946647,-250.1374054,93.8778610,250.1297760,0.2944853,0.0957676,10.7594872,0.0916031,-3.8854961,-2.5572519
5620,14.8607340,-0.3782819,7.8505473,-250.1374054,57.8931313,250.1297760,0.2370248,0.0790083,10.8025827,0.0992366,-3.9770992,-2.5725191
5630,19.6126022,0.8068419,11.2742386,-209.6488495,23.4732819,250.1297760,0.3351865,0.0861908,10.6709023,0.1068702,-3.9160306,-1.9770992
5640,19.6126022,1.5418580,14.7386303,-146.4961853,-10.5190840,114.9847336,0.4141948,0.1077385,10.6828737,0.0610687,-3.8778627,-2.6335878
5650,19.6126022,0.5362985,17.2046452,-73.5572510,-49.2442741,-59.5267181,0.3423691,0.0885850,10.7930059,0.1374046,-3.8549619,-2.5877862
5660,19.6126022,-0.4118006,17.7912216,-2.9618320,-105.2824402,-212.8778687,0.3232156,0.0766141,10.7283630,0.2290076,-3.6335878,-2.9465649
5670,18.7321377,-0.6871324,17.1950684,62.6564903,-162.7862549,-250.1374054,0.2992737,0.0742199,10.6852674,-0.0839695,-3.9007633,-2.0610688
5680,14.9301653,-0.4525018,15.5885677,118.4809189,-198.2061005,-250.1374054,0.2801202,0.0933734,10.7259684,0.1374046,-3.9694657,-2.4732823
5690,11.9757357,0.1628049,13.4792862,162.3358765,-205.1068726,-250.1374054,0.3567342,0.0766141,10.7331514,0.1679389,-3.8931298,-2.0534351
5700,8.9614515,1.1851238,10.8528605,190.1297760,-191.2213745,-250.1374054,0.2968795,0.0981618,10.7451220,0.2061069,-3.9847329,-2.6030533
5710,6.2751703,2.8251436,8.3293848,201.8702240,-162.5038147,-250.1374054,0.3567342,0.1244979,10.6804790,0.1450382,-3.9160306,-2.2137403
5720,2.8538737,4.6207857,5.6766233,200.1679382,-121.0076370,-250.1374054,0.3088504,0.0957676,10.7499104,0.1603053,-3.8091602,-2.4885497
5730,0.4860204,5.9399838,3.1052637,189.0381622,-60.1832047,-250.1374054,0.3064562,0.1149211,10.7163916,0.1450382,-3.9160306,-2.6717558
5740,-0.8068419,6.3302369,0.9935886,172.6335907,9.1832066,-250.1374054,0.3495516,0.1149211,10.8049774,0.0458015,-3.7022901,-2.6488550
5750,-1.8866212,6.6750002,-0.8714849,149.3358765,62.8702278,-250.1374054,0.3495516,0.0766141,10.7068148,0.1374046,-3.8702290,-2.9389312
5760,-3.9001346,6.4283986,-1.9680238,122.5114517,93.2442780,-250.1374054,0.2944853,0.0598547,10.7331514,0.3282443,-3.8549619,-2.7404580
5770,-7.1825686,6.1219425,-2.5953014,98.0229034,102.3282471,-220.8320618,0.3303981,0.0837966,10.6924505,0.0687023,-3.9007633,-2.7022901
5780,-10.4147243,6.5002246,-2.5665710,79.4580154,93.6564865,-169.6030579,0.3375807,0.1340746,10.7427282,-0.0458015,-3.8473282,-2.3587787
5790,-12.9046812,7.5440907,-2.4396791,67.3893127,70.2748108,-113.5343475,0.3663110,0.0766141,10.7427282,0.2137405,-3.7633588,-2.2137403
5800,-15.2988710,8.7770987,-2.8706331,56.5725174,49.7633591,-56.6412201,0.3615226,0.0814024,10.6589317,0.0305344,-3.8549619,-2.5343511
5810,-16.9077663,9.4067707,-4.1994085,38.7404594,39.3053436,5.5038166,0.3447633,0.0837966,10.7451220,0.1068702,-3.8015268,-2.4351146
5820,-16.5677910,9.6749191,-5.4802995,8.2671757,36.0610695,71.6030502,0.2633608,0.0981618,10.7307568,0.0687023,-3.8091602,-2.7251909
5830,-15.1384602,9.7467451,-6.2919297,-31.5419846,40.1374054,135.0000000,0.3878587,0.0526722,10.6709023,0.1603053,-3.9083970,-2.3435113
5840,-13.2398672,9.6246414,-6.1746144,-75.9160309,50.0992355,193.6335907,0.2920911,0.0454896,10.7499104,0.1832061,-3.7251909,-2.5190840
5850,-11.1473465,9.2894554,-5.4419928,-117.0763321,62.4961815,246.8625946,0.2801202,0.0478838,10.7475166,0.1145038,-3.8854961,-2.2977099
5860,-9.1817169,8.9351149,-4.3933377,-149.1908417,76.0229034,250.1297760,0.3495516,0.0933734,10.8193426,0.0229008,-3.9618320,-2.3129771
5870,-7.3549500,8.0372944,-3.2153964,-172.3053436,86.2290039,250.1297760,0.3567342,0.0885850,10.8097658,0.0916031,-3.9923663,-2.3893130
5880,-5.0373745,7.1059542,-2.1787124,-189.1908417,89.3053436,250.1297760,0.3375807,0.1436514,10.7403336,0.0763359,-4.0152674,-2.1221373
5890,-2.6048782,6.2296810,-0.7493813,-201.0305328,77.0992355,250.1297760,0.3256098,0.0766141,10.6756907,-0.0839695,-3.9312978,-2.6564887
5900,0.1005560,5.2073622,0.0981618,-208.8473358,55.8702278,250.1297760,0.3447633,0.1197095,10.6996326,0.1145038,-3.9847329,-2.6183207
5910,3.2872221,4.0342093,1.3383518,-211.8320618,30.1603050,250.1297760,0.3830703,0.0861908,10.7475166,0.0458015,-3.7557251,-2.3435113
5920,7.1059542,3.4045374,2.5617826,-208.3282471,0.9160305,250.1297760,0.3256098,0.0766141,10.7666702,0.2977099,-3.8244274,-2.5801528
5930,10.6996326,3.5936785,4.3478479,-196.3893127,-20.9618320,250.1297760,0.2849085,0.0957676,10.5990763,0.1068702,-3.9007633,-2.2824428
5940,13.3619709,3.7732425,5.8059096,-179.5572510,-30.8015270,187.8167877,0.3375807,0.0861908,10.7187862,0.0458015,-3.6183207,-2.4427481
5950,15.2342272,3.4907281,7.0508881,-162.4198456,-27.6183205,120.4503784,0.3088504,0.0981618,10.7331514,0.0839695,-3.8931298,-3.0763359
5960,15.7609491,3.0980811,8.8728657,-144.4961853,-18.4198475,56.1374054,0.3112446,0.0478838,10.7499104,0.0687023,-3.8091602,-2.8396947
5970,14.9062233,2.6431851,10.7427282,-124.3358765,-16.1297703,-0.6870229,0.3423691,0.0646431,10.6732969,0.0763359,-3.9236641,-2.3129771
5980,13.1081877,2.3606708,12.1026278,-99.2519073,-22.3587780,-45.9160309,0.3687052,0.0359128,10.7451220,0.0992366,-3.8702290,-2.6717558
5990,10.8552551,2.3917952,12.9286232,-69.5496216,-30.8396950,-78.5877838,0.3016679,0.0861908,10.8576488,0.1221374,-3.9770992,-2.0687022
6000,9.0236998,2.9017577,13.0483322,-37.0687027,-41.1374054,-99.0916061,0.3567342,0.0526722,10.6685085,0.2137405,-4.0229006,-2.4045801
6010,7.7667508,3.6463506,12.5311880,-2.7175572,-45.2900772,-110.8473282,0.2920911,0.1077385,10.6685085,0.0687023,-3.8244274,-2.8396947
6020,6.9527264,4.3933377,11.2814207,27.7862587,-39.4961815,-114.0229034,0.2896969,0.0790083,10.8097658,0.1374046,-3.8625953,-2.0916030
6030,5.9711084,6.4188218,6.2536230,109.9160309,-21.9083977,-186.9007568,0.3136388,0.1484398,10.7523050,0.1450382,-3.9160306,-2.4809160
6040,5.4683285,6.3302369,5.6119800,121.5496216,-20.1984730,-206.6335907,0.2992737,0.1005560,10.6349897,0.0839695,-3.6488550,-2.5725191
6050,4.4986820,6.3972740,4.8362627,130.8244324,-15.8854961,-224.2748108,0.3256098,0.0694315,10.7139978,0.1755725,-3.9007633,-2.3129771
6060,3.2728570,6.4714942,3.7133877,137.5419922,-11.2137403,-238.5190887,0.3112446,0.1005560,10.7092094,0.1755725,-3.9007633,-2.0839694
6070,2.1858950,6.5528965,2.9328821,141.6030579,-3.1908398,-250.1374054,0.3375807,0.0909792,10.7499104,0.0839695,-3.8854961,-2.2290077
6080,0.7565638,6.6103573,2.0566087,144.1526642,11.9541988,-250.1374054,0.3399749,0.1221037,10.7259684,0.0076336,-3.7175572,-2.3587787
6090,-1.0558375,6.5696559,0.8116302,143.4274750,24.5801525,-250.1374054,0.3663110,0.0694315,10.7331514,0.0992366,-3.8931298,-2.5419848
6100,-3.2537034,6.6773944,-0.3998296,137.7709961,30.6183205,-250.1374054,0.3543400,0.0790083,10.8145542,0.2519084,-3.7557251,-2.3511450
6110,-7.0221577,7.0269461,-1.4939742,127.4045792,25.7938938,-235.3129730,0.3327923,0.0478838,10.6804790,-0.0076336,-3.8778627,-2.4351146
6120,-12.0020714,8.0205345,-3.0190730,112.4045792,5.6641221,-193.5877838,0.3639168,0.0335187,10.7427282,-0.0763359,-3.9007633,-2.2824428
6130,-15.4951944,9.3181858,-4.3454537,92.3358765,-5.7786260,-129.5114441,0.3830703,0.0430954,10.6062593,0.1908397,-3.9389312,-2.9007633
6140,-18.0426121,10.4027529,-5.8418221,62.6717567,-6.8549619,-46.3511467,0.3543400,0.0885850,10.6254129,0.0229008,-3.9312978,-2.8091602
6150,-18.5382080,10.4793673,-7.0269461,20.2595425,1.3511450,51.7938919,0.2705434,0.1125269,10.7139978,0.1221374,-3.8167939,-2.6412213
6160,-16.9388905,10.1681223,-7.3118544,-33.1984749,27.7938938,152.9847260,0.3519458,0.1149211,10.8049774,0.1755725,-3.8015268,-2.6259542
6170,-13.7785606,9.0715837,-7.0101867,-90.1145020,60.0839691,245.2671814,0.3447633,0.0742199,10.8241301,0.2137405,-3.8625953,-2.4885497
6180,-10.5272512,7.6638002,-6.1027889,-148.1068726,87.7022934,250.1297760,0.2992737,0.1221037,10.7858238,-0.0152672,-3.8167939,-2.8091602
6190,-7.6973190,6.2153158,-3.9839313,-199.0381622,106.1221390,250.1297760,0.3327923,0.0622489,10.6756907,0.1068702,-3.7938931,-2.5496182
6200,-5.1570840,4.9200592,-1.7190280,-232.5496216,107.7099228,250.1297760,0.3303981,0.1149211,10.7690639,0.0381679,-3.7862597,-2.3435113
6210,-2.0949159,3.5266411,1.0845678,-246.2595367,88.1450348,250.1297760,0.2226596,0.0766141,10.6924505,0.1450382,-3.9389312,-1.8091604
6220,1.7501525,2.5522060,3.3446827,-240.3282471,50.3664131,250.1297760,0.2753318,0.1723816,10.6972389,0.1374046,-3.7633588,-2.3053436
6230,7.4052281,2.2146254,5.6646523,-216.2748108,-4.5496182,250.1297760,0.3423691,0.1268920,10.7163916,0.0992366,-3.7328243,-2.4122138
6240,15.5215302,3.0262554,8.7268209,-172.4580078,-60.4503822,250.1297760,0.2992737,0.1173153,10.6852674,0.0076336,-3.9389312,-2.7480917
6250,19.6126022,3.8067613,11.7171631,-115.3740463,-93.1297684,130.7633514,0.3256098,0.1604107,10.7044210,0.2595420,-3.9465649,-2.1374047
6260,19.6126022,3.7349355,13.8982697,-50.8625946,-109.5190811,-10.2442751,0.2920911,0.0622489,10.6445665,-0.0610687,-3.7862597,-2.6183207
6270,19.6126022,2.7700772,15.4353390,9.4809160,-129.4351196,-140.9389343,0.3471575,0.1316804,10.6062593,-0.0152672,-3.8702290,-2.2442749
6280,19.6126022,2.2050486,15.7657375,64.7175598,-154.2595367,-249.6259613,0.3184272,0.0837966,10.7618818,0.1374046,-3.9312978,-2.4427481
6290,15.7968616,2.2385671,14.3866844,113.4122162,-169.0152740,-250.1374054,0.3208214,0.0646431,10.6756907,0.0687023,-3.9541984,-2.8244274
6300,11.1641054,2.7413468,11.9158812,150.5801544,-164.1832123,-250.1374054,0.3878587,0.0670373,10.6900558,0.1984733,-3.9923663,-2.5190840
6310,7.0580707,4.0581512,8.8896255,176.4198456,-138.9084015,-250.1374054,0.3112446,0.1005560,10.7642756,0.2137405,-3.9083970,-2.6793892
6320,3.9049230,5.5497313,6.3086891,189.8702240,-104.9389343,-250.1374054,0.2873027,0.0574605,10.6876621,0.0992366,-3.9694657,-2.3893130
6330,1.1468167,7.1921453,3.1890604,189.5267181,-60.1526718,-250.1374054,0.3136388,0.0574605,10.7092094,0.3282443,-3.8625953,-2.3969467
6340,-1.1563935,8.1234846,0.7924767,175.1221313,-8.2595415,-250.1374054,0.2968795,0.1101327,10.7259684,0.2137405,-3.7862597,-2.3511450
6350,-3.5697365,8.4467001,-1.2784972,149.7404633,37.0000000,-215.3206177,0.2873027,0.1101327,10.6254129,0.2671756,-3.8167939,-2.3740458
6360,-5.8777351,8.5233145,-2.6910689,119.8473282,62.6412201,-159.0152740,0.3112446,0.1149211,10.7163916,0.0458015,-3.8549619,-2.5725191
6370,-8.0325060,9.0715837,-3.6128318,90.3053436,75.1221390,-100.9694672,0.3782819,0.0814024,10.7499104,0.1984733,-3.9007633,-2.2824428
6380,-10.5344334,9.8329363,-4.3358769,63.1603050,85.7709961,-39.4351158,0.3519458,0.0670373,10.7068148,0.0229008,-4.0076337,-2.7099237
6390,-13.0219965,10.4769726,-5.7125359,31.3435116,99.4961853,31.8778629,0.3974355,0.1221037,10.6732969,0.2824427,-3.8396947,-2.2824428
6400,-14.8583393,10.4961262,-6.6965480,-9.2977095,122.0152664,108.5190811,0.3064562,0.1244979,10.7235746,0.1603053,-3.6412213,-2.4045801
6410,-15.4880114,9.4043760,-7.3118544,-61.5648842,142.0458069,191.2748108,0.3782819,0.0407012,10.6709023,0.1603053,-3.8091602,-2.4045801
6420,-14.2502155,8.0564480,-6.7947097,-121.3816757,155.4427490,250.1297760,0.3351865,0.0646431,10.7139978,0.0458015,-3.7786260,-2.7786260
6430,-11.9565821,6.7420373,-5.1642666,-176.4274750,178.1450348,250.1297760,0.3710994,0.1628049,10.6900558,-0.0076336,-3.6946564,-2.2900763
6440,-10.6254129,4.9032998,-3.2225790,-220.6259613,204.0686951,250.1297760,0.2992737,0.0646431,10.7546988,0.0687023,-3.7633588,-2.3206108
6450,-8.4275465,2.2792683,-1.0510491,-250.1374054,222.3816833,250.1297760,0.3303981,0.0478838,10.6804790,-0.0381679,-3.8167939,-2.1221373
6460,-4.8314743,0.1963235,2.0063307,-250.1374054,202.9847260,250.1297760,0.3447633,0.0981618,10.7139978,0.1221374,-4.0229006,-2.4580152
6470,1.5753766,-0.6177009,5.2672167,-250.1374054,146.9007568,250.1297760,0.3974355,0.1029501,10.7187862,0.0839695,-3.9236641,-2.2137403
6480,11.5136566,1.0821736,9.9023676,-240.9465637,81.5419846,250.1297760,0.2657550,0.0646431,10.8456783,0.1374046,-3.8167939,-2.0076337
6490,19.6126022,3.5146701,15.8351688,-166.8473358,30.5877857,250.1297760,0.3878587,0.0814024,10.7882175,0.1145038,-3.9389312,-2.5954199
6500,19.6126022,2.5186872,18.0306416,-64.9618301,-3.5038168,81.7175598,0.4141948,0.0502780,10.7546988,0.2061069,-3.7633588,-2.4427481
6510,19.6126022,0.6440369,17.5757446,29.3816795,-50.5572510,-109.7251892,0.3471575,0.1077385,10.7283630,0.1221374,-3.9618320,-2.6183207
6520,19.6126022,0.9097920,16.9125538,99.7862625,-135.0076294,-250.1374054,0.3926471,0.1221037,10.6421719,0.0000000,-3.8931298,-2.7251909
6530,16.2637291,1.6879035,14.5111818,159.6488495,-202.0610657,-250.1374054,0.2777260,0.0957676,10.7139978,0.1603053,-3.7251909,-2.4351146
6540,12.0475616,2.4516499,10.4410601,202.6335907,-214.2824402,-250.1374054,0.3327923,0.1292862,10.6637201,0.0305344,-3.8778627,-2.4580152
6550,7.7787213,3.8235207,7.1514440,225.6183167,-193.7251892,-250.1374054,0.2729376,0.0861908,10.7092094,0.1679389,-3.7022901,-2.7633588
6560,3.2177906,6.0237808,3.6487448,231.7328186,-152.9618378,-250.1374054,0.2801202,0.0933734,10.7379398,0.0610687,-3.9465649,-2.4503818
6570,-0.2322364,7.4483232,0.4309541,221.4580078,-92.6946564,-250.1374054,0.2777260,0.0742199,10.7331514,0.1068702,-3.8473282,-2.1450381
6580,-2.5857246,8.3341732,-2.0805507,194.5572510,-27.1374054,-250.1374054,0.2992737,0.0742199,10.6541433,0.1908397,-3.8091602,-2.5343511
6590,-4.6590929,9.6054878,-4.3406653,153.1526642,30.2900772,-250.1374054,0.2753318,0.0670373,10.7235746,0.1603053,-3.8320611,-2.0763359
6600,-7.5081782,10.8791971,-5.7795734,100.3969498,78.4503784,-188.5725250,0.3591284,0.0622489,10.7451220,0.1832061,-4.0152674,-2.6793892
6610,-11.9422169,11.8320847,-7.2160869,41.9236641,121.7786255,-88.7938919,0.3471575,0.0909792,10.7187862,0.1832061,-3.8396947,-2.5572519
6620,-16.6827126,12.1433287,-8.2240410,-21.4351139,161.7022858,29.4351139,0.3040621,0.0478838,10.7427282,0.1832061,-3.8167939,-2.5343511
6630,-19.6131992,10.9629936,-8.9925756,-87.1450348,191.3816833,168.1908417,0.2777260,0.0574605,10.7499104,0.0229008,-3.7251909,-2.4198472
6640,-19.6131992,9.0979195,-8.2958660,-151.2748108,206.7786255,250.1297760,0.2609667,0.0574605,10.7618818,-0.0458015,-3.9618320,-2.6259542
6650,-15.3874559,7.6087341,-6.3589673,-203.9770966,221.7328186,250.1297760,0.3016679,0.0718257,10.7475166,0.1450382,-3.7099237,-2.5725191
6660,-10.8480721,5.2624283,-4.2401094,-247.2442780,233.2290039,250.1297760,0.3447633,0.1244979,10.8025827,0.1374046,-3.7938931,-2.7633588
6670,-6.9048424,2.6886747,-1.8578910,-250.1374054,232.2137451,250.1297760,0.2849085,0.0885850,10.6948442,-0.0229008,-3.8625953,-2.4580152
6680,-1.8243724,0.0933734,1.4915800,-250.1374054,200.3664093,250.1297760,0.3303981,0.1053443,10.6900558,0.0381679,-3.8167939,-1.9847329
6690,5.6670465,-0.5841822,5.6574697,-250.1374054,131.7480927,250.1297760,0.3040621,0.1125269,10.8073711,0.1908397,-3.8091602,-1.8167939
6700,15.8662939,0.2274480,10.4554253,-250.1374054,59.0458031,250.1297760,0.3184272,0.1580165,10.6804790,0.1984733,-3.7175572,-2.4961832
6710,19.6126022,1.6065011,16.0267048,-178.9618378,16.5801525,217.6870270,0.3423691,0.0718257,10.7044210,0.0610687,-3.7557251,-2.2824428
6720,19.6126022,1.4724265,19.6126022,-62.1068687,-27.5190830,-5.3053436,0.3734936,0.0766141,10.8049774,0.0839695,-3.7709923,-2.4961832
6730,19.6126022,0.2322364,19.6126022,52.9312973,-103.5877838,-212.7709961,0.3567342,0.0861908,10.6828737,0.0534351,-4.0229006,-2.5572519
6740,19.6126022,-0.3591284,16.8957958,140.0534363,-186.4045868,-250.1374054,0.3878587,0.1244979,10.7355452,0.0610687,-3.7786260,-1.9770992
6750,14.4154148,-0.4596844,12.5623121,200.6870270,-240.1450348,-250.1374054,0.2944853,0.1053443,10.6373835,0.0229008,-3.8473282,-2.3435113
6760,9.5312681,0.3256098,8.9542685,231.4274750,-250.1374054,-250.1374054,0.2346306,0.0861908,10.7307568,0.0534351,-3.7328243,-2.6488550
6770,4.4316444,2.3199697,5.5928264,236.2671814,-236.3587799,-250.1374054,0.3567342,0.1101327,10.7331514,0.0305344,-3.7022901,-2.5496182
6780,0.4812321,4.7979555,2.8706331,223.1984711,-188.5496216,-250.1374054,0.3663110,0.0933734,10.6421719,0.1374046,-3.7633588,-2.1984732
6790,-2.5833304,6.9599090,0.1149211,193.6870270,-132.7709961,-250.1374054,0.3160330,0.0694315,10.7163916,0.0458015,-3.9770992,-2.8625953
6800,-4.7859845,8.4371233,-2.1451938,149.9007568,-74.6183243,-250.1374054,0.2968795,0.0742199,10.8552551,0.2137405,-3.7938931,-2.3587787
6810,-7.7140784,9.3397331,-3.5362179,98.6946564,-26.0763359,-250.1374054,0.2609667,0.1029501,10.7307568,0.1679389,-3.9389312,-2.1450381
6820,-10.3524752,9.7299862,-4.0701222,44.6946564,5.7633586,-164.7099304,0.3639168,0.0742199,10.7499104,0.0839695,-3.7328243,-2.4122138
6830,-12.1145983,10.4266949,-4.3454537,-3.7862597,30.3893127,-55.9312973,0.3112446,0.0550664,10.7834291,0.1297710,-3.6259542,-2.3511450
6840,-13.1201582,11.0755205,-4.1826491,-43.7099228,64.5954208,48.0839691,0.3088504,0.0885850,10.7570934,0.1221374,-3.9847329,-2.2519083
6850,-14.0227680,10.7738523,-4.2712340,-82.0916061,107.4503784,154.1526642,0.3303981,0.1149211,10.7714586,0.1221374,-3.9389312,-2.6717558
6860,-14.6021614,8.5831690,-4.1658897,-124.3740463,151.2442780,250.1297760,0.2896969,0.0574605,10.7044210,0.2061069,-3.8778627,-2.2748091
6870,-13.3452120,6.3541789,-2.9185169,-168.6412201,172.1068726,250.1297760,0.3303981,0.0095768,10.5416164,0.1297710,-3.8244274,-2.1832061
6880,-10.7690639,4.5920553,-1.1348459,-203.0076294,171.8015289,250.1297760,0.3399749,0.0670373,10.7331514,0.0458015,-3.8091602,-3.0152671
6890,-8.0827837,3.5841017,0.4453192,-223.0381622,164.1068726,250.1297760,0.2968795,0.0933734,10.7044210,0.1450382,-3.7709923,-1.8015267
6900,-4.7237358,2.8395088,1.5562232,-230.6717529,154.4961853,250.1297760,0.2705434,0.1101327,10.7355452,0.0687023,-3.7557251,-2.3129771
6910,-1.0630201,2.3486998,2.8227494,-226.6946564,137.8473358,250.1297760,0.3016679,0.0885850,10.7163916,0.1221374,-3.8015268,-2.6717558
6920,3.7804251,1.8531027,4.3526363,-211.3969421,114.3053436,250.1297760,0.3232156,0.0861908,10.7594872,0.0458015,-4.0076337,-2.5038168
6930,9.2487535,2.2289903,6.1051831,-183.3358765,80.6106873,250.1297760,0.2968795,0.0837966,10.7092094,0.1908397,-3.8931298,-2.2366412
6940,15.4784346,3.3183465,8.2312231,-140.8931274,40.1145020,250.1297760,0.2920911,0.0766141,10.6493549,0.2137405,-4.1297708,-2.7022901
6950,19.6126022,4.3191175,10.1082678,-85.8473282,3.3053436,168.2061005,0.2873027,0.0861908,10.6924505,0.0076336,-3.9465649,-2.7786260
6960,19.6126022,3.7900019,10.4650021,-29.8625946,-38.5114517,14.4503813,0.3303981,0.0790083,10.8361015,0.1679389,-3.8244274,-2.2137403
6970,19.6126022,2.9280937,10.6709023,14.4885492,-99.7633591,-127.2366409,0.3567342,0.1268920,10.7403336,0.3053435,-4.0229006,-2.4045801
6980,19.4767303,2.5976956,10.7858238,47.8015251,-163.9694672,-243.1603088,0.3303981,0.0646431,10.6852674,0.2137405,-3.8549619,-2.1374047
6990,16.9221306,2.8778157,10.3237448,70.6412201,-202.3664093,-250.1374054,0.3471575,0.1077385,10.8576488,0.1450382,-4.0839696,-2.5343511
7000,14.2047262,3.6104376,9.5767574,85.4961853,-210.7099304,-250.1374054,0.3423691,0.0550664,10.6637201,0.0305344,-4.0000000,-2.5801528
7010,11.0850973,4.7859845,8.6741486,91.2519073,-197.0305328,-250.1374054,0.3160330,0.0981618,10.7618818,0.0687023,-3.9236641,-2.4274809
7020,8.2024927,6.0908179,7.1945391,89.0992355,-164.1374054,-250.1374054,0.3208214,0.1244979,10.7594872,0.2290076,-3.8778627,-2.3664122
7030,5.7197185,7.2065101,5.5545197,79.6870193,-111.7633591,-250.1374054,0.3375807,0.0861908,10.7546988,0.1068702,-3.6870229,-2.2061069
7040,3.8905578,8.0468712,4.4675574,65.7862625,-42.9771004,-250.1374054,0.3639168,0.1268920,10.7235746,0.2595420,-3.8778627,-2.0763359
7050,2.2170193,8.4562769,3.5912843,47.9847336,12.7175570,-190.7251892,0.3136388,0.1101327,10.7068148,0.0687023,-3.7099237,-2.3511450
7060,0.6607963,8.4443064,2.6479735,28.0152664,51.2977104,-137.6259613,0.3160330,0.0478838,10.7403336,0.0152672,-3.7786260,-2.5190840
7070,-1.0247130,8.9590569,1.8076130,11.8931293,74.2061081,-95.0839691,0.3639168,0.1580165,10.6709023,0.0381679,-3.9007633,-2.4122138
7080,-3.8690102,9.9550400,-0.1867468,-7.6946564,84.3893127,-36.8854980,0.3495516,0.1316804,10.6900558,0.2061069,-4.0839696,-2.8015268
7090,-5.4587522,9.9981356,-1.2689204,-17.9847336,66.6412201,-16.4732819,0.2944853,0.1173153,10.7642756,0.0839695,-3.9083970,-2.6183207
7100,-6.8378053,10.5176744,-2.3702476,-33.7022896,42.7480927,3.2061069,0.2777260,0.0694315,10.7858238,0.1450382,-3.5725191,-2.9923663
7110,-7.5752153,10.8456783,-3.2034254,-56.4580154,30.9083977,27.2290077,0.2609667,0.0622489,10.7906122,0.0458015,-3.9694657,-2.5267177
7120,-6.9263902,10.3955708,-2.9783716,-84.3969498,31.0381680,57.0458031,0.3016679,0.0622489,10.7690639,0.0458015,-3.9541984,-2.3053436
7130,-6.6726060,9.6701307,-2.3606708,-114.1679382,38.1297722,94.5496216,0.3758878,0.1125269,10.7044210,0.1832061,-3.6870229,-2.6412213
7140,-6.0932121,8.6956959,-1.5825592,-140.8549652,62.7328262,140.3206177,0.3471575,0.0574605,10.6852674,0.1297710,-4.0534353,-2.5801528
7150,-4.4005203,6.7779503,-0.2274480,-164.6870270,93.2061081,185.7938995,0.3447633,0.1149211,10.7570934,0.1908397,-3.7786260,-2.4656489
7160,-2.5665710,5.1714492,1.9895715,-183.1450348,118.2824402,221.7786255,0.3519458,0.0861908,10.7283630,0.1221374,-3.8778627,-2.5954199
7170,-0.5267217,3.7612717,4.7668314,-191.1908417,127.0763321,242.2290039,0.3280039,0.0407012,10.6804790,0.0763359,-3.7786260,-3.0305343
7180,2.0494261,2.5641768,7.0820122,-187.5419922,118.0381699,242.4427490,0.3854645,0.1412572,10.8025827,0.0229008,-3.9007633,-2.7557251
7190,6.4092450,2.1835008,9.3397331,-170.3816833,101.8473282,217.5648804,0.3639168,0.0430954,10.7068148,0.1679389,-3.7938931,-2.4809160
7200,10.3021975,2.0111191,12.4689388,-138.8320618,65.9923630,164.9465637,0.2753318,0.0407012,10.7068148,0.0076336,-3.8625953,-2.1832061
7210,14.4082317,1.3766589,14.8152447,-95.8778610,25.7557259,89.7022934,0.3064562,0.1101327,10.6948442,0.2061069,-3.7633588,-2.3511450
7220,17.5374374,1.3910241,16.7641144,-42.9923668,-6.6488547,3.3511450,0.3136388,0.0694315,10.6900558,0.0687023,-3.9083970,-2.9236641
7230,18.5358143,1.4269369,17.9827576,16.3816795,-34.8778610,-81.7404556,0.3184272,0.0526722,10.7307568,0.1145038,-4.0763359,-2.5954199
7240,17.3889980,1.4077834,18.3514614,73.9618301,-62.9465637,-153.6641235,0.3136388,0.1292862,10.6637201,0.1145038,-3.8167939,-2.0610688
7250,15.0642405,0.9648584,17.0897236,126.4732819,-88.9312973,-210.8702240,0.3567342,0.0933734,10.7499104,0.1374046,-4.0916033,-2.4122138
7260,12.8280668,1.2018831,15.3563309,171.4274750,-105.4427490,-250.1374054,0.3423691,0.1005560,10.7834291,0.0076336,-3.8625953,-2.2595420
7270,9.9574337,1.6232605,12.8184900,208.8320618,-108.4503784,-250.1374054,0.3543400,0.1388630,10.6876621,0.0687023,-4.0916033,-2.5419848
7280,7.5776095,2.4827745,9.7611103,230.1984711,-97.2061081,-250.1374054,0.3088504,0.1268920,10.6541433,0.1755725,-3.9923663,-2.2519083
7290,5.3222833,3.7109938,6.3326311,235.3893127,-70.7022934,-250.1374054,0.2609667,0.1077385,10.6445665,0.0992366,-3.9770992,-2.2290077
7300,3.2177906,4.9487896,3.2800395,226.3511505,-35.0000000,-250.1374054,0.3495516,0.0909792,10.7092094,0.3206107,-3.8778627,-2.3969467
7310,0.7182568,6.2679882,0.3112446,204.9389343,10.2977095,-250.1374054,0.2920911,0.0742199,10.6756907,0.2671756,-3.8931298,-2.4351146
7320,-1.7214222,6.6845770,-2.3510940,177.0076294,55.1755714,-250.1374054,0.3280039,0.0837966,10.7379398,-0.0152672,-3.6717558,-2.4122138
7330,-3.8187323,6.7133074,-3.8139439,147.2748108,73.4961853,-233.0305328,0.3280039,0.0718257,10.7666702,-0.0229008,-3.9236641,-2.5419848
7340,-6.7731619,7.1298962,-4.7740140,122.9083939,68.6564865,-208.7022858,0.2873027,0.0670373,10.7283630,0.0610687,-3.8854961,-2.3587787
7350,-10.6445665,7.7092900,-5.1714492,104.6564865,48.2290077,-176.9923706,0.3782819,0.1101327,10.6804790,0.0992366,-3.7404580,-2.1984732
7360,-13.9724894,8.2671366,-5.0397687,91.3053436,15.1374044,-132.2366486,0.3136388,0.1388630,10.6900558,0.0000000,-3.8931298,-2.4045801
7370,-16.4361115,9.1960821,-5.0996237,74.3740463,-19.8625946,-72.0610657,0.3040621,0.0814024,10.7570934,0.0687023,-3.7709923,-2.2900763
7380,-17.2237988,10.3716288,-6.0165982,13.3435116,-15.4961834,72.7404556,0.3040621,0.1268920,10.7427282,-0.0458015,-3.8702290,-2.3816793
7390,-15.2629576,10.3405046,-6.0285692,-32.0305328,11.9389315,146.8091583,0.3878587,0.0814024,10.6325951,0.1679389,-3.8396947,-2.4351146
7400,-12.5742826,9.4355011,-5.6000090,-81.2748108,36.7251892,210.9160309,0.3567342,0.1077385,10.7187862,0.0687023,-3.8625953,-2.3740458
7410,-9.8520899,8.5233145,-4.5058646,-125.8473282,54.8091621,250.1297760,0.2729376,0.0885850,10.7570934,0.2061069,-3.8473282,-2.3511450
7420,-7.2927012,7.5129666,-3.0047078,-160.6564941,64.1679382,250.1297760,0.3423691,0.0957676,10.7714586,0.0610687,-3.9007633,-2.9618320
7430,-4.5393834,6.4379754,-1.2713146,-183.7328186,62.0992355,250.1297760,0.2801202,0.1173153,10.7187862,0.1832061,-3.8091602,-2.9083970
7440,-1.7884595,5.2959471,0.2202654,-195.7557220,54.6106873,250.1297760,0.3591284,0.1077385,10.6637201,0.2366412,-3.8396947,-2.7480917
7450,1.4317253,4.1611013,1.6759326,-198.1679382,38.5648842,250.1297760,0.2777260,0.0790083,10.6852674,0.0687023,-4.0610685,-2.6870229
7460,5.2360926,3.2991931,3.1746953,-192.2366486,10.2977095,250.1297760,0.3256098,0.1412572,10.6182299,0.1145038,-3.7862597,-2.7099237
7470,10.3285332,2.9879484,5.0301919,-175.7328186,-24.4045811,249.2366486,0.3519458,0.0742199,10.7475166,0.1297710,-3.9541984,-2.7022901
7480,14.9397421,3.8259149,7.4171991,-147.0076294,-54.3129768,180.5267181,0.3208214,0.0981618,10.6685085,0.0839695,-3.9389312,-2.5419848
7490,18.2437229,4.3717899,9.6940727,-109.1221390,-68.7328262,96.3358765,0.3040621,0.0622489,10.7546988,0.1603053,-3.9923663,-2.6030533
7500,19.6126022,4.2832050,11.7267399,-70.9083939,-75.4122162,11.6488552,0.3160330,0.0790083,10.7499104,0.1221374,-3.9847329,-1.7862595
7510,19.6126022,4.1012464,13.4266148,-31.6259537,-81.7251892,-68.5725174,0.3351865,0.1029501,10.6996326,0.0687023,-3.8778627,-2.7557251
7520,17.5637741,4.0030847,14.6141329,6.4351144,-89.9236679,-134.3053436,0.3184272,0.1149211,10.6732969,0.0229008,-3.8091602,-2.3893130
7530,14.9469252,3.9982965,14.8224268,43.9847336,-101.1908417,-183.2900696,0.2849085,0.0095768,10.7163916,0.1603053,-4.0000000,-2.6564887
7540,12.4976692,3.8522508,13.6827927,80.5038147,-108.6641235,-215.4580078,0.2753318,0.0837966,10.7762470,0.0992366,-3.8091602,-2.5572519
7550,9.8233595,4.7883787,12.3348637,115.8625946,-108.1450348,-237.6030579,0.3112446,0.1029501,10.7259684,0.2442748,-3.8244274,-2.7557251
7560,7.7475972,5.3031297,10.5607700,147.4503784,-98.5725174,-250.1374054,0.2944853,0.0790083,10.7738523,0.2137405,-3.9847329,-2.5725191
7570,5.6071916,6.1147599,7.7452030,170.1526642,-78.3129807,-250.1374054,0.3351865,0.1101327,10.6876621,0.0687023,-3.8091602,-2.2213740
7580,2.5737536,7.0628591,4.9631548,179.2900696,-55.1068687,-250.1374054,0.3423691,0.1149211,10.7283630,0.0839695,-3.8244274,-2.7938931
7590,0.4381367,8.0181408,2.2529323,176.8320618,-38.0610695,-250.1374054,0.2992737,0.1149211,10.6685085,0.1832061,-3.9465649,-2.4961832
7600,-1.5370697,8.9734221,-0.8643024,163.8549652,-24.0152664,-231.3511505,0.3327923,0.0837966,10.7139978,0.1068702,-3.6946564,-2.6259542
7610,-2.7940190,10.1681223,-3.2393384,139.6412201,-10.6335878,-204.5419922,0.3232156,0.0478838,10.7523050,0.2442748,-3.8702290,-2.5114503
7620,-3.6942344,11.2143831,-5.1714492,105.9160309,3.3511450,-174.1068726,0.2992737,0.1364688,10.7714586,0.0763359,-3.9618320,-2.3053436
7630,-4.7596488,11.5375986,-6.0285692,65.1526718,11.8854961,-138.8854980,0.3232156,0.1173153,10.7594872,0.1526718,-3.6564887,-2.3053436
7640,-5.8633699,11.3412752,-5.8753409,20.6641216,10.5877867,-100.6641235,0.3256098,0.1364688,10.7451220,0.1221374,-3.9541984,-2.7404580
7650,-6.5241661,11.1569233,-4.7189474,-17.1679382,11.1068707,-62.0839691,0.3112446,0.1101327,10.7044210,-0.0229008,-3.9465649,-2.5343511
7660,-6.6941538,10.6349897,-3.2489152,-40.5496178,16.1297703,-25.3358784,0.2489957,0.0646431,10.7523050,0.1832061,-4.0229006,-2.5496182
7670,-6.7157016,10.0053177,-1.8890154,-53.4122124,22.7862587,12.5496187,0.3232156,0.0670373,10.6565371,0.2213740,-3.9541984,-2.4961832
7680,-6.6558466,9.4331064,-1.1587877,-61.1450386,27.6488552,50.2290077,0.2896969,0.0574605,10.6996326,0.0305344,-3.8396947,-2.4351146
7690,-6.1123657,8.6262646,-0.6177009,-70.0534363,30.1984730,84.2748108,0.3423691,0.1077385,10.7163916,0.0000000,-3.8931298,-2.1221373
7700,-5.0852585,8.0516596,0.0167593,-79.8549652,30.6793900,110.7862625,0.3663110,0.1316804,10.6709023,0.0610687,-3.9312978,-2.1221373
7710,-3.9719603,7.4914188,0.6607963,-87.9618301,26.2213745,130.3893127,0.3567342,0.0718257,10.7427282,0.1221374,-4.0381680,-2.3053436
7720,-2.6599445,7.0628591,1.4245427,-92.0152664,20.8473282,142.1526642,0.2992737,0.0814024,10.7379398,0.1526718,-3.9389312,-2.2442749
7730,-1.6424140,6.6127515,2.2936335,-91.5114517,13.0610685,148.2900696,0.3830703,0.0622489,10.6302013,0.0610687,-4.0534353,-2.5114503
7740,-0.5243275,6.3709383,3.2728570,-85.8854980,-1.0992366,149.0763397,0.3423691,0.1412572,10.7331514,0.1374046,-3.8625953,-2.2213740
7750,0.9385223,6.0596933,3.9695661,-75.5267181,-15.9847326,142.7709961,0.3184272,0.0526722,10.6732969,0.1603053,-3.8473282,-2.1603053
7760,2.6144550,6.1147599,4.5824785,-60.6488533,-31.9618320,127.2442780,0.2825144,0.1029501,10.7690639,0.0916031,-4.0305343,-2.4580152
7770,3.7373297,5.9926562,5.0206151,-44.5267181,-46.2900772,105.3740463,0.3687052,0.0598547,10.6972389,0.1832061,-4.0229006,-2.3587787
7780,4.5274124,6.0381460,5.2552457,-30.5343513,-56.7862587,80.8167953,0.3040621,0.0478838,10.7546988,0.1755725,-3.8931298,-2.3282442
7790,5.2480631,6.2775645,5.6598639,-17.7404575,-64.5725174,57.1832047,0.3256098,0.1053443,10.7187862,0.1984733,-3.8396947,-2.4274809
7800,6.2009506,6.8809004,5.9806852,9.2900763,-68.4198456,14.5343513,0.2849085,0.1484398,10.7834291,0.1755725,-3.6412213,-2.5267177
7810,6.2320752,7.4291697,5.9735026,32.5038185,-65.1603088,-20.9465656,0.3112446,0.0933734,10.7259684,0.0000000,-3.8167939,-2.0916030
7820,6.4667058,7.6973190,6.0142040,44.1068687,-71.4503784,-39.5114517,0.2944853,0.0718257,10.7642756,0.1526718,-3.8396947,-2.1603053
7830,7.6518297,7.9032192,6.7228842,57.0687027,-97.1603088,-68.8625946,0.2944853,0.0598547,10.7092094,0.2366412,-3.7709923,-2.6793892
7840,8.4203644,7.7954807,7.0915890,72.3664093,-130.7938995,-113.9465637,0.2729376,0.0502780,10.6421719,0.2137405,-3.8320611,-2.7557251
7850,8.9542685,7.5847921,6.6271162,92.1450348,-147.2900696,-168.4045868,0.3447633,0.0670373,10.6397781,0.0152672,-3.8015268,-2.7175572
7860,7.9606800,8.1905222,6.2464404,112.7709961,-149.9465637,-220.9694672,0.2849085,0.0837966,10.6972389,0.1526718,-3.8167939,-2.3816793
7870,6.4978304,8.5975342,5.1546898,133.0229034,-148.2900696,-250.1374054,0.4165890,0.0885850,10.7738523,0.0687023,-3.8167939,-2.1908398
7880,3.4476328,8.8297710,3.3710186,149.1297760,-122.1755753,-250.1374054,0.3687052,0.0718257,10.7475166,0.1450382,-3.9923663,-2.8396947
7890,0.4285599,9.2343884,1.6783268,159.2061005,-92.0992355,-250.1374054,0.3160330,0.0670373,10.7355452,0.1297710,-3.9541984,-2.3740458
7900,-2.2529323,9.3373384,-0.6799498,160.1450348,-68.7557220,-250.1374054,0.2849085,0.0957676,10.7068148,0.0992366,-3.6106870,-2.2061069
7910,-5.2073622,9.9502516,-3.1244173,147.2671814,-43.7709923,-250.1374054,0.3567342,0.0670373,10.6924505,0.0381679,-3.8167939,-2.2137403
7920,-6.9862447,10.3572636,-4.2209558,121.0000000,-21.4885502,-200.0152740,0.3375807,0.1029501,10.6565371,0.1832061,-3.9160306,-2.1297710
7930,-8.5735922,10.1537571,-4.8673873,86.0229034,-3.4732823,-136.1755676,0.3567342,0.1029501,10.6828737,0.0763359,-3.8473282,-2.7175572
7940,-9.5480280,10.1489687,-5.0541339,48.9694672,12.2061071,-68.1068726,0.3303981,0.0885850,10.7211800,0.1526718,-3.8702290,-2.6259542
7950,-9.9981356,9.7850523,-4.2640514,17.4122143,20.6564884,-0.1755725,0.3064562,0.0837966,10.6852674,0.0839695,-3.9236641,-2.7633588
7960,-9.6773138,9.7251978,-3.3829896,-5.2290077,30.8091602,63.0687027,0.2968795,0.0574605,10.6924505,0.0534351,-3.6946564,-2.5572519
7970,-8.8632889,9.5599985,-2.9544299,-25.1145039,44.9694672,121.1984711,0.2849085,0.0430954,10.7139978,0.1068702,-4.0687022,-2.4122138
7980,-7.8936424,9.1122847,-2.9376705,-47.8931313,66.3206100,176.5496216,0.3950413,0.1364688,10.7642756,0.0687023,-3.7328243,-2.3587787
7990,-6.6558466,8.5664101,-2.1906834,-72.7709961,91.7862625,229.7099304,0.2944853,0.0550664,10.7834291,0.1450382,-3.8473282,-2.4885497
8000,-5.7676024,8.0348997,-1.3191984,-94.6335907,119.4198456,250.1297760,0.3399749,0.1077385,10.6924505,0.2137405,-3.9465649,-2.4427481
8010,-4.8578105,6.6271162,-0.6153067,-115.3816757,138.7862549,250.1297760,0.2968795,0.0287303,10.7714586,0.1297710,-3.9847329,-2.6641221
8020,-2.5785420,5.0421629,0.8475431,-129.7022858,133.8854980,250.1297760,0.3399749,0.1005560,10.6924505,0.0458015,-3.7557251,-2.4809160
8030,2.1475880,4.4819226,3.0932927,-127.0000000,97.1832047,250.1297760,0.4213773,0.1915352,10.8384953,-0.1297710,-3.0229008,-2.2290077
8040,9.5192976,5.4587522,6.0908179,-96.7404556,47.6335869,250.1297760,0.3088504,0.1005560,11.1976242,0.0458015,-2.7862597,-2.6335878
8050,16.0434628,6.3039007,7.9822278,-46.0305328,7.9083967,194.8778687,0.1436514,0.1029501,10.7906122,0.1297710,-4.4198475,-2.3053436
8060,18.8231182,5.9998388,8.2407999,-1.5190840,-22.4503822,70.1679382,0.2442073,0.0383070,10.6613255,0.0763359,-4.3129773,-2.3816793
8070,19.3282909,5.8442163,8.5520449,34.6106873,-64.1908417,-60.3282433,0.4094064,0.0311245,10.5895004,0.1908397,-4.3358779,-2.5572519
8080,17.9300842,5.7532372,8.4467001,66.7404556,-98.3969498,-177.9465637,0.3639168,0.0694315,10.6565371,0.0534351,-3.7480917,-2.5572519
8090,13.4409800,5.8035154,6.9168134,96.8320618,-117.6335907,-250.1374054,0.2968795,0.0885850,10.7906122,0.0916031,-3.7709923,-2.6793892
8100,8.6789370,5.8370337,4.8841467,117.3587799,-124.0000000,-250.1374054,0.2705434,0.1268920,10.7451220,0.1755725,-3.8396947,-2.3282442
8110,4.7907729,6.5816269,2.4396791,126.3053436,-108.3282471,-250.1374054,0.2896969,0.0766141,10.6852674,0.1603053,-3.9312978,-2.2595420
8120,0.8116302,7.7835097,0.0885850,125.4274826,-76.3511429,-250.1374054,0.3064562,0.1005560,10.7116032,0.1221374,-4.0381680,-2.1679389
8130,-2.2816625,9.0380650,-1.8387375,115.2061081,-34.6259537,-250.1374054,0.3782819,0.0981618,10.7211800,0.1679389,-3.9007633,-2.6259542
8140,-4.7883787,9.5192976,-3.3087699,97.0992355,4.1526718,-250.1374054,0.3040621,0.0909792,10.7882175,0.1068702,-3.9236641,-2.5725191
8150,-6.7324610,9.0907373,-4.3047528,73.0305328,32.9771004,-205.9694672,0.3232156,0.0646431,10.6661139,0.0381679,-3.7099237,-1.8396946
8160,-8.8010406,8.8872309,-4.5010762,49.7022896,53.0916023,-143.8931274,0.3232156,0.1244979,10.6924505,0.1679389,-3.8625953,-2.4961832
8170,-11.2287483,9.2056589,-3.9959023,32.7175560,66.9389343,-77.7862625,0.3136388,0.0766141,10.7139978,0.1679389,-3.8473282,-2.4045801
8180,-13.9006643,9.5791521,-4.0294209,20.7938938,79.3969498,-6.0381680,0.3327923,0.0550664,10.7523050,0.0381679,-3.8549619,-2.5725191
8190,-15.1647959,9.9670105,-4.7165532,5.1297708,100.5954208,71.8091583,0.2896969,0.1029501,10.7930059,0.1068702,-3.9160306,-2.8625953
8200,-14.7194767,9.6294298,-5.5090299,-20.9694653,124.2977066,150.1603088,0.3040621,0.0550664,10.6780853,-0.0229008,-3.8091602,-2.2290077
8210,-13.4577389,9.2487535,-5.5162125,-59.4503822,156.1832123,224.4045868,0.3016679,0.1149211,10.6732969,0.0687023,-3.9083970,-2.4885497
8220,-12.4713326,8.3772688,-4.4699516,-100.9007645,183.8473358,250.1297760,0.2825144,0.0526722,10.7283630,0.0000000,-3.8778627,-2.9236641
8230,-10.3812056,7.3238254,-2.8012016,-133.2824402,199.7251892,250.1297760,0.3423691,0.1173153,10.6948442,0.2824427,-3.9465649,-2.5267177
8240,-8.2120695,6.4667058,-1.2928623,-153.4198456,203.5114441,250.1297760,0.3160330,0.0718257,10.7642756,0.1984733,-3.8778627,-2.6030533
8250,-5.6981707,5.7173243,-0.0143651,-162.1526642,199.4809113,250.1297760,0.3232156,0.1053443,10.6325951,0.0839695,-3.8625953,-2.6870229
8260,-3.5673423,4.5920553,0.6416427,-164.0305328,187.6564941,250.1297760,0.3256098,0.1029501,10.7139978,0.2290076,-3.8015268,-2.4732823
8270,0.9528874,3.6846576,2.0374553,-157.7786255,155.9694672,250.1297760,0.2825144,0.1221037,10.7906122,0.0381679,-3.7938931,-2.5954199
8280,6.4068508,3.5003049,3.8642218,-139.5343475,109.7480927,250.1297760,0.3208214,0.1436514,10.7570934,0.0763359,-4.0763359,-2.2824428
8290,13.5128050,4.2999644,6.3733325,-104.7480927,38.6030540,250.1297760,0.3902529,0.1125269,10.7954006,0.1068702,-4.0152674,-2.6946564
8300,19.6126022,4.3861551,9.1146793,-51.4198456,-32.8091621,170.2671814,0.3423691,0.1077385,10.7738523,0.0152672,-3.7938931,-2.1145039
8310,19.6126022,4.0629396,8.4897957,86.4427490,-174.9160309,-250.1374054,0.3375807,0.0598547,10.6397781,0.2061069,-3.7404580,-2.8931298
8320,15.5023766,4.7333126,6.8521700,109.1374054,-196.4656525,-250.1374054,0.2896969,0.0359128,10.6278067,0.1526718,-4.0839696,-2.4732823
8330,11.9829178,5.2576399,5.1259594,128.4885559,-192.0381622,-250.1374054,0.3447633,0.1149211,10.7163916,0.1221374,-3.9160306,-2.5801528
8340,8.6358414,6.1578555,3.3135581,140.8854980,-174.2900696,-250.1374054,0.3303981,0.1125269,10.7954006,0.1374046,-3.6946564,-2.5267177
8350,5.3534074,6.7564025,1.3335636,144.7709961,-142.7557220,-250.1374054,0.3543400,0.1053443,10.7163916,0.2290076,-3.7862597,-2.3129771
8360,-0.5698171,7.1705976,-1.7118455,126.6183243,-55.3664131,-250.1374054,0.3232156,0.1532281,10.7642756,0.1679389,-3.9694657,-2.3358779
8370,-3.3829896,7.0748301,-2.7796540,109.4503784,-17.2977104,-250.1374054,0.3495516,0.1340746,10.6589317,0.0916031,-3.9541984,-2.2290077
8380,-6.4307928,6.8138633,-3.4212968,92.7557220,12.6488552,-250.1374054,0.3687052,0.0335187,10.7738523,0.1068702,-4.0000000,-2.5572519
8390,-10.4171181,6.9670911,-3.4979107,81.1832047,28.3664131,-211.5572510,0.3160330,0.0694315,10.8313131,0.0229008,-3.8167939,-2.0763359
8400,-14.8032732,7.8457589,-3.7876077,73.9389343,33.0687027,-139.2671814,0.3495516,0.1077385,10.7523050,0.2366412,-3.8625953,-2.3969467
8410,-18.0282459,8.9303265,-4.8769641,62.5114517,42.3893127,-53.5801544,0.2561783,0.0550664,10.7116032,0.0992366,-3.8015268,-1.8778626
8420,-18.9069138,9.8592720,-6.5648675,37.4503822,65.1297684,40.5572510,0.2466015,0.0933734,10.7187862,0.1755725,-3.9541984,-2.4274809
8430,-17.7529144,10.0962973,-8.6023226,-6.5343513,105.8091583,139.8778687,0.2920911,0.0502780,10.7666702,0.1755725,-3.8396947,-2.3511450
8440,-15.5957499,9.3612804,-9.2846670,-68.1145020,149.9923706,239.8473358,0.3351865,0.0837966,10.6613255,0.1603053,-3.9007633,-2.1832061
8450,-12.6700506,7.9918046,-8.3078375,-135.1832123,184.7709961,250.1297760,0.3303981,0.0861908,10.8361015,0.0610687,-3.8931298,-2.6030533
8460,-9.8042059,6.6773944,-5.6095858,-186.8320618,210.0534363,250.1297760,0.3064562,0.0598547,10.7355452,0.1221374,-4.0152674,-2.3282442
8470,-7.1275020,5.2743993,-2.8442972,-219.0152740,220.1755676,250.1297760,0.2633608,0.0885850,10.6996326,0.0763359,-3.8473282,-2.6488550
8480,-4.9296360,4.1251884,-0.4955972,-231.4503784,217.4198456,250.1297760,0.3016679,0.0742199,10.7259684,0.1984733,-4.0152674,-2.4122138
8490,-2.5067163,2.9017577,1.6663558,-227.3282471,203.8396912,250.1297760,0.3926471,0.0670373,10.6924505,0.0076336,-3.7862597,-2.3740458
8500,0.4572902,1.5059452,3.1196289,-211.3206177,177.5648804,250.1297760,0.3088504,0.1029501,10.7163916,-0.0305344,-3.8473282,-2.0916030
8510,5.3677726,0.6200951,5.4874821,-184.2213745,126.0000000,250.1297760,0.3495516,0.1173153,10.7092094,0.0534351,-3.8854961,-2.4045801
8520,15.1193066,1.2784972,8.3724804,-137.7557220,36.3664131,250.1297760,0.3375807,0.1077385,10.7427282,0.1984733,-3.8625953,-2.3893130
8530,19.6126022,1.7836711,11.0180597,-65.8702316,-57.5496178,190.6717529,0.3447633,0.0718257,10.6876621,0.2137405,-3.9160306,-2.8015268
8540,19.6126022,1.3311694,12.5766773,18.9160309,-129.1984711,-39.1984749,0.3040621,0.0694315,10.6924505,0.2061069,-3.7938931,-2.6793892
8550,19.6126022,1.0965388,12.4809093,84.8778610,-201.5343475,-250.1374054,0.2561783,0.0766141,10.6876621,0.0305344,-3.9770992,-2.9618320
8560,19.6126022,1.1396341,10.3668404,118.4427490,-250.1374054,-250.1374054,0.3016679,0.1053443,10.7666702,0.0992366,-3.7633588,-2.6335878
8570,17.1591549,1.4317253,7.9223728,133.5114441,-250.1374054,-250.1374054,0.3423691,0.1077385,10.7690639,0.2595420,-3.8396947,-2.3358779
8580,12.5527353,2.3702476,6.0189924,151.6412201,-250.1374054,-250.1374054,0.3830703,0.1556223,10.7307568,0.0839695,-3.9312978,-2.3435113
8590,6.8114691,4.1204000,4.1922259,171.7251892,-224.2519073,-250.1374054,0.3184272,0.0694315,10.7714586,0.1068702,-3.9694657,-2.2519083
8600,1.4556671,5.1044121,1.9584470,183.7633514,-179.4427490,-250.1374054,0.3232156,0.1244979,10.7211800,0.1984733,-3.8473282,-2.8244274
8610,-1.9752063,4.8099265,-1.6926919,178.2977142,-134.7938995,-250.1374054,0.2920911,0.1244979,10.7834291,0.0610687,-3.7709923,-2.4656489
8620,-5.4372044,4.8051381,-3.5817075,158.2977142,-90.7938919,-250.1374054,0.2968795,0.1244979,10.7163916,0.0381679,-3.9541984,-2.7938931
8630,-10.9222927,4.4124913,-4.7285242,132.3740387,-61.5496178,-250.1374054,0.2825144,0.0885850,10.7451220,0.1984733,-3.9541984,-2.5648854
8640,-17.9396610,5.1977854,-5.4300218,111.5190811,-45.0152664,-250.1374054,0.2825144,0.0766141,10.6565371,0.0076336,-3.6946564,-2.4580152
8650,-19.6131992,6.8473821,-6.6965480,84.2824402,-38.3893127,-180.9618378,0.3136388,0.1053443,10.7403336,0.2442748,-3.8244274,-1.9694656
8660,-19.6131992,7.8720951,-8.1234846,48.0610695,-19.4045811,-42.6030540,0.3232156,0.0550664,10.6900558,0.1755725,-3.9618320,-1.9312977
8670,-19.6131992,9.4977493,-10.2447367,-2.3358779,27.9923668,96.0763321,0.3256098,0.1173153,10.8337069,0.2137405,-3.9007633,-2.4274809
8680,-19.6131992,9.9694052,-11.7411051,-73.3129807,108.0763321,236.4351196,0.3112446,0.1005560,10.7546988,0.1526718,-3.9007633,-2.1145039
8690,-19.5102501,7.7619624,-11.1497402,-157.6870270,198.8320618,250.1297760,0.3567342,0.1340746,10.7451220,0.0534351,-3.8854961,-2.5496182
8700,-17.6691189,5.1570840,-8.4706421,-234.9313049,250.1297760,250.1297760,0.3519458,0.1029501,10.7475166,0.0916031,-3.7251909,-2.8320611
8710,-14.8679161,2.4492557,-5.1522956,-250.1374054,250.1297760,250.1297760,0.3040621,0.0574605,10.7762470,0.1603053,-3.9541984,-2.0381680
