timestamp,rxacclX,rxacclY,rxacclZ,rxgyroX,rxgyroY,rxgyroZ,txacclX,txacclY,txacclZ,txgyroX,txgyroY,txgyroZ
0,2.1667414,13.1010046,-4.4436154,234.7938995,-250.1374054,41.1603050,1.5394639,4.7476778,10.1609402,17.1221371,-6.1679387,-10.7557249
10,-1.8578910,15.1552191,-6.6414814,194.7404633,-250.1374054,37.7099228,1.5179161,4.6806402,10.1992474,17.5877857,-6.7328243,-11.5114508
20,-2.8155668,15.2964764,-6.6989422,143.9694672,-246.8396912,60.8320618,1.5250987,4.7189474,10.1753054,18.6106873,-6.9770994,-11.9236641
30,-2.6455793,13.6396971,-3.6367738,106.6488571,-250.1374054,75.9312973,1.5729824,4.6255741,10.2686787,20.3206100,-6.9923663,-11.9312973
40,-2.4971397,12.6317434,0.7924767,106.2366409,-250.1374054,83.4274826,1.6543850,4.7165532,10.2662840,21.8167934,-6.2519083,-12.9007635
50,-3.6846576,11.4394369,2.4301023,132.2900696,-250.1374054,103.4885483,1.8267666,4.7668314,10.2255831,22.9618320,-4.9465647,-13.9007635
60,-5.9064655,10.4985209,2.0206959,172.1068726,-229.1832123,141.1221313,1.9009864,4.9535780,10.2878323,23.9923668,-4.4656487,-15.3664122
70,-5.2217274,11.0036945,-0.0598547,217.1755676,-215.5114441,179.5877838,1.7908537,4.9942794,10.6182299,25.3664131,-4.2366414,-17.7404575
80,-3.4356618,10.4051476,-3.2489152,250.1297760,-226.5572510,200.5648804,1.7836711,5.0996237,10.7499104,27.1908398,-4.4656487,-19.7786255
90,-2.9711890,9.6844959,-6.6678176,250.1297760,-240.4198456,207.6259613,1.6831152,5.2839761,11.1114330,29.4656487,-4.9236641,-21.6870232
100,-2.6743097,9.8975792,-8.7986460,250.1297760,-235.4503784,215.2595367,1.6519908,5.4443870,11.2933912,32.4045792,-5.4351144,-23.1374054
110,-1.6472024,10.1250277,-10.1441803,232.4809113,-215.8320618,219.8244324,1.3646880,5.5904322,11.3843708,34.9923668,-5.8473282,-22.6030540
120,-1.0175306,9.2104464,-11.1664991,200.4580078,-188.8854980,217.7938995,1.1109039,5.6287394,11.6309719,36.8931313,-4.2595420,-23.1068707
130,-2.4205256,8.7387915,-10.5487986,163.9923706,-149.9084015,221.1374054,1.0318956,5.3845320,11.9326401,35.8473282,2.0152671,-23.1221371
140,-4.0102673,8.3006544,-8.4682484,139.0229034,-121.7557220,233.5648804,0.5650287,5.3462253,12.8998928,31.9847336,14.6412210,-24.0229015
150,-3.8450682,7.9367380,-6.8832946,133.4656525,-104.7328262,247.7099304,0.1795642,5.2791877,14.4249916,27.6946564,28.5725193,-24.1679382
160,-3.3973548,7.1897511,-5.9806852,140.2595367,-91.1832047,250.1297760,-0.3064562,5.0301919,16.5366669,29.0381680,36.8854980,-21.4198475
170,-3.0166788,6.5313487,-6.0980005,149.1755676,-74.3969498,250.1297760,-0.4405309,4.9942794,18.2054157,42.3969460,41.8396950,-17.7557259
180,-2.8490853,5.8561873,-7.7499914,145.4656525,-45.4045792,250.1297760,-1.3191984,4.6973996,19.2756195,65.8320618,35.8854980,-11.9083967
190,-2.1978660,5.8490047,-8.7148495,131.2519073,-13.1145039,250.1297760,-1.7884595,4.3885493,19.0888729,97.2900772,25.0305347,-2.1221373
200,-2.1499822,5.7723908,-9.4067707,110.6564865,10.8473282,250.1297760,-1.7525467,4.3717899,17.4919491,129.9084015,5.4809160,7.3129773
210,-3.0597742,5.7005649,-9.1481981,90.9007645,19.2366409,250.1297760,-0.8475431,4.6806402,14.8703108,155.5725250,-14.9312973,12.8167934
220,-3.9432299,5.2097564,-9.2032642,75.2824402,6.7709923,250.1297760,-0.1987177,4.8721757,12.0284081,169.9770966,-33.3358765,14.1145039
230,-2.4229198,4.1778607,-8.3317795,66.2366409,-19.5114498,250.1297760,0.2920911,5.3558016,8.9518747,173.6335907,-47.3816795,11.3206110
240,0.7158626,2.9807658,-6.4283986,67.2290039,-32.7480927,250.1297760,0.5650287,6.0908179,6.0980005,167.1450348,-51.8320618,9.0534353
250,4.3670015,1.5538290,-5.4707227,69.8015289,-31.5267181,250.1297760,0.7589580,6.5792327,3.7109938,149.9084015,-43.5267181,9.2061071
260,7.5105724,-0.5243275,-5.2743993,60.7328262,-12.5954199,250.1297760,0.5698171,6.7875271,2.2649033,124.2137375,-33.9465637,11.2977095
270,9.6054878,-3.0741394,-4.9416070,32.7633591,23.6335869,250.1297760,-0.0766141,6.7659793,2.3319404,98.3435135,-35.7557259,14.6564884
280,10.5607700,-6.7109132,-3.1507533,-7.3129773,59.7557259,240.1755676,-0.2705434,6.7947097,3.3063757,79.7557220,-45.8244286,20.4503822
290,13.0435438,-11.2670555,-0.8188128,-47.0534363,95.9694672,184.8091583,-0.0191535,6.5552907,4.0318151,70.1297684,-55.7480927,25.9083977
300,15.7968616,-18.6339760,0.4908088,-93.6412201,144.2442780,119.2519073,0.7469871,6.1003947,4.1443419,66.5114517,-61.9465637,28.5572510
310,16.8550930,-19.6131992,1.8076130,-143.2824402,211.4351196,70.3282471,1.3383518,5.7197185,4.1371593,65.2442780,-60.6641235,28.5572510
320,15.4233685,-19.6131992,4.3717899,-181.1908417,250.1297760,66.9542007,1.8171898,5.4132624,3.8259149,64.5877838,-55.4656487,26.5419846
330,13.6349087,-19.6131992,6.0501165,-208.3664093,250.1297760,104.4198456,2.1643472,5.2839761,3.5386121,63.9771004,-46.5954208,24.2671757
340,13.4170380,-15.7178535,11.9110928,-209.7175598,250.1297760,168.7557220,2.2337787,5.2313042,3.6104376,62.1908379,-38.0076332,24.4656487
350,16.4959660,-4.5896611,19.6126022,-150.4732819,166.2442780,218.5343475,2.3463056,5.1738434,3.4572096,60.2595406,-31.4274807,26.1679382
360,19.6126022,4.7428894,19.6126022,-30.4732819,0.9847328,216.3129730,2.5689652,5.0086441,3.2225790,59.1221390,-24.9160309,26.9541988
370,19.6126022,8.6023226,19.6126022,135.3053436,-111.2137375,102.7175598,2.9113343,4.7907729,3.0047078,58.0458031,-18.0076332,26.8854961
380,19.6126022,7.1801744,12.6413202,246.2824402,-163.5038147,-95.1908417,3.1675127,4.6447277,2.6120608,54.9389305,-10.0687027,24.8854961
390,19.6126022,1.7645177,-1.6639616,229.4885559,-110.4198456,-250.1374054,3.2082138,4.6016321,2.2026544,47.9847336,-3.3435113,22.0839691
400,19.6126022,-7.5584559,-10.6685085,115.7251892,17.1450386,-250.1374054,3.3662305,4.7021880,2.0278785,37.7328262,0.4885496,15.9770994
410,19.6126022,-17.6858768,-12.8663740,-23.7557259,158.8396912,-250.1374054,3.2728570,4.6854286,2.0877333,25.5572510,2.7099237,9.2442751
420,14.3699255,-19.6131992,-9.0308828,-109.7251892,235.6030579,-250.1374054,3.0717452,4.9679432,1.4436963,12.4198475,17.0305347,3.8167939
430,7.1825686,-19.6131992,-2.8538737,-116.4351120,226.7786255,-250.1374054,2.1691356,4.8554163,2.3271523,-4.3969464,9.0305347,0.5877863
440,4.6758518,-19.6131992,1.3024391,-57.0228996,169.1374054,-250.1374054,2.1308286,4.9056940,2.6862805,-23.0076332,-7.6412215,-3.0687022
450,5.6335278,-16.9125538,2.0135133,24.6030540,116.8015289,-250.1374054,2.1763182,5.0110383,3.0621684,-41.0763359,-24.9694653,-8.5725193
460,5.8202744,-12.2438850,-1.2569494,86.0534363,101.0076370,-250.1374054,2.3774302,5.1187773,3.5673423,-57.2442741,-35.9618340,-12.4351149
470,4.0964580,-5.7963328,-5.8274570,111.5572510,102.9465637,-250.1374054,2.5426292,5.3486195,4.2065907,-68.8549652,-40.9389305,-14.8396950
480,2.9304879,1.2976507,-9.4019823,112.5725174,103.9923630,-250.1374054,2.4324965,5.5210009,4.9966736,-76.9542007,-44.4809151,-17.7633591
490,3.7109938,7.1083484,-11.6884327,103.8854980,92.0534363,-250.1374054,2.6288199,6.1171541,5.1259594,-82.5343475,-46.1374054,-20.2366409
500,4.2975702,9.4474716,-14.2669754,84.1450348,88.8473282,-241.9694672,2.2074428,6.1650376,5.6454988,-89.0839691,-51.7099228,-23.3053436
510,5.7316895,11.4202833,-16.5941277,47.4351158,96.2519073,-215.3969421,2.6383967,6.3589673,6.3853035,-89.6870193,-52.1603050,-23.5801525
520,6.4355812,14.4249916,-16.7114429,3.0534351,110.7404556,-201.0992432,3.1052637,7.0844064,6.6271162,-90.0152664,-49.4045792,-32.4198456
530,4.9392128,16.3547077,-14.4441452,-30.6641216,113.0839691,-188.8702240,2.5593886,7.2160869,6.8880830,-89.4045792,-46.4580154,-35.7862587
540,4.3071470,17.4225159,-10.7355452,-39.3740463,98.0457993,-167.8931274,2.1404054,7.9702568,7.0652533,-90.7175598,-42.0076332,-34.1603050
550,4.3909435,18.1288033,-7.7667508,-22.9160309,69.7175598,-153.2213745,1.7645177,8.2264347,7.6901364,-90.5419846,-36.1374054,-31.0458012
560,5.0900469,16.9556503,-6.0740585,4.4885497,37.3206100,-146.8244324,1.6495966,8.2910776,8.2886839,-88.3816757,-30.8549614,-28.5343513
570,5.8322453,15.8303804,-5.4587522,32.0992355,4.9847326,-150.1450348,1.5969244,8.3844519,8.9686337,-84.4427490,-22.3358784,-26.5114498
580,5.3222833,14.3675308,-5.3151007,51.9389305,-31.8473282,-162.7862549,1.2114599,8.5233145,9.8401184,-78.6488571,-12.0152674,-23.7175579
590,3.5817075,11.8464499,-4.6327567,61.8854980,-70.1526718,-174.7099304,0.8571198,8.4275465,10.4841557,-72.2213745,-2.0687022,-18.7862587
600,1.9368993,10.0077124,-3.7038112,63.6183205,-97.1145020,-174.5954132,0.7302278,8.4155760,11.3149395,-63.5801544,6.2748094,-13.1068707
610,1.0055596,8.4275465,-1.9249283,60.9007645,-97.1908417,-163.6030579,0.6871324,8.2623482,11.9805241,-53.1755714,13.2290077,-8.3358774
620,1.3024391,6.6654234,0.2681492,66.2748108,-75.9694672,-146.4885559,0.8116302,8.0732069,12.4449968,-41.2137413,17.7404575,-5.6870227
630,1.5059452,4.8075323,0.3998296,74.9542007,-63.5877876,-133.4045868,0.7805058,7.8218169,12.7801828,-26.3893127,21.2290077,-5.0000000
640,0.8619082,3.9695661,0.5243275,82.5343475,-55.3740463,-126.3129807,0.7278336,7.5153608,12.8639803,-11.0992365,23.9007626,-5.0229006
650,0.3280039,4.0198441,0.9337339,87.4351120,-48.1526718,-119.1450348,0.5315101,7.2903070,12.7275114,4.0381680,24.6793900,-4.6259542
660,0.2466015,3.6056492,1.2162483,91.8625946,-39.0458031,-113.4503784,0.5985473,6.9599090,12.5766773,18.8931293,25.4198475,-3.9541984
670,0.5937590,2.6743097,1.3503228,96.1450348,-28.1603050,-113.2137375,0.7110743,6.9263902,11.7842007,31.8396950,25.9007626,-3.2595420
680,0.2801202,1.5921360,1.5658000,102.0992355,-14.1526718,-114.5877838,0.8236012,6.6821828,11.0731258,41.5114517,25.8091602,-2.1603053
690,-1.1947005,1.0893562,1.4006008,109.6259537,-2.2290077,-108.0076370,1.0965388,6.6271162,10.2902260,48.2824440,27.0916023,-1.3893130
700,-1.9416877,1.1970947,0.8212070,115.2061081,-0.6870229,-93.6335907,1.2138541,6.4882536,9.9502516,53.4656487,29.1145039,0.1450382
710,-1.9847831,0.7565638,0.0574605,118.6641235,-6.0076337,-79.9618301,1.4724265,6.4475522,9.0141230,59.1526718,34.9083977,1.6106870
720,-1.9416877,0.0790083,-0.8834559,118.3206100,-10.6946564,-69.0763321,1.5227045,6.4379754,8.3820572,65.7557220,50.5419846,5.9694657
730,-2.3391230,-0.2968795,-2.0829449,112.6717529,-15.8396950,-53.9771004,1.2832855,6.0333576,8.1450329,68.0229034,53.0000000,10.2824430
740,-2.2265961,-0.0071826,-2.8012016,99.4503784,-22.7328243,-33.8625946,1.3287752,6.0860295,8.1617918,66.0992355,43.3206100,10.5038166
750,-1.1779412,0.7398046,-3.3614421,80.8854980,-17.2519093,-16.7404575,1.7621235,5.9830794,7.2567883,60.7938919,32.5877876,8.1526718
760,0.8140244,1.9752063,-5.0661049,29.3740463,0.9236641,-20.9007626,1.7405758,6.0285692,6.6678176,51.2366409,23.8854961,4.8854961
770,-0.2537841,3.6271970,-7.2974896,-36.9312973,2.3893130,-31.9389305,1.6639616,5.8849177,6.6582408,49.0152664,21.2442741,3.3053436
780,-0.6560079,5.0062504,-8.0947542,-72.6870193,6.0687022,-38.4809151,1.8842272,5.6407104,6.3781209,48.0534363,18.5267181,1.8702290
790,-1.7884595,5.9735026,-7.4650826,-101.5954208,17.5496178,-40.9160309,1.9129574,5.5329719,6.3398137,47.9083977,17.7862587,-0.3053435
800,-2.7245877,6.9431496,-6.1219425,-114.6870193,33.2213745,-29.1755733,1.9249283,5.2959471,6.3685441,47.8015251,19.7404575,-3.5648854
810,-3.4835455,8.5759869,-5.9304070,-112.5496216,40.1679382,-13.3740454,1.8483143,5.3462253,6.2847471,47.3129768,21.8091602,-6.1450381
820,-3.9719603,10.0125008,-5.7508430,-99.6412201,34.7709923,1.8091604,1.7501525,5.4036856,6.2703824,46.9541969,23.5877857,-7.9694657
830,-2.7078283,10.2591019,-4.9559722,-75.7328262,17.6259537,8.0916033,1.6184721,5.6359220,6.3422079,45.8091621,25.7633591,-8.7099237
840,-2.5043221,12.2103662,-4.5322008,-42.5648842,4.9236641,7.6259542,1.5322813,5.7723908,6.3158717,44.3511467,27.6183205,-8.6183205
850,-2.5737536,14.4465389,-4.8841467,-5.1450381,-2.2137403,10.0305347,1.4221486,5.8729467,6.2224984,42.3435097,28.5114498,-8.8091602
860,-3.2704628,15.4880114,-6.0836353,23.5877857,-4.5572519,20.1984730,1.2401901,5.9878678,6.3182659,40.0076332,25.6259537,-10.6335878
870,-3.3686244,15.5933561,-7.8074517,37.9160309,-5.4809160,37.1145020,1.0917504,6.1937680,6.4355812,37.0610695,20.5801525,-14.1603050
880,-2.3798244,14.4561157,-8.8010406,35.8396950,-8.7938929,51.1984749,1.0558375,6.5576849,6.5576849,33.7251892,15.0000000,-18.5343513
890,-0.9002152,12.3995075,-7.8864598,26.0610695,-22.4503822,52.9236641,0.9576758,6.9934273,6.7204900,29.8473282,10.7938929,-22.0076332
900,-0.6655847,11.6381550,-6.2296810,24.3893127,-33.7022896,50.2748108,0.6536137,7.4435349,7.1442614,26.9007626,5.5343513,-24.4351139
910,-0.8882443,10.7546988,-4.7572546,31.2824421,-47.8702278,53.3129768,0.3950413,7.6829538,7.6159167,25.4809170,0.7480916,-24.8473282
920,-0.6584021,9.4115591,-3.3135581,42.9694672,-60.2290077,56.3969460,0.2035061,8.0564480,7.9343438,25.3282452,-1.7786260,-24.3664131
930,-0.1699875,8.3245964,-2.2672975,59.8091621,-64.4580154,55.9312973,0.1292862,8.1809454,8.1258793,26.2824421,-0.7099237,-24.3969460
940,-0.2681492,7.1993275,-2.3319404,79.0457993,-59.9694672,58.7786255,0.0071826,8.3437500,8.4012108,29.2824421,4.5190840,-22.8167934
950,-0.3974355,6.4236102,-3.1411765,95.5954208,-52.2137413,66.9007645,-0.0598547,8.4610653,8.6430235,33.5419846,11.4809160,-21.6488552
960,-0.3974355,5.8537931,-4.6830344,103.0457993,-41.1374054,76.3129807,-0.0957676,8.6142941,8.9159613,40.3282433,17.3435116,-20.0610695
970,-0.5434810,5.8370337,-6.0405402,100.4885483,-30.8549614,82.4809189,-0.2082945,8.8848372,8.9375095,46.2671738,20.4274807,-19.9389305
980,-1.4436963,5.4659348,-7.2519999,93.1679382,-27.9160309,88.3587799,-0.3112446,9.1529865,8.4443064,50.0534363,21.5801525,-16.9007626
990,-2.3103929,5.4252334,-7.7475972,84.6106873,-34.8396950,97.7022934,-0.3998296,9.0739784,8.1258793,50.7480927,20.7175579,-12.3358774
1000,-2.8227494,5.5042415,-7.9295554,77.9389343,-40.0610695,110.2290039,-0.3687052,9.3277617,7.6207051,48.9007645,19.4503822,-6.8854961
1010,-3.2393384,5.2624283,-8.0109577,74.5572510,-41.7175560,121.1145020,-0.2274480,9.1505919,7.3908629,45.1450386,17.4198475,-0.9160305
1020,-3.8881636,5.0254035,-8.1498213,74.9236679,-40.5877876,133.1603088,-0.1125269,8.9566631,7.1490498,42.2137413,15.2748089,4.7328243
1030,-4.3693957,5.3486195,-8.0109577,80.4732819,-42.2519073,146.2442780,0.0766141,8.8345594,6.9311786,39.8778610,14.2748089,9.5648851
1040,-4.9799142,5.1570840,-8.0085640,92.1679382,-51.5419846,160.4580078,0.5530578,8.4323349,6.8282285,39.3129768,13.5114508,13.5801525
1050,-5.3174949,4.5729017,-8.5448618,103.4045792,-63.7557259,176.9160309,1.1348459,8.2455883,6.6678176,39.6106873,14.0839691,15.5038166
1060,-5.2001796,4.2425036,-9.2008705,106.5114517,-71.2213745,195.2061005,1.4867916,8.1019373,6.5840211,42.4580154,13.9312973,14.0076332
1070,-4.8554163,3.7564833,-9.6246414,104.0687027,-75.7022934,213.7633514,1.7333932,7.9606800,6.2991123,45.7404594,11.1068707,10.0534353
1080,-4.5537481,3.5074875,-9.3373384,99.9389343,-84.4961853,229.5572510,1.8770446,8.0660238,5.7077475,47.9160309,5.4732823,5.3206105
1090,-3.7421181,3.4667864,-8.9949694,95.4961853,-92.1374054,240.3282471,1.9680238,8.0732069,5.1259594,48.2366409,-1.5572519,0.2748092
1100,-2.4061604,3.4404502,-8.4203644,92.0076370,-85.2519073,249.2061005,2.0422437,8.2719250,4.4843168,44.8854980,-8.5190840,-3.1679389
1110,0.0981618,4.4771342,-8.2886839,89.6030502,-57.8549614,250.1297760,1.8147956,8.3557215,3.7995787,37.9083977,-16.6106873,-7.0839696
1120,2.5929072,5.7005649,-8.9207497,86.9847336,-12.4885492,250.1297760,1.8985922,8.4155760,3.3327117,28.3358784,-24.7404575,-10.3282442
1130,4.3191175,6.7827387,-10.0603838,77.8244247,40.8473282,237.8625946,1.8435259,8.4993725,2.9520357,17.2824421,-30.3816795,-12.7786255
1140,5.1163831,8.0756006,-11.7889891,60.8473282,84.6106873,220.1374054,1.6424140,8.5903521,2.9759774,6.7480917,-32.9389305,-13.6641226
1150,4.6638808,8.7723103,-13.2853575,42.9236641,102.5725174,203.7328186,1.4413021,8.5783806,2.8107784,-3.0763359,-35.2824440,-11.4961834
1160,3.8929520,8.4850073,-14.7553892,29.4122143,94.7404556,192.3206177,1.5418580,8.4131813,2.7102225,-13.8167934,-38.2900772,-9.5725193
1170,2.5953014,7.8744893,-15.0355101,26.8702297,53.1603050,188.2900696,1.6807210,8.3509331,2.8969693,-24.5419846,-40.0228996,-8.0916033
1180,1.8100072,6.8569584,-14.4249916,39.5343513,-15.1374044,190.0763397,1.7166338,8.1881275,3.1770895,-33.8778610,-40.3893127,-8.1679392
1190,2.1260402,4.8147149,-13.2470503,59.9541969,-82.9236679,193.3282471,1.9416877,8.1546097,3.5721307,-41.1984749,-39.0381660,-8.6641226
1200,3.5242469,3.1675127,-11.5806942,85.3893127,-138.7328186,188.6183167,2.0350611,8.1713686,4.2377152,-46.6870232,-37.7862587,-9.9236641
1210,5.5018473,0.3016679,-9.9071560,108.1755753,-176.1755676,171.4656525,1.8890154,8.3174143,4.7596488,-50.0534363,-38.0763359,-11.4045801
1220,7.4770536,-2.1523764,-7.7595682,120.9465637,-181.4503784,148.0076294,1.9776005,8.5999289,5.2959471,-52.1908379,-39.6183205,-13.3664122
1230,10.5847120,-4.1395535,-5.1451130,125.2290039,-154.7938995,117.5648880,1.7860653,8.8130112,5.6814117,-53.7862587,-40.0152664,-15.4809160
1240,15.8016500,-5.7005649,-2.3151813,126.7557220,-103.9312973,70.7404556,1.5586174,8.8513184,6.0309634,-54.2977104,-39.1068687,-15.3358774
1250,19.6126022,-8.6909075,-1.2545552,122.6641235,-52.2213745,8.9465647,1.2784972,8.7770987,6.4810710,-52.0992355,-37.2290077,-14.3358774
1260,19.6126022,-12.2414904,-1.2473727,100.7862625,1.2977099,-34.1526718,0.9720409,8.6430235,6.8473821,-46.5954208,-33.7251892,-13.0381680
1270,17.8127689,-12.2917690,-1.5753766,65.4045792,78.5954208,-22.7786255,0.7254394,8.5113440,6.7204900,-39.2748108,-27.3969460,-11.2213745
1280,13.5271702,-9.9765873,-3.8618276,11.7328243,164.6946564,43.3053436,0.3232156,8.2743187,6.4499464,-32.1984749,-19.3435116,-10.1145039
1290,9.6797075,-4.9511838,-6.3326311,-59.5648842,211.0458069,140.0763397,-0.0071826,8.0827837,5.9806852,-26.1526718,-10.0229006,-8.1145039
1300,12.9645357,1.3072275,-5.2217274,-128.0152740,214.2977142,205.6946564,-0.4812321,7.8577299,5.6670465,-20.4427490,1.1755725,-7.0610685
1310,18.7488976,6.1937680,-1.8842272,-168.6717529,187.7633514,201.2061005,-1.2138541,7.6781654,5.2767935,-14.3282442,16.6564884,-5.5496182
1320,19.6126022,11.8057480,2.8969693,-173.0534363,157.4961853,135.3587799,-2.1140692,7.3956513,5.0134325,-10.7099237,31.8396950,-2.1755726
1330,19.6126022,15.2438040,6.0692701,-142.3206177,139.4427490,24.6259537,-3.0190730,7.3094602,5.0876527,-11.0839691,41.3740463,2.4503818
1340,19.6126022,13.7809544,6.3493905,-85.5190811,118.2137375,-105.4198456,-3.6224086,7.1658092,5.3581958,-13.9541988,45.5877876,8.0916033
1350,19.6126022,8.5113440,3.7205703,-32.8702278,80.7862625,-231.4809113,-3.9791429,7.1370788,5.8370337,-16.6488552,44.9007645,13.8167934
1360,19.6126022,1.7597293,-1.0318956,-7.7175574,50.5801544,-250.1374054,-3.9935081,7.0556765,6.1530671,-19.4427490,39.9923668,20.8854961
1370,18.5860920,-3.9456241,-5.1139889,-16.7862587,30.7099228,-250.1374054,-3.4021432,7.0868006,6.2608056,-23.6488552,29.9236641,26.9236641
1380,15.0067797,-7.8697009,-7.6254935,-54.1221390,12.2213745,-250.1374054,-2.3271523,7.1658092,6.3972740,-28.3282452,18.4961834,30.4274807
1390,14.4202032,-8.8896255,-7.0149751,-98.7633591,0.0839695,-250.1374054,-1.2761030,7.0724359,6.5050125,-32.9389305,11.5954199,30.8396950
1400,15.5143480,-8.4395180,-4.2879934,-123.8167953,-1.9541985,-250.1374054,-0.5027798,7.0891948,6.9934273,-35.0305328,9.6488552,31.4351139
1410,15.5742025,-8.6238708,-3.3327117,-125.1297684,22.2519093,-250.1374054,0.1508339,7.1538382,7.4746594,-33.2290077,12.5725193,30.1755733
1420,14.1209297,-8.3772688,-5.6742291,-125.9236679,63.4198456,-250.1374054,0.7182568,7.2280579,7.8744893,-27.3282452,19.1145039,30.2366409
1430,10.5703468,-6.5026188,-8.6956959,-145.1526642,111.2671738,-250.1374054,1.1731528,7.3597383,8.0468712,-19.9236641,27.6946564,27.2366409
1440,5.1929970,-2.4085546,-11.3771887,-178.3129730,168.9465637,-250.1374054,1.4796091,7.7140784,8.2886839,-12.0152674,36.6106873,23.7938938
1450,0.2873027,1.3048333,-12.5790710,-205.9923706,201.7557220,-250.1374054,1.6304430,8.1617918,8.6118994,-4.2824426,42.8473282,20.5572510
1460,-2.0613971,4.4627690,-12.1768475,-214.5725250,196.8396912,-219.5114441,1.9009864,8.6693602,8.6286592,2.7862597,45.4427490,16.8396950
1470,-1.0342898,8.6095057,-10.4075413,-200.1679382,184.2595367,-176.7099304,2.1404054,9.2679071,8.7100611,7.6870227,44.9847336,12.8320608
1480,-0.2130829,12.6652622,-8.2384062,-161.3282471,166.8167877,-149.9160309,2.6264257,9.8736372,8.6310530,9.8015270,43.0916023,7.7480917
1490,1.1180865,15.5670195,-7.4555058,-106.1755753,139.5114441,-140.2290039,2.9424589,10.4266949,8.8848372,9.9847326,40.4885483,0.6870229
1500,2.7030399,17.0083218,-8.7100611,-56.2595406,113.3053436,-137.5190887,2.9640064,11.0300312,9.3421268,10.3129768,37.6259537,-6.2900763
1510,3.0885043,17.9971218,-10.9198980,-30.2061062,103.8320618,-130.5190887,2.4205256,11.5040808,9.9550400,12.3511448,32.2290077,-12.3740454
1520,4.4484038,18.5789108,-12.3659887,-23.6030540,99.5343475,-123.8167953,1.8842272,11.6932211,10.3548698,15.2213745,23.4732819,-15.5114508
1530,5.9256191,18.4879303,-12.5599174,-24.6106873,84.0381699,-129.7709961,1.5155219,11.7722292,10.7379398,18.7938938,15.5648851,-16.5801525
1540,6.0525107,17.2980194,-11.3556404,-21.4274807,54.5267181,-146.6717529,1.2569494,11.8560257,11.2024126,24.9694653,9.0763359,-15.6259546
1550,5.1762376,15.8399572,-9.4642305,-10.5877867,13.0534353,-163.1908417,1.0055596,11.6190014,11.4561968,34.0916023,4.8931298,-12.0000000
1560,4.0725164,13.8001080,-7.0628591,7.3282442,-27.6641216,-173.7022858,1.0031654,11.4178896,11.5902710,46.7099228,2.5190840,-8.4732828
1570,3.1818779,11.4753504,-5.2911587,27.1145039,-62.2824440,-178.7862549,1.0989330,11.0611553,11.4107065,59.9236641,2.0229008,-6.1832061
1580,1.8531027,9.3014259,-3.5386121,46.6106873,-86.6259537,-179.1068726,1.0678085,10.7523050,11.0324249,71.5419846,2.1832061,-3.4427481
1590,1.0486550,7.7404146,-2.4540441,63.0458031,-99.9007645,-176.5267181,0.8714849,10.4410601,10.5511932,82.1679382,1.9007634,-1.0229008
1600,0.6081241,6.2679882,-2.0781565,73.3053436,-111.9542007,-175.1297760,0.5722113,10.0077124,9.9574337,91.6259537,0.5725191,2.3511450
1610,0.1029501,4.7764082,-1.3694763,75.4809189,-115.5801544,-173.7709961,0.4548960,9.5192976,9.1793222,99.2900772,-0.9541985,5.5877862
1620,-1.0941446,3.1148405,-1.2665262,70.4503784,-108.2671738,-163.1832123,0.4141948,9.1098909,8.3844519,104.5572510,-2.8931298,9.1832066
1630,-2.5115047,2.1619530,-1.1779412,59.2061081,-83.6641235,-138.8015289,0.4309541,8.6861191,7.5393028,107.2137375,-5.4503818,11.3816795
1640,-3.0334380,1.5825592,-0.5099624,46.8625946,-56.3511467,-108.9160309,0.4979914,8.3557215,6.9263902,107.7709961,-7.1450381,13.2824430
1650,-3.1076579,1.0582317,0.6991033,39.0305328,-30.5419846,-83.2519073,0.3495516,7.9894104,6.3278427,107.2137375,-8.7480917,14.7938929
1660,-3.0406206,0.5075682,1.3742647,39.7862587,-6.5496182,-60.9541969,0.3423691,7.6805596,5.6239510,104.9770966,-10.7328243,17.4427490
1670,-2.9520357,-0.0071826,1.5610116,45.8320618,14.1984730,-42.2519073,0.3016679,7.2160869,5.0445571,101.2061081,-13.2213745,18.8854961
1680,-2.3654592,-0.2178712,0.8188128,51.9236641,21.9847336,-28.0839691,0.4501076,6.8617468,4.4795284,95.9160309,-14.6488552,20.0534344
1690,-1.6519908,-0.4908088,0.1029501,50.8549614,22.1450386,-20.7633591,0.3974355,6.6151457,4.0246325,88.1679382,-16.2061062,21.1832066
1700,-1.5921360,-0.9193687,-0.4453192,43.4351158,19.7404575,-16.5038166,0.3830703,6.1985564,3.7971845,80.4274826,-17.8091602,22.1297703
1710,-2.0757623,-1.0797794,-1.1492109,33.8931313,5.7633586,-10.8625956,0.3447633,5.8849177,3.6367738,72.1984711,-17.7862587,24.3511448
1720,-2.2409613,-1.1947005,-1.4628497,29.3435116,-27.2137413,2.1755726,0.5099624,5.5569139,3.5721307,66.4580154,-13.6183205,27.3206100
1730,-0.6967092,-0.1508339,-0.7996593,23.9923668,-34.5648842,8.2442751,0.6033357,5.1642666,3.6631098,61.3664131,-10.7099237,29.3129768
1740,0.0263361,-0.3782819,-0.3639168,19.9618320,-40.8396950,9.8778629,0.7733232,4.9032998,3.5817075,56.9541969,-8.0458012,30.1145039
1750,0.1197095,-0.1628049,-1.0965388,20.9541988,-31.4122143,8.6488552,0.8882443,4.7572546,3.6511390,53.6412201,-5.1297708,29.4809170
1760,0.3112446,3.0669568,-4.5298066,3.1374047,-1.3129771,15.8549614,0.8116302,4.0629396,2.7509236,42.5648842,-3.8702290,23.8396950
1770,0.0143651,4.1443419,-6.4475522,-10.1221371,12.6259546,14.8931293,0.4333483,3.7469065,2.5043221,35.8396950,-6.1908398,23.6183205
1780,-0.7134684,6.3302369,-7.9343438,-31.0534344,28.8854961,13.0534353,0.1556223,3.5098817,1.9823889,26.8625946,-12.5419846,25.3587780
1790,-2.2457497,7.9199786,-8.0157461,-51.1984749,33.9389305,11.1603050,0.1292862,3.2656744,1.2904681,14.9923668,-20.7786255,28.3053436
1800,-4.4100971,9.7611103,-7.1705976,-60.2290077,26.6183205,18.9007626,0.4548960,3.1244173,0.3806761,-2.1221373,-29.4580154,31.0610695
1810,-6.0836353,11.0276365,-6.3326311,-50.0228996,0.1755725,31.7633591,1.4101776,3.4117200,-0.2537841,-24.6564884,-38.2137413,29.4580154
1820,-6.3924856,12.2390966,-6.2871413,-27.7786255,-28.0458012,45.7328262,2.1978660,4.1754665,-0.5243275,-50.6946564,-44.9541969,20.6717548
1830,-5.4324160,13.2446556,-6.6271162,-5.1908398,-42.3664131,62.6564903,2.3917952,5.2265158,0.6440369,-69.0000000,-47.4885483,14.5419846
1840,-4.6471219,13.4266148,-7.0245519,14.7480917,-48.5496178,73.5648880,2.4013720,6.6223278,1.8531027,-83.1145020,-46.6946564,7.9847326
1850,-4.1299767,13.7833490,-7.1801744,32.7862587,-50.8778610,79.6793900,2.4827745,7.6087341,2.8275378,-92.5954208,-48.1984749,5.4809160
1860,-3.2441268,13.9341822,-7.1394730,48.6717567,-53.8015251,78.9694672,2.7796540,8.7148495,4.2736282,-96.2748108,-47.9236641,6.5419846
1870,-2.1451938,13.5391417,-7.2615767,59.8167953,-53.5038185,72.5419846,3.3470769,9.9047613,5.6670465,-92.7633591,-41.0610695,7.8320613
1880,-1.9776005,12.7370882,-7.4770536,64.5572510,-48.4045792,64.8320618,3.8905578,10.7331514,6.8737178,-81.2519073,-31.1679382,6.5801525
1890,-1.9584470,12.0188313,-7.4842362,61.7557259,-39.3358765,59.3816795,4.5681133,11.3604288,8.0588417,-62.0534363,-19.6488552,1.4045801
1900,-2.0901275,11.0683374,-6.7611909,54.5648842,-28.6793900,54.5190849,4.8817525,12.0355902,8.3557215,-38.3740463,-7.2977099,-7.8473282
1910,-2.2505381,9.8927908,-5.9040713,47.7175560,-15.4045801,51.1603050,4.7093706,12.5024576,8.5257082,-14.2442751,5.0992365,-19.7175579
1920,-2.3127871,8.7411861,-4.8841467,41.4809151,-0.9618320,50.5572510,3.9336534,12.8663740,8.2168579,6.9312978,14.6946564,-31.8854961
1930,-2.2912393,7.7380204,-4.2305326,36.3206100,10.9847326,51.3587799,2.9041519,13.0722742,7.6350703,23.4580154,19.2824421,-40.2290077
1940,-2.2218077,6.6821828,-3.6343796,35.5725174,22.2595425,55.2519073,1.6759326,12.9789009,7.0365229,35.5725174,20.8320618,-46.1526718
1950,-1.7525467,6.0046272,-3.6966286,37.7557259,30.7938938,62.3282433,0.5482694,12.7969427,6.7683735,43.3816795,20.8091602,-48.5419846
1960,-0.6009415,5.5497313,-3.9360476,40.0610695,37.0992355,69.3664093,-0.4788379,12.4689388,6.1243367,46.9236641,19.9770985,-46.8396950
1970,0.2082945,5.4419928,-4.5202298,40.8015251,43.0610695,76.4656525,-1.4676381,11.8967276,5.7149301,45.8931313,18.4427490,-42.7328262
1980,0.8188128,5.7652082,-4.8745699,38.6564903,51.3358765,82.5648880,-1.9847831,11.3676119,5.9040713,46.8473282,16.0839691,-35.5572510
1990,1.0127422,6.1889796,-5.3031297,35.3969460,58.6412201,87.3129807,-2.6599445,10.5655584,5.6047974,45.6183205,13.5267172,-29.3358784
2000,0.5195391,6.5935979,-5.8825235,33.6259537,64.6335907,92.9923630,-2.8251436,9.7802639,5.2456689,44.4885483,8.9541988,-20.2595425
2010,-0.5841822,7.5512733,-6.2272868,33.1374054,64.8854980,103.3206100,-2.5857246,9.1721401,5.1403246,43.3740463,6.1908398,-11.7480917
2020,-0.9696468,8.4993725,-6.6271162,34.5725174,63.3511467,116.5877838,-2.3319404,8.4921904,5.0828643,44.4503822,7.6106873,-4.9236641
2030,-1.3407460,8.8369532,-7.6302819,38.5954208,61.8549614,132.3129730,-1.8195840,8.0923605,4.8434453,47.9541969,10.7022905,-2.1603053
2040,-2.2265961,8.8369532,-9.4881725,40.1526718,57.8931313,152.6259613,-1.5514348,7.7188668,4.4124913,51.5419846,14.5343513,1.5801526
2050,-2.6168492,9.4594421,-10.6613255,36.0916023,54.2137413,179.6793823,-1.2306134,7.6661944,3.7445123,52.1145020,16.9770985,4.6717558
2060,-2.2672975,9.5145092,-10.9629936,32.1603050,45.7557259,204.5496216,-0.9624642,7.6326761,3.1483591,48.0152664,16.3282452,7.4427481
2070,-1.9608412,8.9949694,-10.4650021,36.5877876,32.4885483,223.7251892,-0.5722113,7.6590118,2.5091105,39.3358765,12.8244276,9.4122133
2080,-2.4420733,8.2000990,-9.5288744,49.9236641,20.8396950,243.0076294,-0.3495516,7.7475972,2.0805507,27.6793900,8.0610685,10.4503813
2090,-2.5833304,6.9862447,-8.8992023,67.3053436,13.6641226,250.1297760,-0.0143651,7.7763271,1.8435259,14.3435116,2.1526718,12.7633591
2100,-2.6575503,5.7340837,-9.0117292,82.9389343,11.8854961,250.1297760,0.2609667,7.6925306,1.7573351,1.1679389,-3.1679389,13.0763359
2110,-0.3519458,5.5449429,-9.1074963,95.2519073,14.7099237,250.1297760,0.6991033,7.7906923,1.9368993,-10.6106873,-7.1603055,12.9312973
2120,1.5753766,5.5257893,-9.5791521,104.0000000,25.1908398,250.1297760,1.0510491,7.8553357,2.1763182,-19.7022896,-6.6030536,10.9847326
2130,2.5378408,4.9009056,-9.8784256,104.0152664,38.6488533,250.1297760,1.0295014,8.1546097,2.7437410,-25.5267181,-3.3206108,8.5572519
2140,3.5984666,4.5800843,-10.1058741,97.2366409,46.0687027,250.1297760,0.9864060,8.6023226,3.0669568,-29.2061062,0.0916031,8.0076332
2150,4.7381010,4.9511838,-10.1369982,83.6793900,51.7175560,250.1297760,0.8595140,8.8465300,3.5936785,-29.6488552,3.1526718,8.5114508
2160,5.8202744,4.8314743,-10.2471304,68.1526718,56.4885483,250.1297760,0.8307837,9.1769285,3.6319854,-29.7633591,6.9007635,10.4351149
2170,6.5552907,4.7237358,-9.9909525,50.3282433,52.9389305,250.1297760,0.5913648,9.3828287,3.6559272,-30.7099228,8.5725193,14.6488552
2180,6.7923155,4.2784166,-9.6366129,29.1755733,39.1603050,250.1297760,0.5123565,9.3325500,3.7588775,-32.5343513,8.0610685,18.8702297
2190,6.4164276,1.2856797,-5.6143742,-3.1832061,-24.0534344,171.5114441,1.0654143,9.2918491,3.9815371,-36.0992355,6.5419846,24.4885502
2200,6.6821828,-0.8978211,-2.9065459,-8.3053436,-74.3816757,130.4961853,1.3311694,9.2559366,4.1419477,-36.7328262,4.9618320,24.4427490
2210,8.0325060,-3.6008608,0.8810617,-3.7480917,-136.5343475,90.4427490,1.5538290,9.2080526,4.4867110,-35.0000000,2.1526718,23.4656487
2220,11.6644907,-7.0820122,4.8362627,11.1450386,-163.6717529,47.4351158,1.9105632,9.3062143,4.4436154,-32.1984749,-0.5114504,21.6641216
2230,13.5822372,-12.1265697,7.0484939,30.0458012,-137.9084015,9.7251911,2.2792683,9.4378948,4.4555864,-29.0229015,-2.6259542,21.3435116
2240,16.1368370,-14.7529955,7.2017217,37.1145020,-46.4503822,-10.6412210,2.5809362,9.5767574,4.2089849,-27.0152664,-4.4045801,20.0534344
2250,17.2549229,-15.4616756,3.6248028,28.8625946,77.4809189,-8.2290077,2.7150109,9.6940727,4.0844874,-26.5496178,-8.0000000,20.3740463
2260,16.3738613,-14.9900198,-4.1850433,-17.8702297,193.4885559,22.3435116,2.9640064,9.7515335,4.0749106,-27.2061062,-12.0687027,20.6488552
2270,17.9037495,-10.3141680,-7.2136927,-119.5114517,250.1297760,69.9083939,3.3734128,9.9191265,4.0030847,-28.9847336,-16.4045811,21.5114498
2280,19.6126022,-1.8842272,-5.5138183,-234.1603088,250.1297760,99.7938919,3.6990228,9.9095497,4.0270267,-31.3511448,-21.1374054,22.1832066
2290,19.6126022,7.4555058,2.9687948,-250.1374054,250.1297760,83.0839691,3.9767487,9.8640604,4.1587071,-33.3816795,-24.9007626,22.9541988
2300,19.6126022,14.2310619,14.7338419,-250.1374054,122.3206100,20.5648861,4.3286943,9.7228031,4.1251884,-35.4503822,-27.0458012,22.8015270
2310,19.6126022,14.3555603,19.6126022,-198.3435059,6.6793895,-78.1450348,4.6016321,9.5911226,4.3167233,-37.6030540,-28.5419846,21.3893127
2320,19.6126022,7.0197635,19.6126022,-66.1908417,-30.3206100,-213.3282471,4.6902170,9.3684635,4.3670015,-39.5038185,-29.1908398,18.0839691
2330,19.6126022,-4.9847026,14.4537220,45.7328262,26.7328243,-250.1374054,4.8099265,9.1458035,4.4867110,-40.5343513,-29.0687027,14.3282442
2340,19.6126022,-14.5447006,4.0868812,94.4809189,81.6106873,-250.1374054,4.5824785,8.9997578,4.7452836,-41.1603050,-27.6946564,9.3282442
2350,19.6126022,-18.2940025,-4.2233500,82.5954208,86.3511429,-250.1374054,4.2305326,8.8417416,4.9990678,-41.3816795,-25.1526718,4.4274807
2360,13.7043400,-15.3539371,-7.1682034,34.4732819,47.0687027,-250.1374054,3.7804251,8.7220325,5.3797436,-41.2824440,-23.3816795,-0.7328244
2370,9.9622221,-10.6996326,-7.5464849,-18.2748089,28.6106873,-250.1374054,3.1699069,8.3940287,5.6454988,-40.5725174,-20.4580154,-5.0916033
2380,9.9478569,-8.2072811,-6.2464404,-56.5114517,30.2061062,-250.1374054,2.5138988,8.0995426,6.1602492,-38.2519073,-16.3893127,-8.6106873
2390,10.5535870,-7.0772243,-5.8921003,-72.4961853,47.8625946,-250.1374054,2.0230901,7.8313937,6.6654234,-33.0305328,-11.7175570,-12.8167934
2400,10.0723553,-4.5992379,-6.7300668,-77.1832047,79.5190811,-250.1374054,1.4820032,7.5369086,6.9503322,-24.7709923,-6.5343513,-15.0152674
2410,7.8313937,-0.2801202,-9.2846670,-81.1832047,118.6183243,-250.1374054,1.0318956,7.2807302,6.7564025,-14.4045801,1.0916030,-17.0610695
2420,4.2903876,4.1563129,-12.1960011,-96.6183243,156.8931274,-250.1374054,0.6536137,7.1586266,6.5696559,-4.7404580,8.5801525,-19.6106873
2430,-0.7014975,9.0835552,-14.1400833,-123.7251892,182.7557220,-250.1374054,0.0957676,7.2208753,6.2057390,3.6488550,13.1908398,-21.1603050
2440,-4.7189474,12.8256731,-13.3356352,-142.1984711,175.5648804,-246.3435059,-0.2609667,7.4076223,5.4467812,8.7480917,14.5190840,-21.6335869
2450,-6.5744443,14.4034433,-10.5104914,-128.4961853,122.9236679,-200.6717529,-0.4189832,7.6566176,4.7548604,8.0229006,13.3435116,-20.0305347
2460,-6.4714942,15.5358953,-8.0157461,-81.6641235,51.8931313,-149.9770966,-0.5362985,7.8146343,4.2808108,2.0916030,9.9618320,-19.6106873
2470,-4.7692256,17.2429523,-7.3908629,-21.5114498,-9.0687027,-99.1908417,-0.6488253,8.1426382,4.1108232,-6.4961834,1.9312977,-18.4885502
2480,-0.5985473,18.6435528,-7.7595682,32.5572510,-45.9923668,-65.2366409,-0.6368544,8.1953106,3.9456241,-15.9312973,-7.1297708,-15.1603050
2490,2.4181314,18.8135414,-9.1865053,72.0610657,-59.4351158,-61.5496178,-0.0143651,8.3317795,4.0461802,-23.9312973,-16.7786255,-11.7786255
2500,3.3877780,18.2365417,-11.4131012,85.7709961,-64.1603088,-76.1984711,0.7158626,8.4562769,4.0413918,-30.1297703,-21.4427490,-8.3358774
2510,2.6767037,17.1615505,-12.3564119,75.1221390,-68.6793900,-89.6641235,1.3527170,8.3796635,4.2544746,-34.0534363,-21.7480907,-7.2442746
2520,2.4301023,15.5071650,-11.4921093,52.8778610,-74.2748108,-98.6412201,1.8650736,8.4155760,4.5010762,-34.8091621,-18.9770985,-7.7557254
2530,1.6543850,13.2087431,-9.3995876,31.9923668,-72.6870193,-103.4580154,2.3558824,8.4203644,4.6423335,-32.6870232,-13.4351149,-10.5725193
2540,0.4716553,11.2957859,-7.5608501,16.7480907,-68.1832047,-103.2442780,2.3965836,8.7435799,4.8889351,-28.8473282,-5.1145039,-13.7404585
2550,-0.7900825,9.2487535,-5.5712790,4.4656487,-65.3816757,-97.5801544,2.3199697,9.0715837,5.1738434,-24.0000000,2.7938931,-15.7633591
2560,-1.5586174,7.6422529,-3.9360476,-3.5496182,-62.0992355,-87.3435135,2.3295465,9.5480280,5.2600341,-18.6412220,10.1755724,-16.0000000
2570,-1.9752063,6.2153158,-2.3678534,-9.5419846,-59.0000000,-73.1068726,2.5426292,10.1465750,5.2552457,-14.3053436,17.4122143,-15.3816795
2580,-2.1882892,4.8913293,-1.3503228,-12.7099237,-53.0610695,-56.2900772,2.8730273,10.6038647,5.5186067,-11.6564884,25.7099228,-14.4122133
2590,-2.2385671,4.2832050,-0.4118006,-12.6106873,-52.8702278,-39.2213745,3.4476328,11.0827026,5.8106980,-10.3511448,32.0076332,-14.0916033
2600,-1.9129574,3.7660601,-0.0071826,-12.8091602,-59.0000000,-26.0229015,3.6032550,11.4298601,6.4260044,-9.0381680,36.6488533,-16.0534344
2610,-1.7262106,3.1268115,0.1699875,-15.8015270,-65.4274826,-15.4045801,3.5601597,11.6692791,7.0532823,-7.3893127,37.1374054,-17.7557259
2620,-1.8698620,2.3295465,0.1747758,-22.8320618,-74.7328262,-0.9694657,3.5266411,11.8464499,7.7978749,-5.2595420,32.4045792,-19.5877857
2630,-1.3694763,2.6790979,-1.1132981,-45.6335869,-81.3206100,22.5267181,3.5697365,12.1002331,8.3724804,-2.0305343,23.9007626,-23.5725193
2640,-0.4860204,2.6934631,-0.7062859,-69.2366409,-71.1603088,43.8625946,3.5673423,12.1361465,8.9375095,2.2213740,15.6106873,-27.7099228
2650,1.0893562,2.0685797,-0.7014975,-86.9618301,-51.7633591,51.5725174,3.3566537,12.0738974,9.6414013,9.5801525,8.3893127,-30.5038166
2660,2.0446377,1.6998745,0.0766141,-100.7175598,-28.1221371,47.3358765,3.0932927,11.9972830,10.1753054,21.4274807,4.3053436,-30.0305347
2670,2.9520357,1.2210367,0.8427547,-102.2671738,8.2366409,30.5190830,2.7245877,11.7530756,10.5799236,36.4961815,1.4809160,-30.3053436
2680,3.0214672,0.7182568,2.1787124,-87.7709961,40.7938919,6.1526718,2.3032103,11.4202833,10.5942879,53.9618340,0.1755725,-29.9847336
2690,2.4037662,0.7852941,3.0789278,-62.7557259,63.5572510,-13.7557249,1.9728121,11.3101511,10.1465750,70.9847336,0.1221374,-28.5114498
2700,1.8435259,1.1970947,3.5194585,-30.5801525,69.5572510,-26.1603050,1.4867916,11.1808643,9.5767574,84.2061081,1.4961832,-27.2519093
2710,2.9735832,3.2201848,0.3399749,29.4122143,73.3740463,-52.6564903,0.3950413,10.5727406,8.2384062,98.8778610,1.6946565,-17.8625946
2720,3.4284792,4.5130472,-1.8722562,43.4732819,85.8854980,-71.3206100,0.0933734,10.0532017,7.7308378,104.4503784,1.5954199,-13.2824430
2730,2.2840567,5.5090299,-4.0820932,43.5038185,90.1526718,-85.9465637,-0.0359128,9.5360565,7.1490498,110.5343475,1.5038168,-8.6412210
2740,-0.3543400,6.9551206,-6.5552907,25.3816795,68.6564865,-90.7328262,-0.0885850,9.1553802,6.3565731,115.6335907,1.9618320,-4.5343513
2750,-2.6360025,9.1577749,-8.4706421,-14.3816795,36.7404594,-79.1068726,-0.1149211,8.8082228,5.4850879,117.5267181,2.4580152,-1.7099236
2760,-3.8330972,12.3516235,-9.4690189,-69.4045792,21.2824421,-55.5648842,-0.1460456,8.4155760,4.5058646,115.5877838,1.0000000,1.6030535
2770,-3.7804251,14.4202032,-7.7140784,-115.1908417,28.0458012,-30.8931293,-0.2178712,8.0157461,3.6631098,110.2213745,-2.3053436,4.1145039
2780,-2.3654592,15.9309368,-3.9336534,-133.8091583,31.7709923,-18.0229015,-0.0790083,7.7499914,2.8442972,101.4503784,-6.4580154,6.6641221
2790,-0.8978211,16.8910065,-1.2473727,-120.2671738,39.5648842,-14.3893127,-0.2178712,7.4626884,2.0973101,90.4580154,-10.1297712,9.3435116
2800,0.2849085,17.2621059,-0.2442073,-89.7786255,46.7404594,-18.3358784,-0.2537841,7.0221577,1.8100072,74.9236679,-12.3816795,11.8625956
2810,0.4692611,17.3794212,-0.2370248,-55.4045792,42.0534363,-29.6183205,-0.5339043,6.6893654,1.6974803,58.6183205,-12.7557249,15.9160309
2820,-0.0167593,17.1807041,-0.7900825,-24.6641216,23.7862587,-42.0916023,-0.7469871,6.2871413,2.1451938,44.0000000,-11.9083967,20.4961834
2830,-0.3974355,16.4432926,-1.1970947,0.3893130,-0.8167939,-50.7786255,-0.8643024,5.8322453,2.9783716,33.5190849,-9.3587790,26.5267181
2840,-0.3926471,15.4233685,-1.1994889,20.2061062,-22.6030540,-56.5954208,-0.6177009,5.2672167,3.6463506,28.3587780,-5.9618320,32.8473282
2850,-0.3088504,13.8551741,-0.8403605,37.5725174,-37.1374054,-61.9007645,-0.2873027,4.7213416,3.9288650,25.9312973,-1.9923664,35.9007645
2860,-0.3303981,12.6580801,-0.6703730,52.8167953,-46.5038185,-64.3740463,-0.0287303,4.3789725,4.0557570,25.2595425,0.2442748,36.1450386
2870,-0.4620786,11.3412752,-0.5913648,63.0534363,-51.2977104,-61.7175560,0.3016679,4.1443419,4.0773048,25.8778629,0.3816794,34.9083977
2880,-0.5793939,10.1824875,-0.2489957,69.5267181,-50.0381660,-54.5419846,0.7278336,4.0629396,3.8761928,26.3740463,-0.5725191,31.2595425
2890,-0.3854645,8.9590569,0.4620786,79.6030502,-38.2748108,-50.0534363,0.9433106,4.0701222,3.3183465,26.1832066,-2.8549619,27.3816795
2900,-0.7924767,8.0325060,1.1228749,88.3664093,-35.8931313,-42.9618340,1.0773853,4.2544746,2.7485294,23.2442741,-7.0381680,23.1526718
2910,-0.7805058,7.0939832,1.2210367,94.6106873,-32.2977104,-30.6183205,1.2354017,4.6495161,1.8866212,15.8091602,-11.3206110,19.5496178
2920,-0.5746055,6.1123657,1.0821736,98.6259537,-22.7328243,-17.9694653,1.4748207,5.0182209,1.1252691,4.0839696,-16.3511448,16.2519093
2930,-0.6727672,5.4252334,0.8499373,98.4656525,-10.3053436,-6.9007635,1.8674678,5.5664907,0.5339043,-11.5114508,-22.7328243,12.0534353
2940,-1.1947005,4.3239059,0.4429250,93.4732819,-0.1755725,12.1374044,2.1236460,6.5792327,1.0582317,-39.5954208,-31.7404575,5.5267177
2950,-1.5897418,3.8833754,0.0023942,89.7022934,-5.9694657,22.4732819,2.1882892,7.2089043,1.5250987,-49.3206100,-31.2824421,1.4503816
2960,-2.0398495,3.5888901,-0.8954269,87.4045792,-15.5419846,35.2977104,2.1116750,8.0684185,2.0925217,-56.0763359,-31.1374054,-4.4427481
2970,-2.0590029,3.4667864,-1.7262106,82.7786255,-22.6717548,50.4045792,1.8770446,8.3102312,3.3255291,-55.2595406,-29.5648861,-7.5190840
2980,-1.5298871,3.5697365,-2.3223639,77.4045792,-26.7480907,64.5572510,2.2074428,9.3876171,3.9144998,-49.5648842,-23.6793900,-10.0305347
2990,-1.8291607,3.8690102,-3.5864959,70.4885483,-20.0992374,77.7022934,2.2433555,10.0555954,4.1084290,-42.0152664,-17.1068707,-12.9160309
3000,-3.1172347,4.2999644,-5.2791877,58.8473282,-14.3893127,94.8473282,2.2218077,10.5679522,4.1347651,-33.9160309,-11.0305347,-15.6641226
3010,-4.5082588,5.0708933,-5.9567432,45.2824440,-15.3358774,116.3129807,2.2074428,11.2143831,4.2233500,-25.1297703,-4.1908398,-19.5114498
3020,-5.3581958,7.3022780,-5.8801293,41.6488533,-25.6717548,145.1984711,2.1044924,11.6405487,4.3885493,-16.0381680,2.3511450,-24.8167934
3030,-5.0732875,9.7323799,-5.5473371,52.8625946,-39.0228996,171.8625946,1.5107336,12.2247314,4.2640514,-8.9312973,8.3358774,-29.5725193
3040,-4.7213416,11.0755205,-5.7077475,74.7786255,-56.8320618,186.6793823,0.8020535,12.0092545,4.4196739,-3.0916030,8.9694653,-29.8396950
3050,-4.2736282,11.5711174,-6.8138633,98.5725174,-80.6717529,187.3740387,0.9768293,12.5934362,4.5968437,4.3893127,11.2824430,-30.3511448
3060,-3.4165084,12.3971128,-8.1258793,117.7633591,-108.6793900,180.0915985,0.1675933,12.2893744,4.1658897,8.5801525,13.4961834,-32.1755714
3070,-2.9855542,12.7682123,-8.5161324,133.5801544,-143.6793823,167.7633514,-0.5793939,12.0715036,3.9073172,9.9923668,11.7175570,-28.8091602
3080,-3.3614421,12.4162664,-8.7603388,156.0763397,-186.7175598,151.3282471,-0.9528874,11.7674408,3.8378856,9.1450386,10.2061071,-23.3129768
3090,-4.3574247,12.1050215,-9.7347746,179.2748108,-224.7557220,141.6030579,-1.2449785,11.2909975,3.6774750,6.9770994,8.9923668,-17.8931293
3100,-5.0397687,11.3604288,-10.2950144,193.0610657,-250.1374054,138.3206177,-1.3431402,10.7068148,3.7373297,4.8091602,8.1526718,-13.1297712
3110,-5.4348102,10.4865494,-9.2439651,203.9618378,-250.1374054,138.8854980,-1.2641320,10.1202393,3.8546450,3.6335878,8.3435116,-8.1068707
3120,-6.1410961,9.5935173,-9.7539282,209.5419922,-231.7786255,142.4274750,-1.0630201,9.8065996,4.0437860,3.7099237,8.2595415,-4.5496182
3130,-6.7420373,8.4658537,-10.8049774,205.0305328,-188.2061005,151.0000000,-0.8858501,9.5240860,4.1419477,4.3435116,9.0610685,-1.3664122
3140,-7.3142486,7.5512733,-11.7004042,188.2519073,-130.0305328,165.3206177,-0.8595140,9.3684635,4.1060348,4.3511453,10.5954199,2.7099237
3150,-7.3525558,6.8306227,-12.3109226,164.0610657,-67.0457993,184.1679382,-0.8283895,9.0739784,4.0342093,3.0305343,11.2442751,7.5954199
3160,-7.5129666,6.3637557,-12.6915979,136.8091583,-12.7862597,204.3893127,-0.8786675,9.0213060,3.7995787,-2.3816793,11.3587790,11.5877867
3170,-7.1969333,5.7723908,-13.3739424,106.0457993,22.7251911,226.7022858,-0.8666966,8.8465300,3.9073172,-10.7175570,7.5954199,17.6793900
3180,-6.4355812,5.2791877,-13.1297350,75.4580154,42.1603050,244.4274750,-0.5889706,8.6741486,4.1323709,-19.4503822,2.5877862,25.2671757
3190,-5.0661049,4.2592630,-11.2766323,53.2137413,40.5114517,250.1297760,-0.2226596,8.3772688,4.6231799,-27.4961834,-2.4961832,31.7251911
3200,-4.0246325,2.4372849,-9.3636751,40.0076332,35.1526718,250.1297760,0.2537841,7.9439206,5.1714492,-32.1832047,-7.4198475,36.9771004
3210,-2.3965836,-0.0335187,-7.3717093,33.5419846,31.8549614,250.1297760,0.8307837,7.7428088,5.4467812,-34.1374054,-10.7557249,42.0000000
3220,0.5889706,-2.0805507,-4.6399393,35.1221390,36.5572510,250.1297760,1.5466464,7.4291697,5.5305777,-33.2671738,-13.1374044,45.8854980
3230,5.4755111,-3.0358322,-1.8028246,43.4427490,52.7099228,250.1297760,2.4588325,7.2184811,5.4252334,-29.5419846,-15.2366409,44.7786255
3240,13.0986109,-3.3422885,0.3495516,54.8473282,81.8320618,224.1145020,3.4236910,7.3693151,5.0756817,-25.9694653,-13.3740454,38.4274826
3250,19.6126022,-4.9128766,1.8698620,58.1221390,98.7633591,140.5801544,3.8091555,7.6398587,4.5633249,-22.8625946,-10.5419846,29.2900772
3260,19.6126022,-9.4762020,3.5314295,43.5419846,113.8854980,39.3358765,3.7373297,8.0109577,4.1251884,-20.6564884,-7.3206105,20.9007626
3270,19.6126022,-11.8129311,2.8203552,5.2977099,182.7175598,-51.7786255,3.5074875,8.4371233,3.7636659,-20.4732819,-5.3129773,14.3358774
3280,19.6126022,-12.6485033,1.8195840,-53.0610695,232.6870270,-72.7328262,3.2800395,8.8393478,3.3853838,-22.3282452,-4.9160304,9.2595415
3290,19.6126022,-9.6749191,3.4931223,-111.1755753,203.8091583,-6.9312978,3.0621684,9.3612804,3.2321558,-24.8854961,-4.4274807,7.2366414
3300,19.6126022,-4.0270267,9.3636751,-113.0229034,124.6259537,45.1908379,2.8802099,9.6533718,3.1962428,-28.3358784,-3.5419848,5.7633586
3310,19.6126022,0.0383070,13.5463238,-60.1908379,29.3511448,2.0534351,2.6000898,10.0196829,3.3997490,-31.6641216,-2.3435113,6.9847326
3320,19.6126022,1.5921360,9.7084379,1.2671756,-25.5419846,-141.4198456,2.4612267,10.2591019,3.8833754,-33.9007645,-2.5877862,9.7786255
3330,19.6126022,-2.4396791,0.8954269,5.8854961,-12.1068707,-250.1374054,2.5976956,10.3524752,4.0964580,-34.9160309,-2.4274809,13.3816795
3340,19.6126022,-8.0612354,-4.9296360,-55.9923668,36.1755714,-250.1374054,2.8179610,10.3668404,4.3502421,-34.6870232,-2.7862597,16.5419846
3350,10.8648319,-10.7499104,-6.1985564,-131.5648804,111.7709961,-250.1374054,3.1459649,10.1968527,4.6973996,-32.7557259,-2.1755726,17.6717548
3360,3.0071020,-9.4067707,-5.0732875,-166.5801544,148.6412201,-250.1374054,3.2944047,9.9646168,5.0206151,-29.0534344,-1.7557251,18.1374054
3370,0.8331779,-7.3932571,-3.6271970,-158.9923706,159.0610657,-250.1374054,3.6080434,9.7467451,5.1714492,-23.8702297,-1.6183206,16.2977104
3380,-0.0335187,-2.1188576,-3.7636659,-124.6335907,151.7404633,-250.1374054,3.8378856,9.6892843,5.2289100,-18.2900772,-1.8625954,13.0381680
3390,0.7685348,2.3750360,-5.7747850,-83.5648880,135.5267181,-247.7633514,3.8666160,9.6318245,5.2169390,-13.2977095,-2.0687022,8.8854961
3400,-0.0885850,4.6351509,-8.8393478,-50.1145020,125.1221390,-237.6030579,3.9623835,9.6246414,5.2384863,-8.9770994,-3.4274809,6.4885497
3410,-2.1260402,8.3533268,-13.4457684,-38.1984749,118.7557220,-222.5572510,3.8881636,9.6581602,5.1810260,-4.8778625,-5.3282442,3.2213740
3420,-4.2329268,11.1784706,-16.6420116,-48.8931313,115.2977066,-197.2748108,3.8570392,9.5815458,5.1235652,-1.8778626,-7.8396945,-0.1374046
3430,-6.6534524,14.1975431,-17.4225159,-69.8931274,103.6564865,-167.0610657,3.7062054,9.5743637,4.9511838,-0.3740458,-10.2061071,-1.4427481
3440,-7.4219875,17.1902809,-16.4456882,-77.1145020,70.3435135,-137.2977142,3.3973548,9.4067707,4.7979555,-0.3664122,-12.1603050,-1.9541985
3450,-5.9112539,18.5836983,-14.1113529,-64.1221390,28.9236641,-111.4045792,3.1914546,9.2248116,4.6926112,-1.5954199,-14.1068707,-1.6870229
3460,-3.5601597,19.1008434,-12.2319136,-37.2442741,10.1755724,-95.9694672,3.0382264,8.9470863,4.6997938,-3.0763359,-15.7633591,-0.3206107
3470,-1.6735384,19.2037945,-11.7698355,-9.6183205,8.6183205,-89.8473282,2.9376705,8.6214762,4.8362627,-4.2061067,-16.6488552,0.7709923
3480,0.2130829,18.9835281,-12.2606440,8.2442751,11.0534353,-93.8091583,2.9233053,8.3772688,4.8266859,-4.3740458,-16.8931293,1.3129771
3490,0.6248835,18.0833130,-13.0555153,13.3587790,10.8931293,-104.5343475,2.8921809,8.1210909,4.8602047,-4.0610685,-17.2671757,0.4274809
3500,0.6224893,16.6444054,-12.6054077,7.6183205,10.4809160,-115.3435135,2.7988074,7.7954807,4.8649931,-2.7709923,-17.5114498,-1.3282443
3510,0.2250538,15.1073351,-11.8057480,-6.9236641,-0.1679389,-113.0152664,2.7078283,7.4818420,4.6758518,-0.5190840,-16.5877857,-4.9465647
3520,1.6280488,13.8910875,-9.0859489,-18.1450386,-5.4580154,-119.0763321,2.5881188,7.2591825,4.3215117,2.0763359,-14.7099237,-8.3664122
3530,1.9416877,11.4633789,-6.5840211,-14.8320608,-15.4580154,-134.8244324,2.4755919,7.2232695,4.1539187,5.0534353,-11.1221371,-13.0992365
3540,0.7278336,9.6940727,-4.5609307,-0.5190840,-34.8167953,-146.7328186,2.1212518,7.1035600,3.6104376,7.9618320,-6.2519083,-18.9465656
3550,-0.5315101,8.4251528,-3.1890604,13.4274807,-48.5954208,-151.3511505,1.6950861,7.1610208,3.2417326,9.7480917,-1.1908396,-23.5419846
3560,-2.2936335,6.8737178,-2.1954718,24.4885502,-56.6641235,-145.7862549,0.9792235,7.0868006,2.7533178,9.8549614,4.8625956,-28.3435116
3570,-3.0741394,5.4060798,-0.7278336,34.8320618,-37.9312973,-128.3129730,0.2585725,7.2160869,2.5976956,7.8396945,9.5648851,-29.5038166
3580,-2.9161227,4.4148855,-0.7900825,40.6641235,-16.5572510,-106.4809189,-0.3734936,7.3764977,2.2601149,3.7480917,11.5267172,-29.7938938
3590,-2.4157372,3.5314295,-1.3670821,40.5496178,-6.3129773,-91.4961853,-0.8475431,7.5967631,2.0997043,-3.0992367,10.8702288,-28.0305347
3600,-2.2026544,3.2393384,-1.6974803,38.4351158,-4.4274807,-82.5038147,-0.9816177,8.0636301,1.9201399,-12.4122133,6.7786260,-25.6717548
3610,-1.9823889,2.8347204,-1.6663558,34.5496178,-4.9312978,-75.6412201,-0.7541697,8.3988171,1.9033806,-23.7480907,-0.8549618,-22.7633591
3620,-2.1595588,1.9919657,-1.4891858,30.3129768,-7.8396945,-66.5877838,-0.2466015,8.8680773,2.0206959,-36.2900772,-8.5648851,-19.7786255
3630,-2.2936335,1.4029950,-1.1635761,27.4274807,-10.9618320,-52.9007645,0.3639168,8.9590569,2.1236460,-48.3893127,-14.7786255,-18.5419846
3640,-1.9967541,1.0510491,-0.7852941,28.0610695,-20.6183205,-37.6488533,0.8020535,9.0979195,2.6982515,-56.9923668,-16.2137413,-19.2213745
3650,-1.3191984,0.5243275,-0.7278336,33.6641235,-31.7862587,-22.0992374,1.1061156,9.2750902,3.4811516,-59.8854980,-11.9083967,-19.6488552
3660,-0.3232156,0.1963235,-0.5793939,41.9465637,-41.6183205,-6.4961834,1.3120158,9.4642305,4.2257442,-57.1679382,-4.0916033,-19.1755733
3670,0.8188128,0.3064562,-0.6081241,50.7328262,-40.1526718,2.7251909,1.7333932,9.8688488,4.8530221,-50.8015251,5.2595420,-17.9312973
3680,0.9935886,0.7254394,-1.0318956,56.6793900,-37.1908379,2.3053436,2.1858950,10.2543135,5.3821378,-42.8778610,15.5877867,-18.1450386
3690,1.2234308,0.9911944,-2.2457497,53.0381660,-43.2748108,-1.3511450,2.3463056,10.5152798,5.6287394,-35.2900772,26.3435116,-18.7709923
3700,1.8100072,1.3431402,-3.3662305,37.1450386,-43.4122124,-5.6717558,2.4540441,10.6278067,5.9998388,-28.3358784,33.1068687,-18.8015270
3710,2.5402350,1.5538290,-4.4962878,13.8778629,-27.5954189,-12.2595415,2.7940190,10.8313131,6.2248926,-22.4274807,37.0763359,-18.8473282
3720,2.5785420,2.1404054,-5.5473371,-15.1832066,-11.3129768,-21.5648861,3.1196289,11.0611553,6.6917596,-17.6488552,37.9007645,-21.4732819
3730,0.8834559,3.0118904,-7.2304521,-51.4885483,-6.6717558,-31.0229015,3.2632802,11.1712875,6.8689294,-12.6106873,36.7251892,-23.4122143
3740,-0.6679789,3.3734128,-7.7715387,-92.3206100,1.0458015,-32.5954208,3.5673423,11.4490137,7.2903070,-7.4274807,33.4045792,-25.7938938
3750,-1.9273225,4.1970143,-6.5912037,-124.5343475,6.7557254,-26.0000000,3.7325413,11.6884327,7.3597383,-3.0534351,30.8396950,-28.7175579
3760,-2.3534882,5.7771792,-5.0301919,-141.3587799,14.5725193,-16.4198475,3.8522508,11.7387114,7.4938130,-0.2442748,27.6564884,-30.9770985
3770,-3.2584918,7.1801744,-4.1323709,-145.5419922,23.5801525,-6.6641221,3.4189026,11.6333666,7.7691450,1.0687023,26.0152664,-32.2595406
3780,-4.4100971,9.1649570,-2.9759774,-137.0458069,29.9160309,0.7251908,3.2273674,11.4011297,8.2958660,4.1450381,24.7404575,-32.0763359
3790,-5.6814117,10.7930059,-2.1332228,-115.6412201,29.9160309,8.0305347,3.1555417,11.2455082,8.6741486,10.1526718,26.5725193,-33.2137413
3800,-6.2272868,12.0092545,-1.9129574,-86.8167953,25.4580154,17.4045811,3.5386121,10.9031391,8.9255381,19.7404575,33.8778610,-37.4274826
3810,-6.0142040,12.5958309,-1.9728121,-54.8396950,17.5877857,27.0763359,3.5529771,10.9318695,8.9686337,31.9236641,48.4732819,-48.2977104
3820,-5.8873119,12.6078014,-2.0997043,-20.6641216,1.8091604,35.1526718,2.4109488,11.2838144,8.8513184,42.5954208,63.2748108,-56.1832047
3830,-5.0182209,12.7562418,-2.6719155,7.9923663,-19.1832066,41.9771004,1.0797794,11.1521349,8.5113440,50.9847336,77.2824402,-61.7175560
3840,-3.7684543,12.8448267,-3.0885043,32.9389305,-36.9771004,46.5954208,-0.5841822,11.1449518,8.4347296,57.1832047,87.1450348,-62.7862587
3850,-2.4708035,12.8376436,-3.4835455,47.1984749,-46.7633591,49.2595406,-2.6982515,11.1066446,8.3509331,58.8854980,83.9465637,-56.4122124
3860,-1.4676381,12.5838594,-3.7995787,51.7251892,-53.9236641,49.7633591,-4.1108232,10.6469603,8.2958660,58.4961815,72.0381699,-41.6335869
3870,-0.3950413,12.2031832,-3.4931223,51.0228996,-53.4122124,45.5572510,-4.6136031,10.1657286,8.4012108,59.1221390,55.3282433,-23.4427490
3880,0.5075682,11.2526903,-3.0310438,46.3893127,-47.1450386,33.5725174,-4.3622131,9.4450769,8.2671366,61.5267181,41.2290077,-5.2290077
3890,0.2992737,10.2423429,-2.3103929,40.3587799,-38.3587799,21.6030540,-3.4811516,8.7986460,8.0875721,66.9694672,32.4732819,10.2442751
3900,0.1268920,9.0452480,-2.2744799,34.2366409,-23.5648861,14.5572519,-2.3846128,8.1833391,7.4626884,73.8625946,30.6488552,21.3435116
3910,-0.1628049,8.0971489,-2.2122312,26.4503822,-2.8473282,10.3282442,-1.5035510,7.4890246,6.6797886,81.0152664,33.8549614,28.0000000
3920,-0.9145803,7.6350703,-2.2888451,20.2442741,21.3129768,9.3664122,-0.7398046,6.8928714,5.8322453,88.6641235,39.1221390,30.3053436
3930,-2.1763182,7.5440907,-2.5138988,18.9694653,39.2595406,12.7022905,-0.3543400,6.5361371,5.0254035,94.8931274,43.4503822,32.2671738
3940,-3.5553713,6.9479380,-3.0071020,22.3053436,45.5190849,21.5114498,-0.1436514,6.2775645,4.0988522,99.9847336,46.3358765,33.9465637
3950,-4.9679432,6.5768385,-3.7828193,30.5954189,48.4122124,36.6259537,0.2896969,6.0142040,3.0047078,101.3893127,48.5648842,36.6335869
3960,-6.9742737,7.0484939,-4.4077029,42.3816795,43.5877876,59.3282433,0.4189832,5.8322453,1.9345051,97.9847336,49.0228996,39.6106873
3970,-8.7196379,7.5871863,-5.0924411,56.2977104,32.5496178,84.2900772,0.8810617,5.6359220,1.0342898,90.5801544,48.9160309,42.1755714
3980,-9.4283180,7.9798336,-5.8609757,73.0992355,16.1221371,107.4961853,1.1539993,5.4276276,0.4046180,77.9083939,46.0687027,42.1984749
3990,-9.7275915,8.0420828,-7.4890246,91.0687027,16.3893127,124.1450348,1.3191984,5.3342543,0.0023942,63.2290077,39.7786255,41.2061081
4000,-11.0228481,7.6135225,-9.5504217,102.0610657,23.7328243,137.3816833,1.3000449,5.1714492,-0.2035061,45.9618340,30.3206100,38.7022896
4010,-12.4449968,7.5129666,-11.7219515,105.1297684,33.1755714,156.1832123,1.3359578,5.0972295,-0.2298422,27.1526718,20.0076332,35.5954208
4020,-14.6787758,8.0708122,-13.4361916,98.8320618,35.1297722,191.7251892,1.3718705,4.9416070,0.1292862,9.3129768,8.8625956,31.3435116
4030,-15.6244802,8.2503767,-13.9916430,86.2137375,12.5038166,234.6106873,1.4556671,4.7213416,0.5123565,-6.5572519,-0.8702290,26.7404575
4040,-14.5207586,8.1809454,-13.2374735,81.2442780,-36.0610695,250.1297760,1.3934183,4.7788019,1.1324517,-19.2213745,-9.4580154,19.0610695
4050,-12.1960011,7.4770536,-11.8225079,89.0916061,-83.0152664,250.1297760,1.4891858,5.3007355,1.4796091,-29.9847336,-19.6030540,9.2977095
4060,-9.8927908,6.7611909,-10.4410601,108.5038147,-98.9542007,250.1297760,0.8499373,5.3198891,2.4875629,-34.8549614,-31.0076332,1.0000000
4070,-8.5304966,5.9735026,-10.2375546,128.5343475,-87.8091583,250.1297760,1.1659702,6.2679882,3.0597742,-32.7480927,-33.9618340,-8.0152674
4080,-8.0157461,5.3965030,-10.0316534,143.5648804,-60.9923668,250.1297760,1.1324517,7.2663651,2.5641768,-31.3282452,-34.0763359,-19.3816795
4090,-6.2081332,4.7381010,-9.0835552,155.5343475,-23.4885502,250.1297760,0.3663110,8.1426382,2.5713594,-32.3206100,-37.7251892,-27.9160309
4100,-3.9575951,4.1491303,-8.8872309,166.5114441,17.5496178,250.1297760,-0.0861908,9.3181858,2.7293761,-33.6106873,-43.6106873,-33.6412201
4110,-2.8203552,3.0238612,-9.1434097,172.5343475,53.1908379,250.1297760,-0.9480990,10.0053177,3.0310438,-33.6564903,-50.2900772,-36.8931313
4120,-2.6862805,1.9464760,-10.0819321,162.1145020,38.3129768,250.1297760,-0.9959828,11.6644907,3.4021432,-31.1450386,-51.6870232,-34.4503822
4130,-1.6879035,-0.8355721,-8.9710283,129.2671814,-51.9771004,250.1297760,-1.1180865,12.5120344,3.6319854,-26.9923668,-49.6641235,-33.2137413
4140,6.2416520,-6.6175399,-4.5178356,97.6259537,-180.1526642,250.1297760,-1.4245427,13.1871958,3.5936785,-24.5496178,-45.6870232,-25.8167934
4150,19.6126022,-17.0418396,3.0430148,91.8167953,-232.9847260,218.4045868,-1.1444225,13.7282820,3.8594334,-24.2519093,-40.6412201,-14.9541988
4160,19.6126022,-19.6131992,12.0978394,118.8931274,-142.9007568,138.7099304,-0.2035061,13.7857428,4.2640514,-23.4122143,-29.8091602,-4.4656487
4170,19.6126022,-19.6131992,11.0276365,132.9847260,152.0152740,93.6412201,0.8619082,13.5870247,4.9152708,-18.4198475,-13.1145039,0.4809160
4180,19.6126022,-19.6131992,-1.5849534,61.2442741,250.1297760,126.7862625,1.3287752,13.4625273,5.3605900,-10.1526718,5.5648856,1.8244275
4190,19.6126022,-16.4815998,-13.4194317,-124.3358765,250.1297760,250.0000000,1.1204807,13.1512823,5.9016771,-0.4351145,20.5343513,2.7709923
4200,19.6126022,0.7733232,-13.0555153,-250.1374054,250.1297760,250.1297760,0.7637464,12.6700506,6.3493905,10.3969469,27.5114498,4.1374044
4210,19.6126022,16.7832680,5.1642666,-250.1374054,250.1297760,250.1297760,0.5291159,11.9685535,6.6390872,22.7251911,29.6793900,7.0687022
4220,19.6126022,19.6126022,19.6126022,-250.1374054,16.2137413,204.3969421,0.4932030,11.0994625,6.4092450,34.6335869,28.8015270,7.2061067
4230,19.6126022,19.6126022,19.6126022,-79.8244247,-51.4503822,-32.8473282,0.5123565,10.1729107,5.9351954,44.0305328,27.4503822,5.6030536
4240,19.6126022,10.7546988,19.4623661,131.0610657,-41.9007645,-250.1374054,0.2705434,9.4187412,5.3198891,50.5343513,26.0229015,0.8396947
4250,19.6126022,-3.8402798,3.4308734,200.9694672,-25.1832066,-250.1374054,-0.0502780,8.7962523,4.8338685,55.0687027,24.2137413,-5.1679387
4260,19.6126022,-17.0083218,-9.6437950,136.0000000,-11.6183205,-250.1374054,-0.5410868,8.3868456,4.4699516,57.5114517,21.8625946,-7.5801525
4270,13.2207146,-18.6674957,-14.0874109,-0.2366412,-5.4351144,-250.1374054,-1.1420283,8.0253229,3.9408360,58.0992355,19.8396950,-6.6564884
4280,12.7131462,-16.4385052,-11.0276365,-108.8778610,-18.6717548,-250.1374054,-1.2018831,7.6781654,3.6008608,57.3740463,17.8015270,-3.2671757
4290,16.1512012,-13.9270000,-3.8785870,-149.7633514,-48.9847336,-250.1374054,-1.1372399,7.3669209,3.1148405,55.2595406,17.5801525,1.0763359
4300,15.1863441,-11.7770176,0.2226596,-121.5343475,-56.0610695,-250.1374054,-1.0175306,7.2831244,2.7245877,51.3816795,17.7786255,5.3511453
4310,11.5136566,-8.7531567,0.2825144,-75.7404556,-23.1679382,-250.1374054,-0.8786675,7.0197635,2.3223639,45.0534363,17.2137413,9.4427481
4320,6.9216018,-4.1156116,-2.9304879,-45.3969460,37.8473282,-250.1374054,-0.5123565,6.8473821,2.1020982,37.6564903,15.3282442,11.5190840
4330,2.4708035,0.4357425,-6.6558466,-42.0763359,102.9465637,-250.1374054,-0.0957676,6.7994981,1.9153515,30.1526718,13.3893127,12.5954199
4340,-0.4644727,4.5465660,-10.7475166,-66.7862625,149.4274750,-250.1374054,0.1197095,6.7899213,1.8339491,22.4732819,12.2900763,11.6259546
4350,-2.1739240,7.2903070,-13.2853575,-103.3740463,179.4198456,-227.7022858,0.0359128,6.7899213,1.8124014,15.5267172,10.2595415,9.1145039
4360,-4.3382711,9.5719690,-13.8384151,-128.8854980,182.3358765,-192.1603088,-0.0742199,7.1514440,2.0422437,10.3511448,8.1679392,7.2213740
4370,-5.1786318,12.8520088,-12.2582502,-132.5496216,162.1832123,-150.8396912,-0.2226596,7.4028339,1.9512644,3.3740458,5.6717558,5.0687022
4380,-4.1778607,15.4497042,-9.9310980,-110.9847336,121.5114517,-116.3893127,-0.5410868,7.4626884,2.2146254,-1.2137405,0.7480916,6.0610685
4390,-2.0949159,16.5294838,-8.0684185,-67.0229034,79.4656525,-97.9007645,-0.6296718,7.7523856,2.2744799,-6.1221375,-0.8396947,6.8473282
4400,-0.5458752,16.5007534,-7.5033898,-13.7786255,37.6259537,-92.6106873,-0.6775556,8.0468712,2.3510940,-9.9541988,-2.3358779,7.6870227
4410,-0.5793939,16.0769825,-8.0229292,38.0763359,0.0610687,-93.2290039,-0.5315101,8.3988171,2.5186872,-14.0152674,-4.2137403,8.1755724
4420,-1.2473727,15.5263186,-9.0811605,74.9542007,-35.5877876,-91.3511429,-0.2082945,8.4467001,2.5210814,-17.0992374,-5.4580154,7.0152674
4430,-1.6065011,14.4752693,-9.4977493,94.0763321,-69.2290039,-87.1908417,0.4189832,8.8465300,2.4085546,-20.9770985,-4.2137403,3.6564887
4440,-0.8499373,13.4936514,-8.9734221,100.6564865,-91.9618301,-85.3893127,0.6967092,9.1290445,2.1020982,-27.4961834,1.0687023,-0.1679389
4450,-0.0407012,12.2223368,-8.1641865,98.4809189,-97.8931274,-90.7709961,0.4764437,9.2104464,2.3822186,-33.9083977,4.2213740,-2.9236641
4460,-0.0526722,10.7666702,-7.6015515,88.6335907,-96.2595444,-99.5114517,0.5698171,9.5049324,2.7317703,-39.8625946,7.7175574,-4.2366414
4470,-0.4692611,9.0404596,-6.6319046,72.7175598,-89.6564865,-106.5038147,0.4118006,9.3876171,3.3566537,-44.2366409,9.2900763,-5.5725193
4480,-0.7900825,7.7116842,-5.4635406,55.7251892,-78.2442780,-110.9007645,0.2657550,9.5384512,4.1156116,-44.9694672,11.6717558,-6.1068702
4490,-1.3910241,6.2320752,-4.1515245,38.7786255,-61.1450386,-112.1679382,0.4381367,9.6366129,4.7835903,-41.7251892,18.9312973,-9.1221371
4500,-1.8243724,5.2576399,-3.2800395,25.2442741,-39.2824440,-109.6488571,0.1699875,9.7874460,5.0397687,-36.4274826,31.5343513,-12.3282442
4510,-2.5426292,4.3334827,-2.4085546,14.5648851,-16.1755733,-102.2824402,-0.7350162,9.9454632,5.4826937,-30.0610695,44.4732819,-13.9465647
4520,-3.3111639,3.2680686,-1.8171898,7.9847326,1.2671756,-88.0381699,-1.4820032,9.9885588,5.6407104,-22.9083977,61.1679382,-11.9007635
4530,-3.8474624,2.6743097,-1.1396341,7.6030536,11.3129768,-66.9847336,-2.2433555,10.0891142,5.5186067,-17.7557259,78.4885483,-6.8244276
4540,-3.9360476,2.3415172,-0.7206510,12.8549614,13.7557249,-41.9007645,-2.7796540,9.7419567,5.5210009,-13.3511448,90.4503784,-0.1145038
4550,-3.1459649,2.2936335,-0.4596844,22.0381680,8.3587790,-18.1679382,-3.0741394,9.6485834,5.8585815,-9.6259546,94.4274826,4.2595420
4560,-1.8866212,2.2888451,-0.1987177,33.9389305,-1.3816794,-2.5648854,-2.7916248,9.4283180,5.9687142,-1.8244275,91.0000000,5.0305343
4570,-0.0742199,2.2481439,-0.6967092,56.8320618,-25.8015270,3.8549619,-1.8339491,9.4235296,5.0756817,22.1679382,71.5190811,-4.8320613
4580,0.9193687,2.4109488,-1.1875180,61.9007645,-34.0305328,-2.5038168,-1.2425843,9.7658987,4.0198441,32.2900772,60.9923668,-10.2900763
4590,1.6807210,2.9209111,-1.9225341,60.8091621,-41.0687027,-14.3664122,-0.5769997,10.2279778,2.6886747,34.9312973,52.9923668,-12.2290077
4600,1.9608412,2.8442972,-2.5953014,52.6564903,-47.1603050,-29.6946564,-0.0095768,10.6469603,1.5705882,28.3282452,49.2824440,-8.6030531
4610,1.7333932,2.7126167,-3.2273674,36.1068687,-52.8091621,-48.4351158,0.2394189,11.0515785,1.0773853,15.6870232,44.2824440,-3.0076337
4620,1.5825592,2.4205256,-3.6990228,14.3282442,-49.0687027,-64.8244247,0.8978211,11.2215662,0.5817881,0.3511450,38.7251892,3.8931298
4630,0.7685348,2.5569944,-4.1347651,-10.3129768,-33.0916023,-73.0457993,1.1348459,11.2311430,0.6967092,-17.5954189,35.1450386,11.4274807
4640,0.3806761,2.9113343,-4.3263001,-33.8473282,-17.6717548,-72.0305328,1.4173602,11.1808643,0.9959828,-36.2213745,28.2824421,19.2442741
4650,1.2258250,3.9408360,-4.7524662,-54.1984749,0.8473282,-69.0610657,1.8459201,11.2143831,1.8267666,-51.6183205,15.5267172,25.6030540
4660,1.9680238,5.5617023,-5.7340837,-71.6030502,30.5114498,-74.0457993,2.3606708,10.8887739,2.6671271,-60.8778610,4.2671757,30.8778629
4670,2.4324965,6.7947097,-6.0429344,-86.7633591,52.4732819,-89.6564865,3.2417326,10.6852674,3.3710186,-63.9847336,-7.4045801,34.2977104
4680,0.8451489,7.7164726,-5.7699966,-93.9770966,52.6564903,-109.3511429,4.1204000,10.4530315,3.8235207,-61.9389305,-17.0992374,34.8244286
4690,-1.3551112,9.5264797,-4.9128766,-86.6335907,29.7557259,-126.7786255,4.8386569,10.2782555,3.9887197,-56.3664131,-20.1450386,33.5114517
4700,-3.8642218,10.9797525,-4.5585365,-67.9007645,-4.6030536,-137.0458069,5.2767935,10.1250277,4.0222383,-48.9694672,-18.7633591,30.3435116
4710,-6.9718795,12.2103662,-4.3526363,-46.0152664,-25.2442741,-135.3358765,5.5569139,9.9406748,3.8402798,-41.0152664,-15.8778629,26.7480907
4720,-10.3788109,11.7937775,-4.2712340,-21.5267181,-50.7328262,-120.4809189,5.4611464,9.8856087,3.6750808,-32.6030540,-12.2595415,21.7404575
4730,-13.1464939,10.9893293,-5.1379304,5.5725193,-83.0916061,-80.0000000,5.2360926,9.7012558,3.8761928,-23.8931293,-10.5725193,17.1068707
4740,-12.4497852,11.8799677,-5.4252334,25.6412220,-105.1755753,-27.8396950,4.7764082,9.2750902,3.7708483,-14.4885492,-12.3587790,10.4351149
4750,-8.3006544,12.3348637,-5.5090299,37.3053436,-110.3282471,6.4961834,4.3382711,8.9279327,3.6367738,-4.3969464,-17.8931293,3.0992367
4760,-4.9823084,12.3300753,-5.2025738,46.6717567,-95.3435135,10.3816795,3.8977404,8.7052727,2.9209111,4.0534353,-24.3435116,-3.3740458
4770,-3.4883339,11.9709473,-5.3629842,55.5877876,-76.9618301,-1.2748091,3.5601597,8.5424681,2.3151813,9.3587790,-29.6259537,-9.8931293
4780,-3.3063757,11.3269100,-5.9567432,57.6564903,-63.0228996,-10.7404585,3.2920105,8.6166878,1.8483143,9.8778629,-33.4351158,-15.6412210
4790,-2.9137285,10.6517487,-6.2631998,51.4809151,-50.6946564,-15.3053436,2.6527619,8.8369532,1.6041069,6.7786260,-36.9465637,-19.6259537
4800,-2.3630650,9.6725254,-5.8130918,42.3587799,-39.4274826,-16.4885502,2.0973101,8.9542685,1.6663558,2.0610688,-40.2977104,-20.9236641
4810,-2.0135133,8.7004843,-4.8458395,36.1832047,-28.0839691,-15.2213745,1.8459201,9.0811605,1.5945302,-3.8854961,-43.4961815,-21.5496178
4820,-2.3702476,7.2160869,-4.1970143,35.8320618,-19.2900772,-8.0305347,1.6495966,9.3373384,1.8554969,-10.2748089,-45.0076332,-22.6106873
4830,-2.9400647,6.3230543,-3.9073172,38.6030540,-10.9007635,6.7862597,1.5203103,9.5528164,2.4133430,-15.4885492,-45.3969460,-24.2595425
4840,-2.9831600,5.5521255,-3.5003049,40.7862587,-3.9847329,23.5190830,1.1755470,9.6940727,2.9280937,-18.7175579,-45.3740463,-26.2442741
4850,-3.0142846,4.4819226,-3.2441268,42.7633591,3.7175572,38.3816795,0.9169745,10.0962973,3.5386121,-20.0381680,-44.3358765,-27.3664131
4860,-3.2728570,3.5625539,-3.5410061,44.4503822,11.1221371,54.3587799,0.7062859,10.5847120,4.2903876,-20.4503822,-43.1755714,-25.2824421
4870,-3.2297616,3.3351059,-3.8833754,41.1221390,17.0229015,71.8091583,0.6248835,11.2095947,5.0014620,-20.2595425,-43.2137413,-23.4732819
4880,-2.8921809,3.1172347,-3.9743545,34.9312973,20.7557259,82.0381699,0.7326220,11.6070309,5.6215568,-18.8702297,-43.9923668,-20.6870232
4890,-3.1914546,2.5138988,-4.5489597,29.8396950,19.7786255,87.4427490,1.0989330,11.7626524,5.9758968,-14.4427481,-44.4122124,-21.6488552
4900,-3.8522508,2.4947455,-5.1451130,26.0381680,15.4274807,94.5572510,1.4939742,11.9661589,6.2799587,-8.4122133,-42.0305328,-26.8473282
4910,-3.9671719,3.0932927,-5.6933827,19.4580154,9.2137403,103.9389343,1.3263810,12.3492289,6.4906478,-2.9618320,-39.0687027,-32.0992355
4920,-3.6511390,3.2848279,-6.2799587,9.1755724,2.8244274,109.2748108,0.6488253,12.8256731,7.0484939,1.5877863,-37.4809151,-34.3129768
4930,-3.1794837,3.4356618,-6.2033448,-0.4809160,-5.2061067,108.9618301,0.2226596,13.2877512,7.4291697,5.7480917,-37.8396950,-31.5343513
4940,-2.8227494,3.6631098,-5.6071916,-6.6030536,-21.2595425,104.2137375,-0.2705434,13.3236647,7.8337879,10.6946564,-38.6106873,-25.5419846
4950,-1.9632354,4.1658897,-4.4819226,-6.2748094,-47.5038185,96.3282471,-0.5386927,13.2685976,8.1330614,17.1068707,-42.0305328,-18.0763359
4960,-1.2354017,4.2640514,-3.5721307,-0.0916031,-72.2671738,88.0610657,-0.5674229,12.9525652,8.0516596,25.1374054,-46.9465637,-13.2213745
4970,-0.7709290,4.2496862,-2.7461352,11.1603050,-80.7938919,79.9236679,-0.4189832,12.7299051,8.0947542,35.3511467,-51.8167953,-11.6870232
4980,-0.7589580,4.8027439,-2.4564383,24.1374054,-67.9770966,73.3129807,-0.5195391,12.5503407,7.9463148,46.0763359,-54.6106873,-11.2748089
4990,-1.7477583,5.5018473,-3.1292057,37.7175560,-43.8091621,72.6564865,-0.8140244,12.2989511,7.5560617,57.0000000,-57.2900772,-11.1679392
5000,-3.1004753,6.8617468,-4.5657191,47.4351158,-21.6793900,81.3511429,-0.9433106,12.0331964,6.8928714,66.4045792,-60.0610695,-10.0763359
5010,-4.7165532,8.1115141,-6.4403696,53.4809151,-8.7938929,96.9236679,-1.0103480,11.6668854,6.1626434,72.9770966,-59.7404594,-7.5954199
5020,-6.2272868,9.4522600,-8.5903521,51.2061081,-1.3816794,116.0839691,-0.8714849,11.3269100,5.4659348,77.4503784,-55.3282433,-4.7404580
5030,-6.1746144,10.7068148,-9.7874460,39.4274826,-1.1145039,130.2748108,-1.1348459,10.9031391,5.0876527,80.8549652,-49.8473282,-1.4580153
5040,-5.4898763,11.4873209,-9.2990322,29.7251911,-4.1984735,131.3435059,-1.2114599,10.3405046,4.6997938,83.9847336,-45.7099228,3.0000000
5050,-3.4931223,12.2390966,-8.4874020,32.3816795,-1.3435115,121.5572510,-1.1683644,9.7922344,3.9360476,85.6183243,-42.5496178,6.9083967
5060,-1.9632354,12.4569674,-8.8321648,43.9312973,13.3816795,105.8778610,-0.8810617,9.1481981,3.3135581,84.8473282,-39.8931313,10.0000000
5070,-2.0470319,12.4761209,-10.3261395,52.2824440,33.0152664,91.4351120,-0.4955972,8.5855637,2.5091105,81.8778610,-37.9007645,12.2824430
5080,-4.3981261,12.2175484,-12.4497852,49.5954208,36.5725174,90.4122162,-0.4046180,8.0372944,1.9991482,76.3740463,-36.1374054,13.0992365
5090,-5.9854736,11.8584204,-12.7251167,38.6259537,20.6946564,106.4045792,-0.3136388,7.4124107,1.3191984,68.7557220,-34.9312973,14.0381680
5100,-5.4132624,10.8720140,-11.6980095,34.8320618,0.4732825,127.4656525,-0.2418131,6.8856888,0.7996593,59.7404594,-31.8702297,14.5267172
5110,-3.9264708,10.2495251,-10.4889441,44.0992355,-10.0992365,140.8091583,-0.3663110,6.3996682,0.7398046,49.7404594,-25.6030540,15.2442751
5120,-3.7660601,9.6892843,-9.9310980,59.3129768,-10.5954199,147.0534363,-0.5386927,5.9447722,0.7829000,40.5038185,-18.2519093,16.8091602
5130,-4.2448978,9.3469152,-9.6821022,70.6412201,-13.0916033,155.4045868,-0.6416427,5.5042415,1.1659702,31.8931293,-12.3358774,19.1908398
5140,-4.9990678,9.1601686,-9.0165176,80.1526718,-15.3969469,175.2213745,-0.6272776,5.1427188,1.2761030,24.0152664,-8.5877867,21.6488552
5150,-5.2767935,8.3700867,-9.0189114,86.8702316,-19.5954189,202.8320618,-0.5722113,4.7165532,1.6017127,17.0152664,-4.4198475,21.5648861
5160,-5.6622581,7.8050575,-9.3301563,86.2213745,-24.7786255,234.0305328,-0.6129125,4.6590929,1.9823889,11.0916033,-1.9389313,20.4351139
5170,-6.1554613,7.4052281,-9.0524302,83.2442780,-29.4427490,250.1297760,-0.7374104,4.5968437,2.3750360,6.8167939,-2.4045801,18.5190830
5180,-5.9519548,6.5505023,-8.3269911,86.3282471,-35.4351158,250.1297760,-0.8834559,4.5657191,2.5378408,3.2824428,-4.7175574,16.0610695
5190,-6.1482787,5.8992829,-8.1641865,96.2213745,-39.2748108,250.1297760,-1.1037214,4.4148855,2.5641768,-0.3816794,-7.5114503,14.4580154
5200,-6.5840211,5.0230093,-8.5209198,102.0000000,-39.9618340,250.1297760,-1.2784972,4.6040263,2.3702476,-5.0534353,-11.3129768,12.8702288
5210,-3.1746953,-3.4643922,-5.9806852,66.3664093,-46.0076332,247.6488495,-0.2418131,5.2743993,2.0374553,-18.0687027,-23.9847336,12.5648851
5220,1.1061156,-7.4674768,-2.9376705,47.4732819,-53.2671738,250.1297760,0.1939293,6.0261750,1.7453641,-22.9312973,-25.3740463,9.7099237
5230,19.5557404,-11.8727856,-6.3829093,5.1755724,232.5648804,176.4732819,2.4540441,10.1106625,4.2568688,-24.0458012,-42.0687027,-24.9923668
5240,14.2406387,-0.5841822,-7.0844064,-71.1679382,250.1297760,250.1297760,2.5258698,10.7594872,4.4124913,-11.2061071,-33.5114517,-31.8015270
5250,17.4560356,9.3852224,-1.0295014,-130.0610657,184.4427490,250.1297760,1.9823889,11.1257982,4.1563129,2.0229008,-29.6030540,-35.2977104
5260,19.6126022,19.6126022,9.7180147,131.8015289,-35.4351158,-31.0152664,1.2210367,12.6987810,2.1739240,25.9770985,-1.0534351,-34.9847336
5270,19.6126022,10.1010857,0.0023942,192.8473358,-26.4503822,-250.1374054,0.6512195,12.6652622,1.9177457,27.1603050,8.3664122,-31.4732819
5280,4.7333126,-14.9612904,-14.3914728,-241.3816833,112.4885483,-250.1374054,-1.2880739,11.2909975,1.3455344,24.6488552,24.1984730,-16.3282452
5290,8.9015961,-10.9677820,-5.9758968,-250.1374054,49.7099228,-250.1374054,-1.4508789,10.7283630,1.0869620,21.0152664,24.2977104,-11.7175570
5300,11.5806942,-9.8640604,-1.3455344,-230.6870270,-7.8778625,-250.1374054,-1.4580613,10.1633339,0.8259954,15.7099237,22.9312973,-7.3740458
5310,12.4569674,-9.1697454,1.3862357,-185.7328186,-32.9694672,-250.1374054,-1.2330076,9.6916790,0.9145803,9.8473282,23.5419846,-3.4351146
5320,11.2048063,-7.4914188,2.3822186,-135.4580078,-12.9160309,-250.1374054,-1.0151364,9.1314383,0.8307837,4.4503818,28.1145039,0.7099237
5330,7.7452030,-5.2073622,1.3862357,-91.8473282,44.5572510,-250.1374054,-0.6057299,8.5664101,0.9050036,0.0839695,36.5267181,4.1832061
5340,3.7109938,-2.8610563,-1.7166338,-61.4122124,115.4961853,-250.1374054,-0.2035061,8.1115141,1.0510491,-3.6564887,45.5725174,4.0229006
5350,1.8147956,-0.8116302,-5.1618724,-49.3511467,171.6946564,-237.9465637,0.3088504,7.9319496,1.3287752,-6.3511453,55.0687027,0.0000000
5360,0.5602403,1.8746504,-9.0308828,-52.6793900,214.5572510,-185.5572510,0.1173153,8.0827837,1.8507085,-7.9465647,63.9312973,-5.9541984
5370,1.2377959,5.7125359,-11.5471754,-67.0000000,241.7099304,-140.9694672,-0.1867468,8.3317795,2.2050486,-9.5419846,69.9618301,-9.9389315
5380,2.8873925,9.9406748,-12.5766773,-87.3587799,244.7633514,-119.6259537,-0.8140244,8.4251528,2.2816625,-13.8167934,72.1526718,-9.6106873
5390,3.9599893,12.7107515,-12.1481171,-98.2519073,213.8091583,-127.2595444,-1.0582317,8.2000990,2.2002602,-21.5648861,65.7862625,-5.7633586
5400,3.2513094,13.9198179,-10.7451220,-87.7862625,155.0992432,-144.7480927,-0.5913648,7.9941988,2.5761478,-27.7557259,56.6106873,-1.1068702
5410,2.1595588,13.9078465,-9.6605549,-62.1221390,88.5801544,-152.1832123,0.7014975,8.0995426,2.8778157,-33.4656487,50.0000000,-3.2671757
5420,1.5801650,14.2334566,-9.0883436,-35.1526718,36.3206100,-145.4122162,1.2425843,8.1330614,2.8873925,-38.0000000,44.4961815,-11.5801525
5430,0.8116302,15.3754845,-9.1673517,-18.8244267,20.1908398,-126.9312973,1.1492109,8.1761570,3.2848279,-41.2595406,38.9541969,-18.2442741
5440,0.5171449,16.1966915,-9.2774839,-15.4274807,24.0687027,-109.3893127,0.8355721,8.6310530,3.5481887,-42.8549614,31.8396950,-22.7557259
5450,0.7900825,16.7569313,-8.7076674,-16.0992374,25.1679382,-101.3206100,0.7230452,8.8992023,4.0006905,-43.1908379,24.3435116,-25.6183205
5460,1.2904681,16.4672356,-7.9846220,-14.6564884,24.1526718,-101.1755753,0.9145803,9.2200232,4.0485744,-42.8473282,18.1450386,-24.7404575
5470,1.8507085,15.9333305,-6.6414814,-11.5267172,24.6183205,-104.0992355,1.2306134,9.5983057,4.1970143,-41.1068687,13.4580154,-22.5419846
5480,2.0015423,15.0235386,-5.4084740,-5.8396945,28.8015270,-106.7175598,1.6328372,9.5935173,4.4747400,-37.2671738,10.7480917,-20.5572510
5490,1.6400198,13.6253319,-4.2568688,1.4427481,28.5343513,-108.0763321,2.1164634,9.7323799,4.5322008,-31.4656487,10.0687027,-20.5572510
5500,0.7709290,12.7155399,-3.3207407,10.2061071,22.4427490,-103.1832047,2.3582766,9.8425131,4.2640514,-24.8015270,10.2671757,-23.1221371
5510,0.2585725,11.5519638,-1.9177457,22.3587780,12.2824430,-94.3358765,2.0829449,9.8664551,3.9599893,-18.3969460,8.8396950,-26.1603050
5520,0.1436514,10.4410601,-0.8164186,40.2061081,2.0839694,-86.4656525,1.7453641,10.0220766,3.3973548,-13.5038166,5.7099237,-26.4274807
5530,-0.0047884,9.1529865,-0.2873027,58.7633591,-8.7404585,-81.1603088,1.8052188,10.5487986,3.0166788,-11.0610685,0.7251908,-25.5496178
5540,-0.6368544,7.7619624,-0.2705434,75.1145020,-18.1068707,-74.9847336,1.9680238,11.2311430,2.4181314,-13.0000000,-5.0610685,-23.4885502
5550,-1.0223188,6.7731619,-0.2537841,89.0076370,-22.7938938,-66.0381699,1.9392935,11.6453371,2.0063307,-19.6183205,-12.4427481,-19.6564884
5560,-1.0941446,6.0549049,-0.6105183,97.7175598,-22.6793900,-57.0458031,1.8411317,11.7937775,1.5801650,-30.7022896,-19.4656487,-14.4351149
5570,-0.8906385,5.2001796,-0.9337339,99.2671738,-22.0610695,-49.3358765,1.5466464,11.4633789,1.5729824,-44.2900772,-25.9770985,-8.5343513
5580,-0.6536137,4.3813667,-1.0606259,95.3129807,-17.2977104,-43.6259537,1.3694763,11.0276365,1.9416877,-56.4503822,-32.1984749,-2.9541984
5590,-0.6200951,3.7876077,-1.1731528,92.1526718,-9.2977095,-39.6488533,1.4772149,10.5392218,2.6096666,-64.9465637,-35.4580154,1.0610687
5600,-0.6392486,3.3949606,-1.3359578,87.6717529,-3.5496182,-37.1145020,1.5370697,10.1561518,3.5601597,-67.5496216,-34.9083977,2.2213740
5610,-0.3782819,3.2393384,-1.5729824,83.2671738,-0.1297710,-36.0534363,1.3287752,9.7850523,4.4053087,-63.9618340,-30.7633591,1.7709924
5620,-0.0502780,3.0310438,-2.2050486,77.7633591,1.4961832,-37.6488533,0.9744351,9.5576038,4.9775200,-55.6335869,-25.0610695,-1.1374046
5630,0.0000000,2.8251436,-2.9544299,68.0687027,-2.7786260,-42.7251892,0.4094064,9.4067707,5.4204450,-44.3587799,-17.8091602,-4.1145039
5640,0.2370248,2.6048782,-3.6655040,52.3053436,-6.5343513,-50.1832047,-0.3327923,9.2296000,5.4659348,-32.4351158,-9.7938929,-5.1374044
5650,0.4333483,2.1787124,-4.0796990,30.7862587,-12.7022905,-58.9541969,-1.1803354,9.0141230,5.0349803,-21.5725193,-2.0687022,-4.9847326
5660,0.3375807,1.6017127,-3.8235207,9.6564884,-17.2137413,-65.0992355,-1.8363433,8.7818871,4.5034704,-12.8320608,2.9160306,-3.1908398
5670,0.0837966,1.4508789,-3.2656744,-5.0152674,-15.9236641,-64.4045792,-2.3798244,8.6118994,4.0413918,-8.1755724,4.2824426,-1.8702290
5680,0.0933734,1.5322813,-3.0214672,-14.0076332,-9.7709923,-57.3816795,-2.6599445,8.4850073,3.7301471,-7.6564884,3.0458016,-0.5496183
5690,0.8571198,2.1116750,-3.2776453,-20.2366409,-2.0000000,-50.4809151,-2.8035958,8.4897957,3.7540891,-8.9770994,-2.5877862,0.9312977
5700,0.9648584,2.7581062,-3.6990228,-25.0381680,9.6488552,-45.3816795,-2.6862805,8.6334467,3.8761928,-11.4961834,-10.5801525,2.0687022
5710,-0.1819584,3.7301471,-4.8554163,-29.4809170,26.6335869,-37.7099228,-2.3726418,8.6549950,4.1587071,-13.7557249,-19.4198475,3.9541984
5720,-1.7597293,5.3893204,-5.8849177,-36.9465637,39.9771004,-25.8473282,-1.9560528,8.5113440,4.3574247,-13.4503813,-26.3587780,6.3816795
5730,-2.9759774,7.7452030,-6.7085190,-45.0458031,44.3664131,-14.8091602,-1.2880739,8.3341732,4.5058646,-9.4732828,-29.0381680,6.9236641
5740,-3.9528067,9.4259243,-7.0676475,-48.3206100,34.8396950,-8.4274807,-0.5985473,8.3868456,4.3622131,-2.4198472,-27.3282452,5.5114503
5750,-4.2855992,10.2399483,-7.2591825,-45.9236641,14.8854961,-4.6335878,-0.1604107,8.4826136,3.9695661,5.2213740,-21.2442741,3.1297710
5760,-4.4196739,10.6828737,-7.6781654,-38.3664131,-4.5114503,0.2213740,0.2106887,8.8273764,3.5745249,11.1603050,-10.8473282,2.5572519
5770,-4.6638808,11.0228481,-7.7308378,-28.9389305,-19.3969460,8.9007635,0.6057299,9.3564920,3.4141142,15.1297712,2.0076337,2.2290077
5780,-5.3151007,11.4322548,-7.4483232,-16.8854961,-28.4961834,22.6488552,0.9409165,9.8832140,3.4236910,17.5267181,14.5572519,1.7175573
5790,-5.6024032,11.9422169,-7.0532823,-1.4503816,-32.5572510,38.3129768,0.8714849,10.3237448,3.6415622,18.9236641,23.8396950,1.6183206
5800,-5.5114241,12.2295198,-6.7851329,18.1679382,-40.5419846,48.9389305,0.8212070,10.6852674,3.8378856,19.1221371,26.2137413,2.2061069
5810,-5.3174949,11.7674408,-6.8785062,37.9389305,-46.4427490,54.7480927,1.1396341,11.1377697,3.8618276,18.5496178,20.5572510,2.1984732
5820,-5.7149301,10.9797525,-7.8577299,51.5496178,-47.1984749,67.0534363,1.6663558,11.4609852,3.8283088,16.3358784,11.7862597,-0.2824427
5830,-5.6526814,10.2902260,-8.9183559,56.6335869,-40.8396950,90.2366409,2.0206959,11.7051926,3.8378856,12.5190840,2.4274809,-4.0763359
5840,-5.0086441,9.6342182,-9.5121145,56.3206100,-29.6793900,116.8473282,2.1284344,11.9470053,3.8953462,8.1603050,-7.2213740,-8.2442751
5850,-4.1970143,8.7148495,-9.2272062,57.4198456,-19.3358784,138.9770966,2.1116750,12.2199430,4.1587071,5.7709923,-16.6030540,-11.7709923
5860,-3.7445123,7.6374645,-8.5496502,67.2366409,-7.6717558,159.1374054,1.9416877,12.4426022,4.4891052,4.8320613,-23.2824421,-13.4198475
5870,-3.6200144,6.8713236,-8.7220325,83.4351120,-0.0687023,176.6641235,1.7357874,12.5671005,4.6543045,5.3206105,-26.0916023,-12.3511448
5880,-4.0509686,5.7891502,-9.6509781,95.3053436,4.2137403,192.4885559,1.5586174,12.8304615,5.1451130,7.2442746,-26.7099228,-9.1832066
5890,-4.3526363,5.0780759,-10.3452930,98.3969498,5.8473282,207.6335907,1.4077834,13.0052376,5.7245069,10.4885492,-24.7099228,-3.4045801
5900,-4.9152708,4.9535780,-10.0986910,97.1450348,2.4809160,220.6946564,1.5490406,12.8951044,6.2440462,16.0381680,-22.7099228,3.8931298
5910,-5.3151007,4.3454537,-9.6653433,96.1450348,-6.3053436,234.1297760,1.6088953,12.3348637,6.4858594,23.8473282,-20.5877857,10.2977095
5920,-5.5353661,3.3135581,-9.7036495,95.2595444,-13.2442751,250.1297760,1.7214222,11.8225079,6.7109132,33.6259537,-20.0458012,11.3511448
5930,-5.3845320,2.6216373,-9.7180147,93.1984711,-15.0152674,250.1297760,1.6495966,11.3316984,6.6510582,46.0839691,-21.2824421,8.4656487
5940,-4.7955613,2.4229198,-9.5480280,92.2366409,-14.6335878,250.1297760,1.3575054,10.9007444,6.2536230,59.0763359,-21.9618320,2.2213740
5950,-3.3279233,2.3415172,-9.5504217,91.7480927,-9.5801525,250.1297760,0.6631905,10.5679522,5.5233951,69.4961853,-20.9236641,-3.4885497
5960,-1.3766589,3.1315999,-9.7084379,88.0534363,5.4809160,250.1297760,-0.1675933,10.6254129,4.6016321,75.2824402,-19.2977104,-6.8396945
5970,1.9105632,5.3462253,-10.5535870,83.4427490,26.5572510,250.1297760,-0.9888002,10.3357162,3.9935081,75.7175598,-21.8396950,-5.3740458
5980,3.8953462,7.3501616,-12.2247314,70.6488571,49.4961815,250.1297760,-1.4915800,10.2399483,3.3566537,73.4274826,-23.6946564,-1.0000000
5990,3.7373297,8.3772688,-14.2047262,38.3358765,57.9618340,250.1297760,-1.4652439,10.0148945,3.0717452,69.5572510,-23.6793900,5.3969464
6000,2.2984219,8.4059992,-15.2102852,-15.0687027,33.1068687,249.9236603,-1.2497669,9.6030941,2.8610563,65.0610657,-21.1297703,11.3969469
6010,1.0941446,6.2081332,-13.1728306,-70.5801544,-26.1679382,215.1679382,-1.0031654,9.1194677,2.8371146,60.9160309,-20.0992374,15.2213745
6020,1.8028246,2.7078283,-9.0572186,-103.6870193,-94.9160309,188.6183167,-0.8092360,8.6382351,2.6719155,57.7175560,-20.0000000,16.9083977
6030,4.6590929,-2.0733681,-4.6040263,-106.8473282,-150.2061005,170.8396912,-0.6512195,8.2623482,2.6144550,54.5954208,-20.7557259,17.7862587
6040,8.9183559,-7.2376347,-0.9864060,-85.6564865,-176.3129730,156.3358765,-0.4453192,7.8697009,2.1954718,51.8396950,-21.7633591,17.3206100
6050,14.7697544,-12.0954447,3.1651185,-46.3129768,-149.4122162,138.9847260,-0.3710994,7.5033898,1.9512644,48.4198456,-22.3893127,15.3587790
6060,19.6126022,-15.2150736,5.4731169,-2.4580152,-69.5954208,104.3129807,-0.4812321,7.2759418,1.7118455,43.7175560,-22.0381680,13.1603050
6070,19.6126022,-17.7577038,3.6367738,17.8854961,24.1068707,73.3893127,-0.5602403,6.9527264,1.4987626,37.4656487,-21.8396950,12.0076332
6080,19.0912666,-16.8981895,-2.5833304,-33.2213745,104.8396912,87.1450348,-0.7900825,6.7276726,1.5753766,31.2748089,-20.3206100,12.2366409
6090,17.9181137,-10.7786407,-5.2983413,-158.1832123,171.4198456,149.2290039,-0.8834559,6.4307928,1.8195840,25.9007626,-16.1984730,13.7557249
6100,19.4144821,-5.3222833,-0.6200951,-250.1374054,210.2213745,230.2824402,-1.0630201,6.2512288,2.1978660,22.6412220,-11.4656487,16.2519093
6110,19.6126022,2.1763182,9.4019823,-250.1374054,207.7786255,250.1297760,-1.0558375,5.9184365,2.4253139,20.9694653,-8.7099237,18.5648861
6120,19.6126022,10.8672256,18.7273502,-250.1374054,150.0152740,202.7786255,-0.8595140,5.5784616,2.4277081,20.1145039,-7.6793895,21.1755733
6130,19.6126022,15.9907913,19.6126022,-155.3969421,68.7175598,77.7938919,-0.4477134,5.2911587,2.1427996,18.3511448,-8.4122133,21.8931293
6140,19.6126022,13.3930960,19.6126022,6.1221375,36.4885483,-94.1984711,0.2466015,5.3629842,1.6352314,14.9465647,-9.7022905,20.0381680
6150,19.6126022,4.2855992,13.3476067,141.6030579,37.6106873,-250.1374054,0.9792235,5.7723908,1.1180865,8.0000000,-13.0076332,15.8931293
6160,19.6126022,-5.2121506,0.6177009,198.1221313,54.3740463,-250.1374054,1.8842272,6.5888095,0.7254394,-3.4427481,-19.4809170,9.7786255
6170,14.3244352,-11.3221216,-9.2200232,176.0000000,50.9771004,-250.1374054,2.2960277,7.4387465,1.1994889,-16.9312973,-31.3587780,4.2824426
6180,9.8233595,-11.3556404,-13.9246063,97.1526718,20.6717548,-250.1374054,3.1627243,9.2726955,2.0949159,-30.2977104,-44.0534363,-3.0458016
6190,11.1784706,-7.7140784,-12.2151546,25.2519093,-1.3511450,-201.1908417,3.4667864,10.7786407,3.2920105,-39.4809151,-57.5877876,-11.1450386
6200,14.3651371,-5.4802995,-8.7986460,-17.1908398,-19.9389305,-197.7022858,3.0980811,11.5974541,4.7165532,-38.1908379,-67.3511429,-18.5572510
6210,14.7290535,-4.3406653,-7.5009956,-41.1450386,-9.4198475,-231.1603088,2.2792683,12.0068598,5.5401545,-25.6793900,-72.0610657,-22.9847336
6220,12.4880924,-3.1100521,-6.7923155,-58.1297722,16.5038166,-250.1374054,1.3982066,12.3923244,5.2456689,-6.9160304,-72.0457993,-25.4656487
6230,9.4474716,-2.2146254,-6.7564025,-72.5038147,45.4045792,-250.1374054,0.6224893,12.5240049,3.9432299,9.6717558,-68.8091583,-23.0763359
6240,6.3924856,-0.6919208,-7.3741035,-84.4198456,78.3358765,-250.1374054,0.2801202,12.6365318,2.4157372,19.9923668,-64.2366409,-14.8320608
6250,3.3566537,1.1156923,-7.9415264,-91.4961853,106.4503784,-246.6412201,0.5626345,12.4928808,1.2354017,22.8931293,-57.9389305,-8.1145039
6260,1.7070571,4.1299767,-8.0756006,-94.3664093,120.3053436,-214.7022858,0.9888002,12.0858688,0.0622489,21.5343513,-44.7862587,-4.0763359
6270,1.9823889,7.6374645,-7.6446471,-91.5496216,125.9618301,-188.5877838,1.4532729,11.7195578,-0.1891410,16.7938938,-30.0839691,0.8091603
6280,3.1148405,10.4314833,-6.8665352,-84.5801544,128.3740387,-177.0076294,1.6711442,11.2622671,0.3447633,11.5725193,-16.7022896,2.2137403
6290,4.4053087,11.7650471,-6.3493905,-74.3358765,128.9465637,-182.4198456,1.4820032,10.5655584,1.1109039,10.3893127,-10.5877867,-0.5496183
6300,5.3677726,12.5335817,-6.0285692,-62.8702278,134.4274750,-200.7251892,1.3048333,9.9382801,1.7597293,13.8244276,-9.8015270,-6.7557254
6310,5.5066357,12.3181047,-6.2536230,-52.9236641,147.7862549,-225.0000000,0.8834559,9.5408449,2.0709739,19.4122143,-10.4732828,-14.2366409
6320,4.1754665,11.7698355,-7.1298962,-48.5954208,165.0763397,-245.8778687,0.3160330,9.1984758,2.2649033,25.7404575,-11.0687027,-19.5954189
6330,1.9512644,10.7618818,-8.0205345,-52.0916023,173.3129730,-250.1374054,-0.1843526,8.9422979,2.1499822,31.2900772,-12.8015270,-23.1679382
6340,-0.9169745,10.2591019,-8.2000990,-60.5419846,165.6870270,-247.3740387,-0.5961532,8.7220325,1.6352314,34.6335869,-14.8778629,-27.2748089
6350,-3.6678982,10.0819321,-7.2280579,-65.9312973,141.3206177,-224.8473358,-1.0725969,8.5688038,1.3359578,35.4732819,-15.1526718,-27.9541988
6360,-5.7029591,9.7706871,-5.4252334,-58.7938919,99.0152664,-190.6793823,-1.4915800,8.5424681,1.0486550,35.1755714,-14.0687027,-25.3816795
6370,-6.0908179,9.7850523,-3.4667864,-38.5114517,47.5267181,-152.0992432,-1.7238164,8.4419117,0.7541697,33.5877876,-11.9389315,-20.8244267
6380,-5.4348102,9.8449068,-1.5610116,-7.3206105,-1.6946565,-118.2061081,-1.6711442,8.2216463,0.5434810,30.7786255,-8.6335878,-15.5419846
6390,-3.6966286,9.4019823,-0.0119709,31.6793900,-35.4885483,-96.6259537,-1.4987626,8.0133524,0.2418131,27.0229015,-5.3893127,-11.4961834
6400,-1.9776005,8.7411861,0.5746055,71.9618301,-46.1450386,-87.6183243,-1.2808913,7.9223728,0.1867468,22.1297703,-1.9847329,-8.7480917
6410,-0.7517755,7.8385763,-0.2585725,102.4580154,-39.5343513,-86.1297684,-1.2210367,7.9199786,0.0814024,16.2595425,-0.3587786,-6.2748094
6420,-0.5075682,7.2496057,-1.2761030,115.8320618,-30.7175579,-86.3740463,-1.1156923,7.8912482,0.0359128,9.0000000,-0.1374046,-3.8396947
6430,-0.6488253,6.8473821,-2.2002602,114.9083939,-21.3358784,-82.7404556,-1.0486550,7.9343438,0.0694315,1.1832061,-0.8091603,-2.3206108
6440,-0.4979914,6.3015065,-2.6647329,105.6946564,-11.0763359,-76.7786255,-1.0271072,7.9582858,0.1795642,-6.6717558,-2.2748091,-0.5114504
6450,-0.4285599,5.6909885,-2.8754215,94.5267181,-2.7251909,-70.0992355,-0.8044477,8.1785507,0.3902529,-14.2748089,-3.7633588,0.3664122
6460,-0.8140244,5.1355362,-3.2489152,81.7175598,2.9236641,-60.1832047,-0.8307837,8.1474266,0.7326220,-20.6183205,-4.4580154,0.4732825
6470,-1.3814473,4.7955613,-3.7900019,67.2824402,0.8702290,-46.2748108,-0.5961532,8.1929159,1.3838415,-22.2519093,-4.5038166,0.7709923
6480,-1.2066715,4.9559722,-3.9575951,50.6335869,-3.0076337,-32.7862587,-0.2154770,8.4155760,1.7357874,-21.4351139,-1.4656489,0.1145038
6490,-0.6153067,5.1427188,-3.9192882,33.3053436,-4.3358779,-25.1297703,-0.1795642,8.5927458,1.8866212,-18.9236641,2.5572519,-1.1755725
6500,1.3598996,7.4459291,-4.4627690,-4.8167939,37.5572510,-41.8091621,1.4125718,10.4338779,2.1739240,-10.8167934,8.5114508,-7.4351144
6510,0.5482694,8.4921904,-5.3869262,-15.8473282,58.1908379,-51.6870232,1.5753766,10.8791971,2.2649033,-8.6641226,10.7328243,-11.3053436
6520,-1.3383518,9.4450769,-6.7037306,-28.4045811,70.9236679,-53.1526718,1.3551112,11.5830889,2.0637913,-6.5725193,11.1603050,-15.8244276
6530,-3.3518653,10.8552551,-7.8720951,-43.8778610,72.4122162,-43.1297722,1.1276633,11.6956158,1.9919657,-5.2061067,10.0763359,-18.4198475
6540,-3.8546450,12.0954447,-7.9894104,-56.2671738,68.9160309,-23.6259537,0.8834559,11.8464499,1.8028246,-4.8473282,7.8244276,-19.4122143
6550,-3.1842721,12.8831339,-7.4579000,-56.6793900,58.3358765,-4.9160304,0.6105183,11.7913828,1.5322813,-5.2595420,6.0000000,-18.4045811
6560,-2.4540441,13.2925396,-6.9120250,-45.2900772,40.7862587,7.8854961,0.4094064,11.4777441,1.4963684,-6.1297708,4.6564884,-16.5114498
6570,-1.2880739,14.0706511,-6.2608056,-26.5114498,18.6717548,14.4351149,0.3399749,11.3173332,1.2952565,-7.4656487,3.3129771,-13.6870232
6580,-0.0407012,14.4273853,-5.7604198,-3.4122138,-1.7633588,13.6793890,0.4501076,10.9558105,1.1947005,-10.0687027,-0.3893130,-11.0381680
6590,0.8858501,14.4944229,-5.4946647,19.6488552,-21.2519093,4.8854961,0.7182568,10.6565371,1.1013272,-12.9007635,0.2442748,-8.9312973
6600,1.4963684,14.0060081,-5.2983413,38.7251892,-40.8625946,-9.4503813,1.2282192,10.1513634,1.3359578,-14.5801525,1.4351145,-10.0763359
6610,1.5346755,13.1321287,-5.1163831,52.3358765,-56.4198456,-24.3740463,1.4580613,9.7778702,1.4796091,-14.9770994,3.7175572,-15.0381680
6620,1.0630201,11.9470053,-4.9344244,60.9236641,-67.9007645,-34.8778610,1.0965388,9.4666252,1.8626794,-13.1908398,5.0610685,-21.7480907
6630,0.7685348,10.5296450,-4.6566987,64.2900772,-75.3587799,-40.9465637,0.7613522,9.5408449,2.0470319,-9.2519083,7.2137403,-28.1984730
6640,0.3399749,9.4019823,-4.2568688,63.1603050,-83.3511429,-43.2977104,0.2753318,9.5216913,2.2313845,-4.1832061,11.0610685,-32.3282433
6650,-0.3950413,8.5496502,-3.5242469,59.7175560,-91.7786255,-40.9312973,-0.2585725,9.4690189,2.2385671,0.5648855,14.5572519,-35.1221390
6660,-0.7733232,7.6470413,-2.3439114,58.2366409,-100.2061081,-35.8702278,-0.8379663,9.5384512,2.2218077,3.1679389,17.9541988,-35.3282433
6670,-1.1013272,6.8162575,-1.4963684,59.0687027,-108.0457993,-29.3664131,-1.1444225,9.8089943,1.9943599,2.1984732,20.7786255,-34.2748108
6680,-1.3335636,6.0429344,-0.6584021,62.3206100,-111.4809189,-22.6183205,-1.5634058,9.8927908,2.0829449,-0.9160305,21.9923668,-30.2900772
6690,-1.3910241,5.4659348,-0.1436514,66.9847336,-111.3511429,-15.5954199,-1.8219782,9.8377247,2.3989778,-5.0534353,20.9389305,-24.3969460
6700,-1.4293311,4.7740140,0.2130829,70.1984711,-109.1755753,-8.9007635,-1.6232605,9.7084379,2.4708035,-10.3435116,19.3511448,-17.9770985
6710,-1.3335636,4.2592630,0.5985473,70.5572510,-106.6259537,-1.6870229,-1.2042773,9.4019823,2.7437410,-14.4809160,18.2366409,-11.9465647
6720,-1.0031654,3.5984666,0.8858501,68.3282471,-102.1832047,6.4274807,-0.8858501,9.2583303,3.1315999,-16.8244267,16.8167934,-9.0763359
6730,-0.4213773,2.8897867,1.1970947,65.7328262,-92.8167953,13.1679392,-0.4548960,9.0165176,3.3183465,-16.6259537,16.2213745,-7.5419846
6740,0.0622489,2.3582766,1.4317253,62.1526718,-79.4351120,16.5954189,-0.2106887,8.9279327,3.5793133,-14.4503813,16.0916023,-7.8931298
6750,0.4237715,2.0254843,1.4939742,55.1374054,-66.3816757,15.4503813,-0.0263361,8.8608952,3.4404502,-11.2900763,16.7022896,-8.9770994
6760,0.7014975,1.5107336,1.0510491,39.6641235,-59.5190849,11.5419846,-0.0981618,9.0931320,3.4667864,-8.1450386,16.8320618,-11.2519083
6770,0.6033357,0.9911944,0.6033357,15.5343513,-56.8549614,9.4885492,-0.3016679,9.2655134,3.1866663,-6.0305343,16.0687027,-12.0839691
6780,0.1987177,0.7158626,0.3926471,-13.8702288,-49.9923668,9.4274807,-0.4333483,9.5911226,2.9520357,-6.7099237,14.3129768,-9.6106873
6790,-0.3303981,0.5698171,0.5171449,-40.0916023,-39.0687027,12.0610685,-0.1604107,9.8209648,2.7676830,-9.5725193,11.5419846,-4.0000000
6800,-1.2354017,0.6584021,0.5123565,-56.2671738,-31.2519093,19.3053436,0.5410868,9.7132263,2.4444675,-15.0534353,8.9465647,1.5343511
6810,-2.7126167,1.4796091,0.2106887,-61.0305328,-14.6335878,33.6183205,1.2761030,9.5312681,2.4253139,-20.8625946,6.1374044,2.9465649
6820,-5.9615316,6.1075773,-2.1858950,-39.3816795,16.3435116,79.4732819,1.5514348,9.5001440,3.0166788,-25.8015270,4.1297708,-4.8625956
6830,-7.5321202,8.7483683,-4.3646073,-22.7022896,15.9312973,101.8015289,1.1372399,9.4546537,3.3590479,-23.5725193,1.7175573,-8.3969469
6840,-8.7148495,10.8217363,-6.9551206,-7.3053436,5.2366414,125.1221390,0.7685348,9.5623922,3.5553713,-18.8091602,-2.2900763,-10.5801525
6850,-8.8345594,12.3635941,-8.7603388,8.1679392,-2.5572519,146.1374054,0.4836263,9.7539282,3.2345500,-13.4961834,-5.5954199,-10.8167934
6860,-8.3509331,13.9988260,-10.8720140,23.0916023,-1.0534351,161.0305328,0.3256098,9.8281479,2.8251436,-8.9923668,-7.7786260,-10.8244276
6870,-7.7428088,15.0953646,-12.7275114,28.4198475,5.8931298,167.6641235,0.1699875,9.8257532,2.3199697,-5.6564884,-9.0839691,-10.0152674
6880,-6.8449879,16.3259773,-13.9916430,25.9007626,8.6412210,166.3511505,0.0454896,9.8712435,1.7908537,-4.0152674,-8.6870232,-7.7480917
6890,-5.5832496,16.7904510,-13.6181498,23.1374054,11.4656487,154.5877838,-0.0215477,9.8520899,1.4365137,-2.9923663,-6.9083967,-7.0916033
6900,-4.6064205,16.2302094,-13.0028429,26.6183205,19.1145039,133.7557220,-0.1819584,9.6988611,1.0031654,-2.5801528,-3.1145039,-5.5190840
6910,-5.5210009,14.6045561,-12.5599174,30.7251911,27.9389305,118.1526718,-0.5195391,9.4977493,0.7733232,-2.3893130,1.1679389,-4.4198475
6920,-7.0101867,12.9190464,-11.9924946,39.3664131,31.5954189,118.7862625,-0.8283895,9.3133974,0.3998296,-2.7404580,7.5496182,-2.6793892
6930,-8.9231443,10.6230183,-12.5383701,48.0458031,26.7175579,134.7022858,-1.1204807,9.0691900,0.2920911,-4.2213740,11.0916033,-0.6488550
6940,-10.8935623,8.6358414,-13.4577389,54.3358765,16.1374054,161.5572510,-1.2904681,8.9590569,0.3615226,-6.4885497,13.1450386,0.4351145
6950,-12.6413202,7.3597383,-13.8096848,55.1984749,-1.1145039,198.3435059,-1.8076130,8.8130112,0.5506636,-8.3664122,13.1450386,2.0458016
6960,-11.9326401,6.6462698,-12.5718889,54.3435097,-21.5190830,236.5954132,-2.0518203,8.9135675,0.8140244,-9.3893127,8.0000000,4.6259542
6970,-8.8992023,6.7228842,-10.0436249,65.5496216,-37.4885483,250.1297760,-2.0661855,9.0476418,0.8236012,-11.0763359,1.1679389,7.4656487
6980,-5.8130918,6.5935979,-8.8513184,85.8702316,-46.5190849,250.1297760,-1.7429699,9.1912937,0.6727672,-14.8702288,-7.2977099,10.9923668
6990,-4.4603748,6.7803445,-9.6916790,95.9694672,-39.2900772,250.1297760,-1.2114599,9.3014259,0.5291159,-21.1984730,-14.7786255,14.5877867
7000,-4.0054789,6.5864153,-10.7403336,86.2137375,-18.7404575,250.1297760,-0.7302278,9.1577749,0.3543400,-29.1450386,-20.6488552,16.9465656
7010,-3.9911139,5.7412663,-10.8217363,64.5343475,2.0916030,250.1297760,-0.3878587,8.8992023,0.5698171,-36.7099228,-24.5801525,17.7633591
7020,-3.1842721,3.9767487,-10.2112179,41.6717567,9.7328243,250.1297760,-0.0766141,8.5616217,0.7086801,-42.4198456,-25.6259537,18.7633591
7030,-1.2306134,2.1906834,-9.4929609,24.4122143,3.1832061,250.1297760,0.2585725,8.2671366,1.1683644,-44.3435097,-22.3816795,18.2977104
7040,3.1603301,0.8188128,-8.0995426,15.7099237,-8.7633591,250.1297760,0.6464311,8.2815018,1.4580613,-42.2824440,-13.6106873,16.5419846
7050,7.6901364,-0.1005560,-7.1801744,15.5343513,-22.0687027,250.1297760,0.9217629,8.5592270,1.7884595,-38.0152664,-1.6335878,12.0458012
7060,11.2167778,-2.0470319,-6.6534524,13.4503813,-46.7709923,250.1297760,0.6703730,8.9279327,2.0135133,-34.1374054,10.2290077,8.2137403
7070,15.1001530,-5.4252334,-5.1834202,2.0458016,-86.3435135,198.4503784,0.4165890,9.4211359,2.3223639,-31.4427490,18.0305347,6.3053436
7080,19.6126022,-9.5073261,-1.6759326,-13.1908398,-122.9770966,115.9618301,0.3639168,9.8473015,2.4636209,-30.5877857,20.8015270,5.2137403
7090,19.6126022,-15.0067797,4.0892754,-23.2137413,-134.2061005,37.4656487,0.4740495,10.1082678,2.5354466,-31.1679382,20.0305347,4.6641221
7100,19.6126022,-19.6131992,9.9143381,-30.7557259,-79.8702316,-6.6641221,0.6177009,10.3644457,2.6383967,-31.7175579,17.2137413,2.1832061
7110,19.6126022,-19.6131992,12.5982246,-43.2595406,37.8931313,26.1755733,0.6224893,10.4458485,2.8203552,-31.3587780,13.7786255,-1.4198474
7120,15.3898497,-12.1529055,10.1992474,-73.9312973,163.4885559,172.6030579,0.5769997,10.5990763,2.8634505,-29.0763359,10.0229006,-6.6412215
7130,17.7912216,0.3303981,10.5775290,-111.2442780,237.9923706,250.1297760,0.4309541,10.8935623,2.8706331,-26.4198475,7.1145039,-11.2290077
7140,19.6126022,7.2807302,16.3762550,-88.0305328,229.4274750,250.1297760,0.3088504,11.4945040,2.8323262,-24.4885502,4.1832061,-14.1297712
7150,19.6126022,16.9364967,19.6126022,21.1755733,133.7938995,250.1297760,0.1651991,12.1672707,2.8754215,-23.7175579,1.2213740,-13.9770994
7160,19.6126022,18.4999027,16.2780933,172.2213745,33.5267181,71.3664093,-0.1244979,12.4186611,3.0837159,-23.7633591,-0.4885496,-10.6335878
7170,19.6126022,9.8784256,4.7213416,243.3664093,-127.5725174,-250.1374054,-0.2705434,12.4186611,3.2896163,-23.5725193,-1.4427481,-3.4732823
7180,19.6126022,-3.3327117,-6.2799587,180.8854980,-202.2442780,-250.1374054,-0.1843526,12.4258432,3.7109938,-21.3206100,-0.8396947,2.8702290
7190,19.6126022,-14.5423069,-10.1729107,30.7099228,-175.7099304,-250.1374054,0.1029501,12.0858688,3.9815371,-17.1603050,0.9923664,9.0916033
7200,12.4186611,-19.5988350,-9.5935173,-135.7022858,-95.7633591,-250.1374054,0.6871324,11.8440552,3.9743545,-11.4656487,2.7251909,13.4351149
7210,6.4547348,-16.9245243,-1.9297167,-217.1908417,-21.3435116,-250.1374054,1.1779412,11.8177195,3.8953462,-5.8549619,5.9847326,14.3129768
7220,6.1674318,-11.0491848,4.7213416,-202.2061005,-16.5801525,-250.1374054,1.4724265,12.0092545,4.1443419,-1.7709924,8.4885492,11.5648851
7230,7.8553357,-8.2168579,5.6407104,-135.1145020,-15.6335878,-250.1374054,1.7046629,12.4210548,4.3334827,0.8320611,10.7633591,7.9389315
7240,7.8170285,-5.9591374,2.9209111,-62.4198456,16.6183205,-250.1374054,1.4820032,12.7346935,4.7357068,2.2290077,10.7786255,5.8931298
7250,6.9024482,-2.2170193,-1.9057748,-20.9618320,56.3816795,-250.1374054,0.9313397,12.6293497,5.2624283,4.6106873,8.3893127,7.2366414
7260,4.0437860,1.1970947,-8.5400734,-20.6564884,101.5648880,-250.1374054,0.6344602,12.4066896,5.7819676,9.2519083,2.1832061,10.0534353
7270,-0.4381367,4.0844874,-15.0881815,-65.0916061,145.0305328,-250.1374054,0.5650287,12.0044661,6.0189924,16.1450386,-2.2519083,11.0610685
7280,-4.4699516,7.4435349,-17.1256371,-137.2824402,170.2213745,-250.1374054,0.5362985,11.7339230,6.0285692,23.7480907,-4.6793895,9.6946564
7290,-6.8234401,10.3165627,-14.4202032,-185.9541931,185.6183167,-209.7022858,0.2585725,11.4202833,5.6909885,30.2977104,-4.6793895,7.4809160
7300,-6.6127515,12.1026278,-11.0300312,-185.7404633,182.2824402,-160.7786255,-0.3280039,11.1880474,5.3821378,34.7099228,-4.3053436,7.2671757
7310,-5.3246775,14.8056679,-8.8297710,-146.2366486,159.4885559,-120.2061081,-0.9145803,10.9103212,5.2528515,36.9847336,-5.2748094,11.0610685
7320,-3.8642218,17.6571465,-7.7308378,-84.7557220,124.0992355,-94.2595444,-1.1970947,10.5344334,5.0397687,37.8396950,-5.2366414,16.7175579
7330,-2.1260402,18.2030220,-8.6166878,-21.4274807,74.1908417,-82.0305328,-1.3958124,10.0436249,4.9056940,37.3435097,-1.5801526,24.0687027
7340,-1.1061156,18.5597572,-10.0101061,22.9312973,19.2671757,-80.6793900,-1.4700323,9.5576038,5.0661049,36.9694672,3.2748091,30.4809170
7350,-0.3519458,18.2820301,-10.6493549,44.3053436,-25.2748089,-85.4427490,-1.4724265,9.0308828,5.1618724,37.6030540,7.2061067,37.2977104
7360,-0.2968795,17.2285881,-10.2351599,51.7175560,-51.1526718,-90.4961853,-1.4700323,8.4419117,5.3079181,39.2595406,9.9541988,44.8244286
7370,-0.0814024,16.0697994,-9.1410151,53.8473282,-61.2977104,-97.3282471,-1.0869620,7.8194227,4.9918852,40.7557259,10.1374044,50.3206100
7380,0.0742199,14.4202032,-8.0277176,53.5648842,-65.1068726,-107.3206100,-0.5554519,7.2783360,4.5274124,40.7099228,8.4274807,53.1145020
7390,-0.0646431,12.5575237,-6.5672617,52.2061081,-67.5343475,-117.6259537,0.0047884,6.7276726,4.0868812,38.8015251,5.3053436,52.2061081
7400,-0.3902529,10.8241301,-4.9631548,50.3435097,-67.3206100,-124.2442780,0.3830703,6.3230543,3.6894460,35.8778610,0.5572519,49.2290077
7410,-0.8762733,8.8704720,-3.9743545,47.7480927,-61.3511467,-127.3129807,0.7757174,5.9088597,3.2465210,32.0305328,-3.7709923,45.0610695
7420,-1.7812769,6.9623032,-3.0310438,44.3358765,-51.2977104,-126.0305328,0.9361281,5.6000090,2.8849983,27.7862587,-7.2824426,40.3053436
7430,-2.7006457,5.7316895,-2.3247581,38.8931313,-38.9160309,-118.8778610,1.1970947,5.4922705,2.6503677,23.4580154,-10.7404585,34.4961815
7440,-3.2369442,4.7452836,-1.6879035,33.7938919,-25.4656487,-106.5343475,1.2186425,5.4036856,2.6168492,19.9694653,-13.3129768,27.7404575
7450,-3.6439564,3.6391680,-0.8475431,31.0534344,-12.0610685,-89.3282471,1.1779412,5.4515696,2.1308286,16.2748089,-15.4274807,21.5648861
7460,-3.8666160,2.8562679,-0.2442073,32.3206100,-1.0763359,-68.7557220,1.0702027,5.6502872,1.4460905,10.6030531,-17.9007626,14.8702288
7470,-3.5984666,2.0877333,0.3639168,46.0152664,15.5496187,-23.7709923,1.3120158,6.1434903,0.8259954,-1.7862595,-20.1984730,8.0229006
7480,-3.1172347,1.7477583,0.2178712,56.0458031,21.4198475,-3.3282442,1.2186425,6.3613615,0.1939293,-13.7786255,-22.0763359,2.2290077
7490,-2.7102225,1.2066715,-0.1987177,65.8549652,21.7099228,15.6259546,1.0223188,6.7683735,0.1819584,-26.9312973,-25.6030540,-1.0839695
7500,-2.3774302,0.8834559,-0.7517755,72.3740463,20.4580154,35.2595406,1.2808913,7.3956513,0.9552816,-38.2900772,-28.7633591,-3.7099237
7510,-1.6256547,0.8068419,-1.4628497,75.4809189,18.8778629,55.1679382,1.4341195,7.8361821,1.4269369,-45.7480927,-29.0381680,-6.6641221
7520,-0.7661406,0.8451489,-2.0422437,73.2977066,21.1908398,72.4656525,1.4556671,8.1186962,2.5162930,-47.0916023,-28.5954189,-12.1984730
7530,0.1460456,1.1635761,-2.4013720,64.9160309,25.4580154,84.3358765,1.4293311,8.8513184,3.1220231,-42.9236641,-27.2671757,-17.7709923
7540,1.1252691,1.5969244,-2.5665710,53.5648842,28.7251911,89.7557220,1.2042773,9.5073261,3.6607156,-34.1832047,-23.4122143,-22.6412220
7550,2.2242019,2.4660151,-2.6671271,41.9312973,30.4122143,87.7251892,0.8690908,10.2710724,3.6607156,-24.2900772,-18.9618320,-27.8015270
7560,3.4093258,3.6343796,-2.9759774,33.1526718,31.4198475,74.7099228,0.3974355,10.8552551,3.5026991,-14.8549614,-14.3969469,-30.1297703
7570,3.6583214,4.5537481,-3.8737986,25.1908398,40.9465637,50.7786255,0.0957676,11.2981796,3.4955165,-5.8778625,-8.6717558,-30.3664131
7580,2.7174051,5.6933827,-5.3007355,6.6717558,47.6793900,21.9465656,-0.1747758,11.6644907,3.3303175,2.4656489,-2.1984732,-29.4732819
7590,1.6352314,6.7085190,-6.9263902,-25.6641216,51.6641235,-5.6793895,-0.4836263,11.9637651,3.1483591,9.8167934,3.0152671,-27.9083977
7600,0.3160330,7.7260494,-8.1163025,-62.5572510,62.3969460,-26.3053436,-0.8930327,12.2151546,2.9807658,15.5801525,7.6641221,-25.8015270
7610,-1.6160779,8.3868456,-8.3030491,-98.6793900,72.2595444,-35.7557259,-1.1444225,12.3564119,2.7844424,18.8396950,11.5038166,-21.3358784
7620,-3.2130022,9.4738073,-7.1059542,-122.9847336,76.0000000,-30.7404575,-1.4389079,12.0786858,2.5402350,18.6946564,13.1755724,-14.6335878
7630,-3.3446827,10.8145542,-5.3127065,-125.8091583,73.8549652,-15.2748089,-1.8315549,11.5040808,2.2433555,13.9923668,13.1908398,-7.6259542
7640,-2.8778157,12.0308018,-4.3119354,-104.8854980,65.2900772,-0.7251908,-2.2505381,10.5057030,1.9895715,6.0839696,11.2519083,1.4274809
7650,-1.3838415,12.9525652,-3.9743545,-71.4351120,56.4198456,3.6564887,-1.2689204,9.6366129,2.1763182,-0.2900763,13.0916033,3.6183207
7660,0.2801202,13.2733860,-4.2544746,-35.7099228,45.8167953,-4.6717558,-1.0773853,8.8968077,2.1475880,-7.8549619,21.8854961,0.3511450
7670,0.9097920,13.5942078,-5.5569139,-9.3435116,34.8854980,-18.8244267,-1.3862357,8.0540533,2.4708035,-13.0687027,28.2977104,-2.2519083
7680,0.8571198,13.4505568,-6.7875271,1.0458015,22.1526718,-33.4732819,-1.0606259,7.9439206,2.9951310,-14.7404585,34.9007645,-6.4961834
7690,0.3519458,12.7179346,-7.6542239,-3.3358779,9.8244276,-42.5267181,-1.0869620,7.9606800,3.3566537,-14.3740454,41.7557259,-10.7786255
7700,0.1029501,12.1457233,-7.5728211,-17.5419846,2.2137403,-47.3053436,-1.3790531,7.9894104,3.6966286,-12.9618320,43.1984749,-12.6564884
7710,-0.1508339,11.1736822,-6.5600791,-35.1526718,0.3969466,-50.9312973,-1.5035510,8.2288294,3.8666160,-11.8549614,39.8854980,-10.0992365
7720,-0.5602403,10.0723553,-5.3366485,-46.3816795,3.4961832,-53.8778610,-0.9050036,8.4610653,3.9049230,-10.3282442,35.0305328,-7.3587785
7730,-1.7764885,8.8800488,-4.6614871,-50.9847336,7.3587785,-53.0228996,-0.1197095,8.7986460,3.6295912,-9.2213745,32.3664131,-5.2061067
7740,-2.9783716,8.1498213,-4.6088147,-49.2442741,12.1297712,-38.7480927,0.6488253,9.0380650,3.1148405,-11.3053436,30.4503822,-1.2748091
7750,-3.3375001,8.1713686,-5.2097564,-41.6870232,17.7480907,-14.9694653,1.2042773,9.3086090,2.8921809,-16.6183205,27.1145039,1.0763359
7760,-2.6336083,8.1498213,-6.8449879,-27.7786255,36.7709923,1.2824427,1.9752063,9.4331064,2.8347204,-23.3969460,23.0916023,3.4503818
7770,-3.2153964,7.7236552,-10.3764172,-12.4503813,86.1297684,-3.6183207,2.6360025,9.5312681,3.0573800,-28.6870232,20.0381680,4.3435116
7780,-6.7133074,7.0532823,-16.1081066,-10.7633591,133.5190887,-24.8473282,3.1196289,9.7323799,3.4284792,-31.0992374,16.6641216,3.2290077
7790,-11.2933912,7.2711535,-19.6131992,-36.9847336,131.3816833,-32.5496178,3.3566537,9.8568783,3.7277529,-29.9236641,13.4961834,-0.3129771
7800,-15.6388454,7.0173693,-19.6131992,-79.4274826,70.8167953,6.2290077,3.2465210,9.9478569,3.7876077,-26.0839691,9.0992365,-3.9847329
7810,-15.6292686,6.3924856,-19.6131992,-108.9542007,-30.2900772,73.0000000,3.1579359,10.1058741,3.6128318,-22.4961834,3.5725191,-6.5419846
7820,-11.2383251,7.0173693,-14.4704809,-109.6564865,-115.4656525,131.5343475,2.8969693,10.4673967,3.3231349,-21.3587780,-1.2748091,-6.6641221
7830,-8.1210909,8.4155760,-10.6206245,-85.7251892,-151.4427490,172.3816833,2.5306582,10.7786407,2.9592183,-23.6870232,-7.3358779,-3.6030533
7840,-5.2576399,9.6821022,-9.0620070,-59.8931313,-162.7709961,191.3587799,1.8938038,11.1042509,2.5546002,-30.6412220,-14.1603050,3.2519083
7850,-4.0773048,10.7666702,-8.8537130,-41.3511467,-162.3893127,193.9923706,1.3886299,11.5280218,2.8538737,-42.0000000,-23.7022896,12.3664122
7860,-4.7644372,10.2926207,-10.2782555,-43.7709923,-154.2061005,198.2213745,1.2641320,11.6405487,3.7540891,-53.1526718,-34.2900772,23.5725193
7870,-5.5377603,9.4043760,-10.2136126,-67.1297684,-149.5648804,214.9313049,0.9552816,11.5735121,4.7500720,-61.0763359,-46.3358765,32.7938919
7880,-5.9136481,8.4275465,-8.4802189,-90.4198456,-146.3969421,243.2671814,0.3974355,11.8799677,5.9112539,-66.1984711,-62.0381660,41.3358765
7890,-5.6909885,6.6558466,-5.9040713,-97.1297684,-148.4580078,250.1297760,-0.7134684,12.1098099,7.2304521,-68.1145020,-80.6793900,54.4274826
7900,-4.3693957,4.6638808,-3.8881636,-82.9160309,-153.9923706,250.1297760,-1.3910241,11.6620970,7.1059542,-70.2748108,-113.5114517,69.1145020
7910,-2.0230901,1.8195840,-3.4859397,-60.8015251,-151.8167877,250.1297760,-1.3215926,10.9486284,6.1650376,-78.2900772,-157.8091583,80.9465637
7920,1.8985922,-1.0725969,-3.0669568,-39.1984749,-151.9313049,250.1297760,-0.4501076,10.4793673,5.0828643,-92.6870193,-205.1679382,84.8625946
7930,6.1554613,-3.7900019,-2.3391230,-16.2977104,-160.3511505,250.1297760,0.3471575,10.2998028,4.5441718,-109.9236679,-245.6946564,82.9236679
7940,12.0858688,-6.5983863,-1.8076130,-3.7709923,-169.7404633,250.1297760,0.1771700,9.8520899,4.7835903,-126.5877838,-250.1374054,81.4198456
7950,17.9947281,-10.6900558,-1.5658000,-13.4885492,-165.8473358,250.1297760,0.3016679,9.2535419,4.9392128,-137.2900696,-250.1374054,81.9770966
7960,19.6126022,-15.2342272,0.4022238,-50.4122124,-141.3358765,232.5038147,0.6943150,8.9925756,5.7723908,-138.4961853,-250.1374054,82.6717529
7970,19.6126022,-17.9923344,5.4443870,-92.9465637,-84.0000000,181.4045868,1.1061156,8.8082228,6.7659793,-129.3435059,-250.1374054,84.4503784
7980,19.6126022,-19.2085819,9.9670105,-117.4045792,16.1755733,153.3282471,1.3120158,8.5400734,7.5536675,-111.7786255,-250.1374054,87.7786255
7990,19.6126022,-14.8750992,10.7858238,-130.0992432,115.8244247,178.0839691,1.8267666,8.3964224,7.5297260,-89.2442780,-244.7862549,89.8854980
8000,19.0361996,-3.7971845,9.5791521,-150.8625946,158.5877838,250.1297760,1.6184721,8.7387915,7.4195933,-67.0534363,-240.8091583,92.9236679
8010,19.6126022,8.2503767,14.6691990,-160.3358765,135.4122162,250.1297760,2.0590029,8.3557215,5.8130918,-51.8396950,-244.9236603,94.6030502
8020,19.6126022,17.2621059,19.6126022,-107.4732819,90.5954208,250.1297760,3.4476328,8.1689749,3.8857694,-46.0610695,-250.1374054,91.5648880
8030,19.6126022,18.6435528,19.6126022,-3.1221373,57.4274826,71.9236679,5.2552457,7.6901364,2.2218077,-50.7709923,-250.1374054,78.2442780
8040,19.6126022,12.1648769,19.6126022,100.1450348,39.9694672,-191.9694672,6.0357518,7.4842362,1.4125718,-57.9541969,-250.1374054,62.9389305
8050,19.6126022,1.0678085,12.8184900,162.0000000,63.9541969,-250.1374054,7.9774394,7.0460997,0.6296718,-60.0839691,-250.1374054,45.3129768
8060,19.6126022,-8.2551651,4.1850433,159.5648804,119.6946564,-250.1374054,9.5935173,6.7564025,0.3351865,-56.0534363,-231.6335907,23.3511448
8070,13.5966015,-13.1153698,-3.7157819,93.2137375,161.3129730,-250.1374054,10.8001890,6.6941538,-0.1244979,-46.5801544,-171.8702240,-1.2824427
8080,10.8648319,-13.9389706,-5.7436604,15.6870232,202.5343475,-250.1374054,10.5368280,6.6271162,0.1843526,-33.4351158,-101.1908417,-23.8778629
8090,10.7427282,-10.6661139,-2.8012016,-25.0152664,205.7633514,-250.1374054,8.6741486,6.4834652,1.0295014,-18.6641216,-43.0763359,-37.7480927
8100,10.9510221,-7.1753860,-0.4860204,-29.0305347,194.0229034,-250.1374054,6.9646969,7.0437055,1.7381816,-4.9923663,-5.8396945,-42.5343513
8110,10.4793673,-4.4986820,-0.1029501,-13.5572519,196.3129730,-250.1374054,5.7149301,7.2328463,2.7533178,6.8854961,7.7328243,-44.5496178
8120,7.8433647,-1.9321109,-1.9584470,0.6106870,210.9923706,-250.1374054,5.1618724,7.3836803,3.0430148,16.4045811,8.6641226,-44.5725174
8130,3.9743545,0.2346306,-4.6136031,-6.9770994,230.2366486,-250.1374054,5.0517397,7.6374645,3.2177906,22.5877857,-0.1145038,-46.7786255
8140,0.2298422,3.5338237,-7.2567883,-34.5648842,250.1297760,-239.0992432,4.9128766,7.7595682,2.9783716,25.5648861,-14.3740454,-50.3282433
8150,-3.0023136,7.8266053,-8.0325060,-68.0992355,250.1297760,-185.3969421,4.7021880,7.8960366,2.6551561,25.9236641,-30.1984730,-54.3969460
8160,-4.4292507,12.7346935,-6.0237808,-79.2900772,250.1297760,-130.3282471,4.1156116,8.1641865,2.2936335,23.7557259,-46.2213745,-56.3969460
8170,-4.4555864,17.0394459,-4.3981261,-56.8091621,184.3816833,-90.3587799,3.3135581,8.6478119,1.8842272,18.6412220,-63.0458031,-53.9465637
8180,-3.0885043,19.6126022,-2.7940190,-17.9541988,94.3740463,-63.4351158,2.4205256,9.3876171,1.4029950,11.3129768,-79.6488571,-45.4198456
8190,-0.1101327,19.6126022,-1.6184721,25.9160309,28.7099228,-47.4885483,2.5665710,9.7132263,1.1324517,3.0687022,-90.8091583,-33.1984749
8200,2.9568241,19.6126022,-1.6855093,66.1068726,-2.4656489,-44.2595406,3.9216824,9.5025377,0.7900825,-2.0839694,-86.1603088,-20.1679382
8210,4.2927818,19.6126022,-2.8179610,95.4351120,-12.4198475,-50.3282433,5.2863703,9.2248116,0.7278336,-2.8702290,-61.2442741,-12.6335878
8220,5.7388721,19.6126022,-4.8602047,104.4732819,-21.9923668,-60.6030540,6.3876977,8.9422979,1.2138541,-0.5877863,-28.5648861,-8.3053436
8230,5.0038562,19.6126022,-5.7819676,99.0687027,-33.3816795,-74.5267181,6.6079631,8.3916340,2.2672975,4.5725193,-2.3129771,-6.6793895
8240,4.4891052,18.7225609,-5.6191626,83.5725174,-63.0992355,-90.0610657,6.6606350,8.1258793,2.8658447,11.4351149,22.4122143,-5.1603055
8250,3.7540891,16.6037045,-4.1012464,69.3740463,-99.5038147,-104.6641235,6.4092450,7.6853480,3.9360476,20.2213745,36.7709923,-4.9923663
8260,3.2728570,14.1520538,-2.0039365,59.7786255,-130.8091583,-116.3587799,5.8729467,7.1011658,4.2257442,29.2900772,44.7404594,-3.7862597
8270,2.7605004,11.5375986,0.5099624,54.2137413,-145.7404633,-121.5190811,5.2959471,6.8521700,4.0485744,35.9771004,38.1603050,-4.4732823
8280,1.7645177,9.7228031,2.4061604,52.1221390,-135.5343475,-119.7557220,4.9344244,6.9455438,3.7062054,39.1832047,21.2900772,-8.2137403
8290,0.6200951,7.8074517,3.3494711,50.9618340,-105.7099228,-114.5954208,4.5800843,7.1490498,3.3686244,36.5801544,4.9847326,-10.8625956
8300,-0.6129125,5.7149301,3.6104376,50.4427490,-71.6946564,-106.1526718,4.3909435,7.3932571,2.8921809,29.7938938,-9.5496187,-12.3511448
8310,-2.0853391,4.1084290,3.5625539,50.8244286,-41.6488533,-92.3893127,4.5154414,7.8098459,2.4444675,20.5038166,-18.5725193,-12.4198475
8320,-3.4308734,2.7150109,3.2393384,52.7633591,-18.3511448,-72.6641235,4.5178356,8.1115141,2.7317703,11.2442751,-20.8167934,-12.6183205
8330,-4.7524662,1.7429699,1.6543850,48.1221390,-10.3740454,-44.3969460,4.1395535,8.2886839,3.1052637,3.7328243,-23.7251911,-12.1374044
8340,-5.9663200,2.0542145,-1.0749911,23.5572510,-20.4961834,-4.2290077,3.9791429,8.3150196,3.5122759,-0.3129771,-26.7328243,-10.5877867
8350,-4.3550305,2.3223639,-2.6288199,-9.8931293,-12.4045801,30.1603050,3.9599893,8.1617918,4.1850433,-1.4580153,-26.4427490,-7.9160304
8360,-4.7955613,1.9033806,-3.2034254,-44.9541969,-46.1145020,58.1832047,4.0916696,7.9032192,4.6423335,1.7938931,-26.1145039,-4.5572519
8370,-3.9743545,2.4755919,-3.9863255,-72.9083939,-91.2824402,78.9160309,4.4148855,7.8768835,4.7692256,8.9465647,-28.4885502,-4.7480917
8380,-2.8323262,3.0454090,-4.9751258,-104.8549652,-137.4580078,90.1755753,4.6973996,7.9822278,4.7955613,17.5725193,-30.7328243,-6.3435116
8390,0.1005560,2.4181314,-4.8386569,-136.9923706,-159.3282471,88.8473282,4.8602047,7.9989872,4.6830344,25.5877857,-32.5343513,-9.5877867
8400,1.3575054,1.7812769,-3.8666160,-163.8244324,-171.6259613,77.1908417,4.9248476,8.0277176,4.3334827,32.2977104,-33.3053436,-12.6183205
8410,1.7190280,1.7812769,-3.5242469,-182.1297760,-174.2900696,72.0381699,4.5369892,8.1641865,3.4476328,37.8091621,-32.7709923,-12.8625956
8420,1.5610116,2.5522060,-1.7669119,-184.0839691,-153.3435059,70.6488571,4.2999644,8.1234846,2.8251436,41.0228996,-25.1145039,-9.6106873
8430,1.1707586,3.8354914,1.8243724,-158.8091583,-128.1908417,61.3129768,4.4555864,8.3652983,2.1739240,43.2137413,-13.1221371,-2.1068702
8440,1.3551112,3.7157819,2.7700772,-118.4885483,-100.6183243,46.6412201,4.5776901,8.0444765,2.0685797,44.9541969,-2.4580152,4.2519083
8450,-0.2011119,4.0725164,3.7157819,-76.1832047,-79.4809189,35.1526718,5.0684991,7.8553357,2.0111191,45.8015251,-2.9236641,6.6717558
8460,-1.6065011,5.5353661,4.0892754,-42.4122124,-84.1145020,35.6183205,5.4012914,8.5831690,1.7932479,42.2213745,-14.8015270,4.7480917
8470,-0.6703730,6.7587967,4.3167233,-20.4274807,-86.5954208,35.0610695,5.6766233,9.2248116,1.0247130,33.7557259,-28.2977104,2.9694657
8480,-1.3455344,8.6382351,3.9767487,-2.0916030,-84.9694672,27.5877857,6.0692701,9.8089943,0.1268920,22.3969460,-32.5954208,3.4885497
8490,-3.1148405,10.8049774,2.9975252,5.5801525,-84.1297684,24.7786255,6.2943239,9.9310980,-0.5051740,9.0992365,-33.9465637,4.7099237
8500,-4.1826491,12.5407648,1.7621235,-5.0076337,-81.8244247,33.4198456,6.1794028,9.9454632,-0.3830703,-3.1221373,-30.4351139,5.7404580
8510,-5.2432747,13.5822372,0.2106887,-24.4809170,-84.9694672,56.1221390,6.1794028,9.8209648,-0.0047884,-12.6106873,-25.5419846,6.2061067
8520,-5.2743993,14.6021614,0.0239419,-43.1755714,-100.3664093,82.4732819,6.3948798,9.4307127,0.4596844,-19.0229015,-22.0305347,5.2442746
8530,-3.6798692,14.8607340,1.9752063,-48.2137413,-113.2442780,99.8167953,6.6869712,8.9327211,1.3431402,-21.6412220,-19.7022896,1.0687023
8540,-1.8985922,15.5311069,3.3782012,-29.5114498,-106.7633591,108.0152664,6.6654234,8.5496502,2.1284344,-18.8244267,-16.1908398,-3.9541984
8550,-0.2059003,16.7305965,2.9640064,0.0305344,-82.7557220,107.0076370,6.1195483,8.4945841,2.6288199,-10.9312973,-10.1068707,-8.3969469
8560,-0.3663110,17.4033623,1.0582317,15.5267172,-58.7022896,102.7099228,5.3438311,8.3605099,2.8419030,-1.3282443,-4.8320613,-11.3511448
8570,-1.1539993,17.3411140,-0.8906385,12.0687027,-52.9007645,99.6183243,4.8506279,8.4036045,2.8466914,6.5954199,-3.6641221,-11.8778629
8580,-2.0901275,16.4337158,-0.7517755,6.4274807,-63.7938919,96.8015289,4.6638808,8.5185261,2.5881188,10.8244276,-4.4656487,-10.7328243
8590,-2.8083842,15.4305506,-0.1891410,12.8091602,-77.0534363,98.5572510,4.4148855,8.4850073,2.5091105,12.5419846,-5.6335878,-9.9465647
8600,-3.2537034,14.4178085,-0.2633608,27.6870232,-84.5496216,107.9160309,4.5561423,8.4012108,2.5378408,12.5954199,-9.6564884,-10.2595415
8610,-4.0413918,13.7210999,-0.7589580,40.8167953,-84.9694672,126.9465637,4.8625989,8.3341732,2.3486998,12.0458012,-11.7099237,-11.9465647
8620,-4.2544746,13.3595772,-1.1827296,51.9083977,-97.3282471,150.9313049,4.9200592,8.2575598,2.2313845,10.8931293,-9.9007635,-14.0992365
8630,-3.7325413,12.7562418,-0.8762733,61.8702278,-113.6412201,172.7480927,4.8147149,8.3341732,1.8531027,8.4122133,-5.6106873,-14.4045801
8640,-2.7269819,12.3588057,-0.2298422,74.2824402,-120.8320618,195.1450348,4.5154414,8.3102312,1.8554969,6.0305343,-1.2519084,-13.2519083
8650,-1.7046629,12.7418766,-1.0151364,83.9465637,-115.6488571,218.0305328,4.3885493,8.0420828,2.2481439,4.0458016,-2.3664122,-9.9236641
8660,-0.8810617,13.2877512,-2.0350611,82.6412201,-107.1755753,241.5496216,4.4699516,7.7164726,2.6814921,3.4732823,-13.7633591,-10.0076332
8670,0.2753318,13.9270000,-1.9895715,77.0610657,-104.4885483,250.1297760,5.0972295,7.6350703,2.5450234,5.4656487,-21.1679382,-12.4351149
8680,2.4205256,13.7354650,-1.9895715,76.6793900,-101.9083939,250.1297760,5.4324160,7.4052281,2.4085546,8.4045801,-21.4809170,-15.7786255
8690,3.6607156,13.5151997,-2.6096666,79.4503784,-95.8931274,250.1297760,5.2241216,7.3573442,2.2601149,10.9007635,-20.3664131,-18.9618320
8700,3.9982965,12.2031832,-3.6152260,74.7786255,-79.7328262,250.1297760,4.9200592,7.4435349,2.2601149,13.7938929,-19.8778629,-20.4580154
8710,4.0222383,10.5895004,-4.1204000,60.6106873,-66.2595444,250.1297760,4.4507980,7.5153608,1.8674678,15.2977095,-20.9389305,-22.1068707
8720,5.5210009,9.0428534,-4.6112089,42.4580154,-51.3435097,250.1297760,3.7421181,7.9367380,1.1994889,15.6412210,-22.4656487,-21.8167934
8730,6.7252784,6.6989422,-5.3869262,19.4885502,-35.8396950,250.1297760,3.2321558,8.4371233,0.7302278,15.7022905,-22.8549614,-19.2519093
8740,7.0365229,3.2944047,-6.3158717,-11.4732828,-16.5038166,250.1297760,2.6264257,8.8680773,-0.0454896,14.3511448,-20.4351139,-14.3664122
8750,7.7643566,-1.3862357,-7.1897511,-51.0839691,5.7862597,230.2748108,2.1236460,9.6390066,-0.4908088,11.8244276,-8.4656487,-7.2824426
