timestamp,rxacclX,rxacclY,rxacclZ,rxgyroX,rxgyroY,rxgyroZ,txacclX,txacclY,txacclZ,txgyroX,txgyroY,txgyroZ
0,4.7644372,7.7619624,0.7972651,61.3740463,-91.4122162,-80.8167953,0.1412572,7.5297260,6.1434903,18.1374054,6.8473282,1.7633588
10,2.7748656,7.4076223,0.1580165,29.2290077,-76.8854980,-63.2061081,0.2968795,7.3310080,6.6702118,12.0000000,5.2519083,7.4503818
20,2.5881188,7.2352405,0.3088504,22.5114498,-72.2519073,-56.9007645,0.5171449,7.3190370,6.6462698,10.6030531,6.7938933,8.2977095
30,2.3726418,7.0987716,0.4357425,17.6946564,-67.5954208,-51.6488533,0.5650287,7.2208753,6.7659793,9.7480917,8.2595415,7.9083967
40,2.1308286,6.7851329,0.6272776,15.4198475,-65.3435135,-46.6793900,0.5123565,7.2065101,6.9024482,9.1679392,7.6030536,7.0000000
50,1.8315549,6.7109132,0.5698171,14.1068707,-61.0763359,-41.8244286,0.6177009,7.3262196,7.0365229,9.0610685,5.9236641,4.7480917
60,1.2617378,6.6941538,0.5291159,11.8549614,-54.8778610,-34.9083977,0.7134684,7.3166428,6.8665352,8.2366409,3.8320611,2.9770992
70,0.5746055,6.5098009,1.5586174,11.0076332,-38.5114517,-24.9083977,0.6655847,7.2184811,6.9335728,6.4656487,0.1221374,1.3206106
80,1.1923064,6.9192076,-0.8978211,1.6946565,-42.1374054,0.0305344,0.7182568,7.3310080,7.0868006,0.6564885,-4.9236641,-3.4351146
90,1.6088953,6.9407554,-0.4046180,-15.8396950,-26.2290077,21.8396950,0.2920911,7.4339581,7.4602942,-1.1297710,0.7709923,-4.2213740
100,3.3758070,7.7499914,-0.7254394,-26.1145039,-33.2137413,20.9694653,0.4309541,7.3190370,7.7595682,11.1755724,2.5190840,-1.0534351
110,3.1603301,7.9463148,-0.6392486,-33.6793900,-27.3206100,24.9007626,0.6248835,7.4004397,7.6278877,13.7404585,1.3282443,-4.7938933
120,2.8323262,8.5735922,-0.5267217,-40.8625946,-22.1297703,33.4045792,0.6392486,7.5153608,7.6661944,15.4656487,0.8244275,-8.5496187
130,3.0358322,9.0715837,-0.4118006,-45.5496178,-21.0687027,42.7251892,0.3351865,7.5895805,7.3405848,16.4045811,-0.5801527,-11.3053436
140,3.2130022,9.5959110,0.0023942,-46.1603050,-27.4885502,49.3893127,0.2322364,7.6518297,7.3597383,16.4656487,-3.0000000,-11.6641226
150,3.4165084,10.2040358,-0.1340746,-44.3435097,-36.7938919,54.5267181,0.1532281,7.6997132,7.4100165,15.6183205,-5.1374044,-12.6717558
160,3.6846576,10.8289185,-0.0766141,-42.0763359,-49.0534363,57.9541969,0.0478838,7.6829538,7.3741035,14.6259546,-6.9923663,-12.5038166
170,3.7469065,11.2263546,-0.2968795,-40.2213745,-56.8167953,61.8396950,-0.0287303,7.6590118,7.3597383,14.4274807,-8.7709923,-11.8549614
180,3.3398943,11.6549139,-0.4812321,-38.6717567,-62.5190849,68.0687027,-0.0167593,7.6733770,7.3597383,14.9694653,-10.2366409,-10.2519083
190,3.0645626,12.1361465,-1.8339491,-41.2442741,-62.0458031,76.9389343,-0.0933734,7.7547798,7.4411407,16.1603050,-11.4961834,-10.6335878
200,3.4165084,12.2750092,-2.3343346,-51.1526718,-56.9007645,84.9465637,-0.1125269,7.7428088,7.3549500,17.4427490,-12.6259546,-8.9541988
210,3.6128318,12.4042959,-2.2170193,-60.0534363,-49.0305328,91.4961853,-0.1508339,7.6685886,7.2184811,18.2748089,-14.9618320,-7.5954199
220,3.8211265,12.6341381,-1.7405758,-64.8854980,-43.5038185,96.0534363,-0.0263361,7.5632443,7.2615767,19.2137413,-17.7557259,-6.3969464
230,3.2249732,12.4426022,-0.9720409,-62.3816795,-43.6641235,101.0610657,0.2489957,7.6015515,7.2160869,20.5648861,-18.8549614,-7.6106873
240,2.1475880,11.9302464,-0.4860204,-55.2900772,-51.5190849,110.2977066,0.2849085,7.7380204,6.8832946,21.6488552,-18.8931293,-7.8549619
250,1.4221486,11.5854826,-0.0598547,-43.1526718,-67.8854980,124.9770966,0.2849085,7.7523856,6.7324610,21.8778629,-16.9770985,-8.8625956
260,0.7398046,11.2646618,0.2825144,-24.1908398,-89.5725174,143.4503784,0.2729376,7.7092900,6.6031747,20.6488552,-20.8778629,-8.8702288
270,0.9385223,10.8815908,-0.1819584,-2.4809160,-105.9694672,165.0610657,0.6081241,7.7188668,6.3398137,23.0992374,-8.3129768,-11.3969469
280,2.5809362,11.8057480,-1.6376256,14.4885492,-113.7786255,180.1526642,0.4525018,8.0851774,6.0932121,20.7328243,-5.6030536,-11.9236641
290,3.7516949,12.4689388,-2.5019281,22.2290077,-116.2213745,183.6412201,0.3998296,8.1163025,5.0924411,12.0839691,2.0916030,-11.1832066
300,4.0006905,12.8807392,-2.6934631,25.0610695,-113.4961853,182.6259613,0.2418131,8.0468712,4.5513539,0.6564885,9.8396950,-8.6183205
310,4.5489597,13.0435438,-3.2824337,26.9923668,-109.8549652,179.2290039,0.2274480,8.0325060,4.9176650,-10.1145039,16.8702297,-7.1679387
320,4.1443419,12.9477768,-3.8737986,27.3740463,-114.7099228,175.6106873,0.0550664,7.8433647,5.7723908,-16.1526718,21.0916023,-6.2977099
330,3.7588775,12.7275114,-4.7476778,25.1832066,-129.2061005,174.4732819,-0.1364688,7.5871863,6.8258343,-16.0152664,19.8854961,-7.4274807
340,3.8259149,12.2534618,-5.1307478,22.3358784,-148.7175598,174.4885559,-0.0454896,7.5105724,7.3884687,-10.7557249,17.3206100,-9.4427481
350,3.4452386,11.4849272,-5.6526814,16.6946564,-160.8473358,179.4732819,0.0909792,7.5225434,7.8026633,-1.1526718,16.6793900,-10.3282442
360,3.3925664,10.8025827,-5.9519548,7.8091602,-162.3816833,188.4045868,0.0550664,7.6111283,7.7739329,8.3053436,18.5725193,-12.0000000
370,3.4117200,9.7539282,-5.6502872,-0.8244275,-155.2442780,199.4656525,-0.3854645,7.7571740,7.4602942,14.4580154,17.7022896,-11.3129768
380,3.0358322,8.7028790,-4.9990678,-8.7709923,-152.3282471,214.7786255,-0.3926471,7.9582858,6.9168134,16.3511448,11.9007635,-10.1145039
390,3.5122759,7.3597383,-3.8809812,-8.5725193,-149.4809113,230.2595367,-0.6200951,8.1354561,6.4691000,13.9389315,3.2900763,-8.9083967
400,3.7109938,5.7771792,-3.1459649,-2.1450381,-122.3511429,246.5954132,-0.5362985,8.1857338,6.1746144,8.0458012,-8.5267172,-7.4351144
410,4.3215117,4.3382711,-4.3215117,-3.8396947,-85.1755753,250.1297760,-0.4788379,8.2431946,5.8681583,0.0305344,-15.4045801,-8.1908398
420,5.3965030,3.1124463,-4.6423335,-18.2213745,-70.7022934,250.1297760,-0.3782819,8.3365679,5.8490047,-8.0839691,-21.6717548,-8.0305347
430,5.8083038,1.5107336,-4.2832050,-31.7404575,-54.0076332,250.1297760,-0.0933734,8.2431946,6.0142040,-15.1450386,-28.6259537,-9.3816795
440,5.9160423,-0.8858501,-4.0605454,-50.9236641,-45.9083977,234.2595367,0.0143651,7.9798336,6.3302369,-19.9847336,-36.6183205,-10.9770994
450,7.5057840,-3.8426740,-3.4715748,-73.8549652,-55.7328262,197.2213745,-0.0526722,8.0205345,6.5816269,-21.4427490,-42.4198456,-13.6030531
460,10.7954006,-7.6087341,-2.2601149,-91.4885483,-59.6030540,134.5343475,0.0000000,7.9678626,6.8832946,-21.4732819,-44.7786255,-15.0992365
470,13.6420918,-13.6612453,-0.8475431,-110.0763321,-39.4045792,55.9236641,-0.1580165,7.9463148,6.9479380,-20.4809170,-47.5419846,-15.8244276
480,15.2150736,-19.6131992,3.0262554,-109.9007645,-10.4045801,-25.6793900,-0.4381367,8.0851774,7.0149751,-19.9541988,-48.5877876,-16.5419846
490,12.3971128,-19.6131992,6.3254485,-78.3511429,21.5343513,-66.0229034,-0.3136388,7.9439206,7.1658092,-18.1297703,-45.6793900,-14.9541988
500,7.5967631,-19.6131992,5.3270717,-42.0381660,96.6870193,-30.0763359,0.0454896,8.3150196,6.6558466,-14.7633591,-26.2213745,-13.0229006
510,4.2448978,-19.6131992,-0.8762733,-61.9465637,182.0458069,65.4885483,-0.1628049,8.1354561,7.2831244,-10.1984730,-13.8473282,-10.5038166
520,8.2838955,-14.5494890,-2.1140692,-148.1679382,191.1297760,155.0686951,0.0646431,8.0875721,7.7140784,-7.9007635,-1.0610687,-7.8320613
530,17.6763000,-8.2910776,7.3788919,-199.9313049,134.9007568,173.4809113,0.0598547,8.2695303,7.8146343,-5.5725193,10.6259546,-6.1221375
540,19.6126022,-2.5162930,19.1223907,-153.7557220,73.9083939,106.7862625,-0.1556223,8.3365679,7.7045016,-1.1832061,27.0763359,-4.9694657
550,19.6126022,0.8068419,19.6126022,-40.5343513,49.2824440,-22.3587780,-0.2418131,8.4083929,7.6925306,4.9847326,53.4961815,-1.0992366
560,19.6126022,-0.3471575,19.6126022,78.5954208,85.5572510,-165.4198456,-0.6895266,8.5735922,7.7787213,13.3358774,81.8091583,4.5496182
570,19.6126022,-6.3182659,14.8703108,174.1221313,162.7709961,-250.1374054,-0.5339043,8.7603388,7.6829538,22.6030540,115.0839691,10.4503813
580,19.6126022,-14.6979294,3.0693510,220.0381622,227.9694672,-250.1374054,-1.1372399,8.7363977,7.9846220,32.6870232,139.6870270,17.3664131
590,14.6332855,-19.2205524,-6.0477223,213.0381622,250.1297760,-250.1374054,-2.2265961,8.6430235,8.8345594,41.4656487,137.8702240,24.9007626
600,8.0516596,-19.3522339,-12.1169930,173.4503784,250.1297760,-250.1374054,-2.2577207,8.5951405,9.5432396,46.9771004,111.7404556,29.9236641
610,5.4898763,-15.9165716,-13.7234936,118.2137375,224.7557220,-250.1374054,-2.7748656,7.8936424,10.8361015,44.6641235,24.6717548,26.9618320
620,6.6079631,-11.7865944,-10.3285332,76.5419846,173.9313049,-246.3282471,-0.3950413,7.7667508,9.3852224,39.9312973,-36.6488533,15.1068707
630,7.6685886,-7.7356262,-6.4619174,59.1908379,132.3206177,-232.5496216,0.4046180,8.1833391,7.5752153,41.4122124,-54.9465637,-0.2213740
640,7.3429790,-3.7445123,-4.5130472,56.0763359,110.1908417,-225.0915985,-0.3543400,8.3485384,7.7332320,46.0763359,-51.5343513,-7.9541984
650,7.0245519,-0.6344602,-4.0677280,48.6183205,110.4961853,-216.2366486,-0.5458752,8.5664101,7.7045016,48.7786255,-48.1221390,-8.7328243
660,6.6582408,1.2042773,-3.6798692,38.2061081,126.5038147,-206.4656525,-0.4165890,8.6023226,7.1969333,49.9541969,-47.3740463,-8.3587790
670,5.0900469,3.4428444,-3.9815371,26.8549614,142.8625946,-188.3053436,-0.4237715,8.4036045,7.1155310,49.2213745,-47.0076332,-8.4885492
680,3.5673423,6.4595232,-4.8817525,11.7175570,153.6335907,-163.5877838,-0.2753318,8.3509331,7.2089043,49.4427490,-47.3816795,-8.3129768
690,3.0885043,9.3684635,-4.7764082,-4.2137403,143.6564941,-138.4656525,-0.0861908,8.3437500,7.1131368,51.8167953,-43.9541969,-7.9083967
700,3.3015873,11.2886028,-4.8673873,-20.6030540,125.4274826,-116.6183243,-0.0861908,8.1617918,6.6845770,54.9312973,-34.0763359,-6.3206105
710,2.8969693,13.2063494,-4.2832050,-36.6564903,106.3206100,-95.5496216,-0.1173153,7.9606800,6.5983863,57.2213745,-25.5648861,-3.3053436
720,3.5673423,14.9301653,-3.3949606,-54.5572510,84.9083939,-76.6946564,0.2777260,7.9080076,6.6893654,59.8625946,-18.3282452,-2.1679389
730,5.7029591,15.3539371,-1.2904681,-66.9007645,68.9465637,-70.6335907,0.5075682,8.2048874,6.4523406,63.7175560,-8.9236641,-2.5877862
740,6.5959921,16.8814297,0.6871324,-67.5877838,67.3282471,-69.7328262,0.5315101,8.1402445,6.4834652,67.0687027,-5.0305343,-5.3053436
750,6.8952656,17.3291435,1.7381816,-61.3893127,57.4427490,-76.1374054,0.1915352,7.9439206,6.3086891,68.7862625,-4.8854961,-6.1221375
760,6.3350253,17.5901108,2.1116750,-54.8091621,51.4122124,-80.1679382,0.0981618,8.0205345,6.0572991,70.4427490,-5.1145039,-7.1603055
770,5.3270717,18.3418846,2.1691356,-53.6717567,49.4045792,-79.1984711,0.1867468,8.0779953,5.8992829,73.2290039,-2.3053436,-6.9236641
780,4.3789725,18.7632618,2.9640064,-53.9541969,45.3740463,-75.3816757,-0.0119709,8.0468712,5.5904322,76.4045792,-1.0381680,-7.3511453
790,4.1347651,18.7848110,4.4891052,-47.9465637,36.0076332,-70.3358765,0.0933734,7.9702568,5.4515696,78.6183243,-2.3969467,-7.7862597
800,4.6950054,18.2197819,6.4762826,-33.9083977,18.9770985,-66.1984711,0.0622489,7.9798336,4.8865409,79.3893127,-2.4885497,-8.6564884
810,5.5952206,17.2477417,8.2767134,-12.4274807,2.7480917,-65.6717529,-0.0407012,7.9032192,4.5226240,77.7404556,-2.1755726,-7.8931298
820,6.1051831,16.3068237,9.3732519,15.8320608,-7.1221375,-69.2748108,-0.0837966,7.9678626,4.0844874,74.7175598,-2.3969467,-6.4351144
830,6.5552907,15.0570574,9.8568783,49.9465637,-15.0687027,-76.9847336,-1.0749911,7.8625183,2.8275378,67.7022934,12.4351149,-0.8091603
840,6.2943239,13.6732159,9.2176294,84.0000000,-20.3053436,-85.5877838,-0.3280039,7.9295554,2.8442972,59.9618340,8.1908398,7.9312978
850,5.7269011,12.0284081,7.6015515,109.6335907,-22.4961834,-92.2748108,0.1987177,7.8577299,3.2273674,53.1297722,4.9007635,10.7786255
860,4.9990678,10.8097658,5.6766233,123.4656525,-20.2519093,-95.6870193,0.4046180,7.7404146,3.3422885,48.2595406,-3.3969467,7.9312978
870,4.3215117,9.7012558,3.9168940,126.0457993,-17.6412220,-96.4961853,0.6296718,7.9223728,3.2082138,45.7099228,-9.3740454,3.8091602
880,3.7397239,8.6933022,2.8012016,120.1984711,-15.2977095,-94.6793900,0.5698171,7.6302819,2.9089401,43.0534363,-10.6564884,1.0839695
890,3.3087699,7.7236552,2.5186872,113.1832047,-15.8396950,-92.5496216,0.5051740,7.5608501,2.5713594,39.6412201,-10.2748089,0.3664122
900,2.9879484,7.1897511,2.7365584,109.9465637,-21.8854961,-92.8320618,0.6009415,7.7116842,2.4540441,34.9465637,-10.0916033,-0.8702290
910,2.9113343,6.4978304,2.4229198,109.9312973,-28.2366409,-97.0687027,0.5961532,7.7715387,2.2768741,29.3358784,-11.2290077,-3.9618320
920,2.8754215,5.8466105,2.1236460,109.5038147,-31.3893127,-102.8091583,0.4070122,7.8601241,2.2194135,23.0763359,-12.9160309,-6.8854961
930,2.7772598,5.0780759,1.8626794,107.7099228,-33.3435097,-108.7862625,0.2418131,7.9870162,2.1858950,15.8015270,-14.0992365,-10.2824430
940,2.2984219,4.4962878,1.6687500,105.2290039,-34.8549614,-114.1374054,-0.0023942,8.0325060,2.3846128,8.3816795,-16.0000000,-13.3664122
950,2.2098370,3.6774750,1.3551112,102.3435135,-32.7251892,-121.7557220,-0.1963235,8.2192526,2.7485294,2.1450381,-20.0229015,-16.4580154
960,0.6081241,3.8953462,0.3519458,95.9770966,-22.8473282,-119.8320618,-0.4237715,8.4155760,2.9616125,-1.7404580,-21.8778629,-20.7328243
970,0.7972651,3.1866663,-0.0933734,84.9236679,-14.9618320,-115.4427490,-0.7350162,8.5664101,3.1770895,-4.1374044,-21.8396950,-23.4122143
980,0.3088504,2.6096666,-0.1029501,74.4351120,-3.1450381,-110.7175598,-1.1085097,8.7124557,3.5481887,-5.6946564,-21.2290077,-24.6259537
990,-0.5219333,2.4013720,-0.2825144,61.2519073,9.6106873,-96.5343475,-1.4796091,8.9614515,3.6343796,-6.3129773,-20.0610695,-24.5419846
1000,-0.9576758,2.3965836,-0.4070122,46.7404594,17.7251911,-76.7480927,-1.9728121,9.2439651,3.7804251,-5.9541984,-18.5267181,-22.1526718
1010,-0.9983770,2.6623387,-0.5889706,33.7099228,22.7862587,-60.1450386,-2.4301023,9.4953556,4.0006905,-4.8778625,-16.7175579,-18.0000000
1020,-0.9552816,2.8227494,-0.6536137,19.6412220,24.8396950,-44.4961815,-2.5833304,9.7850523,3.9240766,-3.1068702,-14.1526718,-11.5267172
1030,-0.4070122,3.0837159,-0.2609667,7.1603055,25.6106873,-30.1374054,-2.6671271,9.9670105,3.7804251,-2.1374047,-10.5648851,-4.3129773
1040,0.0502780,3.4548154,0.3016679,-0.4885496,22.3816795,-20.1297703,-2.6192431,10.0747490,3.6176202,-2.3587787,-7.5801525,2.1603053
1050,0.9313397,3.8690102,0.6823440,-2.5801528,19.8167934,-16.7938938,-2.2984219,10.0699606,3.4907281,-3.4961832,-6.3206105,6.9541984
1060,1.4149660,4.6183915,0.6033357,-2.1450381,20.0687027,-18.7404575,-1.9033806,10.3189564,3.5769191,-5.0763359,-6.0381680,9.0000000
1070,1.4245427,5.4132624,0.3567342,-2.4427481,24.4961834,-19.2671757,-1.6783268,10.2638903,3.8785870,-6.0763359,-2.7175572,9.7862597
1080,1.3335636,6.5074067,-0.0287303,-4.3053436,31.9312973,-18.5572510,-1.5227045,10.2902260,4.0174499,-6.7251906,-1.9236641,10.3816795
1090,1.4149660,7.3860745,-0.2777260,-7.4885497,41.0305328,-18.6335869,-1.3958124,10.1417866,4.2018023,-6.6717558,-0.3206107,10.6335878
1100,1.0702027,8.0325060,-0.6512195,-11.0610685,51.2748108,-20.8320618,-1.3598996,10.1968527,4.3502421,-5.6946564,0.0687023,11.3511448
1110,0.9864060,8.7794924,-1.1492109,-15.5954199,54.1526718,-24.9618320,-1.2569494,10.2231894,4.4364328,-3.8473282,0.6946565,12.4351149
1120,0.1508339,10.2567072,-1.6759326,-20.9312973,57.7709923,-26.9923668,-0.9193687,10.1920643,4.4555864,-1.0763359,1.9007634,12.8702288
1130,-0.7541697,13.0866394,-1.5250987,-28.5114498,58.7938919,-27.2442741,-0.7709290,10.0747490,4.5250182,2.2213740,4.8778625,12.8625956
1140,-1.9871773,15.3036594,1.0510491,-26.6641216,41.1526718,-25.6641216,-0.7374104,10.0651722,4.5322008,5.9923663,7.5190840,13.0381680
1150,-0.3016679,14.7338419,2.1499822,26.8549614,-11.1450386,-7.9770994,-0.6320660,9.9334917,4.0988522,11.3664122,9.7786255,15.3435116
1160,-0.3256098,13.9796724,1.1013272,54.0305328,-4.2290077,-1.5496184,-0.5051740,9.8233595,3.9384418,12.6106873,11.3206110,17.1068707
1170,0.2250538,13.5774488,-0.4022238,67.3893127,-2.2137403,5.6030536,-0.3232156,9.7826586,3.7062054,12.7251911,13.0839691,17.7862587
1180,1.4149660,13.6133614,-2.6024840,50.9312973,17.6793900,1.2290076,-0.2298422,9.7706871,3.5242469,10.2061071,13.8015270,20.5496178
1190,0.8451489,13.4960461,-2.2002602,33.8091621,31.4427490,-2.6183207,-0.1101327,9.7347746,3.4572096,7.6717558,13.5572519,22.4580154
1200,0.3591284,12.6652622,-0.8738791,22.4809170,43.5496178,-2.2977099,-0.0311245,9.6749191,3.2656744,4.4427481,12.5801525,23.1908398
1210,0.4405309,11.3795824,-0.1005560,19.4885502,53.9083977,0.4045801,0.2035061,9.6533718,3.3398943,0.6641222,10.4198475,24.4503822
1220,1.2952565,10.1393919,0.1939293,21.3053436,65.7709961,2.0992367,0.2968795,9.5647869,3.3662305,-3.8396947,8.4732828,25.6488552
1230,1.5681942,9.2224178,-0.1460456,25.2213745,84.9770966,0.8320611,0.5362985,9.3277617,3.4787574,-8.1984730,5.2595420,26.5419846
1240,0.2011119,8.0827837,-0.6153067,-3.3511450,75.5038147,-11.3129768,1.6519908,8.8177996,3.9599893,-19.1450386,-1.2900764,23.8625946
1250,-0.2298422,7.0077925,0.0742199,-3.1297710,40.8625946,-11.6793890,1.8052188,8.7363977,4.1060348,-20.7099228,-1.9389313,21.4045811
1260,0.4141948,6.0046272,0.2753318,10.1832066,-11.5419846,-3.8854961,2.0446377,8.7052727,4.3023586,-24.6335869,-6.3816795,16.3511448
1270,-0.7996593,5.0277977,-0.2825144,23.2290077,-45.7099228,-0.3282443,2.2289903,8.7435799,4.4220681,-26.3511448,-8.7404585,14.2366409
1280,-0.3830703,5.6933827,-0.9552816,35.4732819,-58.1603050,11.9007635,2.2696917,8.6310530,4.5537481,-27.4885502,-10.2442751,11.5343513
1290,0.3327923,5.0349803,-0.9097920,37.8015251,-64.7022934,19.9236641,2.3774302,8.5831690,4.7381010,-28.0687027,-12.1603050,8.1984730
1300,-0.4333483,6.6342988,-2.5234756,31.7786255,-47.3129768,26.7938938,2.4708035,8.5041609,4.8434453,-27.1603050,-15.0381680,4.3129773
1310,-1.4700323,7.3741035,-3.8283088,15.8473282,-32.0152664,36.3206100,2.5091105,8.5041609,5.0565281,-24.9541988,-16.6412220,0.4122137
1320,-2.5138988,8.6334467,-5.1307478,-11.4198475,-30.5801525,49.2977104,2.5665710,8.5424681,4.9272418,-22.7557259,-16.4656487,-3.3816793
1330,-3.6032550,9.3732519,-5.5090299,-40.6183205,-37.9389305,61.8854980,2.6455793,8.6430235,4.7357068,-21.8244267,-14.9923668,-8.2366409
1340,-3.9911139,9.6797075,-3.8043671,-58.0381660,-50.5877876,76.5648880,2.4755919,8.6956959,4.6662750,-22.1526718,-12.2977095,-13.1984730
1350,-2.7772598,9.7970228,-1.1013272,-56.3740463,-60.6412201,87.6412201,1.8746504,8.6023226,4.9032998,-21.9465656,-8.2061071,-16.7251911
1360,-2.2074428,10.7499104,0.3543400,-37.8167953,-57.5419846,94.2900772,1.2234308,8.5161324,5.2265158,-19.5572510,-2.6259542,-20.1832066
1370,-2.5617826,11.5375986,0.3399749,-14.8625956,-52.5038185,106.8625946,0.5171449,8.3844519,5.6526814,-14.5114508,3.5801528,-22.1908398
1380,-2.6647329,12.6508970,-0.4716553,1.6717557,-61.3206100,129.1984711,-0.1436514,8.1186962,5.8801293,-6.4656487,9.8320608,-23.5725193
1390,-2.8371146,13.5942078,-1.4341195,5.5572519,-70.9542007,156.0229034,-0.6871324,7.9989872,5.6622581,2.8091602,14.8549614,-25.2977104
1400,-0.8690908,14.2669754,-0.5985473,5.1603055,-71.1068726,175.3129730,-1.2665262,7.8385763,5.1882086,11.0305347,18.8015270,-27.4732819
1410,0.9026094,14.9445305,0.9480990,17.7862587,-68.8473282,179.8778687,-1.8052188,7.5584559,4.6854286,16.8396950,22.3206100,-28.8778629
1420,1.4125718,15.3252068,1.6998745,53.8702278,-93.4809189,174.5725250,-2.3247581,7.4435349,4.2425036,19.4580154,25.2748089,-30.9160309
1430,1.3479286,15.3443604,0.8068419,93.3053436,-118.1526718,170.2824402,-3.2106080,7.5632443,4.0222383,20.1603050,26.0000000,-31.6106873
1440,0.3232156,14.8703108,-0.6631905,126.2748108,-136.8702240,171.5496216,-4.0102673,7.7380204,3.6846576,17.9923668,19.9465656,-27.8702297
1450,-1.4053892,14.4417505,-2.6431851,152.8473358,-150.9084015,174.2977142,-4.5274124,7.8960366,3.0478032,10.4274807,4.9541984,-18.7709923
1460,-2.7365584,13.9174232,-5.0182209,163.8625946,-155.9160309,182.8015289,-4.0916696,7.9247670,2.3822186,-3.0610688,-13.9770994,-6.2977099
1470,-3.3734128,13.1153698,-5.8418221,165.0686951,-150.4656525,193.2366486,-2.9161227,8.0540533,1.9823889,-18.6793900,-30.7175579,5.2824426
1480,-3.4763632,11.9948893,-5.6981707,164.1679382,-135.7175598,204.5038147,-1.2880739,7.6230993,2.5617826,-29.5725193,-42.6564903,12.9770994
1490,-3.5936785,10.5583754,-6.1051831,163.3740387,-118.6641235,221.4198456,0.1604107,7.7667508,2.4396791,-39.2900772,-40.8931313,15.7328243
1500,-3.2848279,9.3947992,-6.2799587,159.8396912,-100.3282471,242.4961853,1.4604555,7.6805596,2.3558824,-48.4732819,-37.6335869,8.2671757
1510,-2.2840567,8.7435799,-6.5816269,154.6717529,-83.6412201,250.1297760,2.0470319,7.3812861,3.0454090,-54.5496178,-32.1374054,-1.2748091
1520,-1.5658000,7.6733770,-7.4650826,145.5725250,-73.0381699,250.1297760,2.2002602,7.5919747,3.8761928,-53.9923668,-24.9618320,-7.9923663
1530,-1.3168042,7.2974896,-8.0325060,129.2061005,-53.5419846,250.1297760,2.2768741,8.0253229,4.4268565,-48.5954208,-15.2748089,-12.1679392
1540,-0.7158626,6.7659793,-8.8465300,104.7938919,-27.6106873,250.1297760,2.2553265,8.2336178,4.8554163,-40.9923668,-6.3664122,-16.2671757
1550,0.3351865,5.4324160,-9.5121145,72.8625946,-12.6564884,250.1297760,2.0853391,8.4658537,4.6016321,-35.6488533,0.9083970,-21.4503822
1560,1.8531027,3.5242469,-9.0380650,40.8931313,-13.4885492,250.1297760,1.7740943,8.5640154,4.9894910,-31.1832066,7.6564884,-26.4427490
1570,3.2824337,0.8834559,-8.2072811,12.1297712,-20.7557259,250.1297760,1.3910241,8.7316093,5.4252334,-27.4732819,12.5190840,-33.1068687
1580,4.4651632,-3.0813217,-7.4435349,-16.2595425,-25.9923668,250.1297760,1.1348459,9.3110027,5.9016771,-22.7938938,17.5038166,-38.4045792
1590,5.1618724,-7.2184811,-6.8162575,-44.7938919,-30.3664131,250.1297760,0.4932030,9.7587166,6.0549049,-19.3664131,19.6946564,-38.8625946
1600,6.8473821,-12.0308018,-5.2624283,-71.6793900,-34.1068687,237.3358765,-0.4596844,10.2591019,6.0740585,-17.8625946,19.2137413,-34.1755714
1610,11.1904411,-17.0514164,-0.1436514,-82.6564865,-25.6564884,216.9236603,-0.1077385,10.2040358,6.0644817,-16.6412220,20.4427490,-28.1984730
1620,15.1552191,-19.6131992,-0.5171449,-79.1450348,-42.5648842,182.4351196,-0.3327923,10.5511932,6.0333576,-16.6030540,14.3740454,-24.9083977
1630,18.1264076,-19.6131992,1.3144100,-68.7709961,-37.7786255,142.5725250,-0.5386927,10.8791971,6.1865854,-18.0992374,10.3893127,-20.0229015
1640,18.3323078,-19.6131992,1.7980363,-53.4045792,-30.4122143,118.8244247,-0.5698171,10.8983507,6.4906478,-18.7022896,7.8625956,-13.9618320
1650,15.7681322,-19.6131992,0.4405309,-40.5954208,-7.3129773,136.3282471,-0.3902529,11.0898857,6.9551206,-18.6412220,5.4809160,-8.2824430
1660,14.2909164,-11.8416615,-0.3256098,-49.0916023,12.2595415,192.2595367,-0.0598547,11.2886028,7.1203194,-17.6641216,3.2366412,-4.4045801
1670,17.6260223,-2.3415172,2.7533178,-69.8702316,8.9236641,233.4885559,0.0694315,11.2431135,7.3764977,-16.0992374,1.0916030,-0.5190840
1680,19.6126022,4.4723458,9.5288744,-65.5954208,-15.4122133,209.8931274,0.3663110,11.0252428,7.5345144,-13.6183205,0.7786260,2.3511450
1690,19.6126022,8.1737623,14.0730457,-17.8549614,-49.9618340,122.5877838,0.4309541,10.8576488,7.8553357,-9.5648851,1.6106870,4.1297708
1700,19.6126022,6.0094156,9.9358864,125.2748108,-13.1450386,-120.4274826,0.2896969,10.5966825,8.3198080,4.2595420,3.2442749,4.4732823
1710,19.6126022,-0.2202654,1.5227045,158.0229034,54.6259537,-231.0763397,0.2011119,10.6206245,8.3102312,12.4198475,1.0229008,4.3893127
1720,19.6126022,-6.5241661,-7.0772243,140.2900696,125.9618301,-250.1374054,0.1699875,10.6900558,8.2958660,19.7862587,-1.7786260,4.1526718
1730,17.8486824,-11.8584204,-12.8544035,78.4122162,176.6259613,-250.1374054,0.1508339,10.8145542,8.0468712,25.8244267,-4.2671757,4.7938933
1740,12.8208847,-15.1145182,-14.1376886,8.7022905,189.6030579,-250.1374054,0.0023942,10.8145542,7.9870162,31.3206100,-6.6717558,4.9694657
1750,9.4450769,-15.0738173,-11.3101511,-37.1374054,153.0305328,-250.1374054,-0.1149211,10.8887739,7.8433647,36.6870232,-7.8778625,5.2519083
1760,9.1673517,-12.6197729,-5.9184365,-48.6335869,80.0152664,-250.1374054,-0.4189832,11.0060892,7.7643566,43.2748108,-7.1450381,5.9541984
1770,10.6661139,-11.2862091,-1.9321109,-30.9541988,6.4351144,-250.1374054,-0.9097920,11.0755205,7.7954807,49.8778610,-7.2595420,8.0381680
1780,12.3923244,-10.8863792,-0.1101327,-3.9541984,-31.9236641,-250.1374054,-1.2641320,10.9821472,7.6183109,56.4732819,-6.5877862,12.2519083
1790,13.3835192,-9.4857788,-0.0742199,19.8854961,-18.5038166,-250.1374054,-1.8195840,10.8911676,7.4004397,63.3206100,-6.0076337,17.8167934
1800,11.8033543,-7.7739329,-1.7453641,34.0839691,31.6717548,-250.1374054,-1.9991482,10.5751352,6.8952656,67.8702316,-8.4045801,22.9618320
1810,8.9183559,-6.4092450,-4.5752959,34.2290077,79.7251892,-250.1374054,-1.9823889,10.4961262,6.5935979,70.9694672,-9.6412210,28.6106873
1820,6.9766679,-4.6519103,-6.8282285,17.7786255,123.4427490,-250.1374054,-1.9752063,10.1393919,6.0812411,73.0687027,-7.1832061,33.5954208
1830,6.6079631,-2.8371146,-6.7851329,9.4580154,156.5190887,-250.1374054,-2.0877333,9.8951855,5.8490047,74.4045792,-3.2977099,38.7862587
1840,3.6104376,-0.5985473,-8.6597834,0.7480916,159.6335907,-250.1374054,-2.1284344,9.5959110,5.5521255,75.4198456,0.2748092,44.4809151
1850,-0.4070122,1.3527170,-11.2072010,-17.7862587,165.5648804,-250.1374054,-2.0685797,9.1386213,5.3414369,76.0305328,0.9083970,50.0000000
1860,-3.4883339,5.2624283,-11.9805241,-50.1603050,146.3740387,-204.0686951,-1.8028246,8.5951405,4.9631548,76.0152664,-2.5114503,54.2977104
1870,-2.8442972,8.2024927,-10.9893293,-83.1297684,104.6106873,-155.6183167,-1.3718705,8.2360115,4.4962878,75.6259537,-5.3358779,56.5038185
1880,-0.7134684,9.3947992,-8.9710283,-100.3053436,60.2595406,-137.1679382,-1.1635761,8.0301113,4.1491303,76.1603088,-3.4351146,60.1450386
1890,1.4556671,10.3907824,-6.8952656,-105.3129807,28.4198475,-138.7709961,-0.6536137,7.1753860,3.7852135,74.7251892,-6.4809160,62.0992355
1900,3.1315999,11.6501255,-4.9655490,-103.0229034,23.7404575,-145.8015289,0.2657550,6.8880830,3.2728570,69.7328262,-12.5801525,59.6335869
1910,3.2010312,12.6006193,-3.9863255,-95.7022934,43.8778610,-155.3969421,0.7589580,6.6390872,2.6695213,64.1145020,-15.2213745,56.0534363
1920,1.3479286,13.7378588,-4.0892754,-88.1679382,67.0992355,-164.7328186,0.9337339,6.3733325,2.4181314,59.4961815,-15.6412210,52.5572510
1930,-0.9528874,14.5303354,-4.1395535,-82.1908417,74.4427490,-165.5572510,1.2114599,6.0860295,2.4157372,55.4885483,-17.3053436,49.4503822
1940,-2.6934631,14.8679161,-4.0796990,-76.6259537,57.5801544,-156.3129730,1.6879035,5.8035154,2.1691356,51.7709923,-17.6030540,45.5877876
1950,-2.9280937,15.2845058,-3.2489152,-69.9694672,29.4809170,-137.7022858,2.0829449,5.6502872,1.9129574,48.1221390,-16.9541988,40.8015251
1960,-1.3910241,16.2421818,-1.8147956,-55.9389305,2.5954199,-123.5038147,2.3103929,5.4826937,1.6519908,44.4580154,-14.8778629,33.8549614
1970,-0.0047884,16.4624462,-1.0318956,-36.1068687,-13.6183205,-121.1908417,2.5210814,5.3318601,1.4724265,40.3740463,-11.8625956,26.2290077
1980,0.0311245,16.8646698,-0.6847382,-18.2290077,-16.4580154,-122.3282471,2.5402350,5.2672167,1.3598996,36.5877876,-8.8320608,17.0610695
1990,0.1915352,16.6108856,-0.5171449,-0.7938932,-7.2213740,-126.8854980,2.3079987,5.3414369,1.0678085,31.6412220,-6.2366414,9.3664122
2000,-0.4644727,15.8160152,-0.8547257,13.5648851,5.8396945,-130.7175598,2.2457497,5.5114241,0.9576758,25.1526718,-5.9770994,2.7404580
2010,-1.4197544,15.2773228,-0.7829000,26.5419846,15.1984730,-126.6946564,2.1332228,5.7915444,0.7302278,17.1984730,-6.6717558,-3.1603053
2020,-1.9129574,14.2621870,-0.8571198,41.1755714,19.0458012,-116.1297684,1.8459201,6.1794028,0.8786675,8.7328243,-7.5801525,-8.0458012
2030,-2.0901275,13.5535069,-1.1899122,54.1068687,16.1068707,-100.1450348,1.5227045,6.6031747,1.1180865,0.0610687,-10.9312973,-13.4503813
2040,-1.9201399,12.7777891,-1.5059452,64.6946564,10.1526718,-82.2442780,1.1947005,7.0963774,1.3311694,-7.0076337,-15.5725193,-16.0839691
2050,-1.2976507,11.9134865,-1.3000449,74.1679382,0.3053435,-68.4122162,1.3551112,7.6015515,1.6017127,-12.2900763,-20.0534344,-18.6335869
2060,-0.4764437,10.9055328,-0.8140244,87.2748108,-9.3893127,-62.7709923,1.5466464,8.3174143,1.8626794,-15.7938929,-22.6793900,-20.6870232
2070,-0.0359128,9.8592720,-0.7685348,103.5343475,-18.0152664,-64.6870193,1.7405758,8.9949694,2.1212518,-17.1297703,-23.6259537,-24.0000000
2080,0.0239419,8.8944139,-1.3215926,119.3358765,-25.8473282,-68.8854980,1.8914096,9.6701307,2.4157372,-16.5267181,-22.4503822,-27.7480907
2090,-0.1197095,8.0732069,-2.0973101,128.6641235,-33.1984749,-73.2671738,1.8985922,10.2399483,2.5929072,-14.7175570,-20.2748089,-31.8625946
2100,-0.3734936,7.4100165,-2.8562679,131.7862549,-39.8091621,-75.9618301,1.7381816,10.7451220,2.8562679,-12.3129768,-17.5954189,-36.1603050
2110,-1.0414724,6.9455438,-3.6942344,129.0534363,-46.4809151,-75.0457993,1.5179161,11.2909975,2.9137285,-8.9465647,-15.0992365,-38.5725174
2120,-1.7932479,6.4547348,-4.7859845,117.3053436,-54.9694672,-68.2671738,1.2138541,11.5830889,3.1124463,-4.4885497,-12.5877867,-38.5725174
2130,-1.8147956,6.1961622,-5.1546898,98.7938919,-61.1755714,-58.7022896,1.0007712,11.9158812,3.1986370,0.8931298,-10.1908398,-39.0381660
2140,-1.3814473,5.9974446,-4.8290801,79.8854980,-64.8778610,-52.5343513,0.6727672,12.1505117,3.1866663,6.3511453,-8.1526718,-38.4885483
2150,-0.9289455,5.9064655,-4.2257442,62.6488533,-66.2061081,-49.1679382,0.3088504,12.2654324,3.2297616,11.5343513,-6.1908398,-36.1832047
2160,-0.9026094,5.7747850,-3.1579359,48.5572510,-69.6641235,-48.2061081,-0.1819584,12.1648769,3.1100521,15.8396950,-4.6335878,-32.9160309
2170,-1.1659702,5.4324160,-1.9129574,42.0228996,-74.3816757,-47.5725174,-0.5865764,12.0523500,2.8586621,18.9541988,-2.8320611,-28.3664131
2180,-1.2593436,5.2767935,-1.3287752,41.2366409,-75.3969498,-43.7709923,-1.0318956,11.6381550,2.5378408,20.5190830,-0.9618320,-21.7862587
2190,-1.3215926,5.0541339,-0.9935886,40.2748108,-72.8320618,-39.3129768,-1.3431402,11.2670555,2.5115047,20.1908398,1.2748091,-13.4427481
2200,-1.4101776,4.9009056,-0.7709290,38.5648842,-66.8778610,-35.4198456,-1.4820032,10.7211800,2.4181314,18.4503822,4.4045801,-5.4427481
2210,-1.7717001,4.9511838,-0.4620786,36.7633591,-58.2595406,-32.0610695,-1.5035510,10.0867205,2.4133430,15.8320608,6.8549619,1.9312977
2220,-2.0518203,4.8721757,-0.6081241,34.0000000,-47.3129768,-27.0000000,-1.3742647,9.4594421,2.6240315,13.9465647,8.2213745,7.3893127
2230,-2.1068866,4.9272418,-0.8499373,28.3282452,-34.8854980,-21.0000000,-1.1970947,8.7890692,2.7964132,12.5190840,8.0229006,10.7633591
2240,-1.8578910,5.2073622,-1.0989330,20.5877857,-21.6946564,-16.4503822,-1.0917504,8.2647419,2.8921809,11.5954199,5.2213740,12.1832066
2250,-1.8267666,5.2241216,-1.2018831,13.4580154,-9.1221371,-15.8473282,-0.5626345,8.0348997,2.9280937,11.4198475,1.1068702,12.5725193
2260,-2.5426292,5.2049680,-1.6615674,7.8854961,0.9007633,-14.6259546,-0.1029501,7.8505473,2.7988074,11.5038166,-1.2366412,10.0839691
2270,-2.6743097,5.6143742,-2.3558824,0.4045801,12.9160309,-9.2748089,0.3447633,7.8649125,2.4684093,10.2824430,-1.5648855,7.0458016
2280,-2.3558824,6.0142040,-2.9664006,-7.1450381,26.3358784,-4.9236641,0.4525018,7.9391322,2.0973101,7.1984735,-1.4427481,2.6030533
2290,-2.4109488,6.3661499,-3.6631098,-12.1450386,35.6564903,-3.9923663,0.3758878,8.0995426,2.0254843,2.2213740,-1.6259542,-0.3893130
2300,-3.1675127,6.8378053,-4.6159973,-17.6335869,40.9236641,-1.9160305,0.2202654,8.2551651,1.8171898,-4.3282442,-2.8625953,-1.8625954
2310,-4.5705075,7.3453732,-5.8226686,-24.8244267,34.9541969,5.3587785,0.0047884,8.3365679,1.7884595,-11.8167934,-4.0687022,-1.3740458
2320,-4.9942794,7.9702568,-6.1410961,-32.3282433,21.3206100,19.4656487,0.0550664,8.3317795,1.8171898,-19.5038166,-5.4961834,0.7175573
2330,-4.2808108,8.4850073,-5.7340837,-35.3740463,2.2519083,33.2137413,0.2298422,8.4251528,2.0422437,-26.6641216,-6.0000000,1.0992366
2340,-3.0430148,8.8417416,-5.0948353,-31.2977104,-15.5648851,40.0916023,0.2849085,8.5352850,2.2481439,-32.4961815,-6.1908398,1.0916030
2350,-1.8866212,9.1338329,-4.5657191,-21.8473282,-27.6946564,41.2290077,0.3375807,8.6741486,2.6288199,-36.3053436,-5.8702292,-0.4885496
2360,-1.1180865,9.6581602,-4.0318151,-7.1374044,-38.2748108,38.7022896,0.3375807,8.9590569,2.9065459,-38.0916023,-4.2977099,-1.7404580
2370,-0.5985473,10.0675669,-3.7540891,9.9389315,-48.1679382,31.2671757,0.0861908,9.1697454,2.8754215,-39.5648842,-1.6412214,-1.7480916
2380,-0.7948709,10.1298151,-4.3478479,23.3358784,-53.7786255,22.4351139,0.0143651,9.3062143,2.9256995,-40.6412201,0.4427481,0.4656489
2390,-1.5131277,10.0747490,-5.6024032,24.4122143,-52.2977104,21.1221371,0.0574605,9.4833841,3.1292057,-41.4580154,3.2061069,2.9618320
2400,-1.9105632,10.0795374,-6.0285692,14.4198475,-45.9236641,27.3435116,0.2370248,9.5983057,3.1555417,-42.6106873,6.0152674,6.7251906
2410,-1.7956421,9.4498653,-4.1515245,0.3816794,-31.7251911,38.9160309,0.8714849,9.7156210,3.5003049,-44.5343513,7.0152674,10.3969469
2420,-1.8243724,8.9853926,-2.6407909,17.8854961,-23.5725193,52.3206100,1.6615674,9.9047613,3.9168940,-42.1832047,7.8244276,7.1221375
2430,-1.5969244,8.8082228,-2.3199697,32.5343513,-24.3664131,58.5267181,1.8171898,10.1274214,4.2041965,-38.9312973,7.4274807,4.3129773
2440,-1.5562232,8.7770987,-2.7150109,49.6870232,-27.8091602,62.5954208,1.8890154,10.3021975,4.2903876,-34.8931313,7.1450381,1.9465649
2450,-1.8363433,8.6023226,-4.1850433,62.1526718,-35.1526718,65.7251892,1.9440818,10.5559816,4.4268565,-30.9312973,6.2748094,0.9007633
2460,-3.0693510,8.2815018,-6.7492199,63.5725174,-52.9771004,73.5877838,2.2002602,10.6996326,4.4484038,-26.8931293,4.2213740,-0.2519084
2470,-4.1611013,8.4802189,-9.0596132,51.2519073,-82.6259537,89.3129807,2.2960277,10.7762470,4.4795284,-22.9541988,2.1603053,-3.1984732
2480,-3.8929520,9.0189114,-10.3141680,31.6564884,-116.4809189,106.0152664,2.4731977,10.7068148,4.4053087,-19.5419846,1.1603054,-6.2061067
2490,-2.8730273,9.1218615,-10.2399483,12.1908398,-133.0076294,115.4885483,2.3894010,10.6373835,4.5058646,-15.1145039,1.0381680,-9.9694653
2500,-2.3917952,9.1865053,-9.5216913,-4.4198475,-131.7251892,120.1297684,2.2050486,10.5895004,4.3813667,-9.7022905,2.0229008,-13.4274807
2510,-2.9089401,9.3947992,-8.5352850,-13.5801525,-120.0839691,123.6106873,1.9153515,10.4626083,4.6566987,-2.6641221,4.3129773,-16.1832066
2520,-3.9480183,9.1338329,-7.9774394,-17.9465656,-104.9694672,130.2671814,1.5658000,10.5631638,4.4938936,4.9618320,6.3358779,-18.9923668
2530,-4.7572546,8.7363977,-7.7212610,-20.4503822,-89.5267181,140.1221313,1.2090657,10.6517487,4.4172797,11.6641226,7.6717558,-19.5419846
2540,-6.3326311,8.3174143,-7.5393028,-17.2824421,-80.9618301,155.9541931,0.9289455,10.7666702,4.0485744,16.3816795,7.8778625,-17.3206100
2550,-7.4866304,7.8720951,-7.1179252,-7.0687022,-79.4503784,179.3435059,0.7062859,10.8744087,3.8211265,18.6717548,7.1297708,-13.3587790
2560,-7.8649125,7.6111283,-6.6702118,9.6183205,-84.2290039,205.1526642,0.6536137,10.8672256,3.5266411,18.6106873,5.8167939,-8.7328243
2570,-7.8673067,7.2184811,-6.1339135,33.9847336,-93.2595444,230.0839691,0.8666966,10.7690639,3.2944047,16.2748089,3.7633588,-2.6717558
2580,-7.6111283,6.7109132,-6.5959921,59.7633591,-95.7175598,250.1297760,1.2234308,10.6278067,3.3135581,12.2595415,1.1526718,2.1297710
2590,-6.8976598,6.0165982,-7.1251078,75.7175598,-86.1755753,250.1297760,1.5873476,10.3907824,3.2920105,7.3664122,-1.2977099,5.4885497
2600,-5.5377603,5.6119800,-7.7954807,80.8473282,-69.1068726,250.1297760,1.9273225,10.1800938,3.2967989,2.3358779,-3.6946564,8.0610685
2610,-4.5681133,5.9184365,-8.2743187,77.5038147,-46.3511467,250.1297760,2.2074428,10.0196829,3.5912843,-1.9465649,-8.2442751,10.1755724
2620,-3.3327117,6.8641410,-8.6190825,68.4885483,-23.4351139,250.1297760,2.4612267,9.8568783,3.8426740,-5.0152674,-13.6106873,11.3511448
2630,-2.2792683,8.0085640,-8.7411861,56.1526718,-5.8167939,250.1297760,2.7221935,9.6270361,3.9671719,-6.9770994,-18.1984730,11.6793890
2640,-1.4796091,8.9542685,-9.3947992,39.8549614,-1.2595420,250.1297760,2.8610563,9.5216913,3.8450682,-9.0458012,-22.0458012,9.5801525
2650,-0.7350162,9.2846670,-9.8520899,19.3129768,-3.2900763,250.1297760,2.8658447,9.3828287,3.7804251,-11.3740454,-26.3282452,6.6259542
2660,0.2920911,9.3493099,-9.9813757,-3.6106870,-3.9465649,250.1297760,2.6360025,9.2104464,3.9552009,-14.3587790,-29.6793900,2.2061069
2670,1.2784972,8.7316093,-9.3924055,-23.7022896,2.9083970,250.1297760,2.3750360,8.9877872,4.1204000,-15.9618320,-31.8931293,-0.8778626
2680,1.7381816,8.0564480,-8.6573887,-38.4503822,19.0152664,250.1297760,1.6974803,8.7340031,4.4579806,-15.4885492,-32.2442741,-2.8320611
2690,2.2122312,7.4195933,-7.8768835,-44.7328262,31.6564884,250.1297760,1.6328372,8.8632889,4.7021880,-12.3358774,-29.9236641,-6.8778625
2700,2.2098370,6.9072366,-7.5536675,-44.0687027,34.6793900,250.1297760,0.8738791,8.5640154,4.5465660,-9.2824430,-28.6335869,-10.5572519
2710,2.2457497,6.1171541,-8.0756006,-40.5190849,15.9847326,250.1297760,0.1771700,8.5161324,4.7883787,-4.6259542,-25.9312973,-11.3664122
2720,2.4995339,5.0996237,-8.6765423,-40.6564903,-26.9465656,245.6717529,-0.2466015,8.5568333,4.6590929,2.1297710,-19.7557259,-12.0687027
2730,3.3422885,2.9999194,-8.6861191,-52.9923668,-75.0000000,225.9084015,-0.6248835,8.3269911,4.1850433,8.0229006,-13.3206110,-13.2290077
2740,3.8498566,-0.1173153,-7.8289995,-81.5419846,-111.0916061,201.0915985,-1.0702027,8.1689749,3.7612717,12.3969469,-8.4274807,-13.9160309
2750,5.0852585,-4.8434453,-5.3917146,-115.8931274,-140.8549652,180.0610657,-1.4820032,8.0899658,3.3997490,16.0229015,-2.0305343,-13.0534353
2760,8.3557215,-10.9055328,-1.3383518,-144.4503784,-163.6870270,162.0763397,-1.7788827,8.0732069,2.9664006,18.1221371,5.0076337,-11.3969469
2770,12.3971128,-17.1878853,3.0310438,-157.3358765,-158.5877838,146.5954132,-2.1835008,8.0468712,2.4468615,16.5267181,10.8625956,-8.9847326
2780,18.2532997,-19.6131992,7.0389171,-142.0229034,-83.3816757,125.6106873,-2.4708035,8.1330614,2.1404054,11.5343513,12.7709923,-5.6183205
2790,19.6126022,-19.6131992,6.8856888,-100.9770966,27.9694653,104.9465637,-2.7916248,7.8170285,2.3079987,4.5496182,10.0992365,-1.3664122
2800,19.6126022,-19.6131992,2.6240315,-66.7480927,137.8320618,122.9236679,-2.6575503,8.0827837,2.4301023,1.0000000,6.8625956,4.9083967
2810,14.6452570,-19.6131992,-0.9983770,-64.2977066,229.2290039,197.9694672,-2.0159075,8.1737623,1.8195840,-9.7633591,1.1526718,10.3740454
2820,12.7514534,-9.5815458,-0.8810617,-91.1145020,235.5419922,250.1297760,-0.9217629,7.9822278,1.9057748,-19.4809170,-8.8396950,10.1984730
2830,18.3586445,1.0893562,4.2640514,-111.2748108,151.6946564,250.1297760,-0.1723816,8.0636301,2.1643472,-27.3969460,-14.5877867,7.3282442
2840,19.6126022,7.3310080,11.6405487,-73.9465637,32.7328262,250.1297760,0.4165890,8.1019373,2.4420733,-30.8625946,-17.0229015,3.4045801
2850,19.6126022,13.2518387,16.8359394,24.1755733,-69.7709961,238.0763397,0.8355721,7.8385763,2.6144550,-31.1450386,-14.8931293,-0.1145038
2860,19.6126022,14.1783895,14.9301653,133.5801544,-115.5648880,55.8702278,1.2090657,8.0396881,2.9352763,-29.7786255,-9.4732828,-4.1755724
2870,19.6126022,11.1952295,8.1785507,193.6793823,-107.1374054,-132.6870270,1.4197544,8.1546097,2.9759774,-25.3664131,-2.4656489,-8.7022905
2880,19.6126022,5.5784616,0.7014975,192.2900696,-60.8167953,-250.1374054,1.5322813,8.5831690,3.0071020,-19.8854961,5.5038166,-14.0687027
2890,19.6126022,-1.2928623,-5.0780759,144.9694672,-16.6641216,-250.1374054,1.3048333,8.8177996,2.9664006,-13.7480917,13.2061071,-16.5877857
2900,15.2605639,-7.8744893,-8.3652983,74.7862625,18.3816795,-250.1374054,1.1300575,9.2774839,2.7389526,-9.8702288,19.0000000,-17.2366409
2910,11.8991213,-11.6046362,-8.7244263,6.4198475,42.0381660,-250.1374054,1.1803354,9.5599985,2.5091105,-9.3358774,23.6259537,-17.5572510
2920,10.2758608,-11.6980095,-5.8705525,-38.2442741,51.6870232,-250.1374054,1.1563935,9.9047613,2.1427996,-13.4732828,27.1526718,-18.8778629
2930,10.7379398,-9.4450769,-1.8411317,-50.6870232,47.1832047,-250.1374054,0.8619082,9.9909525,2.1427996,-20.2595425,26.9694653,-20.0610695
2940,11.5543585,-7.1634150,1.7214222,-35.5877876,38.7709923,-250.1374054,0.5841822,10.0819321,2.7940190,-24.2519093,26.4580154,-21.4427490
2950,12.6413202,-6.1147599,3.8354914,-5.8091602,36.6641235,-250.1374054,0.3232156,10.2303715,3.1315999,-27.7251911,26.6106873,-17.9236641
2960,12.5814657,-6.1554613,3.9384418,25.5496178,49.4656487,-250.1374054,0.1699875,10.2327662,3.2944047,-31.6412220,25.5190830,-14.4885492
2970,11.1449518,-6.1195483,1.7046629,50.1755714,79.2442780,-250.1374054,-0.0359128,10.0196829,3.7445123,-34.9541969,22.8320618,-11.0000000
2980,9.1960821,-6.1746144,-0.4932030,77.1679382,149.4885559,-250.1374054,0.0646431,9.8832140,4.4005203,-36.4885483,19.9541988,-5.6488547
2990,5.2935529,-3.9719603,-2.1499822,97.9618301,166.0686951,-250.1374054,0.4357425,9.7587166,4.5968437,-36.4351158,17.7709923,-1.1908396
3000,2.7006457,-0.6631905,-3.8139439,106.9847336,163.9160309,-250.1374054,0.9073978,9.7060442,4.9487896,-35.5877876,17.4274807,1.1374046
3010,1.6735384,3.0861101,-4.5561423,109.6488571,137.8931274,-246.4351196,1.2761030,9.5001440,5.2265158,-33.4809151,17.3740463,2.4198472
3020,3.9599893,5.1283536,-5.1714492,110.6030502,109.8778610,-212.0305328,1.5370697,9.4091644,5.4491754,-30.8244267,16.6641216,3.4656489
3030,6.4451580,4.5561423,-7.0389171,110.4045792,98.9618301,-205.5267181,1.8219782,9.4666252,5.7364779,-27.8320618,15.2977095,2.8854961
3040,6.0165982,4.8075323,-9.1745338,102.3969498,111.9465637,-216.0686951,1.9105632,9.5145092,6.0261750,-24.8244267,13.3053436,0.6183206
3050,2.9999194,6.4140334,-11.5328102,76.8473282,122.6717529,-220.4045868,1.8722562,9.5288744,6.2248926,-21.8320618,10.6793890,-1.0229008
3060,-1.3191984,8.5185261,-14.0730457,33.0610695,120.3969498,-204.5877838,1.8602852,9.5767574,6.2416520,-19.5038166,8.8702288,-1.3129771
3070,-2.8634505,9.7706871,-14.1903610,-19.9083977,95.9542007,-179.8396912,1.8890154,9.6485834,6.4810710,-18.0458012,4.2213740,-1.9083970
3080,-1.2425843,9.2272062,-11.4801388,-60.1679382,63.5648842,-166.1603088,1.7166338,9.7228031,6.5935979,-17.5648861,0.9312977,-1.6106870
3090,-0.2082945,9.1745338,-8.7220325,-78.5801544,48.5572510,-164.3816833,1.6304430,9.8975792,6.8066807,-16.7251911,-3.1450381,-1.5190840
3100,0.5339043,8.9207497,-6.4954362,-79.3282471,55.7633591,-160.1221313,1.5011568,9.9023676,7.1155310,-15.9236641,-7.3969464,0.3206107
3110,0.5171449,10.0651722,-5.3701668,-66.6335907,85.3511429,-154.4274750,1.4676381,9.9167328,7.2567883,-14.7175570,-13.1908398,2.3053436
3120,1.2904681,11.3556404,-4.4723458,-43.5190849,106.1603088,-157.0763397,1.4796091,9.9047613,7.5153608,-13.0534353,-18.6412220,1.8854961
3130,-0.1747758,12.1888189,-4.8625989,-11.5190840,110.6412201,-168.4503784,1.3239868,9.9837704,7.7164726,-9.7709923,-23.6106873,1.3435115
3140,-2.5593886,11.9134865,-6.4810710,16.3664131,95.3740463,-165.9770966,1.0917504,10.0125008,8.0540533,-4.3358779,-27.8931293,0.9465649
3150,-3.3758070,11.1425581,-8.3198080,25.5114498,73.1984711,-149.5572510,0.8283895,10.0244713,8.2862902,2.7862597,-31.4961834,-0.9083970
3160,-3.1028695,11.2359314,-8.2815018,23.5267181,51.3740463,-126.4503784,0.5386927,10.0364418,8.6047173,11.7786255,-33.6564903,-1.0687023
3170,-1.9345051,11.4370432,-6.8234401,30.5725193,34.7404594,-105.5343475,0.2226596,10.1729107,8.6286592,22.0610695,-34.3129768,-2.1145039
3180,-0.4477134,11.3795824,-6.2703824,49.8854980,31.0916023,-95.5954208,-0.1364688,10.2399483,8.5233145,32.5725174,-34.4732819,-0.5648855
3190,0.4189832,11.3508520,-6.6582408,68.4732819,34.9465637,-94.2061081,-0.4525018,10.2830439,8.2048874,42.5954208,-34.0534363,1.2366412
3200,0.7517755,11.2479019,-7.0077925,78.5038147,35.5801544,-98.8091583,-0.6009415,10.4099360,7.8816719,51.4045792,-34.2519073,3.6183207
3210,0.8212070,10.7762470,-7.2160869,84.0687027,34.0839691,-104.0152664,-0.7374104,10.3955708,7.4794478,58.8244286,-34.5038185,5.2748094
3220,0.0071826,9.9622221,-8.2647419,80.6946564,32.5419846,-103.1374054,-0.8978211,10.4817610,7.1418672,65.4732819,-34.6717567,6.6412215
3230,-0.9121862,9.0667953,-9.2080526,63.6259537,27.9083977,-95.8931274,-0.9193687,10.5248566,6.7683735,72.5267181,-34.8625946,8.8244276
3240,-1.0031654,8.7747040,-8.4897957,41.1374054,21.8320618,-85.0916061,-0.9720409,10.4099360,6.2296810,79.6641235,-34.1526718,11.5190840
3250,-0.4237715,8.2048874,-6.8378053,26.6030540,19.1603050,-81.7251892,-0.8786675,10.2710724,5.7005649,86.0916061,-32.4045792,14.0000000
3260,-0.8738791,7.5991573,-5.4252334,21.2748089,17.1068707,-80.5877838,-0.7924767,10.1633339,4.8793583,90.5190811,-29.9007626,16.0458012
3270,-1.2473727,6.8210459,-4.0485744,26.4274807,10.7251911,-74.8015289,-0.5841822,10.0148945,4.2257442,94.0076370,-25.9770985,18.5954189
3280,-1.2593436,6.4092450,-3.2800395,39.9312973,1.3053435,-67.4656525,-0.5698171,9.8233595,3.6056492,95.0687027,-22.0458012,21.1908398
3290,-1.1755470,5.8849177,-3.0047078,56.4274826,-6.0305343,-62.9236641,-0.4429250,9.6126709,3.1244173,94.7786255,-18.5954189,24.7480907
3300,-1.9943599,4.4316444,-5.0732875,-54.1603050,-28.6946564,-15.7938929,2.8730273,7.0724359,0.5769997,17.0381680,-23.6564884,4.9236641
3310,-1.9201399,4.6495161,-5.2743993,-82.6335907,-13.5572519,-11.6641226,3.0238612,7.2807302,0.4979914,11.7251911,-22.8396950,-1.3587786
3320,-2.3654592,5.4204450,-4.8123207,-103.6870193,8.1221371,-6.5648856,3.0789278,7.5512733,0.3830703,4.6564884,-21.1145039,-6.7786260
3330,-3.0980811,6.6223278,-4.6926112,-114.9007645,22.9923668,1.5190840,2.9783716,7.7787213,0.2777260,-5.0000000,-19.8320618,-10.1068707
3340,-3.3446827,7.9343438,-5.3270717,-118.9465637,28.5877857,8.5648851,2.5905130,7.9080076,0.2609667,-15.7175570,-19.3511448,-12.2442751
3350,-3.5050933,9.3014259,-6.0620875,-117.5267181,17.9465656,11.4274807,2.1811066,8.0540533,0.6488253,-25.4656487,-20.9770985,-12.9465647
3360,-3.8139439,10.4506369,-6.4499464,-111.5496216,-9.8625956,9.7786255,2.0087249,8.2431946,1.0462608,-32.9923668,-22.4809170,-12.5267172
3370,-3.7828193,10.9701757,-6.2991123,-101.8396912,-44.1832047,7.6641221,1.8052188,8.4347296,1.4006008,-38.5419846,-22.3435116,-11.4351149
3380,-3.7421181,11.1234045,-5.4802995,-88.7709961,-74.3435135,7.8396945,1.6160779,8.6597834,1.7477583,-42.2977104,-20.7328243,-9.9160309
3390,-3.5146701,11.0946741,-4.3933377,-73.0305328,-88.1832047,9.5038166,1.4939742,9.0165176,2.0494261,-44.3053436,-19.0381680,-7.2442746
3400,-3.7756367,10.8791971,-3.8690102,-57.9923668,-93.9542007,14.2442751,1.5155219,9.3660688,2.5162930,-44.3129768,-19.0305347,-5.0381680
3410,-3.3662305,10.6972389,-3.4380560,-42.9389305,-75.5038147,19.4274807,1.5993185,9.6653433,2.8873925,-41.8396950,-19.5954189,-3.3969467
3420,-2.8921809,10.0484133,-2.8419030,-25.6488552,-54.5801544,19.0763359,1.7333932,9.8712435,3.1052637,-38.0839691,-19.6030540,-1.6641221
3430,-2.9472473,9.5169029,-2.0949159,-6.5190840,-35.9160309,17.4351139,1.8985922,10.0939026,3.3638363,-32.6183205,-18.9694653,-2.1068702
3440,-3.3398943,9.1960821,-1.9464760,14.5190840,-20.7557259,17.4045811,1.9488702,10.3117743,3.4212968,-26.4503822,-15.6946564,-2.5190840
3450,-4.1515245,8.5017672,-2.1619530,33.4198456,-14.0076332,22.4580154,1.8243724,10.4482431,3.3614421,-19.8473282,-11.8320608,-2.9770992
3460,-4.6686692,8.0971489,-2.4588325,47.3053436,-9.1908398,33.4427490,1.7429699,10.5080976,3.3039815,-13.8167934,-7.4732823,-3.5343511
3470,-4.5681133,7.7356262,-2.5186872,55.2748108,-1.5496184,47.1755714,1.5011568,10.4841557,3.3183465,-8.4809160,-2.8015268,-4.1755724
3480,-3.5098817,7.4004397,-2.3151813,58.6641235,14.7557249,60.4198456,1.3048333,10.5057030,3.3351059,-2.5419848,2.6641221,-4.8473282
3490,-2.7389526,6.7468257,-2.4181314,67.6259537,60.9312973,82.1374054,0.7733232,10.3668404,3.3255291,9.5877867,15.2137403,-3.5572519
3500,-2.9400647,6.9287844,-3.1363883,72.1450348,73.6183243,93.4961853,0.5051740,10.1561518,3.4428444,16.5190830,22.1908398,-2.4961832
3510,-2.9664006,7.2017217,-3.8953462,73.4122162,77.2061081,104.6870193,0.2849085,9.9334917,3.4476328,23.6641216,28.6564884,-2.5114503
3520,-2.7365584,7.5680327,-5.1139889,67.4351120,70.5190811,111.8473282,-0.0191535,9.7467451,3.3758070,30.9694653,35.2671738,-0.2977099
3530,-2.1882892,7.8289995,-6.2655940,55.7480927,60.3206100,113.7175598,-0.1268920,9.5312681,3.2704628,38.3358765,40.7404594,2.5954199
3540,-2.0183017,7.9391322,-7.4938130,37.3206100,46.3740463,111.3969498,-0.1173153,9.4163475,3.0669568,44.5496178,44.6106873,4.9007635
3550,-1.8363433,7.9846220,-7.8553357,13.8320608,38.3282433,107.0992355,0.0000000,9.1529865,2.4684093,47.8625946,46.3664131,6.9083967
3560,-1.7932479,8.1857338,-8.0396881,-10.1984730,28.2137413,101.0229034,0.1340746,9.0907373,1.9799947,46.6564903,44.0228996,7.3435116
3570,-2.1140692,8.0971489,-7.3717093,-27.5343513,27.3511448,95.0992355,0.3758878,9.0596132,1.6448082,41.7938919,38.4656487,6.8549619
3580,-2.8275378,8.3988171,-7.1346846,-38.0763359,30.3206100,92.6259537,0.4501076,8.9686337,1.4484847,34.4656487,30.0381680,5.4351144
3590,-3.5769191,8.7914639,-6.6079631,-43.5419846,34.4503822,96.5801544,0.7038917,8.8656836,1.2114599,25.7022896,21.8625946,4.4580154
3600,-4.0940638,8.7268209,-6.1698260,-43.7557259,31.8396950,99.5572510,0.9145803,8.7196379,1.2377959,16.4274807,15.0076332,3.0992367
3610,-4.5010762,8.9279327,-5.8705525,-36.8931313,22.9160309,105.5954208,1.0127422,8.5161324,1.1300575,7.9541984,10.1908398,1.4732825
3620,-5.0613165,9.3756456,-5.6335278,-24.8473282,11.5572519,117.3587799,1.0271072,8.4131813,1.3646880,1.3969465,7.0458016,-0.9160305
3630,-5.0996237,9.7419567,-5.5664907,-10.9312973,-0.8549618,131.8702240,1.0534433,8.1905222,1.6184721,-2.5877862,5.7022901,-3.4732823
3640,-5.1906028,9.5504217,-5.9758968,1.9312977,-11.1221371,144.2519073,0.9073978,8.1186962,2.0015423,-2.9923663,6.6717558,-5.2290077
3650,-6.5145893,9.0739784,-7.1083484,6.6106873,-17.8320618,162.7786255,0.9457048,8.3796635,2.0302727,-0.0839695,8.6870232,-6.5496182
3660,-8.5352850,8.1522150,-8.2503767,-1.3816794,-30.3511448,195.9007568,1.0582317,8.6382351,1.8650736,3.5877862,13.0839691,-8.2519083
3670,-9.1649570,7.5057840,-8.8585014,-17.4351139,-58.0076332,242.0000000,0.9792235,8.9183559,1.5729824,5.9083967,18.3969460,-8.4580154
3680,-6.9623032,7.4674768,-7.6446471,-28.7022896,-97.0152664,250.1297760,1.0534433,9.1984758,1.1970947,6.0229006,22.0839691,-8.8778629
3690,-2.2840567,6.9431496,-6.1889796,-24.3282452,-136.6259613,250.1297760,1.0989330,9.5599985,1.0558375,3.7251909,23.9312973,-7.9160304
3700,1.2401901,7.3573442,-5.3988972,-8.9160309,-150.5725250,250.1297760,1.2042773,9.8832140,0.9792235,-1.4122137,24.0687027,-6.3053436
3710,4.7644372,8.4802189,-4.3646073,12.0610685,-125.0610657,250.1297760,1.2784972,10.1226330,0.8379663,-8.3129768,24.0305347,-4.8931298
3720,8.0037756,9.7156210,-3.2584918,40.8396950,-65.7862625,250.1297760,1.3886299,10.3069859,0.7996593,-17.3282452,21.2595425,-3.4198472
3730,9.7467451,12.3659887,-5.0924411,70.6488571,-10.3282442,250.1297760,1.5059452,10.4243011,1.0318956,-27.5038166,16.7022896,-2.1450381
3740,8.0851774,13.4577389,-6.6630292,94.2290039,38.4351158,247.9847260,1.6184721,10.5272512,1.4341195,-37.3053436,11.8244276,-0.3282443
3750,6.3565731,11.2407198,-9.9861641,98.2061081,46.8244286,192.6564941,1.7405758,10.5080976,1.9823889,-45.2977104,5.7328243,0.2366412
3760,3.7636659,8.1857338,-12.4545736,78.1679382,22.4274807,146.3664093,1.8842272,10.4123297,2.6479735,-50.0534363,0.4198473,1.2137405
3770,0.7565638,6.0908179,-13.1297350,48.3129768,-22.5419846,123.4732819,1.9153515,10.2327662,3.1842721,-52.1603050,-3.2748091,1.5267175
3780,0.2513899,3.0214672,-11.6333666,21.7099228,-85.3358765,121.9618301,2.1068866,10.1130562,3.6894460,-51.4656487,-6.5114503,1.7251909
3790,3.2824337,-1.9368993,-7.9558916,13.2977095,-146.2671814,119.5114517,2.3151813,9.9646168,4.0820932,-48.9771004,-8.7633591,1.1374046
3800,7.9391322,-5.5042415,-4.2041965,26.7786255,-185.7557220,98.4732819,2.3894010,9.7946291,4.3981261,-44.1374054,-9.2442751,-0.3282443
3810,13.2231083,-8.1306677,-0.1053443,55.0305328,-201.2595367,56.0839691,2.6192431,9.7563219,4.7117648,-36.9160309,-7.3587785,-2.1755726
3820,18.6243992,-12.5120344,4.3981261,92.3282471,-193.6183167,-7.0839696,2.6958573,9.6773138,4.9248476,-29.6946564,-4.6412215,-4.9923663
3830,19.6126022,-17.9995155,8.2838955,138.1908417,-133.9541931,-78.3435135,2.6168492,9.5815458,4.6782460,-22.5267181,-3.1984732,-7.4045801
3840,19.6126022,-19.6131992,8.2527714,174.9541931,-59.2977104,-113.5801544,2.4588325,9.5384512,4.7333126,-16.1679382,-2.2748091,-9.1221371
3850,19.6126022,-18.2892132,5.0301919,178.9084015,65.0992355,-60.8625946,2.4684093,9.6677370,4.7285242,-10.1832066,-1.3740458,-9.8778629
3860,11.8775740,-8.9111729,-0.1460456,138.9694672,187.8549652,94.3740463,2.4516499,9.7132263,4.4675574,-5.8702292,-1.5496184,-10.6870232
3870,14.7482071,-1.5945302,-2.3941894,73.2290039,206.7404633,250.1297760,2.4636209,9.8089943,4.2544746,-3.7099237,-4.0305343,-12.1297712
3880,19.6126022,10.0029240,-7.4962072,16.2671757,194.0610657,250.1297760,2.4947455,9.8449068,4.0461802,-3.5725191,-7.9312978,-13.9465647
3890,19.6126022,19.6126022,-6.6342988,-31.7480907,110.4427490,250.1297760,2.3965836,9.9071560,3.8737986,-4.7938933,-12.7404585,-14.3740454
3900,19.6126022,19.6126022,-1.4125718,-50.1221390,-21.1984730,210.6870270,2.2649033,9.9215212,3.7181761,-6.5496182,-18.7099228,-14.5877867
3910,19.6126022,19.1391506,0.4309541,-37.8778610,-117.6412201,38.5648842,2.1044924,9.9310980,3.6056492,-8.8396950,-24.6259537,-14.5419846
3920,19.6126022,9.5312681,2.7581062,-12.9847326,-110.0457993,-166.3282471,2.1044924,9.7946291,3.6032550,-10.8167934,-29.8015270,-14.1526718
3930,19.6126022,1.5274929,2.3606708,-0.9847328,-67.9770966,-250.1374054,2.0206959,9.7850523,3.7085996,-11.9007635,-33.7099228,-15.1755724
3940,13.4050665,-2.6264257,0.0790083,-15.1221371,-12.3511448,-250.1374054,1.8866212,9.5719690,3.8546450,-11.1450386,-34.4503822,-17.0610695
3950,7.1179252,-4.0892754,-0.5482694,-32.9007645,40.9389305,-250.1374054,1.4365137,9.5121145,3.9959023,-7.8931298,-31.8091602,-19.8244267
3960,6.9958215,-4.2951760,-0.4740495,-40.6870232,57.2290077,-250.1374054,0.9097920,9.3828287,4.0988522,-2.0381680,-25.7938938,-21.9618320
3970,9.6773138,-4.4699516,-1.1420283,-42.2366409,58.9618340,-193.9007568,0.3639168,9.2535419,4.0006905,6.0381680,-17.0305347,-23.2442741
3980,12.5263996,-4.5776901,-1.2713146,-34.7251892,60.9236641,-177.0763397,-0.3327923,9.0644016,3.8809812,15.8396950,-6.9618320,-22.2748089
3990,14.4537220,-4.4148855,-2.1811066,-26.7938938,68.2137375,-189.0534363,-0.8906385,8.8800488,3.7133877,26.8320618,2.2595420,-19.6412220
4000,14.2071199,-4.6016321,-3.5457945,-23.3893127,77.1755753,-213.8473358,-1.2641320,8.7627335,3.0047078,36.8549614,9.4732828,-15.9847326
4010,11.4585905,-4.6303625,-5.1834202,-30.4885502,85.8396912,-232.3358765,-1.3814473,8.8417416,2.3079987,43.5038185,14.1832066,-12.1374044
4020,7.8146343,-3.3303175,-6.0932121,-44.5801544,85.2824402,-231.0000000,-1.3886299,8.8704720,1.3335636,44.2519073,15.7251911,-7.5801525
4030,4.9942794,-1.8650736,-6.5481081,-55.8091621,80.9389343,-210.1068726,-1.0510491,9.1098909,0.4405309,38.8702278,12.8396950,-1.1450381
4040,3.9264708,-0.4357425,-6.7444315,-60.3129768,79.9160309,-179.4198456,-0.7613522,9.1601686,-0.0957676,31.0839691,12.0610685,7.2748094
4050,4.7883787,0.9528874,-6.8832946,-57.9236641,79.6946564,-154.9007568,-0.0550664,9.3540983,-0.8547257,11.6641226,5.2290077,14.7557249
4060,5.7723908,2.0805507,-7.6853480,-51.2290077,83.9847336,-144.6793823,0.6967092,9.0356712,-1.1851238,-10.3206110,-8.1145039,17.6564884
4070,6.3781209,3.0214672,-8.8249826,-47.2671738,87.9618301,-146.4732819,1.6088953,9.0715837,-0.7302278,-32.7099228,-24.0152664,17.8702297
4080,5.6167684,4.6758518,-10.1010857,-52.2061081,85.6564865,-155.2442780,2.5785420,9.2942438,0.0191535,-49.9618340,-35.3435097,16.3282452
4090,4.4244623,6.2272868,-10.4937325,-63.8167953,76.7938919,-163.9007568,3.3782012,9.3852224,1.0821736,-59.7480927,-38.7022896,12.0839691
4100,3.4787574,7.0844064,-10.4338779,-76.2671738,61.3053436,-171.2977142,3.9432299,9.0883436,2.1978660,-63.6030540,-35.8702278,5.8396945
4110,2.7509236,7.6757712,-10.1968527,-86.4351120,49.7938919,-175.9618378,4.1156116,9.1984758,2.8514795,-63.0687027,-30.2900772,-2.6946564
4120,2.6048782,8.2647419,-9.5312681,-94.2366409,42.2977104,-179.2977142,3.8857694,8.9806042,3.7301471,-56.9694672,-22.6412220,-12.6030531
4130,1.6256547,9.0524302,-8.6118994,-98.6564865,35.4045792,-182.1374054,3.5026991,9.2703018,4.4555864,-46.0992355,-13.1526718,-20.4427490
4140,-0.1053443,8.5328913,-8.6861191,-100.7328262,22.0534344,-176.5725250,3.0023136,9.2918491,5.0349803,-31.4122143,-3.0992367,-27.2748089
4150,-2.3439114,8.6693602,-9.4785957,-110.2442780,1.5954199,-153.3358765,2.3319404,9.5192976,4.9607606,-16.1297703,6.7709923,-31.4732819
4160,-3.7038112,10.2016411,-8.4778252,-126.7709961,-23.6412220,-121.2977066,1.6807210,9.6318245,4.6950054,-4.4198475,13.9007635,-33.6412201
4170,-3.8163381,11.8057480,-5.9663200,-133.7557220,-44.4198456,-93.2442780,1.1252691,9.8209648,4.3574247,4.0687022,18.4961834,-34.5114517
4180,-2.4444675,12.5958309,-3.7947903,-124.5267181,-50.6030540,-82.4580154,0.4620786,10.1274214,3.9360476,7.4122138,20.3358784,-31.3664131
4190,-1.7022687,13.2997227,-2.6862805,-103.2137375,-45.7480927,-85.8625946,0.2370248,10.2567072,3.4955165,6.4885497,19.0916023,-27.6793900
4200,-2.1547706,14.2502155,-2.7102225,-80.9389343,-29.8320618,-88.1679382,0.1005560,10.3955708,3.2944047,2.4198472,15.2595415,-23.5267181
4210,-3.1579359,15.6077213,-2.8514795,-62.6641235,-11.2137403,-82.8854980,-0.0191535,10.3596573,3.4667864,-2.0687022,11.1908398,-18.9236641
4220,-3.3997490,16.6515884,-3.0765336,-48.0610695,5.8931298,-75.4809189,-0.0574605,10.4697905,3.6152260,-6.2366414,8.1526718,-14.7938929
4230,-3.5170643,16.8143921,-3.3590479,-33.5419846,15.3969469,-73.0916061,-0.2178712,10.2567072,3.9097114,-9.0000000,5.6564884,-11.0152674
4240,-3.8067613,16.4887829,-3.0597742,-17.6641216,13.0381680,-69.6335907,-0.3782819,10.0484133,4.1970143,-9.9007635,3.0076337,-7.1374044
4250,-4.0150557,16.3283730,-1.8866212,2.0076337,1.4961832,-58.2977104,-0.2896969,9.9023676,4.3526363,-9.1908398,0.0305344,-2.1679389
4260,-3.3327117,15.9141769,-1.3646880,26.4809170,-19.3435116,-39.4961815,0.0790083,9.8329363,4.3622131,-7.6335878,-2.5419848,2.2595420
4270,-1.6208663,15.4353390,-0.4932030,55.1908379,-36.9160309,-25.4809170,0.4955972,9.6844959,4.1539187,-6.5725193,-4.0000000,5.7022901
4280,0.9696468,14.9517136,-0.6153067,86.4045792,-38.3435097,-22.2213745,0.9145803,9.6390066,3.9552009,-6.6488547,-4.1450381,7.7557254
4290,3.2704628,13.9988260,-0.9696468,116.7251892,-33.0305328,-34.3893127,1.2042773,9.6605549,3.9791429,-7.2061067,-3.6870229,6.7786260
4300,4.2520804,12.8591919,-1.9321109,139.4351196,-28.9389305,-59.8778610,1.4269369,9.7754755,4.0988522,-7.5801525,-2.9541984,4.7938933
4310,4.0725164,11.6788559,-3.1292057,149.2366486,-29.0534344,-87.5343475,1.3790531,9.8257532,4.2951760,-6.6793895,-0.6564885,3.1984732
4320,2.8514795,10.6541433,-4.3670015,143.5190887,-36.6870232,-106.7251892,1.1037214,9.7443514,4.5298066,-5.0916033,1.3816794,1.0763359
4330,1.4580613,9.5839405,-4.9511838,126.3816757,-43.4274826,-114.6106873,0.8044477,9.7132263,4.6734576,-2.4198472,2.0152671,0.9083970
4340,0.7757174,8.3964224,-4.9104824,101.8702316,-46.1679382,-115.6641235,0.7709290,9.7587166,4.8027439,1.0229008,1.1450381,0.7480916
4350,-0.0095768,6.0501165,-4.0964580,53.0534363,-35.7328262,-115.2290039,0.7996593,9.8760319,4.5345950,6.5114503,1.1374046,1.8015267
4360,-0.6296718,5.2145448,-2.9520357,35.1984749,-26.6335869,-112.7633591,0.8451489,9.9717989,4.4843168,8.0763359,0.9465649,2.5648854
4370,-1.2665262,4.3598189,-2.1380112,25.2671757,-18.0763359,-107.0534363,0.9433106,10.0196829,4.7428894,9.8778629,-0.9694657,2.1145039
4380,-2.1260402,3.3805954,-2.0973101,21.1908398,-5.3282442,-97.5648880,0.8882443,10.0268650,4.7740140,12.8320608,-2.6488550,0.9312977
4390,-3.0142846,2.8658447,-2.6360025,15.0229006,5.2748094,-82.9007645,0.7493813,10.0148945,4.8937230,16.7480907,-4.2900763,-0.6946565
4400,-3.3973548,2.5426292,-2.9951310,4.4351144,11.1908398,-68.2213745,0.6488253,10.0603838,5.0972295,22.2900772,-5.1755724,-2.4198472
4410,-3.5050933,2.3199697,-2.7485294,-8.9160309,11.3282442,-54.6793900,0.3639168,10.2064295,4.9080882,28.5038166,-5.2595420,-3.3511450
4420,-3.5266411,1.9632354,-2.3056045,-18.3282452,9.8625956,-41.3664131,0.1675933,10.1824875,4.7620430,34.4656487,-5.0534353,-2.1679389
4430,-3.5984666,1.7453641,-1.9057748,-23.3969460,8.2595415,-28.1221371,0.0646431,10.2878323,4.4172797,38.9312973,-3.8244274,1.0381680
4440,-3.8139439,1.4149660,-2.0230901,-27.3511448,4.3206105,-15.0610685,-0.0598547,10.3309278,4.2018023,41.2671738,-2.2977099,5.4198475
4450,-3.8235207,1.4197544,-2.0877333,-34.0152664,1.8931298,0.2977099,-0.0550664,10.2830439,3.7277529,41.8091621,-2.4503818,9.7022905
4460,-3.4859397,1.7286048,-2.0853391,-42.5190849,0.3129771,18.2900772,0.0287303,10.1800938,3.7014170,40.8320618,-4.5190840,14.4503813
4470,-2.9256995,2.1332228,-1.6376256,-48.8244286,-1.4427481,33.8015251,0.1532281,10.1609402,3.3422885,39.3587799,-7.7557254,19.2595425
4480,-1.8602852,2.5761478,-0.9888002,-49.3358765,-5.0458016,46.0610695,0.3591284,10.0939026,3.3782012,37.5114517,-10.4656487,21.5954189
4490,-0.5362985,3.5194585,-0.5793939,-41.0763359,-4.3053436,52.1068687,0.4908088,9.8927908,3.2656744,35.4580154,-12.6488552,24.4885502
4500,-0.2274480,4.0892754,-1.0295014,-29.3511448,-0.0152672,50.8778610,0.5937590,9.8113880,3.2800395,34.0610695,-15.2519083,26.2442741
4510,-0.0526722,4.8721757,-2.1523764,-20.3129768,3.1679389,47.4809151,0.7757174,9.7395630,3.1770895,32.8625946,-18.3816795,28.1832066
4520,0.3232156,6.2871413,-3.1890604,-18.2671757,3.4885497,40.7862587,0.9265513,9.6150646,3.1770895,32.1984749,-20.5954189,30.2213745
4530,0.0502780,7.4124107,-4.3239059,-21.1679382,3.3816793,33.0916023,1.1731528,9.3995876,2.9903426,31.4122143,-22.2519093,30.9923668
4540,-1.3072275,7.9846220,-5.5138183,-30.1297703,6.1450381,31.0381680,1.2665262,9.1888990,2.8826041,30.5114498,-23.3969460,31.8091602
4550,-2.5043221,9.2296000,-5.9878678,-42.1297722,3.5725191,35.6259537,1.5370697,8.9877872,2.7557120,29.6488552,-24.0000000,32.8244286
4560,-3.2584918,10.8504667,-5.1618724,-50.1221390,-8.4351149,43.9771004,1.8339491,8.7531567,2.5354466,28.3816795,-24.4198475,33.3435097
4570,-3.8570392,11.2502966,-4.3741841,-50.6412201,-9.9770994,51.3129768,2.3654592,8.7004843,2.4444675,27.6793900,-26.6183205,31.0763359
4580,-4.3167233,11.3795824,-5.0110383,-53.4656487,-2.7022901,56.2061081,2.8466914,8.5089493,2.4731977,27.1832066,-32.2442741,24.4809170
4590,-4.6255741,11.4346485,-4.9679432,-56.9618340,1.4045801,63.6412201,2.8634505,8.0013809,2.4013720,26.9618320,-36.6412201,17.6335869
4600,-4.4316444,12.1505117,-4.2975702,-61.0152664,-0.3587786,76.0152664,2.7676830,7.7188668,2.0374553,24.6412220,-38.0763359,14.8244276
4610,-3.0047078,12.8352499,-3.8618276,-62.8778610,-1.8167939,88.6717529,2.9448531,7.7571740,1.4843974,19.5343513,-38.8854980,16.9007626
4620,-1.5131277,12.7418766,-2.9233053,-58.3511467,0.8778626,92.1450348,3.3638363,7.7643566,1.2689204,12.5190840,-39.6641235,18.8854961
4630,0.1963235,12.8807392,-2.4947455,-46.5725174,-2.0229008,79.2595444,3.6367738,7.5129666,1.3120158,4.3587785,-39.7404594,18.8244267
4640,1.0845678,12.5647058,-1.7764885,-31.0610695,-11.2061071,57.4122124,3.8474624,7.4387465,1.1085097,-2.7328243,-40.8091621,16.3358784
4650,1.7621235,12.1457233,-1.3503228,-14.5343513,-21.1984730,31.8244267,3.9504125,7.5009956,1.2832855,-8.3358774,-42.9771004,12.1526718
4660,1.6184721,11.3269100,-0.6871324,1.5343511,-32.9389305,8.7786255,4.0533628,7.5440907,1.2282192,-12.3511448,-45.8931313,7.1526718
4670,1.5921360,10.5847120,-0.0287303,17.6488552,-37.5801544,-6.9160304,3.9982965,7.5105724,1.1396341,-14.8091602,-47.3740463,2.3129771
4680,1.5466464,9.8281479,0.2322364,32.6335869,-35.2748108,-17.4045811,4.0749106,7.5632443,0.9840119,-16.8625946,-48.0458031,-6.0687022
4690,1.3407460,8.9111729,0.2944853,46.2213745,-26.2519093,-25.3206100,4.0461802,7.8098459,0.9289455,-18.4045811,-46.6030540,-17.3129768
4700,0.4596844,7.9367380,0.2849085,59.6106873,-17.0916023,-29.1908398,3.4117200,8.2336178,0.8571198,-19.7404575,-40.6641235,-28.7862587
4710,-0.5171449,7.2256637,-0.2322364,70.0687027,-8.2290077,-24.4656487,2.5450234,8.7411861,1.2066715,-20.0458012,-34.5267181,-37.8244286
4720,-1.1396341,6.7420373,-0.8475431,77.5267181,0.1297710,-13.5572519,1.6424140,9.2726955,1.4556671,-18.9694653,-25.3206100,-41.2977104
4730,-1.7501525,6.1051831,-2.3941894,78.6183243,11.6030531,4.7022901,0.8930327,9.6198530,1.6448082,-18.1450386,-17.2748089,-41.4351158
4740,-2.2816625,6.0812411,-4.1539187,67.7022934,26.5572510,26.6183205,0.2489957,10.0651722,1.8339491,-17.7022896,-11.1068707,-38.4122124
4750,-2.1475880,7.0293403,-5.4132624,46.5267181,31.6717548,43.4885483,-0.3256098,10.2710724,2.2170193,-17.1603050,-7.8778625,-33.5877876
4760,-2.2098370,6.5840211,-6.0118098,24.6946564,26.2748089,53.2900772,-0.5530578,10.4626083,2.5498118,-16.5954189,-8.2442751,-27.3129768
4770,-3.0813217,7.2376347,-6.5074067,5.3893127,24.1068707,66.9007645,-0.5003856,10.4817610,2.7197993,-15.7938929,-10.7099237,-22.4885502
4780,-3.9168940,7.5632443,-6.4906478,-9.4427481,14.2442751,81.4122162,-0.3543400,10.4530315,2.8945751,-14.8244276,-13.9083967,-19.8702297
4790,-4.4436154,7.9199786,-7.0484939,-20.7557259,8.2137403,96.9160309,-0.1987177,10.5057030,3.0837159,-12.6183205,-17.0992374,-19.3816795
4800,-5.0876527,8.3126259,-6.4882536,-24.1832066,6.2824426,110.5419846,0.1077385,10.5942879,3.2872221,-9.3893127,-18.8702297,-20.2061062
4810,-6.1913738,9.0739784,-6.8521700,-21.6946564,-0.0152672,130.6259613,0.2394189,10.6804790,3.3662305,-4.8549619,-19.1984730,-21.7022896
4820,-6.4978304,9.8760319,-7.3094602,-16.5343513,-1.0763359,153.2061005,0.1436514,10.7930059,3.4643922,0.9160305,-16.9847336,-21.6412220
4830,-6.1291251,10.3476868,-7.3788919,-15.0381680,-6.1145039,171.3206177,-0.1077385,10.8241301,3.4883339,6.6564884,-13.2137403,-19.9312973
4840,-5.7652082,10.7523050,-7.0556765,-13.6412210,-8.5725193,184.1297760,-0.4333483,10.7355452,3.1986370,11.0763359,-8.7328243,-15.8625956
4850,-5.0230093,11.4897156,-6.1410961,-5.0916033,-11.6564884,191.2595367,-0.5219333,10.6397781,3.0406206,13.8015270,-5.0305343,-10.6870232
4860,-4.2951760,11.9039097,-6.1817970,7.1984735,-10.7099237,194.4427490,-0.7733232,10.5272512,2.9927368,14.9312973,-1.9160305,-5.2824426
4870,-3.9695661,12.2103662,-6.8665352,10.8244276,-5.4351144,194.0152740,-0.7829000,10.2758608,2.7102225,15.2519083,-0.2442748,1.7862595
4880,-4.2353210,12.5599174,-7.2807302,4.3053436,-2.3740458,194.9160309,-0.6129125,10.0125008,2.8155668,14.2900763,-0.9160305,8.2671757
4890,-5.0445571,12.4473906,-6.4954362,-4.9312978,-3.1145039,201.2595367,-0.1556223,9.8018112,2.6168492,12.4809160,-2.8625953,12.1679392
4900,-5.9160423,11.4226780,-5.0277977,-5.5114503,-7.5572519,218.7175598,0.3926471,9.5815458,2.3415172,10.2671757,-4.9770994,13.8091602
4910,-6.4331870,10.0555954,-3.8570392,3.7709923,-14.2900763,249.1450348,0.7924767,9.5528164,2.1930776,7.0839696,-6.1450381,13.6259546
4920,-6.3996682,8.9925756,-3.2920105,19.7022896,-21.1450386,250.1297760,0.9696468,9.3038206,2.1044924,3.0839694,-7.2748094,14.1908398
4930,-5.5640965,7.6757712,-3.3494711,38.8778610,-32.8549614,250.1297760,1.1635761,9.1290445,2.0925217,-1.0610687,-8.5877867,14.4809160
4940,-4.3981261,6.7875271,-3.1603301,58.2824440,-45.5190849,250.1297760,1.4053892,9.0691900,2.1547706,-4.8854961,-10.7786255,13.1297712
4950,-1.9368993,6.8737178,-2.8969693,81.8244247,-55.0534363,250.1297760,1.8124014,9.1577749,2.2625091,-7.8473282,-13.0763359,10.4198475
4960,1.3958124,6.9599090,-2.9352763,106.0687027,-61.1679382,250.1297760,2.0518203,9.4019823,2.2457497,-10.8167934,-15.0839691,8.5648851
4970,2.4253139,7.6877422,-3.9216824,120.0687027,-65.7404556,250.1297760,2.1404054,9.5623922,2.3367288,-13.9923668,-13.9160309,7.8778625
4980,2.6503677,8.5951405,-5.3605900,119.0076370,-70.0916061,250.1297760,2.0278785,9.7084379,2.3223639,-16.8778629,-11.1145039,9.3129768
4990,4.2927818,6.2655940,-7.4411407,101.9007645,-89.2977066,250.1297760,1.8698620,9.6437950,2.4516499,-19.8931293,-8.9465647,11.7480917
5000,7.0077925,2.2792683,-9.3588867,72.5954208,-108.8244247,250.1297760,1.8219782,9.4546537,2.5306582,-22.0839691,-8.6412210,13.8702288
5010,9.3636751,-1.9153515,-9.6581602,37.3206100,-115.0457993,250.1297760,1.8531027,9.2966375,2.6647329,-23.8625946,-9.4045801,16.2671757
5020,10.3189564,-6.8330169,-9.1649570,-2.5648854,-110.2442780,250.1297760,2.1308286,9.3205795,2.8203552,-24.2442741,-10.5419846,16.3664131
5030,10.6972389,-13.3595772,-7.7212610,-41.8244286,-80.1679382,245.8396912,2.3630650,9.3157911,2.7389526,-23.4809170,-11.5496187,15.0763359
5040,10.2950144,-19.6131992,-6.9144192,-78.8549652,-30.5419846,230.0839691,2.6527619,9.3038206,2.7772598,-21.1679382,-11.7099237,12.7022905
5050,10.1154509,-19.6131992,-5.7532372,-116.5648880,6.9083967,234.1297760,2.7988074,9.3540983,2.7221935,-17.9007626,-10.7709923,9.9694653
5060,10.4195127,-19.6131992,-4.0988522,-151.4732819,51.2977104,250.1297760,2.9496415,9.5599985,2.5306582,-14.9465647,-9.2519083,7.5954199
5070,11.2479019,-19.6131992,0.3854645,-171.7404633,69.1526718,250.1297760,3.1459649,9.8520899,2.3247581,-13.4961834,-8.0229006,5.3206105
5080,13.7833490,-19.6131992,4.9583664,-167.6030579,48.5419846,250.1297760,3.3997490,10.0579901,2.4636209,-12.9007635,-6.7786260,2.6946564
5090,16.4408989,-17.9157200,8.8896255,-133.3664093,-5.7480917,250.1297760,3.3039815,10.1298151,2.5953014,-12.6335878,-6.0687022,-0.2366412
5100,19.6126022,-10.5296450,11.2646618,-69.4351120,-62.1145020,250.1297760,3.0549858,10.0196829,2.6719155,-11.3129768,-6.2671757,-3.2213740
5110,19.6126022,-2.9568241,12.8879223,23.7404575,-83.7709961,250.1297760,2.9640064,9.9741936,3.0861101,-7.7633586,-7.7709923,-5.9160304
5120,19.6126022,0.8666966,10.9175043,117.4809189,-54.7175560,162.9084015,2.9113343,9.9478569,3.2249732,-2.3206108,-8.2366409,-8.9312973
5130,19.6126022,6.6726060,3.9264708,157.1755676,-15.9847326,21.2671757,2.6072724,9.9646168,3.3925664,5.1374044,-6.4045801,-12.0687027
5140,19.6126022,7.5584559,-2.3702476,137.9770966,56.3206100,-137.5801544,2.2768741,9.9191265,3.2441268,13.1755724,-3.2519083,-13.6488552
5150,19.6126022,1.8650736,-8.1977043,77.9236679,144.0152740,-250.1374054,1.9321109,9.8927908,2.9903426,20.6564884,-1.3129771,-12.9236641
5160,19.1511211,-6.3134775,-10.5344334,5.1603055,237.0381622,-250.1374054,1.6184721,9.8185711,2.4253139,26.1297703,0.2213740,-11.9007635
5170,12.5024576,-12.1169930,-9.5169029,-45.8549614,250.1297760,-250.1374054,1.5490406,9.9454632,1.7740943,28.2137413,2.0000000,-9.4198475
5180,5.5832496,-15.3994265,-6.4164276,-55.8473282,250.1297760,-250.1374054,1.5083394,9.9813757,1.3072275,26.3282452,2.6106870,-6.8396945
5190,5.8897061,1.3646880,-4.5944495,-11.3664122,250.1297760,-165.3893127,1.8004304,9.0835552,3.6032550,-17.4885502,-8.3664122,-11.2137403
5200,9.0715837,8.3581152,-3.7085996,-3.9770992,171.0381622,-175.8244324,-0.8427547,8.4802189,3.4883339,13.3129768,27.4274807,-14.2977095
5210,6.8952656,10.4266949,-2.1643472,-21.1908398,168.8549652,-182.6564941,-1.3790531,8.5711985,2.9927368,21.1450386,33.0228996,-10.5496187
5220,5.0182209,11.4059181,-0.2705434,-31.4351139,148.7328186,-183.0610657,-1.5586174,8.7651272,2.4205256,25.2671757,35.6335869,-6.2748094
5230,4.3693957,10.9222927,0.7805058,-32.0610695,112.3435135,-178.7022858,-1.7190280,8.7124557,1.9129574,25.5725193,34.7862587,-0.5190840
5240,3.5625539,9.9478569,1.6448082,-26.1145039,75.3511429,-168.7022858,-1.3910241,8.6190825,1.1276633,21.1679382,33.9923668,7.8854961
5250,2.9735832,9.8233595,2.7365584,-16.6870232,35.7633591,-152.1221313,-0.8116302,9.4570484,0.0981618,8.8702288,28.7175579,14.8015270
5260,2.7245877,11.0467901,3.3853838,-2.9847329,7.9389315,-127.3664093,-0.0694315,9.1434097,-0.6631905,-9.8778629,17.0763359,19.7022896
5270,3.7373297,12.9765072,3.7181761,15.0610685,-1.8396946,-101.3740463,0.6655847,8.7770987,-0.3327923,-28.4809170,2.7251909,22.7328243
5280,5.3821378,14.6883526,4.1347651,35.0763359,9.5114508,-84.2442780,1.4796091,8.8393478,0.5937590,-45.7022896,-8.9923668,24.2366409
5290,6.7755561,15.8303804,3.6104376,46.9160309,21.2061062,-82.4580154,2.3343346,8.9399033,0.9026094,-61.5114517,-20.6106873,23.3969460
5300,7.7619624,16.1176834,3.0478032,50.6793900,25.4351139,-92.0000000,2.9496415,8.6645718,1.7046629,-73.7251892,-31.8702297,19.7709923
5310,8.3413563,15.8734760,3.1052637,50.4274826,16.9541988,-105.8549652,3.5769191,8.4538832,2.8179610,-78.9083939,-38.4274826,15.9465647
5320,8.4490948,15.5981445,3.5146701,50.9618340,3.0992367,-119.2366409,4.1850433,8.2527714,3.6559272,-76.7022934,-37.7328262,8.0458012
5330,7.9367380,15.4066095,4.1970143,57.4961815,-10.4809160,-128.3282471,4.7955613,8.6095057,4.2472920,-67.6106873,-30.8854961,-1.0152671
5340,7.4076223,15.0402985,4.6207857,69.5038147,-23.5496178,-134.7175598,4.7764082,8.6693602,5.0948353,-53.0458031,-18.8320618,-13.0534353
5350,6.8282285,14.2143030,4.5178356,85.2824402,-32.5648842,-140.3893127,4.5944495,8.8992023,5.0948353,-36.6488533,-4.5343513,-22.8091602
5360,6.6678176,13.2805691,4.4053087,98.6870193,-46.8549614,-145.9084015,3.7828193,9.2655134,5.1546898,-21.0687027,8.5343513,-31.4198475
5370,5.9136481,12.7035694,4.1826491,111.0534363,-62.7633591,-149.7251892,2.9687948,9.6725254,4.9894910,-8.1526718,19.2900772,-36.5267181
5380,5.2528515,11.7171631,3.8283088,122.0687027,-72.2442780,-152.6412201,1.6974803,9.8592720,4.7357068,1.7022901,25.8854961,-36.6183205
5390,4.6830344,10.8025827,3.3662305,129.4656525,-81.1832047,-154.0763397,0.8379663,9.9789820,4.1036406,7.4427481,29.9923668,-33.0534363
5400,4.1204000,10.0005293,2.8347204,135.0000000,-84.7557220,-154.5954132,0.3663110,10.0484133,3.6535332,9.0381680,30.1374054,-26.9618320
5410,3.2273674,8.8992023,2.0709739,135.9389343,-86.7633591,-154.0000000,0.1173153,10.1346035,3.2297616,6.6488547,27.1603050,-19.6946564
5420,2.3558824,8.0756006,1.2401901,130.9084015,-86.1068726,-151.7099304,0.1556223,10.0675669,2.7796540,0.9618320,22.1526718,-12.0076332
5430,1.5921360,7.3142486,0.6320660,119.8931274,-82.7099228,-147.2977142,0.4381367,10.0579901,2.8012016,-6.3053436,17.0687027,-5.1908398
5440,0.5674229,6.2775645,0.1101327,105.7328262,-75.9542007,-141.1297760,0.9289455,9.9478569,2.9855542,-12.7099237,13.6412210,-0.0458015
5450,-0.2561783,5.6670465,0.1508339,92.7862625,-70.9694672,-132.0458069,1.2832855,9.7730818,3.3111639,-17.2671757,11.1374044,2.8320611
5460,-0.9217629,5.3438311,0.5123565,83.9007645,-65.6335907,-120.0687027,1.6352314,9.7299862,3.6966286,-19.3969460,11.2137403,5.1984735
5470,-1.3239868,4.8793583,0.6368544,80.4122162,-59.0763359,-108.6488571,1.7214222,9.4977493,4.0078731,-20.0839691,12.2671757,7.6412215
5480,-1.9656296,4.5154414,0.5506636,78.7328262,-59.2595406,-98.0076370,1.8578910,9.1817169,4.1922259,-20.0458012,12.5572519,9.3893127
5490,-2.6551561,4.3957319,0.5937590,77.9007645,-60.8549614,-85.7938919,2.0542145,9.0308828,4.3933377,-19.3893127,12.3893127,10.7022905
5500,-3.4021432,4.1012464,0.4477134,77.4732819,-63.4885483,-71.4274826,2.3965836,9.0165176,4.2999644,-18.3511448,13.1221371,11.4045801
5510,-3.8187323,3.8690102,0.2657550,75.0305328,-66.8244247,-54.1297722,2.6431851,9.1314383,4.4484038,-17.4274807,13.5267172,11.1603050
5520,-3.8283088,4.0820932,0.0885850,71.5801544,-67.0992355,-36.2442741,2.9376705,9.2200232,4.5178356,-17.5114498,14.0610685,9.5267172
5530,-2.9687948,4.6303625,0.0526722,68.7175598,-62.5190849,-24.4809170,3.1028695,9.4307127,4.5369892,-18.2290077,14.2213745,8.2595415
5540,-2.4923513,4.8865409,-0.0215477,66.2213745,-52.7862587,-21.5114498,2.9831600,9.5432396,4.6590929,-19.2595425,13.5648851,7.3358779
5550,-2.4133430,5.1259594,-0.3615226,60.7022896,-43.0839691,-24.5877857,2.8754215,9.6557665,4.7596488,-20.3206100,12.2442751,7.7709923
5560,-2.8035958,5.5664907,-1.0055596,50.7099228,-33.1984749,-28.2137413,2.8179610,9.6270361,4.8865409,-21.2748089,10.2519083,8.0458012
5570,-3.0741394,5.5593081,-1.3191984,39.9160309,-24.6030540,-28.4274807,3.0765336,9.7084379,5.1714492,-22.6259537,8.0229006,8.6488552
5580,-3.5936785,5.8083038,-2.0302727,29.9694653,-13.8702288,-20.4961834,3.2584918,9.8568783,5.3366485,-22.7938938,5.7175574,8.2900763
5590,-3.7493007,7.8433647,-3.6104376,-11.3206110,29.9236641,27.8778629,4.6543045,11.3891592,6.3062949,-22.8091602,0.3664122,3.2442749
5600,-3.0238612,8.5975342,-3.3255291,-18.9541988,41.7099228,37.3206100,4.8218975,11.6788559,6.8114691,-23.8778629,-3.1374047,-0.2519084
5610,-1.6472024,9.6653433,-2.8299320,-17.5954189,48.4961815,40.6564903,4.6064205,11.6668854,7.6805596,-22.4122143,-9.9770994,-5.2213740
5620,-0.5626345,10.5057030,-2.9376705,-7.2824426,50.4503822,38.3740463,4.3047528,11.5423870,8.8010406,-14.9541988,-16.8091602,-11.7022905
5630,0.1364688,11.0348196,-3.6559272,5.1984735,45.8167953,31.2671757,3.8761928,11.3747940,9.8832140,1.1297710,-21.9694653,-20.3969460
5640,0.4046180,11.4394369,-4.7524662,11.3511448,32.5877876,23.7938938,3.2345500,11.2550850,10.6972389,26.1679382,-24.8625946,-29.6641216
5650,0.7589580,11.6549139,-5.3893204,10.9160309,17.5038166,16.6183205,2.0590029,11.0156660,11.0827026,57.9541969,-23.3358784,-38.7175560
5660,0.8571198,11.4059181,-5.6287394,6.7251906,1.4122137,9.4961834,0.4716553,10.7666702,10.5152798,94.3893127,-19.1984730,-41.7404594
5670,0.6679789,11.0443964,-5.2001796,1.4732825,-14.8320608,6.6946564,-0.7565638,10.6325951,9.1625633,128.1526642,-14.9007635,-38.6793900
5680,0.5003856,10.6254129,-4.3837609,-0.4351145,-24.3587780,10.5190840,-1.4149660,10.4721851,7.5201492,155.4809113,-8.9923668,-29.3893127
5690,0.6177009,10.2088242,-3.5721307,1.3664122,-29.3129768,18.2290077,-1.6280488,10.4626083,5.4443870,173.5114441,1.7709924,-17.9465656
5700,0.7805058,9.8664551,-3.1100521,4.2824426,-35.3664131,24.5954189,-1.4939742,10.2758608,3.5960727,180.2366486,15.3129768,-4.4503818
5710,0.9792235,9.7898407,-2.8730273,6.2061067,-40.9618340,28.0076332,-1.4652439,9.8568783,1.6783268,178.0305328,27.9847336,9.0992365
5720,1.0845678,9.6461897,-2.8107784,5.8778625,-44.1145020,28.6793900,-1.2306134,9.6102762,0.3830703,167.4732819,34.3893127,20.8854961
5730,1.5227045,9.5264797,-2.9568241,1.8167939,-42.6106873,25.0534344,-0.8427547,9.2918491,-0.6272776,150.0839691,35.3511467,29.7328243
5740,1.3311694,9.0931320,-3.0693510,-4.8854961,-37.5114517,17.5419846,-0.5554519,8.9662399,-1.1587877,128.4198456,30.0534344,35.7786255
5750,0.6416427,8.6454182,-3.3614421,-13.5801525,-32.8625946,10.3587790,-0.2873027,8.5400734,-1.3359578,105.6183243,20.6564884,40.0763359
5760,-0.1843526,8.1761570,-3.9887197,-25.0229015,-29.5190830,8.9541988,0.1628049,8.0756006,-1.0678085,85.0457993,8.3969469,41.8702278
5770,-0.9097920,7.7547798,-4.5752959,-38.9083977,-26.6183205,13.1374044,0.6440369,7.8026633,-0.7062859,67.7633591,-3.9389312,40.7557259
5780,-1.9273225,7.1203194,-5.6598639,-56.7633591,-24.7328243,24.4885502,1.0247130,7.3429790,-0.4285599,54.3435097,-14.4351149,37.8702278
5790,-2.1308286,7.0772243,-6.3876977,-81.1374054,-21.6335869,41.6793900,1.3359578,7.0437055,-0.3543400,43.1297722,-21.7022896,36.3435097
5800,-1.8531027,6.9790621,-6.0740585,-103.8091583,-21.7862587,56.6564903,1.7932479,6.6582408,-0.4165890,33.1068687,-26.6106873,33.6641235
5810,-1.6974803,6.9527264,-5.8035154,-117.8244247,-29.8091602,67.6488571,2.2026544,6.3086891,-0.5027798,24.3587780,-28.7251911,28.5725193
5820,-1.1923064,6.6199336,-5.3318601,-120.8015289,-39.9160309,78.0687027,2.4109488,6.0668759,-0.3830703,17.1984730,-26.4656487,23.9389305
5830,-0.9672526,7.4890246,-5.5736732,-124.0763321,-45.4503822,90.0000000,2.3008161,5.7460546,-0.2298422,12.7557249,-21.5725193,19.0458012
5840,0.5769997,8.2168579,-5.7628140,-124.4961853,-49.4885483,95.5343475,2.3630650,5.5018473,-0.0885850,9.7251911,-13.9160309,15.3053436
5850,0.9480990,8.7555504,-6.2224984,-122.0610657,-51.0763359,94.4885483,2.3894010,5.4372044,-0.1436514,7.1908398,-6.4656487,10.9083967
5860,0.1843526,9.2200232,-7.6207051,-127.3206100,-56.9083977,94.6030502,2.2816625,5.5090299,-0.2202654,3.7862597,-1.2595420,6.0610685
5870,-0.3327923,9.7156210,-8.2958660,-141.1984711,-64.2595444,99.3740463,2.2026544,5.5808558,-0.4285599,-2.5877862,0.6335878,1.7938931
5880,-0.7014975,10.0125008,-7.8625183,-153.8091583,-75.8244247,106.5954208,2.0901275,5.7556314,-0.6464311,-12.2137403,0.1984733,-1.6183206
5890,-1.8794388,10.1681223,-7.3597383,-159.6717529,-94.4351120,117.2748108,2.1020982,5.9423780,-0.7158626,-24.5343513,-3.1984732,-4.0000000
5900,-3.1028695,10.3476868,-7.0987716,-166.2748108,-113.0076370,139.8931274,2.2002602,5.9423780,-0.5386927,-35.3969460,-6.4351144,-7.0992365
5910,-2.6144550,10.3883877,-5.3151007,-170.1984711,-116.4732819,168.4045868,2.4564383,6.4236102,-0.1053443,-44.3511467,-8.6259546,-12.0763359
5920,-0.3519458,11.1688938,-2.5186872,-164.8015289,-87.0534363,186.8625946,2.6527619,6.9455438,0.1987177,-51.8015251,-10.5725193,-17.1068707
5930,1.9847831,12.2031832,-0.8666966,-156.9007568,-26.1526718,190.2290039,2.7676830,7.4962072,0.5674229,-57.3435097,-12.8091602,-22.8396950
5940,2.5162930,12.5455532,-0.9959828,-155.5725250,44.4351158,188.5190887,2.7844424,8.1522150,1.1324517,-60.3206100,-15.5496187,-28.7786255
5950,2.1188576,13.5966015,-1.1180865,-155.4198456,85.8931274,185.9923706,2.9041519,9.1338329,1.5729824,-60.0534363,-18.3053436,-33.7175560
5960,1.6567791,14.2980995,-0.5267217,-148.8549652,86.5572510,181.3893127,2.9927368,10.2351599,2.1427996,-56.8473282,-20.2824421,-37.0839691
5970,1.8363433,14.8296099,0.6799498,-133.9160309,48.9236641,175.4809113,3.1124463,11.1784706,2.3534882,-51.8702278,-20.2137413,-39.5801544
5980,2.3319404,15.1815557,0.4740495,-116.8473282,1.0687023,167.7099304,3.2752512,12.2031832,2.7006457,-46.9007645,-20.4961834,-40.2213745
5990,2.4348907,15.3826675,0.3184272,-111.2213745,-38.8778610,163.4885559,3.1986370,12.9334116,2.8131726,-42.2213745,-19.1984730,-41.2900772
6000,3.5817075,-19.6131992,15.0331154,-250.1374054,-209.8854980,-19.0381680,-1.2497669,9.5839405,1.9416877,54.7862587,25.5725193,3.3358779
6010,2.4588325,-15.0690289,19.6126022,-225.3740387,-250.1374054,201.0915985,-0.9720409,8.9207497,1.7309990,52.9236641,24.4809170,10.5343513
6020,13.8001080,-2.6048782,19.6126022,-105.8015289,-250.1374054,250.1297760,-0.6584021,8.4107876,1.6208663,50.4122124,22.7251911,14.9389315
6030,19.6126022,4.1682839,19.6126022,20.4351139,-230.5572510,250.1297760,-0.3303981,7.9678626,1.4556671,47.5038185,20.6793900,19.0839691
6040,19.6126022,9.5145092,19.6126022,137.6641235,-92.0000000,32.1603050,0.0502780,7.5608501,1.2473727,44.1984749,19.6641216,20.9083977
6050,19.6126022,6.0165982,19.6126022,230.2213745,65.5496216,-183.2824402,0.6033357,7.3214312,0.9552816,39.8625946,17.6717548,20.9465656
6060,15.4137917,-2.3295465,15.6651812,250.1297760,197.7480927,-250.1374054,1.1156923,7.0413113,0.6751614,34.1526718,15.1450386,19.3129768
6070,7.1514440,-9.8616667,3.8139439,250.1297760,250.1297760,-227.7557220,1.5490406,6.9479380,0.4022238,27.2137413,12.8167934,15.5190840
6080,2.7748656,-11.0563669,-2.8586621,211.4122162,250.1297760,-136.4961853,1.7094513,7.0197635,0.2322364,19.3969460,10.8244276,10.6335878
6090,4.1515245,-9.5647869,-2.8347204,151.8778687,250.1297760,-57.9771004,1.7740943,7.1346846,0.2825144,11.2213745,9.8473282,5.4351144
6100,8.4993725,-8.4107876,1.6232605,123.6946564,197.2900696,-37.5572510,1.5538290,7.2472115,0.2609667,3.9694657,10.0305347,1.3893130
6110,11.4346485,-7.9415264,5.5545197,133.0152740,155.7633514,-56.9465637,1.2976507,7.5057840,0.2849085,-2.9541984,10.5801525,-0.9541985
6120,12.3109226,-7.2663651,6.8234401,158.8015289,140.2519073,-86.9312973,1.2761030,7.9295554,0.2346306,-10.6183205,9.6106873,-1.4656489
6130,11.3891592,-7.0293403,5.9926562,186.3511505,146.7404633,-115.2671738,1.4269369,8.4012108,0.1819584,-21.0916023,7.8854961,-1.8320611
6140,9.5671806,-6.7420373,3.8474624,198.0229034,150.7251892,-127.0000000,1.6615674,8.8417416,0.1029501,-34.6259537,3.4580152,-1.8320611
6150,7.7475972,-5.8130918,1.8435259,192.6488495,146.9847260,-120.6564865,1.9536586,9.1721401,0.2657550,-49.1145020,-3.0076337,-2.0916030
6160,6.4236102,-4.1491303,0.8786675,181.3969421,143.4045868,-103.5877838,1.9847831,9.4618368,0.7517755,-62.0305328,-9.1526718,-3.0687022
6170,5.4491754,-1.2928623,0.5698171,170.6717529,139.7022858,-82.7938919,1.9201399,9.6150646,1.2808913,-70.1221390,-13.8320608,-5.0000000
6180,5.5569139,1.1109039,0.8188128,161.1450348,129.1832123,-66.1603088,1.7812769,9.8616667,1.9273225,-73.3664093,-16.5801525,-7.4961834
6190,6.0932121,3.0717452,1.1851238,155.4885559,112.0457993,-60.1832047,1.7549409,10.1585455,2.3223639,-73.1068726,-17.3969460,-7.6030536
6200,7.0269461,4.3574247,1.3934183,152.1068726,94.2595444,-66.8473282,1.7118455,10.4123297,2.6168492,-71.5725174,-16.0381680,-7.1297708
6210,7.4435349,6.0046272,1.2976507,148.3740387,84.1068726,-81.8015289,1.6639616,10.7403336,2.8586621,-69.5954208,-14.5648851,-5.2900763
6220,7.3022780,7.6590118,1.2401901,142.9465637,84.3740463,-100.9694672,1.6136837,10.9797525,3.2345500,-66.6183243,-13.1603050,-2.0763359
6230,6.2272868,8.5424681,1.1683644,134.9084015,87.2366409,-119.3358765,1.7214222,11.0779142,3.6391680,-61.8702278,-11.9694653,2.0381680
6240,4.2425036,8.6118994,0.5674229,123.7938919,88.3893127,-125.6106873,1.8626794,11.0922794,3.9623835,-54.6183205,-10.4198475,5.5648856
6250,2.6767037,8.7890692,-0.4285599,109.1526718,93.8091583,-116.1908417,2.1499822,10.9534168,4.1778607,-44.8015251,-8.1908398,7.7557254
6260,1.6998745,9.4690189,-0.7038917,92.9694672,97.2290039,-98.6183243,2.4444675,10.8049774,4.2018023,-33.5725174,-5.8778625,7.0916033
6270,2.2289903,10.9462337,-0.2609667,79.3969498,98.1068726,-83.3053436,2.5929072,10.7858238,4.0270267,-21.4274807,-2.8549619,5.2061067
6280,1.6879035,12.2702208,0.0383070,71.4045792,97.3129807,-76.2671738,2.6144550,10.7235746,3.7205703,-10.3435116,0.7022901,2.8015268
6290,0.5003856,13.7091284,-0.2035061,64.2442780,92.5877838,-69.8091583,2.5210814,10.6637201,3.2058196,-0.9083970,3.9389312,-0.4809160
6300,0.0167593,15.0283270,-0.5769997,55.8549614,85.1068726,-66.1984711,2.3175755,10.7523050,2.6551561,5.4198475,6.1068702,-1.3511450
6310,-0.4620786,15.3946381,-0.4237715,48.5419846,75.1068726,-69.0152664,2.0709739,10.7259684,2.1164634,8.4503813,7.0610685,-0.7557252
6320,-1.6232605,15.0977583,0.8259954,46.4885483,40.4961815,-58.8931313,2.1811066,10.4745789,0.9504932,-0.2290076,0.9160305,6.7633586
6330,-1.4915800,15.5287132,1.2425843,49.1221390,47.0534363,-40.0534363,2.4660151,10.0675669,0.8212070,-7.6717558,-4.5801525,10.0992365
6340,-1.6328372,16.1224709,1.7190280,53.4045792,53.4122124,-19.2213745,3.0406206,9.9095497,0.9433106,-16.1984730,-12.3816795,10.8931293
6350,-1.5227045,16.6875000,1.8818330,61.7328262,55.8015251,6.8473282,3.6918402,9.9382801,1.1396341,-24.0534344,-19.3511448,9.3664122
6360,-0.6153067,16.7665081,2.2457497,75.1908417,52.4732819,29.8549614,4.0653338,9.9071560,1.5634058,-30.3053436,-24.0534344,4.6717558
6370,0.5674229,16.2349987,2.3032103,91.2061081,45.7480927,44.9389305,4.0150557,10.0244713,1.9608412,-34.6335869,-25.3664131,-0.8778626
6380,2.1356170,15.6005383,2.5162930,109.4427490,34.3053436,51.5343513,3.6463506,10.0627785,2.2792683,-36.2366409,-25.5419846,-5.6030536
6390,3.9623835,15.0690289,2.7844424,131.3435059,15.6641226,48.0610695,2.9233053,9.7730818,3.0454090,-34.8625946,-25.1908398,-8.4580154
6400,4.9823084,14.1592360,2.1643472,154.9847260,0.2061069,32.0458031,2.6000898,10.0675669,2.9831600,-30.9160309,-21.6946564,-11.3587790
6410,4.8578105,13.1536770,0.6631905,167.4427490,-16.8778629,11.8320608,1.7812769,9.7275915,2.9999194,-29.3969460,-18.8320618,-12.9007635
6420,4.1467361,12.0810804,-0.8068419,166.1603088,-32.0000000,-6.2290077,1.4029950,9.4187412,3.3614421,-22.0076332,-10.9847326,-11.6641226
6430,3.4356618,10.8720140,-1.4221486,157.1908417,-41.0534363,-18.0839691,1.1085097,9.4881725,3.5362179,-15.7099237,1.9465649,-14.6488552
6440,2.8179610,9.5743637,-1.3646880,146.3664093,-43.2748108,-24.8244267,0.3184272,9.2128410,3.4117200,-9.6259546,13.1450386,-18.1526718
6450,2.2672975,8.6310530,-1.2282192,138.4122162,-40.5190849,-26.9694653,-0.4836263,8.8968077,3.4907281,-2.9083970,21.5496178,-20.2977104
6460,1.6472024,7.6877422,-1.2473727,130.9236603,-39.0228996,-25.4885502,-1.2665262,8.6238708,3.6822634,5.0305343,29.2824421,-20.0152664
6470,1.2425843,7.1442614,-1.3646880,122.6946564,-35.5114517,-22.3435116,-1.8961980,8.4107876,3.5146701,14.3206110,34.7022896,-18.8320618
6480,0.9337339,6.4379754,-1.4891858,114.4351120,-32.7251892,-19.0381680,-2.3271523,8.2360115,3.2872221,23.3587780,35.2824440,-16.7786255
6490,0.6344602,5.9136481,-1.2808913,107.7557220,-31.9389305,-17.1145039,-2.3415172,8.2144642,2.6383967,28.7709923,31.0610695,-13.8244276
6500,0.5410868,5.4252334,-1.2713146,101.0839691,-32.8854980,-16.1374054,-1.7764885,8.2647419,1.6519908,28.8931293,25.6183205,-9.9694653
6510,0.2489957,4.9224534,-1.2354017,97.4427490,-35.4274826,-14.5267172,-1.1420283,8.4467001,0.8283895,21.9923668,19.9694653,-6.1984735
6520,0.2418131,4.6566987,-1.5035510,93.9236679,-37.1908379,-12.8244276,-0.3687052,8.4203644,0.2513899,10.3435116,14.2366409,-1.8549619
6530,0.6105183,4.3909435,-2.2242019,76.6412201,-40.4961815,-14.0839691,1.5250987,8.4658537,0.6033357,-16.7480907,1.3282443,1.0687023
6540,0.5961532,4.2568688,-2.4684093,62.4351158,-39.3740463,-13.2290077,2.4444675,8.7986460,1.0797794,-28.2442741,-3.2061069,0.6641222
6550,0.5410868,4.1994085,-2.4899571,46.5343513,-35.9007645,-10.8320608,3.0478032,8.6861191,1.6687500,-36.1908379,-4.9236641,-2.0916030
6560,0.5626345,4.2951760,-2.1835008,30.8931293,-29.4885502,-7.1755724,3.3255291,8.5735922,2.4803803,-40.5648842,-5.3511453,-6.4732823
6570,0.9935886,4.4292507,-1.7525467,17.8091602,-20.2061062,-3.7099237,3.1651185,8.3341732,3.0573800,-40.5190849,-4.0458016,-9.7480917
6580,1.3287752,4.6351509,-1.3551112,8.7709923,-11.2824430,-1.9923664,2.9927368,8.1617918,3.6583214,-37.2748108,-3.0152671,-13.1450386
6590,1.4484847,4.9894910,-1.6065011,1.2671756,-3.4580152,-0.5954198,2.8730273,8.4083929,3.9815371,-31.7709923,-1.2519084,-17.7404575
6600,1.3072275,5.4850879,-2.0661855,-7.2900763,5.4122138,1.3587786,2.5833304,8.6478119,4.2353210,-24.3816795,1.0687023,-20.4274807
6610,1.5921360,6.0333576,-2.6455793,-17.6870232,10.8931293,0.9389313,2.4564383,8.8896255,4.2281384,-15.7557249,5.8854961,-22.8625946
6620,1.6687500,6.5121951,-2.9113343,-29.1984730,12.7022905,-2.4503818,2.1739240,9.1146793,4.0701222,-8.8778629,11.1679392,-25.0534344
6630,1.1516051,6.8976598,-3.5601597,-42.0687027,12.6870232,-4.0076337,1.8890154,9.3947992,3.7493007,-3.3587787,16.0916023,-26.7709923
6640,0.6153067,7.5560617,-3.8091555,-57.1984749,9.3664122,-3.3740458,1.4604555,9.6294298,3.3877780,-0.8549618,18.8396950,-27.9007626
6650,0.3687052,7.9630742,-3.4404502,-70.6793900,2.2977099,-1.7709924,0.9816177,9.8544836,2.9855542,-1.9923664,20.1297703,-26.4656487
6660,0.1149211,8.4610653,-2.4612267,-74.6793900,-5.8625956,0.4961832,0.6392486,10.0316534,2.6647329,-6.0610685,18.3893127,-23.0229015
6670,0.0550664,9.0189114,-1.5227045,-69.8854980,-12.7709923,4.1297708,0.3160330,10.2040358,2.5737536,-13.0076332,14.1145039,-17.8931293
6680,-0.0215477,9.5480280,-0.9768293,-59.4732819,-17.1374054,9.5801525,0.2633608,10.1106625,2.4229198,-21.7786255,9.3129768,-12.9541988
6690,0.0167593,10.5080976,-1.2138541,-49.6717567,-13.4427481,15.7938929,0.4261657,9.9310980,2.7557120,-30.0534344,4.2290077,-7.8167939
6700,0.3830703,11.2670555,-1.9416877,-46.8931313,-5.1526718,19.0000000,0.5482694,9.8736372,3.0693510,-36.5038185,0.2595420,-4.6183205
6710,0.7374104,11.8799677,-2.2289903,-48.4580154,1.6030535,17.8167934,0.7541697,9.7443514,3.7588775,-39.1450386,-2.3969467,-2.7709923
6720,0.7805058,12.4330254,-2.0063307,-50.7022896,6.0763359,14.5648851,0.8188128,9.5887289,4.3071470,-36.7099228,-3.4351146,-0.8854962
6730,0.5841822,12.5455532,-1.8291607,-51.1679382,6.4961834,13.3435116,1.0462608,9.5145092,4.4244623,-31.5572510,-2.8244274,1.5725191
6740,0.4572902,12.4928808,-1.3766589,-48.6946564,4.2366414,14.1221371,1.5969244,9.6294298,4.4436154,-26.9236641,-1.2366412,3.5954199
6750,0.6272776,12.5599174,-0.7948709,-41.7557259,-2.0916030,14.8167934,2.1571648,9.5001440,4.2401094,-23.9007626,1.8244275,4.2442746
6760,0.8643024,12.4234495,-0.1891410,-30.6946564,-9.8702288,14.5038166,2.5402350,9.5647869,4.0078731,-23.0152664,4.8625956,3.9312978
6770,1.0295014,12.2319136,0.0957676,-18.3282452,-14.4580154,13.2977095,2.8179610,9.7036495,4.1036406,-23.7557259,7.6412215,1.4503816
6780,1.1109039,11.8751793,0.1316804,-7.2061067,-16.6106873,13.1526718,2.7557120,9.8065996,4.2305326,-25.4045811,8.7404585,-0.9694657
6790,1.6495966,11.5184450,-0.3351865,8.2213745,-14.5954199,18.3053436,2.4133430,9.7778702,4.7333126,-29.0000000,3.0534351,-4.0458016
6800,2.2577207,11.3005743,-0.6584021,11.1450386,-10.8167934,16.9923668,2.3654592,9.8042059,5.0924411,-28.4351139,-0.4503817,-7.2061067
6810,2.4947455,11.1305866,-0.8212070,11.2442751,-7.2061067,11.4198475,2.2289903,9.7946291,5.6024032,-26.0381680,-3.0152671,-9.5496187
6820,2.2242019,10.9031391,-1.1444225,8.9236641,-4.4351144,5.0839696,2.2337787,9.9071560,5.9375896,-20.6259537,-4.2824426,-12.1832066
6830,1.8387375,10.4937325,-1.2186425,4.0916033,0.1908397,-0.5725191,2.3295465,10.1130562,6.3134775,-13.6106873,-4.1603055,-14.4961834
6840,1.2425843,10.0986910,-1.3575054,-0.9236641,4.0839696,-3.9541984,2.2505381,10.3117743,6.4379754,-5.8091602,-3.3435113,-18.0000000
6850,0.0790083,9.4163475,-1.6591733,-12.8015270,9.0381680,-3.4198472,1.5155219,10.6948442,6.6007805,11.3587790,-2.8396947,-22.0152664
6860,-0.3088504,9.1649570,-1.4843974,-17.9847336,10.2137403,-0.1450382,1.1180865,10.6852674,6.5935979,19.6183205,-2.4809160,-23.3664131
6870,-0.5458752,9.0476418,-1.3407460,-21.3511448,10.2213745,4.9847326,0.7158626,10.7810354,6.4164276,26.9389305,-2.0305343,-24.6717548
6880,-0.9792235,8.9470863,-1.4221486,-22.6946564,7.2366414,12.6412210,0.2154770,10.7690639,6.2344694,33.4961815,-1.4809160,-24.9083977
6890,-1.0893562,8.9949694,-1.7788827,-24.0381680,3.5190840,23.5801525,-0.3591284,10.8672256,6.1626434,39.6946564,-1.6641221,-22.6870232
6900,0.0287303,9.2439651,-2.1547706,-27.0381680,0.9465649,31.6259537,-0.8475431,10.9558105,5.9998388,45.0381660,-2.0000000,-17.8473282
6910,0.8403605,9.8089943,-1.9967541,-28.1145039,0.2061069,33.0916023,-1.2282192,10.9246864,5.7029591,49.4656487,-3.7938931,-10.1450386
6920,1.8124014,9.9933472,-1.7286048,-32.8625946,2.4351146,29.7175579,-1.1731528,10.8480721,5.5066357,52.7022896,-5.8396945,-1.4427481
6930,2.3750360,10.0388365,-0.9217629,-36.5877876,1.4427481,24.4732819,-0.8068419,10.6613255,5.1020179,55.0305328,-9.1145039,4.2061067
6940,2.4755919,10.3405046,-0.1292862,-36.5496178,-0.8167939,20.6641216,-0.2896969,10.4937325,4.8171091,57.4427490,-11.4503813,7.0458016
6950,2.3343346,10.5918941,0.4429250,-33.6412201,-4.1603055,20.0992374,0.0670373,10.3668404,4.4531922,59.3435097,-12.9160309,8.8549614
6960,2.4229198,10.9725704,1.1635761,-27.0534344,-9.6564884,19.6870232,0.1053443,10.1178446,4.0533628,60.3129768,-13.4045801,9.5496187
6970,2.0901275,11.6692791,1.5394639,-18.4045811,-15.5954199,19.4656487,-0.0526722,10.0244713,3.8737986,61.1603050,-14.8396950,12.6564884
6980,1.4197544,12.2821922,1.5035510,-8.1832066,-18.4274807,22.3282452,-0.3088504,9.7898407,3.9336534,62.6946564,-16.5343513,17.7862587
6990,0.7062859,12.7418766,0.8379663,-0.1221374,-19.4809170,29.3740463,-0.3136388,9.5647869,3.8929520,64.9923630,-17.7786255,23.4809170
7000,0.1340746,13.2685976,0.2226596,7.5801525,-21.2137413,39.3206100,-0.2513899,9.2463598,3.6822634,67.4351120,-19.5190830,28.8702297
7010,-0.7302278,13.7210999,-0.7326220,16.3282452,-25.6106873,52.3206100,0.1747758,8.8369532,3.4308734,69.4351120,-20.6335869,33.2824440
7020,-1.4006008,14.0084028,-2.0326669,24.5877857,-33.9847336,68.5801544,0.6823440,8.5496502,2.8371146,69.8625946,-19.1755733,35.2671738
7030,-1.9752063,13.7354650,-3.3949606,34.4961815,-43.5572510,85.5801544,1.1276633,8.3605099,2.3846128,68.5801544,-16.0687027,36.0305328
7040,-2.1930776,13.7761660,-5.0541339,44.1908379,-52.5496178,98.3053436,1.3215926,8.1474266,2.0925217,65.7175598,-12.5801525,34.9236641
7050,-2.0087249,14.2837343,-6.4906478,47.0687027,-60.2671738,106.7022934,1.3790531,7.9918046,1.9752063,61.1603050,-9.5648851,34.2290077
7060,-0.9935886,14.7386303,-7.6590118,43.1679382,-70.1145020,106.3740463,1.1539993,7.8170285,1.9871773,57.1145020,-9.0000000,35.7175560
7070,-0.7805058,14.9110117,-8.6980906,33.7099228,-81.0305328,100.3664093,0.9361281,7.6518297,2.2194135,53.8931313,-12.4809160,38.7938919
7080,-1.5370697,14.6213150,-8.9614515,19.0076332,-91.2671738,96.6106873,1.2162483,7.4124107,2.0685797,51.7404594,-18.6793900,41.3969460
7090,-2.5402350,14.2885227,-8.3796635,5.3129773,-100.2366409,101.1603088,1.8387375,7.2831244,1.8171898,48.7480927,-23.8015270,41.9465637
7100,-3.1746953,14.0347385,-7.5464849,-2.4732823,-107.1221390,112.5190811,2.3391230,7.0245519,1.6495966,45.0839691,-27.8396950,38.8473282
7110,-3.8426740,13.6684275,-6.8569584,-5.4961834,-111.8396912,131.0305328,2.8490853,7.0532823,1.2856797,40.1068687,-29.0229015,33.9541969
7120,-4.1898317,12.7873659,-6.6606350,-6.0229006,-116.2061081,153.5648804,3.2106080,7.1825686,1.1516051,33.1526718,-28.6870232,27.2748089
7130,-4.2329268,11.4753504,-6.9886389,-9.3740454,-116.4122162,180.2671814,3.4165084,7.2663651,1.1156923,25.6641216,-29.0305347,20.7938938
7140,-3.7923961,10.1848822,-7.0030041,-16.2442741,-115.7175598,206.8473358,3.5936785,7.4650826,1.1348459,18.9618320,-31.0305347,12.5801525
7150,-3.1603301,8.9470863,-6.8258343,-26.0381680,-112.9007645,233.3358765,3.7708483,7.7739329,1.1851238,13.4885492,-35.1374054,3.2900763
7160,-2.0901275,7.7739329,-6.4595232,-36.4274826,-110.7633591,250.1297760,3.7085996,8.0899658,1.2330076,9.8702288,-39.0687027,-6.8473282
7170,-0.3471575,6.3876977,-6.3709383,-47.4580154,-107.1374054,250.1297760,3.3877780,8.5424681,1.0486550,7.5648856,-42.6488533,-15.2137403
7180,1.4939742,4.8171091,-6.1650376,-62.3740463,-102.3053436,250.1297760,3.0597742,8.8896255,0.8547257,5.5267177,-45.4198456,-21.7862587
7190,3.8139439,2.4205256,-5.9304070,-81.1526718,-99.7862625,250.1297760,2.7557120,9.2272062,0.7685348,3.3816793,-47.0687027,-25.1221371
7200,5.6981707,-0.6057299,-5.6550756,-102.7786255,-100.0916061,248.2137451,2.5641768,9.6437950,0.6607963,1.6183206,-47.7251892,-27.5801525
7210,7.4315639,-4.9128766,-5.0086441,-127.9694672,-104.2519073,220.2519073,2.1691356,10.0340481,0.8738791,1.2290076,-47.3206100,-29.1374054
7220,10.1250277,-9.9095497,-3.4835455,-156.3587799,-109.5725174,185.8549652,1.9440818,10.2591019,0.9792235,3.1374047,-44.3816795,-29.5190830
7230,14.1664190,-15.3395720,-1.3120158,-185.2442780,-108.6183243,148.2671814,1.6088953,10.3812056,1.0295014,6.4503818,-40.4351158,-28.9847336
7240,19.6126022,-19.6131992,3.7828193,-201.2061005,-100.1221390,107.5267181,1.3168042,10.4602137,0.9648584,10.4122133,-35.5801544,-28.8702297
7250,19.6126022,-19.6131992,10.2399483,-182.2671814,-74.5572510,81.3435135,0.9744351,10.5320396,0.7374104,14.4351149,-30.3511448,-28.1984730
7260,18.1814747,-19.6131992,13.5798426,-134.3282471,-20.2671757,107.9007645,0.7038917,10.4985209,0.8116302,17.5114498,-26.9923668,-28.0534344
7270,14.1113529,-13.2422619,13.7881374,-81.0839691,27.3358784,189.0992432,0.4333483,10.5895004,0.6248835,19.4809170,-23.2213745,-27.1679382
7280,15.8662939,-3.4117200,15.1145182,-41.1068687,46.6335869,250.1297760,0.3136388,10.6230183,0.5195391,20.3358784,-19.5343513,-25.4122143
7290,19.6126022,3.1028695,17.3363266,-10.8625956,28.4580154,247.2671814,0.0957676,10.5631638,0.4908088,20.0916023,-15.7404585,-23.3740463
7300,19.6126022,7.2184811,19.3235035,32.5496178,1.6564885,140.9236603,-0.1268920,10.5128860,0.4046180,19.8091602,-12.5267172,-21.3740463
7310,19.6126022,7.6087341,18.8302994,92.3435135,-15.4274807,-3.9465649,-0.2274480,10.3500814,0.6153067,19.3664131,-9.7022905,-18.2748089
7320,19.6126022,3.9599893,14.2573986,147.1145020,-7.7786260,-128.4732819,-0.3806761,10.3069859,0.5961532,19.6259537,-7.0992365,-14.5725193
7330,19.6126022,-2.0518203,6.4738884,171.6870270,13.9465647,-215.1221313,-0.2561783,10.1346035,0.8044477,20.8549614,-3.2977099,-11.2824430
7340,17.6906662,-7.3908629,0.3806761,158.8167877,41.7251892,-250.1374054,0.0790083,9.7826586,0.8786675,23.2213745,3.1603053,-7.3053436
7350,13.1105814,-11.1760759,-3.3446827,125.4198456,63.7175560,-250.1374054,0.3543400,9.5336628,1.0295014,27.1679382,14.0763359,-5.0229006
7360,9.7874460,-12.2965574,-3.7947903,90.5038147,69.5114517,-250.1374054,0.3974355,9.4307127,1.4939742,32.9389305,26.2366409,-1.2442749
7370,7.8864598,-11.1880474,-2.2768741,73.3664093,55.1908379,-242.8015289,0.3136388,9.3780403,2.0494261,40.6412201,36.3206100,2.7404580
7380,7.3477674,-9.2128410,-0.7302278,75.2137375,35.0381660,-237.5038147,0.2729376,9.2056589,2.1284344,48.9236641,42.2366409,7.1526718
7390,6.5193777,-7.7475972,-0.5339043,85.0687027,24.3511448,-239.9389343,0.3734936,9.1003141,2.0446377,55.7786255,43.0610695,10.1374044
7400,5.0828643,-6.3446021,-1.8842272,85.2671738,27.8473282,-239.2213745,0.7182568,9.1434097,1.7262106,59.5190849,39.7862587,10.7480917
7410,2.6383967,-4.5369892,-3.4284792,71.1374054,40.4122124,-228.9084015,1.1492109,9.2679071,0.9097920,59.0228996,33.3740463,8.2366409
7420,0.2849085,-2.1236460,-3.7780309,52.2824440,55.8854980,-206.2824402,1.3790531,9.4307127,0.2920911,54.5038185,26.6259537,4.1450381
7430,-0.8571198,0.1029501,-3.3710186,40.9236641,66.6335907,-172.9770966,1.4125718,9.6725254,-0.2944853,45.8702278,20.3435116,-0.7175573
7440,-0.4525018,1.8961980,-3.0765336,41.9389305,72.7786255,-137.6870270,1.2569494,9.7491398,-0.4189832,35.6870232,15.7251911,-3.5038168
7450,0.7398046,3.5577655,-3.5481887,50.3664131,80.2900772,-111.0076370,1.0582317,9.8664551,-0.3926471,26.7251911,13.9083967,-5.7786260
7460,1.6184721,4.9511838,-5.0756817,49.8778610,88.9770966,-91.0457993,0.7493813,10.0148945,-0.0790083,20.6259537,13.4732828,-4.9389315
7470,1.5849534,7.0053983,-6.8354111,33.7099228,107.1374054,-76.0305328,0.5913648,10.1178446,0.1819584,17.5038166,14.0000000,-3.7099237
7480,0.9624642,9.9885588,-8.1306677,2.1374047,130.4961853,-61.6793900,0.4285599,10.1393919,0.4548960,16.4809170,14.1221371,-0.3282443
7490,0.8259954,11.7842007,-7.8577299,-30.1679382,137.2519073,-51.2366409,0.4501076,10.1465750,0.6296718,16.7786255,14.5648851,1.8167939
7500,1.2210367,12.8328552,-6.6462698,-49.7175560,124.5648880,-50.0534363,0.5195391,10.1417866,0.6751614,17.1374054,14.9618320,4.5572519
7510,1.6807210,13.2087431,-6.0357518,-56.3893127,98.3053436,-53.7175560,0.6320660,10.1058741,0.6416427,16.9389305,14.2061071,6.9618320
7520,2.2577207,13.1153698,-6.1985564,-64.2366409,74.3969498,-57.5725174,0.8619082,9.9861641,0.4740495,15.7175570,12.2671757,7.3129773
7530,2.6767037,13.4960461,-5.8394279,-76.4732819,60.8931313,-61.8931313,1.1563935,9.9047613,0.4046180,14.1145039,9.3587790,7.0000000
7540,2.0901275,14.2669754,-4.8434453,-88.4122162,58.9541969,-66.2290039,1.2713146,9.9095497,0.2346306,13.0000000,5.7404580,4.9465647
7550,0.9888002,15.4688578,-3.6032550,-97.4656525,57.8091621,-65.4274826,1.4053892,9.7611103,0.1987177,13.2366409,2.6793892,3.0610688
7560,0.4788379,15.8495340,-2.0254843,-100.0610657,49.6335869,-62.3969460,1.3575054,9.7754755,0.2106887,14.6641226,0.6946565,1.4656489
7570,0.9145803,15.5287132,-0.3950413,-94.5877838,40.1145020,-60.3358765,1.3670821,9.7970228,0.0454896,16.9770985,-0.0763359,0.5877863
7580,1.5681942,15.3204184,0.7182568,-80.1832047,37.5190849,-58.8320618,1.4963684,9.8042059,-0.1939293,18.8091602,-1.4351145,1.7480916
7590,1.5155219,15.0594521,0.2944853,-64.4274826,37.0839691,-55.2824440,1.5777708,9.8137827,-0.4788379,19.0916023,-2.6106870,2.7862597
7600,1.4460905,14.8966465,-0.5985473,-58.4198456,39.3358765,-47.7938919,1.7764885,9.7658987,-0.8786675,16.8931293,-4.0076337,2.7022901
7610,1.2784972,15.3754845,-0.4453192,-57.2824440,40.2900772,-36.7022896,1.8435259,9.7539282,-1.1659702,13.2137403,-6.3969464,1.3893130
7620,1.3239868,15.8543224,0.2202654,-52.7709923,41.0916023,-23.4732819,1.7238164,9.8018112,-1.3814473,8.0229006,-10.0916033,-0.4045801
7630,1.9488702,16.4792061,1.0989330,-43.0992355,39.7938919,-12.9694653,1.7429699,9.8137827,-1.5203103,1.9694656,-14.4045801,0.2442748
7640,2.8275378,17.0681763,2.2481439,-27.2595425,37.9618340,-6.3587785,1.6400198,9.7180147,-1.3168042,-3.6030533,-17.8167934,0.5038168
7650,3.9575951,17.3004131,3.0525916,-5.9312978,39.7938919,-3.1679389,1.7740943,9.6844959,-1.2282192,-8.2137403,-20.0000000,1.3893130
7660,5.6790175,17.1974621,3.2944047,16.1145039,49.5114517,-3.8244274,1.8842272,9.6581602,-1.0941446,-11.4656487,-20.7251911,3.5190840
7670,7.4722652,16.5438499,2.9879484,33.0000000,61.8244286,-11.1068707,1.9847831,9.7395630,-0.8954269,-13.5725193,-21.7557259,4.1755724
7680,8.2503767,15.4209747,1.7405758,40.5877876,68.2061081,-23.6335869,2.1499822,9.8808203,-0.8259954,-15.6412210,-23.7633591,5.0305343
7690,7.8457589,14.6237087,0.0167593,34.3282433,71.2671738,-37.4427490,2.4779861,10.0364418,-0.7757174,-18.1526718,-27.3129768,5.4045801
7700,6.5265603,14.2047262,-0.2130829,19.3816795,58.5648842,-48.0839691,2.8059900,10.1968527,-0.8858501,-21.6946564,-29.7404575,5.2366414
7710,5.5305777,13.5918131,1.3048333,10.1832066,29.6946564,-54.6793900,2.9544299,10.2854376,-0.7565638,-25.8320618,-30.0992374,4.6946564
7720,5.1259594,12.7873659,3.4811516,15.1755724,-2.5114503,-58.8396950,2.9616125,10.3452930,-0.4381367,-29.7633591,-28.6717548,4.0992365
7730,5.1283536,12.1720591,4.9775200,30.5419846,-26.1221371,-63.0763359,2.8419030,10.2686787,-0.0071826,-30.9694653,-26.1908398,2.2519083
7740,5.0230093,11.2359314,5.6119800,51.3511467,-35.3969460,-70.1603088,2.6144550,10.1705170,0.5219333,-28.4503822,-21.9694653,-0.0305344
7750,4.6471219,10.2638903,5.0397687,69.0687027,-31.2442741,-77.6183243,2.2864509,10.0460186,1.0965388,-21.8320618,-15.2366409,-1.7862595
7760,3.6128318,9.2894554,3.9168940,76.8015289,-18.2519093,-81.0457993,1.6902977,9.8927908,1.3718705,-11.7022905,-6.1679387,-3.5267177
7770,2.7485294,8.6406298,3.1148405,77.8396912,-0.9618320,-78.6946564,1.1276633,9.6533718,1.3407460,0.7786260,3.2900763,-3.9923663
7780,1.1539993,7.1179252,1.2306134,83.6106873,6.4274807,-63.5877876,-0.2035061,8.9039907,-0.5003856,38.6946564,33.7633591,-3.0534351
7790,0.7661406,6.2320752,-0.7565638,81.7709961,6.9389315,-63.6335869,-1.0486550,9.1721401,-2.7796540,31.7480907,39.3740463,10.5572519
7800,0.3256098,5.7388721,-1.4915800,77.6793900,10.0381680,-61.0534363,-0.8523315,9.0500364,-3.4811516,11.9160309,28.9007626,19.4732819
7810,-0.1963235,5.4276276,-2.2289903,71.8702316,6.9083967,-55.2595406,-0.0837966,8.9566631,-3.7995787,-14.3358774,12.5572519,26.6030540
7820,-0.3447633,5.2624283,-2.4588325,65.8473282,-1.8473282,-48.0076332,1.1731528,8.6118994,-3.3518653,-42.8320618,-6.8396945,29.6335869
7830,-0.3016679,5.0684991,-2.3582766,61.2061081,-16.8396950,-41.0000000,2.4061604,8.4802189,-2.5115047,-66.4580154,-26.0076332,29.6412220
7840,-0.0215477,4.9942794,-1.7932479,59.8167953,-34.0610695,-36.4122124,3.3351059,8.3030491,-1.5825592,-84.3282471,-39.4198456,27.5114498
7850,0.3615226,4.7811961,-1.0342898,63.0839691,-45.1984749,-35.1755714,4.3406653,7.9918046,-0.5889706,-94.6259537,-47.4732819,21.5648861
7860,0.6512195,4.6710634,-0.6320660,66.8320618,-53.2061081,-34.4122124,5.3151007,7.8457589,0.4884146,-95.6106873,-48.2213745,10.4885492
7870,0.7134684,4.4795284,-0.6440369,67.6106873,-53.8167953,-32.6717567,5.7197185,8.0899658,1.7118455,-87.7175598,-42.8015251,-5.7709923
7880,0.6081241,4.2496862,-0.8834559,65.0000000,-43.2671738,-29.5267181,5.4084740,8.1953106,2.4684093,-74.3206100,-33.6564903,-22.1755733
7890,0.0095768,4.3789725,-1.0797794,56.7099228,-34.8625946,-22.5725193,4.7237358,8.6310530,2.9185169,-54.9541969,-23.1679382,-35.6793900
7900,-0.4525018,4.8554163,-1.4532729,43.5114517,-26.0000000,-10.0992365,4.0078731,9.0811605,3.2034254,-33.1374054,-10.7251911,-45.4045792
7910,-0.5746055,5.5569139,-1.5011568,27.3282452,-18.1526718,5.9465647,3.0478032,9.5456333,2.9975252,-12.9236641,1.9618320,-50.1145020
7920,-0.2825144,6.1722202,-1.7333932,11.3053436,-11.6030531,18.7251911,2.0135133,9.8425131,2.3343346,3.5725191,11.2671757,-50.8778610
7930,0.1604107,6.6869712,-1.9464760,-3.5038168,-5.7938933,23.1068707,1.2952565,10.0747490,1.4556671,13.8931293,17.2519093,-46.7099228
7940,0.3040621,7.0101867,-2.3319404,-18.4198475,-1.0610687,21.2748089,0.9720409,10.3548698,0.7230452,17.6183205,19.6488552,-40.7251892
7950,0.3184272,7.6039457,-2.7317703,-32.0305328,4.1679387,20.0152664,0.7900825,10.5080976,-0.0383070,15.9694653,20.4961834,-35.5419846
7960,0.4094064,8.4275465,-2.5713594,-42.0305328,9.9312973,22.1374054,0.8044477,10.8313131,-0.5913648,9.7404585,18.5343513,-29.7251911
7970,0.5099624,8.9973640,-2.3486998,-45.4274826,15.6641226,25.4885502,0.8331779,11.0060892,-0.8379663,-0.2137405,15.2519083,-23.2442741
7980,0.2154770,9.5552101,-2.4684093,-44.0763359,21.2290077,31.0076332,0.7996593,10.9821472,-0.7589580,-11.6488552,10.8778629,-16.4809170
7990,-0.1795642,10.5727406,-2.7365584,-40.4809151,22.7480907,38.7480927,0.9289455,10.7331514,-0.3399749,-22.5725193,4.6106873,-11.2824430
8000,-0.3543400,11.4945040,-2.7078283,-35.6412201,20.4198475,45.2442741,1.0414724,10.5416164,0.1723816,-30.0458012,-2.2671757,-7.4274807
8010,-0.5219333,12.7490587,-2.6479735,-28.3435116,14.7022905,49.8931313,1.4389079,10.3405046,0.5793939,-34.0610695,-6.9618320,-5.1755724
8020,-0.7900825,13.8288383,-2.5976956,-19.4809170,7.4503818,55.2442741,1.7381816,10.2088242,1.0271072,-35.2519073,-7.6106873,-4.3816795
8030,-0.4596844,14.6548338,-2.1715298,-7.9847326,-2.6870229,60.9771004,1.8554969,10.0532017,1.3718705,-33.7938919,-5.6946564,-5.8625956
8040,0.5937590,14.7098999,-1.4197544,8.6183205,-13.5725193,61.6183205,1.6855093,9.9813757,1.7597293,-30.3893127,-2.5343511,-6.6183205
8050,1.8483143,14.2669754,-0.9217629,29.4809170,-18.8244267,56.6717567,1.5250987,9.8329363,1.9153515,-26.2595425,1.5114504,-7.5190840
8060,2.7652888,13.5750542,-1.1731528,46.6412201,-19.9083977,50.3053436,1.4197544,9.8305416,1.9512644,-22.2977104,5.3053436,-7.0534353
8070,3.4117200,13.0722742,-1.6663558,54.9771004,-20.7938938,42.4503822,1.3910241,9.8640604,2.0470319,-18.8854961,7.7709923,-6.6412215
8080,3.6224086,12.5766773,-1.8674678,55.9312973,-23.8091602,32.3816795,1.4149660,9.9215212,1.8794388,-17.3969460,8.7633591,-6.0152674
8090,3.3925664,12.0858688,-1.8770446,52.6564903,-27.7175579,21.8931293,1.5610116,9.9981356,1.7477583,-17.1679382,8.7862597,-5.8473282
8100,2.7820482,11.3580351,-1.6974803,48.0381660,-33.5114517,13.9541988,1.7094513,10.1393919,1.9033806,-18.0000000,6.9923663,-6.9083967
8110,1.9967541,10.6038647,-1.4724265,44.1832047,-37.2671738,10.8778629,1.6328372,10.3093796,2.0877333,-18.5496178,4.9389315,-8.5954199
8120,1.3311694,9.5288744,-1.3718705,41.8396950,-38.1526718,10.4732828,1.5753766,10.4530315,2.2265961,-18.4198475,1.7328244,-9.5496187
8130,0.6823440,8.6358414,-1.5849534,38.3358765,-35.7862587,11.9618320,1.4532729,10.6182299,2.4277081,-17.3129768,-1.8854961,-9.8778629
8140,-0.1580165,7.9439206,-1.6759326,33.1450386,-32.4198456,18.0763359,1.4772149,10.8408899,2.4995339,-14.9083967,-4.5725193,-9.4809160
8150,-0.9983770,7.2256637,-1.5418580,28.8091602,-26.8778629,29.9389305,1.4796091,10.8528605,2.5546002,-12.5801525,-5.0534353,-9.1603050
8160,-1.5705882,6.7252784,-1.3910241,27.4045811,-23.0000000,46.5572510,1.4748207,10.9175043,2.4684093,-9.7175570,-4.8625956,-8.4885492
8170,-1.3383518,6.2392578,-1.0678085,29.5114498,-20.2213745,64.5267181,1.4724265,10.9749641,2.5617826,-6.4732823,-4.0687022,-8.4656487
8180,0.3663110,6.1602492,-0.8259954,36.0305328,-18.1526718,79.6946564,1.4484847,11.0755205,2.6814921,-2.7862597,-2.6717558,-8.0305347
8190,2.3127871,6.4236102,-0.8403605,47.6030540,-14.1374044,86.6564865,1.3527170,11.0898857,2.6719155,1.4274809,-1.1984733,-8.2290077
8200,4.1036406,6.9239960,-4.4196739,14.0076332,-18.1679382,64.8015289,0.5793939,11.0324249,2.2696917,21.6717548,1.3969465,-10.5267172
8210,5.0493455,7.0053983,-4.0533628,-15.1679392,-17.4122143,57.5648842,0.3232156,11.0491848,1.8746504,24.9541988,2.2061069,-8.8931293
8220,5.4611464,7.1777802,-3.3111639,-37.8167953,-7.9389315,48.1068687,0.1364688,10.9725704,1.5993185,26.3129768,3.3969467,-5.4122138
8230,5.2097564,7.2376347,-3.1507533,-53.9465637,5.2442746,39.1832047,-0.0981618,10.8839855,1.3551112,26.1145039,4.9541984,-1.7251909
8240,4.4891052,7.5560617,-3.0166788,-65.0534363,14.2061071,33.3206100,-0.4046180,10.7187862,1.4676381,25.9694653,6.3053436,3.6793892
8250,4.0725164,8.0540533,-2.6527619,-69.8320618,20.0763359,30.8244267,-0.5386927,10.5464048,1.6807210,26.2519093,6.9770994,10.1603050
8260,3.0765336,8.3652983,-2.8323262,-68.4503784,25.0992374,33.7328262,-0.6440369,10.1920643,1.6088953,26.6793900,6.3206105,15.7404585
8270,2.0302727,9.0620070,-3.2656744,-64.2137375,27.4580154,42.9618340,-0.5554519,9.7970228,1.5993185,26.9236641,3.9770992,21.4961834
8280,1.3215926,9.9167328,-3.5290353,-57.4732819,25.3816795,55.8854980,-0.2322364,9.4570484,1.4676381,27.0381680,2.1908398,25.9770985
8290,1.3479286,10.8552551,-3.5386121,-46.6793900,20.1450386,68.7633591,0.1532281,9.0787668,1.5346755,26.9236641,2.8015268,29.1832066
8300,1.3311694,11.7506819,-3.9216824,-29.6793900,11.3053436,78.4198456,0.4525018,8.6956959,1.3239868,26.3282452,4.4656487,31.2748089
8310,1.2665262,12.3468351,-4.6303625,-11.3206110,-2.3511450,86.0229034,0.6081241,8.3054428,1.2473727,24.7862587,5.0305343,32.1832047
8320,0.5003856,13.2997227,-5.6957769,18.1526718,-45.5496178,97.0763321,0.9002152,7.7691450,0.9983770,18.8244267,2.9083970,33.0076332
8330,0.5530578,13.4744978,-6.6582408,28.3511448,-59.5343513,102.5725174,1.1109039,7.5704269,0.9600700,14.9465647,2.4656489,33.4045792
8340,0.5195391,13.3069048,-7.5871863,31.8244267,-63.8549614,106.5343475,1.1683644,7.4339581,0.8379663,10.6793890,2.5190840,33.5801544
8350,0.0790083,12.9645357,-8.3509331,25.5419846,-63.4351158,110.0381699,1.3311694,7.3118544,0.6153067,5.8931298,2.4351146,33.7251892
8360,-0.9672526,12.3420467,-7.8984308,15.6793890,-67.5114517,114.5877838,1.6208663,7.1969333,0.5722113,0.2290076,1.5725191,33.5954208
8370,-2.1835008,11.5471754,-6.4164276,14.2213745,-79.6030502,124.9083939,1.9392935,7.1586266,0.3806761,-6.8625956,-0.4732825,32.4656487
8380,-3.3135581,10.9127159,-5.7628140,20.4274807,-93.1832047,144.2900696,2.4037662,7.1466556,0.2394189,-14.9160309,-2.9007633,29.2366409
8390,-4.2688398,10.1920643,-5.3318601,28.2671757,-93.5496216,174.7099304,2.7221935,7.3214312,0.2729376,-23.6335869,-5.8244276,24.0076332
8400,-4.6375451,9.2703018,-5.3151007,36.0839691,-77.3053436,208.4351196,3.0789278,7.4219875,0.7062859,-31.2671757,-7.9160304,16.4427490
8410,-5.6407104,7.3166428,-5.4563580,45.9694672,-54.3969460,250.1297760,3.1507533,7.5464849,0.9241571,-36.3129768,-10.4198475,8.4580154
8420,-5.7628140,6.3230543,-5.7915444,60.2977104,-40.3511467,250.1297760,3.1435707,7.8242111,1.2018831,-37.6564903,-12.4045801,-0.3816794
8430,-2.9424589,6.3661499,-6.5002246,74.6183243,-34.3206100,250.1297760,2.9807658,8.1665802,1.4556671,-36.3206100,-13.4809160,-7.9618320
8440,1.1659702,6.9599090,-7.1849627,88.0457993,-35.4503822,250.1297760,2.8251436,8.5328913,1.4077834,-33.9923668,-13.7938929,-14.3969469
8450,4.9487896,7.1849627,-8.4634600,95.1832047,-40.1068687,250.1297760,2.5282640,9.0045462,1.3072275,-31.5343513,-13.2671757,-18.7480907
8460,8.1785507,7.7930865,-10.0627785,87.0610657,-44.0763359,250.1297760,2.2936335,9.3660688,1.3096216,-29.1603050,-12.2442751,-20.6030540
8470,10.9869356,8.6047173,-11.5304165,63.0228996,-53.5725174,250.1297760,2.1499822,9.6246414,1.2354017,-26.6030540,-9.9007635,-20.6564884
8480,13.1010046,8.0181408,-12.5048513,20.8931293,-59.4274826,239.5496216,2.1164634,10.0125008,1.2066715,-24.0152664,-7.5267177,-20.8244267
8490,13.3571825,4.5298066,-12.2750092,-40.2671738,-64.7633591,160.0381622,2.0709739,10.2136126,1.1731528,-21.3816795,-4.4122138,-20.3893127
8500,13.2518387,-0.3543400,-9.8329363,-99.5877838,-72.6793900,82.9542007,2.0254843,10.4506369,1.1085097,-18.9847336,-1.8244275,-21.0305347
8510,13.5918131,-6.2775645,-5.2720051,-139.5801544,-91.9465637,8.9007635,1.9129574,10.6349897,1.0654143,-16.8549614,0.0763359,-21.2748089
8520,14.5351238,-12.5431585,1.6041069,-146.2290039,-108.8091583,-55.6259537,1.8435259,10.8432837,1.0606259,-15.2213745,1.3740458,-20.8778629
8530,17.1328201,-18.2173882,8.4012108,-111.8167953,-101.1832047,-111.4885483,1.7980363,10.9438400,1.0534433,-14.8702288,1.3358779,-20.0839691
8540,19.6126022,-19.6131992,9.3636751,-58.8702278,-65.9007645,-136.2900696,1.6879035,11.0467901,1.1300575,-15.1297712,-0.3129771,-19.6641216
8550,18.4113178,-19.6131992,2.8155668,-55.4809151,-13.5267172,-84.3969498,1.5777708,11.0755205,1.3096216,-15.9465647,-2.7862597,-19.6870232
8560,8.1977043,-19.6131992,0.1412572,-120.9694672,86.4885483,69.5114517,1.4365137,10.9893293,1.3862357,-16.4274807,-4.7480917,-18.8320618
8570,-1.0079538,-9.3493099,4.3789725,-203.1603088,154.3282471,250.1297760,1.3096216,10.9701757,1.5777708,-16.0763359,-5.8625956,-18.0610695
8580,3.8450682,-0.4309541,16.7018661,-205.0992432,102.0687027,250.1297760,1.1420283,10.8839855,1.8722562,-14.7786255,-6.6564884,-16.4351139
8590,19.6126022,0.0766141,19.6126022,-92.0229034,30.3664131,250.1297760,0.9265513,10.7187862,1.9752063,-12.5725193,-6.8549619,-14.3358774
8600,19.6126022,3.2058196,19.6126022,90.6259537,39.8320618,250.1297760,0.7326220,10.6182299,2.0685797,-9.7862597,-6.2595420,-11.8473282
8610,19.6126022,7.0365229,15.0355101,249.9313049,45.9923668,152.3206177,0.7445929,10.4817610,2.2888451,-6.2366414,-4.8854961,-8.9312973
8620,19.6126022,6.6845770,2.0518203,250.1297760,7.0458016,-52.2977104,0.6631905,10.2998028,2.2026544,-2.3282442,-3.3587787,-6.7328243
8630,19.6126022,2.7533178,-11.6166077,250.1297760,-11.9083967,-202.6564941,0.6081241,10.1633339,2.1882892,1.2671756,-0.6793893,-3.7404580
8640,19.6126022,-1.0630201,-17.6810894,134.2671814,-2.9923663,-250.1374054,0.6416427,9.9717989,1.9871773,4.0076337,2.0687022,-1.4656489
8650,14.8272152,-4.8195033,-17.1687317,-17.2519093,6.1603055,-250.1374054,0.5961532,9.9167328,1.7477583,4.9923663,4.0916033,1.4809160
8660,11.2646618,-8.2958660,-11.5208397,-134.6717529,27.3282452,-250.1374054,0.6224893,9.7323799,1.6807210,4.3740458,4.8625956,3.5496182
8670,9.3038206,-9.7108326,-5.0517397,-192.5572510,42.9541969,-250.1374054,0.6727672,9.6437950,1.4460905,2.6793892,4.7557254,5.5114503
8680,8.2288294,-9.9574337,0.5530578,-203.3053436,46.5343513,-250.1374054,0.7134684,9.5097208,1.3718705,-0.3664122,3.7175572,7.3053436
8690,8.1498213,-10.0148945,5.1810260,-177.1526642,36.6335869,-250.1374054,0.7398046,9.3612804,1.1683644,-3.4885497,2.1603053,8.5343513
8700,8.6765423,-9.4833841,6.5768385,-128.9465637,33.8931313,-240.0839691,0.8307837,9.2104464,1.1252691,-7.0000000,0.9007633,9.2977095
8710,8.7076674,-8.1665802,6.2991123,-71.3511429,50.5648842,-229.1297760,0.8858501,9.0907373,0.9672526,-10.9007635,0.4885496,11.5343513
8720,7.3597383,-6.0046272,4.6255741,-24.0992374,66.8778610,-212.3893127,1.0055596,8.9183559,0.9169745,-16.0000000,0.2366412,13.0610685
8730,6.4212160,-3.6655040,1.7884595,13.9312973,105.5954208,-196.9007568,1.2258250,8.8920193,0.9337339,-21.9541988,0.3206107,13.9770994
8740,5.4276276,-1.2473727,-0.1340746,37.4656487,126.5572510,-190.2900696,1.4293311,8.8082228,1.0199248,-27.3816795,-0.1145038,14.4580154
8750,4.5537481,1.0127422,-1.9967541,47.5954208,128.1450348,-182.0839691,1.6783268,8.8896255,1.1899122,-31.8167934,-0.6412213,14.9236641
8760,4.5992379,2.8945751,-3.4907281,48.4274826,117.4122162,-170.6259613,1.8698620,8.9877872,1.4748207,-35.4274826,-0.8396947,14.3282442
8770,4.7333126,3.7445123,-4.9128766,42.6641235,103.4274826,-157.6412201,1.9943599,9.0141230,1.5873476,-38.5267181,-0.6183206,14.0534353
8780,4.8865409,4.6806402,-6.5313487,28.7328243,96.9083939,-146.3816833,2.2002602,9.1122847,1.6759326,-41.2748108,-0.5114504,13.9160309
8790,5.2983413,6.6390872,-7.4842362,4.8549619,94.1984711,-138.2137451,2.3295465,9.2870607,1.8267666,-43.7480927,-0.5419847,14.0229006
8800,4.4436154,9.1865053,-7.6518297,-20.5648861,95.3282471,-133.9313049,2.4420733,9.3373384,2.0805507,-45.8854980,0.1145038,13.7099237
