timestamp,rxacclX,rxacclY,rxacclZ,rxgyroX,rxgyroY,rxgyroZ,txacclX,txacclY,txacclZ,txgyroX,txgyroY,txgyroZ
0,-13.4960461,1.5610116,5.2911587,19.4732819,77.2519073,80.5801544,-1.3694763,1.1899122,10.5176744,-19.8931293,-24.0458012,-6.9694657
10,-14.1544485,1.7812769,3.9695661,7.4580154,148.8015289,145.3053436,-1.4053892,1.1707586,10.7020273,-18.9236641,-23.9312973,-6.9770994
20,-15.3180237,1.6759326,3.8474624,-10.5954199,216.4122162,215.4503784,-1.4365137,1.1779412,10.8121595,-17.3740463,-23.8931293,-7.5877862
30,-17.1830978,1.3503228,4.4603748,-20.5954189,250.1297760,250.1297760,-1.3622938,1.1899122,10.9462337,-15.2900763,-22.7709923,-7.8396945
40,-18.5094795,1.6543850,4.7165532,-22.6183205,250.1297760,250.1297760,-1.4269369,1.0965388,10.9773588,-12.1297712,-21.6412220,-7.4580154
50,-19.6131992,3.9192882,4.4914994,-29.3969460,250.1297760,250.1297760,-1.3910241,1.1468167,11.0563669,-8.7786255,-18.8091602,-6.6106873
60,-19.6131992,1.2593436,2.3678534,-44.0534363,250.1297760,250.1297760,-1.4436963,1.1324517,10.9797525,-5.8320613,-16.5801525,-6.3053436
70,-19.6131992,-6.6750002,1.3503228,-69.4503784,250.1297760,250.1297760,-1.5011568,1.1180865,10.8744087,-2.9694657,-13.9007635,-6.2519083
80,-17.5350437,-16.2517586,0.6177009,-106.4122162,250.1297760,250.1297760,-1.5179161,1.1779412,10.8313131,-0.1984733,-11.8549614,-5.2442746
90,-7.9008250,-19.6131992,2.8562679,-148.1221313,250.1297760,250.1297760,-1.5011568,1.1228749,10.8121595,1.6564885,-9.9236641,-5.0534353
100,19.1032372,-0.8619082,-8.2695303,172.4809113,76.8167953,-160.8396912,-1.4197544,1.1539993,10.4578199,0.9618320,-7.4045801,-1.4580153
110,4.4771342,-1.9656296,-7.1634150,35.5419846,-250.1374054,-165.8244324,-1.5083394,1.1611819,10.7259684,2.0534351,-7.3129773,-1.1755725
120,2.9280937,1.0055596,4.3119354,-20.7557259,-250.1374054,-87.0839691,-1.5274929,1.1803354,10.8576488,4.1068702,-6.6106873,-0.2748092
130,15.9405136,-0.0167593,8.1043310,-9.1984730,-250.1374054,-35.2671738,-1.5107336,1.1539993,10.8887739,6.6946564,-4.6183205,0.7786260
140,18.2149925,5.3390427,10.7618818,-3.8396947,-237.2442780,-34.4122124,-1.5059452,1.1875180,10.9893293,9.3664122,-2.9160306,1.6717557
150,16.7234135,5.5784616,10.0268650,-5.8320613,-28.9312973,-41.1221390,-1.4772149,1.2593436,10.9318695,12.0534353,-0.4122137,2.8931298
160,11.9637651,5.3749552,9.2367830,1.7786260,111.1526718,-37.3664131,-1.5011568,1.2114599,10.8384953,14.5190840,2.0381680,4.1908398
170,7.9343438,5.0876527,7.2615767,13.7404585,164.9847260,-20.6106873,-1.3646880,1.2018831,10.5751352,16.0763359,5.4274807,4.9236641
180,6.4810710,2.1212518,3.2034254,54.0916023,53.9160309,32.6793900,-1.2617378,1.3311694,10.0460186,8.7175570,4.5572519,4.4732823
190,7.1418672,2.3295465,2.1308286,59.3664131,41.6106873,39.0000000,-1.2234308,1.3958124,10.0244713,5.8549619,1.6946565,3.2748091
200,7.8266053,2.4803803,1.0654143,56.0839691,49.3435097,41.5801544,-1.3455344,1.4796091,10.1226330,3.2671757,-0.5648855,2.2900763
210,7.9989872,2.5450234,0.2489957,43.9160309,61.5725174,40.5343513,-1.3551112,1.3311694,10.0555954,0.7099237,-3.2213740,0.7862595
220,7.6207051,2.2864509,-0.1747758,24.2900772,70.4351120,40.3664131,-1.3742647,1.4245427,10.0508070,-2.2366412,-5.1221375,-0.5419847
230,7.0341287,1.8961980,0.0167593,-20.4045811,92.9236679,48.4045792,-1.4532729,1.4293311,10.0005293,-7.8778625,-10.2137403,-1.9236641
240,7.0484939,1.5993185,0.6344602,-41.4656487,100.6259537,52.0458031,-1.4125718,1.4436963,10.0555954,-10.8854961,-12.1755724,-1.2366412
250,7.1083484,1.1803354,1.5322813,-59.9694672,102.7480927,51.3740463,-1.3838415,1.4053892,10.0460186,-13.5877867,-14.2061071,-1.8320611
260,7.2950954,0.9672526,2.3534882,-74.7709961,100.7480927,47.8854980,-1.2928623,1.4365137,10.0723553,-16.1450386,-16.3893127,-2.1374047
270,7.4435349,0.6105183,3.0597742,-86.6030502,96.4274826,42.4045792,-1.1444225,1.3790531,9.9143381,-19.0610695,-18.2061062,-3.0610688
280,7.6087341,0.3184272,3.7373297,-96.8396912,87.0610657,36.6946564,-1.1779412,1.3359578,9.8784256,-22.5343513,-20.2671757,-4.4045801
290,7.8457589,0.2729376,4.7093706,-104.3893127,80.7557220,31.6870232,-1.0654143,1.3598996,9.6629486,-27.2366409,-24.1526718,-5.3206105
300,8.3341732,0.2825144,5.5545197,-110.3969498,79.5877838,27.0916023,-0.9768293,1.3575054,9.8042059,-31.9923668,-28.1679382,-6.8396945
310,8.8920193,0.2442073,6.3541789,-114.7557220,83.9007645,23.0381680,-0.9002152,1.2401901,9.9765873,-36.4045792,-31.6717548,-8.4656487
320,9.7251978,0.2130829,7.4602942,-116.9389343,93.8625946,19.0992374,-0.9313397,1.0725969,10.1800938,-40.0381660,-33.2671738,-10.0839691
330,10.3189564,0.2753318,8.4323349,-113.9083939,116.3511429,11.0534353,-1.1061156,0.9696468,10.6397781,-41.3206100,-34.6793900,-10.2671757
340,10.3548698,0.3663110,9.3828287,-108.5954208,134.6183167,1.4427481,-1.1803354,0.7876883,11.1138277,-39.1679382,-33.6717567,-9.4809160
350,10.3931761,0.1795642,9.8089943,-103.9236679,144.8015289,-6.6030536,-1.2138541,0.7374104,11.4394369,-34.5419846,-31.0152664,-7.7099237
360,10.4865494,-0.1149211,9.9430685,-100.8549652,151.1297760,-13.6641226,-1.2090657,0.6440369,11.7387114,-27.8091602,-27.4503822,-6.0992365
370,10.2710724,-0.2944853,10.0125008,-104.0457993,140.8854980,-18.9312973,-1.0773853,0.5650287,11.8919392,-19.8091602,-22.8625946,-5.0152674
380,10.6038647,-0.7350162,10.1729107,-110.7328262,126.5954208,-24.0610695,-1.0606259,0.3902529,11.8081427,-11.5038166,-17.5267181,-3.1984732
390,11.3819771,-1.2737088,10.3907824,-113.7709961,124.0152664,-34.7786255,-0.9121862,0.4189832,11.6261835,-4.3511453,-11.3740454,-1.9083970
400,11.9086981,-1.5298871,10.7642756,-114.8854980,118.6335907,-52.8320618,-0.7062859,0.4261657,11.3556404,1.2519084,-5.6335878,-1.5343511
410,12.3181047,-2.1691356,11.2455082,-114.8702316,100.7709961,-78.1679382,-0.6823440,0.4908088,11.0180597,4.8015265,-1.5877863,-1.0610687
420,12.6963863,-2.9400647,12.4521790,-109.5801544,71.2595444,-111.7022934,-0.5626345,0.5746055,10.8480721,6.7709923,0.8015267,-1.5954199
430,12.5982246,-3.5074875,14.5159702,-94.3206100,35.7786255,-148.0381622,-0.5889706,0.6775556,10.6565371,7.2824426,1.0992366,-2.6259542
440,12.5120344,-4.0820932,16.2158451,-67.1374054,0.8015267,-180.8396912,-0.6392486,0.7589580,10.5296450,7.0687022,0.4961832,-4.1526718
450,12.5168228,-4.9799142,17.6810894,-31.1297703,-27.5954189,-208.8778687,-0.7733232,0.7661406,10.5583754,6.5801525,-0.2442748,-5.1908398
460,12.4785156,-5.2672167,18.6842537,13.0381680,-56.2290077,-235.7328186,-0.9744351,0.8786675,10.5128860,5.9083967,-0.7709923,-5.3129773
470,12.4593620,-5.4874821,18.5645447,54.5343513,-83.7786255,-250.1374054,-1.0702027,0.8283895,10.6804790,6.0381680,-1.0687023,-4.7862597
480,12.7394819,-5.5233951,18.2940025,89.6488571,-113.9083939,-250.1374054,-1.0941446,0.8355721,10.6972389,6.7404580,-1.2442749,-4.0076337
490,12.8831339,-5.6167684,17.7840385,123.3435135,-134.4045868,-250.1374054,-1.2042773,0.8762733,10.6756907,7.1221375,-0.3816794,-3.0534351
500,12.4928808,-5.7532372,16.4911766,156.0381622,-141.7862549,-250.1374054,-1.1587877,0.8714849,10.6158361,7.3740458,0.3206107,-1.6335878
510,11.8033543,-5.8561873,14.8391867,179.4045868,-147.6870270,-250.1374054,-1.1803354,0.8331779,10.4171181,7.0763359,1.0610687,-0.6335878
520,11.0946741,-5.6239510,13.2374735,192.9389343,-158.0305328,-250.1374054,-1.1324517,0.8403605,10.4458485,6.9083967,0.6412213,0.7480916
530,10.4314833,-5.3079181,11.9374285,200.2595367,-162.6335907,-250.1374054,-1.0558375,0.8547257,10.3692341,5.7251906,-0.2748092,0.8244275
540,9.5360565,-5.0589223,10.4243011,202.5801544,-163.1450348,-250.1374054,-0.9648584,0.8403605,10.4314833,4.8320613,-2.0076337,-0.3893130
550,7.9151902,-4.6279683,8.5472565,197.6259613,-152.8473358,-250.1374054,-0.9241571,0.8834559,10.3764172,3.7175572,-3.7328243,-0.2824427
560,6.3446021,-3.9887197,7.0700417,187.6106873,-141.5877838,-250.1374054,-0.9002152,0.8834559,10.3740225,2.6183207,-4.8091602,0.0763359
570,5.7101417,-3.7085996,6.2727766,174.7862549,-137.9465637,-250.1374054,-0.8666966,0.9193687,10.5487986,2.1908398,-5.1908398,-0.9236641
580,4.5489597,-2.9376705,5.6095858,165.5725250,-135.9618378,-250.1374054,-0.8690908,0.8978211,10.6230183,2.2595420,-4.2061067,-1.7328244
590,3.3566537,-2.5426292,4.9703374,157.7328186,-127.2977066,-250.1374054,-0.9097920,0.8355721,10.7906122,3.0763359,-3.0992367,-1.1984733
600,1.8818330,-2.4779861,4.4292507,147.4122162,-109.8473282,-250.1374054,-0.9145803,0.9433106,10.7882175,4.3358779,-1.9847329,-1.2977099
610,0.4668669,-2.3056045,4.2712340,137.7938995,-96.7862625,-250.1374054,-0.9193687,0.9265513,10.8480721,5.4427481,-0.7709923,-1.5954199
620,-0.5722113,-2.5186872,4.8195033,135.4122162,-98.5419846,-250.1374054,-0.8068419,0.8978211,10.6876621,6.2748094,0.1984733,-1.8625954
630,-1.7094513,-2.4181314,5.3558016,143.8931274,-120.0152664,-250.1374054,-0.7086801,0.9073978,10.6637201,6.7557254,0.5877863,-2.7328243
640,-2.7868366,-2.0973101,4.8147149,159.4809113,-165.9541931,-250.1374054,-0.7685348,0.8427547,10.5440102,6.5343513,0.6106870,-3.1221373
650,-3.6583214,-1.8339491,4.3861551,168.0305328,-212.5114441,-250.1374054,-0.8403605,0.9050036,10.6278067,5.9694657,0.0381679,-4.1755724
660,-4.6830344,-1.0845678,4.4292507,163.4580078,-250.1374054,-250.1374054,-0.9002152,0.8666966,10.4769726,5.6793895,-0.1221374,-5.1908398
670,-5.3031297,-1.2401901,4.5609307,152.8091583,-250.1374054,-250.1374054,-0.9409165,0.8714849,10.4841557,5.3282442,-0.0610687,-5.2519083
680,-6.8928714,-1.3383518,4.5800843,139.2977142,-218.3206177,-250.1374054,-1.0175306,0.9073978,10.5009146,4.5267177,-0.5572519,-5.7328243
690,-8.7387915,-1.2737088,4.2448978,121.1832047,-167.0839691,-250.1374054,-1.1252691,0.9433106,10.4961262,3.8167939,-0.6717557,-5.1832061
700,-10.6613255,-1.1635761,4.1802549,100.7938919,-107.7251892,-250.1374054,-1.1779412,0.9911944,10.5727406,3.4122138,-0.9618320,-4.2900763
710,-12.3947191,-0.7541697,3.8881636,85.8931274,-53.6259537,-245.9313049,-1.2617378,1.0342898,10.5344334,3.6641221,-1.0992366,-4.2900763
720,-13.9677010,-0.2370248,3.1651185,72.9770966,-25.9465656,-195.9160309,-1.3096216,1.0366840,10.6206245,4.2290077,-0.9465649,-2.7099237
730,-14.8391867,0.1699875,2.6790979,60.9771004,-23.7404575,-143.4809113,-1.1563935,1.0654143,10.4793673,4.3358779,-0.0381679,-1.6183206
740,-15.1695843,0.4668669,2.1882892,48.0687027,-29.0076332,-90.6259537,-1.1013272,0.9193687,10.6565371,4.9389315,-3.3587787,-0.5114504
750,-15.0498753,0.2130829,1.9488702,33.9771004,-33.4274826,-34.1374054,-1.1180865,0.9792235,10.7235746,6.1984735,-0.6946565,-1.2137405
760,-14.3842907,-0.2681492,2.2720859,20.3129768,-29.8854961,26.2824421,-1.1947005,1.0486550,10.7810354,7.0229006,1.6259542,-1.2366412
770,-13.3811245,-0.5650287,2.5162930,8.0305347,-9.8396950,84.6793900,-1.3766589,1.0151364,10.6756907,8.3282442,2.2748091,-0.3969466
780,-12.5814657,-0.8116302,2.3391230,-7.1068702,38.1526718,143.8396912,-1.1779412,0.9624642,10.6924505,9.2595415,2.7862597,0.5954198
790,-12.9908724,-0.8762733,1.9057748,-28.2900772,104.2977066,202.2595367,-1.1635761,1.1204807,10.7810354,10.0839691,2.7633588,1.6488550
800,-13.7977142,-1.5179161,0.9026094,-56.9083977,182.2748108,250.1297760,-1.1180865,1.1372399,10.7235746,11.6183205,3.2137403,1.7633588
810,-16.2972469,-2.3702476,0.6392486,-93.8473282,250.1297760,250.1297760,-1.0821736,1.0678085,10.6278067,12.4732828,3.9770992,1.9618320
820,-18.4999027,-3.0885043,1.1109039,-134.5725250,250.1297760,250.1297760,-1.1204807,1.0965388,10.5703468,12.6183205,4.2366414,1.3282443
830,-19.6131992,-4.9487896,1.9416877,-172.7328186,250.1297760,250.1297760,-1.0821736,1.1132981,10.4003592,12.4885492,4.7022901,1.6030535
840,-19.6131992,-8.3652983,2.7269819,-201.5419922,250.1297760,250.1297760,-1.0079538,1.1061156,10.4075413,11.6870232,5.2824426,0.7251908
850,-19.6131992,-15.2342272,4.1419477,-211.3435059,212.5877838,250.1297760,-1.0151364,1.0630201,10.2112179,10.8549614,4.7404580,0.0076336
860,-18.5501804,-19.6131992,6.3326311,-189.8091583,56.4732819,250.1297760,-1.0725969,1.1779412,10.1417866,9.0687027,6.4580154,-0.5801527
870,-8.0468712,-19.6131992,10.6493549,-137.0229034,-44.2137413,250.1297760,-1.0941446,1.2641320,9.7108326,7.0000000,13.4427481,-0.9465649
880,11.0683374,-19.6131992,16.6755295,-58.1145020,-11.0610685,250.1297760,-1.3910241,1.3527170,9.2750902,4.9618320,30.1526718,0.4045801
890,19.6126022,-19.6131992,19.6126022,19.1145039,157.5419922,250.1297760,-2.3774302,1.6160779,9.0644016,3.3129771,45.8015251,4.1984735
900,19.6126022,-19.6131992,19.6126022,77.7786255,250.1297760,250.1297760,-3.1531475,1.7501525,8.8201942,0.7099237,53.4961815,10.3511448
910,19.6126022,-11.0922794,19.6126022,142.9694672,250.1297760,250.1297760,-3.4189026,1.9057748,8.8944139,-4.1603055,54.6641235,19.7251911
920,19.6126022,-0.2154770,16.6539822,226.6488495,250.1297760,250.1297760,-3.3518653,1.9201399,9.0931320,-10.1221371,52.4045792,27.8702297
930,19.6126022,1.0079538,-0.5698171,250.1297760,-168.4427490,-71.7099228,-3.2608860,1.8531027,9.5456333,-15.3129768,45.4427490,32.9847336
940,19.6126022,-1.4748207,-10.9845409,179.9847260,-250.1374054,-222.9770966,-4.1371593,1.6687500,11.3771887,-21.0076332,3.1603053,35.3740463
950,14.0514975,-1.5705882,-5.3270717,57.2519073,-250.1374054,-183.7099304,-2.2457497,1.0965388,11.6908274,-30.8091602,-45.6870232,32.5954208
960,19.2660427,0.5386927,4.5992379,-3.7022901,-250.1374054,-96.7786255,-0.7302278,0.8068419,11.2718439,-29.6335869,-49.0916023,22.5954189
970,19.6126022,3.6248028,8.2719250,-15.9389315,-62.8854980,-48.4122124,-0.7996593,0.7948709,11.0611553,-23.4809170,-37.9923668,15.5801525
980,13.8599625,4.8745699,7.2304521,-13.0992365,250.1297760,-10.2061071,-1.3910241,0.7326220,11.0779142,-16.8244267,-27.2824421,16.2061062
990,8.4059992,5.4012914,4.8482337,-4.1603055,250.1297760,29.3435116,-1.1563935,0.6871324,11.1162214,-11.5648851,-26.5725193,20.7709923
1000,6.5409255,5.1522956,3.1770895,8.7557249,250.1297760,62.3740463,-0.5219333,0.6631905,11.1018562,-9.2442751,-24.5725193,21.4351139
1010,6.4762826,4.9799142,2.1787124,21.7862587,250.1297760,82.3053436,-0.0239419,0.5410868,10.9390516,-8.1145039,-20.5954189,19.1679382
1020,8.1186962,5.0445571,1.8818330,31.2061062,188.9770966,87.1984711,0.1675933,0.5961532,10.9294748,-7.6106873,-17.6259537,14.4122133
1030,10.4817610,5.0110383,1.8794388,35.5343513,131.6412201,76.9160309,0.1867468,0.5291159,10.9414454,-6.3358779,-14.1755724,9.6030531
1040,11.6884327,4.6471219,1.8985922,35.1832047,115.5801544,55.8091621,0.2418131,0.5482694,11.0396080,-4.1221375,-10.7328243,5.2595420
1050,11.2957859,4.0246325,1.7860653,31.6183205,118.7709961,35.3358765,0.2202654,0.5458752,11.1736822,-0.8702290,-6.6488547,1.8091604
1060,6.2512288,1.0127422,1.6711442,14.7938929,104.1755753,31.4122143,-0.7421987,0.8283895,10.8887739,8.3587790,4.6564884,-15.4122133
1070,6.2105274,0.7469871,1.9608412,6.8091602,90.3893127,45.6183205,-0.9864060,0.8762733,10.6565371,9.5572519,5.5038166,-16.5954189
1080,6.5624733,0.8283895,2.3199697,-1.7251909,84.7328262,57.8396950,-1.1970947,0.9241571,10.5200682,10.2061071,5.2748094,-17.5496178
1090,7.3453732,1.0247130,2.6886747,-12.5954199,94.2977066,65.1145020,-1.3311694,0.8666966,10.4219065,10.3740454,4.3282442,-18.6793900
1100,7.8529415,1.0917504,3.1770895,-24.8778629,104.8473282,68.2671738,-1.4269369,0.8954269,10.4219065,9.7786255,4.5496182,-18.7480907
1110,8.2551651,1.1707586,4.0749106,-35.0381660,111.2977066,67.9160309,-1.5442522,0.9935886,10.3405046,8.8549614,5.2595420,-18.8931293
1120,8.8010406,1.1324517,4.7165532,-40.0534363,114.9083939,64.3358765,-1.7214222,1.0917504,10.2998028,7.6488547,5.3511453,-18.4503822
1130,9.2679071,1.2258250,4.8314743,-43.8778610,122.1297684,58.6259537,-1.8746504,1.2066715,10.4027529,6.4045801,4.8854961,-16.5114498
1140,9.2487535,1.0534433,4.9607606,-50.4885483,131.2290039,52.5343513,-1.9201399,1.2354017,10.3572636,5.1603055,3.7328243,-15.1068707
1150,10.3883877,0.7852941,5.9447722,-60.4656487,158.9236603,48.7557259,-2.0135133,1.3024391,10.3357162,4.0992365,1.8473282,-13.9007635
1160,14.1233234,1.7118455,7.7571740,-82.1679382,224.4045868,44.3664131,-1.9033806,1.3048333,10.2854376,3.2137403,-0.9160305,-12.9083967
1170,14.0802279,1.9728121,9.4259243,-88.4427490,202.4809113,16.9389305,-1.9081690,1.2354017,10.3812056,2.6564887,-2.9083970,-11.7709923
1180,12.1433287,0.6895266,9.9670105,-70.5877838,154.8625946,-7.8549619,-1.9273225,1.2330076,10.4554253,2.5343511,-4.4122138,-10.3206110
1190,9.7611103,0.6009415,9.2415714,-47.5725174,115.9694672,-16.1755733,-1.8650736,1.1851238,10.3931761,2.0610688,-4.9694657,-9.2366409
1200,8.2336178,1.0151364,7.7978749,-37.0000000,94.3435135,-14.9465647,-1.7190280,1.2880739,10.4434547,1.7938931,-4.5190840,-8.3435116
1210,7.3142486,1.2186425,6.4834652,-42.8396950,87.4580154,-14.5648851,-1.6831152,1.2186425,10.6397781,1.8854961,-4.1145039,-7.0305343
1220,7.2831244,1.3551112,6.0070214,-58.2213745,75.5954208,-17.6030540,-1.6974803,1.2330076,10.7499104,2.9007633,-3.9847329,-6.7175574
1230,7.8122401,1.1707586,6.5361371,-72.9236679,71.0000000,-23.6335869,-1.5562232,1.1659702,10.6756907,4.2824426,-4.0687022,-5.5267177
1240,8.8513184,0.4094064,6.8617468,-88.0229034,71.4427490,-34.0610695,-1.5586174,1.2282192,10.6230183,5.1603055,-4.0916033,-4.4122138
1250,10.2950144,0.1460456,8.0803890,-100.1832047,41.3435097,-51.5419846,-1.4939742,1.2521610,10.5583754,5.4351144,-4.0000000,-4.4580154
1260,12.3013458,-0.2561783,9.7204094,-105.8931274,4.0839696,-79.9312973,-1.4867916,1.2401901,10.3357162,5.2519083,-3.9083970,-4.0839696
1270,13.3763361,-1.0199248,11.1545286,-105.2137375,-26.5114498,-115.5648880,-1.4389079,1.3168042,10.3333216,4.5801525,-4.0000000,-4.4503818
1280,13.3811245,-1.4197544,13.0459385,-97.6183243,-52.7175560,-152.3053436,-1.4269369,1.3718705,10.2040358,3.1984732,-4.4427481,-4.4045801
1290,13.0555153,-1.9895715,14.8463688,-82.3893127,-78.3358765,-182.0839691,-1.4149660,1.3814473,9.9885588,1.2824427,-4.9465647,-4.3129773
1300,12.7299051,-2.5234756,16.9269199,-56.1374054,-107.9618301,-209.0534363,-1.4676381,1.4173602,9.7491398,-1.3587786,-5.2900763,-4.2595420
1310,13.1225519,-2.8059900,18.5717278,-15.8244276,-152.7175598,-237.8625946,-1.5658000,1.4101776,9.6366129,-5.2213740,-6.5572519,-3.9770992
1320,13.5175934,-3.4404502,19.2804070,33.2213745,-194.2290039,-250.1374054,-1.5610116,1.4029950,9.6461897,-9.6335878,-7.9923663,-3.4427481
1330,13.4768925,-3.4572096,18.6243992,85.6793900,-220.1679382,-250.1374054,-1.6424140,1.3311694,9.6270361,-14.4580154,-10.0381680,-4.3206105
1340,13.0315733,-2.9999194,16.5151196,130.4351196,-233.6030579,-250.1374054,-1.6424140,1.2162483,9.6006994,-19.8396950,-12.2824430,-4.5648856
1350,12.0451670,-2.3391230,14.1544485,155.9236603,-250.1374054,-250.1374054,-1.6160779,1.0295014,9.7850523,-24.2519093,-14.5114508,-4.9541984
1360,11.4083128,-2.0015423,11.9446115,164.4961853,-250.1374054,-250.1374054,-1.6136837,0.9289455,9.8856087,-28.3435116,-17.7862587,-5.9160304
1370,10.4362717,-1.7381816,10.1465750,165.3206177,-250.1374054,-250.1374054,-1.6543850,0.8212070,10.0268650,-31.3282452,-21.1603050,-7.1984735
1380,9.5839405,-1.3335636,9.0236998,164.0152740,-250.1374054,-250.1374054,-1.7094513,0.7421987,10.2974091,-33.8702278,-23.7404575,-7.3053436
1390,8.3293848,-1.1180865,7.6326761,161.0839691,-250.1374054,-250.1374054,-1.9608412,0.6799498,10.7379398,-34.0381660,-27.0305347,-6.1832061
1400,7.1322904,-0.8666966,6.3326311,154.9618378,-250.1374054,-250.1374054,-2.0494261,0.6153067,11.3652172,-31.6870232,-28.7862587,-3.6259542
1410,5.6814117,-0.3208214,5.1786318,144.5648804,-250.1374054,-250.1374054,-2.1236460,0.4908088,11.8584204,-25.4885502,-27.0839691,0.4351145
1420,4.3095412,0.5985473,4.3670015,130.8854980,-250.1374054,-250.1374054,-1.9201399,0.5099624,12.1792421,-16.5801525,-20.7175579,3.8854961
1430,3.5050933,1.3551112,4.3813667,116.2137375,-250.1374054,-250.1374054,-2.1068866,0.4979914,12.5814657,-5.0381680,-11.4427481,8.7709923
1440,2.8059900,1.7597293,4.4555864,104.8931274,-250.1374054,-250.1374054,-2.3774302,0.6368544,13.1536770,8.8854961,-1.9160305,14.1984730
1450,1.8938038,2.1427996,4.1371593,98.6946564,-250.1374054,-250.1374054,-2.7006457,0.6991033,14.1017761,26.1526718,7.0839696,20.9312973
1460,1.1803354,2.5953014,3.6559272,92.6564865,-250.1374054,-250.1374054,-3.1651185,0.7733232,14.7817259,46.6564903,16.5267181,29.8015270
1470,0.0047884,2.6599445,3.0454090,84.3664093,-250.1374054,-250.1374054,-3.5290353,0.7445929,15.0977583,68.5190811,21.7862587,39.5038185
1480,-0.8738791,2.8035958,2.3247581,72.5954208,-250.1374054,-250.1374054,-3.5026991,0.7326220,14.9205885,91.4274826,25.2061062,49.3129768
1490,-1.5873476,3.1842721,1.9177457,57.2671738,-250.1374054,-250.1374054,-3.0741394,0.6919208,14.4130201,109.3664093,26.3053436,58.9007645
1500,-2.0877333,3.3805954,1.8028246,43.0152664,-250.1374054,-250.1374054,-2.4109488,0.7421987,13.6013899,125.0839691,20.2824421,64.4656525
1510,-2.8562679,3.2465210,1.1348459,28.3511448,-219.2595367,-250.1374054,-1.5777708,0.7086801,13.0124197,135.2671814,9.4045801,65.0610657
1520,-3.8259149,3.2872221,0.9983770,12.7480917,-183.2366486,-230.5572510,-0.6895266,0.6153067,12.3348637,141.0610657,-11.8625956,59.8625946
1530,-4.6136031,2.9280937,0.9409165,-1.1679389,-149.7328186,-204.0839691,0.4333483,0.5147507,11.2838144,141.5648804,-44.4045792,48.6335869
1540,-5.2839761,3.0525916,0.7445929,-16.8931293,-127.2824402,-179.7099304,2.0949159,0.6991033,10.0460186,134.4885559,-77.8778610,29.5190830
1550,-5.5784616,3.1268115,0.9648584,-33.1221390,-106.8320618,-153.6183167,2.8873925,1.4053892,8.8992023,121.3435135,-104.8015289,6.1679387
1560,-5.5521255,2.9520357,1.2090657,-45.3664131,-71.9312973,-128.2519073,3.1052637,1.6280488,8.3676920,102.4427490,-136.3206177,-20.3206100
1570,-5.8753409,2.8059900,1.6280488,-56.1679382,-27.8091602,-101.9389343,2.8849983,1.3551112,8.1067257,82.2442780,-188.0915985,-45.8778610
1580,-6.7564025,2.7389526,1.9536586,-66.0076370,21.2442741,-70.3740463,2.9711890,1.4628497,7.6829538,58.3664131,-243.2900696,-69.8167953
1590,-7.9822278,2.5976956,1.8674678,-76.7786255,80.3282471,-33.3282433,3.0908985,1.7309990,7.7428088,33.7557259,-250.1374054,-93.2213745
1600,-10.1776991,3.0047078,0.9073978,-92.7862625,165.9923706,16.1679382,3.4883339,1.9584470,7.7428088,8.0152674,-250.1374054,-115.7938919
1610,-14.4513273,2.7748656,-0.7996593,-126.5725174,250.1297760,88.5572510,3.8283088,1.9895715,8.1019373,-13.9007635,-250.1374054,-134.2061005
1620,-19.6131992,2.0350611,-1.8411317,-183.2137451,250.1297760,190.3282471,4.2185616,2.3056045,8.6597834,-26.5572510,-250.1374054,-146.5877838
1630,-19.6131992,0.7302278,0.2609667,-246.3129730,250.1297760,250.1297760,3.9863255,2.5761478,9.2631187,-26.6259537,-250.1374054,-151.8854980
1640,-19.6131992,-3.3973548,3.7133877,-250.1374054,250.1297760,250.1297760,3.6032550,2.9209111,9.4809904,-17.6564884,-250.1374054,-149.7099304
1650,-19.6131992,-9.5767574,6.8210459,-250.1374054,250.1297760,250.1297760,2.6790979,3.3398943,9.3780403,-5.6488547,-206.3358765,-139.7251892
1660,-19.6131992,-17.2932301,10.9222927,-250.1374054,250.1297760,250.1297760,1.8315549,3.8091555,9.1218615,3.6793892,-144.0076294,-124.4885483
1670,-17.5541973,-19.6131992,16.7952385,-250.1374054,250.1297760,250.1297760,1.2713146,4.1754665,8.4467001,7.6717558,-95.8625946,-108.0839691
1680,-10.6517487,-19.6131992,19.6126022,-250.1374054,250.1297760,250.1297760,0.9217629,4.1850433,8.0325060,4.4656487,-65.7862625,-93.2977066
1690,0.3303981,-19.6131992,19.6126022,-250.1374054,250.1297760,250.1297760,0.9002152,4.2855992,7.6781654,-4.0687022,-49.8549614,-82.5648880
1700,18.5166607,-19.6131992,19.6126022,-190.5190887,250.1297760,250.1297760,0.9864060,4.1826491,7.5345144,-15.0305347,-43.0381660,-73.8167953
1710,19.6126022,-19.6131992,19.6126022,-53.4274826,250.1297760,250.1297760,1.1061156,3.9552009,7.6254935,-24.9236641,-41.5877876,-66.5190811
1720,19.6126022,-16.0745888,19.6126022,105.2519073,250.1297760,250.1297760,1.2210367,3.7876077,7.6446471,-33.4351158,-42.2442741,-61.4656487
1730,19.6126022,-3.2632802,19.6126022,250.1297760,250.1297760,250.1297760,1.5203103,3.7923961,7.8625183,-40.9236641,-40.4198456,-55.9007645
1740,19.6126022,-0.7445929,8.6118994,250.1297760,113.5877838,65.1984711,1.6065011,3.7133877,8.0995426,-47.8854980,-31.9389305,-49.9694672
1750,19.6126022,2.8993635,-3.5026991,232.5496216,-110.0152664,-100.8778610,1.5035510,3.6559272,8.6933022,-51.2900772,-17.5114498,-42.7480927
1760,9.2703018,2.8826041,-3.6367738,95.8625946,-250.1374054,-132.6488495,1.5179161,3.5242469,9.4235296,-48.9771004,-2.4427481,-33.3206100
1770,6.2751703,1.2258250,4.4196739,31.3664131,-250.1374054,-88.4198456,1.6879035,3.4452386,9.5815458,-44.6793900,9.4045801,-24.8473282
1780,8.7579451,2.4540441,8.4467001,31.8931293,-250.1374054,-28.3587780,1.9799947,3.3949606,9.7204094,-41.5343513,18.3206100,-18.5419846
1790,12.9741125,5.3222833,8.7699156,33.5954208,-174.7786255,22.9007626,2.0733681,3.3494711,9.5336628,-40.7480927,24.5496178,-13.0916033
1800,15.2150736,6.8282285,7.5656385,23.9847336,5.7480917,45.9236641,2.1906834,3.2225790,9.3421268,-41.8320618,27.9160309,-10.0534353
1810,15.3754845,7.8433647,5.7987270,8.5496187,133.7099304,49.9312973,2.1499822,3.0382264,9.3636751,-44.3358765,26.7709923,-6.2137403
1820,15.7298250,7.9319496,5.6311336,-0.7328244,173.2824402,37.4045792,2.0829449,2.8921809,9.2056589,-48.7251892,21.4503822,-3.9541984
1830,14.6811695,6.5361371,5.1355362,1.2519084,165.0152740,13.6870232,2.1427996,2.8012016,8.8656836,-55.2519073,14.6717558,-0.7022901
1840,13.2207146,5.5856438,4.5417776,6.9694657,134.4198456,-9.2824430,2.4037662,2.8969693,8.7842808,-63.0458031,8.1374044,0.7251908
1850,11.4897156,4.5154414,4.0940638,9.9541988,94.7328262,-27.9694653,2.3965836,2.6814921,8.5424681,-72.4198456,2.7022901,1.2900764
1860,7.4531116,3.2608860,3.5050933,13.2595415,-15.1832066,-57.4122124,2.6336083,1.9967541,8.5616217,-97.5801544,-4.4427481,6.3893127
1870,6.0932121,2.9304879,3.2584918,13.2137403,-58.8244286,-62.3969460,2.6024840,1.8890154,8.6669655,-103.3893127,-1.5572519,8.1068707
1880,5.8753409,3.1268115,3.2177906,7.7480917,-81.3969498,-62.2595406,2.3534882,1.9488702,8.7747040,-109.2824402,1.1068702,10.4274807
1890,6.1051831,3.2944047,3.2752512,-5.4809160,-75.0000000,-58.0687027,2.1595588,1.9177457,9.0213060,-115.3587799,2.8015268,15.3969469
1900,6.0549049,3.1651185,3.1627243,-22.6030540,-43.6183205,-51.9160309,1.9105632,1.7429699,9.2200232,-120.6335907,5.6717558,21.7709923
1910,5.8202744,3.0645626,3.2704628,-41.6412201,-5.9694657,-43.2366409,1.4317253,1.3479286,9.6270361,-124.1908417,10.8320608,30.4351139
1920,5.4108682,2.9544299,3.5146701,-60.4198456,23.4809170,-29.4656487,1.3287752,0.9959828,10.1226330,-124.4274826,16.9847336,40.6106873
1930,5.3917146,2.4875629,4.1706781,-77.3053436,47.6641235,-11.4885492,1.2856797,0.7445929,10.7714586,-120.6183243,23.8702297,50.0610695
1940,6.0405402,2.1332228,4.9918852,-91.8854980,64.7938919,5.8702292,1.1947005,0.3351865,11.1353750,-115.1832047,32.5038185,58.9312973
1950,7.1562324,2.1571648,6.0477223,-104.0457993,71.9694672,17.6488552,1.1755470,0.0335187,11.4394369,-107.8320618,42.2824440,67.7251892
1960,8.6813307,2.1571648,7.5440907,-112.0992355,76.3816757,22.0000000,1.2521610,-0.1628049,11.6070309,-100.7175598,56.0381660,76.1908417
1970,10.8001890,2.1260402,9.6964674,-117.0534363,68.5648880,15.9770994,1.3024391,-0.2753318,11.7315283,-94.1832047,72.5267181,82.6335907
1980,13.5199881,2.5498118,13.5104113,-108.0152664,27.8702297,-9.1603050,1.1013272,-0.4165890,11.9709473,-88.2824402,87.8396912,87.8244247
1990,15.9979744,2.4684093,17.2692890,-70.3358765,-22.8244267,-53.2061081,0.9050036,-0.5123565,11.9134865,-82.4885483,98.7480927,92.1221390
2000,17.1184540,1.5442522,18.2006283,-13.9770994,-68.7938919,-106.6717529,0.7445929,-0.6560079,11.6429434,-81.0457993,110.3740463,93.9847336
2010,16.9173431,0.3064562,16.7401733,41.3282433,-110.2442780,-161.8549652,0.3447633,-1.2497669,12.0284081,-75.6946564,102.6641235,96.2290039
2020,14.7051115,1.1300575,14.4178085,81.4427490,-149.0686951,-205.3358765,0.8810617,-1.3790531,11.9086981,-71.2519073,100.3664093,96.7557220
2030,12.9453821,1.6687500,12.1624823,101.8778610,-188.6641235,-234.1908417,1.1659702,-1.5897418,11.8799677,-70.6946564,105.8549652,91.7251892
2040,12.0116482,2.0039365,10.4889441,107.5267181,-222.4809113,-250.1374054,1.0342898,-2.0135133,11.9924946,-68.2595444,94.3969498,84.4809189
2050,11.6644907,2.2601149,9.3301563,109.2061081,-247.5648804,-250.1374054,0.9385223,-2.6168492,12.5407648,-58.7328262,61.4351158,75.4427490
2060,11.5040808,2.3391230,8.6813307,109.0076370,-250.1374054,-250.1374054,1.3718705,-2.7485294,12.7801828,-46.4732819,36.1832047,65.5572510
2070,11.5375986,2.2505381,7.7906923,108.0534363,-250.1374054,-250.1374054,1.4101776,-2.6144550,13.0363617,-32.3664131,16.9847336,54.3053436
2080,10.3333216,2.1068866,6.6750002,105.5114517,-250.1374054,-250.1374054,1.2018831,-2.5330524,13.0579090,-18.6106873,-0.4427481,44.9771004
2090,9.1170731,1.7214222,5.5329719,98.5877838,-250.1374054,-250.1374054,1.0438666,-2.3127871,12.7322998,-6.9007635,-14.5954199,39.1984749
2100,7.7882981,1.4796091,4.7476778,85.2213745,-239.3282471,-250.1374054,0.9983770,-2.1619530,12.4042959,2.5038168,-25.0381680,36.0152664
2110,6.3900914,0.9241571,4.9416070,78.9007645,-212.5190887,-250.1374054,1.1037214,-1.9632354,12.2893744,10.3511448,-29.0992374,35.6259537
2120,4.8003497,0.2968795,5.5760674,91.9618301,-181.6793823,-250.1374054,1.3622938,-1.8746504,12.0284081,17.5877857,-27.9465656,36.1603050
2130,2.4013720,0.5434810,5.6550756,100.7633591,-186.5648804,-250.1374054,1.4532729,-1.7908537,11.9110928,24.0534344,-25.5801525,35.5114517
2140,0.8834559,0.9648584,5.6119800,109.3587799,-211.8396912,-250.1374054,1.4867916,-1.7453641,11.6237898,30.2442741,-20.8549614,36.2137413
2150,-1.8171898,0.0000000,4.7644372,115.5190811,-250.1374054,-250.1374054,1.7070571,-1.6232605,11.5471754,36.3206100,-14.5954199,36.2977104
2160,-1.5179161,0.2873027,3.7756367,119.4656525,-250.1374054,-250.1374054,1.6184721,-1.6280488,11.5160513,42.1984749,-8.4045801,35.9847336
2170,-1.4915800,0.1771700,2.7221935,105.5343475,-250.1374054,-250.1374054,1.5825592,-1.5131277,11.2886028,47.3206100,-3.5725191,35.0839691
2180,-1.6232605,0.0478838,2.2649033,72.5954208,-250.1374054,-250.1374054,1.5107336,-1.4436963,11.1473465,51.1068687,-0.2442748,35.8778610
2190,-1.3982066,-0.3016679,2.6120608,53.6106873,-250.1374054,-250.1374054,1.4796091,-1.3215926,10.8815908,52.7633591,2.5954199,35.9007645
2200,-1.8866212,-0.8547257,3.4955165,46.7175560,-250.1374054,-250.1374054,1.4556671,-1.1659702,10.8241301,53.2213745,5.7786260,35.6793900
2210,-2.1164634,-1.2018831,4.4388270,42.9465637,-250.1374054,-250.1374054,1.4820032,-1.0989330,10.7690639,53.9312973,9.0916033,34.8854980
2220,-2.6264257,-1.4413021,5.3486195,43.6412201,-250.1374054,-250.1374054,1.4317253,-0.9600700,10.9605989,55.8549614,13.3969469,34.2290077
2230,-3.1004753,-1.3287752,5.6454988,45.4580154,-248.7633514,-246.2442780,1.1109039,-0.8858501,11.1569233,58.5954208,19.3511448,34.1679382
2240,-4.9320302,-0.3567342,6.1746144,36.1984749,-145.6564941,-237.3893127,0.7110743,-0.8547257,11.4538021,61.1526718,24.0381680,35.2442741
2250,-8.5903521,0.7469871,6.7659793,27.3129768,-77.4809189,-216.0992432,0.4596844,-0.7302278,11.3843708,64.3358765,23.8702297,37.7862587
2260,-12.3755655,1.4341195,6.5074067,25.6106873,-19.7404575,-172.6717529,0.3902529,-0.5746055,11.3029680,67.0229034,20.7938938,38.6183205
2270,-15.8926296,1.3479286,5.7245069,21.4732819,52.9236641,-102.8320618,0.0909792,-0.3926471,11.5998478,69.7786255,23.1297703,39.2290077
2280,-18.8877602,1.7645177,4.7524662,8.2900763,135.0381622,-10.9541988,-0.2681492,-0.3710994,11.7985659,74.6793900,25.6641216,42.5038185
2290,-19.6131992,2.3415172,3.2991931,-11.2671757,221.2671814,98.4656525,-0.4141948,-0.2681492,11.8751793,80.7480927,23.6412220,45.8625946
2300,-19.6131992,2.1811066,2.3032103,-42.7557259,250.1297760,214.9160309,-0.6512195,-0.1197095,11.8751793,87.9618301,24.8167934,50.0458031
2310,-19.6131992,1.1827296,2.4181314,-80.6259537,250.1297760,250.1297760,-0.7493813,0.0430954,11.7889891,90.6717529,26.4351139,54.9541969
2320,-19.6131992,-0.3519458,3.6008608,-117.1679382,250.1297760,250.1297760,-0.6105183,0.1292862,11.5591469,97.2061081,26.5343513,60.7099228
2330,-19.6131992,-3.7588775,6.1961622,-148.3053436,250.1297760,250.1297760,-0.4716553,0.3016679,11.7578640,100.3969498,33.4580154,64.7938919
2340,-19.6131992,-8.5999289,8.7340031,-169.9160309,250.1297760,250.1297760,-0.6296718,0.3447633,12.1624823,104.6106873,45.4122124,69.4503784
2350,-15.3922443,-15.9788208,10.2543135,-184.1755676,250.1297760,250.1297760,-0.7900825,0.2154770,13.3835192,113.5496216,56.9847336,74.6564865
2360,-5.8394279,-19.6131992,10.8863792,-199.0152740,250.1297760,250.1297760,-0.4692611,0.0478838,13.9102411,128.8778687,63.1450386,80.5572510
2370,4.5968437,-19.6131992,11.0300312,-211.7862549,250.1297760,250.1297760,0.5267217,-0.4118006,14.7577839,146.3816833,72.1297684,84.1374054
2380,13.4888630,-19.6131992,13.8815107,-236.0534363,250.1297760,250.1297760,1.5298871,-1.2066715,15.8591108,172.5343475,83.4045792,82.7251892
2390,19.6126022,-19.6131992,19.6126022,-250.1374054,250.1297760,250.1297760,2.1404054,-1.1587877,15.9093885,195.5038147,90.4122162,71.3282471
2400,19.6126022,-17.5039196,19.6126022,-233.6259613,250.1297760,250.1297760,2.7820482,-1.4915800,15.4688578,220.6412201,91.1145020,59.7862587
2410,19.6126022,11.3987360,19.6126022,-200.4809113,250.1297760,250.1297760,3.4141142,-1.7070571,14.7146883,242.7557220,83.7099228,46.3282433
2420,19.6126022,6.9455438,19.6126022,-220.1145020,250.1297760,112.6030502,3.7493007,-1.6998745,13.3643656,250.1297760,72.5419846,29.5190830
2430,19.6126022,-3.7780309,17.5015240,-171.8167877,250.1297760,-75.4427490,4.1946201,-0.7829000,11.7291346,250.1297760,60.6946564,12.1679392
2440,4.2089849,-8.9446917,16.9269199,-113.6641235,250.1297760,-127.5496216,4.9296360,0.9624642,9.7156210,250.1297760,56.7633591,-8.7480917
2450,0.8858501,-5.2935529,19.6126022,-10.8396950,-16.8931293,-140.0839691,5.0110383,2.5234756,7.8912482,242.2671814,59.0839691,-31.3358784
2460,1.9943599,-1.8961980,19.6126022,84.7938919,-250.1374054,-170.9770966,4.8554163,2.4492557,6.8617468,224.5572510,56.7175560,-50.8167953
2470,4.2281384,0.1292862,19.1726685,131.9236603,-250.1374054,-174.2137451,3.5050933,3.2225790,6.2033448,205.5114441,44.7099228,-64.0229034
2480,7.0987716,1.4867916,16.3427372,141.3740387,-250.1374054,-153.9694672,2.3630650,3.8330972,5.4802995,182.0458069,23.0687027,-69.9083939
2490,7.4076223,2.3439114,12.5647058,126.6946564,-250.1374054,-129.3206177,1.8531027,4.3526363,4.9966736,154.8167877,-14.2137403,-76.6106873
2500,5.7388721,2.2481439,8.6334467,95.8015289,-158.8549652,-98.1755753,1.7333932,4.6231799,4.7788019,128.8549652,-59.0534363,-89.1145020
2510,3.4643922,1.8363433,6.0716643,59.6946564,-24.1908398,-60.5801544,1.8985922,5.1331420,4.5944495,103.9236679,-94.7938919,-102.5419846
2520,1.9536586,1.4843974,5.0469513,27.3511448,49.5877876,-20.7480907,1.7549409,5.1810260,4.5178356,80.7786255,-119.6641235,-116.7480927
2530,1.7022687,1.3862357,5.3534074,6.0152674,73.3740463,12.4580154,1.3694763,4.8961172,4.3095412,60.8015251,-133.0839691,-127.9770966
2540,2.2194135,1.4508789,6.0788469,-4.0610685,64.5877838,34.9541969,0.9935886,5.1738434,4.2089849,41.5725174,-130.0992432,-135.8931274
2550,3.0071020,1.4748207,6.8090749,-3.3053436,34.7938919,47.3129768,0.2274480,5.5832496,4.4938936,24.1603050,-115.1297684,-142.1297760
2560,4.1227942,1.4820032,7.0915890,2.0076337,0.5267175,51.6946564,-1.1109039,5.8992829,4.8554163,10.0381680,-90.4961853,-143.5038147
2570,5.3366485,1.6280488,7.2496057,7.6183205,-20.0076332,50.6259537,-2.6695213,6.1865854,5.2289100,-1.5496184,-64.4351120,-138.6870270
2580,6.3374195,1.6567791,7.3860745,12.9160309,-27.1984730,46.4122124,-3.7923961,6.5385313,5.7053533,-11.0763359,-42.8702278,-129.3893127
2590,8.1905222,2.0135133,5.7747850,-2.6183207,-17.5801525,29.5801525,-5.6718349,5.9950504,6.8809004,-26.8931293,-2.0687022,-92.2213745
2600,8.6190825,2.1188576,5.4060798,-21.1755733,-5.3740458,24.0458012,-5.8011212,5.7484488,6.9048424,-30.0992374,-6.6793895,-81.1908417
2610,9.0859489,2.1787124,5.8849177,-42.0152664,23.5267181,21.0000000,-5.4252334,5.5760674,6.7180958,-36.9465637,-21.4427490,-71.4580154
2620,9.0907373,2.1930776,6.5313487,-63.2290077,54.8320618,20.7022896,-5.0948353,5.5449429,6.6438756,-46.0381660,-38.1908379,-64.6488571
2630,8.8201942,2.0781565,7.5752153,-82.7480927,76.4427490,23.0000000,-5.0110383,5.5617023,6.6797886,-55.6870232,-51.6259537,-57.3053436
2640,9.0069408,1.9728121,9.5145092,-98.3358765,75.4427490,30.9847336,-4.9392128,5.4946647,6.5361371,-66.5114517,-63.0152664,-48.7862587
2650,11.0108776,0.6775556,11.9565821,-98.2366409,67.2519073,28.1221371,-4.7189474,5.4395986,6.7611909,-77.5496216,-72.0916061,-38.8625946
2660,12.6006193,-0.3615226,14.1592360,-81.9542007,55.8549614,14.7862597,-4.3670015,5.3653784,7.0030041,-88.8473282,-76.0839691,-29.8320618
2670,14.0754395,0.3734936,17.6954536,-44.2519073,44.6259537,-5.8625956,-3.8785870,5.2624283,7.3669209,-99.1832047,-75.7099228,-21.3435116
2680,15.3323889,-1.1156923,19.4456062,8.1068707,3.1450381,-40.2137413,-3.4763632,4.9847026,7.6159167,-108.2519073,-71.9847336,-12.7251911
2690,15.9357252,-1.4269369,19.0218353,63.7022896,-25.2137413,-87.2366409,-3.0047078,4.6758518,7.9630742,-116.5267181,-64.8625946,-5.3587785
2700,14.4297800,-0.6895266,17.6236286,118.7938919,-44.0992355,-131.7633514,-2.4612267,4.3358769,8.2791071,-122.6335907,-55.4732819,1.0534351
2710,11.6884327,-0.8978211,15.9453020,159.5801544,-130.8167877,-160.5496216,-2.1954718,4.0557570,9.3924055,-123.4732819,-41.2519073,7.9618320
2720,12.9573536,0.0191535,16.9173431,197.8091583,-173.8778687,-195.3129730,-1.8578910,3.8307030,10.0939026,-116.0152664,-28.0381680,14.0839691
2730,11.1449518,-1.7142396,13.2614155,231.8778687,-224.4809113,-228.3435059,-1.4652439,3.5936785,10.5152798,-104.9694672,-16.1832066,17.8931293
2740,12.1960011,-0.7685348,11.0922794,245.5419922,-232.1068726,-250.1374054,-1.3910241,3.3470769,10.7858238,-94.7938919,0.6030535,22.7709923
2750,11.6980095,-1.1707586,7.3549500,235.8778687,-250.1374054,-250.1374054,-1.2090657,3.2560976,10.7738523,-86.3282471,18.6946564,26.4580154
2760,11.2359314,0.7900825,5.3079181,211.5038147,-250.1374054,-250.1374054,-1.0725969,3.1172347,10.6804790,-79.7404556,33.3129768,29.3816795
2770,9.9478569,1.8124014,3.7349355,176.9160309,-247.6717529,-250.1374054,-0.9289455,3.0166788,10.4219065,-75.7862625,43.4809151,30.9007626
2780,9.1505919,1.8746504,3.6678982,139.6946564,-250.1374054,-250.1374054,-0.8068419,2.8993635,10.0986910,-75.2213745,48.9007645,29.8854961
2790,8.0396881,0.9241571,4.6495161,114.5114517,-250.1374054,-250.1374054,-0.7493813,2.8395088,9.7467451,-78.7099228,50.2519073,27.2900772
2800,6.4930420,-0.0071826,5.8561873,106.3129807,-250.1374054,-250.1374054,-0.7038917,2.8131726,9.3995876,-84.5343475,46.1450386,24.0458012
2810,5.2241216,-0.1747758,5.9208307,107.5114517,-250.1374054,-250.1374054,-0.9385223,2.6000898,9.8999729,-89.8091583,39.1068687,20.2366409
2820,3.7828193,-0.3280039,5.3342543,107.6641235,-250.1374054,-250.1374054,-0.9864060,2.3343346,10.1537571,-92.5114517,34.1374054,16.9007626
2830,1.9847831,-0.3184272,4.8386569,100.9312973,-250.1374054,-250.1374054,-1.0678085,2.1547706,10.4147243,-93.1679382,32.3053436,12.9694653
2840,0.7350162,-0.3280039,4.5274124,93.4122162,-250.1374054,-250.1374054,-1.0917504,2.0781565,10.7139978,-91.2900772,31.6641216,10.6259546
2850,-0.1651991,-0.2537841,4.6303625,85.1526718,-250.1374054,-250.1374054,-1.1707586,1.9225341,10.6517487,-88.7862625,32.0763359,8.5267172
2860,-0.6129125,-0.2154770,4.4555864,78.3511429,-250.1374054,-250.1374054,-1.4628497,1.8363433,10.8456783,-85.4885483,33.9312973,7.1068702
2870,-1.1013272,-0.2418131,4.6973996,75.5038147,-250.1374054,-250.1374054,-1.7884595,1.7788827,11.3604288,-79.4732819,36.0610695,8.7022905
2880,-2.1547706,-0.4908088,4.8290801,74.3206100,-250.1374054,-250.1374054,-2.1188576,1.7166338,11.6261835,-71.0457993,37.1297722,10.0305347
2890,-3.8498566,-0.7805058,5.1499014,72.5877838,-250.1374054,-250.1374054,-2.3199697,1.5825592,11.6597023,-62.8015251,38.4045792,12.5267172
2900,-5.7723908,-0.9097920,5.9878678,71.9923630,-246.5725250,-250.1374054,-2.6671271,1.5131277,11.6884327,-54.9847336,38.5190849,15.3816795
2910,-7.6326761,-0.9050036,7.0437055,78.1374054,-213.4809113,-250.1374054,-2.8442972,1.4293311,11.7746239,-47.8244286,36.2061081,17.0992374
2920,-9.9646168,-0.7613522,7.1825686,88.0687027,-169.5343475,-250.1374054,-2.9113343,1.3575054,11.7578640,-39.7786255,34.2900772,20.6793900
2930,-12.1936073,-0.0287303,6.2655940,92.1984711,-104.0381699,-201.3664093,-2.9496415,1.4006008,12.0523500,-29.1145039,39.5267181,23.8320618
2940,-14.6668043,0.4046180,3.8402798,83.4809189,-0.7633588,-129.9084015,-3.1938488,1.3072275,11.9709473,-17.9465656,48.7938919,29.0152664
2950,-17.1687317,1.0127422,1.6998745,61.0076332,116.5954208,-43.8015251,-3.2345500,1.3072275,11.5902710,-8.0458012,60.5114517,35.7175560
2960,-19.6131992,1.5155219,-0.3495516,27.8320618,232.6106873,54.8167953,-3.1315999,1.4245427,11.4585905,0.4656489,75.7328262,42.5419846
2970,-19.6131992,1.3287752,-1.5418580,-13.1297712,250.1297760,156.1679382,-3.0597742,1.3862357,11.5495701,9.3511448,90.1984711,48.1297722
2980,-19.6131992,0.4548960,-1.1563935,-54.5038185,250.1297760,250.1297760,-5.0254035,2.1882892,12.5599174,13.8778629,53.1526718,54.9771004
2990,-19.4982796,-1.0797794,-0.4118006,-83.0610657,250.1297760,250.1297760,-3.9695661,1.7477583,13.1704359,19.5114498,34.2748108,57.1755714
3000,-16.9724083,-2.6288199,0.2633608,-100.6183243,250.1297760,250.1297760,-3.1339941,1.3503228,13.1632538,33.5038185,41.8091621,59.4885483
3010,-14.7984848,-4.6590929,0.8523315,-117.4580154,250.1297760,250.1297760,-2.8514795,1.1276633,12.6676559,50.0152664,57.9847336,65.6183243
3020,-12.3085279,-7.5105724,2.0135133,-134.7862549,250.1297760,250.1297760,-2.6647329,1.0510491,11.9398232,64.9389343,75.3893127,72.0992355
3030,-9.9670105,-11.4968977,4.4005203,-154.1145020,250.1297760,250.1297760,-2.2601149,0.9121862,11.1210098,75.3206100,77.7480927,74.0381699
3040,-5.7364779,-17.0801468,7.4315639,-175.3511505,250.1297760,250.1297760,-1.1037214,1.0103480,10.1872759,78.2442780,71.8473282,64.1450348
3050,3.6200144,-19.6131992,9.2726955,-199.3282471,250.1297760,250.1297760,-0.0622489,1.4604555,8.8082228,71.3740463,69.3587799,45.6870232
3060,12.7610302,-19.6131992,9.7395630,-230.5038147,250.1297760,250.1297760,-0.1843526,1.8866212,7.9989872,57.2290077,68.4961853,26.1374054
3070,19.6126022,-19.6131992,16.2038746,-250.1374054,250.1297760,250.1297760,-1.0630201,2.1332228,7.3860745,41.6717567,53.2366409,12.5190840
3080,19.6126022,-15.8854465,19.6126022,-214.2137451,250.1297760,250.1297760,-1.5993185,2.2936335,7.2543941,24.4809170,28.5801525,4.5877862
3090,19.6126022,-4.8506279,19.6126022,-47.4580154,109.7099228,250.1297760,-1.5634058,3.2249732,7.3357964,5.4045801,18.7709923,-7.8702292
3100,19.6126022,1.3503228,19.6126022,153.3282471,66.8473282,245.8931274,-2.7437410,3.2010312,8.3700867,-7.9007635,19.2519093,-13.9694653
3110,19.6126022,-0.5027798,15.9285421,237.3435059,16.0229015,-13.6412210,-4.0533628,3.0765336,9.4115591,-11.7404585,23.9083977,-14.1374044
3120,16.9915619,-0.3280039,1.8746504,207.6412201,-96.8854980,-91.3358765,-4.8841467,3.2800395,10.1920643,-10.5954199,35.7862587,-9.3129768
3130,8.4323349,1.7884595,-2.3870070,127.6946564,-207.1450348,-69.1526718,-5.1690550,3.0262554,10.3764172,-6.4885497,46.4198456,-3.0305343
3140,8.5831690,2.1547706,-1.4101776,57.5038185,-247.0000000,-28.6030540,-4.9487896,2.8754215,10.4650021,-0.8778626,58.1374054,3.0000000
3150,14.9493189,4.0222383,4.2520804,-23.8015270,-59.2290077,14.0610685,-4.0150557,2.4827745,9.9550400,8.6259546,70.2824402,7.9770994
3160,15.5335016,5.0230093,8.3533268,-10.2977095,70.2824402,-20.6793900,-3.5242469,2.1427996,9.3804340,13.3969469,67.1908417,2.4732823
3170,13.6061783,5.2121506,7.3764977,17.5496178,84.0610657,-40.5954208,-3.7301471,2.1619530,9.3253679,15.1068707,58.1603050,-1.7786260
3180,11.0443964,5.3486195,5.0254035,41.3816795,72.2366409,-48.9771004,-3.9240766,2.2816625,9.0404596,16.6335869,46.3053436,-5.7938933
3190,10.0316534,5.1834202,2.9927368,58.4961815,57.7175560,-52.3129768,-4.2305326,2.4372849,9.0380650,17.6717548,36.3740463,-8.3206110
3200,9.3373384,4.4340386,0.9409165,64.7099228,51.1755714,-54.4122124,-4.5106530,2.4923513,8.9135675,17.9160309,29.8167934,-8.5648851
3210,7.9989872,4.6830344,-1.4341195,45.7557259,48.0763359,-45.6870232,-4.8218975,2.6407909,8.9279327,17.9236641,27.2595425,-7.6641221
3220,6.6079631,5.0373745,-2.7102225,-9.7328243,32.3511467,-23.8549614,-5.0182209,2.8371146,8.7124557,16.9236641,25.6793900,-5.9312978
3230,7.5440907,4.2425036,-1.1228749,-43.6717567,71.0916061,-2.8396947,-5.1235652,2.8706331,8.5951405,15.5648851,25.3664131,-4.6946564
3240,7.1945391,3.0166788,2.3367288,-57.8320618,115.0305328,16.2290077,-5.0517397,2.9137285,8.4155760,14.3282442,24.5267181,-2.7022901
3250,6.9503322,2.3295465,4.2472920,-61.7404594,143.0763397,33.0916023,-5.0637107,3.0573800,8.3868456,13.0458012,26.6564884,-0.1679389
3260,7.7021074,1.9967541,5.4850879,-58.3587799,154.5801544,36.9847336,-4.9990678,2.9903426,8.4490948,12.3664122,28.7557259,2.6412213
3270,8.7507620,1.3287752,7.3310080,-45.3740463,149.5267181,24.9007626,-4.8841467,2.7605004,8.5999289,11.8854961,32.2748108,8.0763359
3280,8.5568333,2.0853391,7.4770536,-21.3587780,146.8015289,16.8091602,-4.8482337,2.5306582,9.1625633,12.0152674,42.4427490,13.7099237
3290,9.2415714,2.1116750,5.8226686,-6.4885497,132.6259613,10.1984730,-4.9104824,2.5091105,9.6773138,13.1603050,59.5190849,20.6259537
3300,9.5623922,2.8778157,3.6583214,-19.0763359,94.8167953,-8.6488552,-5.1115947,2.4468615,10.0675669,19.2748089,99.8015289,30.2137413
3310,9.0667953,3.4189026,3.6439564,-33.5954208,79.8854980,-14.2977095,-5.0349803,3.0262554,9.4211359,20.8931293,111.5190811,30.4809170
3320,8.7268209,3.3207407,4.6159973,-46.1068687,57.7404594,-18.4198475,-5.0900469,3.1962428,8.7076674,19.2366409,113.1450348,25.6641216
3330,8.5472565,3.0118904,6.2799587,-49.7099228,32.5725174,-21.6335869,-5.1068063,3.3303175,8.1043310,17.1068707,117.4885483,22.4274807
3340,8.8704720,2.6599445,7.7428088,-41.6335869,6.4656487,-23.6259537,-5.2720051,3.4859397,7.6230993,16.5114498,113.1297684,21.2595425
3350,9.2894554,2.4037662,7.7188668,-33.2061081,-14.7786255,-24.4885502,-5.3414369,3.6343796,7.2855186,16.7709923,97.8396912,19.3587780
3360,10.0196829,2.7413468,7.8385763,-31.8320618,-31.4656487,-25.4961834,-5.3558016,3.5984666,7.1705976,17.5572510,74.8778610,17.0000000
3370,11.2215662,2.9903426,8.0995426,-32.9465637,-45.5648842,-29.2137413,-5.3749552,3.5625539,7.1658092,18.4885502,56.4885483,11.9770994
3380,12.2678270,2.9735832,8.8848372,-32.4503822,-59.6564903,-36.7251892,-5.5305777,3.7014170,6.9192076,19.5496178,42.0916023,6.5267177
3390,13.1321287,2.9472473,10.1010857,-28.0152664,-79.4885483,-49.4656487,-5.7580256,3.7325413,6.7372489,18.8320618,32.1679382,2.1145039
3400,13.5654774,3.5386121,9.9717989,-20.2213745,-96.1679382,-62.9541969,-6.0716643,3.8929520,6.3948798,16.5877857,27.3129768,-0.7938932
3410,13.8432035,3.4619980,8.9710283,-18.1679382,-105.6870193,-74.5877838,-6.3182659,3.9049230,6.0884237,12.1832066,24.5419846,-2.7022901
3420,14.7936964,3.4093258,8.7531567,-21.6564884,-121.6030502,-88.4122162,-6.4547348,3.9695661,5.9735026,6.1908398,20.8549614,-2.2442749
3430,15.5287132,3.2680686,8.5448618,-22.6946564,-137.7633514,-105.5648880,-6.5002246,4.0054789,5.9064655,-0.0687023,16.2900772,-2.6259542
3440,15.9405136,3.3255291,8.6382351,-21.8015270,-155.9465637,-124.7557220,-6.4762826,3.9671719,6.0189924,-5.2824426,11.0000000,-1.5725191
3450,16.3906212,3.5912843,8.6789370,-21.6488552,-167.1908417,-144.1679382,-6.3853035,3.8283088,6.2727766,-10.0610685,1.9694656,-1.5954199
3460,17.3482971,3.1387823,9.1027079,-18.9465656,-174.1526642,-168.2977142,-6.2344694,3.6559272,6.4236102,-13.0992365,-7.7557254,-2.7251909
3470,17.4943428,2.7557120,9.3612804,-12.7022905,-170.4656525,-196.5496216,-6.0213866,3.6032550,6.7659793,-14.1679392,-18.0610695,-4.6183205
3480,16.8359394,2.6431851,9.9694052,1.2442749,-150.5496216,-222.0610657,-5.8609757,3.5242469,7.0149751,-13.7251911,-28.2824421,-7.1526718
3490,15.4449158,1.6184721,10.8528605,27.2442741,-141.2824402,-245.7328186,-5.9926562,3.4189026,7.3046722,-12.4198475,-40.5343513,-10.7175570
3500,13.5918131,1.2234308,10.4793673,58.6259537,-139.1221313,-250.1374054,-5.7771792,3.3111639,7.4914188,-11.1374044,-53.8473282,-13.3206110
3510,11.7291346,1.0366840,8.7555504,82.3206100,-149.7938995,-250.1374054,-5.7340837,3.3063757,7.4028339,-9.0687027,-62.7022896,-15.7557249
3520,10.3931761,1.2713146,6.5983863,91.5572510,-174.3664093,-250.1374054,-5.7316895,3.3494711,7.4770536,-6.8320613,-69.9770966,-18.0381680
3530,9.3301563,1.3479286,4.9416070,87.8854980,-197.8778687,-250.1374054,-5.8753409,3.4596038,7.5201492,-4.9541984,-74.9618301,-17.8778629
3540,8.0205345,1.2258250,4.0366035,79.7328262,-214.3664093,-250.1374054,-6.0070214,3.5098817,7.5033898,-3.0152671,-79.0305328,-15.7175570
3550,6.1171541,1.1276633,3.0406206,69.0152664,-225.1679382,-250.1374054,-5.9304070,3.4524212,7.6518297,-1.8549619,-84.6946564,-13.8091602
3560,3.7947903,1.2210367,2.4133430,54.8244286,-233.0152740,-250.1374054,-5.7771792,3.3518653,7.6949248,-1.0076336,-92.6259537,-12.8396950
3570,2.6623387,1.0079538,2.8395088,42.3816795,-250.1374054,-250.1374054,-5.3917146,3.2177906,7.5752153,-1.1526718,-102.1832047,-13.7480917
3580,1.7669119,1.0678085,3.5888901,37.5572510,-250.1374054,-250.1374054,-5.2983413,3.2967989,7.6829538,-1.5038168,-111.2595444,-15.5648851
3590,0.8571198,1.1563935,3.5481887,37.0228996,-250.1374054,-250.1374054,-5.3103123,3.3231349,7.7667508,-2.8015268,-118.6335907,-16.2213745
3600,-0.0646431,1.9225341,2.9711890,32.7786255,-250.1374054,-250.1374054,-5.2983413,3.2489152,7.6973190,-7.6946564,-117.4580154,-14.8167934
3610,-0.5937590,2.3391230,3.3087699,24.3435116,-250.1374054,-250.1374054,-5.1810260,3.3159523,7.7212610,-15.5648851,-107.6488571,-12.1603050
3620,-0.6081241,1.9656296,4.0629396,16.9694653,-250.1374054,-250.1374054,-5.0158267,3.2991931,7.8888540,-25.2213745,-93.8702316,-9.2595415
3630,-0.9792235,1.9871773,4.3191175,14.0992365,-250.1374054,-250.1374054,-4.7979555,3.2393384,8.0732069,-33.5267181,-81.0076370,-7.0534353
3640,-1.5394639,1.6184721,4.4962878,10.8320608,-250.1374054,-250.1374054,-4.5106530,3.1268115,8.4490948,-38.8549614,-72.9618301,-5.5954199
3650,-1.9057748,0.7302278,5.2025738,7.8091602,-250.1374054,-250.1374054,-4.2233500,2.9304879,8.7555504,-40.7633591,-71.5190811,-6.5419846
3660,-2.8993635,-0.0526722,5.6598639,5.5954199,-239.4351196,-250.1374054,-3.9216824,2.6719155,8.7028790,-40.8091621,-74.9465637,-7.8091602
3670,-4.5250182,-0.1292862,5.8705525,5.7786260,-183.8473358,-250.1374054,-3.7947903,2.7413468,8.8561068,-40.4961815,-80.3969498,-9.7480917
3680,-6.9479380,0.0861908,5.7340837,5.7938933,-131.7709961,-227.3664093,-3.9192882,2.8514795,9.2343884,-39.6412201,-83.8167953,-10.6793890
3690,-9.6342182,0.0550664,5.4324160,5.1145039,-83.1221390,-190.2977142,-4.2425036,2.8371146,9.4378948,-38.4732819,-83.4885483,-10.5572519
3700,-12.8448267,0.3998296,4.6686692,3.8549619,-21.9923668,-134.1374054,-4.3119354,2.7078283,9.8760319,-37.2366409,-77.7862625,-8.4732828
3710,-15.7801027,0.6057299,4.0150557,-4.5190840,46.7557259,-60.1145020,-4.3334827,2.6743097,10.0316534,-35.6870232,-68.7938919,-5.6259542
3720,-19.3211098,1.2761030,3.8474624,-17.3893127,109.2748108,30.4885502,-4.1706781,2.4971397,10.2303715,-32.9389305,-60.0458031,-2.0916030
3730,-19.6131992,1.2354017,4.0150557,-32.4122124,176.3740387,143.4198456,-3.8474624,2.4468615,10.2519188,-29.5572510,-53.2671738,-0.1984733
3740,-19.6131992,0.2513899,4.7357068,-50.4274826,242.6106873,250.1297760,-3.5936785,2.3032103,10.4721851,-25.4045811,-47.5038185,0.8244275
3750,-19.6131992,-1.5586174,6.2991123,-68.7557220,250.1297760,250.1297760,-3.4572096,2.3917952,10.5152798,-20.6488552,-41.1450386,0.7633588
3760,-19.6131992,-4.1970143,8.5592270,-82.4885483,250.1297760,250.1297760,-3.2704628,2.3175755,10.6134415,-15.9007635,-34.5572510,0.8167939
3770,-16.7090473,-7.8577299,12.1122046,-83.5267181,250.1297760,250.1297760,-3.1818779,2.2912393,10.5535870,-10.8244276,-27.2061062,0.5190840
3780,-11.9278517,-13.0315733,15.9907913,-63.6412201,250.1297760,250.1297760,-3.1148405,2.3558824,10.6302013,-5.5496182,-19.4427490,0.3206107
3790,-4.7907729,-17.8654423,18.1647148,-36.0839691,250.1297760,250.1297760,-3.0885043,2.2936335,10.4482431,-1.2137405,-12.6717558,-0.0763359
3800,9.1051025,-19.6131992,16.3906212,-16.6488552,250.1297760,250.1297760,-3.1076579,2.2625091,10.1705170,2.0916030,-7.1755724,-0.4351145
3810,19.6126022,-19.6131992,10.0268650,-27.1755733,250.1297760,250.1297760,-2.9999194,2.2625091,9.9957409,4.0534353,-3.8167939,-0.6793893
3820,19.6126022,-13.7522240,1.7884595,-75.1221390,250.1297760,250.1297760,-3.0669568,2.3726418,9.7299862,5.2595420,1.3893130,-1.5114504
3830,19.6126022,6.8473821,4.1108232,-82.7709961,250.1297760,250.1297760,-3.3183465,2.4468615,9.5863342,5.0534353,-1.6259542,-2.4045801
3840,19.6126022,15.2078915,8.8848372,-70.9389343,49.7099228,86.8396912,-3.2249732,2.3606708,9.3110027,3.4580152,-5.0381680,-3.0763359
3850,19.6126022,7.8864598,12.7897596,-40.3129768,-201.9847260,-210.2824402,-3.2872221,2.5043221,9.3325500,1.5801526,-6.4503818,-4.6335878
3860,19.6126022,1.0462608,17.0825424,14.9236641,-250.1374054,-250.1374054,-3.4979107,2.5043221,9.3564920,0.2061069,-8.0458012,-5.2748094
3870,12.9932661,0.2178712,17.7289734,84.3893127,-250.1374054,-250.1374054,-3.7205703,2.5426292,9.4833841,-0.6335878,-9.1297712,-5.3282442
3880,4.8195033,2.2289903,13.2781744,129.3206177,-250.1374054,-250.1374054,-3.8283088,2.4875629,9.4355011,-0.7786260,-10.6946564,-4.2977099
3890,2.2625091,5.0397687,7.3549500,136.0763397,-182.8854980,-174.3206177,-3.7900019,2.4851687,9.4139528,-0.8396947,-11.6641226,-3.5114503
3900,1.7477583,6.4499464,1.7238164,112.0229034,-40.4503822,-93.8320618,-3.9001346,2.4420733,9.5192976,-1.1526718,-12.1984730,-2.1679389
3910,1.5753766,6.7468257,-1.8004304,71.9770966,77.3893127,-25.9160309,-3.7732425,2.3774302,9.4666252,-1.6335878,-11.6106873,-1.0916030
3920,1.5346755,6.9646969,-3.4212968,29.0687027,145.8854980,28.1145039,-3.6583214,2.3343346,9.4905672,-1.9541985,-10.9236641,-0.7404580
3930,1.7669119,7.1107426,-3.0262554,-4.4198475,166.9389343,64.4961853,-3.4667864,2.3391230,9.4809904,-2.7633588,-9.6106873,0.3587786
3940,1.9105632,6.6845770,-1.6280488,-27.2748089,163.6183167,89.9542007,-3.4212968,2.3654592,9.4426832,-3.3435113,-7.5725193,0.8854962
3950,2.8179610,5.8801293,0.2059003,-35.1221390,146.4961853,106.2519073,-3.4212968,2.3271523,9.6773138,-3.6717558,-6.0000000,1.4503816
3960,4.0150557,5.3055239,1.7477583,-30.2977104,125.3740463,118.2137375,-3.2991931,2.3367288,9.8065996,-3.5877862,-5.8625956,1.4427481
3970,5.3198891,4.9823084,1.8483143,-20.3664131,110.2519073,122.7709961,-3.2800395,2.2696917,9.9334917,-2.8320611,-4.9389315,1.2748091
3980,6.2320752,4.5752959,1.3742647,-11.4885492,100.9770966,122.0381699,-3.2058196,2.2744799,9.9310980,-1.7022901,-4.3893127,0.3511450
3990,6.9670911,4.3550305,1.1204807,-7.3893127,86.4656525,121.3816757,-3.2417326,2.3415172,9.8736372,-0.1068702,-5.1297708,-0.8091603
4000,9.1577749,3.2034254,1.7429699,-54.0381660,125.9694672,108.8320618,-2.7988074,2.7365584,9.5073261,-5.0000000,-11.4427481,-0.1832061
4010,8.6334467,3.0071020,2.5115047,-74.8015289,178.0229034,119.4427490,-2.8586621,2.7389526,9.8856087,-5.0687022,-8.6564884,-1.8625954
4020,8.4993725,2.7413468,3.2297616,-94.6641235,221.2977142,130.3282471,-3.0813217,2.5043221,10.0579901,-3.4351146,-9.2213745,-2.7557251
4030,13.1584654,2.0781565,3.0908985,-116.7099228,247.1297760,129.4732819,-3.1196289,2.3726418,10.0436249,-1.5572519,-9.4580154,-3.4351146
4040,7.1394730,2.5785420,5.0301919,-135.1450348,250.1297760,123.6183243,-3.1387823,2.3534882,9.9263096,0.5648855,-8.0229006,-4.3206105
4050,4.8434453,1.7405758,6.1458845,-140.5419922,250.1297760,165.3435059,-3.1794837,2.2984219,9.9071560,1.7633588,-6.9083967,-4.3206105
4060,9.4977493,1.4700323,7.0317345,-161.7175598,250.1297760,172.6488495,-3.3518653,2.2625091,9.7228031,2.0381680,-5.6641221,-4.8931298
4070,7.7571740,4.1730723,7.6015515,-170.3206177,250.1297760,178.3664093,-3.3925664,2.2505381,9.6030941,1.5725191,-5.6717558,-5.6183205
4080,10.4937325,0.8236012,8.2431946,-190.1450348,244.5038147,176.3664093,-3.4572096,2.0901275,9.5121145,0.8320611,-6.0610685,-4.7175574
4090,13.5247765,-1.1252691,11.4226780,-204.7557220,183.7938995,139.8091583,-3.5745249,2.1451938,9.6270361,-0.0763359,-7.6030536,-4.4961834
4100,14.3364067,-1.9991482,15.7848911,-191.7099304,69.6335907,95.5801544,-3.5194585,2.0805507,9.5839405,-0.6335878,-9.0229006,-4.2290077
4110,15.9405136,-1.3503228,17.9061432,-147.5954132,-21.0152664,55.6641235,-3.4691806,2.1212518,9.5432396,-1.2290076,-10.2213745,-3.2366412
4120,18.9859219,-1.4460905,19.6126022,-76.7862625,-49.8702278,5.3893127,-3.5362179,2.1547706,9.5025377,-2.2671757,-12.0534353,-3.6564887
4130,19.6126022,-2.3343346,19.6126022,10.7786255,-54.2061081,-62.6106873,-3.4572096,2.2529323,9.4929609,-3.6793892,-13.2137403,-3.1679389
4140,18.9619808,-2.6407909,18.6579189,87.1603088,-77.7480927,-129.2061005,-3.5098817,2.4253139,9.5671806,-4.6488547,-12.7786255,-2.1755726
4150,16.7186241,-1.3718705,15.4760408,140.2137451,-123.5190811,-180.1221313,-3.3805954,2.4229198,9.7946291,-4.5572519,-10.9312973,-1.3435115
4160,15.2438040,-1.3527170,12.2151546,165.3435059,-184.0839691,-223.5190887,-3.3446827,2.4588325,9.9239149,-3.7862597,-8.8015270,-0.6183206
4170,14.4800577,-0.9097920,9.5767574,169.4656525,-242.6412201,-250.1374054,-3.2584918,2.4564383,9.8353300,-2.4656489,-7.5648856,0.9618320
4180,14.2669754,-0.1843526,7.6709828,161.0686951,-250.1374054,-250.1374054,-3.1507533,2.4660151,9.8568783,-1.8473282,-6.6335878,0.4351145
4190,14.2669754,0.5315101,6.8042865,145.8396912,-250.1374054,-250.1374054,-3.0478032,2.5689652,9.7395630,-1.5419847,-6.7480917,0.6335878
4200,13.5989962,0.9337339,5.6143742,128.0458069,-250.1374054,-250.1374054,-2.8921809,2.5641768,9.7826586,-1.7786260,-6.7938933,0.8931298
4210,12.8208847,0.8954269,4.8003497,105.4427490,-250.1374054,-250.1374054,-2.7916248,2.5641768,9.7323799,-2.2290077,-7.9923663,-0.1984733
4220,11.7051926,1.1013272,4.3837609,81.7557220,-244.2061005,-250.1374054,-2.7413468,2.5162930,9.6773138,-2.7099237,-8.8702288,-0.6030535
4230,10.6134415,0.9792235,4.6112089,64.3282471,-228.3511505,-250.1374054,-2.7245877,2.4899571,9.6725254,-3.0763359,-9.5496187,-1.7709924
4240,9.1074963,0.9744351,4.9440012,56.0305328,-219.4580078,-250.1374054,-2.7605004,2.4420733,9.8640604,-3.1297710,-9.3969469,-3.1374047
4250,7.9582858,1.1803354,4.8242917,53.9312973,-218.9389343,-250.1374054,-2.8993635,2.3463056,9.9047613,-2.7938931,-9.4809160,-4.2519083
4260,6.8904772,1.5418580,3.9911139,51.8702278,-217.2442780,-250.1374054,-3.0023136,2.2984219,9.8185711,-2.6030533,-9.8015270,-4.7862597
4270,5.9974446,1.8363433,3.0789278,45.0763359,-213.8778687,-250.1374054,-3.0741394,2.2960277,9.8975792,-2.1526718,-9.4809160,-4.5648856
4280,4.8649931,2.1164634,2.5546002,35.8778610,-213.6259613,-250.1374054,-3.1004753,2.2984219,9.9071560,-1.6793894,-8.4503813,-4.3816795
4290,3.2153964,2.2265961,2.5833304,27.4274807,-221.3587799,-250.1374054,-3.0932927,2.2888451,9.8473015,-0.6641222,-7.4809160,-4.0839696
4300,1.8291607,2.3463056,2.8538737,22.8396950,-235.3969421,-250.1374054,-3.2584918,2.2768741,9.7994175,-0.1068702,-6.7633586,-3.3587787
4310,1.2928623,2.9424589,2.8993635,21.1450386,-246.8244324,-250.1374054,-3.0789278,2.2529323,9.8736372,0.3282443,-6.8244276,-4.4732823
4320,0.8954269,3.4883339,3.1172347,19.2061062,-250.1374054,-250.1374054,-3.0501974,2.2936335,9.7419567,0.2213740,-7.6335878,-4.4656487
4330,0.4213773,3.6535332,3.0789278,16.8854961,-250.1374054,-250.1374054,-3.1004753,2.2625091,9.7347746,0.0763359,-8.0534353,-4.7862597
4340,0.0814024,3.7133877,2.8873925,13.3816795,-244.3206177,-250.1374054,-3.1196289,2.3127871,9.7898407,0.1755725,-8.4656487,-4.9160304
4350,-0.2466015,3.9360476,2.8634505,8.5267172,-229.6870270,-250.1374054,-3.2393384,2.2744799,9.7802639,0.1068702,-8.6793890,-4.9389315
4360,-0.6655847,3.9432299,2.1667414,0.5877863,-207.7862549,-250.1374054,-3.2345500,2.2457497,9.7850523,0.1450382,-8.5725193,-4.2977099
4370,-1.3168042,3.8091555,1.9895715,-10.8931293,-180.9541931,-248.2900696,-3.1363883,2.2433555,9.8616667,0.1908397,-7.4809160,-4.4580154
4380,-1.9823889,3.5362179,2.2098370,-22.2519093,-155.0229034,-234.6946564,-3.1268115,2.2649033,9.8425131,0.6106870,-6.6946564,-3.9847329
4390,-2.8251436,3.2728570,2.7245877,-31.3053436,-130.7175598,-218.5954132,-3.1579359,2.2960277,9.7515335,0.6259542,-5.7938933,-3.2595420
4400,-3.6535332,2.9280937,3.1962428,-37.2595406,-104.7938919,-198.3358765,-3.2441268,2.3103929,9.9071560,0.7022901,-5.0076337,-2.1526718
4410,-4.4172797,2.8131726,3.7349355,-39.6183205,-77.0305328,-174.0915985,-3.1100521,2.3103929,9.8137827,0.6641222,-4.0381680,-2.1603053
4420,-4.7404952,2.9137285,3.5673423,-40.5572510,-47.7022896,-151.7251892,-3.1627243,2.3079987,9.7467451,0.6412213,-3.4885497,-1.1603054
4430,-5.0565281,2.8490853,3.4476328,-41.7862587,-25.9007626,-133.2442780,-3.0310438,2.3391230,9.8042059,0.3893130,-3.7251909,-1.7251909
4440,-5.5760674,2.5306582,3.4524212,-42.3587799,-3.9007633,-114.6564865,-3.0765336,2.3678534,9.6821022,0.0839695,-4.4503818,-0.7786260
4450,-6.3685441,2.2242019,3.5218527,-43.5038185,19.9618320,-92.4274826,-3.2034254,2.4085546,9.7323799,-0.2213740,-5.1908398,-0.5954198
4460,-7.1251078,1.9680238,3.7421181,-44.1068687,48.3664131,-66.1755753,-3.0478032,2.3822186,9.7754755,-0.5877863,-6.0687022,-0.0610687
4470,-8.3557215,1.5849534,4.0844874,-43.0228996,75.3664093,-35.7862587,-3.0932927,2.3846128,9.6773138,-0.8396947,-6.8320613,-0.3664122
4480,-9.9023676,1.3287752,4.1251884,-41.6183205,108.5725174,5.6030536,-3.0645626,2.4157372,9.6725254,-1.1374046,-7.9770994,0.0992366
4490,-12.3827477,0.9552816,3.1794837,-45.7099228,165.4503784,63.1374054,-3.0669568,2.4301023,9.5959110,-1.7022901,-9.4198475,-0.4045801
4500,-16.1440201,0.6009415,2.1068866,-61.1755714,238.3740387,138.9618378,-3.0478032,2.3415172,9.6174593,-2.7633588,-11.5190840,0.2213740
4510,-19.6131992,-0.2178712,2.0949159,-90.5496216,250.1297760,247.0076294,-2.9759774,2.3726418,9.5671806,-3.9083970,-13.7175570,-0.2290076
4520,-19.6131992,-1.9991482,3.0334380,-127.8473282,250.1297760,250.1297760,-2.9065459,2.3223639,9.6342182,-5.0916033,-15.7633591,-1.1908396
4530,-19.6131992,-5.4731169,3.4859397,-165.3129730,250.1297760,250.1297760,-3.1244173,2.3151813,9.5983057,-5.4580154,-17.4732819,-1.4961832
4540,-19.6131992,-10.2926207,4.7644372,-196.9465637,250.1297760,250.1297760,-2.9687948,2.2218077,9.6821022,-6.9694657,-21.1603050,-1.3587786
4550,-14.8727045,-18.2413292,6.2679882,-213.7633514,223.4809113,250.1297760,-2.7796540,2.1858950,9.6102762,-8.8091602,-24.2519093,-1.9694656
4560,-3.6822634,-19.6131992,7.9582858,-214.2519073,167.5877838,250.1297760,-2.5282640,2.2242019,9.6150646,-9.9160309,-26.8625946,-3.0916030
4570,12.0140429,-19.6131992,9.0404596,-196.1908417,237.9389343,250.1297760,-2.5091105,2.1427996,9.7323799,-11.5877867,-30.5801525,-5.2824426
4580,19.6126022,-19.6131992,11.5950594,-203.6870270,250.1297760,250.1297760,-2.6383967,2.3056045,9.9310980,-12.4656487,-28.9007626,-7.5267177
4590,19.6126022,-19.6131992,19.6126022,-197.1068726,250.1297760,250.1297760,-2.7174051,2.2888451,10.0364418,-12.5648851,-28.0152664,-6.2213740
4600,19.6126022,-8.1234846,19.6126022,-139.8625946,231.6564941,250.1297760,-2.6479735,2.1404054,10.1848822,-12.0458012,-26.2290077,-5.8473282
4610,19.6126022,-0.3758878,19.6126022,-42.4580154,179.5343475,250.1297760,-2.6527619,2.2625091,10.1274214,-10.7099237,-23.7480907,-5.3129773
4620,19.6126022,1.8890154,19.6126022,84.4503784,-34.2061081,231.2671814,-2.5857246,2.1954718,10.1130562,-9.3435116,-21.7557259,-5.1755724
4630,19.6126022,-1.0869620,7.7667508,177.3511505,-250.1374054,2.1374047,-2.4851687,2.2026544,10.1202393,-8.2900763,-19.3893127,-5.1984735
4640,19.6126022,0.2466015,-1.7717001,214.4198456,-250.1374054,-147.7709961,-2.5354466,2.1284344,10.1489687,-7.2671757,-18.3053436,-4.3206105
4650,19.6126022,3.0717452,-3.3279233,200.3435059,-250.1374054,-207.6793823,-2.4708035,2.0111191,10.2040358,-6.4809160,-17.3587780,-4.7251906
4660,13.5654774,5.4012914,-1.9273225,158.8167877,-211.3358765,-179.2748108,-2.4324965,2.0183017,10.1058741,-5.9847326,-17.0458012,-5.4732823
4670,9.4929609,7.2903070,-1.4077834,104.2595444,-27.2748089,-90.0763321,-2.5905130,2.0135133,10.1034794,-5.7786260,-17.0763359,-5.7862597
4680,8.7196379,8.4275465,-1.6424140,24.1297703,107.6870193,-7.5801525,-2.5354466,1.9943599,10.0532017,-5.8015265,-16.5190830,-6.7099237
4690,9.5097208,8.6717539,-1.1731528,-34.9236641,177.6870270,24.5954189,-2.5976956,1.9991482,10.1513634,-5.4427481,-15.9465647,-5.7862597
4700,8.2815018,8.4802189,0.2681492,-66.5801544,221.3740387,47.3893127,-2.5426292,2.0135133,10.1824875,-5.3282442,-14.0000000,-5.4961834
4710,7.8936424,7.7954807,1.5203103,-79.8702316,230.0229034,65.2290039,-2.5019281,1.9847831,10.2591019,-4.3511453,-11.9083967,-4.6793895
4720,8.6382351,6.8593526,2.6527619,-81.7099228,198.8778687,66.5801544,-2.4516499,1.9919657,10.2854376,-2.9541984,-9.8854961,-4.2290077
4730,9.3517036,5.7604198,4.1395535,-72.6030502,144.3740387,52.8091621,-2.4109488,1.9632354,10.2806492,-1.7786260,-8.5038166,-4.2977099
4740,9.5384512,4.1539187,5.2815819,-52.4198456,90.3206100,33.9465637,-2.3606708,2.0637913,10.2231894,-1.0916030,-7.0992365,-3.1526718
4750,9.2870607,3.1076579,5.7197185,-25.8244267,48.5648842,16.4274807,-2.3247581,2.0997043,10.0795374,-1.0839695,-6.5190840,-3.0305343
4760,7.7260494,2.5713594,4.8482337,13.0839691,-4.7938933,4.2061067,-2.2912393,2.1930776,9.9789820,-1.2061069,-5.9923663,-3.2290077
4770,7.1969333,2.0949159,3.9049230,9.5496187,-2.5419848,18.0458012,-2.3750360,2.1427996,9.8568783,-2.1297710,-7.7480917,-2.3282442
4780,6.6941538,1.7645177,3.5529771,-14.3969469,60.6030540,45.6564903,-2.4013720,2.1619530,9.9646168,-3.4427481,-8.1068707,-2.7099237
4790,6.4762826,1.5250987,3.5793133,-28.9847336,92.8091583,59.3358765,-2.4971397,1.9799947,10.2016411,-3.1068702,-7.8473282,-2.0687022
4800,6.2823529,1.1755470,3.7780309,-43.6641235,117.4198456,70.3969498,-2.5905130,1.9297167,10.1944590,-2.2748091,-7.1755724,-1.9083970
4810,6.5121951,1.2210367,4.0844874,-57.3358765,134.7404633,81.5114517,-2.5737536,1.8243724,10.2160063,-1.3511450,-5.6335878,-1.6183206
4820,6.9311786,1.2210367,4.7357068,-69.4809189,145.2748108,88.7786255,-2.5522060,1.7453641,10.2782555,-0.3587786,-4.3358779,-1.3893130
4830,7.1562324,1.0342898,5.3581958,-81.3435135,154.1145020,92.9389343,-2.5689652,1.7525467,10.2040358,0.3587786,-4.0000000,-1.4656489
4840,7.6422529,1.0606259,6.4188218,-92.2671738,162.2748108,95.9847336,-2.5689652,1.7405758,10.1968527,0.9770992,-3.5496182,-1.1984733
4850,7.9965930,1.3431402,7.5225434,-101.9236679,160.2519073,98.3969498,-2.6048782,1.7836711,10.1441803,1.4656489,-3.3893130,-1.2595420
4860,8.1043310,1.5562232,8.7531567,-111.1832047,160.0152740,103.6946564,-2.6120608,1.8219782,10.1298151,1.3969465,-3.0992367,-0.8396947
4870,8.7842808,1.4365137,9.1481981,-118.3282471,166.7404633,107.5190811,-2.6503677,1.8483143,10.0148945,1.1297710,-3.4656489,-0.2061069
4880,9.2655134,-0.5889706,9.3110027,-134.0839691,168.6564941,109.2977066,-2.5450234,1.9632354,9.9023676,0.4503817,-4.6259542,0.6870229
4890,7.5991573,-2.8538737,11.2000179,-149.9923706,95.7328262,114.1526718,-2.4947455,1.9943599,9.8760319,-0.2061069,-5.3206105,0.4045801
4900,12.6676559,-0.4596844,14.3172531,-134.0534363,71.4122162,116.0229034,-2.5091105,2.0063307,9.9454632,-0.8625954,-4.3969464,0.5114504
4910,15.7298250,-1.6639616,17.4919491,-91.9847336,73.8244247,90.1526718,-2.7126167,2.2313845,10.0196829,-1.3664122,-1.8625954,1.8091604
4920,18.0210648,-3.3925664,19.4120884,-39.7022896,62.6946564,35.2671738,-2.7150109,2.1380112,10.0651722,-1.2977099,-2.9618320,3.1145039
4930,18.1838684,-2.8586621,19.6126022,19.3587780,48.7633591,-22.6259537,-2.5617826,2.1523764,10.0627785,-1.2366412,-3.7251909,4.1297708
4940,17.3698444,-3.1770895,19.6126022,78.3893127,36.9541969,-74.7404556,-2.3343346,2.2170193,10.0627785,-1.4732825,-3.9083970,4.1908398
4950,16.1344433,-2.5522060,16.8287582,121.3282471,1.3206106,-124.7709961,-2.2122312,2.2457497,10.1250277,-1.3511450,-3.7175572,4.7633586
4960,14.5686426,-2.2026544,13.5032282,145.8702240,-42.7480927,-166.6335907,-2.1308286,2.1691356,10.1824875,-1.1221374,-4.2519083,4.9770994
4970,13.2757807,-2.1380112,11.5591469,151.8396912,-61.5801544,-203.3053436,-2.0087249,2.1164634,10.1585455,-0.4885496,-4.3129773,3.7709923
4980,12.3252869,-1.5705882,10.5655584,153.5267181,-94.0457993,-229.9618378,-1.7884595,2.1380112,10.2998028,-0.0076336,-4.0076337,3.1145039
4990,13.1584654,-1.3886299,10.7834291,157.0534363,-132.9618378,-250.1374054,-1.8195840,2.1020982,10.2112179,0.4198473,-3.9389312,1.6412214
5000,14.4848461,-1.5107336,10.8696203,165.2290039,-152.6106873,-250.1374054,-1.6711442,1.9345051,10.2184010,0.4809160,-4.3816795,-0.1603053
5010,14.3411951,-1.8100072,10.3524752,172.7557220,-154.6946564,-250.1374054,-1.6424140,1.9368993,10.1513634,0.3129771,-4.7786260,-2.0763359
5020,12.8615856,-2.2409613,9.4666252,176.7786255,-160.1374054,-250.1374054,-1.7525467,1.9440818,10.1729107,-0.0152672,-5.0152674,-5.0229006
5030,12.2223368,-2.8826041,8.3509331,178.1374054,-176.4045868,-250.1374054,-1.9009864,1.9177457,10.2471304,-0.0458015,-4.4122138,-7.0916033
5040,12.8591919,-4.4412212,6.3493905,175.3358765,-189.0152740,-250.1374054,-2.1667414,1.8866212,10.2184010,0.4045801,-4.1297708,-7.6641221
5050,12.2438850,-4.6471219,4.6973996,163.2519073,-219.7633514,-250.1374054,-2.3774302,1.9297167,10.2016411,1.0229008,-3.5190840,-7.6259542
5060,11.3819771,-5.1906028,1.7597293,137.7862549,-227.0458069,-250.1374054,-2.4636209,1.9368993,10.3189564,2.0381680,-2.9541984,-7.1450381
5070,7.0868006,-5.5808558,-1.5586174,99.6717529,-174.5801544,-250.1374054,-2.6096666,1.9776005,10.1729107,2.7786260,-2.3816793,-6.3282442
5080,2.6479735,-5.7915444,2.3056045,45.6183205,-189.3435059,-250.1374054,-2.6000898,1.9680238,10.0747490,3.2061069,-2.3053436,-6.4427481
5090,0.5171449,-6.7540083,9.0739784,32.4045792,-184.1832123,-250.1374054,-2.6288199,1.9512644,10.0843258,3.2519083,-2.4961832,-5.6564884
5100,-2.0973101,-6.9910331,13.5726604,75.2595444,-191.9084015,-250.1374054,-2.6288199,2.0254843,9.9167328,2.7251909,-2.2442749,-4.8396945
5110,-3.4045374,-7.0030041,13.7594070,131.7633514,-214.7251892,-250.1374054,-2.7533178,2.0757623,9.9765873,2.2366412,-1.7328244,-3.7251909
5120,-5.6359220,-6.9934273,11.7411051,170.0839691,-241.3816833,-250.1374054,-2.6982515,2.0159075,9.9167328,1.7709924,-1.5419847,-2.8625953
5130,-6.9096308,-6.5433197,10.0795374,189.7786255,-250.1374054,-250.1374054,-2.5689652,2.0973101,9.9334917,1.3740458,-2.3740458,-2.0839694
5140,-8.2384062,-6.2631998,8.7220325,198.7633514,-250.1374054,-250.1374054,-2.5833304,2.0542145,9.9382801,0.4961832,-3.5114503,-0.9541985
5150,-9.5456333,-5.8585815,7.4219875,199.3893127,-250.1374054,-250.1374054,-2.3965836,2.0997043,9.9287033,-0.1145038,-4.1908398,-1.1297710
5160,-10.8720140,-4.4555864,6.7396431,193.0610657,-216.8702240,-250.1374054,-2.3127871,1.9919657,10.0460186,-0.5343512,-4.8854961,-1.7022901
5170,-11.7434988,-4.4029145,6.3110833,182.3511505,-124.7022934,-250.1374054,-2.3486998,1.9967541,9.9406748,-1.0076336,-5.3664122,-2.1297710
5180,-13.7929258,-3.5122759,4.1443419,167.1984711,-41.8473282,-240.6412201,-2.2672975,1.9560528,10.1034794,-1.5419847,-5.8091602,-2.3129771
5190,-15.5718079,-2.4253139,2.4827745,145.2595367,28.6412220,-165.4427490,-2.2768741,1.9919657,10.1058741,-1.6106870,-5.6946564,-3.1221373
5200,-17.0131111,-1.0869620,0.9911944,120.5572510,66.5496216,-88.5954208,-2.2577207,2.0135133,10.0747490,-1.8167939,-5.8549619,-3.1145039
5210,-17.9755745,-0.3351865,-0.4572902,90.3740463,83.6183243,-8.0229006,-2.3415172,2.0709739,10.1369982,-2.2519083,-5.7633586,-3.5343511
5220,-18.2676659,-0.2082945,-1.3598996,54.9465637,101.1374054,76.5114517,-2.2816625,2.0135133,10.0316534,-2.4045801,-5.8244276,-3.3511450
5230,-18.0713425,0.2633608,-1.7262106,16.3816795,139.3893127,162.3129730,-2.3032103,2.0446377,10.0436249,-2.6793892,-5.6946564,-3.1755726
5240,-17.2908363,0.0263361,-2.1763182,-26.2442741,192.8625946,246.5343475,-2.3822186,2.0206959,10.1178446,-2.8625953,-5.5572519,-3.4198472
5250,-18.1647148,-1.2808913,-2.3822186,-72.2442780,242.7251892,250.1297760,-2.5569944,2.1068866,10.3500814,-1.8702290,-4.0992365,-2.4885497
5260,-18.1958389,-2.6575503,-1.2713146,-115.6412201,250.1297760,250.1297760,-2.6240315,2.0159075,10.3452930,0.0305344,-2.3664122,-1.2977099
5270,3.2177906,-19.6131992,7.2208753,-250.1374054,250.1297760,250.1297760,-2.4085546,1.8626794,9.9047613,1.9389313,-1.7251909,-0.2061069
5280,19.6126022,-19.6131992,3.5362179,-250.1374054,250.1297760,250.1297760,-2.5091105,2.0159075,9.8760319,1.1374046,-2.3816793,-0.7404580
5290,19.6126022,-16.6300392,5.9423780,-250.1374054,250.1297760,250.1297760,-2.5354466,2.0254843,9.9981356,0.4580153,-2.3282442,-0.5725191
5300,19.6126022,-7.6326761,19.6126022,-250.1374054,250.1297760,250.1297760,-2.5809362,2.0183017,9.8880024,0.0229008,-2.4045801,-0.1984733
5310,19.6126022,-4.3670015,19.6126022,-250.1374054,152.3282471,250.1297760,-2.5282640,2.0350611,9.9574337,-0.4503817,-3.2900763,0.5114504
5320,19.6126022,-5.1522956,19.6126022,24.6183205,-173.0763397,146.0152740,-2.4516499,2.0566087,10.1034794,-0.9465649,-3.4122138,1.1145039
5330,19.6126022,-2.6623387,19.6126022,250.1297760,-250.1374054,48.5496178,-2.4061604,2.1308286,10.0316534,-0.5648855,-3.2519083,0.8702290
5340,15.8112268,0.0000000,10.5511932,250.1297760,-250.1374054,13.5496187,-2.3510940,2.1188576,10.0771437,-0.3587786,-3.5648854,1.1297710
5350,13.6157551,3.1818779,-3.4236910,250.1297760,-250.1374054,31.1984730,-2.3199697,2.1380112,10.0819321,-0.4580153,-3.7557251,1.2366412
5360,13.7618008,5.3103123,-10.1657286,118.3893127,-80.0305328,68.5190811,-2.2816625,2.0997043,10.0220766,-0.4732825,-4.4580154,0.9312977
5370,13.0435438,6.1267309,-7.9080076,-12.3435116,75.8396912,93.4732819,-2.0230901,2.1427996,10.2471304,-0.9923664,-4.7480917,0.4351145
5380,11.9757357,6.7204900,-0.0502780,-80.1679382,132.8625946,98.9236679,-2.0805507,2.0230901,10.1585455,-1.1984733,-5.0076337,-0.4656489
5390,11.6980095,6.5696559,6.2009506,-80.1679382,115.6946564,87.8167953,-1.9847831,2.0326669,10.0532017,-1.3969465,-5.3358779,-1.6259542
5400,11.3987360,5.7963328,8.9327211,-42.2213745,67.5114517,69.1068726,-1.8507085,2.0063307,10.1369982,-1.4580153,-5.6641221,-3.4427481
5410,10.6685085,5.3988972,8.3030491,-0.0458015,20.4732819,52.5572510,-1.9776005,2.0015423,10.1417866,-1.3129771,-5.0687022,-5.1374044
5420,8.8034344,5.1499014,3.0262554,28.2977104,14.5496187,49.5572510,-2.2098370,2.0206959,10.1417866,-0.4274809,-4.5267177,-6.7328243
5430,8.6669655,4.9990678,1.5873476,13.3511448,46.4809151,57.8091621,-2.3008161,2.0350611,10.2351599,-0.2290076,-5.1984735,-7.0687022
5440,8.7100611,3.8809812,1.6256547,-29.2671757,115.3206100,71.4885483,-2.4253139,1.9776005,10.2040358,0.7175573,-3.8015268,-7.0687022
5450,8.7723103,3.1315999,2.3941894,-48.5648842,138.0458069,76.9542007,-2.4253139,1.9847831,10.2279778,1.3511450,-3.2595420,-6.0992365
5460,8.9997578,2.5186872,3.3973548,-62.0763359,144.8931274,78.9160309,-2.6216373,1.9273225,10.1848822,1.6335878,-3.9312978,-6.7328243
5470,8.9111729,1.9033806,4.7381010,-66.3816757,129.8931274,75.9542007,-2.7150109,1.8890154,9.9789820,1.8931298,-4.7251906,-6.6946564
5480,9.4091644,1.6615674,6.9646969,-51.8244286,56.0992355,58.4580154,-2.8730273,1.9153515,9.9598284,-0.3053435,-4.7862597,-4.4809160
5490,10.0484133,1.5298871,7.2519999,-40.7557259,27.6488552,45.2900772,-2.9233053,1.9440818,10.0388365,-0.6717557,-4.9847326,-2.6717558
5500,10.3405046,1.5370697,6.6654234,-37.0152664,18.2977104,33.4427490,-2.7988074,1.9225341,10.1824875,-0.8015267,-5.1755724,-1.3358779
5510,9.9550400,1.4125718,5.9687142,-41.1221390,31.9083977,26.1984730,-2.5043221,1.9009864,10.1322098,-1.0229008,-5.2748094,-0.5877863
5520,9.0979195,1.2234308,5.7556314,-52.9007645,58.5877876,26.7022896,-2.4444675,2.0446377,10.1034794,-0.7022901,-5.0916033,0.0534351
5530,8.3006544,1.1492109,5.6933827,-68.4656525,87.8091583,34.3587799,-2.3199697,1.9871773,10.0723553,-1.1755725,-5.5038166,0.2519084
5540,7.6566176,1.9991482,5.5114241,-87.2519073,122.3511429,46.8320618,-2.1643472,2.0494261,10.0555954,-1.2824427,-5.6412215,-0.4198473
5550,7.6039457,0.5769997,5.6095858,-114.9160309,153.7786255,64.4580154,-2.1356170,2.1380112,9.9598284,-2.1068702,-5.4961834,-0.6412213
5560,8.1713686,-0.9121862,6.7109132,-141.2595367,170.3282471,73.6793900,-2.1020982,2.2002602,9.9909525,-2.7480917,-6.3435116,-1.5496184
5570,9.1936874,-1.1516051,9.5671806,-151.8473358,159.1679382,73.1374054,-2.1140692,2.1739240,9.9622221,-3.4198472,-7.3358779,-2.0381680
5580,10.6397781,-1.3335636,12.1960011,-146.6183167,131.8549652,59.2671738,-2.1260402,2.1116750,9.9741936,-4.5114503,-8.2671757,-2.8015268
5590,11.8751793,-1.8339491,14.2454271,-129.5954132,97.8854980,34.8549614,-2.0973101,2.0901275,9.9622221,-5.6106873,-9.0916033,-3.5725191
5600,12.6365318,-2.1140692,15.0474806,-109.6259537,49.4351158,8.7022905,-2.1547706,2.0087249,9.9933472,-6.5801525,-10.3053436,-3.9389312
5610,13.4792862,-2.1739240,15.0881815,-91.7251892,5.7786260,-12.1755724,-2.1499822,1.9776005,10.1226330,-7.3664122,-11.1603050,-4.5267177
5620,15.2845058,-3.0118904,16.6228580,-53.4122124,-4.0763359,-41.2213745,-2.2122312,1.8483143,10.2064295,-7.4656487,-11.2442751,-5.4656487
5630,16.3834381,-4.1395535,18.3777981,-4.1526718,-34.8015251,-85.2519073,-2.2505381,1.7860653,10.0891142,-7.4656487,-11.0992365,-6.0763359
5640,17.7624912,-4.2305326,19.5006733,59.3435097,-59.8931313,-139.1984711,-2.3391230,1.7453641,10.2543135,-7.1832061,-10.5267172,-6.3511453
5650,16.8981895,-3.0118904,19.1511211,124.2137375,-86.7099228,-191.8854980,-2.3965836,1.6543850,10.1920643,-7.1374044,-10.7557249,-7.0687022
5660,15.9381189,-2.7940190,16.8862190,176.7709961,-115.8396912,-234.5954132,-2.4731977,1.7142396,10.1393919,-7.6946564,-11.0763359,-7.0305343
5670,15.1959200,-3.2058196,13.5151997,204.6564941,-148.4732819,-250.1374054,-2.5881188,1.7094513,10.0579901,-8.3511448,-11.8778629,-6.7709923
5680,14.8559456,-2.6048782,10.5248566,210.0305328,-187.5343475,-250.1374054,-2.5761478,1.7309990,10.0029240,-9.5877867,-13.3969469,-6.0305343
5690,14.2645807,-1.8626794,8.2360115,199.9618378,-213.5419922,-250.1374054,-2.5258698,1.8147956,9.8544836,-12.1908398,-16.3664131,-5.9923663
5700,13.4888630,-1.6136837,6.8449879,181.2442780,-229.7404633,-250.1374054,-2.3894010,1.8171898,9.7347746,-16.0458012,-19.7480907,-6.4122138
5710,13.2087431,-1.3407460,6.3398137,161.7786255,-229.4198456,-250.1374054,-2.3917952,1.8698620,9.4905672,-20.0916023,-23.8091602,-6.8320613
5720,12.4617558,-1.4029950,5.3294659,145.1526642,-216.4961853,-250.1374054,-2.3127871,1.9488702,9.4857788,-24.5725193,-27.5496178,-6.6564884
5730,11.2072010,-1.5490406,4.6088147,129.9084015,-209.2595367,-250.1374054,-2.2002602,1.9823889,9.6390066,-29.0229015,-31.2977104,-6.6946564
5740,10.0915089,-1.8219782,3.8307030,114.9770966,-196.1603088,-250.1374054,-2.0542145,1.9009864,9.6677370,-33.4045792,-35.7709923,-8.2671757
5750,8.7387915,-2.1978660,3.3422885,99.7022934,-178.8625946,-250.1374054,-1.9919657,1.7717001,9.5336628,-39.6106873,-43.8702278,-11.0763359
5760,6.8569584,-2.9831600,3.2297616,88.9236679,-157.1068726,-250.1374054,-1.5562232,1.6088953,9.5264797,-48.8091621,-54.9923668,-16.8167934
5770,4.6327567,-3.4189026,3.3686244,82.1297684,-137.6030579,-250.1374054,-0.4189832,0.8690908,9.5552101,-62.2900772,-61.2290077,-34.3511467
5780,2.0206959,-4.2425036,3.9528067,84.4580154,-120.4122162,-250.1374054,-0.8475431,1.5107336,10.0077124,-76.9160309,-80.9389343,-49.5496178
5790,-0.6943150,-3.8881636,4.0916696,93.6717529,-125.6641235,-250.1374054,-1.1755470,1.1156923,10.2950144,-88.7938919,-109.8320618,-58.7633591
5800,-2.3798244,-2.5881188,4.0581512,99.0457993,-152.3740387,-250.1374054,-1.5011568,0.4548960,10.8408899,-96.6259537,-134.1755676,-61.4580154
5810,-3.6487448,-1.7597293,4.0605454,99.5496216,-193.0000000,-250.1374054,-1.3527170,0.5123565,11.8249016,-100.2900772,-147.1374054,-61.7938919
5820,-4.5106530,-1.3862357,4.1204000,97.7480927,-225.0381622,-250.1374054,-1.2761030,0.3423691,12.9549589,-97.0610657,-146.1145020,-58.9083977
5830,-5.2887645,-0.9241571,4.1946201,90.9160309,-233.7709961,-250.1374054,-1.3455344,0.0502780,13.9102411,-82.8702316,-146.8931274,-56.9694672
5840,-5.8585815,-0.7182568,4.0413918,79.9923630,-221.7099304,-250.1374054,-0.7158626,-0.7613522,15.6436338,-59.1145020,-128.5648804,-52.9389305
5850,-6.5193777,-0.3256098,3.8211265,65.4580154,-189.1755676,-250.1374054,-0.3399749,-1.3982066,17.7553082,-22.5725193,-89.8549652,-48.4961815
5860,-7.4698710,0.0694315,3.2225790,45.8549614,-148.5648804,-250.1374054,-0.6488253,-1.8076130,18.6052456,27.3664131,-58.4122124,-43.0458031
5870,-8.1570034,0.3327923,3.1699069,24.8320618,-114.5572510,-233.1450348,-0.9217629,-2.1020982,18.3059731,78.7862625,-33.6183205,-31.3587780
5880,-9.0428534,0.0335187,3.4907281,9.3053436,-82.8015289,-199.5190887,-0.6679789,-1.9560528,17.5039196,125.6259537,-9.1679392,-17.8320618
5890,-9.9837704,-0.1699875,3.4572096,-2.8320611,-55.4427490,-159.3206177,-0.2729376,-1.7333932,16.4001980,164.8091583,12.0229006,-7.0534353
5900,-10.6134415,-0.0383070,3.5960727,-14.6488552,-34.1526718,-116.1221390,0.0550664,-1.2234308,14.7075062,192.5343475,23.7328243,-0.2061069
5910,-11.4250717,-0.2346306,3.9432299,-25.8396950,-7.5801525,-67.9465637,0.1221037,-0.8236012,13.3284531,209.6259613,24.9465656,0.8091603
5920,-12.7035694,-0.2106887,3.2632802,-39.2137413,41.8396950,-13.6030531,0.2346306,-0.4812321,11.6716738,218.6641235,19.0458012,0.0916031
5930,-15.5454721,-0.6847382,1.3287752,-70.2977066,128.9847260,56.9618340,0.5961532,0.0909792,10.0388365,220.4045868,9.8015270,-3.9389312
5940,-19.5341911,-1.5083394,0.0215477,-123.5038147,232.7862549,148.1908417,1.5035510,0.7398046,8.2360115,216.6946564,-2.6488550,-9.7175570
5950,-19.6131992,-3.6655040,1.0869620,-180.8167877,250.1297760,250.1297760,2.5929072,1.6783268,6.4283986,204.7480927,-8.0458012,-20.7786255
5960,-19.6131992,-6.7587967,3.7325413,-226.2061005,250.1297760,250.1297760,3.1315999,2.3247581,5.2863703,184.8091583,-0.7404580,-34.3969460
5970,-19.6131992,-10.0172882,6.1363077,-250.1374054,250.1297760,250.1297760,3.0741394,2.8849983,4.4172797,162.2061005,8.0381680,-47.9160309
5980,-19.6131992,-14.1137466,8.4706421,-250.1374054,250.1297760,250.1297760,2.6982515,3.5098817,3.6798692,136.3358765,11.9847326,-58.9083977
5990,-19.6131992,-18.8446655,8.5592270,-250.1374054,241.6106873,250.1297760,2.0973101,4.0605454,3.2393384,107.4122162,14.2595415,-66.7633591
6000,-18.8326950,-19.6131992,8.3078375,-250.1374054,177.9313049,250.1297760,1.6567791,4.5417776,3.3135581,77.4503784,14.7328243,-70.9465637
6010,-6.4619174,-19.6131992,9.8473015,-250.1374054,98.7480927,250.1297760,1.1539993,4.9775200,3.3494711,48.1221390,13.8625956,-74.8854980
6020,12.7753954,-19.6131992,9.3684635,-235.5267181,63.5190849,250.1297760,0.4525018,5.1092005,3.7564833,20.0763359,9.2824430,-77.7557220
6030,19.6126022,-19.6131992,11.7004042,-216.6030579,89.0763321,250.1297760,-0.1651991,5.0780759,4.0509686,-6.1297708,-1.0458015,-79.8778610
6040,19.6126022,-19.6131992,19.6126022,-198.5419922,125.3816757,250.1297760,-0.9504932,4.9368186,4.5250182,-32.0763359,-16.0534344,-80.3816757
6050,19.6126022,-2.2170193,19.6126022,-135.5190887,246.8244324,250.1297760,-1.4269369,4.7189474,5.3534074,-56.1526718,-35.4961815,-79.3740463
6060,19.6126022,3.6056492,19.6126022,-49.9007645,250.1297760,239.0458069,-1.5873476,4.2065907,6.1650376,-77.8625946,-61.0458031,-79.4427490
6070,19.6126022,0.5267217,18.7752342,-15.4503813,250.1297760,6.3129773,-1.5203103,3.6655040,6.7994981,-99.8931274,-98.2977066,-82.4351120
6080,19.6126022,-2.3367288,14.6045561,14.0839691,205.5801544,-95.5267181,-1.1372399,3.1459649,7.4171991,-127.3893127,-157.8625946,-89.6793900
6090,8.4658537,-2.8562679,13.0722742,47.9771004,-42.4580154,-100.4503784,-0.2011119,2.2481439,8.6310530,-153.6488495,-211.8015289,-102.6870193
6100,5.4252334,-0.1388630,10.6804790,53.9083977,-154.2824402,-49.1908379,0.0885850,1.5945302,10.2950144,-165.9007568,-237.8854980,-112.8702316
6110,8.1043310,2.6312141,8.5496502,30.3129768,-108.1374054,11.7404585,-0.6224893,1.2330076,12.1553001,-159.2061005,-239.1603088,-114.1145020
6120,11.7458935,4.4484038,7.2950954,-12.7633591,33.6488533,46.9541969,-0.7326220,1.3215926,13.5128050,-138.7786255,-225.8396912,-105.6870193
6130,11.5926657,4.7213416,8.0851774,-50.2519073,155.9389343,55.0458031,-0.8619082,1.8626794,13.6684275,-115.0610657,-198.8549652,-88.9770966
6140,9.9622221,4.1467361,9.2846670,-64.2748108,204.1221313,50.8320618,-0.5458752,1.9153515,13.1536770,-97.8702316,-158.8854980,-71.9083939
6150,8.2623482,3.1651185,10.4027529,-55.8091621,179.5343475,42.3206100,-0.1628049,2.0877333,12.6101961,-88.6870193,-122.6412201,-55.2442741
6160,6.8593526,2.1332228,10.8121595,-36.0992355,128.0763397,34.4885483,0.2729376,1.7860653,12.0954447,-83.3969498,-98.1297684,-41.6946564
6170,6.6654234,1.3646880,10.2830439,-16.3282452,84.2137375,32.4045792,0.9265513,1.1300575,11.7411051,-78.4656525,-84.7328262,-33.1450386
6180,6.8617468,1.0390782,9.5432396,-3.5572519,51.6564903,31.6335869,1.4341195,0.8738791,11.4585905,-72.7938919,-77.6488571,-27.1755733
6190,7.6135225,0.6607963,8.9806042,3.3435113,31.0305347,29.0152664,1.8100072,0.7972651,11.1090393,-67.0839691,-71.6335907,-24.0305347
6200,9.3086090,0.5075682,8.6597834,4.4427481,14.6106873,22.2290077,2.0853391,0.7517755,10.6972389,-64.0000000,-68.0839691,-22.2519093
6210,10.2974091,0.6919208,8.8393478,0.9541985,2.2290077,6.3206105,2.4277081,0.9983770,10.4123297,-62.2748108,-64.0687027,-22.1984730
6220,10.3333216,0.7781116,9.6054878,-0.7938932,-11.2824430,-12.7938929,2.4348907,1.0079538,10.3620520,-61.3129768,-57.7328262,-22.0000000
6230,10.0579901,0.8331779,10.2040358,3.3740458,-23.5648861,-30.6564884,2.1954718,1.1013272,10.2878323,-61.1755714,-50.4580154,-20.0687027
6240,9.5480280,0.6823440,10.3021975,11.3206110,-29.7328243,-46.5801544,1.9105632,1.0295014,10.5080976,-61.6564903,-44.0458031,-15.1221371
6250,8.6621771,0.7924767,10.0196829,17.5572510,-31.2519093,-58.4122124,1.7262106,0.8810617,10.6517487,-61.5267181,-41.4198456,-10.4351149
6260,7.7954807,0.7900825,9.6916790,22.8167934,-36.2977104,-62.7175560,1.7453641,0.7206510,10.8289185,-60.3435097,-41.5267181,-4.8167939
6270,7.3238254,0.8427547,9.4235296,24.8473282,-41.3969460,-63.7480927,1.7190280,0.7781116,11.1018562,-56.4961815,-39.3969460,-0.2290076
6280,7.3142486,1.0845678,8.9997578,24.3816795,-43.4274826,-62.6793900,1.3551112,0.7972651,10.9845409,-50.7709923,-32.3587799,6.0458016
6290,7.7619624,1.3431402,8.6549950,19.9007626,-41.6106873,-62.7557259,0.9959828,0.9193687,10.9390516,-45.7633591,-23.3282452,14.3816795
6300,8.2527714,1.4173602,8.5783806,12.0305347,-34.1450386,-65.1145020,0.7110743,0.8810617,10.8839855,-41.4122124,-16.7251911,24.0916023
6310,8.3102312,1.4125718,8.6909075,3.5496182,-22.7633591,-68.7938919,0.7757174,0.6536137,10.7930059,-37.8854980,-13.4122133,33.8091621
6320,8.4826136,1.2784972,9.1098909,-2.6870229,-14.4580154,-73.3206100,1.1372399,0.4812321,10.6828737,-35.6183205,-11.4732828,41.8778610
6330,8.7747040,1.0749911,9.7826586,-6.0992365,-15.9160309,-81.0152664,1.4820032,0.2466015,10.7116032,-33.5496178,-8.6793890,47.0305328
6340,9.1027079,0.9720409,10.4290895,-5.8473282,-25.1908398,-90.6183243,1.6376256,0.1292862,10.7331514,-32.3206100,-7.8091602,50.4503822
6350,9.7539282,0.7254394,10.9510221,-1.6030535,-35.2061081,-102.6259537,1.7788827,-0.0167593,10.6756907,-31.1450386,-9.2519083,53.9160309
6360,10.6876621,0.6272776,11.5040808,4.2366414,-52.7328262,-119.8396912,2.2744799,-0.2777260,10.8145542,-30.3282452,-11.4656487,55.5572510
6370,11.4178896,0.5410868,12.3875360,12.3740454,-82.6183243,-143.9923706,2.4684093,-0.3160330,11.0036945,-28.4732819,-13.5877867,54.3740463
6380,12.7706070,0.4333483,13.3476067,25.4656487,-114.9542007,-176.3969421,2.4444675,-0.4405309,10.9989061,-25.6564884,-15.6564884,53.4656487
6390,14.2885227,-0.4381367,14.3172531,50.1068687,-152.7786255,-215.9007568,2.4348907,-0.5219333,10.9414454,-22.8625946,-16.7251911,54.0381660
6400,15.6316633,-1.1180865,15.3706961,86.9083939,-193.1221313,-250.1374054,2.4468615,-0.4572902,10.8145542,-21.0305347,-16.8244267,54.9923668
6410,16.6491928,-1.6184721,14.8559456,125.6793900,-223.0610657,-250.1374054,2.4444675,-0.5051740,10.5775290,-20.6106873,-16.4656487,57.4885483
6420,15.3515425,-1.6256547,13.2470503,152.2900696,-247.1145020,-250.1374054,2.4755919,-0.6655847,10.3692341,-20.3358784,-15.3587790,59.5954208
6430,12.4162664,-1.8483143,10.8648319,161.0076294,-250.1374054,-250.1374054,2.5402350,-0.7469871,10.3405046,-19.4427490,-13.1832066,61.5725174
6440,9.4474716,-1.7238164,9.2272062,157.2366486,-250.1374054,-250.1374054,2.6312141,-0.7829000,10.2662840,-18.5725193,-9.5038166,63.8244286
6450,7.6566176,-1.7238164,8.3293848,149.4580078,-250.1374054,-250.1374054,2.8873925,-0.9409165,10.4458485,-17.6564884,-4.5877862,65.9542007
6460,6.3469963,-1.7357874,7.1921453,140.7709961,-250.1374054,-250.1374054,3.1507533,-1.0079538,10.4506369,-16.1450386,0.2824427,66.3511429
6470,5.1475072,-1.5897418,6.1219425,127.5572510,-250.1374054,-250.1374054,3.3949606,-1.3455344,10.5344334,-15.0229006,2.0229008,64.0610657
6480,3.6032550,-1.4436963,5.0254035,108.2366409,-250.1374054,-250.1374054,3.8019729,-1.4365137,10.5631638,-13.7786255,0.8015267,57.9083977
6490,1.8411317,-1.6280488,4.6519103,85.4427490,-250.1374054,-250.1374054,3.8690102,-1.4173602,10.9797525,-12.2595415,0.0229008,51.3282433
6500,0.1316804,-1.3910241,4.8673873,65.7175598,-246.6488495,-250.1374054,3.7421181,-1.4556671,11.1521349,-9.1832066,-0.7557252,44.9771004
6510,-0.8954269,-0.8283895,5.1714492,52.2137413,-227.3358765,-250.1374054,3.4212968,-1.5442522,11.3029680,-4.2824426,-3.5801528,38.9847336
6520,-1.9919657,-0.0407012,5.2720051,42.7938919,-207.1221313,-250.1374054,3.2393384,-1.5346755,11.2167778,-0.0458015,-7.4351144,34.9771004
6530,-2.8059900,0.5698171,5.2360926,33.7328262,-185.7633514,-250.1374054,3.3422885,-1.4628497,10.9629936,3.0381680,-10.1526718,31.7862587
6540,-3.5410061,0.9648584,5.0397687,24.5725193,-163.0610657,-250.1374054,3.3446827,-1.3814473,10.7331514,5.2213740,-11.0687027,28.9160309
6550,-4.1826491,1.2234308,4.9200592,15.3587790,-132.8625946,-250.1374054,3.3398943,-1.3479286,10.5344334,6.8778625,-11.0076332,27.8931293
6560,-4.8458395,1.2856797,4.9727316,5.4274807,-98.0610657,-250.1374054,3.5050933,-1.2761030,10.4745789,7.8396945,-10.6793890,26.5725193
6570,-5.1475072,1.4604555,5.0804701,-1.7175573,-62.6641235,-243.7480927,3.6990228,-1.2665262,10.3668404,8.5190840,-10.0763359,24.5267181
6580,-5.6431046,1.1659702,4.8075323,-9.2290077,-28.3816795,-222.2900696,3.8498566,-1.1851238,10.1800938,8.8167934,-7.9618320,22.2442741
6590,-6.4068508,0.8140244,4.9224534,-16.9083977,2.9465649,-197.5954132,3.9312592,-1.1635761,10.1274214,8.6870232,-5.9312978,18.3893127
6600,-7.1179252,0.5578461,5.1283536,-23.2900772,30.6183205,-171.5038147,3.9599893,-1.1204807,9.9239149,7.4122138,-5.1832061,14.8778629
6610,-8.2264347,0.6057299,5.2983413,-27.4274807,54.0381660,-144.0305328,3.9552009,-1.0654143,9.8832140,5.7022901,-5.3358779,11.4809160
6620,-9.5240860,0.9073978,6.2536230,-26.7557259,67.2290039,-109.7251892,3.9623835,-1.0845678,9.8927908,3.5572519,-6.0076337,8.5190840
6630,-9.9239149,1.2521610,7.5488791,-13.4885492,70.0457993,-72.4656525,4.0533628,-1.1156923,9.9861641,1.9160305,-4.7328243,4.7938933
6640,-9.9574337,1.7309990,8.3126259,10.5114508,65.1984711,-38.2519073,4.0701222,-1.0342898,10.0220766,0.8854962,-1.9160305,1.7786260
6650,-9.3110027,2.9616125,7.8409705,77.4961853,33.6793900,14.1526718,3.7325413,-0.9457048,10.0460186,-0.3740458,2.6259542,-3.2748091
6660,-8.6310530,3.1004753,6.3924856,113.0687027,15.7175570,36.9541969,3.4787574,-1.0271072,10.2495251,-0.9847328,3.7251909,-4.9847326
6670,-8.0348997,3.2393384,4.2712340,138.5114441,9.0305347,57.8778610,3.1483591,-0.9433106,10.2423429,-1.3206106,3.5419848,-6.3893127
6680,-7.3262196,3.3997490,1.7621235,151.4427490,14.5267172,78.4045792,3.0047078,-0.8714849,10.3261395,-1.4198474,2.5419848,-6.5343513
6690,-7.4722652,3.7493007,-1.2665262,142.9084015,40.9007645,100.3206100,2.7102225,-0.7996593,10.3931761,-1.4503816,1.0152671,-7.7251906
6700,-8.2647419,3.6463506,-4.2401094,111.1603088,87.7862625,127.5648880,2.4277081,-0.7661406,10.4314833,-1.4961832,-0.2213740,-6.4961834
6710,-9.6533718,3.4835455,-6.0165982,60.1832047,138.4274750,164.2061005,2.2936335,-0.7685348,10.4578199,-1.2290076,-1.7328244,-5.9236641
6720,-11.0803089,3.1076579,-6.1339135,3.2137403,178.9313049,208.9084015,2.1835008,-0.7565638,10.4290895,-0.6793893,-2.6946564,-4.3664122
6730,-12.9501705,2.0997043,-5.7723908,-55.9847336,217.8167877,250.1297760,2.1882892,-0.7757174,10.4410601,0.3816794,-1.8396946,-2.5877862
6740,-15.6579990,0.8331779,-3.8881636,-107.5725174,241.6870270,250.1297760,2.1763182,-0.8427547,10.4506369,1.2366412,0.4809160,0.5877863
6750,-19.2109756,-0.5769997,-0.1029501,-142.6412201,250.0229034,250.1297760,2.2098370,-0.8499373,10.4410601,2.2595420,1.2748091,2.7786260
6760,-19.6131992,-4.0533628,4.0629396,-155.8320618,250.1297760,250.1297760,2.2768741,-0.9624642,10.3572636,1.9160305,0.4045801,4.2900763
6770,-19.6131992,-9.1338329,7.5560617,-157.5801544,250.1297760,250.1297760,2.4181314,-1.0318956,10.2950144,1.3053435,-0.5648855,5.4885497
6780,-16.7665081,-17.5757446,10.7882175,-152.8778687,250.1297760,250.1297760,2.5857246,-1.1132981,10.2064295,1.1221374,-1.3053435,5.7557254
6790,-5.4300218,-19.6131992,12.2438850,-145.1374054,250.1297760,250.1297760,2.7054341,-1.1037214,10.1968527,0.7404580,-0.3893130,5.5496182
6800,13.0698805,-19.6131992,10.5272512,-150.3740387,250.1297760,250.1297760,2.7844424,-1.1013272,10.1944590,0.0839695,0.3587786,5.4656487
6810,19.6126022,-19.6131992,10.0244713,-191.0839691,250.1297760,250.1297760,2.8275378,-1.2138541,10.1369982,-0.5648855,0.0229008,5.1297708
6820,19.6126022,-19.6131992,17.3770275,-250.1374054,250.1297760,250.1297760,2.8131726,-1.2090657,10.1800938,-1.2595420,-1.4885496,4.3664122
6830,19.6126022,-18.9571915,19.6126022,-250.1374054,250.1297760,250.1297760,2.8419030,-1.1899122,10.3141680,-1.6564885,-1.9389313,3.3664122
6840,19.6126022,-7.6374645,19.6126022,-113.8549652,250.1297760,250.1297760,2.8419030,-1.1970947,10.4410601,-2.0839694,-2.0610688,2.6870229
6850,19.6126022,-6.3924856,19.6126022,101.9312973,250.1297760,204.0763397,2.8873925,-1.0965388,10.4626083,-1.9389313,-1.9694656,1.9770992
6860,19.6126022,-3.9671719,18.9619808,233.6030579,19.1221371,6.8320613,2.9161227,-1.1156923,10.4793673,-1.2977099,-2.5648854,1.2442749
6870,13.5582952,-2.1715298,6.0980005,248.7022858,-250.1374054,-100.4427490,2.9568241,-1.1037214,10.5080976,0.1450382,-2.7251909,-0.0381679
6880,5.7795734,0.1651991,1.1300575,193.6793823,-250.1374054,-123.4503784,2.9065459,-1.0462608,10.5009146,1.0076336,-2.0305343,-0.6488550
6890,8.7675219,1.9416877,2.7030399,29.2900772,69.9465637,21.4961834,2.6647329,-1.0462608,10.4386663,0.0152672,-2.3206108,0.9236641
6900,8.7387915,2.1116750,2.5450234,32.2061081,25.7099228,11.3587790,2.6623387,-1.1037214,10.4410601,0.8702290,-1.3893130,1.1526718
6910,8.5424681,2.1308286,2.3103929,32.0534363,-11.1755724,1.4045801,2.6886747,-1.1085097,10.4410601,1.1068702,-1.1297710,1.2519084
6920,8.3557215,2.1380112,1.4460905,20.6030540,-38.1526718,-8.1984730,2.6982515,-1.0773853,10.4937325,1.7938931,-3.2748091,-0.0381679
6930,8.2599535,2.0374553,1.1923064,7.1755724,-19.5343513,-5.0534353,2.6503677,-0.9720409,10.4913378,2.5190840,-3.8091602,0.4885496
6940,7.7763271,1.8124014,1.0630201,-9.7786255,9.7099237,2.8549619,2.6120608,-1.0007712,10.4554253,2.9618320,-3.4351146,0.6183206
6950,12.0284081,0.6320660,5.8681583,-96.1145020,91.9083939,56.1908379,2.8035958,-0.9002152,10.3381100,2.5496182,-1.0000000,2.2061069
6960,14.0107965,0.7565638,7.4411407,-104.0534363,90.4885483,44.7099228,2.8826041,-0.9289455,10.3237448,2.3206108,1.3511450,2.5267177
6970,15.4688578,1.0869620,9.5025377,-106.1984711,87.3053436,26.5190830,2.9400647,-0.8523315,10.3069859,2.1374047,3.7862597,2.2977099
6980,16.5773678,0.5362985,11.5016861,-101.8854980,72.0992355,-0.2595420,2.8131726,-0.8451489,10.4985209,2.1374047,3.7404580,0.9389313
6990,17.2046452,0.1843526,13.1656475,-84.9083939,57.2977104,-33.8702278,2.7269819,-0.9193687,10.3788109,1.8549619,1.0610687,-0.6183206
7000,17.6379929,-1.0438666,15.0450869,-51.7938919,34.7022896,-69.6641235,2.6096666,-0.9097920,10.2447367,0.7938932,-0.5267175,-1.3587786
7010,17.4799767,-1.3838415,15.0714226,-7.7099237,19.3206100,-104.1908417,2.6000898,-0.8283895,10.2974091,-0.6641222,-1.0610687,-2.6030533
7020,16.8431225,-0.9816177,13.8527803,25.7175579,0.4274809,-134.5190887,2.5617826,-0.8547257,10.4147243,-1.0000000,-2.0381680,-2.6793892
7030,15.9836092,-0.4213773,12.5599174,46.0305328,-27.0610695,-163.6412201,2.4277081,-0.9050036,10.3883877,-0.4885496,-3.0381680,-2.8778627
7040,15.3132353,0.0430954,11.3915539,58.4198456,-53.9923668,-191.7938995,2.4109488,-0.9480990,10.3955708,-0.6106870,-3.2671757,-2.8549619
7050,15.4880114,0.0598547,9.9430685,68.1221390,-79.0076370,-220.4656525,2.3558824,-0.9792235,10.2926207,-0.5725191,-2.4961832,-2.3511450
7060,15.5311069,0.4094064,8.6597834,72.7251892,-103.5496216,-250.1374054,2.3654592,-1.0247130,10.3021975,-0.9694657,-1.4198474,-1.3511450
7070,14.4656925,0.6081241,7.4555058,69.1984711,-128.9923706,-250.1374054,2.2529323,-1.0678085,10.1992474,-1.2977099,-1.1832061,0.3740458
7080,13.7594070,0.0454896,6.8234401,61.8931313,-160.6564941,-250.1374054,2.2744799,-1.0678085,10.3883877,-2.1832061,-0.8244275,1.6488550
7090,13.3308468,-0.2561783,6.4978304,53.2061081,-196.7938995,-250.1374054,2.2840567,-1.1156923,10.4075413,-2.1984732,-1.1145039,2.3893130
7100,12.4809093,-0.9792235,6.4858594,45.5801544,-216.3435059,-250.1374054,2.2098370,-1.0486550,10.4123297,-2.4885497,-2.3282442,2.6030533
7110,11.0563669,-1.6735384,6.3733325,37.7022896,-223.6106873,-250.1374054,2.2505381,-1.1372399,10.4626083,-2.0610688,-3.0229008,4.0076337
7120,10.0484133,-1.5610116,6.9335728,30.3740463,-230.7328186,-250.1374054,2.2481439,-1.1228749,10.6517487,-1.5496184,-3.7328243,5.3511453
7130,9.5240860,-1.5514348,7.1562324,27.9312973,-238.8396912,-250.1374054,2.3199697,-1.1563935,10.7068148,-0.4961832,-5.1908398,5.5725193
7140,8.3581152,-1.4628497,7.1083484,27.9007626,-235.0152740,-250.1374054,2.3199697,-1.0869620,10.7068148,0.6030535,-5.9618320,6.0229006
7150,6.5959921,-1.5155219,6.7133074,26.8625946,-222.0610657,-250.1374054,2.3798244,-1.0845678,10.7163916,2.1374047,-6.9007635,6.0610685
7160,4.8290801,-1.4460905,6.3086891,25.1450386,-207.6106873,-250.1374054,2.4444675,-1.0725969,10.7427282,3.5954199,-8.0610685,6.2290077
7170,3.2776453,-1.2713146,6.1770086,23.4961834,-204.5877838,-250.1374054,2.5306582,-1.0295014,10.8217363,5.0458016,-10.2061071,6.4885497
7180,2.2720859,-0.8403605,5.8298512,21.9847336,-207.2595367,-250.1374054,2.6431851,-0.9935886,10.8624372,6.5419846,-11.6030531,5.7175574
7190,1.2018831,-0.5003856,5.7029591,20.7938938,-210.7480927,-250.1374054,2.6383967,-0.8810617,10.5487986,7.7557254,-11.2977095,5.7862597
7200,0.3303981,-0.1963235,5.9304070,20.6259537,-213.1068726,-250.1374054,2.7126167,-0.7637464,10.3859940,8.8244276,-10.1526718,6.6488547
7210,-0.5578461,0.0790083,5.8083038,21.4351139,-210.3053436,-250.1374054,2.7078283,-0.7445929,10.3859940,9.1679392,-8.8015270,6.3664122
7220,-1.2449785,0.3782819,5.8418221,21.2442741,-203.9389343,-250.1374054,2.8466914,-0.6895266,10.1585455,9.4580154,-8.2442751,6.3435116
7230,-1.8052188,0.3687052,6.0022330,21.2748089,-191.1679382,-250.1374054,2.8466914,-0.6464311,9.9909525,8.3206110,-7.6564884,5.4427481
7240,-2.6168492,0.2705434,6.2512288,22.2137413,-168.1755676,-250.1374054,2.8347204,-0.6488253,9.7491398,6.4274807,-7.1221375,4.5267177
7250,-3.3805954,0.4118006,6.4714942,24.8931293,-130.7633514,-250.1374054,2.7964132,-0.6799498,9.6006994,3.4732823,-6.2061067,4.4961834
7260,-4.2401094,0.4812321,6.7372489,32.8015251,-86.8778610,-250.1374054,2.6288199,-0.6799498,9.6222477,0.3740458,-6.2061067,4.5419846
7270,-5.6838059,0.8068419,6.7420373,46.6183205,-40.6183205,-250.1374054,2.5785420,-0.7924767,9.6581602,-2.9083970,-6.0076337,4.7099237
7280,-7.1011658,1.0702027,6.1195483,62.2824440,5.5190840,-239.6030579,2.5569944,-0.8547257,9.7084379,-5.6641221,-4.1068702,5.7786260
7290,-8.4107876,1.1444225,4.6399393,76.5343475,46.7022896,-208.1984711,2.5689652,-0.9959828,9.9167328,-7.8244276,-1.6335878,6.1145039
7300,-9.3828287,1.6041069,2.5402350,84.4809189,67.3435135,-177.3816833,2.5354466,-1.1132981,10.1729107,-8.7099237,1.0229008,7.2290077
7310,-10.0819321,2.4013720,0.3830703,84.4351120,72.4961853,-148.1221313,2.4540441,-1.2090657,10.3955708,-8.7175570,3.3664122,7.4580154
7320,-11.2981796,2.7748656,-1.1779412,75.8473282,68.9465637,-118.4045792,2.3894010,-1.2665262,10.6230183,-7.8931298,5.5801525,8.4427481
7330,-12.1098099,3.4763632,-1.8674678,61.8473282,58.6259537,-83.7404556,2.3295465,-1.3455344,10.8887739,-5.7633586,7.4198475,8.8320608
7340,-13.4864693,3.6822634,-2.4779861,44.2824440,51.5877876,-42.9923668,2.2409613,-1.3215926,10.9007444,-2.8167939,9.1908398,9.9923668
7350,-15.0594521,3.5242469,-2.8826041,20.9694653,53.8320618,11.7404585,2.2505381,-1.3503228,11.0491848,0.3816794,12.4427481,11.6106873
7360,-16.0937424,3.6367738,-2.9831600,-6.7557254,55.6641235,73.5648880,2.1044924,-1.3407460,10.9893293,4.1297708,17.1145039,14.0305347
7370,-16.5438499,3.6319854,-2.6072724,-37.0381660,63.9541969,140.8244324,1.9632354,-1.2090657,10.9797525,7.2977099,20.2442741,16.7938938
7380,-16.7234135,3.2608860,-1.7501525,-66.4503784,85.6870193,212.8778687,1.9129574,-1.2066715,11.0539722,9.8778629,20.8931293,19.7709923
7390,19.6126022,-3.3375001,19.6126022,-24.8015270,250.1297760,250.1297760,2.5737536,-0.7398046,10.5176744,26.2137413,11.4198475,13.4351149
7400,19.6126022,0.1939293,19.6126022,26.3053436,250.1297760,250.1297760,2.6288199,-0.6823440,10.3955708,25.3358784,10.6183205,10.7404585
7410,19.6126022,1.6879035,11.5759058,38.6259537,250.1297760,109.2061081,2.6647329,-0.6991033,10.0484133,22.5343513,8.9923668,7.9083967
7420,6.5792327,0.8020535,4.4986820,19.1145039,-187.2824402,-19.0152664,2.5258698,-0.7086801,9.8425131,14.8931293,4.3816795,1.0839695
7430,7.9630742,1.7717001,6.7228842,-2.8549619,-250.1374054,-19.7557259,2.4301023,-0.5913648,9.8305416,10.8091602,2.2290077,-1.6412214
7440,12.3276815,2.8347204,10.4721851,-15.6641226,-250.1374054,-9.9083967,2.2936335,-0.6392486,10.0388365,7.5190840,0.8015267,-3.5038168
7450,16.5175133,4.1204000,13.6037846,-16.8625946,-250.1374054,-6.1603055,2.2050486,-0.6967092,10.2926207,5.3969464,0.3206107,-4.9236641
7460,17.0274754,4.3765783,14.2310619,-13.2595415,-166.5725250,-11.7328243,1.9871773,-0.7014975,10.5775290,5.0458016,0.5572519,-4.9083967
7470,14.4561157,3.6487448,13.1752243,-5.7557254,-23.6183205,-13.4809160,1.7740943,-0.7158626,11.4609852,8.1908398,-1.6564885,-4.3053436
7480,10.5918941,2.5929072,10.8432837,1.0458015,68.7251892,-1.6106870,1.4676381,-0.7972651,13.0411501,21.4656487,1.3053435,-3.2213740
7490,8.7411861,2.0111191,9.1051025,4.7099237,107.6030502,19.2442741,1.2306134,-0.8810617,14.3435888,43.7633591,7.6106873,1.1145039
7500,9.1218615,1.8554969,7.2352405,4.9312978,100.9160309,46.2061081,0.7469871,-0.8403605,16.6348286,97.5877838,39.2977104,13.6717558
7510,10.2351599,2.2146254,7.0844064,3.7862597,77.6030502,40.3282433,0.2154770,-1.2210367,16.5606079,134.2748108,52.2213745,25.8778629
7520,11.1042509,2.5713594,7.0389171,2.5801528,58.3511467,23.9160309,0.5482694,-1.0055596,15.2533808,161.7709961,56.0458031,35.6870232
7530,11.2143831,2.6599445,7.1275020,1.6412214,36.3358765,0.8702290,1.4221486,-0.4548960,12.8639803,173.5419922,59.9083977,39.6106873
7540,10.7379398,2.4229198,7.3262196,3.1068702,9.6106873,-23.0916023,2.1499822,-0.4046180,10.7355452,170.6717529,57.6641235,36.6106873
7550,9.8496952,2.2840567,7.3956513,6.7786260,-17.5572510,-43.8091621,2.7605004,-0.3088504,9.1242561,158.7862549,47.1832047,26.3053436
7560,8.9279327,2.0661855,7.5033898,12.2137403,-40.8625946,-57.8091621,2.9352763,-0.0143651,8.1498213,142.4503784,29.1984730,13.3053436
7570,8.3509331,1.6472024,7.1586266,17.3206100,-61.6564903,-66.2671738,3.0310438,0.4620786,7.3142486,123.3129807,9.2137403,-0.4198473
7580,8.1977043,1.5346755,6.9311786,18.8702297,-78.3816757,-70.8778610,2.8395088,0.9409165,7.1466556,104.1679382,-1.8015267,-11.8244276
7590,8.4586716,1.6424140,6.9287844,16.0763359,-90.7938919,-74.7175598,2.6719155,1.2856797,7.1873569,87.3740463,-9.2900763,-20.0610695
7600,8.9997578,1.6112895,7.2112985,11.5877867,-101.5648880,-79.3129807,2.4277081,1.6232605,7.3262196,70.5801544,-10.6870232,-25.3282452
7610,10.3213511,1.1683644,7.6781654,8.8549614,-112.7480927,-86.5496216,2.0805507,2.0111191,7.7811155,58.1145020,-7.2366414,-26.9083977
7620,11.8320847,1.2569494,8.2910776,5.5267177,-122.5877838,-97.1297684,1.6879035,2.4396791,8.4586716,48.8015251,4.1145039,-25.5954189
7630,13.3978844,1.4532729,9.0691900,2.6030533,-125.3816757,-112.0763321,1.2306134,2.5450234,9.2487535,44.4274826,20.6793900,-22.0916023
7640,14.3459835,1.4772149,10.1896706,2.7251909,-130.8625946,-132.5496216,0.8116302,2.6767037,9.7611103,44.0763359,36.9465637,-17.8702297
7650,15.2509871,1.2617378,10.9414454,8.3893127,-135.9313049,-156.7328186,0.5123565,2.8251436,10.4410601,46.8015251,55.3282433,-11.4809160
7660,15.7729197,0.9792235,11.2766323,17.9541988,-135.9618378,-180.9770966,-0.0215477,2.8921809,11.2167778,51.7328262,75.7328262,-3.8320611
7670,15.7465839,0.8834559,11.4250717,29.5496178,-137.7251892,-202.7099304,-0.3064562,3.0190730,11.6118193,59.5801544,92.6183243,3.2824428
7680,15.4904060,1.1516051,11.3005743,43.0839691,-143.2061005,-224.5877838,-0.5841822,3.0406206,11.8919392,69.1832047,105.7557220,10.6030531
7690,15.0642405,1.3551112,11.0874910,58.1450386,-156.0229034,-249.3435059,-0.8619082,2.8514795,11.8368731,78.7328262,116.1374054,15.3511448
7700,14.5662489,1.3982066,10.0747490,73.5496216,-170.8778687,-250.1374054,-0.8092360,2.5953014,11.3819771,90.5496216,112.7175598,21.7251911
7710,13.1129761,1.4125718,8.8177996,84.9160309,-183.9160309,-250.1374054,-0.9289455,2.6695213,10.8289185,97.1450348,100.2824402,25.8778629
7720,11.6333666,1.4413021,7.4626884,88.6946564,-197.7557220,-250.1374054,-1.0247130,2.9687948,10.3716288,102.0763321,83.2671738,28.3587780
7730,10.8001890,1.5370697,6.4619174,86.7404556,-206.5343475,-250.1374054,-0.7278336,3.0238612,10.2279778,105.0381699,65.6488571,28.8396950
7740,10.3788109,1.5969244,5.6550756,83.4656525,-205.2595367,-250.1374054,-0.2035061,3.1363883,10.0005293,101.4732819,67.0457993,27.1908398
7750,9.3708572,1.4580613,4.6614871,76.1145020,-196.2137451,-250.1374054,-0.0095768,3.5338237,9.9287033,92.4503784,81.9312973,25.3206100
7760,7.8146343,1.2880739,4.0796990,66.2519073,-188.7786255,-250.1374054,-0.1819584,3.8330972,10.1633339,85.5190811,93.9542007,24.3969460
7770,6.1841912,1.0414724,3.5769191,55.9236641,-179.2595367,-250.1374054,-0.5913648,3.8163381,10.7187862,82.8015289,96.4198456,23.6106873
7780,4.2808108,0.7541697,2.9616125,46.8931313,-167.6259613,-250.1374054,-0.6991033,3.5817075,11.2670555,85.7099228,94.8091583,24.0763359
7790,2.8347204,0.8547257,3.0286496,37.7633591,-172.8854980,-250.1374054,-0.4884146,3.5146701,11.0970678,90.4732819,86.6870193,24.3129768
7800,1.5059452,0.9289455,3.3279233,30.6946564,-184.2290039,-250.1374054,-0.0335187,3.5529771,10.7906122,96.3358765,73.9083939,21.5419846
7810,0.6775556,0.8331779,3.6678982,26.9007626,-192.4732819,-250.1374054,0.3830703,3.7277529,10.3141680,98.2366409,61.2519073,15.0152674
7820,-0.2418131,1.0271072,3.8594334,24.9847336,-190.8931274,-250.1374054,0.3878587,3.9240766,9.7251978,97.9923630,49.7404594,8.0229006
7830,-0.9121862,1.0989330,4.1180058,22.2366409,-180.7251892,-250.1374054,0.1939293,4.1754665,9.2272062,94.6412201,40.1832047,2.2824428
7840,-1.6065011,1.2282192,4.4029145,19.4580154,-162.9236603,-250.1374054,-0.1939293,4.3670015,8.9901810,90.6259537,31.9160309,-1.9923664
7850,-2.3582766,1.3287752,4.7165532,18.9618320,-135.2977142,-250.1374054,-0.5123565,4.7955613,8.5017672,85.3282471,22.8320618,-3.9389312
7860,-3.1028695,1.0055596,4.7117648,19.9923668,-102.8015289,-250.1374054,-0.7781116,5.0589223,8.1929159,80.1984711,13.9083967,-6.7480917
7870,-4.2640514,0.8188128,4.6806402,19.9389305,-74.3282471,-250.1374054,-0.9409165,5.2648225,7.8888540,73.6183243,8.6793890,-8.3893127
7880,-5.2456689,0.6057299,4.1084290,17.5572510,-56.4351158,-230.4580078,-1.0678085,5.3893204,7.5345144,67.6717529,4.6717558,-9.7633591
7890,-5.9375896,0.4860204,3.7493007,13.4122133,-45.1145020,-210.0229034,-1.2425843,5.4443870,7.5584559,62.8473282,0.2366412,-12.3893127
7900,-6.5816269,0.3040621,4.0605454,12.8473282,-34.6564903,-188.0534363,-1.4365137,5.3725610,7.5057840,58.3893127,-5.3206105,-14.7022905
7910,-7.1322904,0.1651991,4.0940638,13.2595415,-15.5343513,-162.5419922,-1.3598996,5.4587522,7.4794478,53.6335869,-11.4274807,-17.1679382
7920,-7.9439206,0.0502780,4.0294209,14.2977095,2.0229008,-133.3893127,-1.4628497,5.4372044,7.3453732,48.1450386,-18.0839691,-20.8625946
7930,-8.3078375,-0.0191535,3.9671719,16.0229015,15.4427481,-103.0916061,-1.6208663,5.6718349,7.3980455,42.3129768,-25.8091602,-24.1908398
7940,-8.8680773,-0.2537841,3.9240766,18.0992374,21.7862587,-70.8244247,-1.7166338,5.7963328,7.1945391,35.5954208,-32.5954208,-25.6106873
7950,-9.2559366,-0.3160330,3.7971845,20.3435116,25.6793900,-37.5954208,-1.8387375,5.8609757,7.0676475,28.3816795,-36.7557259,-25.0992374
7960,-10.2495251,0.1819584,4.4172797,25.3053436,27.9618320,-3.7862597,-1.7286048,5.9160423,7.1394730,21.6106873,-41.2671738,-25.3358784
7970,-10.9558105,0.2011119,4.6112089,39.7938919,43.8167953,34.1450386,-1.6448082,5.9280128,7.1179252,14.9770994,-47.5725174,-26.7175579
7980,-12.8663740,0.5578461,3.3398943,49.7251892,71.0152664,80.7862625,-1.5107336,6.0022330,6.9168134,6.9618320,-59.3893127,-29.4580154
7990,-15.6819410,0.6751614,1.1635761,46.9618340,112.4732819,140.1679382,-1.2377959,6.0381460,6.8976598,-3.1679389,-75.5343475,-32.8854980
8000,-18.9954987,0.2059003,-1.0773853,31.3969460,165.5343475,219.7862549,-1.1252691,6.0549049,6.6199336,-15.1526718,-97.6259537,-37.9465637
8010,-19.6131992,-0.7829000,-2.1140692,-6.7251906,195.1832123,250.1297760,-1.0151364,6.2799587,6.4283986,-29.5114498,-121.7938919,-42.2595406
8020,-19.6131992,-2.8730273,-1.3838415,-54.6259537,188.2290039,250.1297760,-0.7445929,6.2631998,6.3254485,-44.5725174,-142.5419922,-43.9541969
8030,-19.6131992,-6.0261750,1.3838415,-90.4961853,185.5801544,250.1297760,-0.2226596,6.0908179,6.2488346,-59.7404594,-161.0076294,-46.3587799
8040,-19.0385952,-11.3604288,6.0716643,-106.8702316,208.2442780,250.1297760,0.4237715,5.6838059,6.2344694,-75.8396912,-175.7328186,-50.1832047
8050,-10.2543135,-19.6131992,9.2032642,-107.2977066,250.1297760,250.1297760,1.0486550,5.6598639,6.3230543,-91.8702316,-186.5954132,-55.0839691
8060,2.7221935,-19.6131992,7.3597383,-117.9694672,250.1297760,250.1297760,1.2617378,5.4802995,6.5552907,-106.3969498,-191.3435059,-60.5419846
8070,17.2261925,-19.6131992,2.9544299,-155.3053436,250.1297760,250.1297760,1.4077834,5.2552457,6.6366930,-117.0916061,-190.3969421,-62.6488533
8080,19.6126022,-19.6131992,8.0732069,-185.9084015,250.1297760,250.1297760,1.5298871,5.1307478,6.9096308,-124.1145020,-182.2900696,-62.7099228
8090,19.6126022,-19.6131992,19.6126022,-163.0458069,143.7786255,250.1297760,1.5035510,4.8721757,7.0173693,-128.1832123,-165.5648804,-59.9312973
8100,19.6126022,-3.0382264,19.6126022,4.3816795,-57.1450386,250.1297760,1.2617378,4.7764082,7.3573442,-131.1297760,-139.6793823,-54.7404594
8110,19.6126022,2.8873925,19.6126022,186.8167877,74.0381699,250.1297760,0.6296718,4.6806402,8.6717539,-129.5038147,-104.2213745,-46.7633591
8120,19.6126022,-1.6184721,3.1339941,250.1297760,183.4351196,-65.2824402,0.3064562,4.4148855,9.5743637,-119.5725174,-65.8091583,-36.7480927
8130,18.0952835,-0.1819584,-5.0014620,237.5725250,76.6183243,-144.1755676,0.2011119,4.1323709,9.7587166,-107.6717529,-30.5648861,-26.6946564
8140,5.6909885,0.0359128,-5.2911587,151.0076294,-81.1679382,-101.8091583,-0.2274480,3.9767487,9.9047613,-99.9389343,-2.4045801,-17.7175579
8150,5.1092005,2.0661855,-3.3949606,37.7862587,-189.1068726,-20.1679382,-0.6057299,3.9192882,9.7180147,-96.9236679,16.6641216,-9.3816795
8160,12.1193867,3.9911139,-0.4740495,-57.7022896,-143.3358765,45.6870232,-0.6871324,3.6583214,9.6557665,-97.6412201,27.2824421,-1.7175573
8170,17.0155048,5.3103123,3.3614421,-114.6335907,3.2137403,71.6335907,-0.6679789,3.3518653,9.5815458,-100.7938919,32.3206100,5.2977099
8180,16.7473545,5.6981707,6.5433197,-130.3816833,117.7175598,75.8473282,-0.3280039,3.0047078,9.5049324,-106.3053436,34.2213745,9.0534353
8190,14.5375185,4.6207857,8.5065556,-112.1755753,158.8396912,58.5954208,-0.1221037,2.8395088,9.3038206,-113.7938919,34.2366409,10.5877867
8200,12.9956608,3.4715748,9.1912937,-72.0992355,147.6030579,43.3664131,0.1077385,2.5426292,9.3038206,-122.2748108,31.8625946,9.2748089
8210,12.3396521,2.0781565,8.4514885,-21.3435116,112.2900772,22.3816795,0.2106887,2.2050486,9.3086090,-130.4580078,29.5877857,7.9618320
8220,9.2439651,1.4820032,4.1754665,50.0992355,40.2977104,-11.5725193,0.3064562,1.5777708,9.8473015,-140.2213745,25.7099228,3.0000000
8230,8.1522150,1.6735384,2.1284344,53.9007645,0.3129771,-17.1526718,0.4548960,1.4101776,10.0196829,-142.8244324,26.4580154,1.3740458
8240,7.3788919,1.4532729,1.0295014,43.2366409,-29.8015270,-17.3206100,0.2920911,1.1947005,10.3883877,-143.9465637,26.8015270,0.2137405
8250,7.2687593,1.3191984,0.7493813,28.9007626,-42.9541969,-15.1832066,0.0957676,0.8882443,10.7187862,-143.8167877,26.6488552,-0.4427481
8260,7.1346846,1.2976507,0.9050036,13.0763359,-44.2366409,-9.2671757,0.0119709,0.6392486,11.0539722,-141.5877838,26.6870232,1.0458015
8270,7.3573442,1.3527170,1.4508789,-1.6717557,-35.6412201,0.5572519,-0.1364688,0.4884146,11.3005743,-138.2442780,27.9389305,3.6793892
8280,7.6063399,1.4676381,1.9704180,-17.2366409,-32.0228996,12.3969469,-0.1771700,0.2705434,11.6836443,-133.1145020,31.2748089,5.8244276
8290,8.1091194,1.4604555,2.2960277,-30.5419846,-25.3358784,24.6717548,-0.0454896,0.0622489,11.8009596,-128.8931274,42.4427490,5.6030536
8300,9.1769285,1.4413021,2.8562679,-36.3511467,-5.8091602,34.5190849,-0.2537841,-0.3591284,11.8991213,-122.4198456,42.0076332,5.5877862
8310,10.3812056,1.1970947,3.1746953,-36.4198456,28.8778629,39.9541969,-0.4908088,-0.6584021,12.1457233,-116.2519073,35.8549614,4.9923663
8320,10.8696203,0.9457048,3.3949606,-35.9083977,67.0763321,44.9007645,-0.4740495,-0.7709290,12.3875360,-108.8396912,26.3664131,3.5877862
8330,11.1784706,0.8355721,3.7253587,-37.7786255,98.2213745,50.3053436,-0.5530578,-1.0678085,12.6101961,-100.3969498,14.5267172,0.9770992
8340,11.7746239,0.5626345,4.1563129,-41.4809151,116.9770966,53.6717567,-0.5698171,-1.1827296,12.8017311,-91.3893127,4.7633586,-1.9465649
8350,12.6317434,0.0742199,4.8985114,-44.7251892,117.9007645,51.4961815,-0.5626345,-1.2354017,12.9453821,-81.8167953,-4.4351144,-4.0916033
8360,14.0323448,-0.2154770,6.0860295,-44.1450386,102.4198456,42.0687027,-0.5841822,-1.3239868,12.9334116,-71.6946564,-12.8244276,-5.6488547
8370,15.6388454,-0.0143651,7.4938130,-38.4427490,78.0534363,24.2366409,-0.6631905,-1.4508789,13.0555153,-60.2290077,-19.2595425,-6.8473282
8380,17.0466290,0.1628049,8.8106174,-25.8473282,52.1526718,-1.6412214,-0.6943150,-1.4197544,13.0938225,-48.3435097,-22.6793900,-7.5343513
8390,18.2293587,0.1340746,9.2679071,-7.3129773,25.3740463,-34.3816795,-0.7038917,-1.4029950,12.8424320,-36.7404594,-23.8473282,-5.3969464
8400,18.2509060,0.1532281,9.0069408,11.7786255,-1.0152671,-70.5954208,-0.6799498,-1.3862357,12.7035694,-25.6488552,-21.1221371,-1.7251909
8410,17.5494080,-0.0239419,8.1091194,23.0992374,-22.9083977,-103.1526718,-0.6607963,-1.3024391,12.3683825,-14.8167934,-15.7557249,2.2671757
8420,16.9987450,0.1819584,7.4602942,25.6412220,-46.7709923,-130.0915985,-0.4453192,-1.3144100,12.1457233,-4.6106873,-8.8015270,6.9160304
8430,17.3243542,0.3950413,7.2831244,25.2671757,-70.6030502,-156.4656525,-0.3902529,-1.3359578,11.8392668,4.1221375,-1.2366412,10.5954199
8440,17.4799767,0.6727672,6.8713236,26.0687027,-85.7480927,-186.1450348,-0.1268920,-1.2569494,11.5160513,11.0534353,6.2748094,13.9007635
8450,16.9388905,0.7469871,6.1506729,25.9541988,-95.6564865,-214.9618378,-0.0119709,-1.1875180,11.3508520,16.3358784,12.3129768,15.1908398
8460,16.6491928,0.8499373,5.1858144,21.6793900,-106.0457993,-242.1755676,0.0263361,-1.1468167,10.9821472,19.9007626,16.4580154,15.4274807
8470,16.3858318,0.8379663,4.6112089,13.8396950,-122.5725174,-250.1374054,0.0837966,-1.0007712,10.7044210,21.3664131,17.5801525,14.7328243
8480,15.9620609,0.6823440,4.6973996,3.9160306,-150.3129730,-250.1374054,0.0550664,-0.9744351,10.4817610,20.9694653,17.0152664,13.0305347
8490,14.9852314,0.5339043,5.3342543,-3.0839694,-179.7709961,-250.1374054,0.0718257,-0.9121862,10.3357162,18.9465656,14.9618320,11.1603050
8500,13.8360205,0.0933734,5.8083038,-4.1374044,-197.6183167,-250.1374054,0.0191535,-0.9026094,10.0843258,15.8091602,11.4961834,8.0763359
8510,12.5120344,-0.2442073,6.4667058,1.4427481,-208.6793823,-250.1374054,-0.1101327,-0.8212070,10.1202393,12.2061071,7.4580154,5.4122138
8520,10.5440102,-0.6512195,5.7771792,8.7786255,-206.6641235,-250.1374054,-0.2418131,-0.6416427,10.0819321,8.3282442,2.5725191,3.0610688
8530,9.0165176,-0.7757174,5.1139889,11.7480917,-193.2977142,-250.1374054,-0.4429250,-0.6057299,9.9933472,3.9465649,-2.3816793,1.2213740
8540,6.9024482,-0.6847382,4.4675574,9.9312973,-183.6335907,-250.1374054,-0.4955972,-0.5386927,10.0603838,0.4656489,-6.7175574,0.1297710
8550,4.9416070,-1.0318956,3.7253587,5.2900763,-173.8854980,-250.1374054,-0.6895266,-0.5339043,10.1561518,-2.5190840,-10.0458012,-0.4122137
8560,3.2752512,-1.0678085,3.5888901,-0.8702290,-179.4503784,-250.1374054,-0.8212070,-0.5075682,10.1944590,-4.7862597,-11.5114508,0.3511450
8570,2.1092808,-0.9552816,3.7205703,-7.2595420,-199.1450348,-250.1374054,-0.9050036,-0.5171449,10.1346035,-6.5877862,-12.0000000,1.5038168
8580,1.3359578,-0.8858501,4.0820932,-12.2290077,-219.8244324,-250.1374054,-1.0007712,-0.4572902,10.2279778,-8.7099237,-11.3129768,5.0916033
8590,0.5123565,-0.8283895,4.5345950,-13.8702288,-232.4732819,-250.1374054,-1.0845678,-0.6153067,10.3261395,-10.0305347,-10.1755724,8.4503813
8600,-0.0550664,-0.6943150,4.8985114,-14.1450386,-235.0152740,-250.1374054,-1.1468167,-0.7110743,10.3788109,-11.0763359,-9.9312973,11.0992365
8610,-0.8451489,-0.7493813,5.0589223,-15.6717558,-223.5648804,-250.1374054,-1.1348459,-0.8044477,10.3907824,-11.7251911,-10.5419846,14.0076332
8620,-1.8052188,-0.8882443,5.2025738,-18.6564884,-198.3587799,-250.1374054,-1.0462608,-0.8499373,10.4865494,-12.0229006,-10.1526718,17.3435116
8630,-2.8826041,-1.1085097,5.3725610,-22.5190830,-160.1908417,-250.1374054,-0.9983770,-1.0103480,10.5847120,-11.9694653,-9.1068707,19.7786255
8640,-4.1299767,-1.1563935,5.2408805,-25.4809170,-113.0916061,-250.1374054,-0.8786675,-1.0342898,10.8265247,-11.4961834,-7.9389315,21.2595425
8650,-4.7404952,-0.8834559,4.8051381,-28.6106873,-68.4351120,-250.1374054,-0.6703730,-0.9983770,10.9773588,-9.5419846,-6.9770994,23.0381680
8660,-5.2169390,-0.9528874,4.6255741,-34.9083977,-27.4122143,-250.1374054,-0.4740495,-0.9983770,10.9917240,-7.0763359,-6.7938933,23.5954189
8670,-6.8018923,-1.3694763,5.5473371,-30.4198475,19.7175579,-232.9770966,-0.3184272,-0.8762733,11.1664991,-4.7938933,-4.5190840,23.0992374
8680,-11.1138277,-1.1037214,5.0708933,-29.0534344,51.6488533,-189.3358765,-0.0694315,-0.6799498,11.2335367,-2.2137403,-1.9389313,23.6870232
8690,-14.7051115,-1.6328372,4.5274124,-35.0458031,88.2748108,-119.0457993,-0.0790083,-0.5817881,11.2335367,0.1908397,-1.5038168,23.9923668
8700,-18.9212799,-1.8195840,4.7141590,-41.6183205,116.7938919,-25.8473282,0.0790083,-0.6009415,11.1521349,2.1068702,-0.3358779,24.8549614
8710,-19.6131992,-2.3510940,5.7436604,-40.3129768,113.3129807,80.4122162,0.2801202,-0.5602403,11.0467901,4.2213740,0.0534351,24.0458012
