timestamp,rxacclX,rxacclY,rxacclZ,rxgyroX,rxgyroY,rxgyroZ,txacclX,txacclY,txacclZ,txgyroX,txgyroY,txgyroZ
0,-8.8800488,2.6288199,2.3415172,43.5648842,-44.7938919,-42.7022896,-2.6814921,2.1595588,9.9837704,4.0458016,-1.2671756,0.4198473
10,-9.9526453,2.3008161,2.4468615,33.7709923,-39.8091621,-21.9389305,-2.6360025,2.2577207,9.9598284,3.9465649,-1.8778626,-0.0687023
20,-10.8384953,1.7381816,3.0406206,26.1068707,-39.7175560,1.7786260,-2.6144550,2.3415172,9.9741936,3.6106870,-1.7862595,-0.5267175
30,-12.8304615,0.9864060,3.1459649,20.9236641,-43.6946564,37.5190849,-2.5450234,2.3989778,9.8592720,3.3893130,-1.3740458,-1.1450381
40,-14.4513273,0.9624642,2.9999194,20.1221371,-35.7404594,92.3664093,-2.4684093,2.5641768,9.7970228,2.6183207,-1.6793894,-1.1603054
50,-14.5830078,0.0837966,3.5960727,17.9083977,10.0000000,152.6412201,-2.4516499,2.5569944,9.7108326,1.0381680,-2.8396947,-2.5572519
60,-16.2924595,-0.7733232,4.4914994,17.7557259,78.0457993,233.5801544,-2.4492557,2.5713594,9.6916790,-0.1297710,-3.7251909,-3.1526718
70,-17.9827576,-1.7214222,3.8211265,14.9618320,139.9389343,250.1297760,-2.3750360,2.5976956,9.7802639,-0.8320611,-3.7251909,-4.1145039
80,-18.1910515,-3.6008608,2.4660151,-2.2137403,184.5572510,250.1297760,-2.3606708,2.5282640,9.7228031,-2.1832061,-4.3740458,-5.1068702
90,-17.3698444,-7.0891948,3.1028695,-38.9007645,250.1297760,250.1297760,-2.5210814,2.5043221,9.7970228,-3.5114503,-6.3740458,-7.2290077
100,-15.1887379,-10.6158361,3.4332676,-96.7022934,250.1297760,250.1297760,-2.6216373,2.3822186,9.8233595,-4.2137403,-7.2977099,-7.1679387
110,-12.2750092,-16.3259773,5.3462253,-160.4961853,250.1297760,250.1297760,-2.6168492,2.3367288,10.0867205,-3.5725191,-6.7633586,-7.8702292
120,-5.6957769,-19.6131992,8.6717539,-191.3740387,250.1297760,250.1297760,-2.6982515,2.1787124,10.1274214,-3.0992367,-5.5877862,-8.5114508
130,5.3007355,-19.6131992,11.1688938,-188.7099304,250.1297760,250.1297760,-2.8107784,2.1595588,10.0340481,-2.6564887,-4.6870227,-8.5038166
140,19.6126022,-19.6131992,12.9980545,-180.6488495,250.1297760,250.1297760,-2.8754215,2.0901275,9.8808203,-2.3435113,-4.3587785,-8.6030531
150,19.6126022,-19.6131992,16.1009235,-190.1984711,250.1297760,250.1297760,-3.0406206,2.0733681,9.9598284,-2.2900763,-4.2748094,-7.5877862
160,19.6126022,-8.4514885,19.6126022,-185.7557220,250.1297760,250.1297760,-3.2106080,2.0350611,10.0292597,-1.7862595,-3.7557251,-6.2671757
170,19.6126022,2.6120608,19.6126022,-157.6793823,250.1297760,250.1297760,-3.1579359,1.9871773,10.0148945,-1.3358779,-2.9770992,-5.3511453
180,19.6126022,3.9647777,19.6126022,-87.9923630,190.9313049,116.3587799,-3.1220231,1.8794388,10.1010857,-0.3282443,-2.3816793,-2.8320611
190,19.6126022,0.5219333,19.5892582,13.3282442,-103.5419846,-56.7938919,-3.1268115,1.9967541,10.0962973,0.6946565,-1.7480916,-1.7633588
200,17.1926746,-0.3950413,15.8064384,94.0000000,-250.1374054,-131.1526642,-3.0382264,1.9105632,10.1130562,1.8473282,-2.2900763,-1.6106870
210,10.4697905,1.5969244,13.0267849,124.5801544,-250.1374054,-118.9389343,-2.9113343,1.9967541,9.9933472,1.9236641,-2.2977099,0.2290076
220,9.2272062,3.1723011,10.7068148,124.0152664,-250.1374054,-65.7938919,-2.8059900,2.1595588,9.9957409,2.1297710,-0.4732825,0.6488550
230,6.3422079,5.3414369,3.7229645,64.4122162,2.5343511,47.1526718,-2.8227494,2.2792683,9.9502516,2.1526718,-0.2977099,2.4580152
240,5.4372044,5.2432747,2.2577207,35.5725174,74.2442780,85.0305328,-2.7245877,2.3367288,9.8760319,1.0992366,-1.7251909,2.1068702
250,6.1147599,4.9272418,2.3486998,14.1755724,88.0229034,105.8625946,-2.6671271,2.4420733,9.8137827,0.5954198,-2.8396947,2.8778627
260,9.3493099,5.1163831,2.3678534,1.9618320,86.2061081,113.2442780,-2.5019281,2.4253139,9.8688488,-0.1450382,-2.2061069,2.1908398
270,12.6580801,5.8944945,1.7740943,-8.0839691,96.7175598,102.8473282,-2.4229198,2.4803803,9.8425131,-0.7328244,-1.7099236,2.2290077
280,13.6373034,6.6247220,1.1444225,-27.6564884,125.7022934,76.1755753,-2.3870070,2.3726418,9.8544836,-1.7404580,-2.4809160,0.8396947
290,11.4897156,5.9495606,1.5873476,-55.0000000,153.5267181,51.3129768,-2.3582766,2.3870070,9.8760319,-2.0687022,-3.5496182,-1.0381680
300,9.3588867,4.9176650,2.8227494,-73.3206100,161.6259613,38.8320618,-2.3726418,2.4324965,9.7970228,-2.5190840,-4.1832061,-1.8091604
310,8.3245964,4.0677280,3.7564833,-82.3816757,150.1145020,33.9160309,-2.5378408,2.4684093,9.9215212,-3.2900763,-4.7709923,-3.2595420
320,8.0708122,3.4883339,4.5561423,-86.3969498,123.6793900,30.3053436,-2.6695213,2.3582766,9.8927908,-4.0305343,-4.5572519,-3.6259542
330,8.3748751,3.1914546,5.3103123,-92.3053436,87.9847336,23.5114498,-2.7365584,2.3463056,9.9287033,-4.3358779,-4.6412215,-4.0229006
340,8.6166878,3.1651185,6.1865854,-95.2519073,66.6870193,20.0610695,-2.8107784,2.2960277,9.9095497,-3.9694657,-4.8091602,-4.1221375
350,8.8201942,3.1675127,6.9503322,-93.4809189,53.8778610,17.9083977,-2.8514795,2.2098370,9.9287033,-4.0534353,-4.7022901,-4.3206105
360,8.4155760,3.6607156,7.4483232,-88.4885483,39.5648842,16.0763359,-2.8610563,2.1164634,10.0005293,-3.7786260,-4.5801525,-4.5267177
370,7.3836803,2.5306582,7.7595682,-83.7175598,27.0000000,16.9083977,-2.8203552,2.0997043,10.0699606,-2.8854961,-4.9770994,-4.7175574
380,6.4547348,1.5921360,7.7164726,-80.4351120,13.9312973,22.7557259,-2.9185169,2.0087249,10.0244713,-2.1297710,-4.9236641,-5.1450381
390,5.5186067,1.3239868,8.0061693,-80.8931274,11.2824430,36.2519073,-3.0406206,2.0518203,10.2734671,-1.1679389,-3.0763359,-3.9923663
400,4.1706781,2.3870070,8.0157461,-86.4198456,1.0381680,56.0763359,-3.3015873,2.1763182,10.9797525,2.3664122,6.0229006,-0.1908397
410,5.3534074,0.4094064,8.1210909,-98.1908417,-33.7557259,71.5954208,-4.6375451,2.1404054,12.3755655,11.5954199,23.0687027,9.9770994
420,7.2280579,-0.6296718,8.5544386,-102.2977066,-37.1297722,75.8396912,-5.0852585,2.0901275,12.6149845,22.8473282,36.3969460,21.5954189
430,8.7100611,-1.1587877,9.5623922,-94.4961853,-21.6870232,75.0916061,-5.8418221,1.9560528,12.9214401,34.1603050,47.2595406,36.4045792
440,9.7946291,-1.3215926,10.5966825,-76.9465637,7.8854961,74.0687027,-5.6215568,1.9297167,13.9461536,47.0228996,59.9923668,51.4503822
450,11.3197279,-0.8259954,11.8751793,-51.0916023,51.3587799,72.8320618,-5.2360926,1.1851238,15.0666342,67.5572510,62.4961815,63.4885483
460,12.0044661,-0.4812321,12.5455532,-19.9160309,88.9007645,66.5648880,-5.0828643,0.8547257,16.4025917,91.7709961,62.2137413,70.2442780
470,12.1983957,-0.0957676,12.2582502,10.1221371,115.1297684,58.0687027,-4.1299767,0.4453192,17.1950684,128.8931274,57.8167953,71.2595444
480,12.5120344,0.0143651,11.4226780,36.1450386,133.0686951,45.3129768,-3.4596038,0.2585725,16.4289284,166.6793823,56.1374054,69.5725174
490,12.8663740,0.2753318,11.0348196,53.5419846,134.3435059,27.2213745,-2.3463056,0.8188128,14.7075062,197.8549652,56.0381660,65.2366409
500,13.6875811,0.2657550,10.3572636,59.7480927,123.3664093,4.7557254,-1.6017127,1.2282192,12.6101961,220.7328186,57.6946564,56.8473282
510,14.4034433,0.1532281,10.0915089,56.7786255,96.7709961,-23.7099228,-0.8092360,2.1451938,10.5104914,230.5343475,72.2137375,46.8320618
520,15.4497042,0.7254394,10.6900558,55.2519073,55.8320618,-67.0992355,-1.0127422,2.9376705,9.0069408,232.5801544,91.4885483,39.3740463
530,15.9931860,0.7182568,11.9709473,62.8778610,19.1221371,-124.2061081,-0.9911944,4.3167233,7.9726510,227.9007568,120.9007645,33.6488533
540,14.9636841,-0.0263361,12.5599174,79.7938919,-23.7251911,-181.6335907,-2.2050486,4.0701222,6.5528965,214.0992432,126.2824402,33.9083977
550,13.6420918,-0.3040621,11.8320847,93.9312973,-68.5267181,-225.9541931,-4.0222383,4.9368186,6.0094156,195.2442780,91.2213745,32.3816795
560,12.9573536,-0.4979914,10.6541433,99.8625946,-100.0839691,-250.1374054,-4.5944495,5.6742291,5.7604198,171.1221313,37.7022896,29.3435116
570,12.4545736,-0.7757174,9.6390066,98.7938919,-126.6488571,-250.1374054,-5.4372044,6.1770086,6.4116392,149.1145020,-4.6641221,23.5725193
580,12.4019012,-0.9959828,9.4642305,95.5038147,-143.1450348,-250.1374054,-6.0860295,6.7492199,7.8553357,131.8015289,-25.6946564,23.1145039
590,11.5998478,-1.0103480,9.6964674,97.0534363,-154.2977142,-250.1374054,-6.5624733,6.7994981,9.3349447,123.5801544,-38.0992355,26.3740463
600,10.5368280,-1.0055596,9.0308828,98.8091583,-160.8244324,-250.1374054,-6.6055689,6.5433197,10.6565371,125.4732819,-52.4961815,30.2061062
610,9.3780403,-0.9050036,8.3605099,95.8625946,-164.1679382,-250.1374054,-5.6862001,6.1674318,11.4729557,135.9465637,-67.3282471,32.2519073
620,8.2384062,-0.6009415,8.1115141,89.7557220,-160.1068726,-250.1374054,-4.8027439,5.8944945,11.3149395,151.0305328,-75.6183243,30.5267181
630,6.5912037,-0.8978211,7.6709828,83.3740463,-154.6564941,-250.1374054,-3.8019729,5.8681583,10.8001890,165.5190887,-77.7404556,26.4961834
640,5.3462253,-0.9696468,7.9199786,80.8473282,-154.7099304,-250.1374054,-2.8849983,5.6885943,10.1633339,179.9160309,-72.3435135,21.2366409
650,4.5130472,-0.6057299,8.0013809,84.0534363,-162.0000000,-250.1374054,-2.0494261,5.5593081,9.2080526,195.3816833,-61.9465637,12.6259546
660,4.0389977,-0.5291159,7.6374645,90.7404556,-173.2290039,-250.1374054,-1.7669119,5.5066357,8.5592270,210.2442780,-39.6030540,6.3129773
670,3.3853838,0.0263361,6.9886389,93.9847336,-182.8015289,-250.1374054,-1.5658000,5.6407104,7.3238254,223.5343475,-17.1374054,0.9465649
680,3.5338237,1.3359578,6.2991123,88.7022934,-180.4274750,-250.1374054,-1.7094513,5.6095858,5.5377603,230.3893127,-0.9389313,-6.2671757
690,2.0709739,0.4644727,5.3988972,76.8015289,-160.5801544,-250.1374054,-2.1930776,5.6478930,3.8953462,230.5190887,1.9618320,-11.5343513
700,0.8499373,0.6200951,5.5233951,64.1450348,-133.3129730,-250.1374054,-2.4301023,5.9064655,2.3558824,225.0610657,-4.6564884,-14.7099237
710,0.0335187,0.9696468,5.5353661,54.7251892,-112.6793900,-250.1374054,-2.8969693,6.1195483,1.5394639,214.1755676,-10.6946564,-16.9236641
720,-0.7350162,1.2018831,5.6239510,49.2442741,-94.0229034,-250.1374054,-3.6774750,6.4475522,0.8571198,201.2213745,-19.2213745,-15.7251911
730,-1.8387375,1.5753766,5.7987270,46.4656487,-84.7328262,-250.1374054,-4.4484038,6.8952656,0.1292862,186.5954132,-32.2748108,-10.1832066
740,-2.9400647,1.6184721,6.0070214,47.1755714,-79.3282471,-250.1374054,-4.6710634,7.0724359,-0.0933734,171.6183167,-46.5190849,-1.9541985
750,-3.6008608,1.6088953,5.6263452,48.7786255,-72.3587799,-250.1374054,-4.6471219,7.1969333,-0.7014975,156.0152740,-65.0763321,5.5038166
760,-3.6798692,1.9297167,4.8649931,47.3053436,-65.6412201,-250.1374054,-4.7452836,7.1897511,-0.4357425,139.6946564,-85.3282471,11.7099237
770,-3.8378856,1.8674678,4.5776901,43.6183205,-56.6641235,-250.1374054,-4.6471219,7.1753860,-0.5602403,125.4961853,-105.6030502,17.0839691
780,-4.3167233,1.9225341,4.8721757,42.7251892,-50.4580154,-250.1374054,-4.7045822,7.2160869,-0.8236012,113.6259537,-125.2213745,22.2748089
790,-4.9128766,1.7190280,5.3151007,48.9389305,-51.8778610,-248.2213745,-4.4124913,7.3022780,-1.3455344,104.0381699,-136.5572510,30.0076332
800,-6.6582408,1.5993185,6.0309634,62.5801544,-68.1908417,-243.8473358,-4.2281384,7.3525558,-2.0254843,92.9465637,-148.4045868,36.4961815
810,-8.7531567,1.2689204,6.6869712,79.2366409,-93.6335907,-235.1145020,-3.9982965,7.5656385,-2.8873925,79.9160309,-155.7862549,44.6488533
820,-10.4530315,1.3790531,6.5145893,96.2519073,-133.3969421,-217.8396912,-3.8953462,8.0181408,-3.8139439,65.0457993,-156.1145020,53.1450386
830,-11.4633789,1.7118455,6.2488346,110.6870193,-162.8549652,-193.4122162,-3.4045374,8.5041609,-5.0325861,45.6564903,-152.5038147,62.7862587
840,-11.9039097,1.7860653,5.2456689,115.5267181,-150.0534363,-158.2442780,-3.0597742,8.8728657,-6.4020624,18.4885502,-155.2213745,71.9312973
850,-12.3157110,1.8124014,4.2448978,112.5267181,-106.6488571,-114.7175598,-2.7748656,9.1888990,-7.1921453,-15.1908398,-158.3358765,80.8244247
860,-12.3995075,1.7309990,2.6790979,107.4809189,-71.5343475,-61.2442741,-2.3079987,9.5815458,-7.9798336,-52.5954208,-162.6030579,90.3129807
870,-11.7698355,2.0159075,1.1875180,94.8396912,-42.1221390,-6.6793895,-1.8363433,9.7778702,-8.2862902,-93.3282471,-163.6183167,100.0152664
880,-10.0699606,1.8267666,0.0311245,69.3129807,-8.8625956,41.0000000,-0.9672526,9.3277617,-7.9654684,-133.7175598,-156.7251892,106.2366409
890,-9.0069408,2.0973101,0.4477134,34.9541969,49.7480927,81.7480927,-0.1699875,8.5544386,-7.2950954,-171.7251892,-149.3282471,109.1755753
900,-8.2144642,1.4748207,1.2569494,7.5648856,97.4885483,118.4503784,0.4620786,7.6925306,-6.2488346,-206.2442780,-143.1450348,109.0305328
910,-8.0899658,0.7134684,2.2170193,-10.1526718,134.8625946,152.8091583,0.9313397,6.8521700,-5.2408805,-235.5496216,-134.4961853,107.9847336
920,-10.0508070,1.0271072,3.3805954,-22.3206100,184.4427490,193.0076294,1.2928623,6.0142040,-4.0485744,-250.1374054,-123.5801544,105.7709961
930,-14.1903610,1.1923064,4.1467361,-32.2442741,224.2671814,250.1297760,1.7214222,5.3270717,-3.2632802,-250.1374054,-108.6717529,102.6412201
940,-18.0617657,0.5482694,4.4771342,-42.5419846,250.1297760,250.1297760,1.7621235,4.6471219,-2.4181314,-250.1374054,-91.1603088,98.9465637
950,-19.6131992,-1.6160779,4.7835903,-58.0381660,250.1297760,250.1297760,2.0542145,3.9575951,-1.8531027,-250.1374054,-71.6259537,93.7557220
960,-18.9667683,-5.2528515,3.7923961,-87.4274826,250.1297760,250.1297760,1.9632354,3.1818779,-1.2665262,-250.1374054,-56.8625946,87.3969498
970,-16.0219154,-10.6661139,2.2457497,-142.7022858,250.1297760,250.1297760,1.8938038,2.4660151,-0.6512195,-250.1374054,-45.4503822,82.0457993
980,-14.2334566,-19.6131992,4.0629396,-206.5038147,250.1297760,250.1297760,1.8076130,1.3742647,-0.3112446,-250.1374054,-34.5419846,78.4122162
990,-3.7708483,-19.6131992,6.6917596,-248.3129730,250.1297760,250.1297760,1.3982066,-0.0383070,0.7086801,-250.1374054,-10.4580154,79.8015289
1000,17.0585995,-19.6131992,9.5767574,-250.1374054,250.1297760,250.1297760,1.2138541,-1.5011568,3.6152260,-250.1374054,40.6564903,87.3816757
1010,19.6126022,-19.6131992,12.8974981,-250.1374054,250.1297760,250.1297760,1.3790531,-2.8012016,7.3669209,-250.1374054,106.2213745,94.3358765
1020,19.6126022,-19.6131992,19.6126022,-250.1374054,250.1297760,250.1297760,1.0510491,-3.7277529,11.2622671,-250.1374054,164.0076294,98.9542007
1030,19.6126022,-3.3111639,19.6126022,-250.1374054,250.1297760,250.1297760,1.2928623,-4.2329268,16.1105003,-250.1374054,209.3358765,100.0457993
1040,19.6126022,0.5219333,19.6126022,-77.9847336,250.1297760,216.1374054,3.8785870,-4.2855992,19.6126022,-250.1374054,250.1297760,83.8778610
1050,19.6126022,-0.0885850,19.6126022,127.6488571,-19.4503822,-26.2977104,3.1292057,-5.1594782,19.6126022,-250.1374054,250.1297760,58.3664131
1060,16.6084919,-0.4692611,12.1840305,203.7022858,-250.1374054,-164.6793823,2.7078283,-5.8921003,19.6126022,-235.7404633,250.1297760,36.3816795
1070,7.8289995,1.5873476,6.7037306,190.0000000,-250.1374054,-184.2137451,2.7485294,-5.4587522,19.6126022,-145.1755676,250.1297760,12.1297712
1080,6.4571290,3.3470769,4.7835903,149.1984711,-250.1374054,-133.5496216,2.7628946,-4.3789725,18.8446655,-76.8015289,250.1297760,-18.7633591
1090,8.6909075,4.0964580,3.3877780,100.5190811,-250.1374054,-64.9083939,1.4867916,-2.8993635,18.1982346,-43.7022896,250.1297760,-43.2366409
1100,8.7028790,5.2672167,1.6472024,46.4198456,-84.3587799,-6.6106873,-1.6424140,-1.4700323,18.5501804,-22.4656487,250.1297760,-50.5190849
1110,6.7540083,5.3988972,0.6919208,-6.6183205,83.7480927,40.0458031,-4.0820932,-0.9840119,18.0378227,1.4732825,250.1297760,-46.7938919
1120,4.6854286,4.7883787,1.4029950,-47.7786255,173.9847260,78.9083939,-4.9104824,-0.8810617,16.5917320,25.1832066,250.1297760,-43.7480927
1130,3.9743545,4.0413918,2.9807658,-66.9389343,194.3206177,107.2442780,-5.0684991,-0.1460456,14.6213150,44.5954208,250.1297760,-47.8854980
1140,4.7189474,3.2752512,4.4436154,-65.7480927,162.0152740,123.1450348,-5.9112539,0.8092360,12.2558556,56.1603050,216.6564941,-52.3206100
1150,6.3829093,3.1459649,5.8729467,-51.1755714,93.4198456,122.3587799,-6.8641410,1.7477583,10.0316534,54.8091621,174.5114441,-53.0610695
1160,7.9822278,3.2608860,7.0269461,-26.6335869,15.3282442,107.2290039,-7.2519999,2.4827745,8.2599535,42.0228996,126.6412201,-52.1908379
1170,9.5264797,3.2824337,7.5033898,3.2290077,-46.3969460,85.6106873,-7.1586266,2.9161227,7.1418672,24.4045811,80.6183243,-53.1526718
1180,11.4514084,3.4715748,6.8856888,29.2061062,-73.4961853,64.5419846,-6.9551206,3.1196289,6.7372489,7.8015265,38.0381660,-53.7251892
1190,12.2486734,3.4093258,5.3198891,42.8320618,-65.9770966,45.8854980,-6.5505023,3.2082138,6.5457139,-5.5572519,-0.8244275,-55.9465637
1200,11.6142130,3.3422885,3.6918402,40.1603050,-45.5114517,33.0687027,-6.1482787,3.2584918,6.4571290,-15.9160309,-26.9389305,-57.2290077
1210,10.4817610,2.8562679,2.6407909,25.3893127,-22.9694653,28.9770985,-6.3876977,2.2194135,6.3302369,-24.9770985,-41.5267181,-49.6412201
1220,9.8281479,2.6048782,2.4492557,5.0381680,-4.7557254,33.3511467,-6.1841912,3.7277529,6.9048424,-30.5954189,-43.0000000,-43.9312973
1230,9.7180147,2.6024840,2.8203552,-13.7786255,10.6030531,40.4045792,-5.6000090,3.7780309,7.7643566,-30.4351139,-30.5954189,-46.1908379
1240,10.1034794,2.7437410,3.4308734,-27.9160309,19.4351139,45.3206100,-7.1873569,3.1411765,9.1769285,-27.5419846,-32.2519073,-43.7938919
1250,10.5823174,2.7724714,3.9695661,-38.2977104,27.4351139,46.0305328,-9.9981356,2.9855542,10.7546988,-26.1297703,-99.3893127,-33.7404594
1260,10.8384953,2.8203552,4.6686692,-45.5419846,38.7251892,45.4885483,-9.6533718,2.7772598,12.0595322,-24.6717548,-131.3511505,-19.0458012
1270,11.3747940,2.8490853,5.3749552,-50.0381660,49.2977104,44.1832047,-8.3054428,1.9512644,12.4545736,-14.2290077,-136.2366486,-8.5725193
1280,12.0882626,3.1052637,5.5952206,-52.3893127,64.2442780,39.8854980,-7.2376347,1.4197544,12.3540173,1.7786260,-142.7862549,0.1374046
1290,12.7322998,2.7341642,6.1817970,-55.4122124,73.8778610,30.0916023,-5.3103123,0.9648584,11.3340931,17.1679382,-113.0381699,3.2671757
1300,13.0579090,2.5162930,6.6199336,-57.1832047,77.2900772,17.6946564,-4.2712340,1.0103480,10.1633339,29.8244267,-86.7251892,2.6106870
1310,13.3236647,2.4301023,6.9934273,-56.9160309,75.4045792,4.9465647,-4.0150557,1.2258250,9.2726955,34.3206100,-67.4351120,3.2977099
1320,13.5630836,2.2936335,7.2208753,-57.8091621,67.7480927,-8.4961834,-3.9216824,1.4101776,8.7076674,32.4503822,-60.0916023,2.1145039
1330,13.9629126,1.7740943,7.5680327,-59.7557259,58.9312973,-21.3435116,-3.8450682,1.6711442,8.4921904,26.7786255,-59.5496178,0.2748092
1340,15.0355101,1.8531027,8.3629036,-59.0763359,55.1679382,-34.7480927,-4.0030847,1.8746504,8.7052727,20.4198475,-63.4198456,-0.9847328
1350,16.1895084,1.7980363,9.1218615,-53.8473282,49.1984749,-56.5343513,-3.8187323,1.8315549,8.8944139,16.0916023,-70.4732819,-1.0992366
1360,17.6427822,1.8770446,10.0675669,-43.2442741,30.6030540,-91.9542007,-3.6343796,1.9991482,8.9135675,11.9160309,-75.7328262,-1.9770992
1370,19.3450508,1.6065011,10.8935623,-28.3969460,10.4961834,-139.0763397,-3.5912843,1.9967541,9.2942438,8.2137403,-80.5648880,-5.0687022
1380,19.5748920,1.3120158,11.3747940,-10.7328243,-11.0152674,-196.0686951,-3.9743545,1.7573351,9.7108326,6.8778625,-86.0534363,-8.1297712
1390,18.5118732,1.0654143,11.2167778,6.1526718,-36.2900772,-247.9770966,-4.3909435,1.2306134,9.6270361,4.3053436,-90.3129807,-10.2519083
1400,16.7617207,0.3615226,10.4817610,19.6106873,-59.5343513,-250.1374054,-4.4962878,1.0630201,9.6126709,0.8854962,-86.7404556,-11.3816795
1410,14.8990412,-0.2513899,9.8473015,28.0763359,-79.0457993,-250.1374054,-4.5920553,1.0175306,9.7682934,-3.4198472,-80.3358765,-8.5343513
1420,12.9214401,-0.5219333,9.0236998,32.0610695,-93.0457993,-250.1374054,-4.4723458,1.0295014,10.0101061,-6.9389315,-77.4732819,-5.4198475
1430,11.2862091,-0.5506636,8.4490948,32.7480927,-99.7328262,-250.1374054,-3.9791429,1.0414724,9.8927908,-10.1526718,-76.4198456,-1.8167939
1440,10.0388365,-0.4908088,7.9870162,32.8473282,-100.1068726,-250.1374054,-3.6870518,1.3814473,9.6701307,-15.0763359,-77.7786255,2.0458016
1450,8.9566631,-0.3423691,7.5416965,34.4045792,-98.2671738,-250.1374054,-3.2130022,1.4580613,9.2918491,-22.1984730,-75.3511429,9.7633591
1460,7.9367380,-0.2202654,7.3334022,36.2977104,-99.0000000,-250.1374054,-2.6575503,1.3838415,9.4091644,-29.3816795,-63.5572510,17.8778629
1470,6.8569584,-0.0023942,7.0676475,39.6717567,-101.1221390,-250.1374054,-2.1595588,1.2808913,10.1154509,-32.2748108,-50.1679382,25.9389305
1480,5.9830794,0.1604107,6.8018923,44.5190849,-100.9312973,-250.1374054,-1.8507085,1.2761030,10.7714586,-29.7328243,-34.2366409,33.5496178
1490,4.8506279,0.1077385,6.3230543,48.8625946,-96.8167953,-250.1374054,-1.6831152,1.0725969,11.3460636,-24.5343513,-17.3358784,40.6412201
1500,3.2776453,0.1771700,6.1171541,51.9083977,-93.0457993,-250.1374054,-1.3838415,0.8259954,11.4490137,-18.6564884,-6.9083967,45.5725174
1510,2.0613971,0.4381367,5.8466105,55.2824440,-90.6183243,-250.1374054,-0.9576758,0.5674229,11.1257982,-14.2900763,-1.7938931,45.0763359
1520,1.1779412,0.8068419,5.4419928,57.7633591,-90.3969498,-250.1374054,-0.5913648,0.5769997,10.7858238,-11.7633591,0.9847328,41.2442741
1530,0.2657550,1.1563935,5.2743993,59.7633591,-87.4427490,-250.1374054,-0.3806761,0.6512195,10.6062593,-11.3969469,-0.3358779,36.1908379
1540,-0.4022238,1.5442522,4.8482337,60.7709923,-87.1145020,-250.1374054,-0.6607963,0.7062859,10.4099360,-12.4503813,-5.5496182,29.7404575
1550,-1.1132981,1.7429699,4.7381010,60.7175560,-95.5496216,-250.1374054,-0.8044477,0.7086801,10.4410601,-14.3511448,-12.4732828,23.5114498
1560,-1.9728121,1.8890154,5.0613165,61.6259537,-104.1832047,-250.1374054,-0.7637464,0.7445929,10.4123297,-15.6488552,-18.3206100,17.9007626
1570,-2.5665710,1.8291607,5.0804701,63.4198456,-105.7557220,-250.1374054,-0.9169745,0.7924767,10.5751352,-15.5725193,-20.8549614,11.5267172
1580,-3.1699069,1.9704180,5.0684991,63.7022896,-93.4656525,-250.1374054,-0.9935886,0.9816177,10.9175043,-13.7175570,-16.5725193,6.2137403
1590,-3.4069316,2.1619530,4.9296360,62.1908379,-71.6793900,-241.6488495,-1.5203103,0.9935886,11.2407198,-8.7328243,-6.9847326,2.3129771
1600,-3.8809812,2.3678534,4.8003497,57.2824440,-51.6641235,-221.4809113,-2.0853391,0.9337339,11.2479019,-1.3282443,1.8396946,2.5038168
1610,-4.7572546,2.6934631,5.6766233,53.3358765,-40.7404594,-204.3129730,-2.3223639,1.1947005,11.0731258,5.3511453,7.6106873,3.0687022
1620,-5.6981707,2.7006457,6.3422079,54.3282433,-34.2671738,-188.3053436,-2.2888451,1.4915800,10.7379398,9.2290077,10.5877867,4.9312978
1630,-6.0165982,2.5881188,6.0932121,60.4503822,-24.6641216,-170.5801544,-2.1571648,1.5538290,10.2998028,9.3587790,13.7328243,6.0763359
1640,-6.4355812,2.4684093,5.9854736,66.4961853,-19.3969460,-153.8854980,-1.8531027,1.6017127,10.1346035,8.1832066,15.1374044,6.2977099
1650,-7.0748301,2.5474176,6.1147599,73.6870193,-28.1908398,-137.4885559,-1.7190280,1.6472024,9.9837704,6.1221375,13.6641226,6.0381680
1660,-7.3190370,2.6838863,5.7771792,83.7175598,-40.5877876,-120.2366409,-1.6448082,1.6424140,10.1848822,3.5572519,13.3053436,6.2061067
1670,-7.4435349,2.6790979,5.1906028,91.6259537,-46.8320618,-100.4045792,-1.5538290,1.6328372,10.3237448,1.7099236,12.0839691,7.4580154
1680,-7.2783360,2.5857246,3.9073172,92.3282471,-49.6793900,-79.9389343,-1.3766589,1.5274929,10.5200682,1.8167939,12.9541988,7.5572519
1690,-6.8234401,2.5258698,3.2273674,85.3893127,-49.5572510,-62.1297722,-1.3790531,1.2138541,10.5871058,3.1145039,10.8320608,8.1068707
1700,-6.8186517,2.2074428,2.7796540,73.6335907,-36.4656487,-45.1450386,-1.5274929,1.2090657,10.2638903,3.1068702,5.2977099,5.6488547
1710,-6.7061248,1.8483143,3.0501974,60.9771004,-12.4198475,-27.0763359,-1.6519908,1.3814473,10.0484133,0.8625954,1.7175573,3.9389312
1720,-8.4610653,0.7876883,4.2808108,43.9465637,56.3129768,24.5190830,-2.3941894,1.5227045,10.4147243,-1.4198474,-0.1908397,2.5267177
1730,-10.0388365,0.5075682,5.6263452,41.1221390,90.7480927,63.8702278,-2.5809362,1.4652439,10.4434547,-0.3053435,-0.7251908,5.5114503
1740,-13.8527803,-0.1651991,7.1658092,46.3282433,124.2748108,120.9465637,-2.5354466,1.4628497,10.3045912,1.2824427,0.6412213,7.5343513
1750,-19.6131992,-1.2090657,9.2535419,64.4427490,155.5038147,216.5419922,-2.4731977,1.3191984,10.4243011,3.0152671,2.4503818,7.9694657
1760,-19.6131992,-3.5841017,10.9797525,97.6870193,182.4122162,250.1297760,-2.4899571,1.2018831,10.2878323,3.7480917,3.1908398,5.9007635
1770,-19.6131992,-6.6582408,11.2143831,135.9694672,216.2900696,250.1297760,-2.6455793,1.2665262,10.2088242,3.7709923,4.8854961,3.9923663
1780,-19.6131992,-11.6525202,8.1450329,152.7480927,250.1297760,250.1297760,-2.7078283,1.3048333,10.2686787,4.5648856,7.0305343,1.8854961
1790,-10.0795374,-19.6131992,3.5625539,125.9847336,250.1297760,250.1297760,-2.9903426,1.3598996,10.2279778,5.2671757,10.7404585,2.0000000
1800,4.3550305,-19.6131992,-0.7062859,59.0305328,250.1297760,250.1297760,-2.8826041,1.3742647,10.1322098,6.2061067,10.7099237,2.9389312
1810,19.6126022,-19.6131992,-2.6336083,-16.7633591,250.1297760,250.1297760,-2.6048782,1.3191984,10.1489687,6.7557254,8.8778629,3.0687022
1820,19.6126022,-19.6131992,-1.7549409,-84.9618301,250.1297760,250.1297760,-2.3008161,1.2617378,10.0891142,6.3740458,5.2748094,2.1526718
1830,19.6126022,-19.6131992,11.6860390,-123.5801544,250.1297760,250.1297760,-2.0949159,1.3168042,10.1154509,5.2671757,0.7709923,-1.3129771
1840,19.6126022,-3.7062054,19.6126022,-54.8778610,250.1297760,250.1297760,-2.0685797,1.3383518,10.0220766,4.1450381,-3.2519083,-3.9312978
1850,19.6126022,7.6422529,19.6126022,131.1221313,165.5267181,250.1297760,-2.1308286,1.3670821,10.0675669,3.4580152,-5.1755724,-6.5114503
1860,19.6126022,7.2639709,7.4004397,246.0915985,-101.6641235,-36.9694672,-2.2170193,1.3958124,10.2399483,3.6335878,-5.1374044,-8.0152674
1870,19.6126022,4.3454537,-8.1905222,215.7175598,-250.1374054,-163.6335907,-2.3798244,1.4053892,10.2758608,4.2519083,-4.5038166,-8.6030531
1880,9.9143381,2.4684093,-11.2431135,115.1984711,-250.1374054,-147.5038147,-2.4588325,1.4053892,10.2303715,4.8778625,-3.2595420,-8.2595415
1890,7.7116842,2.2289903,-7.1825686,30.4503822,-250.1374054,-67.6183243,-2.4181314,1.4556671,10.3141680,5.1297708,-1.9312977,-7.2290077
1900,11.3484583,2.9544299,-2.8514795,-18.3816795,-159.2137451,8.1526718,-2.3247581,1.4676381,10.2279778,5.1221375,-0.3893130,-6.5190840
1910,14.3555603,4.9056940,0.6129125,-36.6259537,21.6793900,44.1297722,-2.4061604,1.4365137,10.2686787,5.0152674,-0.1526718,-5.6335878
1920,14.8008795,6.0046272,1.6112895,-40.3816795,153.9541931,49.4122124,-2.3295465,1.5203103,10.2136126,4.8778625,-0.5572519,-4.7404580
1930,12.7777891,5.4946647,2.0637913,-36.6030540,223.6946564,45.4427490,-2.2696917,1.5490406,10.3405046,5.0229006,-0.5343512,-4.5267177
1940,10.8384953,4.7740140,1.9584470,-29.2061062,248.2519073,45.1145020,-2.3319404,1.5179161,10.2471304,4.7404580,-0.5954198,-4.7022901
1950,9.3540983,4.3143296,1.8507085,-21.4885502,236.7557220,42.6488533,-2.2912393,1.5274929,10.2112179,4.6870227,-0.6564885,-4.6183205
1960,7.4435349,3.5074875,2.3678534,-10.7099237,182.5877838,38.1374054,-2.3103929,1.4796091,10.1800938,4.6412215,-0.9923664,-5.0000000
1970,6.1722202,2.6982515,3.0956869,34.1908379,-32.9771004,40.4198456,-2.5426292,1.6304430,10.1537571,3.9923663,-2.9923663,-5.8167939
1980,7.5440907,2.8921809,2.6958573,44.2366409,-60.7786255,43.0534363,-2.6743097,1.6136837,10.1178446,3.5725191,-4.1755724,-5.8091602
1990,9.7946291,3.0478032,1.6041069,45.6259537,-42.1755714,41.8396950,-2.6814921,1.7573351,10.0484133,1.3587786,-7.6641221,-2.4732823
2000,10.0651722,3.1627243,0.9720409,38.7633591,-13.3969469,40.1221390,-2.5043221,1.7333932,10.0436249,0.0992366,-6.9389315,-1.6030535
2010,10.0484133,3.0071020,0.4189832,19.4274807,32.3893127,41.0992355,-2.3965836,1.7142396,10.1944590,-0.5648855,-5.0763359,1.5038168
2020,11.2838144,3.1675127,0.9265513,-0.7099237,64.2748108,33.2977104,-2.1763182,1.7238164,10.2543135,-0.9465649,-5.8549619,0.9694657
2030,10.9127159,3.0430148,1.2258250,-7.5343513,76.5801544,26.8396950,-2.1451938,1.6352314,10.1346035,-0.8778626,-5.6870227,0.0610687
2040,10.2782555,2.5426292,1.3431402,-14.5725193,85.8854980,25.7404575,-2.2002602,1.5873476,10.2327662,-0.6412213,-4.7786260,-0.3664122
2050,10.1346035,2.4779861,1.4700323,-22.2900772,94.3358765,29.1068707,-2.2433555,1.5155219,10.3835993,-0.2366412,-3.7022901,-0.4198473
2060,10.4578199,2.4803803,2.2720859,-28.2900772,97.4274826,29.6946564,-2.3247581,1.4987626,10.3979645,0.5648855,-2.7633588,-1.2595420
2070,10.5344334,2.4564383,3.1866663,-28.7251911,92.7251892,26.7175579,-2.3343346,1.5059452,10.3740225,1.2595420,-1.4809160,-1.4274809
2080,10.3668404,2.4636209,3.5434003,-25.7862587,86.0534363,23.5877857,-2.2960277,1.4077834,10.3405046,1.9694656,0.4732825,-1.3435115
2090,10.2782555,2.7605004,3.7014170,-23.1068707,78.5419846,20.1374054,-2.3247581,1.4772149,10.3357162,2.6793892,2.0000000,-1.5801526
2100,10.3045912,2.8395088,3.8259149,-21.2213745,70.4122162,15.6793890,-2.3750360,1.5250987,10.2614956,3.4885497,2.2290077,-1.7480916
2110,10.2184010,2.7269819,4.0461802,-18.2366409,62.8473282,12.4122133,-2.4708035,1.5681942,10.2638903,3.5572519,2.2595420,-1.1374046
2120,10.1848822,2.9161227,3.8570392,-18.1450386,62.3587799,10.2137403,-2.4851687,1.5993185,10.1202393,3.0381680,1.7251909,-1.4122137
2130,10.7762470,3.1100521,3.9695661,-21.5496178,58.0152664,4.8778625,-2.3391230,1.7094513,10.0460186,1.4732825,-0.7251908,-1.2900764
2140,11.3173332,3.3877780,4.4938936,-21.9923668,54.8091621,0.5648855,-2.3965836,1.7932479,10.1250277,0.5572519,-2.1984732,-0.3969466
2150,11.8727856,3.5266411,4.5298066,-20.8015270,48.0916023,-7.0916033,-2.2960277,1.7956421,10.0891142,-0.0076336,-3.3816793,-1.1832061
2160,12.3540173,3.4787574,4.3885493,-23.3740463,50.0687027,-18.6564884,-2.0566087,1.8052188,10.1896706,-0.1908397,-3.8931298,-1.4885496
2170,12.4210548,3.3063757,4.5178356,-25.8778629,43.7404594,-28.8473282,-2.0350611,1.7597293,10.1633339,0.1221374,-3.5648854,-2.8931298
2180,12.7179346,3.2584918,4.9176650,-27.9312973,32.6106873,-39.7251892,-2.1164634,1.7860653,10.1968527,0.5038168,-3.3282442,-4.6335878
2190,13.4409800,3.2680686,4.8147149,-30.3282452,24.7862587,-53.0458031,-2.2122312,1.7429699,10.2950144,1.3816794,-3.3740458,-5.8473282
2200,13.9078465,3.3207407,4.8338685,-34.8015251,13.4274807,-69.4351120,-2.2242019,1.6519908,10.3764172,2.4656489,-3.1984732,-7.3206105
2210,14.3699255,3.5290353,5.0349803,-40.0763359,5.8854961,-87.3282471,-2.2313845,1.6472024,10.2351599,3.7328243,-3.8015268,-8.9312973
2220,14.4920292,3.3734128,5.6574697,-43.9694672,1.1755725,-107.1145020,-2.1858950,1.5921360,10.2207947,4.3664122,-6.3435116,-10.9160309
2230,14.5375185,3.1603301,6.2799587,-44.8931313,-6.0305343,-127.9770966,-2.3798244,1.5825592,10.0244713,3.7251909,-9.9465647,-13.4732828
2240,14.5758257,3.0956869,6.3206601,-46.2442741,-11.0458012,-151.4580078,-2.5091105,1.6663558,9.9861641,2.7251909,-12.2442751,-15.7175570
2250,13.8958759,2.8993635,6.3805151,-45.9465637,-17.0076332,-174.0076294,-2.7581062,1.6400198,10.0172882,2.1832061,-13.2824430,-15.4045801
2260,13.1656475,2.6096666,6.3709383,-45.5038185,-30.7633591,-194.6488495,-3.0094962,1.5801650,10.0436249,1.5114504,-13.4580154,-14.4656487
2270,12.9238348,2.4875629,6.5576849,-42.7404594,-47.4122124,-213.7022858,-3.0932927,1.5370697,10.0603838,1.3511450,-12.4809160,-12.0458012
2280,12.8903160,2.6767037,6.3781209,-40.7633591,-68.9618301,-237.4122162,-2.9879484,1.4772149,10.1896706,1.2366412,-10.4427481,-9.7328243
2290,12.0930510,2.3534882,6.3302369,-39.4351158,-92.1755753,-250.1374054,-2.9304879,1.4604555,10.1322098,1.0076336,-8.2748089,-6.9160304
2300,10.6685085,1.9512644,6.7037306,-37.5267181,-115.1297684,-250.1374054,-2.7509236,1.4317253,10.1058741,0.6183206,-6.6412215,-5.1221375
2310,9.6773138,1.9297167,7.0341287,-32.3969460,-135.9618378,-250.1374054,-2.5498118,1.4029950,10.0915089,0.4656489,-6.0305343,-4.0381680
2320,8.7004843,1.9273225,7.1035600,-24.6793900,-147.6717529,-250.1374054,-2.4396791,1.3694763,10.2016411,-0.0229008,-6.5038166,-3.3206108
2330,7.7739329,1.8124014,7.1083484,-16.0992374,-151.2442780,-250.1374054,-2.3630650,1.4197544,10.3668404,-0.2824427,-6.6717558,-2.5038168
2340,6.3709383,1.4700323,7.1705976,-5.6488547,-149.3969421,-250.1374054,-2.2385671,1.5107336,10.2758608,-0.5038168,-7.1679387,-1.9236641
2350,5.2767935,1.3527170,7.2352405,6.1068702,-149.3511505,-250.1374054,-2.2050486,1.4915800,10.1609402,-0.6488550,-6.9770994,-1.5190840
2360,4.4172797,1.5705882,7.3238254,19.6335869,-153.3129730,-250.1374054,-2.2074428,1.6160779,10.2519188,-0.9083970,-6.8854961,-1.2748091
2370,3.6224086,1.8028246,7.2112985,33.8854980,-154.0992432,-250.1374054,-2.2194135,1.6974803,10.2686787,-1.0458015,-7.0916033,-0.7328244
2380,2.6886747,2.1882892,6.6103573,46.5419846,-150.7404633,-250.1374054,-2.1308286,1.6998745,10.3692341,-1.3969465,-7.1145039,-0.3053435
2390,1.9345051,2.4803803,5.8777351,54.3969460,-143.5801544,-250.1374054,-2.1164634,1.7309990,10.2758608,-1.0763359,-6.0763359,0.8015267
2400,0.8786675,2.5043221,5.2384863,57.9465637,-132.5496216,-250.1374054,-2.1068866,1.7549409,10.2495251,-0.6717557,-4.1984735,1.3282443
2410,-0.2920911,2.5546002,4.9009056,59.5877876,-119.1755753,-250.1374054,-2.0326669,1.8124014,10.3237448,-0.0763359,-2.1603053,1.4045801
2420,-1.1947005,3.0406206,4.4053087,61.3053436,-111.1374054,-233.8167877,-2.0997043,1.8435259,10.2854376,0.3358779,-0.5877863,1.0763359
2430,-1.3407460,3.4308734,3.6319854,61.1297722,-106.9847336,-219.4427490,-2.1619530,1.8291607,10.2950144,0.4198473,0.0381679,1.1755725
2440,-1.5897418,3.7660601,3.0023136,57.4961815,-100.0381699,-207.2519073,-2.1260402,1.8076130,10.1824875,0.3511450,0.1908397,0.7175573
2450,-2.2218077,4.0389977,2.7102225,51.3435097,-92.3893127,-192.9541931,-2.2050486,1.8076130,10.2519188,0.2137405,0.1374046,0.0152672
2460,-2.6407909,4.4005203,2.3822186,44.9771004,-86.7404556,-176.1984711,-2.2888451,1.7238164,10.1369982,0.3129771,-0.1908397,0.0229008
2470,-2.6934631,4.3574247,2.3750360,39.4045792,-75.8091583,-158.0305328,-2.3295465,1.7286048,10.1441803,0.3664122,-0.6259542,-1.1679389
2480,-3.0166788,4.1395535,2.1811066,34.6946564,-50.4809151,-136.6335907,-2.3247581,1.6136837,10.1441803,0.5648855,-0.8473282,-1.6564885
2490,-3.2130022,4.6614871,1.9129574,31.9312973,-10.3358774,-110.9847336,-2.4372849,1.5658000,10.1298151,0.5419847,-0.9923664,-2.5725191
2500,-4.3502421,4.0342093,1.4149660,25.0076332,47.9007645,-79.7557220,-2.5426292,1.5705882,10.2136126,0.8320611,-1.0763359,-3.1068702
2510,-6.9359670,4.0533628,1.0366840,16.8931293,113.0610657,-30.2137413,-2.5953014,1.4963684,10.2064295,0.9847328,-2.2595420,-3.6030533
2520,-10.0747490,4.9440012,-0.5530578,2.6488550,202.4351196,38.8931313,-2.5186872,1.4700323,10.1417866,0.7557252,-3.6564887,-3.5572519
2530,-14.3172531,6.2320752,-4.4867110,-41.3511467,250.1297760,113.3587799,-2.5617826,1.4820032,10.0172882,0.5954198,-3.6412213,-3.3664122
2540,-19.6131992,5.8274570,-6.0022330,-116.7557220,250.1297760,200.1603088,-2.6431851,1.5035510,10.1896706,0.3435115,-4.6641221,-2.9160306
2550,-19.6131992,1.8770446,-1.8961980,-180.5038147,250.1297760,250.1297760,-2.6336083,1.4987626,10.2112179,-0.1145038,-4.9770994,-1.8549619
2560,-19.6131992,-2.8395088,3.5625539,-196.9694672,250.1297760,250.1297760,-2.4588325,1.4484847,10.1920643,-0.2366412,-4.8473282,-1.6259542
2570,-19.6131992,-10.1441803,3.7253587,-211.0610657,250.1297760,250.1297760,-2.4133430,1.5658000,10.1130562,-0.3587786,-5.4427481,-1.3893130
2580,-15.9907913,-19.6131992,4.0270267,-250.1374054,250.1297760,250.1297760,-2.2840567,1.5681942,10.2184010,-0.9007633,-6.0305343,-0.8473282
2590,4.8793583,-19.6131992,7.1251078,-250.1374054,250.1297760,250.1297760,-2.2002602,1.5658000,10.2878323,-0.7633588,-6.2061067,-1.5343511
2600,19.6126022,-19.6131992,10.2758608,-250.1374054,250.1297760,250.1297760,-2.1906834,1.6280488,10.2614956,-0.3358779,-5.5343513,-1.7099236
2610,19.6126022,-19.6131992,17.5781384,-250.1374054,250.1297760,250.1297760,-2.2146254,1.6591733,10.2447367,0.0076336,-5.0916033,-2.3587787
2620,19.6126022,-0.8643024,19.6126022,-250.1374054,141.2671814,250.1297760,-2.2960277,1.6687500,10.1776991,0.1984733,-5.1984735,-2.1374047
2630,19.6126022,6.0285692,19.6126022,-42.1755714,-37.3587799,34.5877876,-2.3199697,1.6998745,10.1202393,-0.0839695,-5.1450381,-2.3129771
2640,19.6126022,0.8379663,19.6126022,172.5496216,-192.1068726,-190.0458069,-2.2864509,1.6902977,10.1322098,-0.7862595,-5.7786260,-2.1068702
2650,15.6436338,-1.4556671,13.0555153,238.0992432,-250.1374054,-250.1374054,-2.4061604,1.7022687,10.1537571,-0.9312977,-5.8320613,-1.9160305
2660,1.7357874,-1.1611819,3.7469065,203.4045868,-250.1374054,-231.4045868,-2.4540441,1.6376256,10.2614956,-0.8931298,-6.0152674,-2.1221373
2670,-4.5082588,0.4692611,-0.9121862,142.3816833,-250.1374054,-111.0534363,-2.4708035,1.5418580,10.2399483,-0.6030535,-6.1603055,-2.5267177
2680,-0.7134684,3.1028695,-2.5546002,73.7022934,-183.4885559,4.6412215,-2.3750360,1.5586174,10.2758608,-0.1374046,-5.7786260,-2.2137403
2690,5.4779053,4.7381010,-2.0159075,9.5190840,-84.9923630,68.0610657,-2.4803803,1.5681942,10.2255831,0.1221374,-5.9312978,-3.0687022
2700,9.6030941,5.5018473,0.6703730,-35.4122124,16.4427490,85.6564865,-2.4037662,1.5658000,10.2614956,0.2290076,-6.0152674,-2.9160306
2710,9.6844959,5.0804701,3.4787574,-53.2366409,77.9236679,80.6793900,-2.4492557,1.5083394,10.1369982,0.0229008,-7.2442746,-2.6259542
2720,8.3652983,4.3095412,5.8250628,-48.1755714,91.8702316,72.0305328,-2.4372849,1.5274929,10.1729107,-0.1755725,-8.5648851,-1.9694656
2730,6.8569584,3.4619980,6.6319046,-27.0916023,69.6106873,66.6870193,-2.3558824,1.5155219,10.2207947,-0.9465649,-9.9847326,-2.9770992
2740,6.2416520,2.8203552,6.0692701,-1.3969465,25.5343513,63.7022896,-2.3127871,1.5370697,10.2638903,-1.2137405,-11.6793890,-2.3969467
2750,6.6678176,2.7892308,5.4012914,20.6717548,-30.2900772,59.5648842,-2.3223639,1.5203103,10.2423429,-1.2595420,-12.5419846,-2.1679389
2760,7.7404146,2.9113343,4.4388270,36.8244286,-75.7786255,52.7251892,-2.2265961,1.6041069,10.1585455,-1.1374046,-13.0381680,-3.0076337
2770,8.9015961,3.1890604,3.3015873,40.9694672,-99.5954208,45.5496178,-2.1619530,1.6112895,10.1441803,-1.5343511,-11.3664122,-2.6488550
2780,9.8808203,3.3901722,2.3989778,33.9618340,-97.6793900,39.5038185,-2.2457497,1.6807210,10.2255831,-1.4045801,-9.0534353,-1.5419847
2790,10.7499104,3.5122759,1.8483143,19.1679382,-74.1526718,34.3893127,-2.2313845,1.6711442,10.2495251,-1.4198474,-8.0763359,-1.6335878
2800,11.1353750,3.5003049,2.0901275,1.4503816,-42.2671738,29.9618320,-2.1356170,1.7669119,10.2926207,-1.1679389,-7.4809160,-0.0992366
2810,10.8025827,3.2752512,2.8275378,-12.6870232,-12.5267172,27.3740463,-2.0446377,1.7573351,10.3141680,-0.9007633,-6.4732823,-0.2595420
2820,10.3452930,3.0908985,3.4380560,-21.8167934,11.1603050,27.0381680,-1.9464760,1.6807210,10.3045912,-0.7175573,-5.8625956,-0.6793893
2830,9.9741936,3.0454090,3.9671719,-26.7022896,25.9236641,27.8625946,-1.9464760,1.6974803,10.2591019,-0.1068702,-5.2213740,-1.7709924
2840,9.7395630,2.8083842,4.3502421,-27.7099228,30.3129768,28.6946564,-1.9560528,1.7118455,10.2830439,0.1679389,-4.7786260,-2.9465649
2850,9.7802639,2.6647329,4.5322008,-26.5343513,30.1145039,30.9770985,-2.0518203,1.6567791,10.3213511,0.3282443,-4.4045801,-3.4427481
2860,10.6876621,2.7102225,4.7883787,-23.8625946,29.8396950,33.6183205,-2.1691356,1.6615674,10.2519188,0.9847328,-3.3129771,-4.6870227
2870,11.7387114,3.0023136,4.8242917,-20.8091602,34.2137413,32.0381660,-2.2864509,1.5562232,10.2016411,0.9923664,-2.7557251,-4.6259542
2880,12.6197729,2.9472473,4.5896611,-21.4580154,45.1984749,25.5648861,-2.4779861,1.5825592,10.1776991,1.0458015,-3.0458016,-5.2137403
2890,12.9836893,2.9759774,4.6782460,-22.8167934,47.5496178,17.5190830,-2.4396791,1.5203103,10.2016411,1.0458015,-3.0381680,-4.3587785
2900,13.2398672,2.9520357,4.7572546,-24.6030540,47.4656487,7.6412215,-2.4995339,1.4173602,10.1298151,0.6335878,-3.8015268,-4.0610685
2910,13.8144732,2.9161227,4.8482337,-26.5648861,42.9618340,-2.6946564,-2.5115047,1.4508789,10.1872759,0.1450382,-4.1984735,-3.3893130
2920,14.4752693,3.0214672,4.8913293,-28.1526718,35.8778610,-15.6641226,-2.4013720,1.3910241,10.2399483,0.1374046,-4.7099237,-2.6106870
2930,15.0426922,3.2656744,5.0110383,-31.0687027,26.9389305,-32.2519073,-2.4037662,1.4365137,10.3405046,0.4045801,-5.1450381,-2.2900763
2940,15.7777081,3.3853838,5.1882086,-35.3740463,14.5343513,-52.8396950,-2.3056045,1.4604555,10.2591019,0.5267175,-5.0076337,-2.1297710
2950,16.4073811,3.3853838,5.4132624,-40.0763359,1.2748091,-77.2977066,-2.4061604,1.5059452,10.1896706,0.6717557,-5.1908398,-1.4809160
2960,16.9005833,3.4236910,5.5305777,-45.4351158,-9.5725193,-106.3358765,-2.3463056,1.5274929,10.1298151,0.2137405,-5.1374044,-1.1908396
2970,17.2190113,3.4236910,5.8825235,-50.7404594,-19.1832066,-137.0763397,-2.3774302,1.5514348,10.1465750,-0.1755725,-6.6870227,-0.3053435
2980,17.6571465,3.3159523,6.4260044,-53.8091621,-29.2442741,-172.2595367,-2.3079987,1.5083394,10.2351599,-1.2290076,-7.5725193,0.1374046
2990,17.6595421,3.0023136,6.9790621,-53.9771004,-37.6946564,-212.0839691,-2.3103929,1.5394639,10.1992474,-1.8473282,-9.0763359,1.1603054
3000,17.1878853,2.4803803,7.5057840,-51.1068687,-44.1526718,-250.1374054,-2.0853391,1.5107336,10.2016411,-2.4198472,-7.9694657,1.5114504
3010,16.0961361,1.9081690,7.6374645,-45.3893127,-44.5419846,-250.1374054,-2.0661855,1.5610116,10.2950144,-2.3282442,-9.5267172,1.6793894
3020,14.3411951,1.3048333,7.0676475,-39.5801544,-40.8244286,-250.1374054,-1.8818330,1.5681942,10.2806492,-2.6412213,-8.4732828,1.5648855
3030,12.2295198,0.6943150,6.5912037,-33.4274826,-33.4274826,-250.1374054,-1.8076130,1.6065011,10.4147243,-2.3664122,-7.9694657,1.5190840
3040,9.9382801,0.1197095,6.0836353,-27.4198475,-36.7633591,-250.1374054,-1.8914096,1.6807210,10.3883877,-1.7633588,-6.8244276,0.7709923
3050,8.2551651,0.0622489,6.1027889,-20.4961834,-47.4427490,-250.1374054,-1.8483143,1.7309990,10.4817610,-1.1374046,-5.7404580,0.2366412
3060,7.5416965,0.0383070,5.9926562,-12.1908398,-58.7786255,-250.1374054,-1.9009864,1.8171898,10.4650021,-0.1450382,-4.2290077,-1.0839695
3070,6.5337429,-0.0718257,5.7963328,-4.2442746,-74.9465637,-250.1374054,-1.9512644,1.8554969,10.2854376,0.4351145,-2.8778627,-1.3816794
3080,5.1092005,-0.2873027,5.5640965,0.4732825,-89.4045792,-250.1374054,-1.9776005,1.9129574,10.1609402,0.6335878,-2.1908398,-1.9312977
3090,3.1723011,-0.6775556,5.9375896,5.4351144,-102.1832047,-250.1374054,-2.0039365,1.9752063,10.1369982,0.5343512,-1.7786260,-2.0000000
3100,1.9823889,-0.6799498,6.4810710,12.2213745,-106.4809189,-250.1374054,-2.0183017,1.8961980,10.1705170,0.5343512,-1.8854961,-2.7099237
3110,0.9265513,-0.7254394,6.3398137,18.8549614,-89.8854980,-250.1374054,-2.0518203,1.8124014,10.3069859,-0.1068702,-2.3206108,-3.7022901
3120,-0.2920911,-0.7805058,6.4451580,24.8702297,-68.3282471,-250.1374054,-2.0518203,1.7118455,10.2782555,-0.1221374,-2.5877862,-4.2595420
3130,-1.8147956,-1.0917504,6.3900914,34.8625946,-51.3587799,-250.1374054,-2.0063307,1.6136837,10.3788109,0.2977099,-2.1679389,-4.9160304
3140,-3.3111639,-1.2761030,6.1602492,46.5343513,-45.7404594,-250.1374054,-2.0135133,1.5274929,10.3835993,1.1603054,-1.6564885,-6.0305343
3150,-5.1570840,-1.1539993,5.8202744,56.6641235,-56.7404594,-250.1374054,-2.1140692,1.4053892,10.4123297,2.2595420,-1.4656489,-7.3206105
3160,-6.6941538,-0.5171449,5.8322453,64.8931274,-78.5877838,-250.1374054,-2.2242019,1.4796091,10.3069859,2.7099237,-2.4274809,-8.0152674
3170,-7.8697009,0.3830703,5.9639258,70.4885483,-92.2442780,-250.1374054,-2.4923513,1.2928623,10.2543135,2.9007633,-6.0839696,-8.0534353
3180,-8.8201942,1.2856797,5.9543490,74.8244247,-89.4656525,-214.7328186,-2.5665710,1.0725969,10.3045912,3.7099237,-17.3435116,-8.6259546
3190,-9.1458035,2.1188576,5.5401545,74.9236679,-67.1908417,-164.9236603,-2.5474176,1.1348459,10.0579901,2.3053436,-37.7633591,-13.1603050
3200,-8.9877872,2.5450234,4.7668314,68.2137375,-33.9771004,-115.5419846,-2.4277081,1.4891858,9.3445215,-2.0076337,-62.6106873,-20.8244267
3210,-9.0236998,3.3494711,4.0246325,59.1450386,0.8396947,-66.7328262,-1.5777708,1.8722562,8.4323349,-12.8702288,-101.0152664,-33.4198456
3220,-9.0117292,3.8259149,2.9233053,47.0458031,34.7557259,-19.6641216,-0.6464311,1.6950861,7.4459291,-32.7099228,-139.2442780,-48.6793900
3230,-9.0548248,3.9001346,1.5729824,29.6946564,63.2900772,26.4732819,-0.8140244,1.9416877,7.8816719,-54.3587799,-164.3053436,-61.8931313
3240,-9.5671806,3.9743545,0.1149211,5.0916033,99.8167953,82.1984711,-1.6759326,1.7956421,8.7675219,-69.8320618,-168.8396912,-64.9083939
3250,-11.0683374,3.7684543,-1.5370697,-29.6412220,157.8320618,158.3282471,-2.7940190,1.5155219,10.1226330,-76.9618301,-143.5343475,-54.9160309
3260,-12.7562418,4.5824785,-3.3159523,-77.8549652,229.3816833,248.0763397,-3.8666160,0.7541697,11.5399933,-78.8015289,-88.7099228,-34.1450386
3270,-14.4728756,5.5808558,-4.8290801,-150.6946564,250.1297760,250.1297760,-4.1347651,0.6488253,13.3691540,-71.6641235,-16.0916023,-9.1068707
3280,-16.3547077,3.8139439,-3.5936785,-234.8244324,250.1297760,250.1297760,-4.0557570,0.6416427,15.5263186,-47.1832047,56.0381660,28.9923668
3290,-17.1878853,-0.0574605,-0.2370248,-250.1374054,250.1297760,250.1297760,-3.9001346,0.0646431,16.3116131,-11.5725193,144.6106873,70.6412201
3300,-16.7186241,-5.6981707,3.4165084,-250.1374054,250.1297760,250.1297760,-4.4412212,-0.0622489,17.6116581,37.6030540,209.6259613,108.5419846
3310,-13.8336267,-12.7753954,5.7221127,-250.1374054,250.1297760,250.1297760,-3.5386121,0.3639168,18.0665531,84.0076370,250.1297760,142.2061005
3320,-4.6878228,-19.6131992,8.5233145,-250.1374054,250.1297760,250.1297760,-3.2513094,-0.0933734,18.8710022,132.0992432,250.1297760,172.9160309
3330,8.5257082,-19.6131992,12.4809093,-250.1374054,236.7633514,250.1297760,-2.1643472,-1.5562232,19.6126022,189.4580078,250.1297760,190.5648804
3340,19.6126022,-19.6131992,18.0138817,-250.1374054,200.0152740,250.1297760,-1.0486550,-2.1044924,18.9356441,243.3358765,250.1297760,187.1679382
3350,19.6126022,-14.8128500,19.6126022,-250.1374054,97.6488571,250.1297760,-0.4860204,-1.5897418,17.5518036,250.1297760,250.1297760,162.8320618
3360,19.6126022,-5.6790175,19.6126022,-113.8931274,-33.3511467,250.1297760,-0.3064562,0.2226596,14.4848461,250.1297760,250.1297760,121.1679382
3370,19.6126022,-0.3639168,19.6126022,63.5114517,-104.7480927,163.3969421,-2.4708035,0.9169745,13.6181498,245.9313049,147.1603088,81.4045792
3380,19.6126022,0.7230452,19.6126022,176.5877838,-168.5801544,-7.1603055,-4.8817525,0.9313397,13.4649220,245.2213745,27.4045811,60.2900772
3390,19.1702747,-0.0598547,14.4130201,214.5496216,-221.4809113,-101.0076370,-5.5569139,0.7110743,13.3284531,247.4885559,-67.6717529,51.3053436
3400,10.8217363,0.2154770,9.1003141,210.4045868,-246.0000000,-126.2442780,-4.7428894,0.9624642,12.3133163,250.1297760,-130.5419922,36.2061081
3410,5.8561873,1.4963684,6.0668759,184.0686951,-225.2442780,-100.3435135,-4.4244623,0.8595140,11.1257982,250.1297760,-183.1832123,21.6030540
3420,4.6183915,2.7724714,4.4077029,147.3435059,-171.0915985,-50.7328262,-4.4029145,0.9121862,9.5695753,250.1297760,-220.0305328,9.9007635
3430,5.3845320,3.6319854,3.8953462,110.5038147,-96.0687027,-2.6183207,-4.2664456,1.5155219,7.2208753,250.1297760,-235.0152740,-2.0000000
3440,6.5959921,4.2257442,3.7062054,77.8473282,-10.5648851,34.0534363,-4.2664456,2.2816625,4.9894910,250.1297760,-231.5267181,-7.6259542
3450,7.2017217,4.4412212,3.7564833,51.3740463,65.8625946,57.3587799,-3.9575951,3.2369442,3.0932927,250.1297760,-218.3587799,-7.6030536
3460,7.3812861,4.1802549,4.2401094,32.4045792,117.8167953,71.5038147,-3.4859397,4.1467361,1.9081690,234.1374054,-199.6641235,-6.9923663
3470,7.5177550,4.0773048,4.4651632,21.4961834,138.5725250,76.6183243,-3.0430148,5.0349803,1.3479286,216.6717529,-173.2061005,-7.2290077
3480,7.4602942,4.0366035,4.7021880,16.6030540,136.6641235,73.9312973,-2.1427996,6.2608056,0.5602403,198.6641235,-137.3435059,-9.7404585
3490,7.1131368,3.8522508,4.8625989,15.7251911,118.5114517,67.4656525,-1.2665262,6.8521700,-0.2873027,178.1679382,-99.0229034,-12.0229006
3500,6.9670911,3.7349355,4.9128766,17.9541988,83.9312973,60.0687027,-0.5698171,7.7212610,-1.3838415,152.0534363,-64.6412201,-15.5038166
3510,7.6973190,4.0509686,4.5992379,21.8091602,42.5343513,50.0228996,-0.1053443,8.5616217,-2.0374553,120.6946564,-41.4656487,-23.0610695
3520,8.3892403,4.4077029,3.9839313,21.9847336,5.2595420,36.3282433,0.0598547,8.7531567,-2.3103929,84.3129807,-31.0687027,-32.4961815
3530,8.6382351,4.5537481,3.2824337,14.3206110,-22.9083977,23.0687027,-0.1508339,8.3198080,-2.0470319,46.2900772,-32.3129768,-42.6259537
3540,8.8489246,4.6183915,3.0454090,2.1908398,-40.8167953,13.3587790,-0.1053443,7.9630742,-1.6160779,9.7099237,-39.1068687,-52.8473282
3550,9.0620070,4.5872669,2.8323262,-13.0152674,-47.8702278,6.3358779,0.2178712,7.7188668,-1.3862357,-24.1832066,-41.6488533,-65.4122162
3560,9.3828287,4.4747400,3.1004753,-31.1374054,-44.4503822,0.8320611,0.4022238,7.5153608,-1.4053892,-56.3587799,-40.5725174,-80.5419846
3570,9.6198530,4.1850433,3.9168940,-47.9312973,-35.6259537,-3.6946564,0.3280039,7.2615767,-1.2497669,-88.4427490,-34.3053436,-93.7786255
3580,9.8903971,3.9695661,4.8625989,-61.0992355,-19.8473282,-8.3129768,0.0454896,6.9503322,-0.7278336,-116.6335907,-20.3129768,-103.2900772
3590,9.9478569,3.6990228,5.9830794,-69.4961853,-3.4503818,-12.8091602,-0.0957676,6.3302369,0.0598547,-142.1755676,1.7175573,-110.4809189
3600,9.9430685,3.4619980,6.8138633,-73.8702316,8.7709923,-17.5648861,-0.5506636,5.6838059,0.9528874,-163.6488495,34.3740463,-113.3206100
3610,10.1346035,3.3901722,7.5560617,-74.5801544,19.7099228,-23.2977104,-1.0725969,5.1929970,2.0733681,-179.2290039,72.0534363,-114.5343475
3620,10.0986910,3.1938488,8.1378498,-72.3816757,26.0305347,-31.8931293,-1.8219782,4.5106530,3.3303175,-190.5954132,108.0076370,-113.7175598
3630,9.7611103,2.9304879,8.6933022,-67.5267181,26.3664131,-41.4580154,-2.7150109,3.7277529,4.4699516,-195.3053436,141.5267181,-113.0457993
3640,9.3708572,2.7652888,8.9566631,-60.7480927,20.7786255,-50.6870232,-3.6176202,3.4667864,4.8195033,-198.0152740,159.5038147,-112.9542007
3650,9.0835552,2.7437410,9.1410151,-53.7862587,9.0534353,-58.5725174,-4.5681133,2.8754215,5.1235652,-201.5648804,161.4580078,-112.5725174
3660,9.1098909,2.6743097,9.4402885,-46.8778610,-5.6183205,-67.3282471,-5.1451130,2.2792683,5.5066357,-205.2366486,154.3435059,-114.0457993
3670,9.1146793,2.6216373,9.6749191,-38.3893127,-20.9236641,-75.7099228,-6.1363077,2.2672975,5.7676024,-211.0229034,136.7099304,-113.5725174
3680,9.3277617,2.7293761,9.7826586,-29.0381680,-34.1068687,-84.9770966,-7.3932571,2.0853391,6.2703824,-217.1755676,109.8320618,-108.3129807
3690,9.5073261,2.7844424,9.9694052,-19.4122143,-44.0228996,-94.7251892,-8.0444765,1.9656296,7.0149751,-221.8244324,79.5114517,-98.2671738
3700,9.8688488,2.8419030,9.9358864,-10.4885492,-52.6641235,-104.7480927,-8.1929159,1.6831152,7.8385763,-222.0458069,54.6641235,-85.6717529
3710,9.9813757,2.8921809,9.8209648,-1.9465649,-56.8931313,-115.3664093,-8.1665802,1.6974803,8.9590569,-217.1068726,41.5572510,-71.6412201
3720,9.8736372,2.9304879,9.7539282,5.5190840,-57.2061081,-125.5343475,-8.3293848,1.7740943,10.4865494,-204.7709961,54.3664131,-54.8244286
3730,9.6509781,2.9592183,9.7467451,14.1145039,-54.3282433,-133.1297760,-8.4658537,1.4269369,11.7458935,-184.9236603,93.6106873,-34.7786255
3740,9.6318245,2.8538737,9.3469152,22.1984730,-53.1526718,-139.2137451,-8.4562769,1.1611819,11.9230633,-159.2595367,134.5954132,-16.2137413
3750,9.7874460,3.1579359,9.0524302,29.0763359,-59.6106873,-147.0458069,-8.3054428,1.3886299,10.7906122,-137.7480927,151.0610657,-5.4503818
3760,10.3405046,3.5098817,8.7651272,35.7938919,-67.9847336,-159.9770966,-8.1258793,1.8171898,9.6701307,-130.3664093,135.1221313,-1.3435115
3770,10.5751352,3.6295912,8.4658537,41.3893127,-76.9389343,-177.3511505,-7.4004397,1.7693061,9.3014259,-139.0229034,97.9160309,-6.1297708
3780,10.0915089,3.6702924,8.3485384,47.7175560,-85.4503784,-195.5496216,-12.3133163,0.3878587,11.8009596,-149.2519073,-30.3129768,-11.6259546
3790,9.4929609,3.8307030,8.1689749,55.5419846,-97.5954208,-212.7251892,-12.1409349,-0.0359128,14.4944229,-144.4274750,-242.9160309,-12.6183205
3800,9.3253679,4.0054789,7.7547798,63.1755714,-104.9694672,-227.6564941,-5.1666608,-1.4006008,15.4904060,-120.1297684,-250.1374054,-29.3511448
3810,9.0835552,4.1275826,7.0676475,68.4503784,-105.1984711,-241.3969421,-1.9776005,-0.7302278,15.3276005,-96.0152664,-250.1374054,-55.7022896
3820,8.5640154,4.3478479,6.1482787,69.1526718,-97.9389343,-250.1374054,-5.2480631,1.4891858,13.6851873,-69.0229034,-179.3740387,-48.0000000
3830,7.9702568,4.4340386,5.5832496,65.4656525,-97.0916061,-250.1374054,-5.5832496,-0.0071826,11.8368731,-44.4122124,-117.3282471,-22.6488552
3840,7.4866304,4.3813667,5.2408805,62.1145020,-104.0229034,-250.1374054,-6.0118098,0.5458752,10.9893293,-17.5572510,-75.3816757,-6.3816795
3850,6.4691000,4.3765783,5.1666608,59.8854980,-102.9694672,-250.1374054,-7.4100165,1.0869620,10.5176744,9.8854961,-55.5038185,10.5648851
3860,5.5808558,4.2664456,4.9248476,57.6412201,-103.4961853,-250.1374054,-7.4052281,0.8595140,10.0292597,28.7251911,-41.5648842,18.3129768
3870,5.2935529,4.2879934,4.7428894,54.3969460,-104.9389343,-250.1374054,-6.8210459,1.2090657,8.8010406,28.9541988,-32.7175560,21.7633591
3880,4.8865409,4.4124913,4.6471219,50.3053436,-101.3129807,-250.1374054,-6.3039007,1.3335636,7.9367380,13.6183205,-33.1145020,24.5267181
3890,4.0796990,4.4579806,4.4723458,45.2519073,-95.8854980,-250.1374054,-5.2456689,1.1444225,7.7308378,-0.8015267,-42.6793900,28.1984730
3900,3.1986370,4.4460096,4.1012464,37.1908379,-91.6946564,-250.1374054,-4.2736282,0.8427547,8.0899658,-8.7709923,-55.4809151,25.2213745
3910,2.4731977,4.6638808,4.0294209,29.0229015,-87.0687027,-250.1374054,-3.9192882,0.6033357,8.6166878,-9.7251911,-71.4274826,18.6641216
3920,2.0374553,4.7165532,4.5800843,23.0534344,-79.4656525,-250.1374054,-4.1491303,0.5075682,9.1505919,-5.8091602,-89.1908417,11.8015270
3930,1.6400198,4.9152708,5.0110383,22.1679382,-69.4503784,-250.1374054,-4.5106530,0.4932030,9.5432396,1.1984733,-102.8702316,7.4122138
3940,1.2449785,4.7811961,5.1451130,23.5496178,-54.0228996,-240.4198456,-4.6878228,0.5769997,9.8329363,8.3358774,-112.5725174,6.0610685
3950,1.1420283,4.8218975,4.6686692,23.5572510,-29.7251911,-229.9313049,-4.7835903,0.6631905,9.9765873,15.4427481,-118.8320618,6.4427481
3960,0.5243275,4.7452836,3.9288650,20.8167934,-4.4503818,-221.7786255,-4.5178356,0.8212070,9.8329363,20.6641216,-125.6870193,8.2061071
3970,0.0861908,4.7069764,3.6008608,16.5496178,17.7404575,-215.4656525,-4.0964580,0.9169745,9.5192976,22.7022896,-133.1908417,8.6946564
3980,-0.4932030,4.5872669,3.4859397,13.7404585,36.3053436,-211.2900696,-3.8402798,1.1779412,9.2128410,20.2519093,-131.7557220,8.8091602
3990,-1.4628497,4.2975702,3.5793133,15.0763359,48.9541969,-207.0610657,-3.5050933,1.2904681,9.6102762,9.2900763,-124.0381699,10.9083967
4000,-2.6264257,4.0318151,3.6080434,20.4732819,52.8702278,-201.5496216,-2.8586621,1.3335636,9.9957409,-4.8778625,-112.3358765,11.1832066
4010,-3.3063757,3.8546450,3.4955165,27.7938938,45.1068687,-196.1755676,-2.2242019,1.1228749,10.4195127,-12.9007635,-100.4732819,10.0076332
4020,-3.8283088,3.5960727,3.4787574,37.8854980,35.2824440,-192.4656525,-1.7286048,0.7876883,10.6637201,-13.1297712,-89.7557220,6.7480917
4030,-4.9416070,3.2800395,3.4404502,48.5954208,24.6564884,-187.6412201,-1.3455344,0.7685348,10.6445665,-11.3129768,-77.7633591,3.8778627
4040,-5.8490047,3.1579359,2.9592183,56.1450386,15.1068707,-179.0915985,-1.1348459,0.9313397,10.6421719,-11.5572519,-59.7480927,1.3358779
4050,-6.5002246,3.0549858,2.5234756,59.3282433,7.2213740,-168.3053436,-0.9050036,0.9385223,10.9941177,-11.5877867,-39.1374054,0.1984733
4060,-7.2879128,2.8778157,2.2840567,60.8549614,1.8320611,-154.5572510,-0.6368544,1.1420283,11.2742386,-6.0916033,-21.2977104,-0.7633588
4070,-7.8002691,2.8251436,2.0254843,60.0687027,-1.7557251,-139.5419922,-0.7278336,1.3335636,11.0108776,1.7251909,-6.1297708,0.5190840
4080,-8.8345594,2.5785420,1.6687500,54.9236641,1.5725191,-102.5572510,-1.0654143,1.2162483,10.8576488,7.2061067,13.2061071,7.2061067
4090,-10.6302013,1.5538290,0.3351865,33.9389305,16.2900772,-33.1755714,-1.8147956,1.0031654,9.9095497,2.6564887,10.5114508,-2.0687022
4100,-12.1481171,1.0965388,-0.0191535,20.3664131,18.1450386,-2.0687022,-2.3630650,0.9648584,10.1274214,1.0458015,7.9160304,-3.5877862
4110,-16.3930149,-0.3591284,-0.2681492,-13.0152674,8.4427481,97.6335907,-3.0861101,1.0630201,10.0196829,-1.1450381,3.4274809,-3.1755726
4120,-19.2660427,-0.6775556,-0.2178712,-27.8091602,-1.5572519,172.3969421,-3.2704628,1.2066715,9.8856087,-1.8854961,-1.7099236,-3.0152671
4130,-19.6131992,-1.1587877,0.4165890,-43.2900772,-2.6564887,250.1297760,-3.3375001,1.2234308,9.8209648,-3.6946564,-6.2519083,-1.7022901
4140,-19.6131992,-2.2529323,1.0869620,-54.9389305,28.3435116,250.1297760,-3.2944047,1.2904681,9.8377247,-6.2366414,-10.4885492,0.2519084
4150,-19.6131992,-3.9599893,0.7876883,-71.6946564,66.7251892,250.1297760,-2.9568241,1.2545552,9.8832140,-8.3816795,-13.8702288,2.5114503
4160,-19.6131992,-7.3980455,1.5394639,-89.5954208,91.7786255,250.1297760,-2.7054341,1.3168042,9.8712435,-10.6793890,-14.2671757,5.2442746
4170,-17.2118282,-12.4330254,2.9304879,-102.0457993,106.4503784,250.1297760,-2.4564383,1.3168042,10.0532017,-12.7480917,-15.2748089,6.9236641
4180,-12.4952745,-19.6131992,3.2106080,-113.9542007,111.4503784,250.1297760,-2.0757623,1.3263810,10.0268650,-14.7251911,-15.9236641,7.0152674
4190,-4.5274124,-19.6131992,3.8881636,-130.2595367,113.9083939,250.1297760,-2.0183017,1.1875180,10.0867205,-16.4122143,-16.6717548,7.2061067
4200,8.7004843,-19.6131992,5.4826937,-140.0686951,109.4885483,250.1297760,-1.9560528,1.1492109,10.2614956,-17.2977104,-19.1526718,6.6946564
4210,19.6126022,-19.6131992,9.4714136,-134.6717529,174.8244324,250.1297760,-1.9081690,1.1109039,10.3548698,-18.2366409,-21.1145039,6.0076337
4220,19.6126022,-19.6131992,15.6029329,-120.5419846,250.1297760,250.1297760,-1.7621235,1.0773853,10.3452930,-18.2824421,-20.3587780,4.9465647
4230,19.6126022,-6.5505023,19.6126022,-87.4961853,250.1297760,250.1297760,-1.8842272,1.0199248,10.3476868,-18.0381680,-18.2595425,4.5801525
4240,19.6126022,6.6486640,19.6126022,30.2671757,250.1297760,250.1297760,-2.0422437,0.8595140,10.5272512,-17.1908398,-15.9007635,4.0534353
4250,19.6126022,7.6111283,14.9493189,139.5419922,0.8015267,-10.1984730,-2.0422437,0.7134684,10.7499104,-15.4351149,-15.4122133,5.6564884
4260,19.6126022,4.0342093,0.2585725,139.6488495,-250.1374054,-186.8549652,-1.6783268,0.8331779,10.7738523,-12.5114508,-11.3053436,5.1221375
4270,11.7315283,2.9352763,-2.3846128,63.3206100,-250.1374054,-211.2442780,-1.5945302,0.7948709,10.7977943,-9.5267172,-5.7022901,4.1221375
4280,10.1178446,2.5522060,3.1531475,-0.2442748,-250.1374054,-146.5877838,-1.6352314,0.6512195,10.6493549,-7.4427481,-1.4045801,2.7709923
4290,13.6085730,3.4787574,8.1689749,-17.4580154,-250.1374054,-77.8244247,-1.8267666,0.8164186,10.4769726,-6.3206105,1.4045801,3.7251909
4300,14.3124647,5.4419928,9.7467451,-10.6870232,-98.7404556,-32.5267181,-1.8459201,0.8523315,10.5009146,-5.6946564,2.9007633,4.5648856
4310,7.0820122,4.2640514,3.8211265,11.7328243,29.0458012,52.6030540,-1.8794388,0.8499373,10.8217363,6.7328243,4.8320613,1.9541985
4320,6.7300668,3.8809812,4.6351509,29.7709923,-48.4809151,35.5648842,-1.8626794,0.8571198,10.7475166,8.6564884,7.0076337,2.0076337
4330,8.7938576,3.6487448,1.4436963,61.6946564,-106.6717529,41.5572510,-2.1787124,0.9696468,10.2160063,9.7404585,6.3206105,-4.2671757
4340,9.5959110,3.7684543,0.7876883,47.6183205,-61.8244286,45.1145020,-2.3367288,0.9888002,9.9813757,8.6564884,4.2671757,-5.7633586
4350,9.7826586,3.7732425,0.7661406,32.1526718,-21.7786255,48.8167953,-2.4636209,0.9289455,9.9454632,7.0458016,1.6946565,-6.7557254
4360,9.6342182,3.7780309,0.4429250,3.1832061,38.4732819,51.5648842,-2.7605004,0.8379663,10.1082678,4.2824426,-2.3206108,-6.6946564
4370,9.7204094,3.2776453,1.4700323,-19.3206100,60.5496178,51.0763359,-2.8347204,0.8738791,10.0986910,3.5801528,-3.9694657,-3.8625953
4380,9.7060442,2.8778157,2.2098370,-24.3358784,60.1526718,49.0305328,-2.8012016,0.8116302,10.2136126,3.1832061,-5.4198475,-2.0534351
4390,9.7012558,2.7796540,2.7221935,-25.6488552,52.8091621,46.8167953,-2.6455793,0.8307837,10.3189564,3.2213740,-6.0534353,-0.2977099
4400,10.0101061,2.7054341,3.1555417,-25.2824421,41.8244286,44.6793900,-2.5162930,0.9002152,10.3476868,2.8778627,-6.0763359,0.4961832
4410,10.4961262,2.6168492,3.5649481,-22.1450386,32.1526718,43.0763359,-2.3223639,0.9648584,10.2806492,2.6412213,-6.3358779,1.8931298
4420,11.5519638,2.9927368,3.7133877,-18.3358784,27.2900772,40.5648842,-2.2265961,1.0773853,10.2136126,1.0000000,-5.3358779,3.2290077
4430,12.5766773,3.0837159,3.6774750,-15.6183205,25.3435116,34.1068687,-2.1404054,1.1061156,9.9406748,-1.8015267,-3.8931298,2.8702290
4440,13.1249466,3.0358322,3.5026991,-13.6717558,24.2290077,26.3511448,-2.0422437,1.1228749,9.8473015,-6.3969464,-4.7480917,2.3282442
4450,13.6013899,3.0214672,3.5386121,-12.0839691,21.9694653,19.3511448,-1.9201399,1.3742647,9.6701307,-11.9541988,-8.4885492,0.6412213
4460,14.6404686,3.3829896,3.2082138,-11.8854961,19.6564884,10.0687027,-1.8794388,1.4053892,10.1561518,-15.0152674,-12.3435116,-2.1603053
4470,16.0123386,3.7876077,2.9496415,-15.4885492,19.0763359,-5.1068702,-2.0566087,1.3455344,10.3692341,-15.7328243,-15.6106873,-4.7862597
4480,17.6619358,4.2089849,2.7868366,-22.5877857,24.5725193,-26.7099228,-2.2289903,1.4604555,10.7523050,-13.8549614,-17.3435116,-6.0305343
4490,18.7584743,4.5920553,2.7269819,-30.6335869,34.6335869,-56.7099228,-2.2481439,1.5059452,10.8001890,-10.9160309,-6.9618320,-4.9694657
4500,18.8829727,4.5896611,2.6120608,-40.8320618,43.6488533,-91.2213745,-2.4205256,1.1180865,11.0563669,-7.1221375,7.4045801,-1.3740458
4510,18.6866493,4.4053087,2.6192431,-52.9465637,49.6641235,-125.9694672,-2.3032103,0.9217629,11.0443964,-2.2366412,18.3053436,0.7480916
4520,18.8997307,4.2544746,2.9855542,-65.2824402,50.9160309,-163.1603088,-2.4013720,1.0725969,10.9534168,2.1221373,25.6335869,1.5572519
4530,18.6148224,3.9288650,3.5218527,-75.9923630,53.0076332,-206.0152740,-2.6360025,1.0606259,10.9749641,4.3816795,36.8854980,0.1603053
4540,17.4967365,3.3734128,3.6104376,-83.0381699,53.0000000,-249.1984711,-3.5649481,0.7493813,11.3101511,5.7251906,48.9618340,4.3587785
4550,15.9883976,2.2529323,3.6583214,-87.9083939,46.9923668,-250.1374054,-5.0325861,1.1803354,11.6166077,8.6335878,71.3053436,16.6793900
4560,13.8168669,1.2689204,3.7373297,-90.4274826,23.0381680,-250.1374054,-5.6095858,1.4987626,11.8368731,14.0381680,95.8015289,32.2137413
4570,11.4083128,0.3423691,4.2688398,-90.7938919,-10.2290077,-250.1374054,-5.8849177,1.2401901,11.7219515,22.2290077,121.2137375,47.6106873
4580,8.8944139,-0.3782819,4.9990678,-86.9770966,-47.2671738,-250.1374054,-6.2344694,1.0725969,11.6070309,33.0000000,147.6946564,65.5038147
4590,6.9910331,-0.5602403,5.7388721,-79.9465637,-78.3129807,-250.1374054,-6.8425937,0.5817881,12.7418766,49.0916023,160.8015289,86.0381699
4600,5.8729467,-0.4955972,6.4116392,-71.0381699,-89.5725174,-250.1374054,-6.5576849,1.4317253,15.2485924,74.5343475,175.2671814,101.9007645
4610,5.1403246,-0.3040621,6.6797886,-61.9083977,-83.8702316,-250.1374054,-6.5648675,-1.5610116,16.8766422,105.1755753,196.5343475,112.3816757
4620,4.1084290,-0.2274480,6.8497758,-52.6488533,-73.9465637,-250.1374054,-7.2927012,-2.1404054,17.9037495,132.3129730,198.4198456,131.6793823
4630,2.9304879,-0.0718257,7.0604649,-41.7175560,-74.4732819,-250.1374054,-6.9455438,-1.7812769,17.9707851,149.9007568,156.7175598,147.0763397
4640,2.3319404,0.1412572,7.2831244,-28.9465656,-78.2519073,-250.1374054,-5.4372044,-2.4971397,18.1766872,176.1450348,59.0916023,139.0381622
4650,2.0087249,0.1149211,7.1729918,-16.8854961,-81.8473282,-250.1374054,-3.5050933,-3.0813217,17.0538120,215.5343475,-49.1068687,112.5954208
4660,1.3646880,-0.0981618,6.9623032,-7.3893127,-85.3893127,-250.1374054,-2.9975252,-2.9592183,14.8200331,250.1297760,-143.1908417,85.1221390
4670,0.4165890,-0.1939293,6.6989422,-0.8320611,-94.9694672,-250.1374054,-2.2265961,-2.4157372,11.9302464,250.1297760,-215.9465637,62.5190849
4680,-1.2186425,-0.3854645,6.7899213,3.5801528,-103.1221390,-250.1374054,-0.8307837,-1.6974803,9.8281479,250.1297760,-250.1374054,37.7557259
4690,-2.9280937,-0.0790083,7.4004397,7.9770994,-110.6488571,-250.1374054,-0.3040621,-0.7469871,7.2950954,250.1297760,-250.1374054,15.1832066
4700,-3.5529771,0.3902529,7.8553357,14.2977095,-117.6946564,-250.1374054,-0.5674229,1.2473727,4.3310885,250.1297760,-250.1374054,3.5877862
4710,-3.7947903,0.6584021,8.3245964,23.4427490,-108.9694672,-239.0229034,-0.5147507,3.1603301,2.0135133,250.1297760,-195.6717529,1.2900764
4720,-4.4316444,0.8259954,8.4443064,34.4809151,-82.7862625,-209.7862549,0.4165890,5.1139889,-0.6296718,248.8244324,-131.0992432,3.1374047
4730,-4.6973996,0.9720409,7.8481531,43.9312973,-55.0916023,-179.9770966,0.7565638,6.9335728,-2.2864509,195.0458069,-68.9542007,2.1755726
4740,-5.1235652,0.9816177,7.6685886,51.5877876,-22.9465656,-151.8702240,0.8068419,7.8888540,-2.4827745,143.1526642,-36.9541969,-2.6488550
4750,-7.0221577,1.0223188,7.3597383,60.2442741,13.1221371,-117.5877838,0.5482694,7.9032192,-2.1547706,96.7328262,-35.0076332,-11.9541988
4760,-9.8281479,2.8083842,7.1969333,67.4045792,42.0228996,-68.0839691,0.0359128,7.8984308,-1.3096216,54.6412201,-42.1374054,-19.1450386
4770,-11.6166077,4.1658897,7.1251078,75.2519073,59.6946564,-7.9083967,-0.3327923,7.9391322,-0.1651991,18.3206100,-53.4503822,-25.5954189
4780,-13.7306767,5.3917146,6.8617468,87.8320618,79.0229034,67.2442780,-0.3040621,7.9367380,0.8331779,-11.2671757,-62.2061081,-33.2290077
4790,-16.4696293,5.2576399,5.6191626,96.1908417,111.8015289,167.5114441,-0.2130829,7.8289995,1.7142396,-37.2977104,-62.6106873,-42.0610695
4800,-18.6411591,4.1227942,4.4651632,91.8015289,150.4122162,250.1297760,-0.5267217,7.6829538,2.6527619,-59.3664131,-53.7404594,-50.1679382
4810,-19.6131992,2.1715298,3.4236910,77.3282471,174.1145020,250.1297760,-0.2561783,7.2352405,3.3973548,-77.0534363,-47.4274826,-59.3435097
4820,-18.4831429,-2.0135133,2.5067163,51.7404594,182.9465637,250.1297760,-0.1723816,6.7611909,3.7732425,-88.9160309,-47.0305328,-68.1603088
4830,-14.7793312,-8.4203644,1.8100072,21.9541988,163.3282471,250.1297760,-0.6129125,7.0652533,3.8426740,-107.4885483,-37.7175560,-74.0381699
4840,-5.9902620,-16.4456882,1.0462608,-5.2442746,124.8473282,250.1297760,-1.2234308,6.8832946,4.5417776,-125.5877838,-28.6488552,-77.4580154
4850,11.1521349,-19.6131992,2.1715298,-27.6717548,125.9389343,250.1297760,-1.9105632,6.5026188,5.2360926,-139.9465637,-21.7633591,-78.6412201
4860,19.6126022,-19.6131992,2.0566087,-70.5190811,250.1297760,250.1297760,-2.3870070,5.8418221,5.3988972,-154.7862549,-15.7557249,-74.6106873
4870,19.6126022,-11.9470053,3.2489152,-130.3282471,250.1297760,250.1297760,-2.5067163,5.1642666,5.4036856,-169.4961853,-14.0992365,-67.7786255
4880,19.6126022,10.2854376,15.8710823,-207.6259613,250.1297760,250.1297760,-2.4779861,4.5298066,5.3821378,-185.6030579,-8.1068707,-60.2671738
4890,19.6126022,7.1825686,19.6126022,-124.2519073,250.1297760,64.1374054,-2.4109488,4.0222383,5.8561873,-201.3358765,-4.8625956,-54.2900772
4900,19.6126022,3.5074875,19.6126022,80.6870193,50.9541969,-115.1450348,-2.6599445,3.6248028,7.0053983,-213.5572510,-3.7480917,-48.0381660
4910,11.3628235,1.2018831,13.8120794,235.1526642,-250.1374054,-193.5419922,-2.6048782,3.0071020,7.9965930,-221.1603088,-3.1755726,-43.1068687
4920,1.4317253,3.3686244,2.1356170,250.1297760,-250.1374054,-197.2442780,-2.6934631,2.3056045,8.5616217,-226.6717529,-4.6335878,-39.8625946
4930,0.1125269,4.9152708,-1.4867916,194.1374054,-250.1374054,-140.9923706,-3.2106080,1.7717001,9.0141230,-232.1908417,-0.8778626,-36.6412201
4940,2.4420733,5.1427188,-0.9696468,133.1984711,-250.1374054,-70.0534363,-3.8929520,1.2737088,9.6677370,-237.8015289,13.5954199,-30.6030540
4950,4.0174499,5.4731169,-0.7852941,85.8854980,-228.4809113,-7.4427481,-4.4771342,0.7493813,10.7546988,-237.2290039,41.0000000,-17.8702297
4960,4.5106530,5.3725610,-0.7302278,39.8015251,-68.5190811,41.3435097,-5.4252334,0.4764437,12.0427732,-228.4351196,73.8015289,0.0305344
4970,4.5393834,4.9392128,0.2226596,5.7786260,47.1450386,76.4427490,-5.7652082,0.3136388,13.0962162,-213.1068726,103.3129807,20.8549614
4980,4.4986820,4.3358769,2.1332228,-11.3435116,110.8625946,101.3435135,-9.2008705,-0.1556223,16.2326050,-197.3435059,84.4961853,36.3893127
4990,5.0277977,3.8091555,3.6008608,-10.6412210,129.2824402,119.3358765,-7.4148049,-1.5059452,18.5525742,-177.1908417,-0.1755725,42.7557259
5000,6.7851329,3.9097114,3.9743545,2.1450381,121.4809189,127.2977066,-6.4595232,-1.9177457,19.6126022,-137.4580078,-131.7175598,40.6870232
5010,9.0069408,4.3598189,3.5673423,15.6335878,106.0000000,119.3511429,-1.0462608,-1.8507085,18.6962261,-93.7709961,-102.1526718,19.2137413
5020,9.9885588,4.8602047,2.8466914,27.5343513,80.5877838,98.0992355,0.2035061,-2.7102225,15.1288834,-49.0992355,-59.7328262,1.4961832
5030,9.6102762,4.6973996,1.6160779,33.7480927,44.9541969,71.5114517,-0.3639168,-1.8076130,13.0507269,-7.6412215,-12.7022905,-5.5725193
5040,9.4785957,4.3215117,0.5171449,28.5190830,6.2290077,51.8320618,-0.8738791,-0.7398046,12.0762920,26.6641216,17.6488552,-0.4274809
5050,9.0931320,3.6008608,0.3710994,14.7557249,-6.2366414,45.7557259,-0.9552816,-0.1484398,11.5806942,47.2519073,26.6946564,7.5038166
5060,10.2303715,3.4619980,2.5162930,-21.7862587,15.6870232,58.5419846,-0.9504932,0.1077385,10.5176744,46.3587799,34.4580154,0.7175573
5070,10.9486284,3.7493007,3.2489152,-29.1755733,35.1068687,58.9465637,-1.3144100,0.4022238,10.1226330,39.4427490,31.2061062,-5.9694657
5080,11.4202833,3.8235207,3.8809812,-31.7404575,51.2519073,55.2748108,-1.8722562,0.7852941,9.6629486,31.7862587,28.2519093,-10.7633591
5090,11.0276365,3.6415622,4.3095412,-32.8167953,63.9007645,50.4198456,-2.4085546,1.0342898,9.5528164,25.3358784,24.6106873,-13.0992365
5100,10.8983507,3.6391680,4.6040263,-32.6870232,72.6488571,47.0305328,-2.6599445,1.0223188,9.7132263,21.8473282,17.8167934,-13.8396950
5110,10.7666702,3.3758070,4.7740140,-30.5877857,68.0076370,44.1450386,-2.8371146,0.9911944,9.6174593,19.5114498,13.9694653,-14.6106873
5120,10.8528605,3.0358322,4.8506279,-28.0458012,58.7404594,39.9465637,-3.0118904,1.2066715,9.6198530,17.2900772,12.6030531,-15.8320608
5130,11.0659437,2.8826041,5.2289100,-23.1603050,46.5572510,36.5343513,-3.4117200,1.2449785,9.8161764,15.3053436,11.6183205,-15.7099237
5140,11.8656025,3.0597742,5.5018473,-15.0839691,31.1221371,31.1221371,-3.7157819,1.3646880,9.8856087,13.8549614,11.0000000,-13.7709923
5150,12.8352499,3.3159523,5.2863703,-8.5954199,21.8931293,21.4427490,-3.8522508,1.4532729,10.0244713,13.4961834,10.6641226,-10.5572519
5160,13.3691540,3.4763632,4.9080882,-5.9007635,14.6641226,9.0687027,-3.7732425,1.4173602,10.0579901,13.4122133,10.7480917,-6.6793895
5170,13.8001080,3.6295912,4.5657191,-7.3893127,11.6793890,-4.4885497,-3.6918402,1.4149660,9.8616667,12.8854961,10.4961834,-3.2824428
5180,13.5774488,3.2680686,4.5561423,-11.3358774,12.6641226,-16.5725193,-3.5601597,1.5634058,9.4331064,11.4656487,10.6564884,-0.3053435
5190,13.7450418,3.2345500,4.5537481,-15.0229006,11.4198475,-26.7633591,-3.3351059,1.6495966,9.1721401,7.6259542,11.6030531,3.1374047
5200,14.2765512,3.0094962,5.5760674,-23.5267181,6.6793895,-49.0228996,-3.2225790,1.9273225,8.8896255,-4.0992365,12.8702288,7.1603055
5210,15.2102852,3.3015873,6.1530671,-24.6106873,13.7404585,-82.6259537,-3.2991931,1.7621235,9.7682934,-12.9923668,3.2290077,11.6793890
5220,15.2845058,3.6056492,6.1051831,-26.7099228,22.9465656,-104.6183243,-3.0286496,1.6448082,10.1920643,-14.1679392,-0.5648855,12.7938929
5230,15.1983147,3.6271970,6.2775645,-30.2824421,34.0000000,-128.4885559,-2.6910689,1.4508789,10.3357162,-13.0458012,-2.5496182,12.7480917
5240,14.9229832,3.6702924,6.6247220,-30.4580154,43.3893127,-153.1832123,-2.4157372,1.2928623,10.5631638,-10.8015270,-3.5267177,10.6793890
5250,14.6835642,3.8330972,6.6845770,-29.4885502,49.2671738,-180.9541931,-2.2385671,1.0797794,10.6254129,-8.2366409,-3.3129771,6.4122138
5260,13.6325150,3.3973548,6.5840211,-27.2748089,45.4198456,-208.3893127,-2.3199697,1.0175306,10.5871058,-5.2824426,-3.8702290,1.9465649
5270,12.5263996,3.2584918,6.3158717,-24.1145039,24.6793900,-234.9847260,-2.4109488,0.9720409,10.6517487,-2.3816793,-3.8854961,-2.4122138
5280,11.9781294,3.3207407,6.2320752,-20.5954189,-7.9083967,-250.1374054,-2.5043221,1.0223188,10.4506369,0.2213740,-3.2519083,-5.6946564
5290,11.3508520,2.7413468,6.3350253,-15.9007635,-44.1755714,-250.1374054,-2.8155668,1.0055596,10.3859940,2.2137403,-2.3053436,-8.1603050
5300,10.8313131,2.4684093,6.4499464,-10.3053436,-84.2366409,-250.1374054,-3.0837159,0.9911944,10.2519188,3.4961832,-1.6564885,-8.8473282
5310,5.0206151,0.0287303,5.9711084,-20.4961834,-149.6488495,-250.1374054,-3.4356618,1.2018831,9.8880024,2.4427481,-1.7022901,-3.0763359
5320,3.8163381,-0.0814024,5.9854736,-20.5419846,-152.5954132,-250.1374054,-3.2800395,1.1396341,9.9670105,2.2061069,-3.0076337,-2.2290077
5330,2.7772598,0.1173153,6.2033448,-19.4961834,-142.8931274,-250.1374054,-3.1387823,1.1300575,10.1058741,2.2977099,-2.6870229,-1.7557251
5340,2.2984219,0.3423691,6.2248926,-19.1145039,-124.7480927,-250.1374054,-3.1603301,1.1970947,10.0579901,3.0381680,-1.4122137,-1.6030535
5350,1.8818330,0.2442073,6.4714942,-18.5877857,-93.9542007,-250.1374054,-3.2273674,1.2473727,10.0771437,3.6946564,-0.6717557,-1.3053435
5360,1.2306134,-0.0071826,6.5792327,-16.1603050,-52.9160309,-250.1374054,-3.0956869,1.3168042,9.9574337,3.8244274,-1.1297710,-0.4427481
5370,-0.3327923,-0.2729376,6.7587967,-10.4427481,-12.8854961,-250.1374054,-3.0549858,1.3862357,9.9526453,3.0381680,-2.4122138,-0.4885496
5380,-1.9464760,-0.2968795,7.0891948,-0.6259542,12.6793890,-250.1374054,-2.9951310,1.4484847,9.9598284,2.3816793,-3.4351146,-0.4198473
5390,-4.1826491,0.0047884,7.3525558,14.8854961,24.6870232,-250.1374054,-2.8682389,1.5274929,9.8640604,2.0076337,-2.2366412,-0.5343512
5400,-5.4755111,0.7230452,7.5273318,34.7328262,20.6641216,-250.1374054,-3.0118904,1.4843974,9.9574337,1.3435115,-2.1679389,-0.5648855
5410,-5.8106980,1.6041069,7.5153608,55.8473282,8.4198475,-250.1374054,-2.9568241,1.4077834,9.9023676,0.7251908,-2.8702290,-0.7786260
5420,-5.9926562,2.0350611,6.8976598,76.7251892,0.5343512,-223.2366486,-3.1052637,1.5035510,9.9837704,-0.1984733,-4.7022901,-1.3435115
5430,-6.5193777,2.3846128,6.4379754,93.1450348,-2.3511450,-198.0763397,-3.1292057,1.4269369,9.7347746,-0.7862595,-7.3664122,-1.5343511
5440,-6.7133074,2.6288199,5.5233951,105.1984711,-2.2671757,-172.4885559,-3.3542595,1.4460905,9.4690189,-2.5419848,-11.3129768,-2.2442749
5450,-6.9335728,2.7006457,4.5944495,110.0381699,5.0687022,-148.2595367,-3.6295912,1.4915800,9.2080526,-6.0839696,-18.0916023,-0.6335878
5460,-8.2958660,3.1292057,3.7971845,109.7480927,17.4885502,-121.5267181,-3.7229645,1.4532729,9.2391768,-10.7175570,-21.4580154,1.9541985
5470,-9.7012558,3.6343796,3.3111639,105.2519073,27.3282452,-85.0381699,-3.7636659,1.4293311,9.6222477,-13.5877867,-21.7633591,5.1374044
5480,-10.2710724,3.9456241,3.1268115,101.6870193,35.0992355,-42.3816795,-3.5362179,1.2090657,10.0891142,-13.5801525,-21.2900772,7.5267177
5490,-10.9031391,4.4603748,2.7940190,97.4045792,45.9389305,5.7099237,-3.4189026,1.0103480,10.2950144,-12.0610685,-19.1374054,9.8625956
5500,-11.4442253,4.4507980,2.3439114,93.0152664,60.4885483,58.9618340,-3.2489152,0.5793939,10.8696203,-9.2748089,-13.8167934,15.8091602
5510,-12.2797976,4.0485744,1.6591733,87.2061081,77.0534363,119.1908417,-2.1643472,1.4365137,10.9055328,-3.3893130,-8.7786255,13.8015270
5520,-13.0938225,4.0653338,0.8666966,75.4885483,86.9083939,185.5343475,-2.0374553,1.1659702,10.5655584,0.3816794,-3.8854961,7.7099237
5530,-13.5487185,3.6128318,0.4285599,57.2519073,97.1832047,250.1297760,-2.1068866,0.8331779,10.1537571,0.9541985,-5.4580154,1.7404580
5540,-13.6516685,2.3391230,0.6248835,35.2519073,111.8473282,250.1297760,-2.1164634,0.9552816,9.9981356,-0.5038168,-7.4885497,-2.1068702
5550,-13.8048964,0.5841822,1.1827296,15.0916033,130.2671814,250.1297760,-2.3415172,1.1444225,10.0986910,-1.0000000,-7.9160304,-4.7480917
5560,-12.4569674,-2.6551561,1.2737088,-0.1755725,143.7557220,250.1297760,-2.6958573,1.1611819,10.1154509,-0.9160305,-9.1145039,-6.3282442
5570,-10.0364418,-6.9551206,1.6591733,-17.4198475,152.0076294,250.1297760,-2.9256995,1.2521610,10.2016411,-1.0381680,-8.6946564,-6.0076337
5580,-6.6151457,-12.5742826,2.0278785,-34.1145020,157.0839691,250.1297760,-3.0525916,1.3168042,10.2614956,-0.0839695,-6.9923663,-4.5725193
5590,0.0119709,-16.8167858,2.6336083,-50.9847336,164.6793823,250.1297760,-3.0908985,1.2545552,10.2303715,1.1450381,-5.0610685,-2.4045801
5600,9.9957409,-19.3761749,3.7971845,-72.1297684,217.1984711,250.1297760,-2.9017577,1.2641320,10.1106625,1.9618320,-3.5877862,-0.9770992
5610,18.6603127,-19.6131992,4.6686692,-95.0610657,250.1297760,250.1297760,-2.9352763,1.2928623,10.0196829,1.8549619,-3.4351146,-1.2519084
5620,19.6126022,-15.3635139,8.0779953,-130.2748108,250.1297760,250.1297760,-2.8179610,1.2689204,10.0220766,1.4885496,-4.3664122,-1.8931298
5630,19.6126022,-7.8984308,11.8081427,-160.5648804,250.1297760,250.1297760,-2.7174051,1.2306134,10.0316534,0.4503817,-6.3893127,-3.4503818
5640,19.6126022,-3.3303175,16.1990852,-180.2366486,250.1297760,250.1297760,-2.6360025,1.1659702,10.0555954,-0.3664122,-7.4427481,-4.2290077
5650,19.6126022,-1.0917504,19.6126022,-174.8167877,250.1297760,250.1297760,-2.6910689,1.0630201,10.1729107,-0.4580153,-7.1221375,-5.5877862
5660,19.6126022,-0.1651991,19.6126022,-101.5190811,250.1297760,250.1297760,-2.6336083,0.9792235,10.3261395,0.3816794,-5.8320613,-6.2977099
5670,19.6126022,0.4836263,19.6126022,6.7557254,215.5419922,136.9084015,-2.6455793,0.9480990,10.2591019,1.6488550,-3.7557251,-6.8931298
5680,19.6126022,1.8147956,13.3116932,84.6335907,-77.2824402,18.8702297,-2.7964132,0.9696468,10.2207947,2.4961832,-1.5496184,-6.9083967
5690,15.3874559,3.3255291,8.0660238,108.9389343,-250.1374054,-59.6717567,-2.8993635,0.9816177,10.3716288,3.1603053,0.7328244,-6.0305343
5700,12.6269550,4.2712340,5.2504573,98.5114517,-250.1374054,-81.2977066,-2.9927368,1.0510491,10.1585455,3.5648854,1.2748091,-5.9618320
5710,12.3803539,4.2233500,2.8921809,64.6335907,-250.1374054,-72.8625946,-3.0789278,1.0869620,10.0795374,4.0152674,-0.2900763,-5.2290077
5720,11.1234045,4.1994085,2.2720859,19.9541988,-152.1221313,-47.3435097,-3.1842721,1.2473727,9.9957409,3.7328243,-1.9083970,-4.2519083
5730,9.8042059,3.6295912,3.1818779,-21.7862587,-55.7175560,-15.1679392,-3.1435707,1.3718705,9.9095497,2.8778627,-1.9465649,-2.6335878
5740,9.6533718,2.6024840,8.1234846,6.7480917,20.9618320,31.4580154,-2.8035958,1.4796091,10.0029240,-0.7328244,-3.8931298,2.2061069
5750,8.6980906,2.7605004,6.3278427,38.9160309,-19.7557259,7.2061067,-2.4803803,1.3239868,10.1322098,-1.4656489,-4.2977099,-0.0229008
5760,8.5664101,3.1723011,4.6016321,40.2671738,-37.5114517,-0.6870229,-2.5330524,1.3790531,10.2207947,-1.0152671,-3.7022901,-1.6106870
5770,8.7052727,3.2393384,3.3614421,30.2900772,-48.2900772,-10.6564884,-2.6455793,1.3096216,10.2567072,-0.6488550,-4.2748094,-3.4351146
5780,8.6837254,3.1315999,2.7485294,14.0916033,-46.1068687,-21.8167934,-2.7724714,1.3048333,10.2064295,-0.0534351,-4.4885497,-4.2824426
5790,8.2575598,2.9376705,2.7628946,-5.1755724,-47.8091621,-32.9312973,-2.9256995,1.1803354,10.0723553,0.4198473,-4.9083967,-4.4351144
5800,7.5728211,2.8251436,3.3877780,-20.4198475,-44.5343513,-40.4122124,-2.9161227,1.1659702,10.0220766,0.4045801,-4.8625956,-5.2442746
5810,6.7564025,2.5809362,4.0701222,-31.2595425,-44.9618340,-42.6641235,-2.9831600,1.0773853,10.0244713,-0.0381679,-4.3358779,-5.8702292
5820,6.1387019,2.3151813,4.7261300,-36.8091621,-44.6183205,-41.0763359,-3.0741394,1.0438666,10.0484133,0.2442748,-4.2671757,-4.7480917
5830,5.6526814,2.0590029,5.0517397,-39.0381660,-43.1603050,-35.6717567,-3.1651185,1.0103480,10.1346035,0.7786260,-4.1679387,-4.6717558
5840,5.3749552,1.9871773,5.2360926,-42.1374054,-42.4351158,-27.5267181,-3.1962428,0.9409165,10.0268650,1.4732825,-4.3893127,-4.1984735
5850,5.7364779,1.7262106,5.3055239,-46.5114517,-36.8702278,-17.9541988,-3.2728570,0.9672526,9.9789820,1.9007634,-3.5343511,-3.8091602
5860,6.3062949,1.4508789,5.6790175,-51.2137413,-32.1068687,-9.6259546,-3.2273674,0.9672526,9.9622221,2.2595420,-3.4045801,-2.8702290
5870,7.1873569,1.3000449,5.9830794,-55.8549614,-28.6030540,-1.0000000,-3.1172347,1.0702027,10.0436249,2.1145039,-3.1832061,-1.6030535
5880,7.6494355,2.0398495,5.5952206,-67.2671738,-46.2595406,10.1603050,-3.1411765,1.0438666,10.0579901,2.0000000,-3.2519083,-1.5648855
5890,9.9717989,2.0685797,5.5808558,-76.7938919,-29.5572510,19.9694653,-2.9903426,1.1420283,10.1274214,1.9236641,-3.1984732,0.1603053
5900,11.3724003,1.8626794,7.9319496,-80.8778610,-1.1526718,27.3816795,-2.8562679,1.2282192,10.0986910,2.1755726,-2.5038168,-0.1755725
5910,13.3787308,1.7190280,8.6310530,-65.2442780,39.9847336,31.1755733,-2.8634505,1.2737088,10.1872759,2.0763359,-2.1755726,0.2977099
5920,14.3411951,1.0342898,9.4283180,-48.4045792,65.4809189,23.0305347,-2.8275378,1.3383518,10.0603838,2.1145039,-2.7862597,-0.6259542
5930,15.2797174,1.2114599,10.3596573,-24.9465656,80.6106873,6.0992365,-2.7293761,1.4365137,10.1369982,1.6564885,-2.2290077,-0.4503817
5940,15.4760408,1.5011568,10.3476868,-1.9465649,79.9618301,-16.4427490,-2.6623387,1.5203103,10.1800938,1.7251909,-1.8473282,-0.4045801
5950,16.1105003,1.5945302,9.7323799,14.2519083,68.5801544,-40.4961815,-2.6048782,1.5250987,10.1609402,1.5954199,-1.5038168,-0.4274809
5960,17.0969067,1.8411317,8.8513184,21.2671757,52.8091621,-69.4351120,-2.5306582,1.5322813,10.1776991,1.7328244,-1.5954199,-0.9847328
5970,18.3107605,2.2625091,8.2336178,20.5190830,44.1984749,-102.4885483,-2.4636209,1.5466464,10.2974091,1.6946565,-0.9160305,-1.9083970
5980,19.1870346,2.6455793,8.2599535,19.1984730,42.2977104,-137.1908417,-2.5450234,1.4820032,10.1633339,1.9770992,-0.4122137,-3.5114503
5990,19.4575768,2.5378408,7.6135225,16.5343513,39.2137413,-175.3358765,-2.6024840,1.4580613,10.0484133,2.0687022,0.2748092,-4.0992365
6000,19.6126022,2.2529323,7.2519999,11.6488552,23.7862587,-220.8015289,-2.7485294,1.4317253,10.0699606,2.2977099,0.4122137,-4.9618320
6010,19.6126022,1.8794388,7.1801744,6.7480917,3.7251909,-250.1374054,-2.9017577,1.4436963,10.0771437,2.1297710,-0.2748092,-5.2824426
6020,19.2899837,0.9265513,6.8976598,1.9236641,-23.4351139,-250.1374054,-2.9879484,1.3096216,9.9143381,1.6793894,-1.9312977,-5.4656487
6030,18.4113178,0.0215477,7.5752153,-1.7557251,-54.4656487,-250.1374054,-3.0621684,1.3311694,9.9215212,0.8549618,-2.5954199,-5.7709923
6040,16.9484673,-1.0941446,8.2360115,1.5114504,-70.7862625,-250.1374054,-3.0789278,1.2808913,9.9430685,0.6641222,-2.9847329,-5.7175574
6050,14.9756546,-2.2792683,8.3413563,12.9770994,-61.6106873,-250.1374054,-3.1603301,1.2808913,10.0795374,0.7175573,-2.9541984,-4.7862597
6060,12.1624823,-3.2752512,7.8385763,26.7938938,-45.9694672,-250.1374054,-3.1938488,1.1923064,10.0125008,1.0992366,-2.8625953,-5.1679387
6070,9.8640604,-3.7133877,6.9120250,38.3664131,-35.7328262,-250.1374054,-3.0980811,1.1372399,9.9909525,1.4580153,-2.2824428,-4.7175574
6080,7.7308378,-3.7971845,6.1267309,46.9465637,-28.7480907,-250.1374054,-3.1268115,1.1180865,10.0723553,1.9847329,-1.9618320,-4.6793895
6090,6.5552907,-3.8570392,5.6957769,51.1755714,-22.0152664,-250.1374054,-3.1507533,1.1731528,10.0412302,2.0687022,-2.0763359,-4.0992365
6100,7.0484939,-5.3055239,5.5545197,54.3664131,-4.1603055,-250.1374054,-3.1746953,1.1324517,9.9239149,2.1145039,-2.1145039,-3.0458016
6110,4.5106530,-4.0054789,5.7221127,63.9618340,15.5648851,-250.1374054,-3.1459649,1.0749911,10.1202393,2.2061069,-2.0534351,-2.9618320
6120,2.6264257,-3.5601597,5.0876527,71.4580154,28.9465656,-250.1374054,-3.0478032,1.1970947,10.0148945,2.1221373,-1.6870229,-2.1984732
6130,1.6663558,-3.6511390,4.0988522,75.5496216,34.2671738,-250.1374054,-3.0454090,1.2018831,9.9861641,2.3129771,-1.5038168,-2.0000000
6140,0.2011119,-3.6750808,3.0932927,74.2748108,40.4503822,-250.1374054,-3.0406206,1.2904681,10.0484133,2.4351146,-1.6106870,-1.1679389
6150,-1.0725969,-4.4484038,3.3518653,70.4503784,40.8015251,-250.1374054,-2.9855542,1.2784972,9.9095497,2.2977099,-2.1297710,-1.0381680
6160,-3.2441268,-4.6997938,3.9408360,71.4427490,43.9389305,-250.1374054,-2.9352763,1.3455344,9.9598284,1.9389313,-2.4885497,-1.2900764
6170,-6.0309634,-4.5369892,4.0916696,77.2442780,42.8702278,-250.1374054,-2.9927368,1.4293311,9.9765873,1.2977099,-3.0152671,-1.2213740
6180,-11.8727856,-3.4667864,5.4491754,86.1450348,-24.7786255,-250.1374054,-2.9400647,1.3982066,9.9717989,0.8549618,-3.5877862,-1.1832061
6190,-13.0890341,-3.1196289,5.9136481,90.7328262,-35.1755714,-250.1374054,-2.9783716,1.3886299,10.0172882,0.3435115,-4.5267177,-1.2290076
6200,-13.8719339,-2.8610563,6.0501165,94.5801544,-39.3511467,-240.1068726,-3.0238612,1.3670821,9.9574337,-0.1221374,-4.8549619,-1.5267175
6210,-14.0898046,-2.4157372,5.5377603,96.4503784,-33.8702278,-194.6259613,-3.0382264,1.2425843,10.0843258,-0.4122137,-4.6106873,-1.1984733
6220,-14.0754395,-2.2146254,5.3845320,95.5572510,-26.2519093,-150.1755676,-3.0094962,1.2521610,10.1633339,0.0610687,-4.1297708,-1.6946565
6230,-13.9485474,-2.0949159,5.2001796,95.2671738,-18.0610695,-106.0152664,-2.9759774,1.1731528,10.1202393,0.5572519,-3.6106870,-1.5801526
6240,-13.4409800,-2.0470319,4.6973996,94.8778610,-7.1221375,-62.0305328,-3.0094962,1.1468167,10.1657286,1.2824427,-4.1679387,-1.8931298
6250,-12.9884777,-1.9847831,4.1371593,94.7862625,6.8625956,-21.1755733,-2.9616125,1.2401901,10.0436249,1.5343511,-3.8091602,-2.2213740
6260,-12.8208847,-1.8985922,3.3997490,93.4732819,18.5038166,19.9618320,-3.0286496,1.2162483,10.0508070,1.5725191,-3.3358779,-2.1984732
6270,-12.8376436,-1.8650736,2.7341642,91.2748108,27.4961834,61.3969460,-3.0861101,1.2761030,10.0053177,1.8473282,-3.4656489,-2.7175572
6280,-12.9334116,-1.8435259,2.0925217,89.9236679,34.3358765,104.3587799,-3.0932927,1.3191984,9.9646168,1.6030535,-3.5648854,-2.7709923
6290,-13.8791161,-1.9704180,1.1635761,88.7022934,35.3893127,152.5648804,-3.0478032,1.3527170,10.0723553,1.7251909,-3.5496182,-1.4427481
6300,-15.5143480,-1.9680238,0.2489957,86.2442780,18.9541988,210.1450348,-3.0980811,1.3886299,10.0747490,1.7404580,-3.3282442,-1.9847329
6310,-15.7537670,-2.0422437,-0.4620786,80.8167953,-7.4732823,250.1297760,-2.8993635,1.3910241,10.0101061,1.3053435,-3.6641221,-1.3129771
6320,-17.0585995,-3.2752512,-1.9392935,66.2366409,-19.2519093,250.1297760,-2.8658447,1.3790531,10.0436249,1.0839695,-3.5496182,-1.7709924
6330,-19.2588596,-5.4252334,-2.8586621,39.7022896,-20.2900772,250.1297760,-2.9089401,1.4221486,9.9741936,0.8625954,-3.9618320,-2.6793892
6340,-19.6131992,-8.1737623,-2.8466914,9.8854961,-29.6259537,250.1297760,-2.8203552,1.3718705,10.1058741,0.9312977,-3.8625953,-3.0458016
6350,-14.9181948,-19.6131992,1.5993185,-16.7480907,-53.3587799,250.1297760,-2.8802099,1.3886299,10.1010857,0.6793893,-3.7175572,-3.9083970
6360,-7.0149751,-19.6131992,4.2927818,-5.4732823,-34.2748108,250.1297760,-2.8778157,1.4796091,10.0484133,0.7099237,-3.2213740,-4.0610685
6370,6.4738884,-19.6131992,6.1267309,11.4885492,20.0534344,250.1297760,-2.9568241,1.4197544,10.1058741,1.0229008,-2.9160306,-3.8396947
6380,19.6126022,-19.6131992,5.3031297,21.3664131,155.0610657,250.1297760,-3.1172347,1.3862357,10.1106625,1.2137405,-3.0076337,-4.5267177
6390,19.6126022,-19.6131992,1.5179161,-13.4274807,250.1297760,250.1297760,-3.2106080,1.4053892,9.8999729,1.1068702,-3.6030533,-3.4732823
6400,19.6126022,-14.3866844,3.2106080,-87.5877838,250.1297760,250.1297760,-3.3111639,1.3215926,9.9885588,0.7251908,-3.9923663,-3.1984732
6410,19.6126022,-3.7085996,11.5926657,-123.4580154,250.1297760,250.1297760,-3.3303175,1.2904681,9.8353300,0.2824427,-4.0381680,-2.2137403
6420,19.6126022,2.5546002,17.5350437,-61.7709923,244.0152740,250.1297760,-3.1986370,1.2018831,9.9717989,0.2519084,-4.1984735,-0.9541985
6430,19.6126022,5.2959471,15.7298250,45.5190849,-73.6641235,106.3129807,-3.2369442,1.1947005,10.1537571,0.0916031,-3.8702290,0.1603053
6440,19.6126022,4.9104824,9.0308828,113.0381699,-250.1374054,-58.7404594,-3.1004753,1.1587877,10.0867205,0.3816794,-3.1374047,0.4732825
6450,19.6126022,4.0102673,3.8330972,114.6412201,-250.1374054,-115.4580154,-3.0094962,1.1707586,10.2207947,0.8167939,-2.1221373,1.7328244
6460,16.1512012,3.9432299,2.1571648,86.2595444,-250.1374054,-86.3282471,-2.9568241,1.1755470,10.1369982,1.7633588,-1.2442749,1.7099236
6470,13.3332415,3.9815371,1.3048333,49.4961815,-209.9923706,-16.5419846,-2.8251436,1.2042773,10.1058741,2.2595420,0.7099237,1.0916030
6480,9.1242561,5.0541339,1.3144100,-13.1145039,111.5801544,113.1832047,-2.9089401,1.4460905,10.0532017,2.7557251,-0.0458015,0.8167939
6490,10.2662840,4.2281384,3.9528067,-24.1145039,193.3969421,158.4427490,-2.8538737,1.6208663,9.8568783,1.6335878,-0.3740458,1.5114504
6500,11.5806942,3.8043671,4.9703374,-11.1374044,188.9694672,155.2671814,-2.8299320,1.7309990,9.8065996,0.6030535,-1.1450381,1.0229008
6510,12.9166517,3.7445123,4.9392128,6.5038166,170.4198456,138.5343475,-2.8347204,1.7286048,9.8065996,-0.9694657,-2.4732823,1.3587786
6520,13.3811245,4.0629396,4.1970143,20.2519093,144.3893127,110.5572510,-2.7964132,1.6448082,9.7874460,-2.3282442,-4.3053436,-0.4961832
6530,13.1943779,4.1658897,3.0023136,25.4045811,109.3435135,79.4503784,-2.8442972,1.5753766,9.9358864,-3.2061069,-5.6641221,-1.9007634
6540,12.9070749,4.0796990,1.9057748,20.4961834,76.1984711,49.0687027,-2.8155668,1.4820032,9.9741936,-3.1755726,-6.6717558,-2.3435113
6550,11.8392668,3.6439564,1.1755470,8.9236641,48.3816795,22.4961834,-2.9185169,1.3455344,10.1226330,-2.4885497,-6.9694657,-4.5114503
6560,10.7858238,3.2489152,1.2545552,-5.4198475,24.3206100,5.4885497,-2.9807658,1.2761030,10.1824875,-1.1908396,-7.1221375,-6.0534353
6570,10.2016411,2.9424589,1.9823889,-18.3282452,7.2748094,-5.4198475,-2.9544299,1.1755470,10.1226330,-0.0992366,-5.6641221,-6.7175574
6580,9.5336628,2.5761478,2.9759774,-25.5419846,-4.2748094,-10.7786255,-3.0717452,1.1492109,10.0412302,0.7633588,-4.3969464,-7.3664122
6590,9.2176294,2.4851687,3.8067613,-26.6641216,-9.4809160,-10.2671757,-3.1986370,1.0678085,10.0484133,1.4809160,-4.5725193,-7.7557254
6600,8.7268209,2.2505381,4.2209558,-20.9465656,1.2519084,0.2442748,-3.3997490,1.0414724,9.9143381,2.3664122,-3.1755726,-6.7786260
6610,8.9087791,2.1116750,3.2967989,-40.1526718,36.9618340,24.3587780,-3.0789278,1.3000449,10.0819321,3.7709923,-1.5114504,-1.6641221
6620,10.3524752,1.6160779,3.5266411,-60.4732819,31.5038166,20.8778629,-2.9999194,1.4436963,10.0962973,3.7251909,-0.8396947,-0.6488550
6630,10.9294748,1.8004304,4.4244623,-67.1755753,27.7328243,12.3664122,-2.9759774,1.6184721,9.9981356,3.3664122,-1.1832061,-0.5954198
6640,11.3293047,1.8411317,4.9679432,-69.8625946,31.5190830,3.4580152,-2.8945751,1.6879035,9.8856087,2.2519083,-1.6259542,0.3969466
6650,11.2814207,1.6831152,5.3581958,-70.7938919,35.2977104,-3.7328243,-2.9209111,1.7836711,10.0388365,1.1679389,-2.3969467,1.0229008
6660,11.1138277,1.2186425,7.1203194,-63.9541969,18.7938938,-11.6717558,-2.6383967,1.7357874,9.9837704,-0.2671756,-3.2671757,0.3969466
6670,11.5064745,1.1037214,7.4986014,-51.1297722,21.5267181,-12.5419846,-2.6216373,1.7477583,9.9239149,-0.8396947,-3.3435113,0.3358779
6680,11.9948893,1.2713146,7.2950954,-40.7404594,26.1832066,-12.5496187,-2.7437410,1.7142396,10.0244713,-0.9083970,-3.5496182,-1.3893130
6690,12.8137016,1.4915800,7.0101867,-34.7938919,32.0381660,-12.9770994,-2.8586621,1.6543850,9.9574337,-1.0839695,-4.2137403,-2.1374047
6700,14.5566721,1.6376256,6.9216018,-32.8015251,39.2977104,-18.4198475,-2.9592183,1.5394639,9.8927908,-1.6030535,-5.1221375,-3.0763359
6710,16.6755295,1.6687500,7.1418672,-33.1526718,48.8702278,-31.8167934,-3.0621684,1.4365137,9.9765873,-2.0076337,-5.6259542,-4.0000000
6720,18.2461185,1.6591733,7.4650826,-32.9389305,62.8091621,-56.0916023,-3.1914546,1.3527170,9.9454632,-2.1145039,-5.6488547,-4.2519083
6730,18.9332504,1.7405758,7.7954807,-30.5725193,69.1984711,-87.7557220,-3.2153964,1.2186425,9.9981356,-1.6106870,-5.6412215,-3.8931298
6740,18.5621510,1.9895715,8.3413563,-26.0076332,62.7709923,-126.8320618,-3.2920105,1.1659702,10.0268650,-0.9847328,-4.9160304,-3.3893130
6750,17.3387203,2.5522060,8.6765423,-18.1603050,58.7709923,-169.2977142,-3.3398943,1.0893562,10.0316534,-0.0229008,-4.4198475,-2.5801528
6760,15.0211449,2.9640064,8.8608952,-10.5267172,34.4503822,-205.3206177,-3.2321558,1.0821736,10.1130562,0.4580153,-3.4885497,-1.8854961
6770,15.0187502,2.7509236,8.7747040,-2.0992367,18.1908398,-233.8320618,-3.2130022,1.1109039,10.0029240,1.0381680,-2.4503818,-1.3206106
6780,14.2502155,0.8595140,8.0492649,12.1603050,-2.4274809,-250.1374054,-2.9161227,1.4963684,10.0508070,1.5114504,-1.3435115,0.6183206
6790,12.8448267,-0.1532281,8.3269911,15.4580154,-4.6793895,-250.1374054,-2.8251436,1.5514348,10.1154509,1.7557251,-1.4045801,0.1603053
6800,11.9086981,-1.0773853,8.9542685,23.4656487,0.1221374,-250.1374054,-2.9017577,1.7166338,10.0532017,1.3129771,-2.1450381,-0.8625954
6810,9.5288744,-1.1372399,9.1553802,36.7480927,1.6412214,-250.1374054,-2.9304879,1.7788827,9.7898407,0.5419847,-3.1755726,-1.0152671
6820,7.9558916,-1.8028246,9.0955257,51.3816795,-0.5648855,-250.1374054,-2.9113343,1.7788827,9.7299862,-0.5343512,-3.7633588,-1.1068702
6830,6.1506729,-1.8459201,9.0500364,69.7251892,4.9694657,-250.1374054,-3.0238612,1.8267666,9.8113880,-2.0000000,-6.0458016,-1.3206106
6840,4.7428894,-1.4748207,8.5185261,88.3740463,12.8167934,-250.1374054,-3.0071020,1.7429699,9.7850523,-3.7404580,-7.0076337,-0.7328244
6850,3.1531475,-1.0917504,7.1059542,103.6488571,15.8396950,-250.1374054,-2.9951310,1.6615674,9.8257532,-4.6030536,-7.6488547,-0.2519084
6860,-4.6279683,0.3040621,4.0389977,147.1984711,-52.4198456,-200.3511505,-2.9472473,1.2114599,10.0077124,0.6106870,-4.6793895,1.5877863
6870,-3.4236910,0.4429250,2.4636209,146.9160309,-14.1526718,-178.7022858,-2.8849983,1.2473727,10.1393919,1.2061069,-4.3206105,0.9160305
6880,-3.7301471,0.7733232,0.8954269,136.5801544,30.7480907,-162.4656525,-2.6982515,1.2808913,10.1202393,1.7786260,-3.0381680,-0.0839695
6890,-5.4036856,0.8930327,-0.3160330,116.9312973,62.6564903,-148.0152740,-2.7413468,1.3910241,10.2351599,2.4122138,-1.8396946,0.2366412
6900,-8.1378498,1.0845678,-0.5937590,91.9160309,75.1908417,-125.3511429,-2.6336083,1.4915800,10.0867205,2.8015268,-1.4045801,-1.2824427
6910,-11.3269100,1.3431402,-0.2106887,71.3511429,86.3511429,-86.3664093,-2.6790979,1.5993185,10.0627785,3.0229008,-1.2061069,-1.9618320
6920,-15.4185801,2.1308286,-0.5482694,55.1145020,98.4045792,-25.8167934,-2.5857246,1.6567791,10.0795374,2.8015268,-1.5725191,-3.6183207
6930,-19.3091373,3.0094962,-2.4061604,30.7328243,104.1145020,61.5114517,-2.5905130,1.7262106,10.0101061,2.5648854,-2.2137403,-4.4656487
6940,-19.6131992,3.8354914,-5.6622581,-15.9236641,119.2519073,173.9389343,-2.7724714,1.7573351,9.9191265,1.7862595,-2.7480917,-5.2137403
6950,-19.6131992,3.0501974,-8.8010406,-90.2137375,144.9160309,250.1297760,-2.8083842,1.6807210,10.0220766,1.0000000,-3.4198472,-5.9923663
6960,-19.6131992,0.6847382,-8.3341732,-178.0610657,165.8778687,250.1297760,-2.9113343,1.6304430,9.9382801,0.5114504,-3.7633588,-7.0916033
6970,-19.6131992,-3.2728570,-1.7166338,-239.0763397,168.4351196,250.1297760,-2.9352763,1.5179161,10.0388365,0.4351145,-4.2061067,-6.9389315
6980,-17.5733509,-8.5281029,4.3454537,-250.1374054,168.0152740,250.1297760,-3.0765336,1.4365137,10.0891142,0.3740458,-4.0076337,-7.0152674
6990,-13.4553452,-14.0155849,8.8513184,-234.6717529,147.7938995,250.1297760,-3.1387823,1.3694763,10.0675669,0.4580153,-3.8625953,-6.5343513
7000,-5.1738434,-19.6131992,12.0954447,-190.1068726,106.1297684,250.1297760,-3.1507533,1.3120158,10.0412302,0.7557252,-3.4198472,-6.2442746
7010,8.4514885,-19.6131992,14.2789459,-126.8015289,98.3893127,250.1297760,-3.2249732,1.2473727,9.9263096,0.8549618,-3.0458016,-5.2824426
7020,19.3211098,-19.6131992,13.2470503,-66.4045792,163.5038147,250.1297760,-3.2369442,1.2306134,10.1082678,0.8549618,-3.0610688,-4.2748094
7030,19.6126022,-18.7704449,9.8688488,-47.1145020,236.0152740,250.1297760,-3.2010312,1.2473727,9.8568783,1.0076336,-3.1526718,-3.8549619
7040,19.6126022,-12.8831339,10.9821472,-45.2442741,218.6183167,250.1297760,-3.3159523,1.2593436,10.0053177,0.9236641,-2.9770992,-3.0992367
7050,19.6126022,-6.0477223,13.2159262,-14.0381680,121.9618301,250.1297760,-3.2465210,1.2784972,9.9598284,0.8473282,-3.3969467,-1.6335878
7060,19.6126022,-1.4843974,14.1017761,40.1603050,-26.8473282,250.1297760,-3.1603301,1.3144100,9.9837704,0.9389313,-3.2519083,-0.4351145
7070,19.6126022,1.1683644,12.7777891,101.2977066,-191.9084015,223.8320618,-3.0406206,1.2880739,10.0891142,1.0000000,-2.7404580,0.2290076
7080,19.6126022,4.1515245,7.8218169,141.8854980,-250.1374054,104.0305328,-3.0310438,1.4197544,10.0292597,1.0458015,-2.4885497,0.7862595
7090,19.6126022,5.3486195,2.0422437,134.9236603,-250.1374054,32.2366409,-2.8921809,1.5298871,10.0579901,0.8778626,-2.7022901,0.8625954
7100,19.6126022,4.7213416,-2.0470319,88.8549652,-222.0076294,3.5725191,-2.8610563,1.5705882,10.0555954,0.9312977,-2.9389312,0.2061069
7110,17.2716827,4.0006905,-2.8969693,24.8854961,-103.0763321,6.2977099,-2.8658447,1.5610116,10.0005293,0.8625954,-2.7099237,-0.2213740
7120,13.9365768,3.7205703,-0.4189832,-25.1221371,1.8091604,26.5648861,-2.9520357,1.5610116,9.9813757,0.7938932,-3.4732823,-0.4809160
7130,12.3827477,3.4883339,2.3582766,-45.4885483,68.2290039,46.0687027,-2.9975252,1.6017127,9.9574337,0.5038168,-3.9236641,-1.2366412
7140,11.6309719,3.3398943,4.3861551,-42.2900772,93.4351120,53.8778610,-3.1052637,1.5658000,9.8496952,-0.1679389,-4.3206105,-2.0000000
7150,11.1473465,3.4524212,4.8985114,-24.5190830,78.4580154,51.8244286,-3.0406206,1.4580613,10.0148945,-0.1374046,-4.8015265,-1.9923664
7160,10.7259684,3.4308734,4.5657191,-2.5572519,36.0458031,41.1679382,-3.0645626,1.3503228,9.9741936,-0.1145038,-4.9694657,-2.4656489
7170,10.6230183,3.5410061,3.7684543,14.0687027,-16.2824421,26.5114498,-3.0932927,1.2976507,10.0340481,0.2366412,-5.0610685,-2.4427481
7180,10.9941177,3.7756367,2.9017577,22.1450386,-46.5190849,14.1221371,-3.0166788,1.2354017,10.1106625,0.5648855,-4.8320613,-2.6717558
7190,11.3460636,4.0174499,1.9081690,21.0534344,-53.8320618,2.3969467,-3.0358322,1.2114599,10.1058741,1.2595420,-3.7099237,-2.3587787
7200,11.4202833,3.9935081,1.2808913,11.6564884,-39.6946564,-7.9770994,-3.0118904,1.2377959,10.1250277,1.6488550,-2.7404580,-2.1221373
7210,10.5320396,3.5769191,1.4293311,0.5038168,-15.9923668,-13.7633591,-2.9544299,1.1683644,10.0460186,2.1908398,-1.8091604,-1.3893130
7220,8.9039907,2.9568241,1.8507085,-7.3969464,3.0152671,-9.9160309,-3.0238612,1.3575054,10.0939026,2.3587787,-1.6412214,-1.6488550
7230,7.6111283,1.8961980,2.8730273,-8.6259546,21.5114498,28.3893127,-2.9424589,1.5945302,9.9215212,2.4427481,-1.4122137,-1.4732825
7240,8.5735922,2.1667414,3.0621684,-3.7099237,9.6106873,35.7175560,-2.9209111,1.6783268,9.9670105,1.9694656,-1.4503816,-1.4580153
7250,9.6892843,2.4612267,3.1124463,1.1679389,-2.6259542,35.7099228,-2.8538737,1.7309990,9.9406748,1.4122137,-1.9618320,-2.6641221
7260,10.5344334,2.5809362,2.8419030,4.0229006,-8.6564884,31.8625946,-2.8179610,1.7453641,9.9263096,0.7938932,-2.2137403,-2.8015268
7270,11.2670555,2.5689652,2.2936335,2.3511450,-3.8702290,25.2671757,-2.8203552,1.7190280,9.9526453,0.1068702,-3.3969467,-4.2671757
7280,11.0803089,2.6048782,2.0087249,-11.8244276,12.0076332,12.6946564,-2.7533178,1.6280488,10.0125008,-0.8549618,-5.2519083,-7.4961834
7290,10.9558105,2.4229198,2.3582766,-18.9847336,20.2519093,8.9389315,-2.8347204,1.5993185,10.0460186,-0.8625954,-5.3435116,-8.0992365
7300,10.6182299,2.2840567,2.7030399,-23.6259537,31.1526718,6.5648856,-2.9161227,1.4700323,10.0723553,-0.4351145,-5.2824426,-8.9236641
7310,10.0388365,2.2385671,3.1315999,-27.3358784,39.4351158,8.6793890,-2.9855542,1.4125718,10.0316534,-0.2977099,-4.8396945,-9.7328243
7320,10.0196829,2.3056045,3.8259149,-28.5954189,37.0381660,13.1068707,-3.1196289,1.2928623,9.9694052,-0.1068702,-3.7786260,-9.2290077
7330,11.1449518,2.5138988,4.7668314,-26.3206100,26.0305347,17.1145039,-3.2824337,1.2377959,9.8496952,0.2061069,-4.0152674,-9.0305347
7340,13.3092995,2.8849983,5.5640965,-19.8625946,19.0763359,16.9312973,-3.3566537,1.1779412,9.9670105,0.2366412,-3.5038168,-8.5343513
7350,18.8398762,2.4684093,4.8075323,19.8091602,64.0229034,-50.6183205,-3.4715748,1.1779412,9.9765873,1.5190840,-3.3969467,-0.8167939
7360,19.6126022,2.8682389,3.5074875,-2.3740458,-4.3282442,-182.2442780,-3.2106080,1.4365137,10.1250277,2.1603053,-3.2977099,2.0916030
7370,19.6126022,2.3008161,3.4260850,-14.0839691,8.1526718,-221.6183167,-3.1363883,1.4915800,10.0986910,2.5038168,-2.7557251,3.2824428
7380,19.6126022,1.6735384,3.5290353,-24.1297703,22.9083977,-250.1374054,-3.0382264,1.5538290,9.9837704,2.5190840,-2.4809160,3.8167939
7390,18.6842537,0.8283895,3.6870518,-30.0381680,34.9312973,-250.1374054,-2.9352763,1.7381816,10.0939026,2.5190840,-1.9312977,2.9312978
7400,17.0155048,0.1963235,4.0174499,-30.4122143,41.9083977,-250.1374054,-2.7964132,1.7525467,9.9263096,2.2366412,-1.8854961,3.1297710
7410,14.8296099,-0.3830703,4.0581512,-26.1984730,39.1450386,-250.1374054,-2.7628946,1.8459201,9.8640604,1.3816794,-2.4656489,2.7251909
7420,12.4138727,-0.8164186,4.0318151,-20.0534344,28.5801525,-250.1374054,-2.6479735,1.8483143,9.8999729,0.3816794,-3.0610688,1.6946565
7430,9.8520899,-0.8547257,4.0366035,-12.6717558,12.4961834,-250.1374054,-2.6575503,1.8938038,9.8137827,-0.9541985,-3.9160306,0.1221374
7440,8.5209198,-0.9313397,3.8354914,-5.1450381,-2.0229008,-250.1374054,-2.6192431,1.7908537,9.7587166,-2.1450381,-4.9083967,-0.9770992
7450,7.2472115,-1.1803354,3.6726866,0.3358779,-18.0229015,-250.1374054,-2.6647329,1.7860653,9.7515335,-3.3129771,-6.4045801,-3.1297710
7460,5.4779053,-1.7908537,3.4596038,2.9465649,-33.2366409,-250.1374054,-2.7868366,1.5873476,9.8592720,-4.0916033,-7.4961834,-4.4274807
7470,3.5721307,-2.2577207,3.7349355,6.7862597,-46.2824440,-250.1374054,-2.9424589,1.5274929,9.9622221,-4.3893127,-7.8625956,-5.7633586
7480,1.3670821,-2.5905130,4.2568688,13.4122133,-60.1603050,-250.1374054,-3.0023136,1.3886299,10.1705170,-4.1526718,-8.1145039,-6.0076337
7490,0.2657550,-2.8802099,4.8314743,22.9312973,-72.7480927,-250.1374054,-3.1770895,1.2665262,10.1010857,-3.3664122,-7.4656487,-5.9847326
7500,0.4955972,-2.7413468,5.6119800,37.1450386,-68.9770966,-250.1374054,-3.1962428,1.2330076,10.1465750,-2.3587787,-6.2671757,-6.0534353
7510,0.2729376,-2.5234756,6.3876977,52.2671738,-62.0992355,-250.1374054,-3.1746953,1.1539993,10.1154509,-1.1068702,-5.2671757,-5.5801525
7520,-0.6895266,-2.7533178,6.8761120,64.2519073,-62.9618340,-250.1374054,-3.2417326,1.0797794,10.1393919,-0.0305344,-4.7480917,-5.2290077
7530,-2.0494261,-3.3925664,6.3948798,74.4503784,-60.2671738,-250.1374054,-3.1339941,1.1300575,10.0723553,1.1526718,-3.6335878,-5.2824426
7540,-4.3574247,-3.8881636,6.0596933,82.4961853,-52.2748108,-250.1374054,-3.2297616,1.1587877,10.1106625,1.8091604,-2.9160306,-4.6412215
7550,-6.9120250,-3.6870518,5.8849177,88.5954208,-52.7251892,-250.1374054,-3.2010312,1.2090657,10.0340481,2.3511450,-2.5725191,-4.0000000
7560,-8.3820572,-3.0334380,5.4084740,95.5877838,-54.5190849,-250.1374054,-3.0861101,1.2042773,10.1369982,2.9847329,-2.2442749,-3.3816793
7570,-9.4091644,-2.2074428,4.9128766,104.1755753,-59.2595406,-250.1374054,-3.0956869,1.3263810,9.9909525,3.5572519,-1.6793894,-3.7633588
7580,-9.8616667,-1.4484847,4.2879934,115.2824402,-68.7404556,-241.4656525,-2.9951310,1.3527170,10.0699606,3.8320611,-1.3511450,-3.8091602
7590,-9.8903971,-0.7661406,3.6104376,123.7251892,-79.8625946,-201.0534363,-2.9568241,1.5466464,9.9550400,4.0610685,-1.7251909,-3.5496182
7600,-9.9071560,-0.2298422,2.8586621,128.3664093,-79.1374054,-162.0381622,-2.8610563,1.5298871,9.8784256,3.6259542,-2.3053436,-4.0000000
7610,-9.7635050,0.6584021,2.1380112,128.0000000,-69.3740463,-124.4656525,-2.8012016,1.6687500,9.7850523,2.7480917,-3.1679389,-4.9007635
7620,-10.0316534,1.2473727,1.3862357,122.3435135,-47.2671738,-86.4885483,-2.8323262,1.6687500,9.7108326,1.0305344,-6.0534353,-6.5877862
7630,-10.3572636,1.6376256,0.3447633,114.5801544,-17.4198475,-45.2977104,-2.6503677,1.6902977,9.5671806,-1.8244275,-8.6793890,-8.2290077
7640,-10.3428984,2.0302727,-0.4740495,105.2290039,9.8167934,-4.4427481,-2.8155668,1.6783268,9.7730818,-3.8396947,-9.9083967,-8.3740454
7650,-11.2119894,2.1427996,-0.7589580,96.4045792,32.7251892,39.8244286,-3.0430148,1.6256547,9.8784256,-3.7786260,-9.9541988,-9.3740454
7660,-13.0722742,2.1451938,-1.0773853,91.3358765,57.9160309,93.3435135,-3.0166788,1.6112895,10.0747490,-3.6183207,-9.7633591,-8.2977095
7670,-17.0442352,2.1811066,-1.7836711,86.4351120,83.5343475,169.5801544,-3.2489152,1.4221486,10.2016411,-3.1603053,-7.8015265,-7.6335878
7680,-19.6131992,2.4372849,-3.9216824,70.2442780,114.0229034,250.1297760,-3.2800395,1.4317253,10.0627785,-2.0534351,-6.8320613,-6.3664122
7690,-19.6131992,3.2632802,-6.1219425,27.0229015,151.2290039,250.1297760,-3.3279233,1.4221486,10.2567072,-0.8778626,-5.0763359,-4.4961834
7700,-19.6131992,1.1516051,-7.6925306,-43.1603050,175.0686951,250.1297760,-3.2441268,1.3551112,10.1896706,0.0458015,-3.2290077,-4.2519083
7710,-19.6131992,-4.3861551,-8.0779953,-131.7938995,220.6412201,250.1297760,-3.2537034,1.3072275,9.9885588,0.5190840,-2.5419848,-2.7786260
7720,-16.2038746,-17.0801468,-5.3414369,-234.8625946,250.1297760,250.1297760,-3.1794837,1.3575054,9.9789820,0.8015267,-2.4732823,-2.6717558
7730,-3.1627243,-19.6131992,-0.0670373,-250.1374054,250.1297760,250.1297760,-3.2010312,1.2928623,9.9287033,0.8549618,-2.5648854,-2.7099237
7740,12.3683825,-19.6131992,4.0198441,-250.1374054,250.1297760,250.1297760,-3.1962428,1.2904681,9.8975792,0.8091603,-2.6717558,-2.1297710
7750,19.6126022,-19.6131992,8.8704720,-250.1374054,244.5267181,250.1297760,-3.0238612,1.2832855,9.9813757,0.8320611,-3.4045801,-2.2366412
7760,19.6126022,-17.9659977,17.9085369,-250.1374054,247.0229034,250.1297760,-3.0597742,1.3096216,9.8903971,0.0534351,-4.7328243,-2.8167939
7770,19.6126022,-3.2704628,19.6126022,-244.6946564,246.8244324,250.1297760,-3.0525916,1.2689204,9.8449068,-1.4503816,-5.4580154,-2.3053436
7780,19.6126022,5.9591374,19.6126022,-87.0916061,184.7862549,208.2442780,-2.9999194,1.2497669,10.1681223,-0.4961832,-4.7022901,-1.5572519
7790,19.6126022,4.3215117,19.6126022,72.3206100,40.3969460,-34.5343513,-2.9041519,1.3551112,10.2471304,1.3816794,-3.1984732,-2.5572519
7800,19.6126022,1.1085097,15.2414103,155.7786255,-143.5267181,-170.6717529,-3.0238612,1.3503228,10.3883877,3.0839694,-1.9465649,-2.0458016
7810,12.1529055,1.3958124,6.9599090,166.0534363,-250.1374054,-204.1755676,-2.9256995,1.4604555,10.1824875,4.3435116,0.0076336,-1.2366412
7820,4.8338685,3.0813217,2.9951310,135.8015289,-250.1374054,-159.8702240,-2.8873925,1.5586174,10.0675669,3.7786260,0.3358779,-2.0763359
7830,3.9599893,3.9719603,1.0630201,91.5801544,-250.1374054,-83.6946564,-2.8826041,1.6424140,9.6797075,1.6946565,-1.8702290,-2.0687022
7840,6.2320752,4.9966736,0.0742199,42.6412201,-164.5648804,-16.0610695,-2.9328821,1.6998745,9.5911226,-0.2977099,-3.7786260,-2.6183207
7850,7.8122401,5.7197185,0.0885850,-2.2366412,-41.2442741,26.2061062,-3.0310438,1.6041069,9.8401184,-0.8320611,-4.5496182,-2.6412213
7860,7.4195933,5.4228392,0.9959828,-34.5496178,56.3664131,50.0152664,-3.1746953,1.5586174,9.9765873,-1.4045801,-4.8778625,-2.0763359
7870,5.8322453,4.8530221,2.6096666,-48.2748108,104.9007645,65.3893127,-3.1148405,1.4389079,10.0077124,-1.8625954,-4.9160304,-2.1450381
7880,4.5369892,3.8905578,4.0509686,-47.5419846,113.1679382,79.7862625,-3.1028695,1.3072275,10.0125008,-1.2061069,-5.2290077,-2.4503818
7890,4.3526363,2.9352763,4.8673873,-36.0763359,94.7404556,93.4656525,-3.1411765,1.2665262,10.1346035,-1.0458015,-5.2671757,-2.4809160
7900,5.3079181,2.5857246,5.5162125,-18.0458012,61.4198456,100.5419846,-3.1603301,1.2162483,10.0220766,-0.6488550,-5.2519083,-2.8931298
7910,7.6087341,2.6024840,5.5808558,23.7099228,-14.0458012,89.0534363,-3.1794837,1.1683644,10.0172882,0.2213740,-4.1755724,-2.6259542
7920,8.3389616,2.5689652,5.0469513,38.7709923,-37.4351158,80.8473282,-3.1387823,1.1731528,10.0867205,1.0687023,-3.5419848,-1.5419847
7930,10.1441803,2.7365584,3.4045374,46.4809151,-35.4045792,71.0839691,-3.1315999,1.3335636,10.0915089,2.3206108,-1.8091604,-1.1145039
7940,11.7818060,3.1627243,2.4803803,38.9083977,-10.8015270,66.2061081,-3.1196289,1.4149660,10.0053177,2.9083970,-1.1603054,-0.8167939
7950,12.1145983,3.0741394,1.1252691,1.2824427,65.6030502,45.1984749,-3.1148405,1.5634058,9.8018112,0.8473282,-3.7709923,-0.3893130
7960,9.6653433,3.1818779,2.8610563,-27.6412220,70.5725174,31.4427490,-3.0406206,1.6711442,10.0699606,1.7938931,-3.4045801,-0.5114504
7970,10.1058741,3.1100521,4.8290801,-16.6335869,11.4961834,30.1221371,-2.7006457,1.5586174,9.7371683,-0.4809160,-4.0534353,0.0687023
7980,10.4889441,3.0717452,4.9224534,-13.1603050,7.7022901,27.6717548,-2.7413468,1.4724265,9.8377247,-1.1832061,-4.3816795,-1.3282443
7990,10.9055328,3.2584918,4.9272418,-11.1984730,11.4427481,25.2977104,-2.7628946,1.3838415,9.8712435,-1.1068702,-3.9007633,-1.8244275
8000,11.1712875,3.4045374,4.9224534,-10.1297712,19.3435116,20.5954189,-2.8107784,1.3694763,10.0005293,-2.0076337,-4.5877862,-2.5114503
8010,10.9270811,3.3614421,4.7764082,-9.5038166,25.5114498,15.7328243,-2.8945751,1.3982066,10.0077124,-2.1755726,-5.3969464,-4.0763359
8020,10.6038647,3.2177906,4.3813667,-9.8320608,27.9923668,13.0916033,-2.9520357,1.3982066,10.0148945,-1.2977099,-5.3435116,-4.5725193
8030,10.6828737,3.4165084,4.3670015,-13.8167934,21.4274807,9.0458012,-3.0166788,1.4006008,10.0795374,-0.2442748,-3.9007633,-4.1374044
8040,11.1329813,3.2728570,4.7524662,-17.0992374,10.2977095,3.2061069,-3.0501974,1.4628497,10.1106625,-0.0534351,-3.6106870,-5.1297708
8050,11.6549139,3.3255291,5.1187773,-17.3206100,-1.6106870,-5.0305343,-3.1268115,1.4915800,10.0699606,0.0534351,-3.7938931,-4.8244276
8060,12.3683825,3.4117200,5.2049680,-16.4885502,-9.6183205,-15.7328243,-3.0382264,1.4580613,9.9765873,0.2671756,-3.2290077,-4.4503818
8070,13.0483322,3.5721307,5.3007355,-17.7328243,-7.6183205,-28.9770985,-2.9951310,1.4628497,9.9885588,0.7251908,-2.7480917,-4.3358779
8080,13.1967726,3.5457945,5.5617023,-20.3206100,-2.0610688,-42.1908379,-3.0358322,1.3646880,10.0891142,1.0152671,-2.5572519,-4.9541984
8090,13.2542324,3.3518653,5.8130918,-23.0992374,4.0305343,-53.0610695,-2.9879484,1.3407460,10.1944590,1.7251909,-2.1832061,-4.8778625
8100,13.6061783,3.3135581,5.8250628,-25.9541988,12.7480917,-62.7709923,-2.9759774,1.4006008,10.1034794,2.3435113,-1.9465649,-6.0916033
8110,14.1424770,3.2273674,5.9998388,-28.7251911,20.8854961,-73.0763321,-3.1220231,1.3790531,10.0627785,2.4503818,-2.1450381,-5.8244276
8120,14.6787758,3.2225790,6.2584114,-30.1832066,17.7404575,-87.8167953,-3.0382264,1.3766589,9.9143381,2.1145039,-2.5648854,-4.7786260
8130,15.9046001,3.4524212,6.4092450,-30.2366409,5.4351144,-108.9312973,-3.0765336,1.3670821,10.0460186,2.9236641,-1.7328244,-5.1297708
8140,16.8718529,3.6798692,6.3876977,-31.3282452,-1.9389313,-140.0305328,-3.1842721,1.3575054,9.9310980,3.6946564,-0.9312977,-4.1832061
8150,16.9245243,3.5625539,6.1770086,-33.8015251,-8.1450386,-175.8854980,-3.3327117,1.4772149,9.8616667,2.7328243,-1.5267175,-3.4580152
8160,16.8000278,3.3327117,5.9016771,-36.9923668,-17.9541988,-212.4809113,-3.2848279,1.4700323,9.6892843,0.9083970,-2.4809160,-2.6870229
8170,16.3858318,2.7581062,5.7987270,-40.0534363,-29.8320618,-250.1374054,-3.2369442,1.4029950,9.7443514,0.0305344,-3.7328243,-2.2748091
8180,15.1887379,1.9847831,5.7412663,-42.2748108,-41.7557259,-250.1374054,-3.3973548,1.3862357,9.7012558,0.1297710,-4.1755724,-1.2290076
8190,13.3452120,1.4532729,5.8921003,-42.5343513,-54.9160309,-250.1374054,-3.3734128,1.3407460,9.8161764,-0.5801527,-4.8015265,-0.5801527
8200,11.4107065,0.9768293,6.0094156,-39.1450386,-65.0381699,-250.1374054,-3.3375001,1.4508789,9.8401184,-1.6412214,-5.9312978,0.1297710
8210,9.7180147,0.8020535,5.9830794,-32.1679382,-72.2900772,-250.1374054,-3.2106080,1.3814473,9.9502516,-1.9923664,-5.6717558,0.0916031
8220,7.7811155,0.6081241,5.8250628,-24.6564884,-78.9847336,-250.1374054,-3.2130022,1.3958124,10.1106625,-1.2595420,-5.7099237,0.4045801
8230,6.3422079,0.5003856,5.4348102,-16.7328243,-86.5572510,-250.1374054,-3.1531475,1.4221486,10.1681223,-0.5648855,-4.7786260,0.8473282
8240,5.3558016,0.7038917,5.1882086,-10.2442751,-94.7480927,-250.1374054,-3.0645626,1.4556671,10.1633339,-0.2595420,-4.4961834,0.6641222
8250,4.5657191,0.9289455,4.9966736,-5.7709923,-100.5954208,-250.1374054,-3.0142846,1.3910241,10.1346035,0.0000000,-3.9770992,1.0305344
8260,3.4308734,0.8906385,5.2839761,-1.8167939,-106.5038147,-250.1374054,-2.9831600,1.4652439,10.0053177,1.1450381,-3.0916030,1.1755725
8270,2.4612267,0.9696468,5.8322453,4.2519083,-112.6793900,-250.1374054,-2.9280937,1.4628497,10.0747490,1.9160305,-1.9465649,0.3587786
8280,1.5681942,1.0630201,6.3086891,13.7099237,-118.3893127,-250.1374054,-3.0190730,1.4939742,10.1298151,2.0610688,-1.7404580,1.1603054
8290,1.0749911,1.1396341,6.3206601,24.2213745,-119.9236679,-250.1374054,-3.0118904,1.4867916,10.0819321,1.8702290,-2.4122138,0.4351145
8300,0.7254394,1.0510491,5.8585815,32.7022896,-116.5496216,-250.1374054,-2.9065459,1.5179161,9.9837704,1.9007634,-2.4580152,0.0763359
8310,0.0694315,0.9121862,5.3438311,38.4122124,-101.8167953,-250.1374054,-2.9735832,1.4532729,9.9622221,1.9160305,-2.4961832,-0.5572519
8320,-0.9145803,0.6344602,4.8027439,39.6946564,-87.5114517,-250.1374054,-3.0023136,1.5322813,9.9095497,1.6259542,-2.7404580,-0.1526718
8330,-1.6591733,0.5075682,4.1682839,36.5496178,-77.7786255,-250.1374054,-3.0310438,1.5681942,10.0029240,1.2519084,-3.1297710,-0.5267175
8340,-2.4277081,0.2130829,3.7493007,32.3511467,-60.9465637,-250.1374054,-2.8969693,1.6041069,9.8712435,0.8396947,-3.1603053,0.0839695
8350,-3.3422885,-0.0933734,3.9144998,28.3893127,-36.4427490,-250.1374054,-2.9209111,1.6112895,9.9885588,0.3816794,-3.2671757,-0.3664122
8360,-4.2736282,-0.4477134,3.9312592,25.8091602,-4.1908398,-245.3511505,-2.8873925,1.6352314,9.8018112,-0.0610687,-3.9618320,-1.5190840
8370,-5.6143742,-1.0175306,3.6535332,21.6412220,36.0228996,-218.1068726,-2.7700772,1.5993185,10.0077124,-0.6641222,-4.2519083,-1.5648855
8380,-6.6941538,0.3687052,3.2896163,16.6793900,79.8320618,-182.5648804,-2.8419030,1.5873476,9.9334917,-1.0763359,-4.8854961,-2.5725191
8390,-8.7747040,0.7469871,2.2002602,8.3282442,137.6870270,-142.3816833,-2.8466914,1.5227045,10.0388365,-1.3740458,-4.7480917,-3.2900763
8400,-14.3435888,0.9600700,-0.0407012,-8.7480917,202.0458069,-84.3282471,-2.8371146,1.4963684,9.9478569,-1.5038168,-5.0152674,-3.8473282
8410,-19.6131992,1.3622938,-2.3415172,-44.6183205,237.2137451,21.2061062,-2.8035958,1.4053892,10.0699606,-1.4503816,-5.0152674,-4.4122138
8420,-19.6131992,1.5825592,-2.1380112,-90.2671738,178.4122162,188.1832123,-2.8849983,1.4101776,10.1489687,-1.0992366,-4.1603055,-4.9618320
8430,-19.6131992,0.1699875,-0.0957676,-125.2748108,85.5343475,250.1297760,-2.8921809,1.3838415,10.2878323,0.0381679,-3.6717558,-5.7099237
8440,-19.6131992,-7.3669209,1.4604555,-150.7404633,55.2748108,250.1297760,-2.8969693,1.4053892,10.1896706,1.1603054,-2.5648854,-6.3893127
8450,-19.6131992,-16.7976341,3.3470769,-191.7328186,107.4732819,250.1297760,-3.0142846,1.4604555,10.0723553,2.2977099,-1.6488550,-7.0992365
8460,-15.7202482,-19.6131992,6.5816269,-247.8854980,229.4427490,250.1297760,-3.1244173,1.4772149,10.0340481,2.9160306,-1.0992366,-7.0534353
8470,1.0965388,-19.6131992,10.4769726,-250.1374054,250.1297760,250.1297760,-3.1986370,1.5227045,9.8496952,3.1832061,-1.2442749,-7.4274807
8480,19.6126022,-19.6131992,16.5845509,-250.1374054,250.1297760,250.1297760,-3.2010312,1.4772149,9.7371683,2.4580152,-1.1450381,-7.0152674
8490,19.6126022,-19.6131992,19.6126022,-250.1374054,250.1297760,250.1297760,-3.3518653,1.4915800,9.7275915,1.5267175,-1.5954199,-6.7480917
8500,19.6126022,-11.2670555,19.6126022,-188.8244324,250.1297760,250.1297760,-3.3446827,1.4915800,9.7682934,0.7328244,-3.2290077,-6.3893127
8510,19.6126022,11.0156660,19.6126022,33.7099228,191.2061005,138.7633514,-3.5003049,1.3694763,9.7228031,-0.2824427,-3.8320611,-6.0229006
8520,19.6126022,6.1674318,19.6126022,207.3969421,-146.4809113,-221.1984711,-3.5290353,1.3048333,9.7682934,-0.4656489,-4.7633586,-3.7709923
8530,19.6126022,-2.0853391,11.5998478,250.1297760,-250.1374054,-250.1374054,-3.5673423,1.2330076,9.8257532,-0.9694657,-5.2519083,-2.6793892
8540,3.9575951,-1.6328372,6.8354111,246.4809113,-250.1374054,-250.1374054,-3.4452386,1.2545552,9.8568783,-1.1984733,-5.5496182,-1.1450381
8550,-2.7197993,0.3854645,5.4731169,211.7251892,-250.1374054,-250.1374054,-3.4476328,1.2090657,9.8688488,-1.0152671,-5.7175574,-0.0534351
8560,-3.5266411,1.7262106,3.5410061,181.2595367,-250.1374054,-162.9389343,-3.3015873,1.2665262,9.9550400,-1.1374046,-5.3282442,0.7709923
8570,-0.7661406,3.7708483,-0.1771700,136.4122162,-188.0458069,-22.9465656,-3.3063757,1.3048333,10.0244713,-0.4885496,-5.1679387,1.5648855
8580,3.2656744,6.0596933,-3.5529771,68.7862625,-9.2977095,72.9847336,-3.1268115,1.4484847,10.0627785,-0.4198473,-5.0458016,2.2671757
8590,5.6239510,6.5050125,-4.5561423,-4.1374044,124.3282471,121.5419846,-3.0454090,1.4197544,10.0077124,-0.3893130,-4.5190840,2.0916030
8600,6.1650376,6.1961622,-3.6224086,-61.9389305,206.2366486,147.8549652,-3.1076579,1.5418580,10.1058741,-0.0992366,-3.5801528,2.8320611
8610,6.1770086,5.2073622,-1.5897418,-102.1984711,250.1297760,164.5801544,-2.9807658,1.5538290,10.0986910,0.0381679,-3.4503818,2.5648854
8620,6.2991123,3.8594334,0.7565638,-125.2977066,250.1297760,168.3664093,-2.9544299,1.5825592,10.0388365,0.2671756,-2.9770992,2.6259542
8630,6.8114691,3.1818779,3.5553713,-131.8320618,231.1297760,155.9389343,-2.8730273,1.5945302,10.0627785,0.7251908,-2.7938931,2.1068702
8640,8.1593981,3.2848279,6.8210459,-116.5572510,152.2595367,130.0229034,-2.8682389,1.6304430,9.9813757,0.7328244,-2.7099237,1.1221374
8650,10.1010857,2.9448531,9.7491398,-37.1984749,-16.8854961,65.1221390,-2.9831600,1.5227045,9.9765873,0.3740458,-1.1603054,0.8625954
8660,11.4274664,3.0693510,9.0739784,0.3740458,-75.0610657,37.3358765,-3.0980811,1.5705882,9.9550400,0.5114504,-1.5190840,0.7404580
8670,12.4330254,3.4141142,7.3980455,20.9541988,-102.7786255,11.3282442,-3.0669568,1.4987626,9.9598284,0.7251908,-2.6488550,0.9236641
8680,12.1672707,3.4715748,5.9016771,24.0610695,-102.2824402,-8.2977095,-3.0932927,1.5346755,9.9957409,0.5648855,-2.8702290,0.4274809
8690,11.6261835,3.2608860,4.9966736,15.6793890,-82.3358765,-17.2748089,-3.1435707,1.4413021,10.0508070,0.7557252,-2.4503818,0.4274809
8700,10.0915089,2.9999194,4.8410511,-13.7328243,-15.6717558,-3.3358779,-3.0358322,1.4748207,10.0460186,1.2366412,-1.7938931,1.5801526
8710,9.6892843,3.1172347,5.3558016,-25.8702297,17.8473282,12.3511448,-3.0525916,1.5418580,9.9909525,1.5190840,-1.3358779,0.8702290
8720,10.3859940,3.2704628,5.9591374,-44.9847336,63.6793900,32.9847336,-2.9113343,1.5610116,10.0436249,1.5496184,-2.4961832,0.3358779
8730,11.1712875,3.2991931,6.6271162,-51.7328262,73.6641235,33.4351158,-2.7892308,1.5586174,9.9406748,1.2213740,-2.5572519,-0.3358779
8740,12.1265697,3.3805954,7.1538382,-54.2748108,74.2824402,26.4732819,-2.7844424,1.7118455,9.9813757,0.6488550,-2.6412213,-1.3587786
8750,12.9908724,3.4428444,7.8529415,-53.0610695,66.5038147,11.6793890,-2.6838863,1.7262106,9.9167328,-0.1450382,-3.2519083,-2.3740458
8760,13.7354650,3.5170643,8.6669655,-47.3816795,51.0610695,-8.9083967,-2.8179610,1.6831152,9.8233595,-0.5648855,-3.7404580,-3.6106870
8770,14.1185350,3.5817075,9.2942438,-38.0534363,28.7633591,-35.7938919,-2.8371146,1.6902977,9.8473015,-1.0534351,-4.7480917,-5.0839696
8780,14.5111818,3.3446827,9.6988611,-26.5572510,7.6641221,-64.0076370,-2.8586621,1.6017127,10.0101061,-1.3893130,-5.8091602,-6.4198475
